Time	Pos X	Pos Y	Vel X	Vel Y	Acc X	Acc YForce X	Force Y
0.01656713	-0.02531038	0.01909954	0.0003892782	-0.0002937543	-5.988692E-06	4.519144E-06	0	0
0.05750651	-0.02533668	0.01908082	-0.0006423812	-0.0004572513	1.58771E-05	2.516196E-06	0	0
0.07406772	-0.02533668	0.01908082	0	0	0.01117173	0.007952115	0	0
0.09104974	-0.02533668	0.01908082	0	0	0	0	0	0
0.1072016	-0.02533668	0.01908082	0	0	0	0	0	0
0.1240723	-0.02533668	0.01908082	0	0	0	0	0	0
0.1403339	-0.02531038	0.01909954	0.001617227	0.001151153	0.0488112	0.03474414	0	0
0.1568998	-0.02531038	0.01909954	0	0	-0.04926433	-0.03506669	0	0
0.1734666	-0.02533668	0.01908082	-0.001587439	-0.00112995	-0.04791157	-0.03410378	0	0
0.1900333	-0.02533668	0.01908082	0	0	0.04791043	0.03410297	0	0
0.2066004	-0.02533668	0.01908082	0	0	0	0	0	0
0.223196	-0.02531038	0.01909954	0.001584682	0.001127988	0.04778511	0.03401376	0	0
0.2397331	-0.02531038	0.01909954	0	0	-0.04782837	-0.03404456	0	0
0.2562999	-0.02531038	0.01909954	0	0	0	0	0	0
0.2728686	-0.02531038	0.01909954	0	0	0	0	0	0
0.2894333	-0.02531038	0.01909954	0	0	0	0	0	0
0.3061982	-0.02531038	0.01909954	0	0	0	0	0	0
0.3225668	-0.02531038	0.01909954	0	0	0	0	0	0
0.3391328	-0.02531038	0.01909954	0	0	0	0	0	0
0.3556995	-0.02531038	0.01909954	0	0	0	0	0	0
0.3722698	-0.02531038	0.01909954	0	0	0	0	0	0
0.3888357	-0.02531038	0.01909954	0	0	0	0	0	0
0.4054021	-0.02531038	0.01909954	0	0	0	0	0	0
0.4219676	-0.02531038	0.01909954	0	0	0	0	0	0
0.4385348	-0.02533668	0.01911826	-0.0015874	0.00112981	-0.04791038	0.03409954	0	0
0.4718202	-0.02533668	0.01911826	0	0	0.03184187	-0.02266301	0	0
0.5063578	-0.02533668	0.01911826	0	0	0	0	0	0
0.5229246	-0.02533668	0.01911826	0	0	0	0	0	0
0.5394949	-0.02533668	0.01911826	0	0	0	0	0	0
0.5560597	-0.02533668	0.01911826	0	0	0	0	0	0
0.5726248	-0.02533668	0.01911826	0	0	0	0	0	0
0.5891911	-0.02533668	0.01911826	0	0	0	0	0	0
0.6059098	-0.02533668	0.01911826	0	0	0	0	0	0
0.6388913	-0.02533668	0.01911826	0	0	0	0	0	0
0.6554593	-0.02533668	0.01911826	0	0	0	0	0	0
0.6720252	-0.02533668	0.01911826	0	0	0	0	0	0
0.6885911	-0.02536298	0.01913698	-0.001587518	0.001129893	-0.04791517	0.03410295	0	0
0.7051579	-0.02536298	0.01913698	0	0	0.04791396	-0.03410209	0	0
0.7217246	-0.02536298	0.01913698	0	0	0	0	0	0
0.7382914	-0.02536298	0.01913698	0	0	0	0	0	0
0.7548597	-0.02536298	0.01913698	0	0	0	0	0	0
0.7715271	-0.02536298	0.01913698	0	0	0	0	0	0
0.7879936	-0.02536298	0.01913698	0	0	0	0	0	0
0.8045587	-0.02536298	0.01913698	0	0	0	0	0	0
0.8211274	-0.02536298	0.01913698	0	0	0	0	0	0
0.8376926	-0.02538928	0.01915569	-0.001587592	0.001129946	-0.04791448	0.03410246	0	0
0.8542609	-0.02538928	0.01915569	0	0	0.04791508	-0.03410289	0	0
0.8708252	-0.02538928	0.01915569	0	0	0	0	0	0
0.8873923	-0.02538928	0.01915569	0	0	0	0	0	0
0.9041225	-0.02538928	0.01915569	0	0	0	0	0	0
0.9205247	-0.02538928	0.01915569	0	0	0	0	0	0
0.9370914	-0.02538928	0.01915569	0	0	0	0	0	0
0.9536582	-0.02538928	0.01915569	0	0	0	0	0	0
0.9702249	-0.02538928	0.01915569	0	0	0	0	0	0
0.9867932	-0.02538928	0.01915569	0	0	0	0	0	0
1.003358	-0.02538928	0.01915569	0	0	0	0	0	0
1.020203	-0.02538928	0.01915569	0	0	0	0	0	0
1.036717	-0.02538928	0.01915569	0	0	0	0	0	0
1.053228	-0.02541558	0.01917441	-0.001592824	0.00113367	-0.04823205	0.03432848	0	0
1.069741	-0.02538928	0.01915569	0.00159256	-0.001133482	0.09645609	-0.06865127	0	0
1.086251	-0.02538928	0.01915569	0	0	-0.04822526	0.03432365	0	0
1.102759	-0.02541558	0.01917441	-0.001593055	0.001133834	-0.04824772	0.03433964	0	0
1.119325	-0.02541558	0.01917441	0	0	0.04816651	-0.03428184	0	0
1.135892	-0.02541558	0.01917441	0	0	0	0	0	0
1.152458	-0.02541558	0.01917441	0	0	0	0	0	0
1.169025	-0.02541558	0.01917441	0	0	0	0	0	0
1.189295	-0.02541558	0.01917441	0	0	0	0	0	0
1.205862	-0.02541558	0.01917441	0	0	0	0	0	0
1.222846	-0.02541558	0.01917441	0	0	0	0	0	0
1.238995	-0.02544188	0.01919313	-0.001628498	0.001159176	-0.04914976	0.03498513	0	0
1.255869	-0.02544188	0.01919313	0	0	0.0493137	-0.03510183	0	0
1.27213	-0.02546818	0.01921185	-0.001617347	0.001151124	-0.04881146	0.03474087	0	0
1.288695	-0.02546818	0.01921185	0	0	0.04927092	-0.03506789	0	0
1.305405	-0.02546818	0.01921185	0	0	0	0	0	0
1.321916	-0.02546818	0.01921185	0	0	0	0	0	0
1.338395	-0.02544188	0.01919313	0.001595924	-0.001135877	0.04837585	-0.03443083	0	0
1.354962	-0.02544188	0.01919313	0	0	-0.04829436	0.03437283	0	0
1.371529	-0.02544188	0.01919313	0	0	0	0	0	0
1.388463	-0.02544188	0.01919313	0	0	0	0	0	0
1.404663	-0.02544188	0.01919313	0	0	0	0	0	0
1.421487	-0.02544188	0.01919313	0	0	0	0	0	0
1.437795	-0.02544188	0.01919313	0	0	0	0	0	0
1.454362	-0.02544188	0.01919313	0	0	0	0	0	0
1.471026	-0.02544188	0.01919313	0	0	0	0	0	0
1.487534	-0.02544188	0.01919313	0	0	0	0	0	0
1.520628	-0.02544188	0.01919313	0	0	0	0	0	0
1.537198	-0.02544188	0.01919313	0	0	0	0	0	0
1.553765	-0.02544188	0.01919313	0	0	0	0	0	0
1.570329	-0.02544188	0.01919313	0	0	0	0	0	0
1.586896	-0.02544188	0.01919313	0	0	0	0	0	0
1.603463	-0.02544188	0.01919313	0	0	0	0	0	0
1.620127	-0.02544188	0.01919313	0	0	0	0	0	0
1.636643	-0.02544188	0.01919313	0	0	0	0	0	0
1.653162	-0.02544188	0.01919313	0	0	0	0	0	0
1.669729	-0.02546818	0.01917441	-0.001587438	-0.001129949	-0.04797904	-0.03415181	0	0
1.686295	-0.02546818	0.01917441	0	0	0.04791086	0.03410327	0	0
1.703186	-0.02546818	0.01917441	0	0	0	0	0	0
1.719429	-0.02546818	0.01917441	0	0	0	0	0	0
1.736209	-0.02546818	0.01917441	0	0	0	0	0	0
1.752563	-0.02546818	0.01917441	0	0	0	0	0	0
1.802261	-0.02544188	0.01919313	0.0005291598	0.0003766596	0.008011193	0.005702422	0	0
1.818828	-0.02544188	0.01919313	0	0	-0.007985425	-0.00568408	0	0
1.835395	-0.02544188	0.01919313	0	0	0	0	0	0
1.852292	-0.02544188	0.01919313	0	0	0	0	0	0
1.868803	-0.02546818	0.01917441	-0.001592755	-0.001133734	-0.04767614	-0.0339362	0	0
1.885095	-0.02546818	0.01917441	0	0	0.04855403	0.03456109	0	0
1.901661	-0.02546818	0.01917441	0	0	0	0	0	0
1.918338	-0.02546818	0.01917441	0	0	0	0	0	0
1.934795	-0.02546818	0.01917441	0	0	0	0	0	0
1.969715	-0.02546818	0.01917441	0	0	0	0	0	0
2.002849	-0.02546818	0.01917441	0	0	0	0	0	0
2.019416	-0.02546818	0.01917441	0	0	0	0	0	0
2.035982	-0.02544188	0.01919313	0.001587483	0.001129981	0.04791172	0.03410389	0	0
2.05255	-0.02544188	0.01919313	0	0	-0.04791137	-0.03410364	0	0
2.069115	-0.02544188	0.01919313	0	0	0	0	0	0
2.085956	-0.02544188	0.01919313	0	0	0	0	0	0
2.102474	-0.02544188	0.01919313	0	0	0	0	0	0
2.118817	-0.02544188	0.01919313	0	0	0	0	0	0
2.135382	-0.02544188	0.01919313	0	0	0	0	0	0
2.151948	-0.02544188	0.01919313	0	0	0	0	0	0
2.168515	-0.02544188	0.01919313	0	0	0	0	0	0
2.185082	-0.02544188	0.01919313	0	0	0	0	0	0
2.201648	-0.02544188	0.01919313	0	0	0	0	0	0
2.218215	-0.02544188	0.01919313	0	0	0	0	0	0
2.234782	-0.02544188	0.01919313	0	0	0	0	0	0
2.251348	-0.02544188	0.01919313	0	0	0	0	0	0
2.267915	-0.02544188	0.01919313	0	0	0	0	0	0
2.284482	-0.02544188	0.01919313	0	0	0	0	0	0
2.301109	-0.02544188	0.01919313	0	0	0	0	0	0
2.317616	-0.02544188	0.01919313	0	0	0	0	0	0
2.334182	-0.02544188	0.01919313	0	0	0	0	0	0
2.350748	-0.02544188	0.01919313	0	0	0	0	0	0
2.367315	-0.02544188	0.01919313	0	0	0	0	0	0
2.384168	-0.02541558	0.01917441	0.001560488	-0.001110766	0.0466938	-0.03323696	0	0
2.400448	-0.02544188	0.01919313	-0.001615334	0.001149806	-0.09584927	0.06822616	0	0
2.417015	-0.02544188	0.01919313	0	0	0.04917691	-0.03500446	0	0
2.433583	-0.02544188	0.01919313	0	0	0	0	0	0
2.450214	-0.02544188	0.01919313	0	0	0	0	0	0
2.466715	-0.02544188	0.01919313	0	0	0	0	0	0
2.483282	-0.02544188	0.01919313	0	0	0	0	0	0
2.500252	-0.02546818	0.01921185	-0.001549746	0.00110301	-0.04621015	0.03288942	0	0
2.516415	-0.02546818	0.01921185	0	0	0.04677343	-0.03329033	0	0
2.532985	-0.02549447	0.01930544	-0.001587095	0.00564785	-0.04848508	0.1725394	0	0
2.549791	-0.02575746	0.01956747	-0.01564905	0.0155923	-0.4213257	0.2979566	0	0
2.566118	-0.02586265	0.01967976	-0.006442634	0.006877505	0.2778642	-0.2630264	0	0
2.582808	-0.02596785	0.01979205	-0.006302653	0.006727852	0.004239554	-0.004532493	0	0
2.599251	-0.02596785	0.01997919	0	0.0113819	0.1902268	0.1404684	0	0
2.615832	-0.02604674	0.02022246	-0.004757887	0.01467086	-0.1440743	0.09959369	0	0
2.632385	-0.02617823	0.02039087	-0.007943937	0.01017431	-0.09615656	-0.1357081	0	0
2.64895	-0.02557337	0.02112054	0.03651407	0.04404883	1.342441	1.022865	0	0
2.665517	-0.02360088	0.02256073	0.1190581	0.086929	2.491326	1.294201	0	0
2.682082	-0.0153409	0.02842772	0.4986379	0.354178	11.4564	8.066054	0	0
2.717771	0.006920942	0.04415101	0.6237837	0.4405713	2.394976	1.653352	0	0
2.734339	0.02026039	0.05360179	0.8051357	0.5704259	3.470429	2.484953	0	0
2.750903	0.02946515	0.06016115	0.5556809	0.3959806	-7.52894	-5.265037	0	0
2.767471	0.04158128	0.0689457	0.7313309	0.5302364	5.301509	4.05214	0	0
2.784451	0.04686041	0.0730264	0.3108864	0.2403112	-12.53258	-8.642069	0	0
2.800605	0.05533818	0.08288864	0.5248311	0.6105392	6.45691	11.17358	0	0
2.817473	0.05788264	0.08644085	0.150842	0.2105845	-11.32556	-12.11188	0	0
2.833737	0.05746298	0.09243445	-0.02580344	0.3685309	-5.331591	4.76721	0	0
2.850304	0.05507582	0.1011532	-0.1440892	0.5262622	-3.602898	4.80438	0	0
2.867013	0.05250433	0.1073472	-0.1539001	0.3707028	-0.2948332	-4.67481	0	0
2.88352	0.05174325	0.1175735	-0.04610501	0.6194904	3.245229	7.489887	0	0
2.900003	0.05271428	0.1250423	0.05891078	0.4531184	3.183194	-5.042998	0	0
2.91657	0.05431494	0.132245	0.09661929	0.4347728	1.140959	-0.55509	0	0
2.933137	0.0597446	0.1401658	0.3277443	0.4781134	6.975568	1.308059	0	0
2.949704	0.06118669	0.1422215	0.087043	0.1240799	-7.264432	-10.68483	0	0
2.966582	0.06729298	0.1494377	0.3618028	0.4275638	8.215302	9.074151	0	0
2.982838	0.07436263	0.1558283	0.4348921	0.3931194	2.205905	-1.039563	0	0
2.999404	0.08299313	0.1618132	0.5209759	0.3612745	2.622736	-0.9702268	0	0
3.016114	0.08693819	0.1646947	0.2360892	0.1724419	-8.561306	-5.674724	0	0
3.032629	0.09526341	0.1710148	0.5041141	0.3827021	8.067066	6.328451	0	0
3.049142	0.1011015	0.175683	0.3535371	0.2826902	-4.559086	-3.028104	0	0
3.065673	0.1041481	0.1834017	0.1843004	0.4669332	-5.121541	5.57567	0	0
3.082239	0.103289	0.1904621	-0.05185906	0.4261898	-7.135368	-1.231027	0	0
3.099174	0.1030286	0.1987956	-0.01537488	0.4920983	1.089051	1.967363	0	0
3.115371	0.1029766	0.2033373	-0.003214788	0.2803889	0.3670161	-6.389815	0	0
3.132204	0.1026381	0.2047605	-0.02010965	0.08455054	-0.5114925	-5.929015	0	0
3.148505	0.1026901	0.2047245	0.003194839	-0.002210335	0.7033409	-2.618486	0	0
3.165219	0.1026901	0.2047605	0	0.002155726	-0.09676857	0.1322438	0	0
3.181731	0.1027162	0.2048146	0.001577007	0.003273135	0.04746267	0.0336303	0	0
3.198204	0.1028984	0.2051928	0.01106544	0.02296494	0.2876655	0.5970063	0	0
3.214772	0.1037056	0.2058593	0.04871399	0.04022348	1.139466	0.5223444	0	0
3.231337	0.1042262	0.2065437	0.03143036	0.04131644	-0.521636	0.03298675	0	0
3.247904	0.1041741	0.2066157	-0.003142629	0.004347873	-1.043482	-1.115786	0	0
3.264471	0.1039399	0.2068859	-0.01414179	0.01630634	-0.3319601	0.3609125	0	0
3.281038	0.1038097	0.207084	-0.007856798	0.01195744	0.1896868	-0.1312538	0	0
3.297814	0.101388	0.2096948	-0.1443563	0.1556296	-4.093848	4.308965	0	0
3.314172	0.09779233	0.2170007	-0.219803	0.44661	-2.276985	8.781806	0	0
3.330738	0.09461142	0.2297265	-0.1920192	0.7682073	0.8438718	9.767817	0	0
3.347304	0.09168956	0.2373035	-0.1763742	0.4573742	0.4722039	-9.381705	0	0
3.363871	0.09012362	0.2418254	-0.09452264	0.2729534	2.470393	-5.566072	0	0
3.380873	0.08469167	0.2484255	-0.3194918	0.3881966	-6.701771	3.433064	0	0
3.397004	0.08016991	0.2515269	-0.2803037	0.1922562	1.182736	-5.913661	0	0
3.413898	0.07559253	0.2546633	-0.2709533	0.1856591	0.2831275	-0.1997592	0	0
3.430137	0.07360364	0.2560969	-0.1224747	0.08827556	4.481318	-2.93919	0	0
3.446705	0.07368216	0.2564373	0.004739373	0.02054942	3.877639	-2.064373	0	0
3.463272	0.07318485	0.2568853	-0.03001777	0.02703704	-1.04895	0.1957925	0	0
3.479837	0.06745016	0.2608443	-0.3461914	0.2389985	-9.542756	6.397423	0	0
3.496469	0.06357212	0.2634949	-0.2331764	0.1593765	3.404429	-2.39851	0	0
3.531029	0.05337032	0.2704594	-0.295187	0.2015149	-1.211338	0.8231485	0	0
3.613859	0.05368521	0.2702446	0.003801581	-0.002593095	2.546965	-1.738715	0	0
3.648238	0.05376393	0.2701909	0.002289712	-0.001562088	-0.0128989	0.008796297	0	0
3.664806	0.05376393	0.2701909	0	0	-0.04494264	0.03066079	0	0
3.681373	0.05379017	0.270173	0.001583998	-0.001079385	0.04780549	-0.03257614	0	0
3.697939	0.05381641	0.2701551	0.001583998	-0.001081184	0	-5.429603E-05	0	0
3.714609	0.05381641	0.2701551	0	0	-0.04765838	0.03253002	0	0
3.731122	0.05381641	0.2701551	0	0	0	0	0	0
3.747638	0.05381641	0.2701551	0	0	0	0	0	0
3.764207	0.05381641	0.2701551	0	0	0	0	0	0
3.780772	0.05381641	0.2701551	0	0	0	0	0	0
3.797339	0.05381641	0.2701551	0	0	0	0	0	0
3.813906	0.05381641	0.2701551	0	0	0	0	0	0
3.830474	0.05381641	0.2701193	0	-0.002160352	0	-0.06519908	0	0
3.847202	0.05381641	0.2701193	0	0	0	0.06488301	0	0
3.863713	0.05381641	0.2701193	0	0	0	0	0	0
3.880225	0.05384265	0.2701014	0.001588987	-0.001084744	0.04811775	-0.03284824	0	0
3.89674	0.05384265	0.2701014	0	0	-0.04811081	0.0328435	0	0
3.913305	0.05384265	0.2701014	0	0	0	0	0	0
3.930266	0.05384265	0.2700656	0	-0.002110365	0	-0.06294855	0	0
3.946439	0.05384265	0.2700656	0	0	0	0.06369185	0	0
3.963295	0.05384265	0.2700656	0	0	0	0	0	0
3.979573	0.05386889	0.2700477	0.001612023	-0.001100313	0.04865166	-0.033208	0	0
3.996307	0.05386889	0.2700477	0	0	-0.04883086	0.03333031	0	0
4.012706	0.05386889	0.2700477	0	0	0	0	0	0
4.029273	0.05384265	0.2700298	-0.001583952	-0.001079354	-0.04804925	-0.03274224	0	0
4.045843	0.05386889	0.2700119	0.001583633	-0.001080935	0.09559103	-4.771586E-05	0	0
4.062859	0.05386889	0.2700119	0	0	-0.04715155	0.03218408	0	0
4.078975	0.05386889	0.2700119	0	0	0	0	0	0
4.09554	0.05384265	0.269994	-0.001584135	-0.001081277	-0.04847266	-0.03308583	0	0
4.112107	0.05384265	0.269994	0	0	0.04781272	0.03263537	0	0
4.128901	0.05384265	0.269994	0	0	0	0	0	0
4.145412	0.05384265	0.269994	0	0	0	0	0	0
4.161806	0.05384265	0.269994	0	0	0	0	0	0
4.178438	0.05384265	0.269994	0	0	0	0	0	0
4.211506	0.05381641	0.2699761	-0.0007934165	-0.0005407354	-0.01596388	-0.01087983	0	0
4.228073	0.05381641	0.2699761	0	0	0.01598489	0.01089415	0	0
4.244987	0.05379017	0.2699582	-0.001551487	-0.001058994	-0.04634048	-0.03163047	0	0
4.261206	0.05379017	0.2699582	0	0	0.04682667	0.03196233	0	0
4.278512	0.05379017	0.2699582	0	0	0	0	0	0
4.29434	0.05379017	0.2699224	0	-0.002261464	0	-0.06825209	0	0
4.364075	0.05358025	0.2697434	-0.003010232	-0.002566737	-0.03518159	-0.003567832	0	0
4.380584	0.05352776	0.2697076	-0.003178976	-0.002168058	-0.001956573	0.004622655	0	0
4.397069	0.0534228	0.2696002	-0.006366921	-0.006515388	-0.09662116	-0.1317602	0	0
4.413637	0.0532916	0.2695107	-0.007919533	-0.005402012	-0.04697421	0.03368515	0	0
4.430203	0.05323911	0.2694749	-0.00316822	-0.002162368	0.143399	0.09777545	0	0
4.44713	0.05281925	0.2691885	-0.02480488	-0.01691997	-0.6460045	-0.4406168	0	0
4.463638	0.05268803	0.269099	-0.007948576	-0.00542136	0.5041533	0.3439106	0	0
4.48015	0.05263555	0.2690632	-0.003178651	-0.002169487	0.1444556	0.09848187	0	0
4.496469	0.05260931	0.2690453	-0.001607926	-0.00109569	0.04784176	0.03270613	0	0
4.513173	0.05258306	0.2690274	-0.001571243	-0.001072326	0.001110827	0.0007075263	0	0
4.529606	0.05255682	0.2690095	-0.001596775	-0.001088092	-0.0007705046	-0.0004757884	0	0
4.546173	0.05255682	0.2690095	0	0	0.04838713	0.03297249	0	0
4.563227	0.05255682	0.2690095	0	0	0	0	0	0
4.579303	0.05255682	0.2690095	0	0	0	0	0	0
4.595871	0.05253058	0.2689916	-0.001584086	-0.001081091	-0.0485264	-0.0331178	0	0
4.612744	0.05250433	0.2689737	-0.001555435	-0.001061537	0.0008567724	0.0005847191	0	0
4.629256	0.05247809	0.2689558	-0.001589212	-0.001082939	-0.001011765	-0.0006410466	0	0
4.645769	0.05234687	0.2688663	-0.007946276	-0.005421443	-0.1924909	-0.1313693	0	0
4.662137	0.05216316	0.268741	-0.01122373	-0.007654548	-0.09967531	-0.0679142	0	0
4.678703	0.05045713	0.2675774	-0.1029819	-0.07024099	-2.786107	-1.900349	0	0
4.695305	0.04924962	0.2664673	-0.07273319	-0.0668603	0.9119758	0.1019254	0	0
4.711836	0.04974839	0.2659481	0.03017214	-0.03141045	3.105823	1.069925	0	0
4.728403	0.04974839	0.2608622	0	-0.3069935	-0.9116072	-8.326339	0	0
4.745338	0.0471755	0.2515448	-0.1519288	-0.5501883	-4.534967	-7.259195	0	0
4.761538	0.04454945	0.2336414	-0.1621055	-1.105179	-0.3071353	-16.74965	0	0
4.77836	0.04355139	0.2170726	-0.05932783	-0.9848976	3.112363	3.64242	0	0
4.794875	0.04231683	0.1995888	-0.07475732	-1.058708	-0.4628322	-2.214048	0	0
4.811383	0.03987359	0.1780158	-0.1479979	-1.306775	-2.217874	-7.511974	0	0
4.827894	0.03627356	0.1650389	-0.2180391	-0.7859566	-2.121202	15.77302	0	0
4.844405	0.03212053	0.1585857	-0.2515315	-0.3908452	-1.01425	11.96512	0	0
4.861419	0.01923447	0.1469667	-0.7573786	-0.6829072	-15.08866	-8.71177	0	0
4.877503	0.01365705	0.1431854	-0.3467745	-0.2350995	12.4058	13.52986	0	0
4.89407	0.003499986	0.136125	-0.613099	-0.4261821	-8.156833	-5.852367	0	0
4.910636	-0.004447339	0.1305501	-0.4797153	-0.3365093	4.025644	2.706406	0	0
4.927465	-0.01273615	0.1246956	-0.4925312	-0.3478837	-0.3837589	-0.3405927	0	0
4.943981	-0.02362718	0.1168424	-0.6594526	-0.4755066	-5.005998	-3.827432	0	0
4.960492	-0.02620453	0.1150509	-0.1560991	-0.108505	15.24103	11.11243	0	0
4.993471	-0.04520602	0.1018499	-0.5761693	-0.4002846	-8.487987	-5.895732	0	0
5.010037	-0.04953839	0.09882368	-0.261517	-0.1826756	6.350801	4.392123	0	0
5.026603	-0.05245185	0.09675001	-0.1758669	-0.1251745	2.585074	1.735486	0	0
5.04317	-0.05326536	0.09618095	-0.04910522	-0.0343491	3.825841	2.741235	0	0
5.060975	-0.05476099	0.09498756	-0.08400211	-0.06702735	-1.015289	-0.9507405	0	0
5.077572	-0.0549184	0.09480393	-0.009484394	-0.01106337	2.166063	1.626748	0	0
5.09411	-0.05344905	0.093702	0.08884922	-0.06663129	2.967629	-1.676995	0	0
5.110678	-0.05150703	0.09234259	0.1172167	-0.08205228	0.8568852	-0.4658153	0	0
5.127243	-0.04349886	0.08651444	0.48343	-0.3518279	11.05282	-8.142195	0	0
5.14381	-0.03919045	0.08316482	0.2600636	-0.2021896	-6.741697	4.516418	0	0
5.160377	-0.02836081	0.07324786	0.6536781	-0.5985885	11.87948	-11.96352	0	0
5.177142	-0.02399539	0.06885333	0.2603871	-0.2621239	-11.79908	10.09424	0	0
5.193655	-0.01357811	0.06149393	0.6308582	-0.4456762	11.13262	-5.515725	0	0
5.210168	-0.006447279	0.05647517	0.4318349	-0.3039304	-6.026309	4.291978	0	0
5.226679	0.0002631579	0.05174688	0.4064113	-0.2863643	-0.7698446	0.5319138	0	0
5.24321	0.008341912	0.0460839	0.4887176	-0.3425772	2.490963	-1.701259	0	0
5.259778	0.013315	0.0425705	0.3001677	-0.2120633	-5.69668	3.94323	0	0
5.276344	0.01828744	0.03905382	0.3001453	-0.2122732	-0.0006763758	-0.006333378	0	0
5.35927	0.03724593	0.02560754	0.2286199	-0.1621484	-0.7189014	0.5038042	0	0
5.375744	0.03721965	0.02562622	-0.001595154	0.001134065	-2.316057	1.642688	0	0
5.39231	0.03721965	0.02562622	0	0	0.0482801	-0.03432446	0	0
5.408878	0.03719337	0.0256449	-0.001586289	0.001127715	-0.04787498	0.034035	0	0
5.425443	0.03719337	0.0256449	0	0	0.04787567	-0.03403549	0	0
5.442014	0.03719337	0.0256449	0	0	0	0	0	0
5.458577	0.03716709	0.02562622	-0.001586612	-0.001128105	-0.04788542	-0.03404725	0	0
5.475144	0.03716709	0.02562622	0	0	0.04789024	0.03405068	0	0
5.491711	0.03708825	0.02571964	-0.004758964	0.005639113	-0.1436279	0.1701912	0	0
5.508276	0.03703569	0.025757	-0.003172901	0.002255708	0.04787163	-0.1021202	0	0
5.524888	0.03700941	0.02577569	-0.001581921	0.001124769	0.04795444	-0.03408812	0	0
5.541412	0.03695685	0.02581305	-0.003180775	0.002261305	-0.04825142	0.03429924	0	0
5.557976	0.03693057	0.02579437	-0.0015867	-0.001128007	0.04817653	-0.1024327	0	0
5.574544	0.03693057	0.02579437	0	0	0.04789014	0.03404578	0	0
5.591109	0.03690429	0.02581305	-0.001586338	0.00112791	-0.04787715	0.03404137	0	0
5.607947	0.03677289	0.02590647	-0.007804092	0.005547913	-0.186144	0.1323238	0	0
5.624244	0.03658893	0.02603724	-0.0112882	0.008024517	-0.1051506	0.07474405	0	0
5.64097	0.0363524	0.02620537	-0.01414081	0.01005182	-0.08638148	0.06138992	0	0
5.657376	0.03622099	0.02629878	-0.008009828	0.00569344	0.1850467	-0.1315456	0	0
5.673944	0.03619471	0.0262801	-0.001586334	-0.001127523	0.194809	-0.2068633	0	0
5.690509	0.03611587	0.02626142	-0.004759326	-0.001127653	-0.09576384	-3.921091E-06	0	0
5.707076	0.03608959	0.02624274	-0.001586426	-0.001127588	0.09576384	1.960602E-06	0	0
5.723644	0.03603702	0.02624274	-0.003172577	0	-0.04786946	0.03403018	0	0
5.740209	0.03598446	0.02624274	-0.003173217	0	-1.929654E-05	0	0	0
5.756776	0.03587933	0.0262801	-0.006345703	0.002255175	-0.09575409	0.06806721	0	0
5.774442	0.03585305	0.02629878	-0.001487684	0.001057405	0.14191	-0.03498869	0	0
5.791011	0.03585305	0.02629878	0	0	0.04345444	-0.03088622	0	0
5.807588	0.03585305	0.02629878	0	0	0	0	0	0
5.824145	0.03585305	0.02629878	0	0	0	0	0	0
5.840711	0.03585305	0.02629878	0	0	0	0	0	0
5.874683	0.03585305	0.02629878	0	0	0	0	0	0
5.89125	0.03580049	0.02633614	-0.003172943	0.00225524	-0.06278204	0.04462375	0	0
5.924386	0.03569536	0.0263735	-0.003172623	0.001127507	6.431841E-06	-0.02268983	0	0
5.94095	0.03569536	0.0263735	0	0	0.06383453	-0.02268591	0	0
5.957518	0.03569536	0.0263735	0	0	0	0	0	0
5.974083	0.03572164	0.02635482	0.001586563	-0.001127685	0.04788462	-0.03403507	0	0
5.99072	0.03572164	0.02635482	0	0	-0.0477856	0.03396469	0	0
6.007231	0.03566908	0.02635482	-0.00318348	0	-0.09603893	0	0	0
6.023784	0.03556395	0.0262801	-0.006351412	-0.004514249	-0.09581243	-0.1365311	0	0
6.04035	0.03535368	0.02613065	-0.01269222	-0.009021186	-0.1914569	-0.1360843	0	0
6.056919	0.03480173	0.02577569	-0.03331194	-0.02142311	-0.6222866	-0.37428	0	0
6.073484	0.03219939	0.02403773	-0.1571001	-0.1049184	-3.735987	-2.51993	0	0
6.09029	0.0248107	0.01889363	-0.4396555	-0.3060933	-8.467222	-6.028526	0	0
6.106801	0.0153409	0.01214813	-0.5735294	-0.4085354	-4.018174	-3.074759	0	0
6.123184	0.005184164	0.004938337	-0.6199675	-0.4400857	-1.411744	-0.9591472	0	0
6.13975	-0.005105219	-0.002418723	-0.6210863	-0.4440858	-0.03395622	-0.1214029	0	0
6.156336	-0.0215756	-0.01426964	-0.993068	-0.714541	-11.22046	-8.158008	0	0
6.172884	-0.02783491	-0.01877229	-0.3782486	-0.2720942	18.55582	13.35345	0	0
6.272284	-0.05053588	-0.03490615	-0.2283799	-0.1623123	1.292549	0.9468184	0	0
6.288858	-0.05048339	-0.03486808	0.003167345	0.002296393	1.996537	1.419354	0	0
6.305419	-0.05045713	-0.03488711	0.001585174	-0.00114901	-0.04774864	-0.1039795	0	0
6.321986	-0.05037839	-0.03490615	0.004753342	-0.001148871	0.09563614	4.195931E-06	0	0
6.338971	-0.05035214	-0.03492517	0.001545392	-0.001120333	-0.09561352	0.0008505783	0	0
6.355118	-0.0502209	-0.03483002	0.00812811	0.00589277	0.1986811	0.2116711	0	0
6.371684	-0.0500109	-0.03467778	0.01267625	0.009189616	0.13903	0.1007796	0	0
6.388251	-0.0499059	-0.03460167	0.006338057	0.004594676	-0.1912954	-0.1386816	0	0
6.405013	-0.0498534	-0.03456361	0.003132067	0.002270432	-0.09619217	-0.06973635	0	0
6.421384	-0.0498534	-0.03456361	0	0	-0.0945287	-0.06852375	0	0
6.437953	-0.0498534	-0.03456361	0	0	0	0	0	0
6.454517	-0.0498534	-0.03456361	0	0	0	0	0	0
6.471084	-0.0498534	-0.03456361	0	0	0	0	0	0
6.504218	-0.04882957	-0.03374549	0.030899	0.02469086	0.6217009	0.4967907	0	0
6.537619	-0.03527484	-0.02383122	0.4058239	0.2968297	5.635004	4.09016	0	0
6.553917	-0.0241795	-0.01583917	0.6807669	0.4903612	5.532183	3.894087	0	0
6.570627	-0.01844528	-0.01171842	0.3431651	0.2466068	-10.22785	-7.384685	0	0
6.58705	-0.01286771	-0.007678383	0.3396145	0.2459952	-0.1071634	-0.01846127	0	0
6.603618	-0.01057855	-0.00603737	0.1381698	0.09904888	-6.106061	-4.454142	0	0
6.620183	-0.01060487	-0.006056228	-0.001588418	-0.001138395	-4.218095	-3.023788	0	0
6.636749	-0.01060487	-0.006056228	0	0	0.04794269	0.03435981	0	0
6.653316	-0.01060487	-0.006056228	0	0	0	0	0	0
6.670197	-0.01060487	-0.006056228	0	0	0	0	0	0
6.686712	-0.01060487	-0.006056228	0	0	0	0	0	0
6.703035	-0.01060487	-0.006056228	0	0	0	0	0	0
6.73883	-0.01060487	-0.006056228	0	0	0	0	0	0
6.755764	-0.01086799	-0.005867657	-0.01553805	0.01113535	-0.2946742	0.2111784	0	0
6.772272	-0.01139424	-0.005490548	-0.03187923	0.02284452	-0.488642	0.3501334	0	0
6.78853	-0.01684051	-0.001590008	-0.3349852	0.2399116	-9.250664	6.624793	0	0
6.805297	-0.02596785	0.004938337	-0.5443775	0.3893673	-6.340458	4.525561	0	0
6.821664	-0.03406576	0.01068487	-0.494758	0.3510953	1.497543	-1.155066	0	0
6.838319	-0.03898025	0.01415441	-0.2950844	0.2083246	6.046694	-4.323513	0	0
6.855337	-0.04024142	0.01501656	-0.07410689	0.05066047	6.562492	-4.682239	0	0
6.871362	-0.03984732	0.01432311	0.02459286	-0.04327322	2.986974	-2.842738	0	0
6.887929	-0.04008378	0.01411692	-0.01427292	-0.01244566	-1.192484	0.9458542	0	0
6.904497	-0.04011006	0.01387322	-0.00158593	-0.01470943	0.3828942	-0.06832064	0	0
6.921376	-0.04026769	0.01342328	-0.00933907	-0.02665605	-0.2318052	-0.357183	0	0
6.937629	-0.04029397	0.01340453	-0.001616593	-0.001153538	0.2330782	0.7697118	0	0
6.954401	-0.04029397	0.01340453	0	0	0.0489516	0.03492998	0	0
6.970911	-0.04029397	0.01340453	0	0	0	0	0	0
6.987329	-0.04029397	0.01340453	0	0	0	0	0	0
7.003934	-0.04032024	0.01342328	-0.001582108	0.001129092	-0.04790876	0.0341907	0	0
7.020463	-0.04032024	0.01342328	0	0	0.04775018	-0.03407753	0	0
7.037029	-0.04032024	0.01342328	0	0	0	0	0	0
7.053596	-0.04026769	0.01338578	0.003171727	-0.002263439	0.09572567	-0.0683127	0	0
7.070163	-0.04026769	0.01338578	0	0	-0.09572567	0.0683127	0	0
7.086748	-0.04026769	0.01338578	0	0	0	0	0	0
7.103504	-0.04026769	0.01338578	0	0	0	0	0	0
7.119863	-0.04026769	0.01338578	0	0	0	0	0	0
7.152997	-0.04021515	0.01334829	0.001585864	-0.00113172	0.03204259	-0.02286655	0	0
7.170053	-0.04018888	0.01332954	0.001540484	-0.001099285	-0.0009041704	0.0006462519	0	0
7.18613	-0.04021515	0.01331079	-0.001634237	-0.001166187	-0.09581601	-0.002019162	0	0
7.202697	-0.04021515	0.01331079	0	0	0.05006198	0.03572408	0	0
7.219265	-0.04021515	0.01331079	0	0	0	0	0	0
7.236099	-0.04021515	0.01331079	0	0	0	0	0	0
7.252397	-0.04021515	0.01331079	0	0	0	0	0	0
7.269124	-0.04021515	0.01331079	0	0	0	0	0	0
7.28553	-0.04024142	0.01329204	-0.001601283	-0.001142833	-0.04832821	-0.03449176	0	0
7.302146	-0.04021515	0.01327329	0.001581064	-0.001128402	0.09637072	0.0004370009	0	0
7.318664	-0.04024142	0.01325454	-0.001590466	-0.001135169	-0.09571972	-0.0002042305	0	0
7.335231	-0.04024142	0.01321704	0	-0.002263487	0.04807232	-0.03410373	0	0
7.351796	-0.04021515	0.01316079	0.001585888	-0.003395649	0.04786495	-0.03417069	0	0
7.368364	-0.04024142	0.01310454	-0.00158566	-0.003395217	-0.09572163	1.304941E-05	0	0
7.385204	-0.04024142	0.01310454	0	0	0.04746324	0.1016283	0	0
7.401495	-0.04026769	0.01308579	-0.001612807	-0.001150952	-0.04867882	-0.03473879	0	0
7.418228	-0.04026769	0.01308579	0	0	0.04883767	0.03485215	0	0
7.434739	-0.04026769	0.01308579	0	0	0	0	0	0
7.467763	-0.04026769	0.01308579	0	0	0	0	0	0
7.486475	-0.04026769	0.01308579	0	0	0	0	0	0
7.503287	-0.04026769	0.01308579	0	0	0	0	0	0
7.519609	-0.04029397	0.01306704	-0.001609698	-0.00114879	-0.04858007	-0.03467004	0	0
7.536179	-0.04029397	0.01306704	0	0	0.04893854	0.03492587	0	0
7.552742	-0.04032024	0.01304828	-0.001586071	-0.001132032	-0.04786977	-0.03416627	0	0
7.569309	-0.04032024	0.01304828	0	0	0.04787391	0.03416922	0	0
7.585876	-0.04032024	0.01304828	0	0	0	0	0	0
7.602857	-0.04032024	0.01304828	0	0	0	0	0	0
7.619009	-0.04034651	0.01302953	-0.00162671	-0.001160931	-0.04909634	-0.03503848	0	0
7.635575	-0.04037279	0.01301078	-0.001585976	-0.00113186	0.001244991	0.0008885109	0	0
7.652393	-0.04042533	0.01297328	-0.003124424	-0.002229959	-0.04608295	-0.03289266	0	0
7.668709	-0.04042533	0.01297328	0	0	0.09429802	0.06730225	0	0
7.701842	-0.04047788	0.01293578	-0.001585886	-0.001131876	-0.03207117	-0.02288979	0	0
7.718438	-0.04050415	0.01291703	-0.001582972	-0.001129876	5.860929E-05	4.021839E-05	0	0
7.734975	-0.04050415	0.01291703	0	0	0.04777556	0.03410072	0	0
7.751542	-0.04050415	0.01291703	0	0	0	0	0	0
7.768475	-0.04050415	0.01291703	0	0	0	0	0	0
7.784678	-0.04050415	0.01291703	0	0	0	0	0	0
7.801243	-0.04050415	0.01291703	0	0	0	0	0	0
7.854229	-0.04050415	0.01291703	0	0	0	0	0	0
7.871047	-0.04050415	0.01291703	0	0	0	0	0	0
7.887364	-0.04050415	0.01291703	0	0	0	0	0	0
7.903932	-0.04053042	0.01289827	-0.001585885	-0.001131795	-0.04822436	-0.03441618	0	0
7.920583	-0.04053042	0.01289827	0	0	0.04774117	0.03407134	0	0
7.937064	-0.0405567	0.01287952	-0.001593963	-0.001137778	-0.04810937	-0.03434069	0	0
7.953629	-0.0405567	0.01284202	0	-0.002263972	0.04823363	-0.03407883	0	0
7.970196	-0.04058297	0.01282327	-0.001585976	-0.001131916	-0.04786829	0.03416797	0	0
7.987134	-0.04060924	0.01280451	-0.001551019	-0.001107125	0.001043348	0.0007399549	0	0
8.003329	-0.04060924	0.01280451	0	0	0.04681187	0.03341453	0	0
8.019897	-0.04060924	0.01280451	0	0	0	0	0	0
8.069689	-0.04060924	0.01280451	0	0	0	0	0	0
8.102731	-0.04063552	0.01278576	-0.0007951852	-0.0005675264	-0.009599716	-0.00685135	0	0
8.119722	-0.04066179	0.01276701	-0.001546101	-0.001103614	-0.01500823	-0.01071455	0	0
8.135865	-0.04066179	0.01276701	0	0	0.04666141	0.03330713	0	0
8.152746	-0.04068806	0.01274826	-0.001556233	-0.001110901	-0.04712453	-0.03363938	0	0
8.168997	-0.04068806	0.01274826	0	0	0.04697125	0.03352996	0	0
8.185563	-0.04071433	0.01272951	-0.001586022	-0.001131949	-0.04832944	-0.03449288	0	0
8.202281	-0.0407406	0.01271075	-0.001571413	-0.001121682	0.0004388984	0.0003084653	0	0
8.218697	-0.04079315	0.01267325	-0.003200933	-0.002284792	-0.04918041	-0.03510374	0	0
8.235309	-0.04084569	0.01263574	-0.003163078	-0.002257716	0.001146154	0.0008198083	0	0
8.25183	-0.04089823	0.01259823	-0.003180198	-0.002270209	-0.0005166916	-0.0003770642	0	0
8.286053	-0.04113468	0.01242945	-0.006909006	-0.004931933	-0.07348266	-0.05245391	0	0
8.302619	-0.04118722	0.01239194	-0.003171593	-0.002264123	0.07358723	0.05252745	0	0
8.319365	-0.04121349	0.01237319	-0.001568818	-0.001119996	0.04811428	0.03434594	0	0
8.335752	-0.04123976	0.01235443	-0.001603281	-0.001144381	-0.001040126	-0.0007359459	0	0
8.352319	-0.04126604	0.01233568	-0.001585797	-0.001132118	0.0005305634	0.0003721246	0	0
8.368899	-0.04129231	0.01231692	-0.001584429	-0.001131141	4.127428E-05	2.947009E-05	0	0
8.385913	-0.04131858	0.01229817	-0.001544107	-0.001102355	0.001200247	0.000856866	0	0
8.402019	-0.04137112	0.01226066	-0.003262302	-0.002328993	-0.0518791	-0.03703705	0	0
8.418585	-0.0414762	0.01218564	-0.006343187	-0.004528527	-0.09429763	-0.06732182	0	0
8.435151	-0.04166009	0.01205435	-0.01110035	-0.007925217	-0.1435798	-0.1025182	0	0
8.45172	-0.0420016	0.01184802	-0.02061112	-0.01245238	-0.2870274	-0.1366261	0	0
8.468287	-0.04250071	0.01149161	-0.03012789	-0.02151411	-0.2872083	-0.2734758	0	0
8.484984	-0.04252698	0.01147285	-0.001573075	-0.001123474	0.8584258	0.6129913	0	0
8.501419	-0.04255324	0.01149161	-0.001598269	0.001141467	-0.0007604008	0.06835997	0	0
8.517983	-0.04255324	0.01149161	0	0	0.0484338	-0.03459091	0	0
8.534553	-0.04255324	0.01149161	0	0	0	0	0	0
8.551118	-0.04255324	0.01149161	0	0	0	0	0	0
8.567683	-0.04257951	0.01147285	-0.001585888	-0.001132464	-0.0478677	-0.03418176	0	0
8.58425	-0.04257951	0.01147285	0	0	0.04786495	0.0341798	0	0
8.600818	-0.04257951	0.01147285	0	0	0	0	0	0
8.617383	-0.04260578	0.01145409	-0.001585663	-0.001132408	-0.04785816	-0.0341781	0	0
8.634083	-0.04263205	0.01143533	-0.001572895	-0.001123345	0.0003838245	0.0002724316	0	0
8.650597	-0.04260578	0.01141657	0.001590608	-0.001135995	0.09524718	-0.0003808761	0	0
8.667083	-0.04263205	0.01139781	-0.001593276	-0.001137958	-0.09648138	-5.946002E-05	0	0
8.684118	-0.04260578	0.01137905	0.0015419	-0.001101209	0.09352692	0.001096264	0	0
8.700217	-0.04263205	0.0113603	-0.001631596	-0.001165269	-0.0957763	-0.00193332	0	0
8.716784	-0.04263205	0.0113603	0	0	0.04994897	0.03567303	0	0
8.733659	-0.04263205	0.0113603	0	0	0	0	0	0
8.799617	-0.04278966	0.01124773	-0.002389544	-0.001706577	-0.02884763	-0.02060255	0	0
8.816214	-0.04292099	0.01115393	-0.007913282	-0.005651976	-0.06690995	-0.04779126	0	0
8.83275	-0.04302606	0.01107888	-0.006353626	-0.004538087	0.04707187	0.03361819	0	0
8.849738	-0.04315739	0.01094755	-0.007731142	-0.007731033	-0.04108983	-0.09524212	0	0
8.865883	-0.04299979	0.01060981	0.009761818	-0.02091934	0.527969	-0.3980469	0	0
8.88245	-0.04250071	0.009990539	0.03012481	-0.03737937	0.6224933	-0.5031804	0	0
8.899271	-0.04134485	0.008601462	0.06871571	-0.08258043	1.155827	-1.353806	0	0
8.915783	-0.03974222	0.005163874	0.09705883	-0.2081883	0.8503063	-3.768292	0	0
8.932293	-0.04155501	-0.002569421	-0.1097994	-0.4684004	-6.264269	-7.879982	0	0
8.948807	-0.0444444	-0.01215293	-0.1749678	-0.5803322	-1.973373	-3.389425	0	0
8.965282	-0.04856704	-0.02629733	-0.2502261	-0.8585019	-2.281281	-8.432065	0	0
8.981849	-0.05313415	-0.03903862	-0.2756871	-0.7691106	-0.7705663	2.705386	0	0
8.998415	-0.05725315	-0.04714871	-0.2486375	-0.4895538	0.8164065	8.437527	0	0
9.014983	-0.06679522	-0.05461054	-0.5759276	-0.4503713	-9.877633	1.18253	0	0
9.031549	-0.06912652	-0.05631605	-0.1407338	-0.1029566	13.13455	10.4853	0	0
9.048115	-0.07933315	-0.06384002	-0.6161085	-0.4541736	-14.34808	-10.60067	0	0
9.064683	-0.08764333	-0.06999683	-0.5015744	-0.3716048	3.456647	2.491929	0	0
9.083364	-0.1023777	-0.08109415	-0.7887111	-0.594026	-8.14579	-6.309872	0	0
9.099932	-0.1113273	-0.08849158	-0.5401994	-0.4465101	7.050227	4.184995	0	0
9.1165	-0.1190657	-0.1024903	-0.4670672	-0.8449165	2.207069	-12.02358	0	0
9.133434	-0.1222816	-0.1144878	-0.1899018	-0.7084675	8.27296	4.07279	0	0
9.149632	-0.1238627	-0.1227469	-0.09760772	-0.5098773	2.785601	5.993812	0	0
9.166201	-0.1259612	-0.1394864	-0.1266585	-1.010345	-0.8866032	-15.27383	0	0
9.182969	-0.1269452	-0.1512675	-0.05868683	-0.7025714	2.038947	9.232285	0	0
9.199334	-0.1277479	-0.1659272	-0.04904575	-0.8957924	0.290977	-5.831588	0	0
9.2159	-0.1279291	-0.1758932	-0.01093867	-0.6015863	1.157168	8.933926	0	0
9.232466	-0.1282138	-0.1823132	-0.0171893	-0.3875576	-0.1886607	6.459959	0	0
9.249032	-0.126997	-0.1942568	0.07345127	-0.72096	2.735774	-10.06297	0	0
9.265598	-0.1231888	-0.2037004	0.2298762	-0.5700485	4.721186	4.55478	0	0
9.282165	-0.1196365	-0.2116736	0.2144338	-0.4812897	-0.4660794	2.678899	0	0
9.298731	-0.1149385	-0.2152929	0.2835837	-0.218473	2.087069	7.932283	0	0
9.315297	-0.1104955	-0.2188364	0.2681993	-0.2139009	-0.464329	0.137994	0	0
9.331863	-0.1066985	-0.2219138	0.2291985	-0.1857595	-1.177116	0.8493574	0	0
9.348584	-0.1046427	-0.2235775	0.1229498	-0.09949809	-3.19189	2.59144	0	0
9.364998	-0.1043303	-0.2239062	0.01903034	-0.02003079	-3.136297	2.398328	0	0
9.381571	-0.1047989	-0.2242351	-0.0282703	-0.0198419	-1.433933	0.005726452	0	0
9.39813	-0.1104695	-0.2287207	-0.3424371	-0.2708801	-9.48212	-7.576785	0	0
9.414697	-0.1180797	-0.2347652	-0.4593814	-0.3648682	-3.530299	-2.837299	0	0
9.431263	-0.1234221	-0.2390258	-0.3224852	-0.2571824	4.131772	3.250149	0	0
9.44783	-0.1338786	-0.2474079	-0.6311544	-0.5059462	-9.315924	-7.507921	0	0
9.464397	-0.1439964	-0.2556587	-0.6107143	-0.4980185	0.6168853	0.2392562	0	0
9.480963	-0.1503309	-0.2608856	-0.3823933	-0.3155296	6.891137	5.507843	0	0
9.497529	-0.1584756	-0.2677017	-0.4916465	-0.411449	-3.297552	-2.895103	0	0
9.514096	-0.1636803	-0.2719716	-0.3141558	-0.257728	5.356832	4.639445	0	0
9.53072	-0.1686459	-0.2760611	-0.298709	-0.2460111	0.4653963	0.3530169	0	0
9.547231	-0.17133	-0.2782783	-0.162563	-0.1342813	4.108895	3.37201	0	0
9.563796	-0.1737052	-0.2802442	-0.1433866	-0.118678	0.5797631	0.4717364	0	0
9.580362	-0.1749814	-0.2813866	-0.07703572	-0.06896192	2.002646	1.500565	0	0
9.596929	-0.1749049	-0.2814502	0.004620668	-0.003833616	2.464537	1.965689	0	0
9.613495	-0.1745731	-0.2817253	0.02002709	-0.01660814	0.4649936	-0.3855581	0	0
9.630063	-0.1740882	-0.2821275	0.02926956	-0.02427618	0.2789381	-0.2314218	0	0
9.646629	-0.1738584	-0.2823181	0.0138683	-0.01150265	-0.4648108	0.3855059	0	0
9.663196	-0.1671878	-0.2878101	0.4026619	-0.3315224	11.73449	-9.658771	0	0
9.679762	-0.1609124	-0.2930205	0.3788048	-0.3145131	-0.7200506	0.5133718	0	0
9.714451	-0.1478861	-0.3038501	0.3755189	-0.3121933	-0.06410887	0.04525886	0	0
9.731019	-0.1421918	-0.3085912	0.343688	-0.2861534	-0.6210056	0.5080243	0	0
9.747584	-0.1361007	-0.3136679	0.3676984	-0.3064695	0.7246585	-0.6131577	0	0
9.764377	-0.1312413	-0.3177226	0.2893873	-0.2414598	-2.347624	1.94887	0	0
9.780718	-0.1306981	-0.3181761	0.03324154	-0.02775204	-7.730716	6.4499	0	0
9.797284	-0.1257539	-0.3223061	0.2984446	-0.2493038	8.05905	-6.732564	0	0
9.81385	-0.1249509	-0.3229774	0.04847429	-0.04051832	-7.544553	6.301521	0	0
9.830419	-0.1249509	-0.3229341	0	0.00261361	-1.462957	1.301724	0	0
9.846984	-0.1249509	-0.3229341	0	0	0	-0.07888118	0	0
9.86355	-0.1249509	-0.3229341	0	0	0	0	0	0
9.880116	-0.1249768	-0.3229124	-0.001563759	0.001307855	-0.04719707	0.03947341	0	0
9.896683	-0.1249768	-0.3229124	0	0	0.04719707	-0.03947341	0	0
9.91348	-0.1250027	-0.3228907	-0.001542273	0.001289885	-0.04622659	0.03866175	0	0
9.929992	-0.1250027	-0.3228907	0	0	0.04630203	-0.03872485	0	0
9.946383	-0.1250286	-0.3228691	-0.001580863	0.001319962	-0.04804519	0.04011594	0	0
9.96295	-0.1250027	-0.3228474	0.001564209	0.001307855	0.09542658	-0.0003673342	0	0
9.979518	-0.1250027	-0.3228474	0	0	-0.04720792	-0.03947114	0	0
9.996084	-0.1250027	-0.3228041	0	0.002613911	0	0.078888	0	0
10.01265	-0.1249768	-0.3227825	0.001563759	0.001307855	0.04719707	-0.03941912	0	0
10.02922	-0.124925	-0.3227392	0.003127519	0.002613911	0.04719707	0.03941912	0	0
10.04578	-0.1249509	-0.3227175	-0.001563759	0.001307855	-0.1415912	-0.03941912	0	0
10.06235	-0.124925	-0.3226959	0.001563579	0.001305906	0.09438327	-5.882873E-05	0	0
10.07892	-0.1248991	-0.3226309	0.001563759	0.003921766	5.431749E-06	0.07894683	0	0
10.09561	-0.1248732	-0.3226092	0.001552501	0.00129628	-0.0003385156	-0.07894421	0	0
10.11212	-0.1248473	-0.3225876	0.001568726	0.001312009	0.0004886318	0.000473686	0	0
10.12862	-0.1248473	-0.3225443	0	0.002625094	-0.04752343	0.03977896	0	0
10.14518	-0.1248473	-0.3225443	0	0	0	-0.07939918	0	0
10.16176	-0.1248214	-0.3225226	0.001563309	0.001307479	0.0471767	0.03945638	0	0
10.17832	-0.1247955	-0.322501	0.0015643	0.001306507	2.988774E-05	-2.931852E-05	0	0
10.19518	-0.1247955	-0.322501	0	0	-0.04680249	-0.03908958	0	0
10.21145	-0.1247955	-0.3224577	0	0.002661406	0	0.0803237	0	0
10.2282	-0.1247436	-0.3224144	0.003093245	0.002584894	0.09366974	-0.002316935	0	0
10.24472	-0.1247436	-0.3223711	0	0.002621911	-0.09297965	0.001112679	0	0
10.26123	-0.1247436	-0.3223711	0	0	0	-0.07939221	0	0
10.27774	-0.1247177	-0.3223494	0.001569089	0.001310507	0.04752069	0.03968941	0	0
10.29428	-0.1247177	-0.3223494	0	0	-0.04746859	-0.0396459	0	0
10.32741	-0.1246918	-0.3223278	0.0007821045	0.0006539275	0.01574353	0.01316336	0	0
10.34398	-0.1246659	-0.3223061	0.001563759	0.001306056	0.01572783	0.01312161	0	0
10.3608	-0.12464	-0.3222845	0.001541055	0.001288495	-0.0006801593	-0.0005260605	0	0
10.37731	-0.12464	-0.3222845	0	0	-0.0462416	-0.03866319	0	0
10.39575	-0.1245882	-0.3222845	0.002809366	0	0.08036867	0	0	0
10.41233	-0.1245623	-0.3222628	0.00156268	0.001305154	-0.03559647	0.03726592	0	0
10.42889	-0.1244586	-0.3221762	0.00625999	0.005229034	0.1417651	0.1184229	0	0
10.44545	-0.124355	-0.3220464	0.006255937	0.007839934	-0.0001223655	0.07882436	0	0
10.46202	-0.1242254	-0.3219381	0.007820145	0.006533502	0.04720926	-0.03942933	0	0
10.47859	-0.1240959	-0.3217433	0.007820595	0.0117581	1.357625E-05	0.1576833	0	0
10.49539	-0.1237072	-0.3211591	0.02312982	0.03476301	0.4587457	0.6893491	0	0
10.5119	-0.1234998	-0.3209428	0.01255767	0.01310327	-0.3173327	-0.650137	0	0
10.52842	-0.1212704	-0.3185649	0.1349566	0.1439445	3.70574	3.961337	0	0
10.54493	-0.1198959	-0.3151335	0.08327526	0.207888	-1.564881	1.936172	0	0
10.56142	-0.117379	-0.3060796	0.1525951	0.5489231	2.100603	10.3344	0	0
10.57799	-0.1166262	-0.2977545	0.0454442	0.5025926	-3.241285	-1.401483	0	0
10.64425	-0.1069847	-0.2091214	0.1454995	1.337553	1.207968	10.08048	0	0
10.66101	-0.1016224	-0.188853	0.3199839	1.20948	2.101637	-1.542623	0	0
10.67752	-0.09547202	-0.1705338	0.3725678	1.109709	1.580706	-2.999183	0	0
10.69403	-0.08696432	-0.1556656	0.5151869	0.9003441	4.318921	-6.340178	0	0
10.71054	-0.07300162	-0.1406144	0.8457596	0.9116945	10.01041	0.343713	0	0
10.72708	-0.06506592	-0.1344269	0.4796903	0.37402	-11.07541	-16.26731	0	0
10.74365	-0.04617767	-0.1202525	1.139966	0.8554652	19.94035	14.53967	0	0
10.76022	-0.0357742	-0.1124908	0.6279908	0.4685251	-15.45098	-11.67754	0	0
10.77678	-0.02296964	-0.1029387	0.7729738	0.5766322	4.375973	3.262959	0	0
10.79335	-0.01434112	-0.09608447	0.5208486	0.4137477	-7.609809	-4.916289	0	0
10.81011	-0.006420964	-0.08829767	0.4725398	0.464583	-1.449535	1.525346	0	0
10.82662	-0.003605247	-0.08564253	0.1705362	0.1608108	-9.076868	-9.130025	0	0
10.84305	0.01015755	-0.07375529	0.837716	0.7235548	20.25445	17.08396	0	0
10.85964	0.01452529	-0.06236053	0.2632136	0.6866819	-17.3971	-1.116587	0	0
10.87618	0.01407802	-0.05290604	-0.02704284	0.5716287	-8.76021	-3.472412	0	0
10.89275	0.01249935	-0.04063981	-0.09529408	0.7404333	-2.061607	5.098933	0	0
10.90968	0.01189418	-0.03498227	-0.03574843	0.334199	1.77775	-12.12822	0	0
10.92619	0.007763002	-0.02679078	-0.2501935	0.4960954	-6.412717	4.841314	0	0
10.94245	0.004999958	-0.02115864	-0.1699373	0.3463974	2.448991	-4.567989	0	0
10.95922	-0.0009736839	-0.01409949	-0.3562834	0.4210258	-5.642449	2.259703	0	0
10.97558	-0.006763055	-0.008772849	-0.3537231	0.3254509	0.07727186	-2.884537	0	0
10.99215	-0.01373598	-0.003624498	-0.4209107	0.310773	-2.040116	-0.4456878	0	0
11.00872	-0.02318006	0.003171107	-0.5700458	0.4101835	-4.501037	3.000301	0	0
11.02528	-0.0296492	0.007794035	-0.3905009	0.2790565	5.418833	-3.957533	0	0
11.04185	-0.03677289	0.01284202	-0.4300112	0.3047145	-1.192493	0.7744022	0	0
11.05842	-0.03819195	0.01385448	-0.08565462	0.06111206	10.393	-7.352147	0	0
11.07499	-0.03974222	0.01496034	-0.09356923	0.06674638	-0.2388563	0.1700394	0	0
11.10812	-0.039243	0.0144918	0.01506732	-0.01414149	2.185813	-1.627499	0	0
11.12468	-0.0390328	0.01430436	0.01268935	-0.01131497	-0.04784841	0.0568741	0	0
11.15786	-0.03895397	0.01409817	0.002376248	-0.006215318	-0.2073409	0.1025265	0	0
11.19224	-0.03887514	0.01366701	0.002292505	-0.01253946	-0.001239554	-0.09360888	0	0
11.20889	-0.03853355	0.01338578	0.02051452	-0.01688916	0.3570433	-0.08522826	0	0
11.22538	-0.03816567	0.01308579	0.02231962	-0.01820108	0.0544795	-0.03959504	0	0
11.24194	-0.03806056	0.01293578	0.006344986	-0.009055086	-0.4833676	0.2767437	0	0
11.25851	-0.03803428	0.01291703	0.001586246	-0.001131893	-0.1436273	0.2391362	0	0
11.27508	-0.03803428	0.01291703	0	0	-0.04787301	0.03416059	0	0
11.29195	-0.03803428	0.01291703	0	0	0	0	0	0
11.30846	-0.03803428	0.01291703	0	0	0	0	0	0
11.32477	-0.03803428	0.01291703	0	0	0	0	0	0
11.34148	-0.03806056	0.01289827	-0.001572666	-0.001122202	-0.04762629	-0.03398454	0	0
11.358	-0.03806056	0.01286077	0	-0.002271482	0.04734053	-0.03459572	0	0
11.37451	-0.03808684	0.01284202	-0.001591469	-0.001135619	-0.04819291	0.03439625	0	0
11.39104	-0.03811311	0.01256073	-0.001589266	-0.01701206	6.666098E-05	-0.480424	0	0
11.40803	-0.03753499	0.01203559	0.03402768	-0.0309092	1.062415	-0.4145368	0	0
11.42417	-0.0359319	0.01085374	0.09930695	-0.07321218	1.970246	-1.27678	0	0
11.44074	-0.03595818	0.01083497	-0.00158638	-0.001132502	-3.084472	2.203593	0	0
11.45731	-0.03601074	0.01079745	-0.00317276	-0.002265117	-0.04787704	-0.03418238	0	0
11.47408	-0.03601074	0.01079745	0	0	0.09517609	0.06794871	0	0
11.4911	-0.03603702	0.01074116	-0.001543812	-0.00330645	-0.04568506	-0.09784568	0	0
11.50701	-0.03614215	0.0106661	-0.006608937	-0.00471852	-0.1538132	-0.04288048	0	0
11.52361	-0.03627356	0.01060981	-0.007913679	-0.003389982	-0.04013143	0.04086337	0	0
11.54014	-0.03632612	0.01057228	-0.00317949	-0.002270195	0.1428699	0.03379329	0	0
11.55671	-0.03632612	0.01057228	0	0	0.09607057	0.06859557	0	0
11.57327	-0.0363524	0.01055352	-0.001586471	-0.00113268	-0.04788531	-0.03418828	0	0
11.59016	-0.0363524	0.01055352	0	0	0.04742255	0.03385789	0	0
11.60641	-0.03637868	0.01053475	-0.001617763	-0.001155078	-0.04882559	-0.03486133	0	0
11.62319	-0.03637868	0.01053475	0	0	0.04898916	0.03497812	0	0
11.65611	-0.03640496	0.01051599	-0.0007981776	-0.000569949	-0.01605998	-0.01146784	0	0
11.68924	-0.03640496	0.01051599	0	0	0.0120833	0.008628238	0	0
11.70581	-0.03640496	0.01051599	0	0	0	0	0	0
11.72237	-0.03643124	0.01049723	-0.001586289	-0.001132549	-0.04787567	-0.03418139	0	0
11.73894	-0.03645752	0.01047846	-0.001586563	-0.001132801	-8.270832E-06	-7.599749E-06	0	0
11.75578	-0.03645752	0.01044093	0	-0.002229227	0.04750112	-0.03282658	0	0
11.7723	-0.03648381	0.01042217	-0.001590867	-0.001135875	-0.047694	0.03277855	0	0
11.7888	-0.03653637	0.01038464	-0.003184818	-0.002274113	-0.04826669	-0.03446716	0	0
11.80521	-0.03658893	0.0103471	-0.003203515	-0.00228752	-0.0005681192	-0.0004073892	0	0
11.82183	-0.03666777	0.01029081	-0.004744168	-0.003387595	-0.04665006	-0.03330962	0	0
11.83834	-0.03687801	0.01014068	-0.01273045	-0.009090654	-0.2410333	-0.1721236	0	0
11.85491	-0.03714081	0.009953004	-0.01586359	-0.01132854	-0.09471113	-0.0676486	0	0
11.87147	-0.03753499	0.009671477	-0.02379437	-0.01699402	-0.2393652	-0.1709943	0	0
11.88804	-0.03877003	0.008789208	-0.07454727	-0.05325386	-1.53177	-1.094356	0	0
11.90488	-0.03890142	0.008695336	-0.007801882	-0.005574337	1.997934	1.427222	0	0
11.99664	-0.03890142	0.008695336	0	0	0.07183949	0.05132832	0	0
12.01321	-0.03890142	0.008695336	0	0	0	0	0	0
12.02978	-0.03890142	0.008695336	0	0	0	0	0	0
12.0635	-0.03890142	0.008695336	0	0	0	0	0	0
12.08007	-0.03890142	0.008695336	0	0	0	0	0	0
12.09664	-0.03890142	0.008695336	0	0	0	0	0	0
12.1132	-0.03890142	0.008695336	0	0	0	0	0	0
12.12977	-0.03890142	0.008695336	0	0	0	0	0	0
12.14634	-0.03890142	0.008695336	0	0	0	0	0	0
12.1629	-0.03890142	0.008695336	0	0	0	0	0	0
12.17957	-0.03890142	0.008695336	0	0	0	0	0	0
12.19608	-0.03890142	0.008695336	0	0	0	0	0	0
12.2126	-0.03890142	0.008695336	0	0	0	0	0	0
12.22961	-0.03890142	0.008695336	0	0	0	0	0	0
12.26493	-0.03890142	0.008695336	0	0	0	0	0	0
12.2815	-0.03890142	0.008695336	0	0	0	0	0	0
12.29806	-0.03890142	0.008695336	0	0	0	0	0	0
12.31467	-0.03890142	0.008695336	0	0	0	0	0	0
12.3312	-0.03890142	0.008695336	0	0	0	0	0	0
12.34776	-0.03890142	0.008695336	0	0	0	0	0	0
12.3647	-0.03890142	0.008695336	0	0	0	0	0	0
12.3809	-0.03890142	0.008695336	0	0	0	0	0	0
12.39746	-0.03890142	0.008695336	0	0	0	0	0	0
12.41403	-0.03890142	0.008695336	0	0	0	0	0	0
12.4306	-0.03890142	0.008695336	0	0	0	0	0	0
12.44726	-0.03890142	0.008695336	0	0	0	0	0	0
12.46373	-0.03890142	0.008695336	0	0	0	0	0	0
12.4803	-0.03890142	0.008695336	0	0	0	0	0	0
12.49686	-0.03890142	0.008695336	0	0	0	0	0	0
12.51343	-0.03890142	0.008695336	0	0	0	0	0	0
12.53	-0.03892769	0.008714111	-0.001585839	0.001133168	-0.04785796	0.0341971	0	0
12.56313	-0.03892769	0.008714111	0	0	0.03190898	-0.02280069	0	0
12.5797	-0.03892769	0.008714111	0	0	0	0	0	0
12.59637	-0.03892769	0.008714111	0	0	0	0	0	0
12.61283	-0.03892769	0.008714111	0	0	0	0	0	0
12.62939	-0.03892769	0.008714111	0	0	0	0	0	0
12.64596	-0.03892769	0.008714111	0	0	0	0	0	0
12.66254	-0.03892769	0.008714111	0	0	0	0	0	0
12.67942	-0.03892769	0.008714111	0	0	0	0	0	0
12.69566	-0.03892769	0.008714111	0	0	0	0	0	0
12.71223	-0.03892769	0.008714111	0	0	0	0	0	0
12.72879	-0.03892769	0.008714111	0	0	0	0	0	0
12.74547	-0.03892769	0.008714111	0	0	0	0	0	0
12.78064	-0.03892769	0.008714111	0	0	0	0	0	0
12.79721	-0.03892769	0.008714111	0	0	0	0	0	0
12.81378	-0.03892769	0.008714111	0	0	0	0	0	0
12.83034	-0.03892769	0.008714111	0	0	0	0	0	0
12.84691	-0.03892769	0.008714111	0	0	0	0	0	0
12.86355	-0.03892769	0.008714111	0	0	0	0	0	0
12.88006	-0.03892769	0.008714111	0	0	0	0	0	0
12.89661	-0.03892769	0.008714111	0	0	0	0	0	0
12.91317	-0.03892769	0.008714111	0	0	0	0	0	0
12.92974	-0.03892769	0.008714111	0	0	0	0	0	0
12.94631	-0.03892769	0.008714111	0	0	0	0	0	0
12.96287	-0.03892769	0.008714111	0	0	0	0	0	0
12.97944	-0.03892769	0.008714111	0	0	0	0	0	0
12.99615	-0.03892769	0.008714111	0	0	0	0	0	0
13.01257	-0.03892769	0.008714111	0	0	0	0	0	0
13.02917	-0.03892769	0.008714111	0	0	0	0	0	0
13.04571	-0.03892769	0.008714111	0	0	0	0	0	0
13.06227	-0.03892769	0.008714111	0	0	0	0	0	0
13.07884	-0.03892769	0.008714111	0	0	0	0	0	0
13.09541	-0.03892769	0.008714111	0	0	0	0	0	0
13.11223	-0.03892769	0.008714111	0	0	0	0	0	0
13.12854	-0.03892769	0.008714111	0	0	0	0	0	0
13.14525	-0.03892769	0.008714111	0	0	0	0	0	0
13.16167	-0.03892769	0.008714111	0	0	0	0	0	0
13.17827	-0.03892769	0.008714111	0	0	0	0	0	0
13.19481	-0.03892769	0.008714111	0	0	0	0	0	0
13.21137	-0.03892769	0.008714111	0	0	0	0	0	0
13.22831	-0.03892769	0.008714111	0	0	0	0	0	0
13.24451	-0.03892769	0.008714111	0	0	0	0	0	0
13.26133	-0.03892769	0.008714111	0	0	0	0	0	0
13.27784	-0.03892769	0.008714111	0	0	0	0	0	0
13.29435	-0.03892769	0.008714111	0	0	0	0	0	0
13.31087	-0.03892769	0.008714111	0	0	0	0	0	0
13.32738	-0.03892769	0.008714111	0	0	0	0	0	0
13.34391	-0.03895397	0.008732885	-0.00158959	0.001135848	-0.04811102	0.03437793	0	0
13.36047	-0.03895397	0.008732885	0	0	0.04802785	-0.03431849	0	0
13.37741	-0.03895397	0.008732885	0	0	0	0	0	0
13.39361	-0.03895397	0.008732885	0	0	0	0	0	0
13.41017	-0.03895397	0.008732885	0	0	0	0	0	0
13.42695	-0.03895397	0.008732885	0	0	0	0	0	0
13.493	-0.03895397	0.008732885	0	0	0	0	0	0
13.51442	-0.03895397	0.008732885	0	0	0	0	0	0
13.53099	-0.03895397	0.008732885	0	0	0	0	0	0
13.54755	-0.03895397	0.008732885	0	0	0	0	0	0
13.56412	-0.03895397	0.008732885	0	0	0	0	0	0
13.58105	-0.03895397	0.008732885	0	0	0	0	0	0
13.59725	-0.03895397	0.008732885	0	0	0	0	0	0
13.61408	-0.03895397	0.008732885	0	0	0	0	0	0
13.63038	-0.03895397	0.008732885	0	0	0	0	0	0
13.64695	-0.03895397	0.008732885	0	0	0	0	0	0
13.66362	-0.03895397	0.008732885	0	0	0	0	0	0
13.68012	-0.03895397	0.008732885	0	0	0	0	0	0
13.69665	-0.03895397	0.008732885	0	0	0	0	0	0
13.71322	-0.03895397	0.008732885	0	0	0	0	0	0
13.73016	-0.03895397	0.008732885	0	0	0	0	0	0
13.74635	-0.03895397	0.008732885	0	0	0	0	0	0
13.76292	-0.03898025	0.008751659	-0.001586246	0.001133242	-0.04842212	0.03459361	0	0
13.77948	-0.03898025	0.008751659	0	0	0.04787714	-0.03420427	0	0
13.79621	-0.03898025	0.008751659	0	0	0	0	0	0
13.81262	-0.03898025	0.008751659	0	0	0	0	0	0
13.82918	-0.03898025	0.008751659	0	0	0	0	0	0
13.84575	-0.03898025	0.008751659	0	0	0	0	0	0
13.86232	-0.03898025	0.008751659	0	0	0	0	0	0
13.87888	-0.03898025	0.008751659	0	0	0	0	0	0
13.89545	-0.03898025	0.008751659	0	0	0	0	0	0
13.91229	-0.03898025	0.008751659	0	0	0	0	0	0
13.92858	-0.03898025	0.008751659	0	0	0	0	0	0
13.94515	-0.03898025	0.008751659	0	0	0	0	0	0
13.96182	-0.03898025	0.008751659	0	0	0	0	0	0
13.97828	-0.03898025	0.008751659	0	0	0	0	0	0
13.99485	-0.03898025	0.008751659	0	0	0	0	0	0
14.01142	-0.03898025	0.008751659	0	0	0	0	0	0
14.02798	-0.03898025	0.008751659	0	0	0	0	0	0
14.06112	-0.03898025	0.008751659	0	0	0	0	0	0
14.07768	-0.03898025	0.008751659	0	0	0	0	0	0
14.09442	-0.03898025	0.008751659	0	0	0	0	0	0
14.11082	-0.03898025	0.008751659	0	0	0	0	0	0
14.12744	-0.03898025	0.008751659	0	0	0	0	0	0
14.14395	-0.03898025	0.008751659	0	0	0	0	0	0
14.16052	-0.03898025	0.008751659	0	0	0	0	0	0
14.1771	-0.03898025	0.008751659	0	0	0	0	0	0
14.19365	-0.03898025	0.008751659	0	0	0	0	0	0
14.21021	-0.03898025	0.008751659	0	0	0	0	0	0
14.22859	-0.03898025	0.008751659	0	0	0	0	0	0
14.24516	-0.03898025	0.008751659	0	0	0	0	0	0
14.26204	-0.03898025	0.008751659	0	0	0	0	0	0
14.27855	-0.03898025	0.008751659	0	0	0	0	0	0
14.29486	-0.03898025	0.008751659	0	0	0	0	0	0
14.31143	-0.03898025	0.008751659	0	0	0	0	0	0
14.328	-0.03898025	0.008751659	0	0	0	0	0	0
14.34459	-0.03898025	0.008751659	0	0	0	0	0	0
14.36113	-0.03898025	0.008751659	0	0	0	0	0	0
14.3777	-0.03898025	0.008751659	0	0	0	0	0	0
14.39426	-0.03898025	0.008751659	0	0	0	0	0	0
14.41083	-0.03898025	0.008751659	0	0	0	0	0	0
14.42765	-0.03898025	0.008751659	0	0	0	0	0	0
14.44396	-0.03898025	0.008751659	0	0	0	0	0	0
14.46067	-0.03898025	0.008751659	0	0	0	0	0	0
14.47709	-0.03898025	0.008751659	0	0	0	0	0	0
14.49369	-0.03898025	0.008751659	0	0	0	0	0	0
14.51023	-0.03900652	0.008732885	-0.00158904	-0.001135399	-0.04795733	-0.03426641	0	0
14.5268	-0.03900652	0.008732885	0	0	0.04800431	0.03429997	0	0
14.54336	-0.03905907	0.008695336	-0.003172268	-0.002266597	-0.095742	-0.06840799	0	0
14.55993	-0.03919045	0.008601462	-0.007930789	-0.00566693	-0.1436248	-0.1026311	0	0
14.57649	-0.03932182	0.008507584	-0.007930333	-0.005666772	1.37738E-05	4.750556E-06	0	0
14.59306	-0.0393481	0.008488809	-0.001586246	-0.001133354	0.1914759	0.1368267	0	0
14.60977	-0.03947948	0.008394929	-0.007859974	-0.005616822	-0.1885113	-0.1347181	0	0
14.62619	-0.03982104	0.008150828	-0.02080391	-0.01486745	-0.3906713	-0.2792006	0	0
14.64276	-0.0401626	0.007906711	-0.02061642	-0.01473495	0.005684041	0.004016815	0	0
14.65933	-0.04381405	0.005295431	-0.2204145	-0.1576262	-6.030091	-4.312592	0	0
14.6759	-0.05533818	-0.002889677	-0.695518	-0.4939972	-14.33824	-10.1514	0	0
14.69284	-0.06540657	-0.01005649	-0.5943516	-0.4230672	3.019058	2.116727	0	0
14.70903	-0.07899318	-0.01968116	-0.8391703	-0.5944636	-7.389492	-5.173347	0	0
14.72586	-0.08876612	-0.026582	-0.5806704	-0.410021	7.828354	5.585619	0	0
14.74237	-0.09826148	-0.0330417	-0.5749611	-0.3911469	0.1712177	0.5660223	0	0
14.75873	-0.1045125	-0.03734306	-0.3822216	-0.2630062	5.863808	3.898487	0	0
14.77539	-0.1196624	-0.04839103	-0.9089531	-0.6628506	-15.95096	-12.10845	0	0
14.79191	-0.1288092	-0.05499372	-0.5539498	-0.399874	10.69955	7.925929	0	0
14.80843	-0.1383474	-0.06184193	-0.5773556	-0.4145286	-0.7085721	-0.4436441	0	0
14.82543	-0.1519769	-0.07097933	-0.8016384	-0.5374271	-6.690494	-3.666137	0	0
14.84156	-0.1639877	-0.07792445	-0.7445601	-0.4305341	1.722676	3.226129	0	0
14.85813	-0.1801314	-0.08783235	-0.9744896	-0.5980765	-7.031983	-5.123986	0	0
14.87497	-0.19129	-0.09639563	-0.6625522	-0.5084518	9.337162	2.68272	0	0
14.89147	-0.206841	-0.1083844	-0.942074	-0.7262745	-8.381706	-6.531607	0	0
14.90799	-0.2146418	-0.1144094	-0.4724665	-0.3649141	14.22272	10.94431	0	0
14.9245	-0.2298641	-0.1263454	-0.9217884	-0.7227876	-13.6056	-10.83651	0	0
14.94101	-0.2410367	-0.135197	-0.6765627	-0.536009	7.424862	5.65522	0	0
14.95753	-0.25163	-0.143625	-0.6415184	-0.5103902	1.06109	0.7756977	0	0
14.9755	-0.2650849	-0.1543314	-0.7486949	-0.5957583	-3.108016	-2.47559	0	0
14.99207	-0.2746917	-0.1620088	-0.5798032	-0.4633585	4.889718	3.83321	0	0
15.00863	-0.2872991	-0.1720379	-0.7610259	-0.605393	-5.469156	-4.286486	0	0
15.0252	-0.2962061	-0.1786481	-0.5376324	-0.3989916	6.742223	6.229387	0	0
15.04177	-0.3070749	-0.1822931	-0.6560395	-0.2200092	-3.573534	5.401698	0	0
15.05833	-0.3210714	-0.1840674	-0.8448815	-0.107102	-5.699427	3.407645	0	0
15.0749	-0.3265822	-0.1847331	-0.3326677	-0.04018782	15.45998	2.019648	0	0
15.15773	-0.3370733	-0.1936287	-0.1266547	-0.1073935	2.072614	-0.6761288	0	0
15.17467	-0.3399532	-0.1962031	-0.1699657	-0.1519346	-0.4340818	-0.4464102	0	0
15.19087	-0.3399064	-0.1964465	0.002889939	-0.01503413	5.216795	4.131664	0	0
15.20743	-0.3399064	-0.1964465	0	0	-0.08822666	0.4589753	0	0
15.224	-0.3399064	-0.1964465	0	0	0	0	0	0
15.24056	-0.339883	-0.1964262	0.001410397	0.001225102	0.04256708	0.03697472	0	0
15.25723	-0.339883	-0.1964262	0	0	-0.04243517	-0.03686014	0	0
15.27374	-0.339883	-0.1964262	0	0	0	0	0	0
15.29027	-0.3398596	-0.1964059	0.001416109	0.001227595	0.04287275	0.03716548	0	0
15.30683	-0.3398362	-0.1963857	0.001412277	0.001224273	-0.0001158143	-0.0001003958	0	0
15.3234	-0.3398362	-0.1963857	0	0	-0.04262628	-0.03695183	0	0
15.33996	-0.3398362	-0.1963857	0	0	0	0	0	0
15.35653	-0.3398128	-0.1963654	0.001412196	0.001224203	0.04262137	0.03694757	0	0
15.3731	-0.3397895	-0.1963857	0.001412196	-0.001224203	0	-0.07389727	0	0
15.38983	-0.3397193	-0.1964059	0.004194571	-0.001212062	0.0835586	0.0003646062	0	0
15.40623	-0.3396959	-0.1964262	0.001426235	-0.001236374	-0.08354614	-0.0007337077	0	0
15.4228	-0.3396725	-0.1964465	0.001412277	-0.001225173	-0.0004233901	0.0003397453	0	0
15.43936	-0.3396023	-0.1964668	0.004236587	-0.001224203	0.08524521	2.927635E-05	0	0
15.45593	-0.3395555	-0.1965074	0.002824391	-0.002449305	-0.0426226	-0.03697578	0	0
15.4725	-0.3394619	-0.1965479	0.005648782	-0.002448405	0.08524521	2.714626E-05	0	0
15.48939	-0.3394151	-0.1965885	0.00276892	-0.002401201	-0.08605741	0.001410596	0	0
15.50563	-0.3393917	-0.1966088	0.001442562	-0.001249853	-0.04002727	0.03474573	0	0
15.5222	-0.3393449	-0.1966088	0.002824717	0	0.04213554	0.03810228	0	0
15.53877	-0.3393215	-0.1965885	0.001411952	0.001224891	-0.04263855	0.03696834	0	0
15.55544	-0.3392981	-0.1966088	0.001402988	-0.001217115	-0.0002696234	-0.07345673	0	0
15.5719	-0.3392513	-0.1966088	0.002845355	0	0.04353696	0.03673788	0	0
15.58846	-0.3392513	-0.1966088	0	0	-0.08616313	0	0	0
15.60548	-0.3392045	-0.1966088	0.002749986	0	0.08188701	0	0	0
15.6216	-0.3391811	-0.1965885	0.001451553	0.001259246	-0.03919016	0.03800739	0	0
15.6385	-0.3391811	-0.1965885	0	0	-0.0439598	-0.03813582	0	0
15.65501	-0.3391343	-0.1965885	0.002835331	0	0.08485001	0	0	0
15.6713	-0.3391109	-0.1965682	0.001436592	0.001245352	-0.0426473	0.03797057	0	0
15.68803	-0.3390875	-0.1965479	0.001399652	0.001212676	-0.001118679	-0.0009895434	0	0
15.70455	-0.3390641	-0.1965276	0.001416518	0.001227949	0.0005071938	0.0004593242	0	0
15.72099	-0.3390407	-0.1965074	0.001422431	0.001233076	0.0001794078	0.0001555227	0	0
15.73756	-0.3390173	-0.1964871	0.001413913	0.001225032	-0.0002580127	-0.000243654	0	0
15.75413	-0.3389939	-0.1964668	0.001412196	0.001224203	-5.183851E-05	-2.501979E-05	0	0
15.88666	-0.3387832	-0.1964871	0.001589585	-0.000153022	0.001189741	-0.00923696	0	0
15.90369	-0.3386896	-0.1965276	0.005499776	-0.002383178	0.0261448	-0.01491154	0	0
15.92188	-0.3382447	-0.1962234	0.02445702	0.01672767	0.5383229	0.5426848	0	0
15.93845	-0.3373077	-0.1954528	0.05655687	0.04651165	0.9235343	0.8569052	0	0
15.95501	-0.332096	-0.1909562	0.3145976	0.2714267	7.787684	6.78795	0	0
15.97173	-0.325803	-0.1855201	0.3763582	0.3251119	1.855393	1.612796	0	0
16.0378	-0.2931701	-0.1580174	0.4939025	0.416257	1.41975	1.100889	0	0
16.07094	-0.271373	-0.1401394	0.6577618	0.539496	1.651644	1.242206	0	0
16.08782	-0.2547378	-0.1267193	0.9858303	0.7952961	6.55972	5.114714	0	0
16.10407	-0.2458453	-0.1196441	0.5470125	0.4352318	-13.24507	-10.86801	0	0
16.12084	-0.2271428	-0.1049283	1.115402	0.8776381	17.2115	13.39658	0	0
16.13721	-0.2078742	-0.08998515	1.177428	0.9131119	1.872039	1.070662	0	0
16.15377	-0.1940533	-0.07943153	0.8342322	0.6370178	-10.42125	-8.383691	0	0
16.17037	-0.1856022	-0.07300319	0.5090547	0.3872129	-9.803717	-7.531324	0	0
16.1869	-0.1706656	-0.06180352	0.9035494	0.6774951	11.90656	8.761238	0	0
16.20347	-0.1617328	-0.05518532	0.5391839	0.3994755	-11.00861	-8.399836	0	0
16.22004	-0.1522597	-0.0483528	0.5717956	0.412412	0.9842239	0.3904271	0	0
16.2366	-0.1483494	-0.04590691	0.2360535	0.1476509	-10.1333	-7.990969	0	0
16.25317	-0.1420886	-0.04310045	0.3779034	0.1693982	4.281283	0.6563732	0	0
16.26974	-0.1366432	-0.04197479	0.3286889	0.06794496	-1.485294	-3.061864	0	0
16.28646	-0.1336718	-0.04046822	0.1777355	0.09011739	-4.535161	0.666136	0	0
16.30287	-0.1334909	-0.04033476	0.01102119	0.008129511	-5.031448	-2.474399	0	0
16.31949	-0.1334133	-0.04027757	0.004667056	0.003441562	-0.1923439	-0.1419074	0	0
16.33601	-0.1329738	-0.03995349	0.02661285	0.01962487	0.6623635	0.4884413	0	0
16.35257	-0.1302324	-0.03793354	0.1654728	0.1219244	4.197568	3.09239	0	0
16.38571	-0.1198699	-0.0304752	0.3127401	0.2250931	2.963024	2.075758	0	0
16.40227	-0.1178462	-0.02910727	0.1221687	0.08257761	-3.834452	-2.867527	0	0
16.41884	-0.1158993	-0.02775894	0.1175122	0.08138568	-0.1405416	-0.03597456	0	0
16.43556	-0.1138217	-0.02624039	0.1242319	0.09080238	0.2018493	0.2828614	0	0
16.45197	-0.1121849	-0.025083	0.09975127	0.07053442	-0.7388704	-0.6117234	0	0
16.46854	-0.1122109	-0.02506403	-0.001568616	0.001145094	-3.07252	-2.104228	0	0
16.48511	-0.1122109	-0.02506403	0	0	0.04734365	-0.034561	0	0
16.50167	-0.111873	-0.02481743	0.02039156	0.01488488	0.615454	0.4492523	0	0
16.51862	-0.1062562	-0.0207229	0.3314031	0.2415834	9.279513	6.763904	0	0
16.53514	-0.09815722	-0.01483685	0.4904356	0.3564321	4.752556	3.432158	0	0
16.55137	-0.08884445	-0.008093482	0.5735433	0.4153019	2.537556	1.797494	0	0
16.56794	-0.07724076	0.0002738452	0.7004808	0.505111	3.869741	2.737867	0	0
16.58451	-0.07234719	0.003754019	0.2953761	0.2100637	-12.22679	-8.905059	0	0
16.60107	-0.06252366	0.01075992	0.5929495	0.4228771	8.980783	6.422722	0	0
16.61764	-0.06113425	0.01171672	0.08386497	0.05775227	-15.3642	-11.01949	0	0
16.63421	-0.05646623	0.01464174	0.2817302	0.1765344	5.971242	3.584647	0	0
16.65077	-0.05426247	0.01456677	0.1330496	-0.004526273	-4.48745	-5.464738	0	0
16.66734	-0.04835701	0.01079745	0.3564543	-0.2275167	6.743145	-6.73064	0	0
16.68629	-0.04426055	0.007869152	0.2161341	-0.1545004	-3.950395	2.055609	0	0
16.70286	-0.04155501	0.005934347	0.1633067	-0.1167851	-1.487234	1.061787	0	0
16.71976	-0.04150247	0.005896767	0.003108206	-0.002223272	-4.78631	3.422805	0	0
16.73599	-0.04150247	0.005896767	0	0	-0.09380584	0.06709848	0	0
16.75279	-0.04150247	0.005896767	0	0	0	0	0	0
16.76913	-0.04152874	0.005877977	-0.001608295	-0.001150346	-0.04854123	-0.03471951	0	0
16.78581	-0.04155501	0.005859186	-0.001574604	-0.001126408	0.001020444	0.000725042	0	0
16.80226	-0.04158128	0.005840396	-0.00159692	-0.00114221	-0.0006735546	-0.0004769428	0	0
16.81883	-0.04160755	0.005821606	-0.001585523	-0.001134058	0.0003451667	0.00024688	0	0
16.8354	-0.04166009	0.005821606	-0.003171046	0	-0.04784567	0.034222	0	0
16.85196	-0.04168636	0.005802815	-0.001586071	-0.00113445	0.0478374	-0.03423974	0	0
16.86853	-0.04168636	0.005802815	0	0	0.04787322	0.03424171	0	0
16.88538	-0.04168636	0.005802815	0	0	0	0	0	0
16.90166	-0.04168636	0.005802815	0	0	0	0	0	0
16.9184	-0.04168636	0.005802815	0	0	0	0	0	0
16.9348	-0.04168636	0.005765234	0	-0.002292184	0	-0.06917427	0	0
16.95143	-0.04171263	0.005746443	-0.001579885	-0.001130054	-0.04784075	0.03519066	0	0
16.96793	-0.0417389	0.005727652	-0.001591895	-0.001138806	-0.0003625282	-0.0002641811	0	0
16.98449	-0.04176517	0.005708861	-0.001585888	-0.001134347	0.0001816725	0.0001348294	0	0
17.00106	-0.04176517	0.005708861	0	0	0.04786495	0.03423664	0	0
17.01797	-0.04179144	0.00569007	-0.001553512	-0.001111217	-0.04640427	-0.03319267	0	0
17.03449	-0.04184398	0.005652487	-0.003180707	-0.0022753	-0.04867732	-0.0348234	0	0
17.05076	-0.04187025	0.005633696	-0.001614516	-0.001154882	0.0477654	0.03417033	0	0
17.06733	-0.04187025	0.005633696	0	0	0.04916486	0.03516818	0	0
17.08389	-0.04189652	0.005614904	-0.001585888	-0.001134375	-0.04786495	-0.03423749	0	0
17.10046	-0.04189652	0.005614904	0	0	0.04786495	0.03423749	0	0
17.11703	-0.04192279	0.005596112	-0.001585705	-0.001134273	-0.04785668	-0.03423243	0	0
17.13359	-0.04194906	0.005577321	-0.001585481	-0.001134273	6.784417E-06	0	0	0
17.15056	-0.0420016	0.005539737	-0.00309585	-0.002214524	-0.04503347	-0.03220898	0	0
17.16673	-0.04205414	0.005502152	-0.003250906	-0.002325632	-0.004679852	-0.00335343	0	0
17.18359	-0.04205414	0.005502152	0	0	0.09844688	0.07042689	0	0
17.19986	-0.04205414	0.005502152	0	0	0	0	0	0
17.21642	-0.04208041	0.00548336	-0.001585481	-0.001134301	-0.04828068	-0.03454147	0	0
17.23299	-0.04208041	0.00548336	0	0	0.0478499	0.03423328	0	0
17.24956	-0.04208041	0.00548336	0	0	0	0	0	0
17.26615	-0.04208041	0.00548336	0	0	0	0	0	0
17.28269	-0.04208041	0.00548336	0	0	0	0	0	0
17.29967	-0.04208041	0.00548336	0	0	0	0	0	0
17.31582	-0.04208041	0.00548336	0	0	0	0	0	0
17.3327	-0.04208041	0.00548336	0	0	0	0	0	0
17.34921	-0.04208041	0.00548336	0	0	0	0	0	0
17.36553	-0.04208041	0.00548336	0	0	0	0	0	0
17.40024	-0.04208041	0.00548336	0	0	0	0	0	0
17.41649	-0.04208041	0.00548336	0	0	0	0	0	0
17.43306	-0.04210668	0.005464567	-0.001585705	-0.001134329	-0.0483184	-0.03456441	0	0
17.44963	-0.04210668	0.005464567	0	0	0.04785393	0.03423215	0	0
17.46619	-0.04210668	0.005464567	0	0	0	0	0	0
17.4828	-0.04210668	0.005464567	0	0	0	0	0	0
17.49933	-0.04210668	0.005464567	0	0	0	0	0	0
17.51589	-0.04210668	0.005464567	0	0	0	0	0	0
17.53246	-0.04210668	0.005464567	0	0	0	0	0	0
17.54903	-0.04210668	0.005464567	0	0	0	0	0	0
17.5656	-0.04210668	0.005464567	0	0	0	0	0	0
17.58237	-0.04210668	0.005464567	0	0	0	0	0	0
17.59888	-0.04210668	0.005464567	0	0	0	0	0	0
17.6154	-0.04210668	0.005464567	0	0	0	0	0	0
17.63191	-0.04210668	0.005464567	0	0	0	0	0	0
17.65024	-0.04210668	0.005464567	0	0	0	0	0	0
17.6668	-0.04210668	0.005464567	0	0	0	0	0	0
17.68337	-0.04210668	0.005464567	0	0	0	0	0	0
17.71651	-0.04210668	0.005464567	0	0	0	0	0	0
17.73307	-0.04210668	0.005464567	0	0	0	0	0	0
17.74964	-0.04210668	0.005464567	0	0	0	0	0	0
17.7662	-0.04210668	0.005464567	0	0	0	0	0	0
17.81591	-0.04210668	0.005464567	0	0	0	0	0	0
17.83247	-0.04210668	0.005464567	0	0	0	0	0	0
17.84904	-0.04210668	0.005464567	0	0	0	0	0	0
17.86561	-0.04210668	0.005464567	0	0	0	0	0	0
17.88259	-0.04210668	0.005464567	0	0	0	0	0	0
17.89874	-0.04210668	0.005464567	0	0	0	0	0	0
17.91531	-0.04210668	0.005464567	0	0	0	0	0	0
17.93187	-0.04210668	0.005464567	0	0	0	0	0	0
17.94864	-0.04210668	0.005464567	0	0	0	0	0	0
17.96501	-0.04210668	0.005464567	0	0	0	0	0	0
17.98157	-0.04210668	0.005464567	0	0	0	0	0	0
17.99814	-0.04210668	0.005464567	0	0	0	0	0	0
18.01471	-0.04210668	0.005464567	0	0	0	0	0	0
18.03127	-0.04210668	0.005464567	0	0	0	0	0	0
18.04821	-0.04210668	0.005464567	0	0	0	0	0	0
18.06473	-0.04210668	0.005464567	0	0	0	0	0	0
18.10078	-0.04210668	0.005464567	0	0	0	0	0	0
18.11776	-0.04210668	0.005464567	0	0	0	0	0	0
18.13391	-0.04210668	0.005464567	0	0	0	0	0	0
18.15048	-0.04210668	0.005464567	0	0	0	0	0	0
18.16705	-0.04210668	0.005464567	0	0	0	0	0	0
18.1838	-0.04210668	0.005464567	0	0	0	0	0	0
18.20032	-0.04210668	0.005464567	0	0	0	0	0	0
18.21675	-0.04210668	0.005464567	0	0	0	0	0	0
18.23334	-0.04210668	0.005464567	0	0	0	0	0	0
18.25035	-0.04210668	0.005464567	0	0	0	0	0	0
18.26645	-0.04210668	0.005464567	0	0	0	0	0	0
18.28301	-0.04210668	0.005464567	0	0	0	0	0	0
18.29958	-0.04210668	0.005464567	0	0	0	0	0	0
18.31615	-0.04210668	0.005464567	0	0	0	0	0	0
18.33291	-0.04210668	0.005464567	0	0	0	0	0	0
18.34942	-0.04210668	0.005464567	0	0	0	0	0	0
18.36585	-0.04210668	0.005464567	0	0	0	0	0	0
18.38242	-0.04210668	0.005464567	0	0	0	0	0	0
18.39945	-0.04210668	0.005464567	0	0	0	0	0	0
18.41555	-0.04210668	0.005464567	0	0	0	0	0	0
18.43211	-0.04210668	0.005464567	0	0	0	0	0	0
18.44868	-0.04210668	0.005464567	0	0	0	0	0	0
18.46525	-0.04210668	0.005464567	0	0	0	0	0	0
18.48181	-0.04210668	0.005464567	0	0	0	0	0	0
18.49838	-0.04210668	0.005464567	0	0	0	0	0	0
18.51495	-0.04210668	0.005464567	0	0	0	0	0	0
18.53156	-0.04210668	0.005464567	0	0	0	0	0	0
18.54808	-0.04210668	0.005464567	0	0	0	0	0	0
18.56507	-0.04210668	0.005464567	0	0	0	0	0	0
18.58121	-0.04210668	0.005464567	0	0	0	0	0	0
18.59778	-0.04210668	0.005464567	0	0	0	0	0	0
18.61461	-0.04210668	0.005464567	0	0	0	0	0	0
18.63091	-0.04210668	0.005464567	0	0	0	0	0	0
18.64748	-0.04210668	0.005464567	0	0	0	0	0	0
18.66415	-0.04210668	0.005464567	0	0	0	0	0	0
18.68066	-0.04210668	0.005464567	0	0	0	0	0	0
18.69718	-0.04210668	0.005464567	0	0	0	0	0	0
18.71375	-0.04210668	0.005464567	0	0	0	0	0	0
18.76345	-0.04210668	0.005464567	0	0	0	0	0	0
18.78001	-0.04210668	0.005464567	0	0	0	0	0	0
18.79658	-0.04210668	0.005464567	0	0	0	0	0	0
18.81325	-0.04210668	0.005464567	0	0	0	0	0	0
18.82976	-0.04210668	0.005464567	0	0	0	0	0	0
18.84628	-0.04210668	0.005464567	0	0	0	0	0	0
18.86285	-0.04210668	0.005464567	0	0	0	0	0	0
18.8798	-0.04210668	0.005464567	0	0	0	0	0	0
18.91455	-0.04210668	0.005464567	0	0	0	0	0	0
18.93111	-0.04210668	0.005464567	0	0	0	0	0	0
18.94785	-0.04210668	0.005464567	0	0	0	0	0	0
18.96436	-0.04210668	0.005464567	0	0	0	0	0	0
18.98087	-0.04210668	0.005464567	0	0	0	0	0	0
18.99738	-0.04210668	0.005464567	0	0	0	0	0	0
19.01439	-0.04210668	0.005464567	0	0	0	0	0	0
19.03052	-0.04210668	0.005464567	0	0	0	0	0	0
19.04708	-0.04210668	0.005464567	0	0	0	0	0	0
19.06365	-0.04210668	0.005464567	0	0	0	0	0	0
19.08044	-0.04210668	0.005464567	0	0	0	0	0	0
19.09695	-0.04210668	0.005464567	0	0	0	0	0	0
19.11335	-0.04210668	0.005464567	0	0	0	0	0	0
19.12992	-0.04210668	0.005464567	0	0	0	0	0	0
19.14649	-0.04210668	0.005464567	0	0	0	0	0	0
19.16305	-0.04210668	0.005464567	0	0	0	0	0	0
19.17962	-0.04210668	0.005464567	0	0	0	0	0	0
19.19618	-0.04213295	0.00548336	-0.001585888	0.00113446	-0.04786495	0.03424003	0	0
19.21275	-0.04213295	0.00548336	0	0	0.04786495	-0.03424003	0	0
19.22955	-0.04213295	0.00548336	0	0	0	0	0	0
19.24588	-0.04213295	0.00548336	0	0	0	0	0	0
19.26257	-0.04213295	0.00548336	0	0	0	0	0	0
19.27902	-0.04213295	0.00548336	0	0	0	0	0	0
19.29559	-0.04213295	0.00548336	0	0	0	0	0	0
19.31215	-0.04213295	0.00548336	0	0	0	0	0	0
19.32872	-0.04213295	0.00548336	0	0	0	0	0	0
19.34528	-0.04213295	0.00548336	0	0	0	0	0	0
19.36185	-0.04213295	0.00548336	0	0	0	0	0	0
19.37842	-0.04213295	0.00548336	0	0	0	0	0	0
19.39499	-0.04213295	0.00548336	0	0	0	0	0	0
19.41168	-0.04213295	0.00548336	0	0	0	0	0	0
19.42819	-0.04213295	0.00548336	0	0	0	0	0	0
19.44468	-0.04213295	0.00548336	0	0	0	0	0	0
19.46125	-0.04213295	0.00548336	0	0	0	0	0	0
19.47782	-0.04213295	0.00548336	0	0	0	0	0	0
19.49439	-0.04213295	0.00548336	0	0	0	0	0	0
19.51095	-0.04213295	0.00548336	0	0	0	0	0	0
19.52752	-0.04213295	0.00548336	0	0	0	0	0	0
19.54409	-0.04213295	0.00548336	0	0	0	0	0	0
19.56065	-0.04213295	0.00548336	0	0	0	0	0	0
19.5773	-0.04213295	0.00548336	0	0	0	0	0	0
19.67687	-0.04213295	0.00548336	0	0	0	0	0	0
19.69319	-0.04213295	0.00548336	0	0	0	0	0	0
19.70976	-0.04213295	0.00548336	0	0	0	0	0	0
19.7264	-0.04213295	0.00548336	0	0	0	0	0	0
19.74436	-0.04213295	0.00548336	0	0	0	0	0	0
19.76093	-0.04213295	0.00548336	0	0	0	0	0	0
19.77749	-0.04213295	0.00548336	0	0	0	0	0	0
19.79406	-0.04213295	0.00548336	0	0	0	0	0	0
19.81063	-0.04213295	0.00548336	0	0	0	0	0	0
19.82719	-0.04213295	0.00548336	0	0	0	0	0	0
19.84399	-0.04215921	0.005502152	-0.001563875	0.001118844	-0.04687405	0.03353513	0	0
19.86032	-0.04215921	0.005502152	0	0	0.04720056	-0.03376872	0	0
19.87689	-0.04218549	0.00548336	-0.001585705	-0.001134301	-0.04819236	-0.03447339	0	0
19.89346	-0.04221175	0.005502152	-0.001585481	0.001134301	6.784417E-06	0.06846655	0	0
19.91003	-0.04223802	0.005520944	-0.001585705	0.001134301	-6.784417E-06	0	0	0
19.92659	-0.04223802	0.005520944	0	0	0.04785944	-0.03423525	0	0
19.94316	-0.04226429	0.005539737	-0.001585663	0.001134432	-0.04786092	0.03424116	0	0
19.95972	-0.04226429	0.005539737	0	0	0.04785816	-0.03423919	0	0
19.97629	-0.04226429	0.005539737	0	0	0	0	0	0
19.9931	-0.04226429	0.005539737	0	0	0	0	0	0
20.00943	-0.04226429	0.005539737	0	0	0	0	0	0
20.02612	-0.04229056	0.005520944	-0.001573927	-0.001125876	-0.0476631	-0.03409479	0	0
20.04263	-0.04231683	0.005539737	-0.001590792	0.001138101	-0.0005079192	0.06818565	0	0
20.05915	-0.04234309	0.005520944	-0.001590241	-0.001137707	1.668184E-05	-0.06890215	0	0
20.12238	-0.04239563	0.00548336	-0.0008308926	-0.0005944037	0.009521827	0.006812733	0	0
20.13895	-0.04244817	0.00548336	-0.003170821	0	-0.02932254	0.007448701	0	0
20.15572	-0.04244817	0.00548336	0	0	0.09509887	0	0	0
20.17208	-0.04244817	0.00548336	0	0	0	0	0	0
20.18873	-0.04252698	0.005426982	-0.004732151	-0.00338542	-0.1433364	-0.1025441	0	0
20.20524	-0.04255324	0.00540819	-0.001590976	-0.001138261	0.09471907	0.06776091	0	0
20.22178	-0.04263205	0.005351811	-0.004765994	-0.003409717	-0.09608221	-0.06873867	0	0
20.23835	-0.04263205	0.005351811	0	0	0.1439789	0.1030063	0	0
20.25491	-0.04268458	0.005389397	-0.003171186	0.002268686	-0.09570658	0.06846909	0	0
20.27148	-0.04273712	0.005426982	-0.003170961	0.002268686	6.780903E-06	0	0	0
20.28805	-0.04281592	0.005445775	-0.004756667	0.001134329	-0.04785668	-0.03423497	0	0
20.30462	-0.04284219	0.005464567	-0.001585481	0.001134301	0.09570658	-8.467346E-07	0	0
20.32118	-0.04284219	0.005464567	0	0	0.0478499	-0.03423328	0	0
20.33784	-0.04286846	0.005445775	-0.001576767	-0.001128067	-0.04745581	-0.03395133	0	0
20.35435	-0.04286846	0.005445775	0	0	0.04753767	0.0340099	0	0
20.43715	-0.04289472	0.005464567	-0.0003172495	0.00022697	-0.003194663	0.002285559	0	0
20.50346	-0.04292099	0.00548336	-0.0003961079	0.0002833947	-0.0005288647	0.0003784128	0	0
20.51998	-0.04299979	0.005539737	-0.00476907	0.003411938	-0.0527905	0.03776785	0	0
20.53699	-0.04305233	0.005577321	-0.003088816	0.002209805	0.05011019	-0.03585117	0	0
20.55312	-0.04313113	0.005633696	-0.004886971	0.003496172	-0.05427156	0.03882487	0	0
20.56968	-0.04315739	0.005652487	-0.001585481	0.001134273	0.1009878	-0.07224711	0	0
20.58625	-0.04315739	0.005652487	0	0	0.0478499	-0.03423243	0	0
20.60303	-0.04315739	0.005652487	0	0	0	0	0	0
20.62107	-0.04315739	0.005652487	0	0	0	0	0	0
20.63763	-0.04318366	0.005671279	-0.001585481	0.001134245	-0.04582406	0.0327823	0	0
20.6542	-0.0432362	0.005708861	-0.003170961	0.00226849	-0.0478499	0.03423158	0	0
20.67077	-0.04326246	0.005727652	-0.001585481	0.001134217	0.0478499	-0.03423242	0	0
20.68759	-0.0432362	0.005746443	0.001561393	0.001116985	0.09424585	-0.0005160793	0	0
20.7039	-0.04326246	0.005727652	-0.001610323	-0.001151989	-0.09572258	-0.06847776	0	0
20.72047	-0.04326246	0.005727652	0	0	0.04898028	0.03503938	0	0
20.73703	-0.04326246	0.005727652	0	0	0	0	0	0
20.7536	-0.0432362	0.005708861	0.001585481	-0.001134217	0.0478499	-0.03423073	0	0
20.77016	-0.0432362	0.005708861	0	0	-0.04785541	0.03423467	0	0
20.78673	-0.0432362	0.005708861	0	0	0	0	0	0
20.80367	-0.04320993	0.00569007	0.001550494	-0.001109215	0.04627193	-0.0331027	0	0
20.81986	-0.04318366	0.005708861	0.001622274	0.001160567	0.002166462	0.06850611	0	0
20.83643	-0.04318366	0.005708861	0	0	-0.04952191	-0.03542773	0	0
20.853	-0.04318366	0.005708861	0	0	0	0	0	0
20.86957	-0.04318366	0.005708861	0	0	0	0	0	0
20.88613	-0.04318366	0.005708861	0	0	0	0	0	0
20.90275	-0.04318366	0.005708861	0	0	0	0	0	0
20.91927	-0.04320993	0.005727652	-0.001589873	0.001137359	-0.04798248	0.03432557	0	0
20.93583	-0.04320993	0.005765234	0	0.002268434	0.04804886	0.03418311	0	0
20.9524	-0.04334126	0.005971926	-0.007928316	0.01247743	-0.2392908	0.3081258	0	0
20.96897	-0.04386658	0.006385274	-0.03170804	0.02494971	-0.7177148	0.3764358	0	0
20.98581	-0.04481208	0.007211817	-0.05615279	0.04908778	-0.7317625	0.7225822	0	0
21.0021	-0.04570499	0.007887932	-0.05479174	0.04148859	0.04107645	-0.229344	0	0
21.01883	-0.0483045	0.01004684	-0.1554217	0.1290786	-3.047367	2.652482	0	0
21.03524	-0.0498009	0.01137905	-0.09119388	0.08118835	1.938398	-1.445332	0	0
21.0518	-0.05389512	0.01456677	-0.2471281	0.1924109	-4.728697	3.372817	0	0
21.06837	-0.05801377	0.018332	-0.2486309	0.2272962	-0.04535712	1.052902	0	0
21.08494	-0.06367695	0.02360778	-0.3417121	0.3183365	-2.808874	2.747287	0	0
21.21747	-0.020918	0.07828297	0.3226309	0.4125429	4.455536	0.6318117	0	0
21.23404	-0.01386753	0.08336735	0.4256651	0.3069645	0.691062	-0.7081258	0	0
21.2506	-0.006184132	0.08892386	0.4638244	0.3354301	1.151847	0.8592436	0	0
21.26717	-0.001684209	0.09214048	0.2716159	0.1941558	-5.801197	-4.263913	0	0
21.28374	0.003342093	0.09605245	0.3033882	0.2361271	0.9588895	1.266696	0	0
21.3003	0.006631482	0.09926399	0.1985479	0.1938487	-3.164085	-1.275966	0	0
21.31687	0.009447088	0.1040863	0.1699307	0.2910392	-0.8636192	2.933048	0	0
21.33344	0.007552488	0.1145207	-0.1143714	0.6298944	-8.580256	10.22667	0	0
21.35007	0.005210479	0.1203139	-0.1408127	0.3483201	-0.7964867	-8.481815	0	0
21.38314	-0.0009473682	0.1353419	-0.1862301	0.4544871	-0.9138703	2.136247	0	0
21.3997	-0.01123637	0.1485657	-0.6210454	0.7981891	-8.760603	6.924865	0	0
21.41627	-0.01739298	0.1528154	-0.3716139	0.2565128	7.527854	-16.34782	0	0
21.43284	-0.02294334	0.1566448	-0.3350589	0.2311663	1.103298	-0.7650021	0	0
21.4494	-0.03059571	0.1619219	-0.461898	0.3185307	-3.828233	2.636813	0	0
21.46597	-0.03430233	0.1645135	-0.2237575	0.1564452	7.187508	-4.892032	0	0
21.48254	-0.04378778	0.1710872	-0.5725431	0.3967915	-10.52698	7.254084	0	0
21.49916	-0.04738555	0.1736026	-0.2163649	0.1512729	10.72971	-7.396143	0	0
21.51568	-0.05250433	0.1772383	-0.3099334	0.220134	-2.823088	2.077636	0	0
21.53683	-0.05638753	0.1844315	-0.1835811	0.3400614	3.354347	3.183781	0	0
21.5534	-0.05434119	0.1909314	0.1235033	0.3922897	8.140802	1.38457	0	0
21.56997	-0.05082461	0.2003098	0.2122608	0.5660843	2.678553	5.24483	0	0
21.58673	-0.04578377	0.2045624	0.3007341	0.2537045	2.654544	-9.37261	0	0
21.6031	-0.04368272	0.2060034	0.1283417	0.08802374	-5.203114	-5.000542	0	0
21.61967	-0.03280402	0.2134565	0.6566399	0.4498717	16.03917	10.98573	0	0
21.63626	-0.02996471	0.2153997	0.1711049	0.1171031	-14.64168	-10.03489	0	0
21.6528	-0.02570486	0.2182777	0.2575699	0.1740158	2.60967	1.717727	0	0
21.66937	-0.02552077	0.2184036	0.01111291	0.007600209	-7.444944	-5.027061	0	0
21.68593	-0.02525778	0.2185834	0.01587403	0.01085529	0.1436992	0.09824426	0	0
21.7025	-0.01363073	0.2265647	0.7018101	0.4817486	20.70159	14.21159	0	0
21.71907	-0.009631281	0.2292954	0.2414075	0.164827	-13.89498	-9.564713	0	0
21.73563	-0.006631482	0.2313788	0.1810891	0.1257718	-1.820519	-1.178756	0	0
21.7522	-0.001026315	0.236424	0.3382896	0.3044896	4.744321	5.393715	0	0
21.76877	-0.0005263158	0.2397082	0.03018351	0.1982612	-9.298659	-3.205981	0	0
21.78537	-0.001578946	0.244265	-0.06340549	0.2744796	-2.82176	2.298028	0	0
21.8019	-0.002210523	0.2502183	-0.03820562	0.3601286	0.7605774	2.58504	0	0
21.81847	-0.005631519	0.2533013	-0.2064918	0.1860915	-5.084447	-5.258201	0	0
21.83541	-0.01147318	0.2572794	-0.3448613	0.2348465	-4.129645	1.455096	0	0
21.8516	-0.01497257	0.2596621	-0.2160741	0.1471208	3.886803	-2.647566	0	0
21.86843	-0.01797175	0.261704	-0.1782403	0.1213515	1.14572	-0.7803723	0	0
21.88474	-0.01839266	0.2619906	-0.02581362	0.01757333	4.60051	-3.13221	0	0
21.951	-0.01862942	0.2622592	-0.003572934	0.004053991	0.2693522	-0.1637298	0	0
21.96757	-0.01862942	0.262295	0	0.002162244	0.04313453	-0.02283826	0	0
21.98413	-0.01862942	0.262295	0	0	0	-0.06525666	0	0
22.00072	-0.01857681	0.2622592	0.003173238	-0.002160503	0.09572995	-0.06517784	0	0
22.01727	-0.01857681	0.2622592	0	0	-0.09576853	0.0652041	0	0
22.03405	-0.0185505	0.2622413	0.001567806	-0.00106748	0.04703491	-0.0320249	0	0
22.05041	-0.0185505	0.2622413	0	0	-0.04731376	0.03221477	0	0
22.06707	-0.01849789	0.2622055	0.003156535	-0.002147342	0.09557802	-0.06502026	0	0
22.08354	-0.0185242	0.2621876	-0.00159796	-0.001088011	-0.1435075	0.03197436	0	0
22.1001	-0.01847158	0.2621518	0.003175683	-0.002162244	0.1445264	-0.03252338	0	0
22.11667	-0.01839266	0.262098	0.004763637	-0.003243366	0.04792454	-0.03262832	0	0
22.13324	-0.01818221	0.2619548	0.01270026	-0.008646985	0.2395001	-0.1630628	0	0
22.14981	-0.01810328	0.261901	0.004764847	-0.003244113	-0.2394912	0.163059	0	0
22.16637	-0.01807698	0.2618831	0.001587842	-0.001081122	-0.09589325	0.0652867	0	0
22.18294	-0.01807698	0.2618473	0	-0.002162742	-0.04792668	-0.03264711	0	0
22.1995	-0.01805067	0.2618294	0.001587954	-0.001079323	0.04793007	0.03270141	0	0
22.21618	-0.01799806	0.2617936	0.003155452	-0.002148393	0.04715518	-0.03216092	0	0
22.23594	-0.01797175	0.2617757	0.001331111	-0.000906256	-0.05006701	0.03408906	0	0
22.2527	-0.01797175	0.2617399	0	-0.002137147	-0.0364431	-0.0336993	0	0
22.26922	-0.01797175	0.2617399	0	0	0	0.06422565	0	0
22.28564	-0.01797175	0.2617399	0	0	0	0	0	0
22.30221	-0.01797175	0.2617399	0	0	0	0	0	0
22.31878	-0.01797175	0.2617399	0	0	0	0	0	0
22.33534	-0.01797175	0.2617399	0	0	0	0	0	0
22.35191	-0.01797175	0.2617399	0	0	0	0	0	0
22.36848	-0.01799806	0.2617219	-0.001587954	-0.001081122	-0.04792731	-0.03263021	0	0
22.40161	-0.01799806	0.2617219	0	0	0.03195092	0.02175305	0	0
22.41832	-0.01799806	0.2617219	0	0	0	0	0	0
22.43483	-0.01802436	0.261704	-0.001593273	-0.001084744	-0.0479581	-0.03265117	0	0
22.45134	-0.01802436	0.261704	0	0	0.04824895	0.03284919	0	0
22.46788	-0.01802436	0.2616682	0	-0.002166484	0	-0.06556199	0	0
22.48444	-0.01802436	0.2616324	0	-0.002162493	0	0.0001205791	0	0
22.50101	-0.01802436	0.2616324	0	0	0	0.06527168	0	0
22.51757	-0.01802436	0.2615607	0	-0.004324488	0	-0.1305208	0	0
22.53414	-0.01799806	0.261507	0.001587771	-0.003242992	0.04791627	0.03263772	0	0
22.55071	-0.01791913	0.2613458	0.004764298	-0.009731217	0.09586776	-0.195815	0	0
22.56727	-0.01789283	0.2610771	0.001588137	-0.0162187	-0.09586777	-0.195815	0	0
22.58384	-0.01770867	0.2606294	0.01111545	-0.02702805	0.2875515	-0.3262457	0	0
22.60045	-0.01773498	0.2603249	-0.001584124	-0.01833474	-0.3828112	0.2620476	0	0
22.61698	-0.01734037	0.2589814	0.0238767	-0.08128967	0.7684091	-1.899983	0	0
22.63354	-0.01639327	0.2564732	0.05716702	-0.1513966	1.00592	-2.118393	0	0
22.65011	-0.01249935	0.2442471	0.2349833	-0.7377965	5.365889	-17.69555	0	0
22.667	-0.01063118	0.2326359	0.1106484	-0.6877118	-3.716495	1.497082	0	0
22.68324	-0.009736534	0.2234737	0.05507236	-0.5640053	-1.677577	3.734117	0	0
22.71638	-0.006868313	0.1743806	0.08656309	-1.481632	0.6377308	-18.58321	0	0
22.73305	-0.006657796	0.1687338	0.0126283	-0.3387353	-1.484495	22.94757	0	0
22.74951	-0.005657834	0.1418032	0.06073541	-1.635704	1.451876	-39.1426	0	0
22.76608	-0.005552575	0.1269762	0.006354234	-0.8950633	-1.64644	22.42358	0	0
22.78264	-0.005157849	0.1086839	0.02382843	-1.104252	0.5274332	-6.314056	0	0
22.79921	-0.004999958	0.1001445	0.00953138	-0.5154982	-0.4315356	17.77068	0	0
22.81577	-0.004657861	0.08793082	0.02064905	-0.7372177	0.3355513	-6.691893	0	0
22.83234	-0.004289447	0.07374611	0.02223748	-0.856191	0.04793898	-3.590622	0	0
22.84891	-0.005184164	0.06580394	-0.05401144	-0.4794455	-2.301329	11.37086	0	0
22.86547	-0.007394602	0.06162348	-0.1334376	-0.2523617	-2.397364	6.854191	0	0
22.88214	-0.009078698	0.06054993	-0.1010126	-0.06439235	0.9755564	5.655348	0	0
22.89861	-0.00923658	0.06043885	-0.009591586	-0.0067479	2.759251	1.739813	0	0
22.91517	-0.00923658	0.06043885	0	0	0.2904108	0.2043106	0	0
22.93174	-0.00923658	0.06040183	0	-0.002234873	0	-0.06744861	0	0
22.94831	-0.009262893	0.06038331	-0.001588291	-0.001117549	-0.04793473	0.03372091	0	0
22.96487	-0.009262893	0.06038331	0	0	0.04793473	0.0337277	0	0
22.98144	-0.009262893	0.06038331	0	0	0	0	0	0
23.06591	-0.009368147	0.06030926	-0.001246034	-0.0008766504	-0.01233233	-0.008676445	0	0
23.09931	-0.00939446	0.06029075	-0.0007879318	-0.0005544024	0.003886618	0.002734009	0	0
23.11561	-0.009420774	0.06027224	-0.001614122	-0.001135495	-0.01662425	-0.01169251	0	0
23.13218	-0.009420774	0.06027224	0	0	0.04910722	0.03454573	0	0
23.14874	-0.009420774	0.06027224	0	0	0	0	0	0
23.16536	-0.009420774	0.06027224	0	0	0	0	0	0
23.18188	-0.009447088	0.06029075	-0.001592692	0.00112042	-0.04807031	0.03381629	0	0
23.19844	-0.009447088	0.06029075	0	0	0.04813681	-0.03386308	0	0
23.21501	-0.009473401	0.06030926	-0.001588291	0.001117549	-0.04793749	0.03372964	0	0
23.23189	-0.009473401	0.06030926	0	0	0.04748102	-0.03340846	0	0
23.24814	-0.009473401	0.06030926	0	0	0	0	0	0
23.26492	-0.009499714	0.06032777	-0.001568373	0.001103351	-0.04748667	0.0334069	0	0
23.28128	-0.009526027	0.06034629	-0.001608664	0.001131883	-0.001215967	0.0008610974	0	0
23.29785	-0.009578655	0.06038331	-0.003176583	0.002234873	-0.04762143	0.03350043	0	0
23.31446	-0.009631281	0.06042034	-0.003168501	0.002229227	0.0002435932	-0.0001701924	0	0
23.33098	-0.009657594	0.06043885	-0.001592324	0.001120387	0.04756911	-0.03346486	0	0
23.34755	-0.009657594	0.06043885	0	0	0.04811738	-0.03385622	0	0
23.36411	-0.009657594	0.06043885	0	0	0	0	0	0
23.381	-0.009657594	0.06043885	0	0	0	0	0	0
23.39725	-0.009657594	0.06043885	0	0	0	0	0	0
23.41403	-0.009657594	0.06043885	0	0	0	0	0	0
23.43054	-0.009657594	0.06043885	0	0	0	0	0	0
23.44695	-0.009657594	0.06043885	0	0	0	0	0	0
23.46351	-0.009657594	0.06043885	0	0	0	0	0	0
23.48008	-0.009657594	0.06043885	0	0	0	0	0	0
23.49665	-0.009657594	0.06043885	0	0	0	0	0	0
23.5136	-0.009657594	0.06043885	0	0	0	0	0	0
23.53012	-0.009657594	0.06043885	0	0	0	0	0	0
23.54663	-0.009657594	0.06043885	0	0	0	0	0	0
23.56313	-0.009657594	0.06043885	0	0	0	0	0	0
23.57965	-0.009657594	0.06043885	0	0	0	0	0	0
23.59617	-0.009657594	0.06043885	0	0	0	0	0	0
23.61267	-0.009683908	0.06042034	-0.001594533	-0.001121941	-0.0482843	-0.03397367	0	0
23.62918	-0.009683908	0.06042034	0	0	0.04829546	0.03398152	0	0
23.64575	-0.009683908	0.06042034	0	0	0	0	0	0
23.66232	-0.009683908	0.06042034	0	0	0	0	0	0
23.67888	-0.009683908	0.06042034	0	0	0	0	0	0
23.71374	-0.009736534	0.06042034	-0.001509702	0	-0.02935682	0	0	0
23.72995	-0.009736534	0.06042034	0	0	0.02956185	0	0	0
23.74652	-0.009736534	0.06042034	0	0	0	0	0	0
23.76328	-0.009762848	0.06040183	-0.001570214	-0.001104607	-0.04711792	-0.03314631	0	0
23.77966	-0.009789161	0.06042034	-0.001606603	0.001130206	-0.001098159	0.06744291	0	0
23.79622	-0.009789161	0.06042034	0	0	0.0487681	-0.03430717	0	0
23.81279	-0.009815474	0.06040183	-0.001588418	-0.001117453	-0.04794407	-0.03372868	0	0
23.82936	-0.009815474	0.06040183	0	0	0.04794131	0.03372674	0	0
23.84592	-0.009815474	0.06040183	0	0	0	0	0	0
23.86249	-0.009841788	0.06038331	-0.001588291	-0.001117549	-0.04793473	-0.0337277	0	0
23.87906	-0.009841788	0.06038331	0	0	0.04793197	0.03372575	0	0
23.89562	-0.0098681	0.0603648	-0.001588418	-0.001117453	-0.04793855	-0.0337248	0	0
23.91239	-0.0098681	0.0603648	0	0	0.04765872	0.03352793	0	0
23.94532	-0.0098681	0.0603648	0	0	0	0	0	0
23.96189	-0.0098681	0.0603648	0	0	0	0	0	0
23.97846	-0.0098681	0.0603648	0	0	0	0	0	0
23.99503	-0.0098681	0.0603648	0	0	0	0	0	0
24.01159	-0.0098681	0.0603648	0	0	0	0	0	0
24.02816	-0.0098681	0.0603648	0	0	0	0	0	0
24.04498	-0.0098681	0.0603648	0	0	0	0	0	0
24.0613	-0.0098681	0.0603648	0	0	0	0	0	0
24.07786	-0.0098681	0.0603648	0	0	0	0	0	0
24.09443	-0.0098681	0.0603648	0	0	0	0	0	0
24.111	-0.0098681	0.0603648	0	0	0	0	0	0
24.12756	-0.0098681	0.0603648	0	0	0	0	0	0
24.14413	-0.0098681	0.0603648	0	0	0	0	0	0
24.16069	-0.009894414	0.06034629	-0.001588291	-0.001117549	-0.04793473	-0.0337277	0	0
24.21927	-0.009894414	0.06034629	0	0	0.02113776	0.01487289	0	0
24.23584	-0.009894414	0.06034629	0	0	0	0	0	0
24.25263	-0.009894414	0.06034629	0	0	0	0	0	0
24.26897	-0.009894414	0.06034629	0	0	0	0	0	0
24.28566	-0.009894414	0.06034629	0	0	0	0	0	0
24.3021	-0.009894414	0.06034629	0	0	0	0	0	0
24.31868	-0.009894414	0.06034629	0	0	0	0	0	0
24.33523	-0.009894414	0.06034629	0	0	0	0	0	0
24.3518	-0.009920727	0.06032777	-0.001588291	-0.001117549	-0.04794853	-0.03373741	0	0
24.36837	-0.009920727	0.06032777	0	0	0.04793473	0.0337277	0	0
24.38494	-0.009894414	0.06030926	0.001588291	-0.001117324	0.04793473	-0.03372091	0	0
24.40336	-0.009894414	0.06030926	0	0	-0.04538737	0.03192891	0	0
24.41993	-0.009894414	0.06030926	0	0	0	0	0	0
24.4365	-0.009894414	0.06030926	0	0	0	0	0	0
24.45581	-0.009920727	0.06029075	-0.001362289	-0.0009585298	-0.03796479	-0.02671268	0	0
24.47238	-0.009920727	0.06029075	0	0	0.03796479	0.02671268	0	0
24.4893	-0.009920727	0.06029075	0	0	0	0	0	0
24.50551	-0.009920727	0.06029075	0	0	0	0	0	0
24.52233	-0.009920727	0.06029075	0	0	0	0	0	0
24.53884	-0.009920727	0.06029075	0	0	0	0	0	0
24.55522	-0.009920727	0.06029075	0	0	0	0	0	0
24.57186	-0.009920727	0.06029075	0	0	0	0	0	0
24.58835	-0.00994704	0.06027224	-0.001595583	-0.001122493	-0.04815756	-0.03387887	0	0
24.60492	-0.00994704	0.06027224	0	0	0.04826314	0.03395314	0	0
24.67118	-0.00994704	0.06027224	0	0	0	0	0	0
24.68775	-0.00994704	0.06027224	0	0	0	0	0	0
24.70432	-0.00994704	0.06027224	0	0	0	0	0	0
24.72097	-0.00994704	0.06027224	0	0	0	0	0	0
24.73745	-0.009973354	0.06025372	-0.001596378	-0.001123239	-0.04818156	-0.03390137	0	0
24.75402	-0.009973354	0.06025372	0	0	0.04830112	0.0339855	0	0
24.77059	-0.009973354	0.06025372	0	0	0	0	0	0
24.78751	-0.009973354	0.06025372	0	0	0	0	0	0
24.83685	-0.009973354	0.06025372	0	0	0	0	0	0
24.85356	-0.009999666	0.06027224	-0.001574998	0.001108235	-0.02384708	0.01677981	0	0
24.87007	-0.009999666	0.06027224	0	0	0.04741345	-0.0333621	0	0
24.88655	-0.01002598	0.06025372	-0.001596563	-0.001123369	-0.04839049	-0.03404838	0	0
24.90312	-0.01002598	0.06025372	0	0	0.0483095	0.03399139	0	0
24.91969	-0.01002598	0.06025372	0	0	0	0	0	0
24.93625	-0.01005229	0.06023521	-0.001588235	-0.001117549	-0.04793303	-0.0337277	0	0
24.96939	-0.01021017	0.06012413	-0.00476479	-0.003352422	-0.06391241	-0.04496574	0	0
24.98616	-0.01034174	0.06003155	-0.007844652	-0.00551975	-0.06171354	-0.04342839	0	0
25.00252	-0.0106838	0.05975382	-0.02090474	-0.01697277	-0.3941544	-0.3456528	0	0
25.01918	-0.01092062	0.05958718	-0.01421561	-0.01000356	0.2025663	0.2110479	0	0
25.03569	-0.01531459	0.05645664	-0.2661092	-0.1895926	-7.593859	-5.414085	0	0
25.05222	-0.02638861	0.04857293	-0.6699717	-0.4769601	-12.22307	-8.697301	0	0
25.06879	-0.03582677	0.04190091	-0.569754	-0.4027699	3.028237	2.241774	0	0
25.08573	-0.04927587	0.03232754	-0.7940542	-0.565226	-6.695013	-4.849063	0	0
25.10192	-0.05919392	0.02523383	-0.6124035	-0.4380099	5.482544	3.83961	0	0
25.11849	-0.06907415	0.01814478	-0.5963714	-0.4278965	0.4893426	0.3086895	0	0
25.13526	-0.08147712	0.009296071	-0.7393667	-0.5274894	-4.288697	-2.986979	0	0
25.15177	-0.08714713	0.005220256	-0.3434287	-0.2468693	11.89534	8.430793	0	0
25.16829	-0.0996426	-0.003756406	-0.7567544	-0.5436475	-12.5167	-8.987309	0	0
25.1848	-0.10407	-0.006961517	-0.2681352	-0.194109	14.79596	10.58443	0	0
25.20132	-0.1109894	-0.01198289	-0.4187127	-0.3038605	-4.557819	-3.322061	0	0
25.21789	-0.1134061	-0.01374033	-0.1458719	-0.1060789	8.244793	5.97663	0	0
25.23446	-0.1158733	-0.01549872	-0.1489254	-0.1061369	-0.0921571	-0.001750752	0	0
25.25134	-0.1174569	-0.0166526	-0.09376765	-0.06832684	1.648721	1.130181	0	0
25.28416	-0.1174309	-0.01663368	0.0007911047	0.0005765823	1.902599	1.386393	0	0
25.30541	-0.1174309	-0.01663368	0	0	-0.0146328	-0.01066485	0	0
25.32198	-0.1174049	-0.01661476	0.001566007	0.001141683	0.04140387	0.03018512	0	0
25.33854	-0.1174049	-0.01661476	0	0	-0.04725946	-0.03445409	0	0
25.35511	-0.1174049	-0.01661476	0	0	0	0	0	0
25.37193	-0.117353	-0.01657693	0.003085933	0.00224956	0.09243131	0.06737986	0	0
25.38824	-0.1173011	-0.01653909	0.003182363	0.002319407	0.002910258	0.002108004	0	0
25.40495	-0.1172752	-0.01652017	0.001552958	0.00113217	-0.04934026	-0.03595091	0	0
25.42147	-0.1172233	-0.01648233	0.003144132	0.00229143	0.04789489	0.03489414	0	0
25.43798	-0.1172233	-0.01648233	0	0	-0.09520246	-0.06938317	0	0
25.45451	-0.1171973	-0.01646341	0.001570252	0.00114445	0.04751886	0.03463326	0	0
25.47108	-0.1170675	-0.01636882	0.007833636	0.005709507	0.1892363	0.1379245	0	0
25.48765	-0.1167301	-0.01608507	0.02036862	0.01712751	0.3783067	0.344596	0	0
25.50453	-0.116107	-0.01559329	0.03690658	0.0291306	0.4944205	0.3588458	0	0
25.52078	-0.1147048	-0.01453432	0.0862864	0.06516463	1.490372	1.087572	0	0
25.53756	-0.1115872	-0.01226629	0.1858275	0.1351869	3.013873	2.120111	0	0
25.55406	-0.1033931	-0.006320245	0.496421	0.3602309	9.33183	6.761481	0	0
25.57048	-0.09873058	-0.002946196	0.2840162	0.2055273	-6.451613	-4.698987	0	0
25.58708	-0.09009752	0.003283936	0.5198956	0.3751876	7.143113	5.137808	0	0
25.60361	-0.08607626	0.006178606	0.2433118	0.1751461	-8.347795	-6.037612	0	0
25.68644	-0.05853831	0.02581305	0.3324541	0.2370384	0.8971696	0.6229133	0	0
25.70301	-0.05633507	0.02738208	0.1329879	0.09470666	-2.006711	-1.431916	0	0
25.71968	-0.0562039	0.02747545	0.007869945	0.005602438	-3.764798	-2.681145	0	0
25.73619	-0.0562039	0.02747545	0	0	-0.2371741	-0.1688389	0	0
25.75271	-0.0562039	0.02747545	0	0	0	0	0	0
25.76971	-0.05617767	0.02749413	0.001543129	0.00109851	0.04603641	0.03277201	0	0
25.78584	-0.05617767	0.02749413	0	0	-0.04657708	-0.0331569	0	0
25.80273	-0.05617767	0.02749413	0	0	0	0	0	0
25.81925	-0.0562039	0.0275128	-0.001588578	0.001130863	-0.04755466	0.03385281	0	0
25.83554	-0.0562039	0.02755015	0	0.00229179	0.04841718	0.03538309	0	0
25.85228	-0.05615144	0.0275875	0.003134571	0.002231459	0.09489103	-0.001826368	0	0
25.86878	-0.05609897	0.02762485	0.003179726	0.002263444	0.001358577	0.0009623142	0	0
25.8853	-0.05602027	0.02768087	0.004765733	0.003392252	0.04804	0.03419149	0	0
25.90181	-0.05602027	0.02768087	0	0	-0.1442869	-0.1027035	0	0
25.91838	-0.05602027	0.02768087	0	0	0	0	0	0
25.93533	-0.05602027	0.02768087	0	0	0	0	0	0
25.95151	-0.0559678	0.02764352	0.003242316	-0.002307883	0.0978533	-0.06965204	0	0
25.96808	-0.05594157	0.02762485	0.001583639	-0.001127235	-0.05065086	0.03605331	0	0
25.98465	-0.05591534	0.02760617	0.001583457	-0.001127218	-5.502335E-06	5.235299E-07	0	0
26.00138	-0.05591534	0.02760617	0	0	-0.04755341	0.03385192	0	0
26.01778	-0.0558891	0.0275875	0.001599477	-0.001138509	0.0482751	-0.03436225	0	0
26.0344	-0.05586287	0.02756882	0.001578188	-0.001123467	-0.0006446728	0.0004554864	0	0
26.05091	-0.0558104	0.02753148	0.003177156	-0.002261614	0.04825416	-0.03434737	0	0
26.06935	-0.0558104	0.02753148	0	0	-0.09091996	0.06472011	0	0
26.08594	-0.05578417	0.0275128	0.001580909	-0.001125292	0.04513704	-0.03212857	0	0
26.10248	-0.05578417	0.0275128	0	0	-0.04771192	0.03396137	0	0
26.11905	-0.05578417	0.0275128	0	0	0	0	0	0
26.13562	-0.05578417	0.0275128	0	0	0	0	0	0
26.15218	-0.05578417	0.0275128	0	0	0	0	0	0
26.16875	-0.05578417	0.0275128	0	0	0	0	0	0
26.18532	-0.05578417	0.0275128	0	0	0	0	0	0
26.20202	-0.05578417	0.0275128	0	0	0	0	0	0
26.21845	-0.05578417	0.0275128	0	0	0	0	0	0
26.23504	-0.05578417	0.02747545	0	-0.00225055	0	-0.06815319	0	0
26.25158	-0.05578417	0.02747545	0	0	0	0.06792172	0	0
26.26815	-0.05578417	0.02747545	0	0	0	0	0	0
26.28472	-0.05578417	0.02747545	0	0	0	0	0	0
26.30128	-0.05578417	0.02747545	0	0	0	0	0	0
26.31785	-0.05578417	0.02747545	0	0	0	0	0	0
26.33442	-0.05578417	0.02747545	0	0	0	0	0	0
26.35099	-0.05578417	0.02747545	0	0	0	0	0	0
26.36755	-0.05578417	0.02747545	0	0	0	0	0	0
26.38415	-0.05578417	0.02747545	0	0	0	0	0	0
26.40068	-0.05578417	0.02747545	0	0	0	0	0	0
26.41725	-0.05575794	0.02745678	0.001583457	-0.001127106	0.04784115	-0.03405336	0	0
26.43382	-0.05575794	0.02745678	0	0	-0.04778882	0.03401611	0	0
26.45038	-0.05575794	0.02745678	0	0	0	0	0	0
26.46695	-0.05575794	0.02745678	0	0	0	0	0	0
26.48372	-0.05575794	0.02745678	0	0	0	0	0	0
26.50008	-0.05575794	0.02745678	0	0	0	0	0	0
26.51675	-0.05575794	0.02745678	0	0	0	0	0	0
26.53327	-0.05575794	0.02745678	0	0	0	0	0	0
26.58292	-0.05575794	0.02745678	0	0	0	0	0	0
26.59949	-0.05578417	0.02743811	-0.001583457	-0.001127218	-0.02391231	-0.01702249	0	0
26.61605	-0.05575794	0.02741943	0.001583457	-0.001127218	0.09557765	0	0	0
26.63283	-0.05575794	0.02741943	0	0	-0.04748541	0.03380352	0	0
26.64934	-0.05575794	0.02741943	0	0	0	0	0	0
26.66575	-0.05575794	0.02741943	0	0	0	0	0	0
26.68242	-0.05578417	0.02740076	-0.001573673	-0.001120253	-0.04756749	-0.03386195	0	0
26.69889	-0.05578417	0.02736341	0	-0.002268802	0.04749629	-0.03466526	0	0
26.71545	-0.05578417	0.02736341	0	0	0	0.06869006	0	0
26.73202	-0.05578417	0.02736341	0	0	0	0	0	0
26.74859	-0.0558104	0.02734473	-0.001583457	-0.001127218	-0.04779157	-0.03402147	0	0
26.76544	-0.05578417	0.02732606	0.001556576	-0.001108082	0.09395512	0.0005725712	0	0
26.78172	-0.0558104	0.02730738	-0.001611471	-0.001147161	-0.09561736	-0.00117945	0	0
26.79952	-0.05583664	0.02728871	-0.001473685	-0.001049075	0.004042947	0.00287806	0	0
26.81609	-0.05586287	0.02727003	-0.001583457	-0.00112733	-0.003193952	-0.002276958	0	0
26.83265	-0.05586287	0.02727003	0	0	0.04778882	0.0340229	0	0
26.84922	-0.05586287	0.02727003	0	0	0	0	0	0
26.866	-0.05586287	0.02727003	0	0	0	0	0	0
26.88236	-0.0558891	0.02725136	-0.001604141	-0.001141943	-0.04841308	-0.03446389	0	0
26.89902	-0.0558891	0.02725136	0	0	0.04858648	0.03458733	0	0
26.91549	-0.0558891	0.02725136	0	0	0	0	0	0
26.93206	-0.0558891	0.02725136	0	0	0	0	0	0
26.94862	-0.05591534	0.02723268	-0.001583457	-0.001127218	-0.04778882	-0.03401951	0	0
26.96519	-0.05591534	0.02723268	0	0	0.04778882	0.03401951	0	0
26.98176	-0.05594157	0.027214	-0.001583457	-0.00112733	-0.04778882	-0.0340229	0	0
26.99859	-0.0559678	0.02719533	-0.00155834	-0.001109338	0.0007519781	0.0005386792	0	0
27.01489	-0.0559678	0.02719533	0	0	0.04703349	0.03348181	0	0
27.03212	-0.05599404	0.027214	-0.001522966	0.001084156	-0.04542973	0.03234013	0	0
27.04813	-0.05599404	0.027214	0	0	0.04581552	-0.03261477	0	0
27.06459	-0.05599404	0.027214	0	0	0	0	0	0
27.08116	-0.05599404	0.027214	0	0	0	0	0	0
27.09817	-0.05599404	0.027214	0	0	0	0	0	0
27.11429	-0.05602027	0.02719533	-0.001626911	-0.001158152	-0.0491031	-0.03495511	0	0
27.13086	-0.05602027	0.02719533	0	0	0.04976488	0.0354262	0	0
27.14742	-0.05602027	0.02719533	0	0	0	0	0	0
27.164	-0.05602027	0.02719533	0	0	0	0	0	0
27.26339	-0.0560465	0.027214	-0.0002639399	0.0001878913	-0.002275958	0.00162019	0	0
27.27996	-0.0560465	0.027214	0	0	0.002276145	-0.001620323	0	0
27.2968	-0.05607274	0.02723268	-0.001557457	0.00110882	-0.04661507	0.03318726	0	0
27.31309	-0.05607274	0.02723268	0	0	0.04700686	-0.03346619	0	0
27.32966	-0.05607274	0.02723268	0	0	0	0	0	0
27.34634	-0.05607274	0.02723268	0	0	0	0	0	0
27.36285	-0.05607274	0.02723268	0	0	0	0	0	0
27.37937	-0.05607274	0.02723268	0	0	0	0	0	0
27.41249	-0.05607274	0.02723268	0	0	0	0	0	0
27.42906	-0.05607274	0.02723268	0	0	0	0	0	0
27.44563	-0.0560465	0.027214	0.001583457	-0.00112733	0.04778882	-0.0340229	0	0
27.46242	-0.0560465	0.027214	0	0	-0.04746369	0.03379143	0	0
27.47894	-0.0560465	0.027214	0	0	0	0	0	0
27.49533	-0.0560465	0.027214	0	0	0	0	0	0
27.5119	-0.05602027	0.02723268	0.001583457	0.00112733	0.04804603	0.03420602	0	0
27.52847	-0.0560465	0.02725136	-0.001583275	0.001127088	-0.09556665	-7.311009E-06	0	0
27.54503	-0.0560465	0.02725136	0	0	0.04778057	-0.03401363	0	0
27.5616	-0.0560465	0.02725136	0	0	0	0	0	0
27.57817	-0.05615144	0.02732606	-0.006333828	0.004508984	-0.1911663	0.1360893	0	0
27.59502	-0.05633507	0.02745678	-0.01089189	0.007753944	-0.1363617	0.09707808	0	0
27.61316	-0.05654492	0.02760617	-0.01157309	0.008238584	-0.01946719	0.01384993	0	0
27.62972	-0.05659739	0.02764352	-0.003166689	0.002254324	0.2422567	-0.1724551	0	0
27.64656	-0.05664985	0.02768087	-0.003116811	0.002218706	0.001493362	-0.001066413	0	0
27.66307	-0.05670231	0.02768087	-0.003177297	0	-0.001813975	-0.06653935	0	0
27.67942	-0.05670231	0.02768087	0	0	0.09667007	0	0	0
27.69599	-0.05675477	0.02764352	-0.0031661	-0.002253952	-0.09616198	-0.06845788	0	0
27.7126	-0.05683346	0.0275875	-0.004737377	-0.003372499	-0.04735582	-0.03371125	0	0
27.72962	-0.05696462	0.02749413	-0.007708932	-0.005488019	-0.08837431	-0.06291573	0	0
27.74569	-0.05696462	0.02749413	0	0	0.2329779	0.1658579	0	0
27.76226	-0.05699085	0.02747545	-0.001583232	-0.001127218	-0.04850237	-0.03453236	0	0
27.77883	-0.05699085	0.02747545	0	0	0.04778203	0.03401951	0	0
27.79567	-0.05699085	0.02747545	0	0	0	0	0	0
27.81196	-0.05699085	0.02747545	0	0	0	0	0	0
27.82853	-0.05696462	0.02745678	0.001583232	-0.001127106	0.04818142	-0.03430044	0	0
27.84509	-0.05693839	0.02747545	0.001583457	0.001127106	6.78793E-06	0.06803223	0	0
27.86171	-0.05691216	0.02749413	0.001578326	0.001123725	-0.0001546138	-0.0001018679	0	0
27.87823	-0.05683346	0.0275128	0.004764732	0.001130733	0.09616593	0.0002114974	0	0
27.8948	-0.05672854	0.02747545	0.006332424	-0.002254176	0.04738396	-0.1023099	0	0
27.91136	-0.05657115	0.02743811	0.009502254	-0.002254843	0.09567118	-2.011198E-05	0	0
27.92793	-0.0562039	0.0275128	0.02216727	0.00450876	0.382275	0.2041494	0	0
28.01076	-0.04491714	0.02104571	0.1362572	-0.07807272	1.147769	-0.8307872	0	0
28.02733	-0.02707233	0.01765793	1.076991	-0.2044631	9.463797	-1.27149	0	0
28.0439	-0.01586709	0.01679643	0.6764275	-0.05200642	-12.08902	4.601151	0	0
28.06047	0.008315598	0.01482916	1.459502	-0.1187311	23.63323	-2.013754	0	0
28.07703	0.02744048	0.01286077	1.154513	-0.1188257	-9.204586	-0.002856384	0	0
28.0936	0.0583285	0.009633938	1.864405	-0.194772	21.4258	-2.292195	0	0
28.11016	0.06433216	0.008976944	0.3624233	-0.03966081	-45.33249	4.681534	0	0
28.12673	0.08636358	0.00612224	1.32982	-0.1723102	29.19776	-4.003598	0	0
28.1433	0.1002418	0.002700942	0.8376927	-0.20651	-14.85242	-1.03215	0	0
28.15987	0.1188322	-0.003681029	1.122118	-0.3852166	8.583964	-5.393375	0	0
28.17645	0.1275925	-0.008584121	0.5284088	-0.2957469	-17.91199	2.699267	0	0
28.193	0.1422434	-0.01377813	0.8849366	-0.3137278	10.76003	-0.5426638	0	0
28.20957	0.1455425	-0.01540416	0.1991369	-0.09814729	-20.70463	6.508481	0	0
28.22613	0.1567046	-0.02286428	0.6738216	-0.4503456	14.32684	-10.62998	0	0
28.2427	0.1982051	-0.05403588	2.504979	-1.881521	55.26763	-43.19545	0	0
28.3016	0.2011882	-0.0564119	0.05064552	-0.04033933	-32.52149	24.39684	0	0
28.31817	0.2127318	-0.06632037	0.6966912	-0.5980077	8.560301	-7.389275	0	0
28.33474	0.2211391	-0.07755746	0.5075256	-0.6783503	-5.709029	-2.424746	0	0
28.3513	0.2277673	-0.08345448	0.4000781	-0.355945	-3.242959	9.730773	0	0
28.36787	0.2320087	-0.0867469	0.2560109	-0.1987308	-4.347955	4.744733	0	0
28.38444	0.2367141	-0.09041203	0.2840212	-0.2212275	0.845351	-0.6789513	0	0
28.401	0.2393237	-0.09245038	0.1575128	-0.1230352	-3.81803	2.96345	0	0
28.42095	0.2392243	-0.09241154	-0.004980487	0.001947149	-4.45013	3.422834	0	0
28.43752	0.2390504	-0.09254748	-0.01049552	-0.008205554	-0.1510376	-0.2780474	0	0
28.45409	0.2373109	-0.0939073	-0.1050001	-0.08207892	-2.852155	-2.229502	0	0
28.47065	0.2286662	-0.1006585	-0.521796	-0.4075016	-12.57893	-9.821275	0	0
28.48722	0.2214647	-0.106275	-0.4346803	-0.3390145	2.629159	2.066945	0	0
28.50379	0.2153703	-0.1109844	-0.367863	-0.2842568	2.016551	1.652589	0	0
28.52069	0.209612	-0.1153497	-0.3407432	-0.2583178	0.810361	0.7750787	0	0
28.5372	0.2058073	-0.1180745	-0.2303682	-0.1649823	3.303173	2.793233	0	0
28.55371	0.2048236	-0.1187611	-0.05957934	-0.04158514	5.171384	3.736395	0	0
28.57005	0.2048236	-0.1187611	0	0	1.813664	1.2659	0	0
28.58673	0.2046975	-0.118663	-0.007562357	0.005881039	-0.2290234	0.1781053	0	0
28.60319	0.2046723	-0.1186434	-0.001533337	0.001192344	0.1819667	-0.1415132	0	0
28.61978	0.2045966	-0.1185845	-0.004561932	0.003547421	-0.09165645	0.07127331	0	0
28.63632	0.20442	-0.1184472	-0.01067699	0.008301175	-0.1845635	0.1434768	0	0
28.65289	0.204319	-0.1183295	-0.006091879	0.007104194	0.1384826	-0.03615201	0	0
28.66945	0.2040415	-0.1181137	-0.01675379	0.01302338	-0.3217772	0.1786414	0	0
28.68602	0.2039405	-0.1180353	-0.006093678	0.00473508	0.3217229	-0.2501414	0	0
28.70259	0.2032086	-0.1174666	-0.04418119	0.03432832	-1.149483	0.8931257	0	0
28.71916	0.2025016	-0.1169176	-0.04266613	0.03313275	0.0457221	-0.03608026	0	0
28.73572	0.2022239	-0.1167019	-0.01677025	0.01301918	0.7815842	-0.6070636	0	0
28.75229	0.2022239	-0.1167019	0	0	0.5061853	-0.392965	0	0
28.76886	0.2022239	-0.1167019	0	0	0	0	0	0
28.78542	0.2022491	-0.1166823	0.001525071	0.001183617	0.04602407	0.03571957	0	0
28.80199	0.2022239	-0.1166627	-0.001524719	0.001183344	-0.09206404	-8.226813E-06	0	0
28.81855	0.2022239	-0.1166627	0	0	0.04602407	-0.03571957	0	0
28.83541	0.2021986	-0.1166431	-0.001498494	0.00116299	-0.04484003	0.03480063	0	0
28.85192	0.2021986	-0.1166431	0	0	0.04490924	-0.03485434	0	0
28.86843	0.2021733	-0.1166235	-0.001529651	0.001187172	-0.0463196	0.03594893	0	0
28.88494	0.2021733	-0.1166235	0	0	0.04632228	-0.03595101	0	0
28.90145	0.2021481	-0.1166039	-0.001528748	0.001187172	-0.04629495	0.03595101	0	0
28.91797	0.2021228	-0.1165843	-0.001529474	0.001187034	-2.197477E-05	-4.152435E-06	0	0
28.93452	0.2021228	-0.1165843	0	0	0.04625548	-0.03589916	0	0
28.95108	0.2020976	-0.1165647	-0.001524719	0.001183344	-0.04603997	0.03573191	0	0
28.96765	0.2020976	-0.1165647	0	0	0.04601877	-0.03571545	0	0
28.98451	0.2020976	-0.1165647	0	0	0	0	0	0
29.00079	0.2020976	-0.1165647	0	0	0	0	0	0
29.01754	0.2020976	-0.1165647	0	0	0	0	0	0
29.03392	0.2020976	-0.1165647	0	0	0	0	0	0
29.05056	0.2020976	-0.1165647	0	0	0	0	0	0
29.15013	0.2020976	-0.1165647	0	0	0	0	0	0
29.16645	0.2020976	-0.1165647	0	0	0	0	0	0
29.18302	0.2020976	-0.1165647	0	0	0	0	0	0
29.19958	0.2020976	-0.1165647	0	0	0	0	0	0
29.21615	0.2020976	-0.1165647	0	0	0	0	0	0
29.23469	0.2020976	-0.1165647	0	0	0	0	0	0
29.25126	0.2020976	-0.1165647	0	0	0	0	0	0
29.26783	0.2020976	-0.1165647	0	0	0	0	0	0
29.28439	0.2020976	-0.1165647	0	0	0	0	0	0
29.30096	0.2020976	-0.1165647	0	0	0	0	0	0
29.31753	0.2020976	-0.1165647	0	0	0	0	0	0
29.33426	0.2020471	-0.1165255	-0.00301885	0.002342948	-0.09065508	0.07035797	0	0
29.35078	0.2019208	-0.1164275	-0.007645605	0.00593335	-0.1391471	0.1079794	0	0
29.36723	0.201744	-0.1162903	-0.01074728	0.008339674	-0.09407999	0.07298854	0	0
29.3838	0.2010619	-0.1157612	-0.04117168	0.03193897	-0.9214456	0.7147378	0	0
29.40036	0.2002027	-0.115095	-0.05186147	0.04020928	-0.3226187	0.2495986	0	0
29.41693	0.1942053	-0.1104563	-0.3620031	0.2799921	-9.360095	7.236661	0	0
29.4335	0.1874826	-0.1052405	-0.405785	0.3148277	-1.321339	1.051341	0	0
29.45007	0.1773536	-0.09748502	-0.6113122	0.4680674	-6.202465	4.624516	0	0
29.46686	0.1699243	-0.09182901	-0.4424725	0.33686	5.061211	-3.933131	0	0
29.4832	0.1652426	-0.08827828	-0.2865191	0.2172996	4.707225	-3.608757	0	0
29.49988	0.1564992	-0.08167437	-0.5240108	0.3957878	-7.191109	5.404517	0	0
29.51633	0.1500479	-0.07678502	-0.3922449	0.2972777	3.976932	-2.973211	0	0
29.5329	0.1422949	-0.07094079	-0.4678625	0.3526771	-2.290183	1.677848	0	0
29.54947	0.1367206	-0.06674359	-0.3365421	0.253402	3.963257	-2.996129	0	0
29.56643	0.1296632	-0.06138104	-0.4161219	0.3161855	-2.373849	1.872818	0	0
29.5826	0.1241736	-0.0571596	-0.3394388	0.2610275	2.314435	-1.664768	0	0
29.59916	0.1168079	-0.05152784	-0.4446437	0.3399726	-3.213567	2.411442	0	0
29.61573	0.1130683	-0.04869691	-0.2257242	0.1708751	6.607384	-5.103668	0	0
29.63248	0.1062562	-0.04357756	-0.406779	0.3056968	-5.434836	4.047029	0	0
29.64899	0.09453318	-0.03496324	-0.7100543	0.5217635	-9.119272	6.496972	0	0
29.66543	0.08513582	-0.02815768	-0.5715028	0.4138812	4.204486	-3.273796	0	0
29.68201	0.07192833	-0.01858298	-0.7966552	0.5775313	-6.818271	4.955801	0	0
29.69856	0.06226153	-0.01160508	-0.5839598	0.4215267	6.41953	-4.7085	0	0
29.71513	0.05623014	-0.007263336	-0.3640557	0.2620679	6.639396	-4.814415	0	0
29.73205	0.04528481	0.000593796	-0.6469564	0.4644194	-8.448479	6.042974	0	0
29.74856	0.03703569	0.006460423	-0.4995858	0.3552965	4.408323	-3.26421	0	0
29.76483	0.03164732	0.01030957	-0.3311905	0.2365842	5.136885	-3.62131	0	0
29.798	0.02980696	0.01162293	-0.05547849	0.03959149	5.57644	-3.984295	0	0
29.8146	0.02985954	0.01158541	0.003167797	-0.002260131	1.178293	-0.8408623	0	0
29.83112	0.02988584	0.01156665	0.001592003	-0.001135808	-0.04758494	0.03395169	0	0
29.84766	0.02993842	0.01156665	0.003178021	0	0.04797105	0.0343539	0	0
29.86423	0.02993842	0.01156665	0	0	-0.09597365	0	0	0
29.88115	0.029991	0.01152913	0.003107805	-0.002217384	0.09280542	-0.06621562	0	0
29.89736	0.029991	0.01152913	0	0	-0.09379914	0.06692462	0	0
29.94721	0.03020134	0.01134153	0.004219651	-0.003763469	0.0638769	-0.05697123	0	0
29.96649	0.03028022	0.01132277	0.004091977	-0.0009732287	-0.001847081	0.04036671	0	0
29.98322	0.03035909	0.01126649	0.004712651	-0.003362714	0.01723491	-0.06635127	0	0
29.99973	0.03038538	0.01124773	0.001592258	-0.001136183	-0.09384952	0.06696554	0	0
30.01619	0.03041167	0.01122897	0.001597981	-0.001140266	0.000173588	-0.0001238643	0	0
30.03276	0.03041167	0.01122897	0	0	-0.0483915	0.03453058	0	0
30.06589	0.03043796	0.01121021	0.0007934711	-0.0005661949	0.01596406	-0.01139143	0	0
30.08246	0.03043796	0.01121021	0	0	-0.01596528	0.0113923	0	0
30.09902	0.03043796	0.01121021	0	0	0	0	0	0
30.11559	0.03043796	0.01121021	0	0	0	0	0	0
30.13233	0.03046426	0.01119145	0.00157031	-0.001120577	0.04714239	-0.03364092	0	0
30.14884	0.03043796	0.01121021	-0.001592442	0.001136371	-0.09511259	0.06787259	0	0
30.16537	0.03041167	0.01119145	-0.001591155	-0.001135453	3.895269E-05	-0.06877358	0	0
30.18185	0.03041167	0.01119145	0	0	0.04819873	0.03439474	0	0
30.19842	0.03041167	0.01119145	0	0	0	0	0	0
30.21499	0.03041167	0.01119145	0	0	0	0	0	0
30.23156	0.03041167	0.01119145	0	0	0	0	0	0
30.24841	0.03038538	0.01121021	-0.001559473	0.001112844	-0.04665409	0.03329248	0	0
30.26469	0.03038538	0.01121021	0	0	0.04706769	-0.03358762	0	0
30.29782	0.03038538	0.01121021	0	0	0	0	0	0
30.3145	0.03038538	0.01121021	0	0	0	0	0	0
30.33095	0.03038538	0.01121021	0	0	0	0	0	0
30.34752	0.03038538	0.01121021	0	0	0	0	0	0
30.36409	0.03038538	0.01121021	0	0	0	0	0	0
30.38066	0.03038538	0.01121021	0	0	0	0	0	0
30.39751	0.03035909	0.01122897	-0.001559649	0.001112914	-0.04665937	0.03329459	0	0
30.41379	0.03035909	0.01122897	0	0	0.04707573	-0.03359169	0	0
30.43035	0.03035909	0.01122897	0	0	0	0	0	0
30.44692	0.03035909	0.01122897	0	0	0	0	0	0
30.46349	0.03035909	0.01122897	0	0	0	0	0	0
30.48007	0.0303328	0.01121021	-0.001585047	-0.001130958	-0.04781205	-0.03411469	0	0
30.49662	0.0303328	0.01121021	0	0	0.04783958	0.03413433	0	0
30.51319	0.03030651	0.01122897	-0.001586942	0.00113239	-0.04792712	0.03419922	0	0
30.52975	0.03030651	0.01122897	0	0	0.04789125	-0.03417362	0	0
30.54632	0.03030651	0.01122897	0	0	0	0	0	0
30.56289	0.03028022	0.01121021	-0.001587125	-0.00113252	-0.04790504	-0.03418346	0	0
30.57945	0.03028022	0.01121021	0	0	0.04790228	0.03418149	0	0
30.59602	0.03025392	0.01122897	-0.001587125	0.00113252	-0.04790228	0.03418149	0	0
30.61259	0.03025392	0.01119145	0	-0.002264836	0.04790228	-0.1025383	0	0
30.62918	0.03025392	0.01119145	0	0	0	0.06830176	0	0
30.64572	0.03025392	0.01119145	0	0	0	0	0	0
30.66228	0.03022763	0.01117269	-0.001586942	-0.00113239	-0.04793264	-0.03420316	0	0
30.67922	0.03017505	0.01117269	-0.003105704	0	-0.04533786	0.03380392	0	0
30.69738	0.03014876	0.01115393	-0.00144731	-0.001032804	0.04725157	-0.02942703	0	0
30.71424	0.03014876	0.01115393	0	0	0.04132487	0.02948953	0	0
30.73052	0.03012246	0.01113517	-0.001615322	-0.001152559	-0.04875051	-0.03478429	0	0
30.74708	0.03006988	0.01113517	-0.003173997	0	-0.04745613	0.03509133	0	0
30.76378	0.03004359	0.01115393	-0.001574795	0.001123722	0.04807858	0.0337837	0	0
30.78022	0.03004359	0.01115393	0	0	0.0475274	-0.03391399	0	0
30.79678	0.029991	0.01115393	-0.003174728	0	-0.09619556	0	0	0
30.81335	0.029991	0.01115393	0	0	0.09582451	0	0	0
30.82991	0.02996471	0.01117269	-0.001587125	0.001132576	-0.04790228	0.03418319	0	0
30.84684	0.02996471	0.01117269	0	0	0.0473948	-0.03382105	0	0
30.86305	0.02996471	0.01117269	0	0	0	0	0	0
30.87962	0.02993842	0.01115393	-0.001587237	-0.001132576	-0.04842136	-0.03455116	0	0
30.89637	0.02988584	0.01115393	-0.0031393	0	-0.04658659	0.03399532	0	0
30.91275	0.02985954	0.01117269	-0.001604791	0.001145102	0.04631158	0.03455925	0	0
30.99558	0.02972808	0.01115393	-0.001587083	-0.0002264996	0.0001784825	-0.01382434	0	0
31.01215	0.02970179	0.01113517	-0.001587125	-0.00113252	-4.239772E-07	-0.009115109	0	0
31.02872	0.0296755	0.01111641	-0.001587055	-0.001132446	2.122229E-06	2.238178E-06	0	0
31.04528	0.0296755	0.01111641	0	0	0.0478974	0.03417729	0	0
31.06199	0.0296755	0.01111641	0	0	0	0	0	0
31.08098	0.0296492	0.01109764	-0.001384191	-0.0009876922	-0.03877095	-0.02766509	0	0
31.0976	0.0296492	0.01109764	0	0	0.03886855	0.02773473	0	0
31.11412	0.02959662	0.01106012	-0.003183639	-0.002271692	-0.09608241	-0.0685598	0	0
31.13068	0.02957033	0.01104136	-0.001587125	-0.001132576	0.04825789	0.03443209	0	0
31.14725	0.02954403	0.0110226	-0.001587055	-0.001132502	2.122229E-06	2.238178E-06	0	0
31.16382	0.02951774	0.01104136	-0.001587237	0.001132633	-5.516389E-06	0.06836584	0	0
31.18038	0.02949145	0.0110226	-0.001587055	-0.001132502	5.516389E-06	-0.06836584	0	0
31.19695	0.02949145	0.0110226	0	0	0.04789465	0.03417702	0	0
31.21359	0.02946515	0.01104136	-0.001580142	0.001127569	-0.04758195	0.03395388	0	0
31.2301	0.02941257	0.01100384	-0.00318511	-0.002272798	-0.04841574	-0.102576	0	0
31.24665	0.02935998	0.01096631	-0.003178134	-0.002267876	0.0002110293	0.0001488848	0	0
31.26321	0.0292811	0.01094755	-0.004761712	-0.001132576	-0.04782552	0.03428711	0	0
31.27978	0.02925481	0.01096631	-0.001587055	0.001132446	0.09581687	0.06836244	0	0
31.29635	0.02922852	0.01098507	-0.001587055	0.001132502	0	1.696983E-06	0	0
31.31291	0.02922852	0.01098507	0	0	0.04790016	-0.03418095	0	0
31.32967	0.02922852	0.01098507	0	0	0	0	0	0
31.34605	0.02922852	0.01098507	0	0	0	0	0	0
31.36261	0.02920222	0.01100384	-0.001587055	0.001132502	-0.04817471	0.03437687	0	0
31.37921	0.02917593	0.0110226	-0.001584501	0.001130624	7.701186E-05	-5.665043E-05	0	0
31.39575	0.02912334	0.0110226	-0.003179713	0	-0.04814636	-0.03412425	0	0
31.41231	0.02907076	0.01106012	-0.003174109	0.002264948	0.0001692612	0.06841534	0	0
31.42888	0.02901817	0.01109764	-0.003174222	0.002264892	-3.393965E-06	-1.693469E-06	0	0
31.46368	0.02886041	0.01109764	-0.004533952	0	-0.02647296	-0.0440958	0	0
31.48025	0.02872894	0.01104136	-0.007933671	-0.003396556	-0.06618512	-0.06612355	0	0
31.49681	0.02767714	0.01036587	-0.06350839	-0.04078681	-1.677345	-1.128505	0	0
31.51338	0.02170712	0.006291335	-0.3603514	-0.2459393	-8.960288	-6.192585	0	0
31.53035	0.01381491	0.0006878933	-0.4649201	-0.3300918	-3.117484	-2.508822	0	0
31.54651	0.005552575	-0.005188893	-0.5111923	-0.3635979	-1.396338	-1.011098	0	0
31.56333	-0.004947328	-0.01264418	-0.6244298	-0.4433664	-3.433721	-2.418837	0	0
31.57985	-0.01220992	-0.01775012	-0.4395855	-0.3090492	5.544779	4.029116	0	0
31.59621	-0.0215756	-0.02377433	-0.5725645	-0.368286	-4.044512	-1.801667	0	0
31.61278	-0.02957033	-0.02601268	-0.4825628	-0.1351066	2.733567	7.082213	0	0
31.62934	-0.03989987	-0.02519682	-0.6235641	0.04925068	-4.255675	5.564235	0	0
31.64591	-0.04953839	-0.02214401	-0.5818491	0.1842894	1.259107	4.075946	0	0
31.66247	-0.05659739	-0.01712563	-0.4260821	0.3029102	4.701328	3.580189	0	0
31.67904	-0.06323139	-0.01230407	-0.400383	0.290996	0.7755569	-0.3595522	0	0
31.69561	-0.07051447	-0.00698038	-0.4397091	0.3214128	-1.186932	0.9180342	0	0
31.71218	-0.07504302	-0.003681029	-0.2733125	0.1991263	5.022148	-3.690826	0	0
31.72874	-0.07635129	-0.002701287	-0.07897642	0.05914414	5.865074	-4.224669	0	0
31.74546	-0.07624664	-0.002776642	0.006259805	-0.00450741	2.560936	-1.912421	0	0
31.76197	-0.07622048	-0.002795481	0.001584883	-0.001141053	-0.1406926	0.1013111	0	0
31.77844	-0.07622048	-0.002795481	0	0	-0.04805594	0.03459836	0	0
31.81157	-0.07622048	-0.002795481	0	0	0	0	0	0
31.82814	-0.07622048	-0.002795481	0	0	0	0	0	0
31.84471	-0.07614198	-0.002738964	0.004737779	0.003411335	0.1429947	0.1029602	0	0
31.86127	-0.07611582	-0.002682449	0.00157896	0.003411265	-0.09533335	-2.122106E-06	0	0
31.87784	-0.0755402	-0.002268033	0.03474476	0.02501423	1.000946	0.6519786	0	0
31.89441	-0.07433645	-0.001401693	0.07265823	0.05229237	1.144231	0.8232561	0	0
31.91098	-0.0733419	-0.0006861914	0.0600315	0.04318776	-0.3810754	-0.2747779	0	0
31.92759	-0.0733419	-0.0006861914	0	0	-1.809255	-1.301611	0	0
31.94411	-0.07336807	-0.0006673645	-0.001584419	0.001139675	-0.04782062	0.03439745	0	0
31.96068	-0.07300162	-0.000403799	0.02211893	0.01590884	0.7163994	0.4463768	0	0
31.97724	-0.06815742	0.00311469	0.2923967	0.2123764	8.157	5.929403	0	0
31.99381	-0.06116047	0.008132051	0.4223368	0.3028485	3.921602	2.730452	0	0
32.01038	-0.05169075	0.01490412	0.5716589	0.40881	4.506808	3.198109	0	0
32.02716	-0.04583629	0.01908082	0.3488775	0.2488968	-6.68087	-4.795549	0	0
32.04351	-0.04260578	0.02138244	0.1975873	0.1407734	-4.566471	-3.263545	0	0
32.06018	-0.03745616	0.02504697	0.30877	0.2197243	3.366351	2.390448	0	0
32.07664	-0.03104266	0.0296037	0.3897221	0.2768941	2.44314	1.725386	0	0
32.09321	-0.03038538	0.03007026	0.03966397	0.02815474	-10.59894	-7.531245	0	0
32.10978	-0.03035909	0.0300516	0.001587308	-0.00112669	-1.149156	-0.8837154	0	0
32.14424	-0.03041167	0.02997695	-0.001525642	-0.002165731	-0.06100331	-0.02036169	0	0
32.16076	-0.03043796	0.02992097	-0.001592074	-0.003390222	-0.001303106	-0.02401922	0	0
32.17731	-0.03046426	0.02990231	-0.001587673	-0.00112695	0.0001330665	0.06843173	0	0
32.19388	-0.03046426	0.02990231	0	0	0.04792711	0.03401925	0	0
32.21045	-0.03049055	0.02988364	-0.001586942	-0.001126431	-0.04789401	-0.03399576	0	0
32.22702	-0.03049055	0.02988364	0	0	0.04789401	0.03399576	0	0
32.24358	-0.03054313	0.02980899	-0.003174615	-0.004506874	-0.09582111	-0.1360334	0	0
32.26015	-0.03070088	0.02958504	-0.009521653	-0.01351785	-0.191576	-0.271983	0	0
32.27671	-0.03083233	0.02934241	-0.007934598	-0.0146454	0.04789741	-0.03402971	0	0
32.29335	-0.03085862	0.02924908	-0.001580755	-0.005611091	0.1913848	0.2721235	0	0
32.30986	-0.03083233	0.02923042	0.001592442	-0.001130561	0.09574522	0.1351915	0	0
32.32641	-0.03083233	0.02923042	0	0	-0.0481598	0.03419124	0	0
32.34298	-0.03083233	0.02923042	0	0	0	0	0	0
32.38568	-0.03083233	0.02923042	0	0	0	0	0	0
32.40243	-0.03083233	0.02923042	0	0	0	0	0	0
32.41882	-0.03083233	0.02923042	0	0	0	0	0	0
32.43545	-0.03080604	0.02917442	0.001581117	-0.003367561	0.04788359	-0.1019854	0	0
32.45196	-0.03080604	0.02913709	0	-0.002260599	-0.04770723	0.03340049	0	0
32.46854	-0.03080604	0.02906243	0	-0.004504662	0	-0.06781963	0	0
32.48509	-0.03080604	0.02902509	0	-0.002255501	0	0.06789542	0	0
32.50166	-0.03083233	0.02893176	-0.001586942	-0.005633504	-0.04791607	-0.1019953	0	0
32.51822	-0.03088491	0.02889443	-0.003173772	-0.002253537	-0.04789062	0.1020076	0	0
32.53503	-0.03127927	0.02846506	-0.02346843	-0.0255518	-0.6081529	-0.6981595	0	0
32.55136	-0.03204166	0.02792361	-0.04668452	-0.03315522	-0.7006632	-0.2294718	0	0
32.56792	-0.03306689	0.02719533	-0.06189724	-0.04396938	-0.4624751	-0.3287564	0	0
32.58455	-0.03393434	0.02657897	-0.05215493	-0.03705819	0.2934828	0.2081965	0	0
32.60107	-0.03393434	0.02657897	0	0	1.573314	1.117904	0	0
32.61762	-0.03393434	0.02657897	0	0	0	0	0	0
32.63419	-0.03393434	0.02657897	0	0	0	0	0	0
32.65075	-0.03393434	0.02657897	0	0	0	0	0	0
32.66732	-0.03393434	0.02657897	0	0	0	0	0	0
32.68388	-0.03393434	0.02657897	0	0	0	0	0	0
32.70063	-0.03393434	0.02657897	0	0	0	0	0	0
32.71701	-0.03393434	0.02657897	0	0	0	0	0	0
32.73365	-0.03393434	0.02657897	0	0	0	0	0	0
32.75016	-0.03393434	0.02657897	0	0	0	0	0	0
32.76672	-0.03393434	0.02657897	0	0	0	0	0	0
32.78328	-0.03393434	0.02657897	0	0	0	0	0	0
32.8002	-0.03393434	0.02657897	0	0	0	0	0	0
32.81642	-0.03393434	0.02657897	0	0	0	0	0	0
32.83298	-0.03393434	0.02657897	0	0	0	0	0	0
32.84955	-0.03393434	0.02657897	0	0	0	0	0	0
32.86612	-0.03393434	0.02657897	0	0	0	0	0	0
32.88403	-0.03393434	0.02657897	0	0	0	0	0	0
32.9006	-0.03393434	0.02657897	0	0	0	0	0	0
32.91729	-0.03393434	0.02657897	0	0	0	0	0	0
32.93373	-0.03393434	0.02657897	0	0	0	0	0	0
32.9503	-0.03393434	0.02657897	0	0	0	0	0	0
32.96687	-0.03393434	0.02657897	0	0	0	0	0	0
32.98343	-0.03393434	0.02657897	0	0	0	0	0	0
33	-0.03393434	0.02657897	0	0	0	0	0	0
33.01657	-0.03393434	0.02657897	0	0	0	0	0	0
33.03313	-0.03396062	0.02659765	-0.00158697	0.001127703	-0.04790037	0.03403805	0	0
33.0497	-0.03396062	0.02659765	0	0	0.04790037	-0.03403805	0	0
33.06626	-0.03396062	0.02659765	0	0	0	0	0	0
33.08283	-0.03396062	0.02659765	0	0	0	0	0	0
33.09941	-0.03396062	0.02659765	0	0	0	0	0	0
33.11643	-0.03396062	0.02659765	0	0	0	0	0	0
33.13253	-0.03396062	0.02659765	0	0	0	0	0	0
33.14946	-0.03396062	0.02659765	0	0	0	0	0	0
33.16566	-0.03396062	0.02659765	0	0	0	0	0	0
33.18223	-0.03396062	0.02659765	0	0	0	0	0	0
33.1988	-0.03396062	0.02659765	0	0	0	0	0	0
33.2155	-0.03396062	0.02659765	0	0	0	0	0	0
33.23193	-0.03396062	0.02659765	0	0	0	0	0	0
33.24852	-0.03396062	0.02659765	0	0	0	0	0	0
33.26507	-0.03396062	0.02659765	0	0	0	0	0	0
33.28164	-0.03396062	0.02659765	0	0	0	0	0	0
33.2982	-0.03398691	0.02661633	-0.001586605	0.001127555	-0.04788383	0.03402968	0	0
33.31477	-0.03398691	0.02661633	0	0	0.04788383	-0.03402968	0	0
33.33134	-0.03398691	0.02661633	0	0	0	0	0	0
33.3479	-0.03398691	0.02661633	0	0	0	0	0	0
33.36447	-0.03398691	0.02661633	0	0	0	0	0	0
33.38112	-0.03398691	0.02661633	0	0	0	0	0	0
33.39763	-0.03398691	0.02661633	0	0	0	0	0	0
33.41417	-0.03398691	0.02661633	0	0	0	0	0	0
33.43074	-0.03398691	0.02661633	0	0	0	0	0	0
33.4473	-0.03398691	0.02661633	0	0	0	0	0	0
33.46387	-0.03398691	0.02661633	0	0	0	0	0	0
33.48069	-0.03398691	0.02661633	0	0	0	0	0	0
33.4972	-0.03398691	0.02661633	0	0	0	0	0	0
33.51371	-0.03396062	0.02659765	0.001591736	-0.001131202	0.04819404	-0.03425015	0	0
33.53014	-0.03396062	0.02659765	0	0	-0.04832241	0.03434138	0	0
33.54676	-0.03396062	0.02659765	0	0	0	0	0	0
33.582	-0.03396062	0.02659765	0	0	0	0	0	0
33.59857	-0.03396062	0.02659765	0	0	0	0	0	0
33.61514	-0.03396062	0.02659765	0	0	0	0	0	0
33.6317	-0.03396062	0.02659765	0	0	0	0	0	0
33.64831	-0.03396062	0.02659765	0	0	0	0	0	0
33.66484	-0.03396062	0.02659765	0	0	0	0	0	0
33.6814	-0.03396062	0.02659765	0	0	0	0	0	0
33.69797	-0.03393434	0.02661633	0.001586605	0.001127555	0.04788934	0.0340336	0	0
33.71453	-0.03396062	0.02674708	-0.001586605	0.007891987	-0.09576766	0.204151	0	0
33.7311	-0.03396062	0.02693386	0	0.01127387	0.04788383	0.1020653	0	0
33.74767	-0.03396062	0.02727003	0	0.02029139	0	0.2721493	0	0
33.76439	-0.03403948	0.02773689	-0.0047153	0.0279159	-0.1416395	0.2290272	0	0
33.7808	-0.03296174	0.02943573	0.06567235	0.1035197	2.124304	2.281728	0	0
33.79742	-0.0309112	0.03204778	0.1234296	0.1572294	1.748958	1.626391	0	0
33.81394	-0.02917593	0.03819741	0.1050315	0.3722209	-0.5552559	6.488459	0	0
33.83051	-0.02962291	0.05237765	-0.02697982	0.855921	-3.989622	14.61829	0	0
