Time	Pos X	Pos Y	Vel X	Vel Y	Acc X	Acc YForce X	Force Y
0.01656673	-0.01912924	-0.1223932	0.0003097891	0.0019821	-5.018236E-06	-3.210779E-05	0	0
0.04891227	-0.01915555	-0.1224128	-0.000813285	-0.0006074156	1.819719E-05	4.195797E-05	0	0
0.06548216	-0.01915555	-0.1224128	0	0	0.01662635	0.01241767	0	0
0.08212785	-0.01915555	-0.1224128	0	0	0	0	0	0
0.09861405	-0.01915555	-0.1224128	0	0	0	0	0	0
0.1151812	-0.01915555	-0.1224128	0	0	0	0	0	0
0.1317475	-0.01915555	-0.1224128	0	0	0	0	0	0
0.1486462	-0.01915555	-0.1224128	0	0	0	0	0	0
0.1648822	-0.01915555	-0.1224128	0	0	0	0	0	0
0.1816715	-0.01915555	-0.1224128	0	0	0	0	0	0
0.198183	-0.01915555	-0.1224128	0	0	0	0	0	0
0.2145808	-0.01915555	-0.1224128	0	0	0	0	0	0
0.2311467	-0.01915555	-0.1224128	0	0	0	0	0	0
0.2477186	-0.01915555	-0.1224128	0	0	0	0	0	0
0.2642822	-0.01915555	-0.1224128	0	0	0	0	0	0
0.2812437	-0.01915555	-0.1224128	0	0	0	0	0	0
0.2977567	-0.01918186	-0.1224325	-0.001593051	-0.001189797	-0.04758995	-0.03554336	0	0
0.3968176	-0.01918186	-0.1224325	0	0	0.01378383	0.01029468	0	0
0.4134057	-0.01918186	-0.1224325	0	0	0	0	0	0
0.4299491	-0.01918186	-0.1224325	0	0	0	0	0	0
0.4465167	-0.01918186	-0.1224325	0	0	0	0	0	0
0.4630798	-0.01918186	-0.1224325	0	0	0	0	0	0
0.4798834	-0.01918186	-0.1224718	0	-0.00233845	0	-0.07008321	0	0
0.4962133	-0.01918186	-0.1224325	0	0.002406285	0	0.1432007	0	0
0.5129076	-0.01918186	-0.1224325	0	0	0	-0.07286446	0	0
0.5299164	-0.01918186	-0.1224325	0	0	0	0	0	0
0.5459309	-0.01918186	-0.1224325	0	0	0	0	0	0
0.5705313	-0.01918186	-0.1224325	0	0	0	0	0	0
0.5871016	-0.01918186	-0.1224325	0	0	0	0	0	0
0.6036679	-0.01918186	-0.1224325	0	0	0	0	0	0
0.6202347	-0.01918186	-0.1224325	0	0	0	0	0	0
0.6368014	-0.01918186	-0.1224325	0	0	0	0	0	0
0.6533685	-0.01918186	-0.1224325	0	0	0	0	0	0
0.6699345	-0.01918186	-0.1224325	0	0	0	0	0	0
0.6865016	-0.01918186	-0.1224325	0	0	0	0	0	0
0.7030679	-0.01918186	-0.1224325	0	0	0	0	0	0
0.7196342	-0.01918186	-0.1224325	0	0	0	0	0	0
0.7365665	-0.01918186	-0.1224325	0	0	0	0	0	0
0.7530784	-0.01918186	-0.1224325	0	0	0	0	0	0
0.7693337	-0.01918186	-0.1224325	0	0	0	0	0	0
0.7861021	-0.01918186	-0.1224325	0	0	0	0	0	0
0.8026116	-0.01918186	-0.1224325	0	0	0	0	0	0
0.8190354	-0.01918186	-0.1224325	0	0	0	0	0	0
0.8356017	-0.01918186	-0.1224325	0	0	0	0	0	0
0.8521681	-0.01918186	-0.1224325	0	0	0	0	0	0
0.8687332	-0.01918186	-0.1224325	0	0	0	0	0	0
0.8853012	-0.01918186	-0.1224325	0	0	0	0	0	0
0.9018691	-0.01918186	-0.1224325	0	0	0	0	0	0
0.918435	-0.01918186	-0.1224325	0	0	0	0	0	0
0.9350014	-0.01918186	-0.1224325	0	0	0	0	0	0
0.9515657	-0.01915555	-0.1224521	0.001588116	-0.001186111	0.04793486	-0.03580096	0	0
0.9681321	-0.01918186	-0.1224718	-0.001587927	-0.00118597	-0.09586404	4.251722E-06	0	0
0.9846996	-0.01918186	-0.1224718	0	0	0.0479246	0.03579329	0	0
1.001266	-0.01915555	-0.1224914	0.001587967	-0.001186	0.04792641	-0.03579465	0	0
1.017833	-0.01915555	-0.1224914	0	0	-0.04792581	0.0357942	0	0
1.034399	-0.01915555	-0.1224914	0	0	0	0	0	0
1.084306	-0.01915555	-0.1224914	0	0	0	0	0	0
1.100666	-0.01915555	-0.1224914	0	0	0	0	0	0
1.117233	-0.01915555	-0.1224914	0	0	0	0	0	0
1.133799	-0.01915555	-0.1224914	0	0	0	0	0	0
1.150365	-0.01915555	-0.1224914	0	0	0	0	0	0
1.166932	-0.01915555	-0.1224914	0	0	0	0	0	0
1.183499	-0.01915555	-0.1224914	0	0	0	0	0	0
1.200066	-0.01915555	-0.1224914	0	0	0	0	0	0
1.216633	-0.01915555	-0.1224914	0	0	0	0	0	0
1.233199	-0.01915555	-0.1224914	0	0	0	0	0	0
1.249765	-0.01915555	-0.1224914	0	0	0	0	0	0
1.266332	-0.01915555	-0.1224914	0	0	0	0	0	0
1.282899	-0.01915555	-0.1224914	0	0	0	0	0	0
1.305548	-0.01915555	-0.1224914	0	0	0	0	0	0
1.322117	-0.01915555	-0.1224914	0	0	0	0	0	0
1.338985	-0.01915555	-0.1224914	0	0	0	0	0	0
1.355249	-0.01915555	-0.1224914	0	0	0	0	0	0
1.371817	-0.01915555	-0.1224914	0	0	0	0	0	0
1.388527	-0.01915555	-0.1224914	0	0	0	0	0	0
1.405033	-0.01915555	-0.1224914	0	0	0	0	0	0
1.42152	-0.01915555	-0.1224914	0	0	0	0	0	0
1.438083	-0.01915555	-0.1224914	0	0	0	0	0	0
1.454649	-0.01915555	-0.1224914	0	0	0	0	0	0
1.47158	-0.01915555	-0.1224914	0	0	0	0	0	0
1.487782	-0.01915555	-0.1224914	0	0	0	0	0	0
1.504349	-0.01915555	-0.1224914	0	0	0	0	0	0
1.52112	-0.01915555	-0.1224914	0	0	0	0	0	0
1.537483	-0.01915555	-0.1224914	0	0	0	0	0	0
1.554049	-0.01915555	-0.1224914	0	0	0	0	0	0
1.570648	-0.01915555	-0.1224914	0	0	0	0	0	0
1.587182	-0.01915555	-0.1224914	0	0	0	0	0	0
1.603748	-0.01915555	-0.1224914	0	0	0	0	0	0
1.620316	-0.01915555	-0.1224914	0	0	0	0	0	0
1.636885	-0.01915555	-0.1224914	0	0	0	0	0	0
1.653449	-0.01915555	-0.1224914	0	0	0	0	0	0
1.670219	-0.01915555	-0.1224914	0	0	0	0	0	0
1.703148	-0.01915555	-0.1224914	0	0	0	0	0	0
1.719716	-0.01915555	-0.1224914	0	0	0	0	0	0
1.736285	-0.01915555	-0.1224914	0	0	0	0	0	0
1.752849	-0.01915555	-0.1224914	0	0	0	0	0	0
1.769789	-0.01915555	-0.1224914	0	0	0	0	0	0
1.785982	-0.01915555	-0.1224914	0	0	0	0	0	0
1.802813	-0.01915555	-0.1224914	0	0	0	0	0	0
1.819116	-0.01915555	-0.1224914	0	0	0	0	0	0
1.835683	-0.01915555	-0.1224914	0	0	0	0	0	0
1.852249	-0.01915555	-0.1224914	0	0	0	0	0	0
1.868815	-0.01915555	-0.1224914	0	0	0	0	0	0
1.885383	-0.01918186	-0.1225111	-0.001587819	-0.001185889	-0.04792133	-0.03579085	0	0
1.901951	-0.01918186	-0.1225111	0	0	0.04791908	0.03578917	0	0
1.918895	-0.01915555	-0.1224914	0.001552518	0.001159525	0.04632708	0.03460016	0	0
1.93541	-0.01915555	-0.1224914	0	0	-0.04640086	-0.03465527	0	0
1.951918	-0.01918186	-0.1225111	-0.001593506	-0.001190137	-0.04825442	-0.03603963	0	0
1.968216	-0.01915555	-0.1225307	0.001614078	-0.001205501	0.09777347	-0.0004683401	0	0
1.984782	-0.01915555	-0.1225307	0	0	-0.04911407	0.03668167	0	0
2.001464	-0.01915555	-0.1225307	0	0	0	0	0	0
2.017964	-0.01915555	-0.1225307	0	0	0	0	0	0
2.034978	-0.01915555	-0.1225307	0	0	0	0	0	0
2.074073	-0.01915555	-0.1225307	0	0	0	0	0	0
2.090641	-0.01915555	-0.1225307	0	0	0	0	0	0
2.107209	-0.01915555	-0.1225307	0	0	0	0	0	0
2.185047	-0.01918186	-0.1225504	-0.0003379572	-0.0002525047	-0.003579805	-0.002674651	0	0
2.201614	-0.01918186	-0.1225504	0	0	0.00357985	0.002674685	0	0
2.218181	-0.01918186	-0.1225504	0	0	0	0	0	0
2.234749	-0.01918186	-0.1225504	0	0	0	0	0	0
2.251314	-0.01918186	-0.1225504	0	0	0	0	0	0
2.268141	-0.01918186	-0.1225504	0	0	0	0	0	0
2.284447	-0.01918186	-0.1225504	0	0	0	0	0	0
2.301015	-0.01918186	-0.1225504	0	0	0	0	0	0
2.317676	-0.01918186	-0.1225504	0	0	0	0	0	0
2.334148	-0.01918186	-0.1225504	0	0	0	0	0	0
2.350715	-0.01918186	-0.1225504	0	0	0	0	0	0
2.367281	-0.01918186	-0.1225504	0	0	0	0	0	0
2.383848	-0.01918186	-0.1225504	0	0	0	0	0	0
2.400415	-0.01918186	-0.1225504	0	0	0	0	0	0
2.416983	-0.01918186	-0.1225504	0	0	0	0	0	0
2.433548	-0.01918186	-0.1225504	0	0	0	0	0	0
2.450116	-0.01918186	-0.1225504	0	0	0	0	0	0
2.466681	-0.01918186	-0.1225504	0	0	0	0	0	0
2.483292	-0.01918186	-0.1225504	0	0	0	0	0	0
2.499815	-0.01918186	-0.1225504	0	0	0	0	0	0
2.516382	-0.01918186	-0.1225504	0	0	0	0	0	0
2.532948	-0.01918186	-0.1225504	0	0	0	0	0	0
2.549516	-0.01918186	-0.1225504	0	0	0	0	0	0
2.566352	-0.01918186	-0.1225504	0	0	0	0	0	0
2.582648	-0.01918186	-0.1225504	0	0	0	0	0	0
2.599377	-0.01918186	-0.1225504	0	0	0	0	0	0
2.615782	-0.01918186	-0.1225504	0	0	0	0	0	0
2.632398	-0.01918186	-0.1225504	0	0	0	0	0	0
2.648916	-0.01918186	-0.1225504	0	0	0	0	0	0
2.665481	-0.01918186	-0.1225504	0	0	0	0	0	0
2.682048	-0.01918186	-0.1225504	0	0	0	0	0	0
2.698614	-0.01918186	-0.1225504	0	0	0	0	0	0
2.715182	-0.01918186	-0.1225504	0	0	0	0	0	0
2.731969	-0.01918186	-0.1225504	0	0	0	0	0	0
2.764881	-0.01918186	-0.1225504	0	0	0	0	0	0
2.781503	-0.01918186	-0.1225504	0	0	0	0	0	0
2.798016	-0.01918186	-0.1225504	0	0	0	0	0	0
2.814582	-0.01918186	-0.1225504	0	0	0	0	0	0
2.831539	-0.01918186	-0.1225504	0	0	0	0	0	0
2.848053	-0.01918186	-0.1225504	0	0	0	0	0	0
2.864281	-0.01918186	-0.1225504	0	0	0	0	0	0
2.881074	-0.01918186	-0.1225504	0	0	0	0	0	0
2.897417	-0.01918186	-0.1225504	0	0	0	0	0	0
2.913982	-0.01918186	-0.1225504	0	0	0	0	0	0
3.001881	-0.01918186	-0.1225504	0	0	0	0	0	0
3.01845	-0.01918186	-0.1225504	0	0	0	0	0	0
3.035185	-0.01918186	-0.1225504	0	0	0	0	0	0
3.051581	-0.01918186	-0.1225504	0	0	0	0	0	0
3.068208	-0.01918186	-0.1225504	0	0	0	0	0	0
3.084716	-0.01918186	-0.1225111	0	0.002380793	0	0.07185145	0	0
3.101281	-0.01907663	-0.1223539	0.006352189	0.009488478	0.192066	0.2149093	0	0
3.117848	-0.01841897	-0.1218235	0.03969889	0.03201771	1.0065	0.6799972	0	0
3.134414	-0.01142056	-0.1166431	0.4224372	0.3126956	11.55156	8.471242	0	0
3.150981	-0.0006578946	-0.1086384	0.6496729	0.4831958	6.858283	5.145927	0	0
3.167778	0.008289284	-0.1021199	0.5326405	0.3880527	-3.507739	-2.851665	0	0
3.184114	0.02870264	-0.08723142	1.249614	0.9114088	21.63894	15.79538	0	0
3.200681	0.04512724	-0.07541448	0.991419	0.7132925	-7.847291	-6.021318	0	0
3.217313	0.06765972	-0.06065143	1.35478	0.8876375	10.94507	5.251576	0	0
3.233815	0.08863557	-0.05401672	1.271117	0.4020572	-2.525008	-14.65516	0	0
3.250412	0.1226964	-0.0516618	2.052251	0.1418903	23.60014	-7.860336	0	0
3.266948	0.1481435	-0.05068593	1.538827	0.05901254	-15.4956	-2.501327	0	0
3.283514	0.1710234	-0.04969125	1.381111	0.06004215	-4.764408	0.03110337	0	0
3.300081	0.1904782	-0.04842927	1.174331	0.07617587	-6.240908	0.4869376	0	0
3.316882	0.2131592	-0.04331037	1.349986	0.3046804	5.264233	6.848089	0	0
3.333215	0.2196607	-0.04027757	0.3980689	0.1856897	-28.72974	-3.591251	0	0
3.349781	0.2272428	-0.03477293	0.4576884	0.3322843	1.812216	4.455945	0	0
3.366349	0.235545	-0.02848051	0.5010864	0.3797841	1.309755	1.433547	0	0
3.382914	0.2405155	-0.02464672	0.300061	0.2314382	-6.067134	-4.477218	0	0
3.399481	0.2428227	-0.02288324	0.1392664	0.1064469	-4.853176	-3.772543	0	0
3.416049	0.2429715	-0.02280741	0.008978681	0.004576694	-3.932062	-3.074427	0	0
3.432615	0.2430954	-0.02290219	0.007482945	-0.005721498	-0.04514203	-0.3108045	0	0
3.449181	0.2431202	-0.02292115	0.001496747	-0.001144373	-0.1806755	0.1381468	0	0
3.465749	0.2432194	-0.02299698	0.005984847	-0.004577004	0.135455	-0.1036	0	0
3.482315	0.243269	-0.02303489	0.002992595	-0.002288746	-0.09030892	0.06906175	0	0
3.499012	0.2432937	-0.02305385	0.001485057	-0.001135435	-0.04532183	0.03467254	0	0
3.515448	0.2432937	-0.02309177	0	-0.002306807	-0.04482071	-0.03535335	0	0
3.532015	0.2433185	-0.02311073	0.001495762	-0.001144307	0.04532089	0.03522319	0	0
3.548582	0.2433185	-0.02311073	0	0	-0.04514349	0.03453626	0	0
3.565149	0.2433185	-0.02311073	0	0	0	0	0	0
3.581715	0.2433185	-0.02311073	0	0	0	0	0	0
3.598283	0.2432937	-0.02309177	-0.001495697	0.001144258	-0.04514088	0.03453427	0	0
3.614848	0.243269	-0.02311073	-0.001496855	-0.001144456	-3.4946E-05	-0.06907649	0	0
3.631416	0.2432194	-0.02311073	-0.00299238	0	-0.04513763	0.03454173	0	0
3.648116	0.2432194	-0.02311073	0	0	0.08994842	0	0	0
3.664632	0.2431698	-0.02311073	-0.003001754	0	-0.09037072	0	0	0
3.714248	0.2429963	-0.0231676	-0.003497617	-0.001146276	-0.007498067	-0.01733313	0	0
3.730816	0.2427731	-0.02333823	-0.01346808	-0.01029859	-0.150646	-0.1382843	0	0
3.747382	0.242302	-0.02366056	-0.02844213	-0.01945788	-0.4519241	-0.2764321	0	0
3.763949	0.2419299	-0.023945	-0.02245776	-0.01716904	0.1806202	0.06908193	0	0
3.780712	0.2410367	-0.02462775	-0.05328265	-0.04072969	-0.9248468	-0.7068962	0	0
3.797082	0.2410367	-0.02462775	0	0	1.608143	1.229278	0	0
3.81896	0.2410119	-0.02460878	-0.001134704	0.0008669488	-0.02966679	0.02266634	0	0
3.835753	0.2410119	-0.02460878	0	0	0.02934214	-0.02241829	0	0
3.852261	0.2410119	-0.02460878	0	0	0	0	0	0
3.868661	0.2410119	-0.02460878	0	0	0	0	0	0
3.902304	0.2410367	-0.02462775	0.00073791	-0.0005637858	0.01474542	-0.01126595	0	0
3.919938	0.2410367	-0.02462775	0	0	-0.01439088	0.01099508	0	0
3.936824	0.2410367	-0.02462775	0	0	0	0	0	0
3.953071	0.2410367	-0.02462775	0	0	0	0	0	0
3.969639	0.2410367	-0.02462775	0	0	0	0	0	0
3.986206	0.2410367	-0.02462775	0	0	0	0	0	0
4.002867	0.2410367	-0.02462775	0	0	0	0	0	0
4.019338	0.2410367	-0.02462775	0	0	0	0	0	0
4.035904	0.2410367	-0.02462775	0	0	0	0	0	0
4.052471	0.2410119	-0.02460878	-0.001498503	0.001144902	-0.04522687	0.03455472	0	0
4.069038	0.2410119	-0.02460878	0	0	0.04522557	-0.03455372	0	0
4.085929	0.2410119	-0.02460878	0	0	0	0	0	0
4.102171	0.2410119	-0.02460878	0	0	0	0	0	0
4.11895	0.2410119	-0.02460878	0	0	0	0	0	0
4.135461	0.2410119	-0.02460878	0	0	0	0	0	0
4.151871	0.2410119	-0.02460878	0	0	0	0	0	0
4.168485	0.2410119	-0.02460878	0	0	0	0	0	0
4.185004	0.2410119	-0.02460878	0	0	0	0	0	0
4.201571	0.2409871	-0.02458981	-0.001497604	0.001144902	-0.04526421	0.03460402	0	0
4.218138	0.2409623	-0.02460878	-0.001498503	-0.001144902	-2.714548E-05	-0.06910843	0	0
4.235033	0.2409623	-0.02460878	0	0	0.04478281	0.03421544	0	0
4.251543	0.2409623	-0.02460878	0	0	0	0	0	0
4.267838	0.2409126	-0.02460878	-0.003045992	0	-0.09285022	0	0	0
4.284405	0.240863	-0.02460878	-0.002996107	0	0.001518017	0	0	0
4.300972	0.2406644	-0.02453291	-0.01198533	0.004579497	-0.271303	0.1382135	0	0
4.31759	0.2394975	-0.02409671	-0.07021656	0.02624793	-1.75472	0.6529493	0	0
4.334105	0.2357689	-0.02212506	-0.2257809	0.1193905	-4.695143	2.81117	0	0
4.350672	0.2286911	-0.01958648	-0.4272036	0.1532244	-6.088588	1.022727	0	0
4.367238	0.2133854	-0.01956754	-0.9239619	0.001143202	-14.99284	-4.590017	0	0
4.383805	0.1932423	-0.02081762	-1.215803	-0.07545285	-8.808151	-2.311773	0	0
4.400372	0.1623223	-0.02314864	-1.866444	-0.1407088	-19.63668	-1.969456	0	0
4.41694	0.1378569	-0.02487434	-1.47661	-0.104154	11.76503	1.103209	0	0
4.433505	0.113458	-0.0263163	-1.472972	-0.08705232	0.1098187	0.5161521	0	0
4.450072	0.08158168	-0.02804375	-1.924059	-0.104269	-13.61501	-0.5196458	0	0
4.466695	0.05948238	-0.02925923	-1.329401	-0.07311843	17.91637	0.9385328	0	0
4.483205	0.03871748	-0.03038019	-1.257716	-0.06789523	2.163544	0.1576408	0	0
4.499772	0.01510411	-0.03254725	-1.425347	-0.1308078	-5.067939	-1.902018	0	0
4.522933	-0.005499945	-0.03709546	-0.8895857	-0.1963705	13.48567	-1.650282	0	0
4.539747	-0.01134162	-0.03968662	-0.3474441	-0.1541139	13.56212	1.057085	0	0
4.55626	-0.01986581	-0.04605972	-0.5161999	-0.3859361	-5.063692	-6.956066	0	0
4.572671	-0.02323266	-0.04854397	-0.2051546	-0.1513741	9.447186	7.124203	0	0
4.589205	-0.02943886	-0.0530975	-0.3753632	-0.2754067	-5.166424	-3.764821	0	0
4.605769	-0.03451261	-0.05679531	-0.3063135	-0.2232452	2.086235	1.575986	0	0
4.622335	-0.03958457	-0.06042107	-0.3061622	-0.218864	0.004567927	0.1322405	0	0
4.638903	-0.04423428	-0.06370549	-0.280649	-0.1982421	0.7700019	0.6223795	0	0
4.655471	-0.04741181	-0.06603184	-0.1917904	-0.140415	2.681679	1.745176	0	0
4.672037	-0.04775314	-0.0662819	-0.02060471	-0.01509474	5.166543	3.782281	0	0
4.688604	-0.04775314	-0.06624343	0	0.002322277	0.6218692	0.5256616	0	0
4.705369	-0.04772689	-0.06622419	0.001566144	0.001147498	0.04698572	-0.03524439	0	0
4.721735	-0.04767437	-0.06618572	0.003208718	0.002350374	0.04957796	0.0363065	0	0
4.804942	-0.04738555	-0.06612802	0.003471113	0.0006935152	0.002635214	-0.01663969	0	0
4.821139	-0.04733304	-0.06616648	0.003242252	-0.002374938	-0.002302345	-0.0308687	0	0
4.837702	-0.04730678	-0.06618572	0.001585171	-0.001161439	-0.05058149	0.03704137	0	0
4.854269	-0.04720176	-0.06622419	0.006339632	-0.002321961	0.1435085	-0.03502915	0	0
4.870982	-0.04707047	-0.06624343	0.007855521	-0.001151067	0.04555035	0.03518371	0	0
4.887401	-0.04686041	-0.06620496	0.0127935	0.002342797	0.1490391	0.1054526	0	0
4.904019	-0.04562621	-0.06541643	0.07426986	0.04745113	1.860823	1.365381	0	0
4.920536	-0.04565247	-0.06543566	-0.001589836	-0.00116424	-2.289417	-1.467194	0	0
4.937104	-0.04565247	-0.06543566	0	0	0.04805325	0.03518951	0	0
4.953669	-0.04562621	-0.06541643	0.001585259	0.001160889	0.04784597	0.03503772	0	0
4.970236	-0.04562621	-0.06541643	0	0	-0.04784665	-0.03503822	0	0
4.987078	-0.04544238	-0.06528182	0.01091494	0.00799255	0.3267054	0.2392326	0	0
5.003368	-0.04536359	-0.06522413	0.004836418	0.003540929	-0.1834633	-0.1343599	0	0
5.019935	-0.04452319	-0.06460889	0.05072852	0.03713743	1.396725	1.022508	0	0
5.036501	-0.04347259	-0.0639169	0.0634177	0.04177086	0.3829769	0.1398432	0	0
5.05311	-0.04118722	-0.06239895	0.1376008	0.09139466	2.236115	1.495819	0	0
5.069635	-0.03653637	-0.05930792	0.2814389	0.1870489	4.341105	2.886893	0	0
5.086201	-0.03138443	-0.05627771	0.3109985	0.1829192	0.8932798	-0.1247974	0	0
5.102768	-0.02946515	-0.05507036	0.1158476	0.07287634	-5.889921	-3.321244	0	0
5.135901	-0.02533668	-0.05244656	0.1246029	0.07918964	0.1761624	0.1270275	0	0
5.152469	-0.02533668	-0.05244656	0	0	-2.507063	-1.593329	0	0
5.169034	-0.02536298	-0.05246571	-0.001587575	-0.001155683	-0.04791517	-0.0348801	0	0
5.185601	-0.02538928	-0.05248485	-0.001587438	-0.001155584	4.139108E-06	3.011219E-06	0	0
5.202215	-0.02541558	-0.05250399	-0.001582882	-0.001152043	0.0001373076	0.0001067102	0	0
5.218735	-0.02544188	-0.05248485	-0.001591974	0.00115866	-0.0002744127	0.06973816	0	0
5.2353	-0.02544188	-0.05248485	0	0	0.04811788	-0.03502085	0	0
5.251867	-0.02544188	-0.05248485	0	0	0	0	0	0
5.274876	-0.02546818	-0.05250399	-0.001142983	-0.0008318783	-0.02888101	-0.02101999	0	0
5.291443	-0.02552077	-0.05258057	-0.003174692	-0.004622068	-0.05133622	-0.09576862	0	0
5.308011	-0.02567857	-0.05269543	-0.009524351	-0.006933301	-0.1916303	-0.06975216	0	0
5.324801	-0.02612563	-0.05305921	-0.02662569	-0.02166503	-0.5126593	-0.4416237	0	0
5.341144	-0.02623083	-0.0531358	-0.006436599	-0.004686406	0.6093254	0.5124305	0	0
5.357711	-0.02620453	-0.05315495	0.001587438	-0.001155808	0.2438221	0.1072824	0	0
5.374278	-0.02620453	-0.05315495	0	0	-0.04790965	0.03488287	0	0
5.390846	-0.02623083	-0.05317409	-0.001587346	-0.001155742	-0.04790551	-0.03487986	0	0
5.407412	-0.02623083	-0.05317409	0	0	0.04790689	0.03488086	0	0
5.42398	-0.02623083	-0.05317409	0	0	0	0	0	0
5.440885	-0.02625712	-0.05319324	-0.00155558	-0.001132693	-0.04647333	-0.03383949	0	0
5.473679	-0.02633601	-0.05328899	-0.002405659	-0.002919507	-0.01710444	-0.03595247	0	0
5.490245	-0.02636231	-0.05330813	-0.001587529	-0.001155875	0.01657467	0.03572978	0	0
5.506932	-0.02636231	-0.05330813	0	0	0.04774133	0.03476031	0	0
5.523379	-0.02638861	-0.05332728	-0.001598876	-0.001164219	-0.04825487	-0.03513671	0	0
5.539954	-0.02641491	-0.05334643	-0.001586503	-0.00115521	0.0003746841	0.0002728263	0	0
5.55651	-0.02644121	-0.05336558	-0.001588443	-0.001156766	-5.855974E-05	-4.696093E-05	0	0
5.573478	-0.0264938	-0.05340388	-0.00309962	-0.002256983	-0.0450774	-0.03281877	0	0
5.589646	-0.0265201	-0.05342303	-0.001626625	-0.001184571	0.0444538	0.03236454	0	0
5.606212	-0.02654639	-0.05344218	-0.001587417	-0.001155875	0.001197807	0.0008766578	0	0
5.622778	-0.02654639	-0.05348048	0	-0.002311842	0.04791108	-0.03488915	0	0
5.639523	-0.02659899	-0.05348048	-0.003140929	0	-0.09429002	0.06940098	0	0
5.65591	-0.02662528	-0.05353793	-0.001604692	-0.003505816	0.04636708	-0.1058133	0	0
5.672479	-0.02665158	-0.05355708	-0.001587142	-0.001155675	0.0005325003	0.07131121	0	0
5.689044	-0.02667788	-0.05357623	-0.001587575	-0.001156133	-1.304552E-05	-1.381497E-05	0	0
5.705612	-0.02667788	-0.05357623	0	0	0.04791586	0.03489417	0	0
5.722177	-0.02667788	-0.05357623	0	0	0	0	0	0
5.738748	-0.02667788	-0.05357623	0	0	0	0	0	0
5.771886	-0.02667788	-0.05357623	0	0	0	0	0	0
5.788644	-0.02667788	-0.05357623	0	0	0	0	0	0
5.80501	-0.02667788	-0.05357623	0	0	0	0	0	0
5.821579	-0.02667788	-0.05357623	0	0	0	0	0	0
5.838146	-0.02667788	-0.05357623	0	0	0	0	0	0
5.855176	-0.02667788	-0.05357623	0	0	0	0	0	0
5.871276	-0.02667788	-0.05357623	0	0	0	0	0	0
5.887845	-0.02667788	-0.05357623	0	0	0	0	0	0
5.904413	-0.02667788	-0.05357623	0	0	0	0	0	0
5.920977	-0.02667788	-0.05357623	0	0	0	0	0	0
5.93774	-0.02667788	-0.05357623	0	0	0	0	0	0
5.954113	-0.02667788	-0.05357623	0	0	0	0	0	0
5.970678	-0.02667788	-0.05357623	0	0	0	0	0	0
5.987243	-0.02667788	-0.05357623	0	0	0	0	0	0
6.003809	-0.02667788	-0.05357623	0	0	0	0	0	0
6.020377	-0.02667788	-0.05357623	0	0	0	0	0	0
6.036946	-0.02667788	-0.05357623	0	0	0	0	0	0
6.070077	-0.02667788	-0.05357623	0	0	0	0	0	0
6.086643	-0.02667788	-0.05357623	0	0	0	0	0	0
6.122118	-0.02667788	-0.05357623	0	0	0	0	0	0
6.138686	-0.02667788	-0.05357623	0	0	0	0	0	0
6.155252	-0.02667788	-0.05357623	0	0	0	0	0	0
6.171902	-0.02667788	-0.05357623	0	0	0	0	0	0
6.188388	-0.02667788	-0.05357623	0	0	0	0	0	0
6.204954	-0.02667788	-0.05357623	0	0	0	0	0	0
6.264633	-0.02667788	-0.05357623	0	0	0	0	0	0
6.2812	-0.02667788	-0.05357623	0	0	0	0	0	0
6.297768	-0.02667788	-0.05357623	0	0	0	0	0	0
6.314499	-0.02667788	-0.05357623	0	0	0	0	0	0
6.364034	-0.02667788	-0.05357623	0	0	0	0	0	0
6.3806	-0.02667788	-0.05357623	0	0	0	0	0	0
6.397561	-0.02667788	-0.05357623	0	0	0	0	0	0
6.413734	-0.02667788	-0.05357623	0	0	0	0	0	0
6.430585	-0.02667788	-0.05357623	0	0	0	0	0	0
6.446867	-0.02667788	-0.05357623	0	0	0	0	0	0
6.463433	-0.02667788	-0.05357623	0	0	0	0	0	0
6.48	-0.02667788	-0.05357623	0	0	0	0	0	0
6.496627	-0.02667788	-0.05357623	0	0	0	0	0	0
6.513133	-0.02667788	-0.05357623	0	0	0	0	0	0
6.5297	-0.02667788	-0.05357623	0	0	0	0	0	0
6.546268	-0.02667788	-0.05357623	0	0	0	0	0	0
6.562833	-0.02667788	-0.05357623	0	0	0	0	0	0
6.5794	-0.02667788	-0.05357623	0	0	0	0	0	0
6.595967	-0.02667788	-0.05357623	0	0	0	0	0	0
6.645734	-0.02667788	-0.05357623	0	0	0	0	0	0
6.662233	-0.02667788	-0.05357623	0	0	0	0	0	0
6.6788	-0.02667788	-0.05357623	0	0	0	0	0	0
6.695367	-0.02667788	-0.05357623	0	0	0	0	0	0
6.711933	-0.02667788	-0.05357623	0	0	0	0	0	0
6.728793	-0.02667788	-0.05357623	0	0	0	0	0	0
6.745305	-0.02667788	-0.05357623	0	0	0	0	0	0
6.761814	-0.02667788	-0.05357623	0	0	0	0	0	0
6.778199	-0.02667788	-0.05357623	0	0	0	0	0	0
6.794766	-0.02667788	-0.05357623	0	0	0	0	0	0
6.811348	-0.02667788	-0.05357623	0	0	0	0	0	0
6.8279	-0.02667788	-0.05357623	0	0	0	0	0	0
6.844466	-0.02667788	-0.05357623	0	0	0	0	0	0
6.86615	-0.02667788	-0.05357623	0	0	0	0	0	0
6.8829	-0.02667788	-0.05357623	0	0	0	0	0	0
6.899415	-0.02667788	-0.05357623	0	0	0	0	0	0
6.915929	-0.02667788	-0.05357623	0	0	0	0	0	0
6.932419	-0.02667788	-0.05357623	0	0	0	0	0	0
6.948985	-0.02667788	-0.05357623	0	0	0	0	0	0
6.965551	-0.02667788	-0.05357623	0	0	0	0	0	0
6.982118	-0.02667788	-0.05357623	0	0	0	0	0	0
6.998983	-0.02667788	-0.05357623	0	0	0	0	0	0
7.015252	-0.02667788	-0.05357623	0	0	0	0	0	0
7.031819	-0.02667788	-0.05357623	0	0	0	0	0	0
7.048517	-0.02667788	-0.05357623	0	0	0	0	0	0
7.064952	-0.02667788	-0.05357623	0	0	0	0	0	0
7.081541	-0.02667788	-0.05357623	0	0	0	0	0	0
7.098085	-0.02667788	-0.05357623	0	0	0	0	0	0
7.114653	-0.02667788	-0.05357623	0	0	0	0	0	0
7.131576	-0.02667788	-0.05357623	0	0	0	0	0	0
7.148086	-0.02667788	-0.05357623	0	0	0	0	0	0
7.164352	-0.02667788	-0.05357623	0	0	0	0	0	0
7.181111	-0.02667788	-0.05357623	0	0	0	0	0	0
7.197623	-0.02667788	-0.05357623	0	0	0	0	0	0
7.214137	-0.02667788	-0.05357623	0	0	0	0	0	0
7.230645	-0.02667788	-0.05357623	0	0	0	0	0	0
7.247185	-0.02667788	-0.05357623	0	0	0	0	0	0
7.263752	-0.02667788	-0.05357623	0	0	0	0	0	0
7.280318	-0.02667788	-0.05357623	0	0	0	0	0	0
7.296885	-0.02667788	-0.05357623	0	0	0	0	0	0
7.313452	-0.02667788	-0.05357623	0	0	0	0	0	0
7.330018	-0.02667788	-0.05357623	0	0	0	0	0	0
7.346585	-0.02667788	-0.05357623	0	0	0	0	0	0
7.363242	-0.02667788	-0.05357623	0	0	0	0	0	0
7.379751	-0.02667788	-0.05357623	0	0	0	0	0	0
7.396285	-0.02667788	-0.05357623	0	0	0	0	0	0
7.413275	-0.02667788	-0.05357623	0	0	0	0	0	0
7.429418	-0.02667788	-0.05357623	0	0	0	0	0	0
7.47933	-0.02667788	-0.05357623	0	0	0	0	0	0
7.528856	-0.02667788	-0.05357623	0	0	0	0	0	0
7.545385	-0.02667788	-0.05357623	0	0	0	0	0	0
7.561951	-0.02667788	-0.05357623	0	0	0	0	0	0
7.578517	-0.02667788	-0.05357623	0	0	0	0	0	0
7.595085	-0.02667788	-0.05357623	0	0	0	0	0	0
7.611652	-0.02667788	-0.05357623	0	0	0	0	0	0
7.628428	-0.02667788	-0.05357623	0	0	0	0	0	0
7.644785	-0.02667788	-0.05357623	0	0	0	0	0	0
7.666149	-0.02667788	-0.05357623	0	0	0	0	0	0
7.682965	-0.02667788	-0.05357623	0	0	0	0	0	0
7.699283	-0.02667788	-0.05357623	0	0	0	0	0	0
7.715997	-0.02667788	-0.05357623	0	0	0	0	0	0
7.732502	-0.02667788	-0.05357623	0	0	0	0	0	0
7.749014	-0.02667788	-0.05357623	0	0	0	0	0	0
7.76555	-0.02667788	-0.05357623	0	0	0	0	0	0
7.782117	-0.02667788	-0.05357623	0	0	0	0	0	0
7.798683	-0.02667788	-0.05357623	0	0	0	0	0	0
7.815249	-0.02667788	-0.05357623	0	0	0	0	0	0
7.831817	-0.02667788	-0.05357623	0	0	0	0	0	0
7.848384	-0.02667788	-0.05357623	0	0	0	0	0	0
7.86495	-0.02667788	-0.05357623	0	0	0	0	0	0
7.881607	-0.02667788	-0.05357623	0	0	0	0	0	0
7.898125	-0.02667788	-0.05357623	0	0	0	0	0	0
7.91465	-0.02667788	-0.05357623	0	0	0	0	0	0
7.931218	-0.02667788	-0.05357623	0	0	0	0	0	0
7.947783	-0.02667788	-0.05357623	0	0	0	0	0	0
7.96435	-0.02667788	-0.05357623	0	0	0	0	0	0
7.980917	-0.02667788	-0.05357623	0	0	0	0	0	0
7.997483	-0.02667788	-0.05357623	0	0	0	0	0	0
8.01405	-0.02667788	-0.05357623	0	0	0	0	0	0
8.030713	-0.02667788	-0.05357623	0	0	0	0	0	0
8.047183	-0.02667788	-0.05357623	0	0	0	0	0	0
8.063749	-0.02667788	-0.05357623	0	0	0	0	0	0
8.080316	-0.02667788	-0.05357623	0	0	0	0	0	0
8.096882	-0.02667788	-0.05357623	0	0	0	0	0	0
8.113449	-0.02667788	-0.05357623	0	0	0	0	0	0
8.130016	-0.02667788	-0.05357623	0	0	0	0	0	0
8.146582	-0.02667788	-0.05357623	0	0	0	0	0	0
8.163304	-0.02667788	-0.05357623	0	0	0	0	0	0
8.179816	-0.02667788	-0.05357623	0	0	0	0	0	0
8.196328	-0.02667788	-0.05357623	0	0	0	0	0	0
8.279384	-0.02667788	-0.05357623	0	0	0	0	0	0
8.295681	-0.02667788	-0.05357623	0	0	0	0	0	0
8.312247	-0.02667788	-0.05357623	0	0	0	0	0	0
8.328814	-0.02667788	-0.05357623	0	0	0	0	0	0
8.34538	-0.02667788	-0.05357623	0	0	0	0	0	0
8.361948	-0.02667788	-0.05357623	0	0	0	0	0	0
8.378513	-0.02667788	-0.05357623	0	0	0	0	0	0
8.395082	-0.02667788	-0.05357623	0	0	0	0	0	0
8.411648	-0.02667788	-0.05357623	0	0	0	0	0	0
8.428494	-0.02670418	-0.05359538	-0.001560952	-0.001136826	-0.046717	-0.03402353	0	0
8.451575	-0.02670418	-0.05359538	0	0	0.03909468	0.02847227	0	0
8.468144	-0.02670418	-0.05359538	0	0	0	0	0	0
8.48503	-0.02670418	-0.05359538	0	0	0	0	0	0
8.501277	-0.02670418	-0.05359538	0	0	0	0	0	0
8.517843	-0.02670418	-0.05359538	0	0	0	0	0	0
8.534564	-0.02670418	-0.05359538	0	0	0	0	0	0
8.551076	-0.02670418	-0.05359538	0	0	0	0	0	0
8.56759	-0.02670418	-0.05359538	0	0	0	0	0	0
8.584109	-0.02670418	-0.05359538	0	0	0	0	0	0
8.600677	-0.02670418	-0.05359538	0	0	0	0	0	0
8.617243	-0.02670418	-0.05359538	0	0	0	0	0	0
8.633809	-0.02673047	-0.05361453	-0.001587371	-0.001156067	-0.04791109	-0.03489317	0	0
8.650375	-0.02673047	-0.05361453	0	0	0.04790971	0.03489217	0	0
8.66716	-0.02673047	-0.05361453	0	0	0	0	0	0
8.683509	-0.02675677	-0.05363368	-0.001608483	-0.001171214	-0.0485455	-0.03534833	0	0
8.700077	-0.02680936	-0.05367198	-0.003174376	-0.002311867	-0.04757093	-0.03465236	0	0
8.716642	-0.02686196	-0.05371029	-0.003174925	-0.002312266	-1.654869E-05	-1.205138E-05	0	0
8.73321	-0.02694085	-0.05372944	-0.004761838	-0.001156	-0.04789591	0.03489819	0	0
8.749777	-0.02709863	-0.05384435	-0.009523564	-0.006936	-0.1437092	-0.1744407	0	0
8.766343	-0.02725641	-0.05392096	-0.009524113	-0.004624491	-1.655572E-05	0.06976347	0	0
8.782909	-0.02741418	-0.05399757	-0.009523888	-0.004624716	6.774266E-06	-6.774266E-06	0	0
8.799476	-0.02780862	-0.05394011	-0.02380966	0.003468649	-0.4311703	0.2442723	0	0
8.816042	-0.02857117	-0.05369113	-0.04603027	0.01502909	-0.6706578	0.3489149	0	0
8.832775	-0.03419719	-0.05139388	-0.3362196	0.1372873	-8.71454	3.67148	0	0
8.849175	-0.0449434	-0.04575411	-0.6552433	0.3438813	-9.628431	6.235197	0	0
8.865742	-0.05958727	-0.03511549	-0.8839567	0.6421856	-6.937728	9.04868	0	0
8.882308	-0.07894088	-0.02127232	-1.168253	0.8356234	-8.58058	5.838299	0	0
8.898878	-0.1014661	-0.005792232	-1.359393	0.9342186	-5.768279	2.97544	0	0
8.915443	-0.1382957	0.01327329	-2.223295	1.15093	-26.07186	6.540161	0	0
8.932009	-0.1829063	0.02704592	-2.69301	0.8314134	-14.17765	-9.644128	0	0
8.94886	-0.2053786	0.03206643	-1.333553	0.2979283	40.68191	-15.9646	0	0
8.965142	-0.2457216	0.03855117	-2.477754	0.3982746	-34.53305	3.028545	0	0
9.014906	-0.2944237	0.0439651	-0.9786689	0.1087927	22.69767	-4.383051	0	0
9.031409	-0.292567	0.04338873	0.1125072	-0.03492443	16.46635	-2.168758	0	0
9.047976	-0.2910946	0.04340732	0.08887838	0.001122336	-0.7145184	1.090027	0	0
9.064545	-0.2900318	0.04422537	0.06414578	0.04937177	-0.7464098	1.456129	0	0
9.08111	-0.2900318	0.04422537	0	0	-1.935923	-1.490043	0	0
9.097676	-0.2900076	0.04424396	0.001458969	0.001122111	0.04403557	0.0338683	0	0
9.114244	-0.2900318	0.04426255	-0.001458801	0.001121982	-0.08805847	-3.899898E-06	0	0
9.13081	-0.2899834	0.04429973	0.002918106	0.002244351	0.1320991	0.03387415	0	0
9.147498	-0.2899351	0.0443369	0.002896594	0.002227806	-0.0006469037	-0.0004975444	0	0
9.163943	-0.2898384	0.04441126	0.005877044	0.0045215	0.08995274	0.06922583	0	0
9.180523	-0.2895484	0.04459715	0.01749173	0.01121185	0.351696	0.2025856	0	0
9.197077	-0.2895243	0.04461573	0.001460062	0.001122726	-0.4838507	-0.3044991	0	0
9.230209	-0.2874927	0.04584235	0.06131717	0.03702134	1.204697	0.7225033	0	0
9.257708	-0.2858463	0.04617681	0.05987289	0.0121631	-0.0238209	-0.4099936	0	0
9.274276	-0.281699	0.04299823	0.250313	-0.1918483	4.321659	-4.629633	0	0
9.290842	-0.2774931	0.03974254	0.253884	-0.1965255	0.1077731	-0.141157	0	0
9.307409	-0.2735211	0.03667028	0.2397518	-0.1854419	-0.4265216	0.334513	0	0
9.323975	-0.2696624	0.03372597	0.2329375	-0.1777391	-0.2056679	0.2324834	0	0
9.340632	-0.2667753	0.03152552	0.1733215	-0.1320971	-1.794413	1.373801	0	0
9.357144	-0.2663344	0.03118974	0.02669624	-0.02033556	-4.420451	3.369382	0	0
9.373673	-0.266261	0.03124571	0.004446256	0.003385852	-0.6734053	0.7179386	0	0
9.39024	-0.2661875	0.03130167	0.004436273	0.003378251	-0.0003016248	-0.0002296904	0	0
9.406806	-0.266016	0.03143225	0.0103495	0.00788221	0.178472	0.1359376	0	0
9.423693	-0.265526	0.03184262	0.02901748	0.02430117	0.5580361	0.4908069	0	0
9.43994	-0.2600782	0.03620457	0.335296	0.2684646	9.243504	7.368868	0	0
9.456507	-0.2540229	0.04138004	0.3655176	0.3124103	0.9209967	1.339233	0	0
9.473225	-0.2520496	0.04305402	0.1180352	0.100131	-7.435436	-6.37778	0	0
9.489739	-0.2419051	0.05404684	0.614269	0.6656354	14.9321	17.01651	0	0
9.506249	-0.2402425	0.0586242	0.100706	0.2772472	-15.55084	-11.76051	0	0
9.522776	-0.2400687	0.06877943	0.01051615	0.6144922	-2.730027	10.20834	0	0
9.53934	-0.2427483	0.07608892	-0.1617726	0.4412778	-5.206578	-5.23455	0	0
9.555906	-0.2472807	0.08395645	-0.2735927	0.4749124	-3.375125	1.015209	0	0
9.572796	-0.2530612	0.0888503	-0.342251	0.289756	-2.052209	-5.534351	0	0
9.58904	-0.2551074	0.09037622	-0.1259669	0.0939376	6.527657	-5.90998	0	0
9.605606	-0.2579389	0.09248957	-0.1709188	0.1275694	-1.37006	1.025041	0	0
9.622332	-0.2591933	0.09346321	-0.07499786	0.05821288	2.881218	-2.08329	0	0
9.638843	-0.2591687	0.09344485	0.001489127	-0.001112332	2.301295	-1.784941	0	0
9.671874	-0.2591195	0.09340811	0.001488697	-0.001112237	-8.677851E-06	1.929194E-06	0	0
9.688441	-0.2590949	0.09338974	0.001485868	-0.001108555	-5.703327E-05	7.42402E-05	0	0
9.705007	-0.2590703	0.09337137	0.00148424	-0.001109132	-4.913451E-05	-1.742757E-05	0	0
9.721573	-0.2590457	0.093353	0.001484155	-0.001108619	-2.579074E-06	1.549904E-05	0	0
9.738139	-0.2590457	0.093353	0	0	-0.04479446	0.0334601	0	0
9.754705	-0.2590211	0.09333463	0.001484155	-0.001109068	0.04479446	-0.03347367	0	0
9.771273	-0.2590457	0.09331626	-0.001484069	-0.001108555	-0.08958375	1.550166E-05	0	0
9.78784	-0.2590211	0.09329789	0.001484069	-0.001109004	0.08957859	-1.357586E-05	0	0
9.804459	-0.2589228	0.09322441	0.005917881	-0.004421375	0.1336051	-0.0998124	0	0
9.820972	-0.2589228	0.09322441	0	0	-0.1786123	0.133445	0	0
9.837546	-0.2589228	0.09322441	0	0	0	0	0	0
9.854107	-0.2589474	0.09324279	-0.001484667	0.001109452	-0.04480735	0.03348331	0	0
9.870676	-0.2589474	0.09324279	0	0	0.0448138	-0.03348813	0	0
9.887524	-0.2589474	0.09324279	0	0	0	0	0	0
9.903812	-0.2589474	0.09324279	0	0	0	0	0	0
9.920375	-0.2589228	0.09322441	0.001484496	-0.001109324	0.04518847	-0.03376811	0	0
9.937057	-0.2589228	0.09322441	0	0	-0.04465311	0.03336805	0	0
9.953507	-0.2588982	0.09320605	0.001494652	-0.00111646	0.04511128	-0.03369676	0	0
9.970093	-0.2588982	0.09320605	0	0	-0.04524411	0.03379598	0	0
9.992513	-0.2588982	0.09320605	0	0	0	0	0	0
10.0091	-0.2588982	0.09320605	0	0	0	0	0	0
10.02565	-0.2588982	0.09320605	0	0	0	0	0	0
10.04221	-0.2589228	0.09318767	-0.001484155	-0.001109068	-0.04482542	-0.03349681	0	0
10.13575	-0.2587998	0.09309582	0.001314602	-0.0009819689	0.0254193	0.001154361	0	0
10.15231	-0.2587506	0.09302235	0.002968993	-0.004436395	0.01502628	-0.03137541	0	0
10.16888	-0.2587014	0.09298561	0.002970108	-0.002217687	3.367142E-05	0.06697232	0	0
10.18573	-0.2586031	0.09287538	0.005838262	-0.006541294	0.08582982	-0.1293844	0	0
10.20202	-0.2583817	0.09267329	0.01359101	-0.01240887	0.2339651	-0.1770736	0	0
10.21858	-0.2578405	0.09226909	0.03267495	-0.02440186	0.5809371	-0.3650806	0	0
10.23527	-0.2576436	0.0921221	0.01179667	-0.008809099	-0.6279032	0.4689439	0	0
10.25228	-0.2564375	0.09122168	0.07089628	-0.05292652	1.753748	-1.30916	0	0
10.26829	-0.2564129	0.09116655	0.00153951	-0.003443885	-2.100325	1.498478	0	0
10.28485	-0.2564129	0.09116655	0	0	-0.04727204	0.1057476	0	0
10.30585	-0.2564375	0.09118492	-0.001173383	0.0008747162	-0.03123824	0.02328703	0	0
10.32242	-0.2564375	0.09118492	0	0	0.03122873	-0.02327994	0	0
10.33899	-0.2564375	0.09118492	0	0	0	0	0	0
10.35586	-0.2564129	0.09116655	0.001460842	-0.001089007	0.04368967	-0.03256914	0	0
10.37212	-0.2564129	0.09116655	0	0	-0.04408956	0.03286725	0	0
10.38887	-0.2564129	0.09116655	0	0	0	0	0	0
10.40525	-0.2564129	0.09116655	0	0	0	0	0	0
10.42182	-0.2564129	0.09116655	0	0	0	0	0	0
10.43839	-0.2564129	0.09116655	0	0	0	0	0	0
10.45495	-0.2564129	0.09116655	0	0	0	0	0	0
10.47193	-0.2564129	0.09116655	0	0	0	0	0	0
10.48809	-0.2564129	0.09116655	0	0	0	0	0	0
10.50465	-0.2564129	0.09116655	0	0	0	0	0	0
10.52122	-0.2564129	0.09116655	0	0	0	0	0	0
10.53798	-0.2564375	0.09118492	-0.001470651	0.00109632	-0.04413157	0.03289856	0	0
10.55435	-0.2564375	0.09118492	0	0	0.04438561	-0.03308795	0	0
10.571	-0.2564375	0.09118492	0	0	0	0	0	0
10.58751	-0.2564375	0.09118492	0	0	0	0	0	0
10.60405	-0.2564375	0.09118492	0	0	0	0	0	0
10.62062	-0.2564375	0.09118492	0	0	0	0	0	0
10.63719	-0.2564375	0.09118492	0	0	0	0	0	0
10.65376	-0.2564375	0.09118492	0	0	0	0	0	0
10.67057	-0.2564375	0.09118492	0	0	0	0	0	0
10.68709	-0.2564129	0.09116655	0.001492478	-0.001112591	0.04477759	-0.03338015	0	0
10.70345	-0.2564129	0.09116655	0	0	-0.04539322	0.03383908	0	0
10.72002	-0.2564129	0.09116655	0	0	0	0	0	0
10.74281	-0.2564129	0.09116655	0	0	0	0	0	0
10.75938	-0.2564129	0.09116655	0	0	0	0	0	0
10.77614	-0.2564129	0.09116655	0	0	0	0	0	0
10.79266	-0.2564129	0.09116655	0	0	0	0	0	0
10.80917	-0.2564129	0.09116655	0	0	0	0	0	0
10.82568	-0.2564129	0.09116655	0	0	0	0	0	0
10.84222	-0.2564129	0.09116655	0	0	0	0	0	0
10.85878	-0.2564129	0.09116655	0	0	0	0	0	0
10.87535	-0.2564129	0.09116655	0	0	0	0	0	0
10.89224	-0.2564129	0.09116655	0	0	0	0	0	0
10.90848	-0.2564129	0.09116655	0	0	0	0	0	0
10.92525	-0.2564129	0.09116655	0	0	0	0	0	0
10.94162	-0.2564129	0.09116655	0	0	0	0	0	0
10.95818	-0.2564129	0.09116655	0	0	0	0	0	0
10.97479	-0.2564129	0.09116655	0	0	0	0	0	0
10.99132	-0.2564129	0.09116655	0	0	0	0	0	0
11.00788	-0.2564129	0.09116655	0	0	0	0	0	0
11.02445	-0.2564129	0.09116655	0	0	0	0	0	0
11.04133	-0.2564129	0.09116655	0	0	0	0	0	0
11.05758	-0.2564129	0.09116655	0	0	0	0	0	0
11.07415	-0.2563882	0.09114817	0.001485954	-0.001109518	0.04528147	-0.03381034	0	0
11.09072	-0.2563882	0.09114817	0	0	-0.04484617	0.03348532	0	0
11.10728	-0.2563882	0.09114817	0	0	0	0	0	0
11.12385	-0.2563882	0.09114817	0	0	0	0	0	0
11.14042	-0.2563882	0.09114817	0	0	0	0	0	0
11.15698	-0.2563636	0.09112979	0.001485868	-0.001109454	0.04484488	-0.03348436	0	0
11.17355	-0.256339	0.09111141	0.001485954	-0.001109068	2.582439E-06	1.164733E-05	0	0
11.19012	-0.2563144	0.09109303	0.001487753	-0.001109518	5.429603E-05	-1.357313E-05	0	0
11.20668	-0.2562651	0.09105627	0.002971907	-0.002219036	0.04479446	-0.03348725	0	0
11.22325	-0.2559696	0.09083573	0.01783659	-0.01331133	0.4486169	-0.3347662	0	0
11.23981	-0.2555755	0.09054165	0.02379239	-0.01775388	0.1797568	-0.1340841	0	0
11.25638	-0.2548856	0.08999019	0.04164208	-0.03328587	0.5387513	-0.4687969	0	0
11.273	-0.2517041	0.08758137	0.1914984	-0.144988	4.516304	-3.366429	0	0
11.28952	-0.2446071	0.08226256	0.4296099	-0.3219704	7.186427	-5.341494	0	0
11.30608	-0.2391746	0.07822767	0.3279226	-0.2435606	-3.073441	2.369893	0	0
11.32265	-0.2325569	0.07328477	0.3994458	-0.2983541	2.158635	-1.65372	0	0
11.33954	-0.2282168	0.07007244	0.2569009	-0.1901421	-4.259956	3.233919	0	0
11.35578	-0.2247433	0.0673936	0.2138931	-0.1649618	-1.298016	0.759966	0	0
11.37235	-0.2209136	0.06449108	0.2311728	-0.1752067	0.5267332	-0.3122942	0	0
11.38892	-0.215094	0.06016115	0.3512958	-0.26137	3.625527	-2.600562	0	0
11.40548	-0.2099393	0.05636398	0.311158	-0.2292108	-1.211432	0.9706209	0	0
11.42813	-0.1995454	0.04868434	0.4588541	-0.339032	3.766034	-2.800277	0	0
11.4447	-0.1942813	0.0448202	0.3177272	-0.2332267	-3.598353	2.697747	0	0
11.46127	-0.1780929	0.03296156	0.9771301	-0.7157888	19.90024	-14.56333	0	0
11.47783	-0.1668808	0.02476665	0.6768078	-0.4946739	-9.064006	6.673454	0	0
11.4944	-0.1630654	0.02198099	0.2303057	-0.1681529	-13.47623	9.85499	0	0
11.51097	-0.144048	0.008150828	1.147897	-0.83479	27.69375	-20.11973	0	0
11.52753	-0.1368498	0.002907823	0.4345092	-0.3164866	-21.5307	15.64288	0	0
11.54419	-0.1235258	-0.006791756	0.8001398	-0.5824836	11.00688	-8.007523	0	0
11.57724	-0.102586	-0.02199239	0.6335869	-0.4599343	-3.351052	2.465697	0	0
11.5938	-0.1004242	-0.02352783	0.1305002	-0.09269012	-10.13983	7.401892	0	0
11.61037	-0.09043685	-0.03072225	0.6028726	-0.4342808	14.25746	-10.31012	0	0
11.62693	-0.08602402	-0.03382159	0.2663743	-0.187087	-10.15613	7.460753	0	0
11.6435	-0.07716228	-0.04012505	0.5349262	-0.3804999	8.105381	-5.837549	0	0
11.66007	-0.068236	-0.0465564	0.5388224	-0.3882193	0.1175918	-0.2329853	0	0
11.67664	-0.05940371	-0.05296347	0.5330567	-0.386687	-0.1740016	0.04624316	0	0
11.6932	-0.057122	-0.0546297	0.1377481	-0.1005909	-11.93078	8.634645	0	0
11.7098	-0.04638775	-0.06232211	0.6464692	-0.463275	15.33734	-10.9345	0	0
11.72633	-0.04226429	-0.06526259	0.249467	-0.1778969	-11.9819	8.612978	0	0
11.7429	-0.03493315	-0.07028577	0.4425085	-0.3031998	5.83272	-3.78601	0	0
11.75947	-0.02951774	-0.07394817	0.3268936	-0.2210756	-3.489366	2.478585	0	0
11.77603	-0.02147038	-0.07896772	0.4857393	-0.3029808	4.794111	-2.471975	0	0
11.7926	-0.01897141	-0.08026271	0.1508472	-0.07817043	-10.10735	6.784986	0	0
11.80917	-0.01786652	-0.08064939	0.06668731	-0.02333857	-2.539951	1.654829	0	0
11.82589	-0.01776129	-0.08061072	0.006294814	0.002313131	-1.814398	0.7706652	0	0
11.8423	-0.01776129	-0.08061072	0	0	-0.1899888	-0.06981445	0	0
11.85891	-0.01773498	-0.08063006	0.001584033	-0.001164137	0.04796636	-0.03525141	0	0
11.87543	-0.01773498	-0.08063006	0	0	-0.04780759	0.03513472	0	0
11.89244	-0.01770867	-0.08061072	0.001546904	0.00113685	0.04613197	0.03390328	0	0
11.90857	-0.01770867	-0.08061072	0	0	-0.04668565	-0.03431019	0	0
11.92513	-0.01770867	-0.08061072	0	0	0	0	0	0
11.94197	-0.01765606	-0.08064939	0.003125066	-0.002296753	0.09356336	-0.06876395	0	0
11.97483	-0.01605125	-0.08182912	0.04883232	-0.0358976	0.919667	-0.6760763	0	0
11.9914	-0.01436743	-0.0830674	0.1016415	-0.07474742	1.068365	-0.7859581	0	0
12.00801	-0.01368336	-0.08357061	0.04117713	-0.03029026	-1.822353	1.339907	0	0
12.02453	-0.01363073	-0.08360933	0.00318523	-0.002343344	-1.146631	0.8434637	0	0
12.0411	-0.01363073	-0.08360933	0	0	-0.09626619	0.07082214	0	0
12.05767	-0.01360442	-0.08362868	0.001588306	-0.001168502	0.04793792	-0.03526748	0	0
12.07423	-0.01360442	-0.08362868	0	0	-0.04793792	0.03526748	0	0
12.0908	-0.01357811	-0.08364804	0.001588214	-0.001168435	0.04793378	-0.03526444	0	0
12.10737	-0.01357811	-0.08364804	0	0	-0.04793515	0.03526545	0	0
12.12393	-0.01357811	-0.08364804	0	0	0	0	0	0
12.16062	-0.01357811	-0.08364804	0	0	0	0	0	0
12.1769	-0.01357811	-0.08364804	0	0	0	0	0	0
12.19364	-0.01357811	-0.08364804	0	0	0	0	0	0
12.21003	-0.01360442	-0.0836674	-0.001605778	-0.001181356	-0.04846247	-0.03565339	0	0
12.2266	-0.01360442	-0.0836674	0	0	0.04873177	0.03585151	0	0
12.24316	-0.01360442	-0.0836674	0	0	0	0	0	0
12.25973	-0.01360442	-0.0836674	0	0	0	0	0	0
12.27629	-0.01360442	-0.0836674	0	0	0	0	0	0
12.29286	-0.01360442	-0.0836674	0	0	0	0	0	0
12.30943	-0.01360442	-0.0836674	0	0	0	0	0	0
12.32599	-0.01360442	-0.0836674	0	0	0	0	0	0
12.34987	-0.01360442	-0.0836674	0	0	0	0	0	0
12.36644	-0.01363073	-0.08364804	-0.001588031	0.0011683	-0.03926828	0.02888931	0	0
12.383	-0.01363073	-0.08364804	0	0	0.04792688	-0.03525936	0	0
12.39979	-0.01363073	-0.08364804	0	0	0	0	0	0
12.4163	-0.01363073	-0.08364804	0	0	0	0	0	0
12.4327	-0.01363073	-0.08364804	0	0	0	0	0	0
12.44932	-0.01363073	-0.08364804	0	0	0	0	0	0
12.46583	-0.01363073	-0.08368676	0	-0.002345284	0	-0.07078286	0	0
12.4824	-0.01365705	-0.0836674	-0.001588214	0.001168884	-0.0480167	0.1062444	0	0
12.49897	-0.01365705	-0.0836674	0	0	0.04793378	-0.03527801	0	0
12.51554	-0.01365705	-0.0836674	0	0	0	0	0	0
12.5321	-0.01365705	-0.0836674	0	0	0	0	0	0
12.54867	-0.01365705	-0.0836674	0	0	0	0	0	0
12.56523	-0.01365705	-0.0836674	0	0	0	0	0	0
12.5818	-0.01365705	-0.0836674	0	0	0	0	0	0
12.59837	-0.01365705	-0.0836674	0	0	0	0	0	0
12.61494	-0.01365705	-0.0836674	0	0	0	0	0	0
12.6315	-0.01365705	-0.0836674	0	0	0	0	0	0
12.64807	-0.01365705	-0.0836674	0	0	0	0	0	0
12.66463	-0.01365705	-0.0836674	0	0	0	0	0	0
12.6812	-0.01365705	-0.0836674	0	0	0	0	0	0
12.69777	-0.01365705	-0.0836674	0	0	0	0	0	0
12.71433	-0.01365705	-0.0836674	0	0	0	0	0	0
12.7309	-0.01365705	-0.0836674	0	0	0	0	0	0
12.74747	-0.01365705	-0.0836674	0	0	0	0	0	0
12.76403	-0.01365705	-0.0836674	0	0	0	0	0	0
12.7806	-0.01365705	-0.0836674	0	0	0	0	0	0
12.79716	-0.01365705	-0.0836674	0	0	0	0	0	0
12.85332	-0.01365705	-0.0836674	0	0	0	0	0	0
12.86989	-0.01365705	-0.0836674	0	0	0	0	0	0
12.88645	-0.01365705	-0.0836674	0	0	0	0	0	0
12.90315	-0.01365705	-0.0836674	0	0	0	0	0	0
12.91959	-0.01365705	-0.0836674	0	0	0	0	0	0
12.93616	-0.01365705	-0.0836674	0	0	0	0	0	0
12.95272	-0.01365705	-0.0836674	0	0	0	0	0	0
12.96929	-0.01365705	-0.0836674	0	0	0	0	0	0
12.98585	-0.01365705	-0.0836674	0	0	0	0	0	0
13.00242	-0.01365705	-0.0836674	0	0	0	0	0	0
13.01899	-0.01365705	-0.0836674	0	0	0	0	0	0
13.03555	-0.01365705	-0.0836674	0	0	0	0	0	0
13.05212	-0.01365705	-0.0836674	0	0	0	0	0	0
13.06869	-0.01365705	-0.0836674	0	0	0	0	0	0
13.08527	-0.01365705	-0.0836674	0	0	0	0	0	0
13.10182	-0.01365705	-0.0836674	0	0	0	0	0	0
13.11839	-0.01365705	-0.0836674	0	0	0	0	0	0
13.135	-0.01365705	-0.0836674	0	0	0	0	0	0
13.15152	-0.01365705	-0.0836674	0	0	0	0	0	0
13.16809	-0.01365705	-0.0836674	0	0	0	0	0	0
13.18465	-0.01365705	-0.0836674	0	0	0	0	0	0
13.20122	-0.01365705	-0.0836674	0	0	0	0	0	0
13.21837	-0.01365705	-0.0836674	0	0	0	0	0	0
13.23436	-0.01365705	-0.0836674	0	0	0	0	0	0
13.25092	-0.01365705	-0.0836674	0	0	0	0	0	0
13.26749	-0.01365705	-0.0836674	0	0	0	0	0	0
13.28405	-0.01365705	-0.0836674	0	0	0	0	0	0
13.30062	-0.01365705	-0.0836674	0	0	0	0	0	0
13.31719	-0.01365705	-0.0836674	0	0	0	0	0	0
13.33375	-0.01365705	-0.0836674	0	0	0	0	0	0
13.35046	-0.01365705	-0.0836674	0	0	0	0	0	0
13.36697	-0.01365705	-0.0836674	0	0	0	0	0	0
13.38345	-0.01365705	-0.0836674	0	0	0	0	0	0
13.40002	-0.01365705	-0.0836674	0	0	0	0	0	0
13.41659	-0.01365705	-0.0836674	0	0	0	0	0	0
13.43315	-0.01365705	-0.0836674	0	0	0	0	0	0
13.44972	-0.01365705	-0.0836674	0	0	0	0	0	0
13.46629	-0.01365705	-0.0836674	0	0	0	0	0	0
13.48305	-0.01365705	-0.0836674	0	0	0	0	0	0
13.49942	-0.01365705	-0.0836674	0	0	0	0	0	0
13.53255	-0.01365705	-0.0836674	0	0	0	0	0	0
13.54912	-0.01365705	-0.0836674	0	0	0	0	0	0
13.57123	-0.01365705	-0.0836674	0	0	0	0	0	0
13.58812	-0.01365705	-0.0836674	0	0	0	0	0	0
13.60437	-0.01365705	-0.0836674	0	0	0	0	0	0
13.62093	-0.01365705	-0.0836674	0	0	0	0	0	0
13.6375	-0.01365705	-0.0836674	0	0	0	0	0	0
13.65407	-0.01365705	-0.0836674	0	0	0	0	0	0
13.67063	-0.01365705	-0.0836674	0	0	0	0	0	0
13.6872	-0.01365705	-0.0836674	0	0	0	0	0	0
13.70376	-0.01365705	-0.0836674	0	0	0	0	0	0
13.72072	-0.01365705	-0.0836674	0	0	0	0	0	0
13.7369	-0.01365705	-0.0836674	0	0	0	0	0	0
13.75374	-0.01365705	-0.0836674	0	0	0	0	0	0
13.77025	-0.01365705	-0.0836674	0	0	0	0	0	0
13.78676	-0.01365705	-0.0836674	0	0	0	0	0	0
13.80316	-0.01365705	-0.0836674	0	0	0	0	0	0
13.81973	-0.01365705	-0.0836674	0	0	0	0	0	0
13.8363	-0.01365705	-0.0836674	0	0	0	0	0	0
13.85286	-0.01365705	-0.0836674	0	0	0	0	0	0
13.86943	-0.01365705	-0.0836674	0	0	0	0	0	0
13.886	-0.01365705	-0.0836674	0	0	0	0	0	0
13.90257	-0.01363073	-0.08368676	0.001587574	-0.001168413	0.04790619	-0.03525771	0	0
13.91913	-0.01363073	-0.08368676	0	0	-0.04791447	0.0352638	0	0
13.9357	-0.01363073	-0.08368676	0	0	0	0	0	0
13.95239	-0.01363073	-0.08368676	0	0	0	0	0	0
13.96883	-0.01363073	-0.08368676	0	0	0	0	0	0
13.9854	-0.01363073	-0.08368676	0	0	0	0	0	0
14.00196	-0.01363073	-0.08368676	0	0	0	0	0	0
14.01854	-0.01363073	-0.08368676	0	0	0	0	0	0
14.0351	-0.01363073	-0.08368676	0	0	0	0	0	0
14.05195	-0.01363073	-0.08368676	0	0	0	0	0	0
14.06846	-0.01363073	-0.08368676	0	0	0	0	0	0
14.0848	-0.01363073	-0.08368676	0	0	0	0	0	0
14.10149	-0.01363073	-0.08368676	0	0	0	0	0	0
14.118	-0.01363073	-0.08368676	0	0	0	0	0	0
14.15152	-0.01363073	-0.08368676	0	0	0	0	0	0
14.16763	-0.01363073	-0.08368676	0	0	0	0	0	0
14.1842	-0.01363073	-0.08368676	0	0	0	0	0	0
14.20076	-0.01363073	-0.08368676	0	0	0	0	0	0
14.21733	-0.01363073	-0.08368676	0	0	0	0	0	0
14.23389	-0.01363073	-0.08368676	0	0	0	0	0	0
14.25573	-0.01363073	-0.08368676	0	0	0	0	0	0
14.2723	-0.01363073	-0.08368676	0	0	0	0	0	0
14.28887	-0.01363073	-0.08368676	0	0	0	0	0	0
14.30563	-0.01363073	-0.08368676	0	0	0	0	0	0
14.322	-0.01363073	-0.08368676	0	0	0	0	0	0
14.33856	-0.01363073	-0.08368676	0	0	0	0	0	0
14.35513	-0.01363073	-0.08368676	0	0	0	0	0	0
14.3717	-0.01363073	-0.08368676	0	0	0	0	0	0
14.4548	-0.01363073	-0.08368676	0	0	0	0	0	0
14.47137	-0.01363073	-0.08368676	0	0	0	0	0	0
14.48826	-0.01365705	-0.08370612	-0.001557813	-0.001146069	-0.04656457	-0.03425713	0	0
14.5045	-0.01365705	-0.08370612	0	0	0.04701895	0.0345914	0	0
14.52107	-0.01365705	-0.08370612	0	0	0	0	0	0
14.53779	-0.01365705	-0.08370612	0	0	0	0	0	0
14.5543	-0.01365705	-0.08370612	0	0	0	0	0	0
14.57077	-0.01365705	-0.08370612	0	0	0	0	0	0
14.58733	-0.01368336	-0.08372547	-0.001588123	-0.001168367	-0.04807909	-0.03537134	0	0
14.6039	-0.01368336	-0.08372547	0	0	0.04793102	0.03526241	0	0
14.62047	-0.01370967	-0.08374483	-0.001588123	-0.001168367	-0.04793102	-0.03526241	0	0
14.63736	-0.01373598	-0.08376419	-0.001557549	-0.001145874	0.0009137442	0.0006722339	0	0
14.6536	-0.01373598	-0.08376419	0	0	0.04700692	0.03458256	0	0
14.67038	-0.01373598	-0.08376419	0	0	0	0	0	0
14.68673	-0.01373598	-0.08376419	0	0	0	0	0	0
14.71987	-0.01373598	-0.08376419	0	0	0	0	0	0
14.73643	-0.01373598	-0.08376419	0	0	0	0	0	0
14.753	-0.01373598	-0.08376419	0	0	0	0	0	0
14.76957	-0.01373598	-0.08376419	0	0	0	0	0	0
14.78613	-0.01373598	-0.08376419	0	0	0	0	0	0
14.8027	-0.01373598	-0.08376419	0	0	0	0	0	0
14.81927	-0.01373598	-0.08376419	0	0	0	0	0	0
14.83583	-0.01373598	-0.08376419	0	0	0	0	0	0
14.85251	-0.01373598	-0.08376419	0	0	0	0	0	0
14.86897	-0.01373598	-0.08376419	0	0	0	0	0	0
14.88554	-0.01373598	-0.08376419	0	0	0	0	0	0
14.90211	-0.01376229	-0.08378354	-0.001587849	-0.001168165	-0.04791861	-0.03525328	0	0
14.91867	-0.01381491	-0.08378354	-0.003177343	0	-0.04797517	0.03525835	0	0
14.93557	-0.01381491	-0.08378354	0	0	0.09494686	0	0	0
14.95181	-0.01386753	-0.08374483	-0.003241554	0.002384781	-0.09782467	0.0719687	0	0
14.96837	-0.01389384	-0.08372547	-0.00158794	0.001168233	0.0504111	-0.03708698	0	0
14.98494	-0.01389384	-0.08372547	0	0	0.04792688	-0.03525937	0	0
15.00163	-0.01392015	-0.08370612	-0.001575786	0.001159291	-0.04737733	0.03485506	0	0
15.02229	-0.01392015	-0.08374483	0	-0.001873875	0.04218253	-0.08119541	0	0
15.03914	-0.01392015	-0.08374483	0	0	0	0.04995678	0	0
15.05543	-0.01392015	-0.08374483	0	0	0	0	0	0
15.072	-0.01392015	-0.08374483	0	0	0	0	0	0
15.08868	-0.01392015	-0.08374483	0	0	0	0	0	0
15.10513	-0.01392015	-0.08378354	0	-0.00235367	0	-0.07103596	0	0
15.1217	-0.01392015	-0.08378354	0	0	0	0.07129452	0	0
15.13826	-0.01392015	-0.08374483	0	0.002336869	0	0.07053294	0	0
15.15483	-0.01394646	-0.08372547	-0.001588214	0.001168435	-0.04793515	-0.03526545	0	0
15.1714	-0.01410433	-0.08360933	-0.009528131	0.007010249	-0.2396272	0.1763063	0	0
15.18796	-0.01439374	-0.083319	-0.01747114	0.01752618	-0.2397273	0.3173804	0	0
15.20476	-0.01876096	-0.07987609	-0.2599101	0.2049013	-7.265588	5.615395	0	0
15.22127	-0.02573116	-0.07417963	-0.4222049	0.3450502	-4.871986	4.20718	0	0
15.23779	-0.03779778	-0.06268711	-0.7307401	0.6959739	-9.343344	10.62699	0	0
15.25423	-0.04197533	-0.05353793	-0.2540735	0.5564416	14.46409	-4.234004	0	0
15.2708	-0.04586256	-0.03665747	-0.2346199	1.018847	0.5893163	14.00785	0	0
15.28736	-0.0490396	-0.01164286	-0.1917888	1.510059	1.292682	14.82523	0	0
15.30393	-0.0509821	0.006779786	-0.1172428	1.111929	2.249866	-12.01595	0	0
15.3205	-0.05326536	0.0241125	-0.1378337	1.046325	-0.621453	-1.979982	0	0
15.33706	-0.05701708	0.04586093	-0.2264543	1.312738	-2.67473	8.040815	0	0
15.35363	-0.06171102	0.06578545	-0.2833429	1.202716	-1.716948	-3.320561	0	0
15.37038	-0.06446319	0.07433654	-0.1642588	0.5103574	3.573803	-20.77821	0	0
15.38676	-0.06962412	0.08607288	-0.3151057	0.7165742	-4.552698	6.223815	0	0
15.40341	-0.07813011	0.09913557	-0.5110692	0.784851	-5.934345	2.067619	0	0
15.4199	-0.0874344	0.1058819	-0.5642064	0.4090914	-1.603685	-11.34045	0	0
15.43646	-0.09586316	0.1117953	-0.5087898	0.3569536	1.676386	-1.577198	0	0
15.45303	-0.1059179	0.1191083	-0.606872	0.4413925	-2.960128	2.548373	0	0
15.4696	-0.1121589	0.1252065	-0.3767275	0.3681072	6.945776	-2.211755	0	0
15.48646	-0.1163666	0.1316619	-0.249484	0.3827529	3.806036	0.4380723	0	0
15.50273	-0.12407	0.1403478	-0.473506	0.5338998	-6.760996	4.561623	0	0
15.51949	-0.1280068	0.1431491	-0.2349473	0.1671804	7.223627	-11.10437	0	0
15.53586	-0.1368498	0.149583	-0.5400138	0.3928999	-9.207723	6.812817	0	0
15.55251	-0.142888	0.1547395	-0.3627327	0.3097644	5.368587	-2.517585	0	0
15.569	-0.1449499	0.1621394	-0.1250651	0.4488337	7.173031	4.197242	0	0
15.58556	-0.1435067	0.1744891	0.08711988	0.745472	6.419459	8.974515	0	0
15.60213	-0.1417534	0.1830585	0.1058364	0.5172765	0.5648987	-6.88735	0	0
15.6684	-0.1347056	0.2099828	0.1063526	0.4062947	0.006231885	-1.339805	0	0
15.68497	-0.1363074	0.2174324	-0.09667929	0.4496309	-2.451006	0.5231551	0	0
15.70162	-0.140799	0.2209929	-0.2697469	0.2138316	-5.209846	-7.098253	0	0
15.71813	-0.1456713	0.2243903	-0.2950459	0.2057283	-0.7628232	-0.2443347	0	0
15.73466	-0.1480663	0.2260615	-0.1448677	0.1010924	4.544553	-3.166391	0	0
15.75123	-0.1481435	0.2261155	-0.004661776	0.003254159	4.235934	-2.955913	0	0
15.7678	-0.1481692	0.2261334	-0.001554315	0.001084782	0.09378608	-0.0654738	0	0
15.80919	-0.1481692	0.2261334	0	0	0.02681635	-0.01871557	0	0
15.82543	-0.1481178	0.2261334	0.003172179	0	0.05504427	0	0	0
15.84221	-0.1480663	0.2260975	0.003066946	-0.002141092	-0.003186858	-0.06484037	0	0
15.85856	-0.1480405	0.2260795	0.001574351	-0.001099402	-0.04504919	0.03144008	0	0
15.87513	-0.1480405	0.2260795	0	0	-0.04783341	0.03340307	0	0
15.8917	-0.1480405	0.2260795	0	0	0	0	0	0
15.90826	-0.1480405	0.2260795	0	0	0	0	0	0
15.92483	-0.1480405	0.2260795	0	0	0	0	0	0
15.94178	-0.1480405	0.2260795	0	0	0	0	0	0
15.9583	-0.1480148	0.2260615	0.001559252	-0.001088228	0.046585	-0.03251245	0	0
15.97453	-0.1480148	0.2260615	0	0	-0.04762164	0.03323593	0	0
15.99132	-0.1480148	0.2260615	0	0	0	0	0	0
16.00783	-0.147989	0.2260436	0.001559612	-0.001087577	0.04682792	-0.03265489	0	0
16.02434	-0.147989	0.2260436	0	0	-0.04722958	0.03293498	0	0
16.04085	-0.1480148	0.2260256	-0.001559612	-0.001088479	-0.04722958	-0.03296231	0	0
16.05737	-0.1479633	0.2259897	0.003117961	-0.002176707	0.1416505	-0.0329547	0	0
16.07393	-0.1479118	0.2259537	0.003109524	-0.002170189	-0.0002550875	0.0001970725	0	0
16.09049	-0.1478861	0.2259358	0.001553326	-0.00108472	-0.04697428	0.03276518	0	0
16.10706	-0.1478861	0.2259358	0	0	-0.04688216	0.03273879	0	0
16.12363	-0.1478861	0.2259358	0	0	0	0	0	0
16.14019	-0.1478861	0.2259358	0	0	0	0	0	0
16.15676	-0.1478088	0.2258819	0.004661776	-0.003253259	0.1407008	-0.09818922	0	0
16.17333	-0.1476286	0.2257561	0.01087868	-0.007593038	0.1876264	-0.1309748	0	0
16.18989	-0.1471651	0.2254326	0.02797426	-0.01952315	0.5159456	-0.3600517	0	0
16.20647	-0.1468304	0.225199	0.0201951	-0.01409324	-0.2347078	0.1638279	0	0
16.22302	-0.1468304	0.225199	0	0	-0.6095595	0.4253839	0	0
16.23959	-0.1468304	0.225199	0	0	0	0	0	0
16.25616	-0.1468304	0.225199	0	0	0	0	0	0
16.27273	-0.1468304	0.225199	0	0	0	0	0	0
16.28929	-0.1468304	0.225199	0	0	0	0	0	0
16.30586	-0.1468046	0.225181	0.001554404	-0.001084845	0.04691471	-0.03274256	0	0
16.32243	-0.1467016	0.2251091	0.0062178	-0.004338879	0.1407497	-0.0982126	0	0
16.35556	-0.1466244	0.2250552	0.002331922	-0.001627173	-0.07818703	0.05456172	0	0
16.37213	-0.1466244	0.2250552	0	0	-0.04692016	0.03274005	0	0
16.3891	-0.1465728	0.2250193	0.003034245	-0.002117037	0.09045421	-0.06311123	0	0
16.40526	-0.1465471	0.2250013	0.001593861	-0.001112382	-0.04347338	0.03032231	0	0
16.42183	-0.1464956	0.2249654	0.003108992	-0.00216919	0.04629976	-0.0322942	0	0
16.43839	-0.1464183	0.2249115	0.004664112	-0.003254534	0.04693362	-0.03275575	0	0
16.45496	-0.1463153	0.2248396	0.0062187	-0.004338879	0.04692025	-0.03272748	0	0
16.47745	-0.1462895	0.2248216	0.001145701	-0.0007991412	-0.1298941	0.09063498	0	0
16.49402	-0.1462895	0.2248216	0	0	-0.02933424	0.02046101	0	0
16.51069	-0.146238	0.2247497	0.003089432	-0.004311084	0.0929343	-0.1296833	0	0
16.5272	-0.1460835	0.2246419	0.009358216	-0.006530268	0.1888878	-0.06686732	0	0
16.54371	-0.1459032	0.2245161	0.0109218	-0.007619353	0.04734701	-0.03297877	0	0
16.56028	-0.1456713	0.2243543	0.01399342	-0.009763377	0.09286227	-0.06481869	0	0
16.57685	-0.1454395	0.2241926	0.01399522	-0.009763377	5.427533E-05	0	0	0
16.59342	-0.1445119	0.2235456	0.05598988	-0.0390553	1.267401	-0.8840321	0	0
16.60998	-0.1421918	0.2218918	0.1400565	-0.09983089	2.537281	-1.834316	0	0
16.62655	-0.1408506	0.220885	0.08095463	-0.06076949	-1.7838	1.178943	0	0
16.64328	-0.1345505	0.2162812	0.3765434	-0.2751653	8.876943	-6.438604	0	0
16.67625	-0.1214519	0.2034274	0.3973069	-0.389881	0.417777	-2.308174	0	0
16.69282	-0.1140814	0.1940889	0.4448826	-0.5636711	0.9604318	-3.508375	0	0
16.70938	-0.1077391	0.1823538	0.3828701	-0.7084125	-1.871649	-4.368556	0	0
16.72595	-0.09943415	0.1638431	0.5012866	-1.117313	3.574024	-12.34134	0	0
16.74252	-0.09390719	0.1474392	0.3335696	-0.9900255	-5.06142	3.841309	0	0
16.75908	-0.08850502	0.1221036	0.3261132	-1.529437	-0.2250335	-16.27947	0	0
16.77565	-0.08735606	0.1153069	0.06935145	-0.4102475	-7.74953	33.77915	0	0
16.79239	-0.08328062	0.08695596	0.2434716	-1.693716	5.227873	-38.53552	0	0
16.8089	-0.07928085	0.0586242	0.2422073	-1.715639	-0.03802063	-0.6592829	0	0
16.82535	-0.07650826	0.0386815	0.1685567	-1.212398	-2.234357	15.26695	0	0
16.84192	-0.07339425	0.02115796	0.1879623	-1.057723	0.5877609	4.684817	0	0
16.85849	-0.06666423	-0.001269878	0.4062248	-1.353747	6.587175	-8.934017	0	0
16.87505	-0.06097694	-0.01060407	0.343285	-0.5634131	-1.899528	23.85232	0	0
16.89162	-0.05662362	-0.01521504	0.262707	-0.2782547	-2.431569	8.605107	0	0
16.90848	-0.04730678	-0.02185974	0.5527558	-0.3942211	8.677268	-3.469316	0	0
16.92499	-0.04166009	-0.02593677	0.3420952	-0.2470005	-6.314495	4.412898	0	0
16.9415	-0.03530112	-0.03053221	0.3851142	-0.2783103	1.30289	-0.9482617	0	0
16.95801	-0.0309112	-0.03370744	0.2658942	-0.1923218	-3.610329	2.603982	0	0
16.97452	-0.02696715	-0.03656227	0.2388613	-0.1728948	-0.8186343	0.5883065	0	0
16.99103	-0.02391649	-0.03877184	0.184776	-0.1338324	-1.637861	1.182922	0	0
17.00759	-0.02218057	-0.04002974	0.1048407	-0.07597051	-2.417322	1.7498	0	0
17.02415	-0.02175972	-0.04033476	0.02540547	-0.01841335	-2.398188	1.737679	0	0
17.04072	-0.02178603	-0.0403157	-0.001587729	0.001150828	-0.8147032	0.590482	0	0
17.05729	-0.02178603	-0.0403157	0	0	0.04791776	-0.03473206	0	0
17.07385	-0.02175972	-0.04033476	0.001587729	-0.001150828	0.04791776	-0.03473206	0	0
17.09042	-0.02175972	-0.04033476	0	0	-0.04791776	0.03473206	0	0
17.10699	-0.02175972	-0.04033476	0	0	0	0	0	0
17.12363	-0.02175972	-0.04033476	0	0	0	0	0	0
17.14014	-0.02175972	-0.04033476	0	0	0	0	0	0
17.15669	-0.02175972	-0.04033476	0	0	0	0	0	0
17.17736	-0.02170712	-0.04033476	0.002544612	0	0.06836329	0	0	0
17.19393	-0.02165451	-0.04037289	0.003175346	-0.002301431	0.01693654	-0.06179836	0	0
17.2105	-0.02147038	-0.04050635	0.01111249	-0.00805487	0.2395296	-0.1736291	0	0
17.22706	-0.02136517	-0.04058262	0.006351536	-0.004603843	-0.1436858	0.1041522	0	0
17.24371	-0.01565661	-0.04468473	0.3428324	-0.246356	10.12994	-7.278078	0	0
17.26022	-0.01236779	-0.04707228	0.1992248	-0.144629	-4.330843	3.067831	0	0
17.27676	-0.004710491	-0.05256142	0.4629951	-0.3318988	7.981736	-5.666821	0	0
17.29333	0.0008421051	-0.05656525	0.3351554	-0.2416717	-3.861543	2.725414	0	0
17.30989	0.007078829	-0.06107381	0.3764494	-0.2721371	1.246256	-0.9194497	0	0
17.32677	0.01005229	-0.06324429	0.1762124	-0.1286261	-5.987672	4.2914	0	0
17.34328	0.0130782	-0.06541643	0.1832349	-0.1315343	0.2103287	-0.08710369	0	0
17.35959	0.01439374	-0.06637808	0.08065045	-0.05895505	-3.125148	2.211066	0	0
17.3763	0.01439374	-0.06637808	0	0	-2.44233	1.78533	0	0
17.39273	0.01439374	-0.06637808	0	0	0	0	0	0
17.4093	0.01436743	-0.06635884	-0.00158794	0.001161038	-0.04813192	0.03519213	0	0
17.42586	0.01436743	-0.06635884	0	0	0.04792412	-0.0350402	0	0
17.44243	0.01434112	-0.0663396	-0.001588066	0.001161172	-0.0479307	0.03504625	0	0
17.459	0.01434112	-0.0663396	0	0	0.04792794	-0.03504423	0	0
17.47556	0.01434112	-0.0663396	0	0	0	0	0	0
17.49213	0.01434112	-0.0663396	0	0	0	0	0	0
17.5087	0.01434112	-0.0663396	0	0	0	0	0	0
17.52526	0.01434112	-0.0663396	0	0	0	0	0	0
17.54193	0.01434112	-0.0663396	0	0	0	0	0	0
17.55844	0.01434112	-0.0663396	0	0	0	0	0	0
17.57496	0.01434112	-0.0663396	0	0	0	0	0	0
17.59153	0.01434112	-0.0663396	0	0	0	0	0	0
17.6081	0.01431481	-0.06632037	-0.001588123	0.001161172	-0.04792964	0.03504423	0	0
17.62466	0.01431481	-0.06632037	0	0	0.04792964	-0.03504423	0	0
17.64123	0.01431481	-0.06632037	0	0	0	0	0	0
17.6578	0.01431481	-0.06632037	0	0	0	0	0	0
17.67436	0.0142885	-0.06630113	-0.001588306	0.001161305	-0.04793516	0.03504827	0	0
17.69104	0.0142885	-0.06630113	0	0	0.04778662	-0.03493966	0	0
17.7075	0.0142885	-0.06630113	0	0	0	0	0	0
17.72407	0.0142885	-0.06630113	0	0	0	0	0	0
17.74063	0.0142885	-0.06630113	0	0	0	0	0	0
17.7572	0.0142885	-0.06630113	0	0	0	0	0	0
17.77377	0.0142885	-0.06630113	0	0	0	0	0	0
17.7906	0.0142885	-0.06630113	0	0	0	0	0	0
17.8069	0.0142885	-0.06630113	0	0	0	0	0	0
17.82347	0.0142885	-0.06630113	0	0	0	0	0	0
17.84014	0.0142885	-0.06630113	0	0	0	0	0	0
17.85665	0.0142885	-0.06630113	0	0	0	0	0	0
17.87366	0.01426219	-0.06632037	-0.001546753	-0.001130964	-0.04613929	-0.03373639	0	0
17.89654	0.01426219	-0.06632037	0	0	0.03877703	0.02835322	0	0
17.91311	0.01426219	-0.06632037	0	0	0	0	0	0
17.94624	0.01423588	-0.06630113	-0.000794107	0.0005806193	-0.01597746	0.01168208	0	0
17.96281	0.01418326	-0.06622419	-0.003176189	0.004644237	-0.04792943	0.08176329	0	0
17.97937	0.01413064	-0.06618572	-0.003176611	0.002322161	-1.273337E-05	-0.07008442	0	0
17.99625	0.01407802	-0.06614725	-0.003118036	0.002279382	0.00175158	-0.001279228	0	0
18.01251	0.0140254	-0.06614725	-0.00323661	0	-0.003578595	-0.06879187	0	0
18.02907	0.0140254	-0.06614725	0	0	0.09860058	0	0	0
18.04564	0.0140254	-0.06614725	0	0	0	0	0	0
18.06221	0.0140254	-0.06614725	0	0	0	0	0	0
18.07881	0.0140254	-0.06618572	0	-0.002317625	0	-0.06988169	0	0
18.09534	0.0140254	-0.06622419	0	-0.002326447	0	-0.0002662764	0	0
18.11191	0.01397278	-0.06626266	-0.003176189	-0.002322343	-0.09595148	0.0001239694	0	0
18.12884	0.01397278	-0.06626266	0	0	0.09480432	0.06931835	0	0
18.14504	0.01392015	-0.06626266	-0.003248424	0	-0.09803764	0	0	0
18.17838	0.01386753	-0.06622419	-0.001578491	0.00115413	0.03371168	0.02329892	0	0
18.19474	0.01384122	-0.06620496	-0.00160793	0.001175199	-0.0005923411	0.000423934	0	0
18.21131	0.01381491	-0.06618572	-0.001588123	0.001161172	0.0006014995	-0.0004259663	0	0
18.22788	0.01381491	-0.06618572	0	0	0.04792964	-0.03504423	0	0
18.24444	0.0137886	-0.06616648	-0.001588123	0.001161172	-0.04792964	0.03504423	0	0
18.26101	0.0137886	-0.06616648	0	0	0.04792964	-0.03504423	0	0
18.27758	0.0137886	-0.06616648	0	0	0	0	0	0
18.29414	0.01381491	-0.06614725	0.001588123	0.001160722	0.0479324	0.03503267	0	0
18.31071	0.01381491	-0.06614725	0	0	-0.04792964	-0.03503066	0	0
18.32728	0.01381491	-0.06614725	0	0	0	0	0	0
18.34385	0.01381491	-0.06614725	0	0	0	0	0	0
18.36041	0.0137886	-0.06616648	-0.001588306	-0.001160856	-0.04793792	-0.03503671	0	0
18.37698	0.0137886	-0.06616648	0	0	0.04794068	0.03503873	0	0
18.39354	0.01376229	-0.06614725	-0.001588123	0.001160722	-0.0479324	0.03503267	0	0
18.41011	0.01365705	-0.06603184	-0.006352491	0.006966131	-0.1437889	0.1752076	0	0
18.42668	0.0135518	-0.06595491	-0.00635176	0.004643253	2.206302E-05	-0.07010055	0	0
18.44324	0.013315	-0.06578182	-0.01429492	0.01044905	-0.239725	0.1752193	0	0
18.46008	0.01305189	-0.0655895	-0.01562954	0.01142443	-0.03995915	0.02920341	0	0
18.47659	0.01299927	-0.06555104	-0.003187367	0.00232949	0.3731427	-0.2727588	0	0
18.54322	0.01294664	-0.06551258	-0.0007897792	0.000577221	0.02883815	-0.02107627	0	0
18.56015	0.01270984	-0.06533951	-0.01398748	0.01022288	-0.1579446	0.1154353	0	0
18.57635	0.01247304	-0.06516644	-0.01461493	0.01068091	-0.01893764	0.01382431	0	0
18.59292	0.01192049	-0.06480113	-0.03335198	0.02205012	-0.5717718	0.3469378	0	0
18.60948	0.01155212	-0.06453199	-0.0222374	0.01624748	0.335458	-0.1751341	0	0
18.63092	0.01002598	-0.06341723	-0.07119912	0.05200686	-1.288463	0.9410337	0	0
18.64771	0.009499714	-0.06303293	-0.03133262	0.02288035	1.042782	-0.7618579	0	0
18.66472	0.009499714	-0.06303293	0	0	0.9268402	-0.6768164	0	0
18.68062	0.009473401	-0.06297529	-0.001655317	0.003626429	-0.05030505	0.1102071	0	0
18.69719	0.009341833	-0.06287923	-0.007941457	0.005798213	-0.1936397	0.06690016	0	0
18.71376	0.009105012	-0.06270632	-0.01429128	0.0104342	-0.1916158	0.1398983	0	0
18.73032	0.008683993	-0.06239895	-0.02542155	0.0185593	-0.3359318	0.24523	0	0
18.74728	0.002394732	-0.0578116	-0.3707842	0.2704482	-10.30209	7.513787	0	0
18.76379	-0.005710464	-0.05191061	-0.4908695	0.3573776	-3.587424	2.596928	0	0
18.78031	-0.009210266	-0.04936614	-0.2119561	0.1540986	8.445822	-6.155527	0	0
18.79682	-0.01336762	-0.04634626	-0.2517793	0.1828912	-1.205892	0.8718744	0	0
18.81315	-0.01549876	-0.04479928	-0.1304528	0.09469475	3.693533	-2.684957	0	0
18.82972	-0.01684051	-0.04382568	-0.08099779	0.05877366	1.503111	-1.091768	0	0
18.84629	-0.0168142	-0.04384476	0.001588066	-0.001151953	2.49259	-1.808663	0	0
18.86285	-0.0168142	-0.04384476	0	0	-0.04792794	0.034766	0	0
18.87942	-0.0167879	-0.04386385	0.001587954	-0.001152177	0.04792455	-0.03477278	0	0
18.89599	-0.0167879	-0.04386385	0	0	-0.04792179	0.03477078	0	0
18.91256	-0.01668266	-0.0439402	0.00635266	-0.004609015	0.1917237	-0.1391004	0	0
18.92912	-0.01660374	-0.04399747	0.004764959	-0.003457328	-0.04792517	0.03476399	0	0
18.94592	-0.0164985	-0.04407382	0.006261926	-0.004543326	0.04486091	-0.03254506	0	0
18.96226	-0.01636696	-0.04416927	0.008054987	-0.005844547	0.05411157	-0.03926867	0	0
18.97895	-0.01620911	-0.04428381	0.009456097	-0.006861601	0.04242725	-0.03079758	0	0
18.99546	-0.01615649	-0.04436017	0.003187028	-0.004625134	-0.1888096	0.06735715	0	0
19.01197	-0.01599864	-0.04447471	0.009561084	-0.006937926	0.1930361	-0.07004213	0	0
19.02852	-0.01584078	-0.04455108	0.009536957	-0.004613633	-0.0007297458	0.07030108	0	0
19.04509	-0.01584078	-0.04455108	0	0	-0.2879586	0.1393039	0	0
19.06166	-0.01584078	-0.04455108	0	0	0	0	0	0
19.07822	-0.01581447	-0.04457017	0.001588249	-0.001152535	0.04793622	-0.03478557	0	0
19.09479	-0.01578816	-0.04458926	0.001588137	-0.001152535	-3.394356E-06	0	0	0
19.12806	-0.01570923	-0.04464654	0.002372348	-0.001721567	0.01573608	-0.01141828	0	0
19.14456	-0.01568292	-0.04466563	0.001593939	-0.001156889	-0.01563821	0.01134437	0	0
19.16107	-0.01568292	-0.04466563	0	0	-0.04827468	0.03503802	0	0
19.17762	-0.01568292	-0.04466563	0	0	0	0	0	0
19.19419	-0.01568292	-0.04466563	0	0	0	0	0	0
19.21075	-0.01568292	-0.04466563	0	0	0	0	0	0
19.22732	-0.01568292	-0.04466563	0	0	0	0	0	0
19.24389	-0.015604	-0.04472291	0.004764087	-0.003457207	0.1437887	-0.1043447	0	0
19.26045	-0.01549876	-0.04479928	0.006352154	-0.004609834	0.04792795	-0.03478636	0	0
19.27702	-0.01513042	-0.04506661	0.02223276	-0.01613566	0.4792777	-0.34785	0	0
19.29359	-0.01513042	-0.04506661	0	0	-0.6709861	0.486975	0	0
19.33497	-0.0150515	-0.04512389	0.00190715	-0.001384146	0.03290864	-0.02388399	0	0
19.35171	-0.0150515	-0.04512389	0	0	-0.03281145	0.02381345	0	0
19.36822	-0.0150515	-0.04512389	0	0	0	0	0	0
19.38474	-0.0150515	-0.04512389	0	0	0	0	0	0
19.40124	-0.0150515	-0.04512389	0	0	0	0	0	0
19.41781	-0.0150515	-0.04512389	0	0	0	0	0	0
19.43437	-0.0150515	-0.04512389	0	0	0	0	0	0
19.45095	-0.0150515	-0.04512389	0	0	0	0	0	0
19.46751	-0.0150515	-0.04512389	0	0	0	0	0	0
19.48408	-0.0150515	-0.04512389	0	0	0	0	0	0
19.50064	-0.0150515	-0.04512389	0	0	0	0	0	0
19.51721	-0.0150515	-0.04512389	0	0	0	0	0	0
19.53377	-0.0150515	-0.04512389	0	0	0	0	0	0
19.55086	-0.0150515	-0.04512389	0	0	0	0	0	0
19.56691	-0.0150515	-0.04512389	0	0	0	0	0	0
19.58348	-0.0150515	-0.04512389	0	0	0	0	0	0
19.60004	-0.0150515	-0.04512389	0	0	0	0	0	0
19.6169	-0.0150515	-0.04512389	0	0	0	0	0	0
19.63317	-0.0150515	-0.04512389	0	0	0	0	0	0
19.64974	-0.0150515	-0.04512389	0	0	0	0	0	0
19.66631	-0.0150515	-0.04512389	0	0	0	0	0	0
19.68295	-0.0150515	-0.04512389	0	0	0	0	0	0
19.69944	-0.0150515	-0.04512389	0	0	0	0	0	0
19.71601	-0.0150515	-0.04512389	0	0	0	0	0	0
19.73298	-0.0150515	-0.04512389	0	0	0	0	0	0
19.74914	-0.0150515	-0.04512389	0	0	0	0	0	0
19.76571	-0.0150515	-0.04512389	0	0	0	0	0	0
19.78227	-0.0150515	-0.04512389	0	0	0	0	0	0
19.83205	-0.0150515	-0.04512389	0	0	0	0	0	0
19.84854	-0.0150515	-0.04512389	0	0	0	0	0	0
19.8651	-0.0150515	-0.04512389	0	0	0	0	0	0
19.88167	-0.0150515	-0.04512389	0	0	0	0	0	0
19.89861	-0.0150515	-0.04512389	0	0	0	0	0	0
19.9148	-0.0150515	-0.04512389	0	0	0	0	0	0
19.93162	-0.0150515	-0.04512389	0	0	0	0	0	0
19.94813	-0.0150515	-0.04512389	0	0	0	0	0	0
19.99763	-0.0150515	-0.04512389	0	0	0	0	0	0
20.0142	-0.0150515	-0.04512389	0	0	0	0	0	0
20.03077	-0.0150515	-0.04512389	0	0	0	0	0	0
20.04733	-0.0150515	-0.04512389	0	0	0	0	0	0
20.0639	-0.0150515	-0.04512389	0	0	0	0	0	0
20.08047	-0.0150515	-0.04512389	0	0	0	0	0	0
20.09703	-0.0150515	-0.04512389	0	0	0	0	0	0
20.1136	-0.0150515	-0.04512389	0	0	0	0	0	0
20.13025	-0.0150515	-0.04512389	0	0	0	0	0	0
20.14673	-0.0150515	-0.04512389	0	0	0	0	0	0
20.1633	-0.0150515	-0.04512389	0	0	0	0	0	0
20.18444	-0.0150515	-0.04512389	0	0	0	0	0	0
20.20101	-0.0150515	-0.04512389	0	0	0	0	0	0
20.21782	-0.0150515	-0.04512389	0	0	0	0	0	0
20.23433	-0.0150515	-0.04512389	0	0	0	0	0	0
20.25071	-0.0150515	-0.04512389	0	0	0	0	0	0
20.26735	-0.0150515	-0.04512389	0	0	0	0	0	0
20.28384	-0.0150515	-0.04512389	0	0	0	0	0	0
20.30041	-0.0150515	-0.04512389	0	0	0	0	0	0
20.31697	-0.0150515	-0.04512389	0	0	0	0	0	0
20.33354	-0.0150515	-0.04512389	0	0	0	0	0	0
20.35011	-0.0150515	-0.04512389	0	0	0	0	0	0
20.36693	-0.0150515	-0.04512389	0	0	0	0	0	0
20.38324	-0.0150515	-0.04512389	0	0	0	0	0	0
20.39981	-0.0150515	-0.04512389	0	0	0	0	0	0
20.41697	-0.0150515	-0.04512389	0	0	0	0	0	0
20.43294	-0.0150515	-0.04512389	0	0	0	0	0	0
20.4495	-0.0150515	-0.04512389	0	0	0	0	0	0
20.53234	-0.01502519	-0.04514299	0.0003176206	-0.0002305307	0.003195392	-0.002319233	0	0
20.54906	-0.01502519	-0.04514299	0	0	-0.003190495	0.002315678	0	0
20.56557	-0.01502519	-0.04514299	0	0	0	0	0	0
20.58208	-0.01502519	-0.04514299	0	0	0	0	0	0
20.59861	-0.01502519	-0.04514299	0	0	0	0	0	0
20.61517	-0.01502519	-0.04514299	0	0	0	0	0	0
20.63174	-0.01502519	-0.04514299	0	0	0	0	0	0
20.64831	-0.01502519	-0.04514299	0	0	0	0	0	0
20.66488	-0.01502519	-0.04514299	0	0	0	0	0	0
20.68215	-0.01502519	-0.04514299	0	0	0	0	0	0
20.69801	-0.01502519	-0.04514299	0	0	0	0	0	0
20.71457	-0.01502519	-0.04514299	0	0	0	0	0	0
20.73114	-0.01502519	-0.04514299	0	0	0	0	0	0
20.74771	-0.01502519	-0.04514299	0	0	0	0	0	0
20.76472	-0.01502519	-0.04514299	0	0	0	0	0	0
20.78084	-0.01502519	-0.04514299	0	0	0	0	0	0
20.79741	-0.01502519	-0.04514299	0	0	0	0	0	0
20.81401	-0.01502519	-0.04514299	0	0	0	0	0	0
20.83054	-0.01502519	-0.04514299	0	0	0	0	0	0
20.84711	-0.01502519	-0.04514299	0	0	0	0	0	0
20.86368	-0.01502519	-0.04514299	0	0	0	0	0	0
20.89681	-0.01502519	-0.04514299	0	0	0	0	0	0
20.91338	-0.01502519	-0.04514299	0	0	0	0	0	0
20.92994	-0.01502519	-0.04514299	0	0	0	0	0	0
20.94651	-0.01502519	-0.04514299	0	0	0	0	0	0
20.96335	-0.01502519	-0.04514299	0	0	0	0	0	0
20.97964	-0.01502519	-0.04514299	0	0	0	0	0	0
21.01789	-0.01502519	-0.04514299	0	0	0	0	0	0
21.0344	-0.01502519	-0.04514299	0	0	0	0	0	0
21.05091	-0.01502519	-0.04514299	0	0	0	0	0	0
21.06792	-0.01502519	-0.04514299	0	0	0	0	0	0
21.08403	-0.01502519	-0.04514299	0	0	0	0	0	0
21.10095	-0.01502519	-0.04514299	0	0	0	0	0	0
21.11746	-0.01502519	-0.04514299	0	0	0	0	0	0
21.13373	-0.01502519	-0.04514299	0	0	0	0	0	0
21.15048	-0.01513042	-0.04483747	-0.006280625	0.01823309	-0.1901956	0.5521511	0	0
21.16686	-0.0142885	-0.0432722	0.05141046	0.09558029	1.741221	2.334477	0	0
21.18351	-0.0126046	-0.03690503	0.1011169	0.3823425	1.504908	8.681989	0	0
21.19999	-0.01076274	-0.02250412	0.1117534	0.8737671	0.3210105	14.83122	0	0
21.21656	-0.009262893	0.007925489	0.09052067	1.836524	-0.6424323	29.12983	0	0
21.23313	-0.008105085	0.04636261	0.06990153	2.320604	-0.6223224	14.6104	0	0
21.24969	-0.007894573	0.05682725	0.01270656	0.6316468	-1.726347	-50.97868	0	0
21.26626	-0.007289344	0.08921804	0.03653166	1.955112	0.719043	39.94227	0	0
21.28308	-0.006368335	0.1325002	0.05474765	2.572822	0.5455516	18.49982	0	0
21.29959	-0.005105219	0.1709243	0.07650607	2.327325	0.6527627	-7.365022	0	0
21.31596	-0.004421024	0.1934034	0.04179857	1.373281	-1.055617	-29.01693	0	0
21.33262	-0.00376314	0.2142122	0.03950074	1.249409	-0.06958106	-3.751007	0	0
21.34912	-0.002526311	0.2239769	0.07492258	0.5915087	1.068111	-19.83833	0	0
21.36566	0.001499999	0.2284511	0.2435051	0.2705915	5.101928	-9.712135	0	0
21.38223	0.00228947	0.2284511	0.04765255	0	-5.916632	-8.174467	0	0
21.39879	0.00228947	0.2284511	0	0	-1.43824	0	0	0
21.41536	0.00228947	0.2284511	0	0	0	0	0	0
21.43193	0.00228947	0.2284511	0	0	0	0	0	0
21.44849	0.002184207	0.228523	-0.00635512	0.004338079	-0.19182	0.1309385	0	0
21.46521	0.002184207	0.2285589	0	0.002149485	0.1909734	-0.06576794	0	0
21.48162	0.002157891	0.2285769	-0.001602811	0.001094549	-0.04837572	-0.03183987	0	0
21.49819	0.002131576	0.2285948	-0.001588601	0.001083945	0.0004308285	-0.0003214819	0	0
21.51524	0.002157891	0.2285769	0.001543461	-0.001053145	0.09317421	-0.06357528	0	0
21.53132	0.002131576	0.2285589	-0.001636072	-0.001117263	-0.09595849	-0.001935073	0	0
21.54789	0.002131576	0.2285589	0	0	0.05010649	0.03421738	0	0
21.56446	0.002131576	0.2285589	0	0	0	0	0	0
21.5813	0.002131576	0.2285589	0	0	0	0	0	0
21.5978	0.002131576	0.2285589	0	0	0	0	0	0
21.61431	0.002131576	0.2285589	0	0	0	0	0	0
21.63082	0.00210526	0.2285409	-0.001593739	-0.001087451	-0.04826305	-0.03293118	0	0
21.64733	0.00210526	0.2285409	0	0	0.04826026	0.03292928	0	0
21.66386	0.00210526	0.2285409	0	0	0	0	0	0
21.68043	0.002078944	0.228523	-0.001588418	-0.00108472	-0.04799657	-0.03277653	0	0
21.69699	0.002078944	0.228487	0	-0.00216829	0.04793578	-0.03270034	0	0
21.71356	0.002052629	0.2284691	-0.001588784	-0.001084969	-0.04795234	0.03269657	0	0
21.79033	0.001947366	0.2282894	-0.001371198	-0.002339984	0.002331344	-0.01344701	0	0
21.80694	0.001894735	0.2282535	-0.003166991	-0.002162717	-0.01922985	0.001898232	0	0
21.82346	0.001763156	0.2281637	-0.00796686	-0.005438705	-0.1448603	-0.09886954	0	0
21.84002	0.001710525	0.2280918	-0.003177201	-0.004337579	0.1447856	0.03328571	0	0
21.85659	0.001657893	0.22802	-0.003176843	-0.00433708	1.082899E-05	1.506642E-05	0	0
21.87316	0.001605262	0.2279481	-0.003176836	-0.004337979	2.108053E-07	-2.713767E-05	0	0
21.88973	0.001578946	0.2279301	-0.001588242	-0.001084595	0.04794109	0.09818168	0	0
21.90629	0.001578946	0.2279301	0	0	0.04793324	0.03273313	0	0
21.92286	0.001578946	0.2279301	0	0	0	0	0	0
21.93943	0.001578946	0.2279301	0	0	0	0	0	0
21.95605	0.001578946	0.2279301	0	0	0	0	0	0
21.97256	0.001578946	0.2279301	0	0	0	0	0	0
21.98913	0.001578946	0.2279301	0	0	0	0	0	0
22.00609	0.00155263	0.2279122	-0.001551619	-0.001058711	-0.04628444	-0.03158111	0	0
22.02226	0.00155263	0.2279122	0	0	0.04683065	0.03195382	0	0
22.03883	0.00155263	0.2279122	0	0	0	0	0	0
22.0554	0.00155263	0.2279122	0	0	0	0	0	0
22.07196	0.00155263	0.2279122	0	0	0	0	0	0
22.08853	0.00155263	0.2279122	0	0	0	0	0	0
22.10509	0.001526315	0.2278942	-0.001588418	-0.00108472	-0.04793854	-0.0327369	0	0
22.12166	0.001473683	0.2278223	-0.003176843	-0.00433708	-0.04793876	-0.09815642	0	0
22.13823	0.001394736	0.2277325	-0.004765267	-0.005422699	-0.04793876	-0.03276405	0	0
22.1548	0.00136842	0.2276427	-0.001588235	-0.005421175	0.09587751	4.598101E-05	0	0
22.17136	0.001657893	0.226942	0.01747464	-0.04229904	0.5753186	-1.112976	0	0
22.18793	0.002052629	0.2262412	0.02382628	-0.04229687	0.191704	6.555016E-05	0	0
22.2045	0.00460523	0.2230962	0.1540576	-0.1898122	3.930163	-4.451765	0	0
22.22107	0.005736779	0.2106669	0.0683004	-0.7502366	-2.588009	-16.91267	0	0
22.23763	0.005394685	0.1940709	-0.02064886	-1.001737	-2.684494	-7.590291	0	0
22.25427	0.004842068	0.1657817	-0.03321835	-1.70049	-0.3785637	-21.0448	0	0
22.27077	0.004842068	0.1496375	0	-0.9785206	1.002532	21.78907	0	0
22.28734	0.004894698	0.123564	0.003176751	-1.573799	0.09607363	-18.00285	0	0
22.30431	0.004763122	0.09634617	-0.007752713	-1.60373	-0.325875	-0.8924199	0	0
22.32047	0.004368393	0.05975382	-0.02442193	-2.263975	-0.5030779	-19.92625	0	0
22.33704	0.003894717	0.03381918	-0.02859443	-1.565598	-0.1274896	21.3387	0	0
22.3536	0.003815771	0.003622402	-0.004765211	-1.822681	0.7192087	-7.759233	0	0
22.37017	0.004026294	-0.01508267	0.01270722	-1.12904	0.5273189	20.93413	0	0
22.38686	0.004447339	-0.03039919	0.02522267	-0.917535	0.3762875	6.359088	0	0
22.40338	0.004868383	-0.04552492	0.02549937	-0.9160497	0.008333176	0.04473082	0	0
22.42552	0.006763055	-0.05777324	0.08555284	-0.5530656	1.55345	9.38959	0	0
22.44209	0.0070262	-0.05957657	0.01588165	-0.1088367	-1.799575	11.47423	0	0
22.45892	0.007289344	-0.06234132	0.01564033	-0.1643269	-0.007226272	-1.661687	0	0
22.47522	0.007289344	-0.06234132	0	0	-0.4720534	4.959681	0	0
22.49179	0.007289344	-0.06234132	0	0	0	0	0	0
22.50836	0.007315659	-0.06236053	0.001588347	-0.001159373	0.04793642	-0.03498994	0	0
22.52496	0.007315659	-0.06236053	0	0	-0.04788405	0.03495172	0	0
22.54149	0.007315659	-0.06236053	0	0	0	0	0	0
22.55806	0.007315659	-0.06236053	0	0	0	0	0	0
22.62081	0.007368288	-0.06239895	0.0008386532	-0.0006122178	0.01057291	-0.00771824	0	0
22.63738	0.007473545	-0.06247579	0.006353362	-0.004637941	0.06952403	-0.05075236	0	0
22.65406	0.009210266	-0.06374393	0.1040976	-0.07601111	2.939606	-2.146509	0	0
22.67057	0.0102628	-0.06451277	0.06376584	-0.0465789	-1.215187	0.8867855	0	0
22.70365	0.01442005	-0.06751325	0.1256833	-0.09071141	1.248752	-0.8900657	0	0
22.72021	0.01439374	-0.067494	-0.001588066	0.001161621	-2.563656	1.85062	0	0
22.73712	0.01439374	-0.067494	0	0	0.04744724	-0.03470619	0	0
22.75335	0.01439374	-0.067494	0	0	0	0	0	0
22.77014	0.01439374	-0.067494	0	0	0	0	0	0
22.78648	0.01442005	-0.06751325	0.001609938	-0.001177619	0.04859081	-0.03554267	0	0
22.80305	0.01439374	-0.067494	-0.001588066	0.001161621	-0.09717603	0.07108125	0	0
22.81967	0.01439374	-0.067494	0	0	0.04784257	-0.03499535	0	0
22.83618	0.01439374	-0.067494	0	0	0	0	0	0
22.85275	0.01439374	-0.067494	0	0	0	0	0	0
22.86971	0.01439374	-0.067494	0	0	0	0	0	0
22.88588	0.01439374	-0.067494	0	0	0	0	0	0
22.90245	0.01439374	-0.067494	0	0	0	0	0	0
22.91902	0.01439374	-0.067494	0	0	0	0	0	0
22.93576	0.01439374	-0.067494	0	0	0	0	0	0
22.95227	0.01439374	-0.067494	0	0	0	0	0	0
22.96878	0.01439374	-0.067494	0	0	0	0	0	0
22.98529	0.01439374	-0.067494	0	0	0	0	0	0
23.00185	0.01439374	-0.067494	0	0	0	0	0	0
23.01841	0.01439374	-0.067494	0	0	0	0	0	0
23.03498	0.01439374	-0.067494	0	0	0	0	0	0
23.05155	0.01439374	-0.067494	0	0	0	0	0	0
23.06811	0.01439374	-0.067494	0	0	0	0	0	0
23.08468	0.01439374	-0.067494	0	0	0	0	0	0
23.10125	0.01439374	-0.067494	0	0	0	0	0	0
23.11788	0.01439374	-0.067494	0	0	0	0	0	0
23.13439	0.01439374	-0.067494	0	0	0	0	0	0
23.15095	0.01442005	-0.06747476	0.00158953	0.001162692	0.04807729	0.03516705	0	0
23.16792	0.01442005	-0.06747476	0	0	-0.04741263	-0.03468087	0	0
23.18408	0.01442005	-0.06747476	0	0	0	0	0	0
23.20511	0.01442005	-0.06747476	0	0	0	0	0	0
23.22196	0.01442005	-0.06747476	0	0	0	0	0	0
23.23825	0.01442005	-0.06747476	0	0	0	0	0	0
23.25498	0.01442005	-0.06747476	0	0	0	0	0	0
23.27138	0.01442005	-0.06747476	0	0	0	0	0	0
23.288	0.01442005	-0.06747476	0	0	0	0	0	0
23.30451	0.01442005	-0.06747476	0	0	0	0	0	0
23.32108	0.01442005	-0.06747476	0	0	0	0	0	0
23.33764	0.01442005	-0.06747476	0	0	0	0	0	0
23.35455	0.01442005	-0.06747476	0	0	0	0	0	0
23.37078	0.01442005	-0.06747476	0	0	0	0	0	0
23.38735	0.01442005	-0.06747476	0	0	0	0	0	0
23.40391	0.01442005	-0.06747476	0	0	0	0	0	0
23.42048	0.01442005	-0.06747476	0	0	0	0	0	0
23.43705	0.01442005	-0.06747476	0	0	0	0	0	0
23.45362	0.01442005	-0.06747476	0	0	0	0	0	0
23.47063	0.01442005	-0.06747476	0	0	0	0	0	0
23.48675	0.01442005	-0.06747476	0	0	0	0	0	0
23.50331	0.01442005	-0.06747476	0	0	0	0	0	0
23.58615	0.01442005	-0.06747476	0	0	0	0	0	0
23.60271	0.01442005	-0.06747476	0	0	0	0	0	0
23.61928	0.01442005	-0.06747476	0	0	0	0	0	0
23.63585	0.01442005	-0.06747476	0	0	0	0	0	0
23.65241	0.01442005	-0.06747476	0	0	0	0	0	0
23.66898	0.01442005	-0.06747476	0	0	0	0	0	0
23.68578	0.01442005	-0.06747476	0	0	0	0	0	0
23.70211	0.01442005	-0.06747476	0	0	0	0	0	0
23.71881	0.01442005	-0.06747476	0	0	0	0	0	0
23.73525	0.01442005	-0.06747476	0	0	0	0	0	0
23.75181	0.01442005	-0.06747476	0	0	0	0	0	0
23.76838	0.01442005	-0.06747476	0	0	0	0	0	0
23.78495	0.01442005	-0.06747476	0	0	0	0	0	0
23.80151	0.01442005	-0.06747476	0	0	0	0	0	0
23.81808	0.01442005	-0.06747476	0	0	0	0	0	0
23.83539	0.01442005	-0.06747476	0	0	0	0	0	0
23.85121	0.01442005	-0.06747476	0	0	0	0	0	0
23.86791	0.01442005	-0.06747476	0	0	0	0	0	0
23.88435	0.01442005	-0.06747476	0	0	0	0	0	0
23.90092	0.01442005	-0.06747476	0	0	0	0	0	0
23.91748	0.01442005	-0.06747476	0	0	0	0	0	0
23.93405	0.01442005	-0.06747476	0	0	0	0	0	0
23.95061	0.01442005	-0.06747476	0	0	0	0	0	0
23.96718	0.01442005	-0.06747476	0	0	0	0	0	0
23.984	0.01442005	-0.06747476	0	0	0	0	0	0
24.00031	0.01442005	-0.06747476	0	0	0	0	0	0
24.02255	0.01442005	-0.06747476	0	0	0	0	0	0
24.03912	0.01442005	-0.06747476	0	0	0	0	0	0
24.05568	0.01442005	-0.06747476	0	0	0	0	0	0
24.08882	0.01442005	-0.06747476	0	0	0	0	0	0
24.11144	0.01442005	-0.06747476	0	0	0	0	0	0
24.12801	0.01442005	-0.06747476	0	0	0	0	0	0
24.14461	0.01442005	-0.06747476	0	0	0	0	0	0
24.16114	0.01442005	-0.06747476	0	0	0	0	0	0
24.17771	0.01442005	-0.06747476	0	0	0	0	0	0
24.19428	0.01442005	-0.06747476	0	0	0	0	0	0
24.21084	0.01442005	-0.06747476	0	0	0	0	0	0
24.22741	0.01442005	-0.06747476	0	0	0	0	0	0
24.24398	0.01442005	-0.06747476	0	0	0	0	0	0
24.26054	0.01442005	-0.06747476	0	0	0	0	0	0
24.29368	0.01442005	-0.06747476	0	0	0	0	0	0
24.31024	0.01442005	-0.06747476	0	0	0	0	0	0
24.32681	0.01442005	-0.06747476	0	0	0	0	0	0
24.34338	0.01442005	-0.06747476	0	0	0	0	0	0
24.35995	0.01442005	-0.06747476	0	0	0	0	0	0
24.37651	0.01442005	-0.06747476	0	0	0	0	0	0
24.39329	0.01442005	-0.06747476	0	0	0	0	0	0
24.40965	0.01442005	-0.06747476	0	0	0	0	0	0
24.42622	0.01442005	-0.06747476	0	0	0	0	0	0
24.44278	0.01442005	-0.06747476	0	0	0	0	0	0
24.45935	0.01442005	-0.06747476	0	0	0	0	0	0
24.47592	0.01442005	-0.06747476	0	0	0	0	0	0
24.49248	0.01442005	-0.06747476	0	0	0	0	0	0
24.50905	0.01442005	-0.06747476	0	0	0	0	0	0
24.57532	0.01442005	-0.06747476	0	0	0	0	0	0
24.59194	0.01442005	-0.06747476	0	0	0	0	0	0
24.60845	0.01442005	-0.06747476	0	0	0	0	0	0
24.62502	0.01442005	-0.06747476	0	0	0	0	0	0
24.64158	0.01442005	-0.06747476	0	0	0	0	0	0
24.65815	0.01442005	-0.06747476	0	0	0	0	0	0
24.67472	0.01442005	-0.06747476	0	0	0	0	0	0
24.69128	0.01442005	-0.06747476	0	0	0	0	0	0
24.70801	0.01442005	-0.06747476	0	0	0	0	0	0
24.72453	0.01442005	-0.06747476	0	0	0	0	0	0
24.74104	0.01442005	-0.06747476	0	0	0	0	0	0
24.75755	0.01442005	-0.06747476	0	0	0	0	0	0
24.79558	0.01442005	-0.06747476	0	0	0	0	0	0
24.81209	0.01442005	-0.06747476	0	0	0	0	0	0
24.8286	0.01442005	-0.06747476	0	0	0	0	0	0
24.84508	0.01442005	-0.06747476	0	0	0	0	0	0
24.86165	0.01442005	-0.06747476	0	0	0	0	0	0
24.87821	0.01442005	-0.06747476	0	0	0	0	0	0
24.89478	0.01442005	-0.06747476	0	0	0	0	0	0
24.91135	0.01442005	-0.06747476	0	0	0	0	0	0
24.92791	0.01442005	-0.06747476	0	0	0	0	0	0
24.94448	0.01442005	-0.06747476	0	0	0	0	0	0
24.96119	0.01442005	-0.06747476	0	0	0	0	0	0
24.97771	0.01442005	-0.06747476	0	0	0	0	0	0
24.99418	0.01442005	-0.06747476	0	0	0	0	0	0
25.01075	0.01442005	-0.06747476	0	0	0	0	0	0
25.02774	0.01442005	-0.06747476	0	0	0	0	0	0
25.04388	0.01442005	-0.06747476	0	0	0	0	0	0
25.06077	0.01442005	-0.06747476	0	0	0	0	0	0
25.07702	0.01442005	-0.06747476	0	0	0	0	0	0
25.09379	0.01442005	-0.06747476	0	0	0	0	0	0
25.11015	0.01442005	-0.06747476	0	0	0	0	0	0
25.12682	0.01442005	-0.06747476	0	0	0	0	0	0
25.14329	0.01442005	-0.06747476	0	0	0	0	0	0
25.15985	0.01442005	-0.06747476	0	0	0	0	0	0
25.17642	0.01442005	-0.06747476	0	0	0	0	0	0
25.19299	0.01442005	-0.06747476	0	0	0	0	0	0
25.20988	0.01442005	-0.06747476	0	0	0	0	0	0
25.22612	0.01442005	-0.06747476	0	0	0	0	0	0
25.24269	0.01442005	-0.06747476	0	0	0	0	0	0
25.25941	0.01442005	-0.06747476	0	0	0	0	0	0
25.27582	0.01442005	-0.06747476	0	0	0	0	0	0
25.29239	0.01442005	-0.06747476	0	0	0	0	0	0
25.30896	0.01442005	-0.06747476	0	0	0	0	0	0
25.32553	0.01442005	-0.06747476	0	0	0	0	0	0
25.34209	0.01442005	-0.06747476	0	0	0	0	0	0
25.44149	0.01442005	-0.06747476	0	0	0	0	0	0
25.45806	0.01442005	-0.06747476	0	0	0	0	0	0
25.47463	0.01442005	-0.06747476	0	0	0	0	0	0
25.49159	0.01442005	-0.06747476	0	0	0	0	0	0
25.50776	0.01442005	-0.06747476	0	0	0	0	0	0
25.5312	0.01442005	-0.06747476	0	0	0	0	0	0
25.54777	0.01442005	-0.06747476	0	0	0	0	0	0
25.56434	0.01442005	-0.06747476	0	0	0	0	0	0
25.58091	0.01442005	-0.06747476	0	0	0	0	0	0
25.59747	0.01442005	-0.06747476	0	0	0	0	0	0
25.61404	0.01442005	-0.06747476	0	0	0	0	0	0
25.63069	0.01442005	-0.06747476	0	0	0	0	0	0
25.64717	0.01442005	-0.06747476	0	0	0	0	0	0
25.66374	0.01442005	-0.06747476	0	0	0	0	0	0
25.6803	0.01442005	-0.06747476	0	0	0	0	0	0
25.69687	0.01442005	-0.06747476	0	0	0	0	0	0
25.71344	0.01442005	-0.06747476	0	0	0	0	0	0
25.73026	0.01442005	-0.06747476	0	0	0	0	0	0
25.74657	0.01442005	-0.06747476	0	0	0	0	0	0
25.76314	0.01442005	-0.06747476	0	0	0	0	0	0
25.77971	0.01442005	-0.06747476	0	0	0	0	0	0
25.7963	0.01442005	-0.06747476	0	0	0	0	0	0
25.81284	0.01442005	-0.06747476	0	0	0	0	0	0
25.8294	0.01442005	-0.06747476	0	0	0	0	0	0
25.84597	0.01442005	-0.06747476	0	0	0	0	0	0
25.86254	0.01442005	-0.06747476	0	0	0	0	0	0
25.87911	0.01442005	-0.06747476	0	0	0	0	0	0
25.8959	0.01442005	-0.06747476	0	0	0	0	0	0
25.91224	0.01442005	-0.06747476	0	0	0	0	0	0
25.9289	0.01442005	-0.06747476	0	0	0	0	0	0
25.94541	0.01442005	-0.06747476	0	0	0	0	0	0
25.96194	0.01442005	-0.06747476	0	0	0	0	0	0
25.97851	0.01442005	-0.06747476	0	0	0	0	0	0
25.99507	0.01442005	-0.06747476	0	0	0	0	0	0
26.01164	0.01442005	-0.06747476	0	0	0	0	0	0
26.0282	0.01442005	-0.06747476	0	0	0	0	0	0
26.04477	0.01442005	-0.06747476	0	0	0	0	0	0
26.06149	0.01442005	-0.06747476	0	0	0	0	0	0
26.07791	0.01442005	-0.06747476	0	0	0	0	0	0
26.09447	0.01442005	-0.06747476	0	0	0	0	0	0
26.2106	0.01442005	-0.06747476	0	0	0	0	0	0
26.22701	0.01442005	-0.06747476	0	0	0	0	0	0
26.24362	0.01442005	-0.06747476	0	0	0	0	0	0
26.26063	0.01442005	-0.06747476	0	0	0	0	0	0
26.27671	0.01442005	-0.06747476	0	0	0	0	0	0
26.29328	0.01442005	-0.06747476	0	0	0	0	0	0
26.30984	0.01442005	-0.06747476	0	0	0	0	0	0
26.33166	0.01442005	-0.06747476	0	0	0	0	0	0
26.34822	0.01442005	-0.06747476	0	0	0	0	0	0
26.36479	0.01442005	-0.06747476	0	0	0	0	0	0
26.38136	0.01442005	-0.06747476	0	0	0	0	0	0
26.39793	0.01442005	-0.06747476	0	0	0	0	0	0
26.4145	0.01442005	-0.06747476	0	0	0	0	0	0
26.43106	0.01442005	-0.06747476	0	0	0	0	0	0
26.46428	0.01442005	-0.06747476	0	0	0	0	0	0
26.48079	0.01442005	-0.06747476	0	0	0	0	0	0
26.49733	0.01442005	-0.06747476	0	0	0	0	0	0
26.51389	0.01442005	-0.06747476	0	0	0	0	0	0
26.53046	0.01442005	-0.06747476	0	0	0	0	0	0
26.54734	0.01442005	-0.06747476	0	0	0	0	0	0
26.56359	0.01442005	-0.06747476	0	0	0	0	0	0
26.58016	0.01442005	-0.06747476	0	0	0	0	0	0
26.59673	0.01442005	-0.06747476	0	0	0	0	0	0
26.61339	0.01442005	-0.06747476	0	0	0	0	0	0
26.62986	0.01442005	-0.06747476	0	0	0	0	0	0
26.64643	0.01442005	-0.06747476	0	0	0	0	0	0
26.70019	0.01442005	-0.06747476	0	0	0	0	0	0
26.71675	0.01442005	-0.06747476	0	0	0	0	0	0
26.73332	0.01442005	-0.06747476	0	0	0	0	0	0
26.74989	0.01442005	-0.06747476	0	0	0	0	0	0
26.76646	0.01442005	-0.06747476	0	0	0	0	0	0
26.78302	0.01442005	-0.06747476	0	0	0	0	0	0
26.79959	0.01442005	-0.06747476	0	0	0	0	0	0
26.81616	0.01442005	-0.06747476	0	0	0	0	0	0
26.83273	0.01442005	-0.06747476	0	0	0	0	0	0
26.84929	0.01442005	-0.06743628	0	0.002323061	0	0.07011414	0	0
26.86607	0.01439374	-0.06726309	-0.001568385	0.01032414	-0.0470415	0.239981	0	0
26.88243	0.01381491	-0.06599338	-0.03538243	0.077614	-1.02051	2.030812	0	0
26.96526	0.004947328	-0.03034218	-0.1070521	0.430392	-0.7225236	3.55646	0	0
26.98183	0.004763122	-0.01549872	-0.01111871	0.8959529	0.9651107	4.683642	0	0
26.99839	0.004368393	-0.006452261	-0.02382586	0.5460455	-0.3835024	-10.56023	0	0
27.01496	0.003894717	6.680187E-05	-0.02858785	0.3934461	-0.1437089	-4.605193	0	0
27.03153	0.0005	0.003171107	-0.2049527	0.1874194	-5.323009	-6.218258	0	0
27.04809	-0.0001842105	0.003660008	-0.04129903	0.02951013	4.939647	-4.766259	0	0
27.06471	-0.0003421053	0.003509584	-0.009501011	-0.009051444	0.9581768	-1.161984	0	0
27.08124	-0.0008684208	0.00279498	-0.03184913	-0.0432431	-0.6742737	-1.031609	0	0
27.09824	-0.001973682	0.001553464	-0.06501459	-0.0730295	-0.9892614	-0.8884708	0	0
27.13092	-0.003868402	-0.0008556384	-0.05796691	-0.0737039	0.141843	-0.01357321	0	0
27.14749	-0.002078944	-0.002399887	0.1080119	-0.09321101	3.36989	-0.3960556	0	0
27.16428	-0.0006842104	-0.003323013	0.08309571	-0.05499818	-0.7470686	1.145747	0	0
27.18079	-0.0006315788	-0.003172281	0.003187124	0.009127639	-2.399766	1.925788	0	0
27.21998	-0.000368421	-0.002870837	0.006715199	0.007692165	0.06333817	-0.02577051	0	0
27.23654	0.003447355	4.797911E-05	0.2303472	0.1762004	4.01107	3.022368	0	0
27.25311	0.00939446	0.004299233	0.358968	0.2566062	3.882007	2.426792	0	0
27.26968	0.01773498	0.01025327	0.5034928	0.359428	4.362019	3.103348	0	0
27.28624	0.03080604	0.01956747	0.7889706	0.5622058	8.616234	6.120197	0	0
27.30281	0.04137112	0.02704592	0.6377094	0.4514002	-4.565074	-3.344119	0	0
27.31939	0.05630883	0.03762016	0.9010198	0.6378217	7.943981	5.62427	0	0
27.33595	0.06401767	0.04309121	0.4656279	0.3304618	-13.14015	-9.276142	0	0
27.35291	0.08019605	0.05464016	0.9534771	0.6806402	14.55243	10.44574	0	0
27.36908	0.09218534	0.06317779	0.7416045	0.5281	-6.394329	-4.603671	0	0
27.38593	0.1041221	0.071642	0.7081921	0.5021708	-1.011826	-0.785212	0	0
27.40245	0.1192214	0.08239146	0.9142371	0.6508623	6.174379	4.455713	0	0
27.41896	0.1296114	0.08980636	0.6293164	0.4491149	-8.627229	-6.10879	0	0
27.43535	0.1387346	0.09643795	0.5567654	0.4047104	-2.205463	-1.349844	0	0
27.45191	0.1478346	0.1030232	0.5492765	0.3974877	-0.2272602	-0.2191805	0	0
27.46848	0.1538534	0.1073105	0.3632974	0.2587834	-5.612858	-4.186103	0	0
27.48505	0.1612457	0.1125819	0.446202	0.3181822	2.502066	1.792658	0	0
27.50161	0.1644744	0.1148864	0.1949023	0.1391111	-7.584678	-5.404688	0	0
27.51818	0.16816	0.1174821	0.2224638	0.1566799	0.8318543	0.5302597	0	0
27.53504	0.1685436	0.1177197	0.02275346	0.0140899	-5.974308	-4.265562	0	0
27.55132	0.1684669	0.117738	-0.004714787	0.00112307	-0.8289934	-0.3913396	0	0
27.56807	0.168339	0.1178293	-0.00763371	0.005453984	-0.08838326	0.1311375	0	0
27.60102	0.1677507	0.1182496	-0.0178565	0.01275603	-0.2056908	0.1469231	0	0
27.61758	0.1672902	0.1185785	-0.02779707	0.0198519	-0.2007597	0.1433081	0	0
27.63415	0.1645256	0.1205514	-0.1668513	0.1190698	-4.196424	2.99423	0	0
27.65072	0.1628605	0.1217384	-0.1005057	0.07164771	2.002201	-1.431119	0	0
27.66728	0.1604252	0.1234727	-0.1470081	0.1046978	-1.403528	0.9975125	0	0
27.70042	0.157218	0.1257539	-0.09679324	0.06884485	1.010364	-0.7213914	0	0
27.71699	0.1572437	0.1257356	0.001548829	-0.00110091	1.978646	-1.407311	0	0
27.73355	0.157218	0.1257539	-0.001548829	0.00110091	-0.09348748	0.06645104	0	0
27.75012	0.157218	0.1257539	0	0	0.04674374	-0.03322552	0	0
27.76669	0.1571924	0.1257721	-0.001549728	0.001101809	-0.04677088	0.03325266	0	0
27.78325	0.1569356	0.1259911	-0.01549548	0.01321451	-0.4208837	0.3655621	0	0
27.79982	0.1543673	0.1278152	-0.1550428	0.1101153	-4.211789	2.92464	0	0
27.81639	0.1435325	0.1354876	-0.6539933	0.4631105	-15.05922	10.65403	0	0
27.83295	0.1333616	0.142658	-0.6139135	0.4328067	1.20961	-0.9145707	0	0
27.84978	0.122826	0.1500553	-0.6261296	0.4396156	-0.3658167	0.203897	0	0
27.86609	0.1163666	0.1545761	-0.3960878	0.2772204	6.942674	-4.901098	0	0
27.88265	0.1022735	0.1644048	-0.850761	0.5933263	-13.83114	9.61593	0	0
27.89931	0.09573279	0.1689511	-0.3926732	0.2729374	13.78861	-9.643821	0	0
27.91579	0.09030634	0.172716	-0.3292847	0.2284632	1.912959	-1.342158	0	0
27.93236	0.08524032	0.1762256	-0.3058209	0.2118622	0.7100586	-0.5023769	0	0
27.94892	0.08037908	0.1795887	-0.2934252	0.2029964	0.3741248	-0.2675868	0	0
28.01519	0.07849628	0.1808901	-0.02841231	0.01963862	3.199316	-2.21355	0	0
28.04507	0.07849628	0.1808901	0	0	0.2955191	-0.2042632	0	0
28.06163	0.07849628	0.1808901	0	0	0	0	0	0
28.0782	0.07852243	0.180872	0.00157851	-0.001091016	0.04763952	-0.03292692	0	0
28.09477	0.07852243	0.180872	0	0	-0.04763952	0.03292692	0	0
28.11134	0.07849628	0.1808901	-0.00157851	0.001091016	-0.04763952	0.03292692	0	0
28.12797	0.07847012	0.1809081	-0.001572442	0.001085617	0.0001827373	-0.0001626015	0	0
28.14447	0.07847012	0.1809081	0	0	0.04745641	-0.03276398	0	0
28.16104	0.07847012	0.1809081	0	0	0	0	0	0
28.1776	0.07847012	0.1809081	0	0	0	0	0	0
28.19417	0.07847012	0.1809081	0	0	0	0	0	0
28.21074	0.07847012	0.180872	0	-0.002181132	0	-0.0658267	0	0
28.2273	0.07849628	0.1808539	0.00157896	-0.001091016	0.0476531	0.03289977	0	0
28.24405	0.07852243	0.1808358	0.001561255	-0.001079089	-0.0005314021	0.0003579613	0	0
28.26056	0.07857473	0.1807997	0.003167595	-0.002189341	0.04829321	-0.03337873	0	0
28.277	0.07867935	0.1807274	0.006364314	-0.004397591	0.09701888	-0.06701932	0	0
28.29359	0.07875781	0.1806732	0.004731078	-0.003269659	-0.04945914	0.03415704	0	0
28.31013	0.07894088	0.1805105	0.01106276	-0.009829558	0.1911014	-0.1979895	0	0
28.3267	0.07896703	0.1804924	0.00157851	-0.001091016	-0.2864	0.2638817	0	0
28.34327	0.07899318	0.1804744	0.00157851	-0.001091016	0	0	0	0
28.36013	0.07899318	0.1804744	0	0	-0.04721553	0.03263387	0	0
28.3764	0.07899318	0.1804744	0	0	0	0	0	0
28.39297	0.07899318	0.1804744	0	0	0	0	0	0
28.40954	0.07899318	0.1804744	0	0	0	0	0	0
28.42611	0.07896703	0.1804563	-0.001578328	-0.00109089	-0.0476313	-0.03292124	0	0
28.44267	0.07896703	0.1804563	0	0	0.04763404	0.03292313	0	0
28.45924	0.07896703	0.1804563	0	0	0	0	0	0
28.47581	0.07894088	0.1804382	-0.00157851	-0.001091016	-0.04764227	-0.03292882	0	0
28.49237	0.07894088	0.1804382	0	0	0.04763952	0.03292692	0	0
28.50894	0.07894088	0.1804382	0	0	0	0	0	0
28.52551	0.07891472	0.1804201	-0.00157851	-0.001091016	-0.04763952	-0.03292692	0	0
28.54227	0.07888857	0.1804021	-0.001560366	-0.001078475	0.0005444156	0.0003762851	0	0
28.55864	0.07875781	0.1802755	-0.007986789	-0.007727859	-0.193961	-0.2006903	0	0
28.57521	0.07862704	0.1801852	-0.007893	-0.005454179	0.002847271	0.06902505	0	0
28.59177	0.07852243	0.1801129	-0.00631449	-0.004364063	0.04763953	0.03289977	0	0
28.60834	0.07847012	0.1800767	-0.00315747	-0.002182032	0.09527905	0.06585384	0	0
28.62491	0.07844397	0.1800587	-0.00157851	-0.001091016	0.0476531	0.03292692	0	0
28.64148	0.07839166	0.1799863	-0.00315747	-0.004364962	-0.0476531	-0.0988079	0	0
28.65804	0.0783655	0.1799321	-0.001578328	-0.00327267	0.04765584	0.03296354	0	0
28.67461	0.07833935	0.179914	-0.00157896	-0.001091016	-1.90557E-05	0.06583867	0	0
28.69118	0.07831319	0.179896	-0.001578692	-0.001091141	8.084848E-06	-3.7912E-06	0	0
28.70789	0.07823473	0.1798417	-0.004695436	-0.003245028	-0.09366455	-0.0647287	0	0
28.72431	0.07820857	0.1798237	-0.001592897	-0.001100646	0.09364022	0.06472129	0	0
28.74091	0.07815626	0.1797875	-0.00315094	-0.002177519	-0.04717935	-0.03260896	0	0
28.77894	0.07760698	0.1793356	-0.014444	-0.01188371	-0.2067179	-0.1776706	0	0
28.79513	0.0766914	0.1785944	-0.05656698	-0.04579325	-0.7769693	-0.6254702	0	0
28.81169	0.07417943	0.17675	-0.1516224	-0.111325	-2.902191	-2.000786	0	0
28.9111	0.04867205	0.1087388	-0.2566047	-0.6841946	-0.9052494	-4.939783	0	0
28.92766	0.04756935	0.09054165	-0.06656704	-1.098508	1.638698	-3.572632	0	0
28.94423	0.04657156	0.07806177	-0.06022645	-0.753287	0.1913704	10.41939	0	0
28.96079	0.0444444	0.05319379	-0.1284108	-1.501207	-2.057927	-22.57357	0	0
28.97758	0.04252698	0.03491889	-0.1142105	-1.088538	0.4257471	12.37247	0	0
28.99409	0.03974222	0.01166044	-0.1686512	-1.408585	-1.634836	-9.610909	0	0
29.0105	0.03761383	-0.004529118	-0.1297696	-0.9870906	1.181338	12.80625	0	0
29.02706	0.03443375	-0.02375537	-0.19195	-1.160499	-1.886053	-5.259817	0	0
29.04363	0.03193651	-0.03669556	-0.150734	-0.7810712	1.243901	11.45115	0	0
29.0602	0.02746678	-0.05059027	-0.2697935	-0.8386864	-3.593225	-1.738829	0	0
29.07677	0.02323266	-0.05900092	-0.2555717	-0.5076677	0.4292171	9.990164	0	0
29.09333	0.01694575	-0.06470501	-0.379479	-0.3442996	-3.73953	4.930461	0	0
29.1099	0.01081537	-0.06914947	-0.3700303	-0.2682684	0.2851599	2.294624	0	0
29.12669	0.006605167	-0.07219347	-0.2507222	-0.1812733	3.576435	2.607806	0	0
29.14303	-0.003105253	-0.07935423	-0.5941943	-0.438177	-10.36601	-7.753371	0	0
29.1596	-0.008605051	-0.08335771	-0.3320067	-0.2416784	7.967415	5.971245	0	0
29.17623	-0.01481471	-0.08792928	-0.3734397	-0.2749278	-1.248224	-1.001682	0	0
29.19273	-0.01910294	-0.09113013	-0.2598254	-0.1939406	3.429085	2.444338	0	0
29.2093	-0.02370608	-0.09452917	-0.2778464	-0.2051663	-0.5449114	-0.3394362	0	0
29.22587	-0.02978067	-0.09898366	-0.3666626	-0.2688738	-2.680476	-1.922696	0	0
29.24243	-0.03191022	-0.1005611	-0.1285399	-0.09521293	7.186555	5.241094	0	0
29.259	-0.03401319	-0.1021199	-0.1269504	-0.09410442	0.04797462	0.03345689	0	0
29.27557	-0.03624728	-0.1037773	-0.1348495	-0.1000366	-0.2384083	-0.1790441	0	0
29.29213	-0.03714081	-0.1042454	-0.05393998	-0.02826038	2.441995	2.166336	0	0
29.30882	-0.03716709	-0.1041869	-0.001574554	0.003506696	1.574681	0.955268	0	0
29.32527	-0.03716709	-0.1041479	0	0.002372655	0.04752012	-0.03422543	0	0
29.34184	-0.03714081	-0.1040894	0.00158506	0.003529646	0.04799746	0.03503504	0	0
29.3584	-0.03706197	-0.1040308	0.004762753	0.003534934	0.09590849	0.0001595747	0	0
29.37497	-0.03695685	-0.1039138	0.006344846	0.007064169	0.04776688	0.1065555	0	0
29.39153	-0.03682545	-0.1038163	0.007932364	0.005887486	0.04791416	-0.03551443	0	0
29.40839	-0.03664149	-0.1037188	0.01091178	0.005784467	0.089139	-0.003082129	0	0
29.42467	-0.03656265	-0.1036602	0.004844015	0.003594958	-0.1831255	-0.06607951	0	0
29.44141	-0.03651008	-0.1036212	0.003138435	0.002328803	-0.05164697	-0.03834065	0	0
29.45792	-0.03648381	-0.1036017	0.001591653	0.001181442	-0.04650796	-0.03449834	0	0
29.47436	-0.03648381	-0.1036017	0	0	-0.0483059	-0.0358562	0	0
29.49095	-0.03640496	-0.1035822	0.004754214	0.001176143	0.1439631	0.03561497	0	0
29.5075	-0.03632612	-0.1035627	0.0047644	0.001178268	0.0003074421	6.414823E-05	0	0
29.52406	-0.03624728	-0.1035042	0.004758915	0.003531635	-0.0001656337	0.07106566	0	0
29.54063	-0.03603702	-0.1033482	0.01269082	0.009416644	0.2393852	0.1776099	0	0
29.5572	-0.03574792	-0.1031337	0.01745018	0.01294738	0.1436379	0.1065578	0	0
29.57376	-0.03545881	-0.1029192	0.01745063	0.01294648	1.360397E-05	-2.715172E-05	0	0
29.61303	-0.03280402	-0.1009117	0.0676096	0.05112468	0.8983619	0.6837828	0	0
29.6296	-0.02772973	-0.09715427	0.3062843	0.2268013	4.274734	3.14642	0	0
29.64617	-0.01791913	-0.08994634	0.5920326	0.4349714	8.622908	6.281862	0	0
29.66273	-0.01292033	-0.08626247	0.3017977	0.2224098	-8.759307	-6.415122	0	0
29.6793	-0.000736842	-0.0773064	0.735397	0.5405897	13.08756	9.603797	0	0
29.69587	0.003842086	-0.07394817	0.2763847	0.2027032	-13.85302	-10.19744	0	0
29.71261	0.009368147	-0.06993905	0.3300578	0.2394543	1.611324	1.103308	0	0
29.74563	0.01918186	-0.06280237	0.2971705	0.216107	-0.6608306	-0.4691372	0	0
29.76213	0.02402169	-0.05930792	0.2933151	0.2117792	-0.07784939	-0.08738717	0	0
29.7787	0.02559967	-0.05815683	0.09525774	0.06948762	-5.989795	-4.303285	0	0
29.79527	0.02559967	-0.05815683	0	0	-2.874884	-2.097141	0	0
29.81183	0.02559967	-0.05815683	0	0	0	0	0	0
29.8284	0.02557337	-0.05817601	-0.001587392	-0.001157574	-0.0479131	-0.03493968	0	0
29.84497	0.02554707	-0.05819519	-0.001587209	-0.001157666	5.512241E-06	-2.76139E-06	0	0
29.86153	0.02557337	-0.05821437	0.001587575	-0.001157932	0.09581517	-8.045735E-06	0	0
29.87823	0.02554707	-0.05823356	-0.001575421	-0.001149068	-0.09510356	0.0002665322	0	0
29.89467	0.02554707	-0.05827192	0	-0.002333057	0.04754357	-0.0357308	0	0
29.91124	0.02546818	-0.05832947	-0.004762724	-0.003474021	-0.1442875	-0.03456571	0	0
29.9278	0.02536298	-0.05840619	-0.00635103	-0.004632262	-0.04794345	-0.03496181	0	0
29.94437	0.02531038	-0.05844456	-0.003174784	-0.002315823	0.09587034	0.06991833	0	0
29.96094	0.02528408	-0.05846374	-0.001586956	-0.001157399	0.04791245	0.03495525	0	0
29.9775	0.02528408	-0.05846374	0	0	0.04789719	0.03493238	0	0
29.99407	0.02528408	-0.05846374	0	0	0	0	0	0
30.01063	0.02525778	-0.05848293	-0.001587575	-0.001158157	-0.04791586	-0.03495526	0	0
30.02733	0.02525778	-0.05848293	0	0	0.04773176	0.03482096	0	0
30.04376	0.02523149	-0.05850211	-0.001599917	-0.001166934	-0.04828838	-0.03522018	0	0
30.06033	0.02515259	-0.05855966	-0.004762288	-0.003473846	-0.0958156	-0.06989633	0	0
30.0769	0.02504739	-0.05863639	-0.006350411	-0.004632178	-0.04793241	-0.03496054	0	0
30.09346	0.0248896	-0.0587515	-0.009524576	-0.006947917	-0.09580201	-0.06989317	0	0
30.11003	0.024837	-0.05878987	-0.003174896	-0.002316047	0.1916337	0.1397901	0	0
30.1266	0.0247844	-0.05882824	-0.003174896	-0.002316047	0	0	0	0
30.14341	0.0247318	-0.05886661	-0.003128789	-0.002282413	0.001381334	0.001007666	0	0
30.15973	0.0247055	-0.0588858	-0.001611134	-0.001175344	0.04580292	0.03341141	0	0
30.19287	0.024574	-0.05898173	-0.003968877	-0.002895338	-0.04767389	-0.03477852	0	0
30.226	0.0243636	-0.05913522	-0.006349905	-0.004632544	-0.03593082	-0.02621525	0	0
30.24257	0.02378499	-0.059519	-0.0349251	-0.02316475	-0.574934	-0.3728686	0	0
30.25913	0.02110213	-0.06147705	-0.1619376	-0.1181881	-3.833245	-2.867811	0	0
30.2757	0.02057604	-0.06189955	-0.03175835	-0.02550509	3.929043	2.79734	0	0
30.29227	0.02054974	-0.06191876	-0.001587729	-0.001159373	0.9106036	0.7347975	0	0
30.30884	0.02054974	-0.06191876	0	0	0.047915	0.03498793	0	0
30.32554	0.02054974	-0.06191876	0	0	0	0	0	0
30.34197	0.02052343	-0.06197638	-0.001601372	-0.003507778	-0.04833229	-0.105871	0	0
30.35854	0.02047082	-0.06201479	-0.003175571	-0.002318521	-0.04771266	0.0360454	0	0
30.3751	0.02044452	-0.062034	-0.001587729	-0.001159373	0.04792115	0.03498315	0	0
30.39167	0.02044452	-0.062034	0	0	0.04791776	0.03498994	0	0
30.40824	0.02044452	-0.062034	0	0	0	0	0	0
30.4479	0.02041822	-0.06201479	-0.0006632209	0.0004842893	-0.01179507	0.008612859	0	0
30.46447	0.02041822	-0.06201479	0	0	0.01179467	-0.008612567	0	0
30.48103	0.02041822	-0.06201479	0	0	0	0	0	0
30.49767	0.02044452	-0.062034	0.001581357	-0.00115472	0.04763496	-0.03478344	0	0
30.51419	0.02044452	-0.062034	0	0	-0.04769251	0.03482546	0	0
30.53073	0.02044452	-0.062034	0	0	0	0	0	0
30.5477	0.02047082	-0.0620532	0.001550075	-0.001131877	0.04625153	-0.03377324	0	0
30.56422	0.02047082	-0.0620532	0	0	-0.04629105	0.0338021	0	0
30.64677	0.02047082	-0.0620532	0	0	0	0	0	0
30.66794	0.02047082	-0.0620532	0	0	0	0	0	0
30.68451	0.02047082	-0.0620532	0	0	0	0	0	0
30.70131	0.02047082	-0.0620532	0	0	0	0	0	0
30.71765	0.02047082	-0.0620532	0	0	0	0	0	0
30.73434	0.02047082	-0.0620532	0	0	0	0	0	0
30.79698	0.02047082	-0.0620532	0	0	0	0	0	0
30.81355	0.02047082	-0.0620532	0	0	0	0	0	0
30.83011	0.02047082	-0.0620532	0	0	0	0	0	0
30.84668	0.02047082	-0.0620532	0	0	0	0	0	0
30.86343	0.02047082	-0.0620532	0	0	0	0	0	0
30.87982	0.02047082	-0.0620532	0	0	0	0	0	0
30.89647	0.02047082	-0.0620532	0	0	0	0	0	0
30.91296	0.02047082	-0.0620532	0	0	0	0	0	0
30.92952	0.02047082	-0.0620532	0	0	0	0	0	0
30.9465	0.02047082	-0.0620532	0	0	0	0	0	0
30.96265	0.02047082	-0.0620532	0	0	0	0	0	0
30.97922	0.02047082	-0.0620532	0	0	0	0	0	0
30.99602	0.02047082	-0.0620532	0	0	0	0	0	0
31.01235	0.02044452	-0.06207241	-0.001611476	-0.001176713	-0.04864286	-0.03551941	0	0
31.02892	0.02039191	-0.06211083	-0.003175205	-0.002318479	-0.04754099	-0.03471231	0	0
31.04557	0.02015517	-0.0622837	-0.01421788	-0.01038199	-0.3324074	-0.2427285	0	0
31.06205	0.01765606	-0.0641091	-0.1515792	-0.1107169	-4.145097	-3.027766	0	0
31.07862	0.009183953	-0.07030503	-0.5113774	-0.3739872	-10.88505	-7.96477	0	0
31.0956	0.001131578	-0.07620583	-0.4741423	-0.3474527	1.10983	0.7908888	0	0
31.11175	-0.009499714	-0.08401585	-0.6583039	-0.4836064	-5.558326	-4.109363	0	0
31.12832	-0.01728775	-0.08971353	-0.4700869	-0.3439128	5.752923	4.269788	0	0
31.14563	-0.02741418	-0.09719317	-0.5850965	-0.4321675	-3.395167	-2.605343	0	0
31.16145	-0.03414462	-0.1021784	-0.4254505	-0.3151323	4.819237	3.532945	0	0
31.17802	-0.03976849	-0.1063531	-0.3394188	-0.2519552	2.656226	1.950592	0	0
31.21117	-0.04436561	-0.1097329	-0.1386454	-0.1019319	4.037556	3.016968	0	0
31.22819	-0.04373525	-0.1092247	0.03705025	0.0298723	3.501943	2.627105	0	0
31.2447	-0.04373525	-0.1092247	0	0	-1.105138	-0.8910331	0	0
31.26085	-0.04363019	-0.1091465	0.006506264	0.004841517	0.1992149	0.1482421	0	0
31.28266	-0.04352513	-0.1090683	0.004817139	0.003584458	-0.04449968	-0.03311696	0	0
31.29923	-0.04349886	-0.1090488	0.001584568	0.001178932	-0.08420938	-0.06266465	0	0
31.31579	-0.043315	-0.108912	0.01110431	0.008262027	0.2873063	0.2137682	0	0
31.33236	-0.0432362	-0.1088533	0.004756442	0.00353883	-0.1916341	-0.1425874	0	0
31.34893	-0.04310486	-0.1087165	0.007927403	0.008256821	0.09569979	0.1423892	0	0
31.36549	-0.04294726	-0.1085993	0.009512884	0.007077211	0.0478499	-0.0356007	0	0
31.38206	-0.04273712	-0.108443	0.01268553	0.009436619	0.09575617	0.07121116	0	0
31.39881	-0.04260578	-0.1083453	0.00784186	0.005832906	-0.1453955	-0.1081749	0	0
31.41519	-0.04252698	-0.1083257	0.004809266	0.001192654	-0.09152386	-0.1400431	0	0
31.43176	-0.04250071	-0.1083062	0.001585663	0.001179296	-0.09782916	-0.0004053913	0	0
31.44833	-0.04250071	-0.1083062	0	0	-0.04785541	-0.03559123	0	0
31.51489	-0.04239563	-0.108228	0.001578687	0.001174248	0.01899104	0.01412579	0	0
31.53116	-0.04236937	-0.1082085	0.001614287	0.001200585	0.0004298026	0.0003179557	0	0
31.54773	-0.04213295	-0.1080327	0.01427022	0.01061334	0.3853956	0.2866351	0	0
31.56429	-0.04003124	-0.1064702	0.1268742	0.09431941	3.39859	2.5264	0	0
31.58093	-0.03530112	-0.1029192	0.2842342	0.2133815	4.738769	3.585459	0	0
31.59742	-0.02536298	-0.09555946	0.6026424	0.446292	9.610132	7.029656	0	0
31.61399	-0.02270662	-0.09359643	0.1603382	0.1184885	-13.37958	-9.915961	0	0
31.63056	-0.006420964	-0.081597	0.9830043	0.7242869	24.82811	18.28303	0	0
31.64713	-0.003789456	-0.07966346	0.1588382	0.1167085	-24.87338	-18.33675	0	0
31.66369	0.005421	-0.07294535	0.5559442	0.4055062	11.98468	8.715929	0	0
31.68051	0.01105218	-0.06882215	0.3349247	0.2452345	-6.621214	-4.801355	0	0
31.69683	0.01597233	-0.06522413	0.3014223	0.2204251	-1.011045	-0.7487049	0	0
31.71353	0.01768237	-0.06397456	0.1023815	0.07481292	-6.026839	-4.409052	0	0
31.72997	0.01773498	-0.06397456	0.003200854	0	-2.992761	-2.257468	0	0
31.74656	0.01776129	-0.06399377	0.001585216	-0.001157823	-0.04890926	-0.03505011	0	0
31.7631	0.01773498	-0.06405143	-0.001591068	-0.003487192	-0.09587149	-0.0703086	0	0
31.77966	0.01765606	-0.0641091	-0.004765396	-0.00348202	-0.09591182	0.0001562883	0	0
31.7966	0.01765606	-0.0641091	0	0	0.142264	0.1039506	0	0
31.81279	0.01765606	-0.0641091	0	0	0	0	0	0
31.82936	0.01765606	-0.0641091	0	0	0	0	0	0
31.84593	0.01765606	-0.0641091	0	0	0	0	0	0
31.86264	0.01760344	-0.0641091	-0.003147642	0	-0.09457141	0	0	0
31.87906	0.01757714	-0.06412832	-0.001602416	-0.001170468	0.04663772	-0.03532683	0	0
31.89571	0.01747191	-0.06420521	-0.006319802	-0.004617698	-0.1426584	-0.1042476	0	0
31.9122	0.01731406	-0.06435898	-0.009575013	-0.009327906	-0.0982368	-0.1421462	0	0
31.92876	0.01715621	-0.06447432	-0.009529918	-0.006963687	0.001364494	0.07153758	0	0
31.94533	0.01699836	-0.06458966	-0.009527837	-0.006962083	6.282721E-05	4.840647E-05	0	0
31.96189	0.01670897	-0.06476269	-0.01746761	-0.0104438	-0.2396227	-0.1050784	0	0
31.97846	0.01652481	-0.06489727	-0.01111462	-0.00812232	0.1917224	0.07005834	0	0
31.99503	0.01647219	-0.06493572	-0.003176752	-0.002321529	0.2395792	0.1750783	0	0
32.01159	0.01636696	-0.06501263	-0.006352772	-0.004642523	-0.09586904	-0.07005984	0	0
32.02816	0.01607756	-0.06522413	-0.01746806	-0.01276659	-0.3354792	-0.245199	0	0
32.04477	0.01581447	-0.06541643	-0.01584373	-0.01158011	0.04896575	0.03576705	0	0
32.06129	0.01494626	-0.06605108	-0.05252646	-0.03839628	-1.107087	-0.8093138	0	0
32.07786	0.01460422	-0.0663396	-0.02064503	-0.01741533	0.9632925	0.6339363	0	0
32.09972	0.01460422	-0.0663396	0	0	0.5372751	0.4532238	0	0
32.11629	0.01457791	-0.06635884	-0.001588066	-0.001161172	-0.04132851	-0.03021882	0	0
32.13285	0.01457791	-0.06635884	0	0	0.04792794	0.03504423	0	0
32.14942	0.01457791	-0.06635884	0	0	0	0	0	0
32.16599	0.01457791	-0.06635884	0	0	0	0	0	0
32.18256	0.01457791	-0.06635884	0	0	0	0	0	0
32.19912	0.01457791	-0.06635884	0	0	0	0	0	0
32.21569	0.0145516	-0.06637808	-0.001588123	-0.001161172	-0.04792964	-0.03504423	0	0
32.23226	0.0145516	-0.06637808	0	0	0.04792964	0.03504423	0	0
32.24883	0.01452529	-0.06639732	-0.001588066	-0.001161172	-0.04792794	-0.03504423	0	0
32.26542	0.01452529	-0.06639732	0	0	0.04788384	0.03501198	0	0
32.28196	0.01449898	-0.06641655	-0.001591053	-0.001162864	-0.04801809	-0.03509531	0	0
32.29895	0.01447267	-0.06643578	-0.001548837	-0.001132488	0.001259298	0.000906113	0	0
32.31509	0.01442005	-0.06647426	-0.003259497	-0.002383256	-0.05163374	-0.03775259	0	0
32.33166	0.01436743	-0.06655121	-0.003176189	-0.004644687	0.002546764	-0.0691336	0	0
32.34848	0.01431481	-0.06658968	-0.003127225	-0.002286542	0.001466266	0.07061611	0	0
32.36479	0.01431481	-0.06658968	0	0	0.09437983	0.06900798	0	0
32.38151	0.0142885	-0.0666474	-0.001573629	-0.003451724	-0.04764581	-0.1045101	0	0
32.39792	0.0142885	-0.06676283	0	-0.007035519	0.04750316	-0.108184	0	0
32.41449	0.01426219	-0.06678207	-0.001588066	-0.001161621	-0.04816082	0.1781359	0	0
32.43105	0.01426219	-0.06682055	0	-0.002322343	0.04792794	-0.03503066	0	0
32.44762	0.01423588	-0.06683978	-0.001588123	-0.001161172	-0.04792964	0.03504423	0	0
32.46418	0.01420957	-0.06685903	-0.001588488	-0.001161889	-1.104044E-05	-2.164868E-05	0	0
32.48075	0.01420957	-0.06685903	0	0	0.0479462	0.03506992	0	0
32.49732	0.01420957	-0.06685903	0	0	0	0	0	0
32.5141	0.01420957	-0.06685903	0	0	0	0	0	0
32.53045	0.01420957	-0.06685903	0	0	0	0	0	0
32.54712	0.01418326	-0.06687827	-0.001578616	-0.001154262	-0.04780784	-0.03495641	0	0
32.56363	0.01418326	-0.06691675	0	-0.002330844	0.04758246	-0.03546441	0	0
32.58015	0.01415695	-0.06693599	-0.001592523	-0.001164389	-0.0482123	0.03531344	0	0
32.59671	0.01415695	-0.06693599	0	0	0.04812893	0.03518995	0	0
32.61332	0.01415695	-0.06693599	0	0	0	0	0	0
32.62984	0.01415695	-0.06693599	0	0	0	0	0	0
32.64641	0.01415695	-0.06693599	0	0	0	0	0	0
32.66319	0.01415695	-0.06693599	0	0	0	0	0	0
32.67955	0.01415695	-0.06693599	0	0	0	0	0	0
32.69672	0.01415695	-0.06693599	0	0	0	0	0	0
32.71273	0.01415695	-0.06693599	0	0	0	0	0	0
32.72925	0.01415695	-0.06693599	0	0	0	0	0	0
32.74582	0.01415695	-0.06693599	0	0	0	0	0	0
32.76277	0.01415695	-0.06693599	0	0	0	0	0	0
32.80075	0.01415695	-0.06693599	0	0	0	0	0	0
32.81732	0.01415695	-0.06693599	0	0	0	0	0	0
32.83389	0.01415695	-0.06693599	0	0	0	0	0	0
32.85046	0.01415695	-0.06693599	0	0	0	0	0	0
32.86702	0.01415695	-0.06693599	0	0	0	0	0	0
32.88386	0.01415695	-0.06693599	0	0	0	0	0	0
32.90037	0.01415695	-0.06693599	0	0	0	0	0	0
32.91688	0.01415695	-0.06693599	0	0	0	0	0	0
32.93329	0.01415695	-0.06693599	0	0	0	0	0	0
32.94986	0.01415695	-0.06693599	0	0	0	0	0	0
32.96642	0.01415695	-0.06693599	0	0	0	0	0	0
32.98299	0.01415695	-0.06693599	0	0	0	0	0	0
32.99956	0.01415695	-0.06693599	0	0	0	0	0	0
33.01645	0.01415695	-0.06693599	0	0	0	0	0	0
33.03269	0.01415695	-0.06693599	0	0	0	0	0	0
33.04926	0.01415695	-0.06693599	0	0	0	0	0	0
33.06583	0.01415695	-0.06693599	0	0	0	0	0	0
33.08239	0.01415695	-0.06693599	0	0	0	0	0	0
33.09901	0.01415695	-0.06693599	0	0	0	0	0	0
33.11553	0.01415695	-0.06693599	0	0	0	0	0	0
33.1321	0.01415695	-0.06693599	0	0	0	0	0	0
33.14866	0.01415695	-0.06693599	0	0	0	0	0	0
33.16556	0.01415695	-0.06693599	0	0	0	0	0	0
33.18179	0.01415695	-0.06693599	0	0	0	0	0	0
33.19836	0.01415695	-0.06693599	0	0	0	0	0	0
33.21493	0.01415695	-0.06693599	0	0	0	0	0	0
33.24806	0.01415695	-0.06693599	0	0	0	0	0	0
33.26463	0.01415695	-0.06693599	0	0	0	0	0	0
33.28119	0.01415695	-0.06693599	0	0	0	0	0	0
33.29776	0.01415695	-0.06693599	0	0	0	0	0	0
33.31433	0.01415695	-0.06693599	0	0	0	0	0	0
33.36403	0.01415695	-0.06693599	0	0	0	0	0	0
33.3806	0.01415695	-0.06693599	0	0	0	0	0	0
33.39716	0.01415695	-0.06693599	0	0	0	0	0	0
33.41373	0.01415695	-0.06693599	0	0	0	0	0	0
33.43075	0.01415695	-0.06693599	0	0	0	0	0	0
33.44686	0.01415695	-0.06693599	0	0	0	0	0	0
33.46343	0.01415695	-0.06693599	0	0	0	0	0	0
33.48028	0.01415695	-0.06693599	0	0	0	0	0	0
33.4968	0.01415695	-0.06693599	0	0	0	0	0	0
33.5297	0.01415695	-0.06693599	0	0	0	0	0	0
33.55072	0.01415695	-0.06693599	0	0	0	0	0	0
33.56734	0.01415695	-0.06693599	0	0	0	0	0	0
33.58386	0.01415695	-0.06693599	0	0	0	0	0	0
33.60043	0.01415695	-0.06693599	0	0	0	0	0	0
33.617	0.01415695	-0.06693599	0	0	0	0	0	0
33.6339	0.01415695	-0.06693599	0	0	0	0	0	0
33.65013	0.01415695	-0.06693599	0	0	0	0	0	0
33.66669	0.01415695	-0.06693599	0	0	0	0	0	0
33.68343	0.01415695	-0.06693599	0	0	0	0	0	0
33.69983	0.01415695	-0.06693599	0	0	0	0	0	0
33.71645	0.01415695	-0.06693599	0	0	0	0	0	0
33.73297	0.01415695	-0.06693599	0	0	0	0	0	0
33.74998	0.01415695	-0.06693599	0	0	0	0	0	0
33.7661	0.01415695	-0.06693599	0	0	0	0	0	0
33.78267	0.01415695	-0.06693599	0	0	0	0	0	0
33.79923	0.01415695	-0.06693599	0	0	0	0	0	0
33.8158	0.01420957	-0.0668975	0.003176189	0.002322793	0.09585758	0.07010204	0	0
33.83254	0.01426219	-0.06685903	0.003142956	0.002298004	-0.0009976997	-0.0007442137	0	0
33.84905	0.0147884	-0.06651273	0.03187186	0.02097488	0.8639566	0.5616648	0	0
33.86556	0.01568292	-0.06597415	0.054181	0.03262188	0.6756247	0.3527253	0	0
33.88208	0.01847158	-0.06420521	0.1688682	0.1071187	3.472861	2.25585	0	0
33.89864	0.0284397	-0.0570829	0.6018152	0.4300024	13.08897	9.761506	0	0
33.9152	0.03206795	-0.05443813	0.2190522	0.1596752	-11.55447	-8.160371	0	0
33.93177	0.0500109	-0.04130723	1.083038	0.7925829	26.07816	19.10339	0	0
33.94862	0.07292309	-0.02426739	1.359505	1.011066	8.272361	6.537399	0	0
33.96513	0.0987827	-0.003888319	1.566298	1.234346	6.198208	6.692374	0	0
33.98147	0.1247436	0.01724594	1.589329	1.293839	0.7011941	1.811339	0	0
33.99816	0.1411085	0.03456478	0.9805625	1.037722	-18.43415	-7.755534	0	0
34.01467	0.1485554	0.04868434	0.4510482	0.855212	-15.94956	-5.497389	0	0
34.03118	0.1542902	0.09225072	0.3472773	2.638176	-3.142305	53.99022	0	0
34.04773	0.1540847	0.1109536	-0.01241916	1.129946	-10.8782	-45.613	0	0
34.0647	0.1523883	0.1466578	-0.09995399	2.103763	-2.611144	29.04873	0	0
34.08087	0.1507939	0.1697658	-0.09864365	1.429699	0.0395464	-20.3433	0	0
34.09743	0.1500222	0.1887112	-0.04658358	1.14355	1.590587	-8.742676	0	0
34.114	0.149662	0.2062015	-0.02174206	1.055713	0.7497185	-2.650929	0	0
34.13075	0.1514369	0.2127367	0.1059652	0.3901535	3.83303	-19.97623	0	0
34.14714	0.1560113	0.2140683	0.2791955	0.08127455	5.228101	-9.321985	0	0
34.1637	0.1575774	0.2129706	0.09453071	-0.06625514	-5.604163	-4.477197	0	0
34.18029	0.1591171	0.2118908	0.09285049	-0.06511764	-0.05068573	0.03431409	0	0
34.19683	0.1639877	0.2083985	0.2943303	-0.211041	6.081372	-4.404484	0	0
34.22997	0.1712789	0.2032292	0.2200483	-0.1560099	-1.495129	1.107655	0	0
34.28606	0.1714322	0.203049	0.0027331	-0.003212083	-2.435566	1.712485	0	0
34.30263	0.17133	0.2029409	-0.006169231	-0.006525407	-0.1225228	-0.0456013	0	0
34.31919	0.1712278	0.2027607	-0.006169231	-0.01087598	0	-0.1313005	0	0
34.33576	0.1711767	0.2027247	-0.003084166	-0.002174836	0.09310745	0.262601	0	0
34.35241	0.1710745	0.2026526	-0.006139032	-0.004328644	-0.09196313	-0.06483784	0	0
34.3689	0.17064	0.2023823	-0.02635566	-0.01639793	-0.6101391	-0.3642519	0	0
34.38546	0.169413	0.2015173	-0.07406135	-0.05220955	-1.443416	-1.083541	0	0
34.40203	0.1692852	0.2013912	-0.00771626	-0.007614624	2.002299	1.345878	0	0
34.41896	0.1692852	0.2013912	0	0	0.2303578	0.2273235	0	0
34.43516	0.1693363	0.2013551	0.00315572	-0.002224916	0.09525079	-0.06715583	0	0
34.45173	0.1693619	0.2013371	0.001543432	-0.001087418	-0.04920276	0.03471342	0	0
34.46829	0.1694386	0.201247	0.004631362	-0.005440142	0.09320465	-0.1313806	0	0
34.485	0.1695153	0.2011929	0.004589242	-0.003235741	-0.001265806	0.06624675	0	0
34.50143	0.1695665	0.2011569	0.003114111	-0.002194941	-0.04451953	0.03141142	0	0
34.51802	0.1696431	0.2011028	0.004620885	-0.003257154	0.04563211	-0.03216876	0	0
34.53456	0.1698732	0.2009406	0.01391613	-0.00981069	0.2805633	-0.1978089	0	0
34.55112	0.1711	0.2000394	0.07404966	-0.05439608	1.816716	-1.346985	0	0
34.56769	0.1714322	0.1997691	0.02005022	-0.01632026	-1.629706	1.14913	0	0
34.58457	0.1714322	0.1997691	0	0	-0.5994578	0.4879402	0	0
34.60108	0.1714066	0.199751	-0.001547879	-0.001091187	-0.04635749	-0.03268	0	0
34.61739	0.1713811	0.199733	-0.001567069	-0.001105629	-0.000584747	-0.0004400625	0	0
34.6341	0.1713555	0.199715	-0.001528261	-0.001078877	0.001175272	0.0008101508	0	0
34.65052	0.1713044	0.1996789	-0.00311302	-0.00219545	-0.04783362	-0.03370212	0	0
34.66713	0.1712278	0.1996249	-0.00461607	-0.003256554	-0.04551408	-0.03213146	0	0
34.68365	0.1712022	0.1996068	-0.001546092	-0.001090829	0.0926521	0.06536172	0	0
34.70022	0.1711	0.1995708	-0.006169231	-0.002175735	-0.1396874	-0.03278027	0	0
34.71679	0.1710745	0.1995528	-0.001542532	-0.001088317	0.139634	0.03281834	0	0
34.73336	0.1710489	0.1995347	-0.001541633	-0.001088317	2.714469E-05	0	0	0
34.75018	0.1710234	0.1995167	-0.001518753	-0.001070654	0.0006851604	0.0005289295	0	0
34.76649	0.1710234	0.1995167	0	0	0.04584133	0.03231613	0	0
34.78305	0.1709723	0.1995167	-0.003085776	0	-0.09388551	0	0	0
34.79962	0.1709723	0.1995167	0	0	0.09313961	0	0	0
34.81623	0.1709467	0.1994987	-0.001538635	-0.001085568	-0.04637738	-0.03272106	0	0
34.83275	0.1708956	0.1994987	-0.003092899	0	-0.04690776	0.03276251	0	0
34.88116	0.1705889	0.1992463	-0.006334459	-0.005212848	-0.04991809	-0.08027473	0	0
34.89774	0.1677507	0.1971369	-0.1712779	-0.1272957	-2.538241	-1.878679	0	0
34.93087	0.1455167	0.1762256	-0.6710987	-0.6311771	-10.05641	-10.13811	0	0
34.94743	0.134809	0.1547576	-0.6463229	-1.295809	0.4985284	-13.37345	0	0
34.96434	0.1241477	0.115965	-0.6305923	-2.294504	0.4699341	-29.83496	0	0
34.98568	0.1147308	0.07130967	-0.4413717	-2.092998	4.947937	5.269171	0	0
35.00224	0.1079992	0.03762016	-0.4063188	-2.033503	0.9248086	1.569677	0	0
35.01888	0.09708852	-0.003492595	-0.6560014	-2.471895	-7.520716	-13.20484	0	0
35.03539	0.08537094	-0.02817667	-0.7095619	-1.494752	-1.615901	29.48004	0	0
35.05194	0.06304791	-0.05045636	-1.348352	-1.345734	-19.31654	4.506193	0	0
35.06851	0.04536359	-0.06141944	-1.067427	-0.6617332	8.481267	20.65032	0	0
35.08542	0.03474917	-0.06710915	-0.6276808	-0.3364592	13.13547	9.716117	0	0
35.10164	0.01857681	-0.07649542	-0.9970569	-0.5786813	-11.14908	-7.31112	0	0
35.11844	0.01021017	-0.0823708	-0.4980164	-0.3497265	15.11327	6.933818	0	0
35.18447	-0.003605247	-0.08602998	-0.2092339	-0.05541813	3.486511	3.553225	0	0
35.20104	-0.005078904	-0.08482906	-0.08895008	0.07248734	1.456294	1.548571	0	0
35.21761	-0.005026273	-0.0848678	0.003176779	-0.002338083	2.780394	-2.258236	0	0
35.23452	-0.004999958	-0.08484843	0.001555777	0.001144829	-0.04841473	0.1040247	0	0
35.25074	-0.004947328	-0.08488716	0.003245531	-0.002388225	0.05100275	-0.1066401	0	0
35.2673	-0.004868383	-0.08494526	0.004765155	-0.003506901	0.04635331	-0.03412312	0	0
35.28405	-0.004815752	-0.08498399	0.003142053	-0.00231208	-0.04871612	0.03586158	0	0
35.30057	-0.004710491	-0.08490653	0.006374106	0.004690839	0.09716325	0.2105244	0	0
35.31708	-0.004473655	-0.08477097	0.01434504	0.008210526	0.2413691	0.1065802	0	0
35.33357	-0.004394709	-0.08471288	0.004787229	0.003522673	-0.2896223	-0.1420521	0	0
35.35014	-0.004342078	-0.08467415	0.003176807	0.002337634	-0.04871479	-0.0358471	0	0
35.3667	-0.004289447	-0.08467415	0.003176779	0	-8.432211E-07	-0.07054993	0	0
35.38327	-0.004263132	-0.08469351	0.001588404	-0.001168817	-0.04793728	-0.03527496	0	0
35.39983	-0.004157871	-0.08473224	0.006355022	-0.002338172	0.1438734	-0.03529527	0	0
35.41665	-0.004157871	-0.08473224	0	0	-0.1904139	0.07005804	0	0
35.43316	-0.00410524	-0.08477097	0.003187818	-0.002345736	0.09566884	-0.07039731	0	0
35.44967	-0.00410524	-0.08477097	0	0	-0.09653082	0.0710316	0	0
35.4661	-0.00410524	-0.08477097	0	0	0	0	0	0
35.48267	-0.00410524	-0.08477097	0	0	0	0	0	0
35.49923	-0.00410524	-0.08477097	0	0	0	0	0	0
35.51621	-0.004078925	-0.08479033	0.001549514	-0.0011402	0.04619011	-0.0339887	0	0
35.53236	-0.004078925	-0.08479033	0	0	-0.04676443	0.03441131	0	0
35.54893	-0.004052609	-0.0848097	0.001588404	-0.001168817	0.04854733	-0.03572325	0	0
35.5655	-0.004026294	-0.08482906	0.001588376	-0.001168817	-8.467346E-07	0	0	0
35.58207	-0.004026294	-0.08482906	0	0	-0.04793727	0.03527496	0	0
35.59863	-0.004078925	-0.08479033	-0.003177511	0.002338172	-0.09590852	0.0705743	0	0
35.6152	-0.004078925	-0.08479033	0	0	0.09590852	-0.0705743	0	0
35.63176	-0.004078925	-0.08479033	0	0	0	0	0	0
35.64833	-0.004078925	-0.08479033	0	0	0	0	0	0
35.6649	-0.004078925	-0.08479033	0	0	0	0	0	0
35.68147	-0.004078925	-0.08479033	0	0	0	0	0	0
35.69803	-0.004078925	-0.08479033	0	0	0	0	0	0
35.7146	-0.004052609	-0.0848097	0.001588404	-0.001168817	0.04793812	-0.03527496	0	0
35.73629	-0.004026294	-0.08482906	0.001213211	-0.0008927492	-0.009807021	0.007216024	0	0
35.75288	-0.003999979	-0.08484843	0.001586212	-0.001167653	0.009743911	-0.007181317	0	0
35.76989	-0.003973663	-0.0848678	0.001546735	-0.001138155	-0.001174797	0.0008778316	0	0
35.78599	-0.003921032	-0.08490653	0.003269402	-0.002405769	0.05202612	-0.0382831	0	0
35.80256	-0.003894717	-0.08492589	0.001588756	-0.001169086	-0.05145659	0.03786369	0	0
35.81912	-0.003842086	-0.08496463	0.003176807	-0.002338083	0.04793302	-0.03528447	0	0
35.83596	-0.003842086	-0.08496463	0	0	-0.09508803	0.06998339	0	0
35.85245	-0.003842086	-0.08496463	0	0	0	0	0	0
35.86882	-0.003842086	-0.08496463	0	0	0	0	0	0
35.88539	-0.003842086	-0.08496463	0	0	0	0	0	0
35.90199	-0.003815771	-0.08498399	0.001585119	-0.0011664	0.04778947	-0.03516558	0	0
35.91852	-0.003815771	-0.08498399	0	0	-0.04783899	0.03520202	0	0
35.93509	-0.003789456	-0.08500336	0.001588756	-0.001169536	0.048004	-0.03533735	0	0
35.95165	-0.003789456	-0.08500336	0	0	-0.04795426	0.03530073	0	0
35.96822	-0.003789456	-0.08500336	0	0	0	0	0	0
35.98479	-0.003789456	-0.08500336	0	0	0	0	0	0
36.00135	-0.003789456	-0.08500336	0	0	0	0	0	0
36.01792	-0.003789456	-0.08500336	0	0	0	0	0	0
36.03449	-0.003789456	-0.08500336	0	0	0	0	0	0
36.05109	-0.003789456	-0.08500336	0	0	0	0	0	0
36.06762	-0.003789456	-0.08500336	0	0	0	0	0	0
36.08419	-0.003789456	-0.08500336	0	0	0	0	0	0
36.10076	-0.003789456	-0.08500336	0	0	0	0	0	0
36.11764	-0.003789456	-0.08500336	0	0	0	0	0	0
36.13415	-0.003815771	-0.08502273	-0.001593895	-0.001172868	-0.04773563	-0.03512627	0	0
36.15045	-0.003789456	-0.08504209	0.001614033	-0.001187686	0.09776086	-0.0004515942	0	0
36.16702	-0.003789456	-0.08504209	0	0	-0.04910167	0.03613147	0	0
36.18359	-0.003789456	-0.08504209	0	0	0	0	0	0
36.20015	-0.00376314	-0.08506146	0.001588404	-0.001169267	0.04793812	-0.03528854	0	0
36.21672	-0.00376314	-0.08506146	0	0	-0.04793812	0.03528854	0	0
