Time	Pos X	Pos Y	Vel X	Vel Y	Acc X	Acc YForce X	Force Y
0.01656792	-0.01223623	-0.07473911	0.0001833036	0.001119622	-2.746643E-06	-1.677654E-05	0	0
0.05063538	-0.01220992	-0.07471981	0.0007723417	0.0005664349	-8.828531E-06	8.291187E-06	0	0
0.06720448	-0.01220992	-0.07471981	0	0	-0.01525265	-0.01118628	0	0
0.08377042	-0.01220992	-0.07471981	0	0	0	0	0	0
0.1003383	-0.01220992	-0.07471981	0	0	0	0	0	0
0.1169035	-0.01220992	-0.07471981	0	0	0	0	0	0
0.1334706	-0.01220992	-0.07471981	0	0	0	0	0	0
0.1572602	-0.01223623	-0.07473911	-0.001106019	-0.0008111534	-0.02740607	-0.02009959	0	0
0.1738277	-0.01220992	-0.07471981	0.00158815	0.001164748	0.06675822	0.04896044	0	0
0.1903945	-0.01220992	-0.07471981	0	0	-0.04793075	-0.03515238	0	0
0.2069616	-0.01220992	-0.07471981	0	0	0	0	0	0
0.2235287	-0.01220992	-0.07471981	0	0	0	0	0	0
0.2400947	-0.01220992	-0.07471981	0	0	0	0	0	0
0.256661	-0.01220992	-0.07471981	0	0	0	0	0	0
0.2732278	-0.01223623	-0.07473911	-0.001588227	-0.001164805	-0.0479348	-0.03515536	0	0
0.289847	-0.01223623	-0.07473911	0	0	0.04785842	0.03509934	0	0
0.3229287	-0.01220992	-0.07471981	0.000795355	0.0005833128	0.0160028	0.01173645	0	0
0.339497	-0.01220992	-0.07471981	0	0	-0.01601922	-0.01174849	0	0
0.3560626	-0.01220992	-0.07471981	0	0	0	0	0	0
0.3726305	-0.01220992	-0.07471981	0	0	0	0	0	0
0.3891945	-0.01220992	-0.07471981	0	0	0	0	0	0
0.4057608	-0.01223623	-0.07473911	-0.001588265	-0.001164832	-0.04793992	-0.0351591	0	0
0.422328	-0.01223623	-0.07473911	0	0	0.04793534	0.03515575	0	0
0.4388959	-0.01223623	-0.07473911	0	0	0	0	0	0
0.4554622	-0.01223623	-0.07473911	0	0	0	0	0	0
0.4720278	-0.01220992	-0.07471981	0.001588339	0.001164887	0.04793987	0.03515907	0	0
0.4885965	-0.01220992	-0.07471981	0	0	-0.04793642	-0.03515654	0	0
0.5051636	-0.01220992	-0.07471981	0	0	0	0	0	0
0.5217288	-0.01220992	-0.07471981	0	0	0	0	0	0
0.5382963	-0.01220992	-0.07471981	0	0	0	0	0	0
0.5548634	-0.01220992	-0.07471981	0	0	0	0	0	0
0.5714282	-0.01220992	-0.07471981	0	0	0	0	0	0
0.5879941	-0.01220992	-0.07471981	0	0	0	0	0	0
0.604562	-0.01220992	-0.07471981	0	0	0	0	0	0
0.621128	-0.01220992	-0.07471981	0	0	0	0	0	0
0.6376955	-0.01220992	-0.07471981	0	0	0	0	0	0
0.6542611	-0.01220992	-0.07471981	0	0	0	0	0	0
0.6708286	-0.01220992	-0.07471981	0	0	0	0	0	0
0.6873941	-0.01223623	-0.07473911	-0.001588339	-0.001164887	-0.04793815	-0.03515781	0	0
0.7039609	-0.01223623	-0.07473911	0	0	0.04793927	0.03515863	0	0
0.7205276	-0.01223623	-0.07473911	0	0	0	0	0	0
0.7371567	-0.01223623	-0.07473911	0	0	0	0	0	0
0.7536611	-0.01223623	-0.07473911	0	0	0	0	0	0
0.770229	-0.01223623	-0.07473911	0	0	0	0	0	0
0.7867973	-0.01223623	-0.07473911	0	0	0	0	0	0
0.8080198	-0.01223623	-0.07473911	0	0	0	0	0	0
0.8245893	-0.01223623	-0.07473911	0	0	0	0	0	0
0.8411552	-0.01223623	-0.07473911	0	0	0	0	0	0
0.8577303	-0.01223623	-0.07473911	0	0	0	0	0	0
0.8742871	-0.01223623	-0.07473911	0	0	0	0	0	0
0.8908606	-0.01223623	-0.07473911	0	0	0	0	0	0
0.9074218	-0.01223623	-0.07473911	0	0	0	0	0	0
0.9239869	-0.01223623	-0.07473911	0	0	0	0	0	0
0.9408028	-0.01223623	-0.07473911	0	0	0	0	0	0
0.957311	-0.01223623	-0.07473911	0	0	0	0	0	0
0.9738383	-0.01223623	-0.07473911	0	0	0	0	0	0
0.990255	-0.01223623	-0.07473911	0	0	0	0	0	0
1.006848	-0.01223623	-0.07473911	0	0	0	0	0	0
1.02339	-0.01223623	-0.07473911	0	0	0	0	0	0
1.039954	-0.01223623	-0.07473911	0	0	0	0	0	0
1.056548	-0.01223623	-0.07473911	0	0	0	0	0	0
1.073089	-0.01223623	-0.07473911	0	0	0	0	0	0
1.089655	-0.01223623	-0.07473911	0	0	0	0	0	0
1.106221	-0.01223623	-0.07473911	0	0	0	0	0	0
1.12293	-0.01223623	-0.07473911	0	0	0	0	0	0
1.139441	-0.01223623	-0.07473911	0	0	0	0	0	0
1.155956	-0.01223623	-0.07473911	0	0	0	0	0	0
1.17249	-0.01223623	-0.07473911	0	0	0	0	0	0
1.189055	-0.01223623	-0.07473911	0	0	0	0	0	0
1.205623	-0.01223623	-0.07473911	0	0	0	0	0	0
1.222187	-0.01223623	-0.07473911	0	0	0	0	0	0
1.238765	-0.01223623	-0.07473911	0	0	0	0	0	0
1.255525	-0.01223623	-0.07473911	0	0	0	0	0	0
1.271888	-0.01223623	-0.07473911	0	0	0	0	0	0
1.288454	-0.01223623	-0.07473911	0	0	0	0	0	0
1.305056	-0.01223623	-0.07473911	0	0	0	0	0	0
1.321587	-0.01223623	-0.07473911	0	0	0	0	0	0
1.338154	-0.01223623	-0.07473911	0	0	0	0	0	0
1.354722	-0.01223623	-0.07473911	0	0	0	0	0	0
1.371604	-0.01223623	-0.07473911	0	0	0	0	0	0
1.388115	-0.01223623	-0.07473911	0	0	0	0	0	0
1.40442	-0.01223623	-0.07473911	0	0	0	0	0	0
1.421138	-0.01223623	-0.07473911	0	0	0	0	0	0
1.43765	-0.01223623	-0.07473911	0	0	0	0	0	0
1.470687	-0.01223623	-0.07473911	0	0	0	0	0	0
1.487254	-0.01223623	-0.07473911	0	0	0	0	0	0
1.508822	-0.01223623	-0.07473911	0	0	0	0	0	0
1.52539	-0.01223623	-0.07473911	0	0	0	0	0	0
1.542224	-0.01223623	-0.07473911	0	0	0	0	0	0
1.558738	-0.01220992	-0.0747584	0.00159335	-0.00116811	0.04777918	-0.03502769	0	0
1.575089	-0.01220992	-0.0747584	0	0	-0.04848159	0.03554264	0	0
1.591656	-0.01220992	-0.0747584	0	0	0	0	0	0
1.608223	-0.01220992	-0.0747584	0	0	0	0	0	0
1.62479	-0.01220992	-0.0747584	0	0	0	0	0	0
1.641356	-0.01223623	-0.07473911	-0.001588259	0.001164378	-0.04793565	0.0351424	0	0
1.657923	-0.01223623	-0.07473911	0	0	0.04793565	-0.0351424	0	0
1.674489	-0.01223623	-0.07473911	0	0	0	0	0	0
1.691056	-0.01223623	-0.07473911	0	0	0	0	0	0
1.707841	-0.01223623	-0.07473911	0	0	0	0	0	0
1.724189	-0.01223623	-0.07473911	0	0	0	0	0	0
1.740756	-0.01223623	-0.07473911	0	0	0	0	0	0
1.757323	-0.01223623	-0.07473911	0	0	0	0	0	0
1.77389	-0.01220992	-0.0747584	0.001588156	-0.001164303	0.04793099	-0.03513898	0	0
1.790456	-0.01220992	-0.0747584	0	0	-0.0479322	0.03513987	0	0
1.807023	-0.01220992	-0.0747584	0	0	0	0	0	0
1.82359	-0.01220992	-0.0747584	0	0	0	0	0	0
1.840156	-0.01220992	-0.0747584	0	0	0	0	0	0
1.856723	-0.01220992	-0.0747584	0	0	0	0	0	0
1.873291	-0.01220992	-0.0747584	0	0	0	0	0	0
1.889971	-0.01220992	-0.0747584	0	0	0	0	0	0
1.906423	-0.01220992	-0.0747584	0	0	0	0	0	0
1.922996	-0.01220992	-0.0747584	0	0	0	0	0	0
1.939557	-0.01220992	-0.0747584	0	0	0	0	0	0
1.956123	-0.01220992	-0.0747584	0	0	0	0	0	0
1.972692	-0.01220992	-0.0747584	0	0	0	0	0	0
2.017499	-0.01220992	-0.0747584	0	0	0	0	0	0
2.034068	-0.01220992	-0.0747584	0	0	0	0	0	0
2.050633	-0.01220992	-0.0747584	0	0	0	0	0	0
2.067201	-0.01220992	-0.0747584	0	0	0	0	0	0
2.083768	-0.01220992	-0.0747584	0	0	0	0	0	0
2.100334	-0.01220992	-0.0747584	0	0	0	0	0	0
2.116901	-0.01220992	-0.0747584	0	0	0	0	0	0
2.133467	-0.01220992	-0.0747584	0	0	0	0	0	0
2.150034	-0.01220992	-0.0747584	0	0	0	0	0	0
2.187687	-0.01220992	-0.0747584	0	0	0	0	0	0
2.204252	-0.01220992	-0.0747584	0	0	0	0	0	0
2.220819	-0.01220992	-0.0747584	0	0	0	0	0	0
2.237386	-0.01220992	-0.0747584	0	0	0	0	0	0
2.253953	-0.01220992	-0.0747584	0	0	0	0	0	0
2.270519	-0.01220992	-0.0747584	0	0	0	0	0	0
2.287255	-0.01220992	-0.0747584	0	0	0	0	0	0
2.303652	-0.01220992	-0.0747584	0	0	0	0	0	0
2.32022	-0.01220992	-0.0747584	0	0	0	0	0	0
2.336786	-0.01220992	-0.0747584	0	0	0	0	0	0
2.353353	-0.01220992	-0.0747584	0	0	0	0	0	0
2.369919	-0.01220992	-0.0747584	0	0	0	0	0	0
2.386487	-0.01223623	-0.07473911	-0.001588065	0.001164236	-0.04792789	0.03513671	0	0
2.403332	-0.01223623	-0.07473911	0	0	0.04752708	-0.03484288	0	0
2.419619	-0.01223623	-0.07473911	0	0	0	0	0	0
2.436186	-0.01223623	-0.07473911	0	0	0	0	0	0
2.452753	-0.01223623	-0.07473911	0	0	0	0	0	0
2.469319	-0.01223623	-0.07473911	0	0	0	0	0	0
2.485893	-0.01223623	-0.07473911	0	0	0	0	0	0
2.502454	-0.01223623	-0.07473911	0	0	0	0	0	0
2.51902	-0.01223623	-0.07473911	0	0	0	0	0	0
2.535586	-0.01223623	-0.07473911	0	0	0	0	0	0
2.552438	-0.01223623	-0.07473911	0	0	0	0	0	0
2.568719	-0.01223623	-0.07473911	0	0	0	0	0	0
2.585462	-0.01223623	-0.07473911	0	0	0	0	0	0
2.601854	-0.01223623	-0.07473911	0	0	0	0	0	0
2.618485	-0.01223623	-0.07473911	0	0	0	0	0	0
2.635015	-0.01223623	-0.07473911	0	0	0	0	0	0
2.651553	-0.01223623	-0.07473911	0	0	0	0	0	0
2.668119	-0.01223623	-0.07473911	0	0	0	0	0	0
2.684686	-0.01223623	-0.07473911	0	0	0	0	0	0
2.701255	-0.01223623	-0.07473911	0	0	0	0	0	0
2.734568	-0.01223623	-0.07473911	0	0	0	0	0	0
2.750953	-0.01226254	-0.0747584	-0.001605891	-0.001177263	-0.03231292	-0.02368829	0	0
2.767591	-0.01226254	-0.0747584	0	0	0.04862896	0.03564942	0	0
2.784102	-0.01226254	-0.0747584	0	0	0	0	0	0
2.800654	-0.01226254	-0.0747584	0	0	0	0	0	0
2.817219	-0.01223623	-0.07473911	0.001588441	0.001164471	0.04796374	0.03516176	0	0
2.833787	-0.01223623	-0.07473911	0	0	-0.04794234	-0.03514607	0	0
2.850353	-0.01223623	-0.07473911	0	0	0	0	0	0
2.86692	-0.01223623	-0.07473911	0	0	0	0	0	0
2.903802	-0.01223623	-0.07473911	0	0	0	0	0	0
2.920366	-0.01223623	-0.07473911	0	0	0	0	0	0
2.936933	-0.01223623	-0.07473911	0	0	0	0	0	0
2.9535	-0.01223623	-0.07473911	0	0	0	0	0	0
2.970233	-0.01223623	-0.07473911	0	0	0	0	0	0
2.986754	-0.01226254	-0.07471981	-0.001592613	0.00116798	-0.04789147	0.03512233	0	0
3.0032	-0.01226254	-0.07471981	0	0	0.04830882	-0.0354284	0	0
3.01977	-0.01226254	-0.07471981	0	0	0	0	0	0
3.036334	-0.01226254	-0.07471981	0	0	0	0	0	0
3.0529	-0.01226254	-0.07471981	0	0	0	0	0	0
3.069467	-0.01226254	-0.07471981	0	0	0	0	0	0
3.086033	-0.01226254	-0.07471981	0	0	0	0	0	0
3.1026	-0.01223623	-0.07473911	0.001588235	-0.001164769	0.04793476	-0.03515407	0	0
3.119169	-0.01223623	-0.07473911	0	0	-0.04793131	0.03515154	0	0
3.135734	-0.01223623	-0.07473911	0	0	0	0	0	0
3.235135	-0.01226254	-0.0747584	-0.0002647122	-0.0001940579	-0.002282674	-0.001673406	0	0
3.251935	-0.01226254	-0.0747584	0	0	0.002278046	0.001670014	0	0
3.268447	-0.01226254	-0.0747584	0	0	0	0	0	0
3.284833	-0.01226254	-0.0747584	0	0	0	0	0	0
3.301401	-0.01226254	-0.0747584	0	0	0	0	0	0
3.317969	-0.01226254	-0.0747584	0	0	0	0	0	0
3.334534	-0.01226254	-0.0747584	0	0	0	0	0	0
3.351101	-0.01226254	-0.0747584	0	0	0	0	0	0
3.368017	-0.01226254	-0.0747584	0	0	0	0	0	0
3.384235	-0.01226254	-0.0747584	0	0	0	0	0	0
3.400802	-0.01228886	-0.07473911	-0.001588179	0.00116432	-0.04844268	0.03551412	0	0
3.433936	-0.01231517	-0.07471981	-0.0007940895	0.0005823847	0.01597711	-0.01170855	0	0
3.450575	-0.01234148	-0.07473911	-0.001581329	-0.001159746	-0.01581645	-0.0350012	0	0
3.467069	-0.01234148	-0.07473911	0	0	0.0477277	0.03500346	0	0
3.483635	-0.01236779	-0.0747584	-0.001588293	-0.001164404	-0.04804368	-0.0352216	0	0
3.500204	-0.0123941	-0.07477769	-0.00158795	-0.001164602	1.034665E-05	-5.986655E-06	0	0
3.51677	-0.01244673	-0.07477769	-0.003176678	0	-0.04794685	0.035147	0	0
3.533337	-0.01252566	-0.0747584	-0.004764674	0.001164803	-0.04792892	0.0351561	0	0
3.550146	-0.01263091	-0.07479699	-0.006261114	-0.002295969	-0.04483553	-0.1036898	0	0
3.566658	-0.01268353	-0.07479699	-0.00318709	0	0.09225511	0.06890476	0	0
3.583035	-0.01273615	-0.07483558	-0.003213212	-0.002356113	-0.0007942477	-0.07163909	0	0
3.59968	-0.01281509	-0.07485487	-0.004742165	-0.001159314	-0.04630046	0.03624203	0	0
3.616168	-0.01286771	-0.07489346	-0.00319155	-0.00234027	0.04679932	-0.03564262	0	0
3.632736	-0.01289402	-0.07491276	-0.001588065	-0.001164686	0.04850743	0.0355629	0	0
3.649302	-0.01294664	-0.07491276	-0.003176622	0	-0.04794344	0.03515079	0	0
3.665868	-0.01292033	-0.07493205	0.001588237	-0.001164853	0.1438161	-0.03515838	0	0
3.682434	-0.01292033	-0.07493205	0	0	-0.04793619	0.03515762	0	0
3.699002	-0.01292033	-0.07493205	0	0	0	0	0	0
3.715763	-0.0128414	-0.07498994	0.004709315	-0.003453405	0.1412998	-0.1036171	0	0
3.732136	-0.01281509	-0.07500923	0.00160698	-0.001178558	-0.09362796	0.0686545	0	0
3.748702	-0.01281509	-0.07500923	0	0	-0.04878591	0.03577956	0	0
3.765268	-0.01281509	-0.07500923	0	0	0	0	0	0
3.781835	-0.01278878	-0.07502853	0.001588225	-0.001164803	0.04793513	-0.03515559	0	0
3.798402	-0.01273615	-0.07510571	0.003176301	-0.004658628	0.04792895	-0.1054454	0	0
3.821036	-0.01465685	-0.0784074	-0.08485858	-0.1458727	-2.245716	-3.602285	0	0
3.837611	-0.019366	-0.08988813	-0.2841102	-0.6926495	-5.081766	-13.94514	0	0
3.85436	-0.02078648	-0.1180157	-0.08481149	-1.679389	5.980678	-29.61069	0	0
3.870872	-0.02076017	-0.135671	0.001593094	-1.06928	2.597844	18.34356	0	0
3.887386	-0.01989211	-0.1734026	0.05256347	-2.284749	1.543342	-36.80341	0	0
3.90387	-0.01883988	-0.2018084	0.06383289	-1.723207	0.34151	17.01702	0	0
3.920437	-0.01636696	-0.2365842	0.1492741	-2.099192	2.58517	-11.37605	0	0
3.937005	-0.01552507	-0.2445408	0.05081295	-0.4802246	-2.971543	48.86018	0	0
4.003271	0.001447367	-0.3255782	0.2561275	-1.222918	2.478626	-8.966049	0	0
4.069538	0.02738789	-0.3567026	0.3914545	-0.4696823	1.021085	5.683402	0	0
4.086105	0.02925481	-0.3623456	0.1126876	-0.3406146	-3.365358	1.558145	0	0
4.102671	0.02659899	-0.3653854	-0.1603149	-0.1834937	-8.23947	4.742054	0	0
4.119237	0.0249422	-0.3665629	-0.10001	-0.07107751	1.820111	3.392922	0	0
4.135805	0.02278553	-0.3683864	-0.1301728	-0.1100626	-0.9103301	-1.176589	0	0
4.152371	0.01868204	-0.3717274	-0.2477016	-0.2016723	-3.547075	-2.764827	0	0
4.168938	0.01865573	-0.3717943	-0.001587887	-0.004036784	7.428047	5.96491	0	0
4.185505	0.01868204	-0.3717274	0.001587842	0.004036668	0.09584507	0.2436608	0	0
4.202071	0.01873465	-0.3717274	0.00317607	0	0.04793489	-0.1218321	0	0
4.218638	0.01873465	-0.3717274	0	0	-0.0958595	0	0	0
4.235204	0.01873465	-0.3717274	0	0	0	0	0	0
4.251771	0.01873465	-0.3717274	0	0	0	0	0	0
4.268338	0.01873465	-0.3717274	0	0	0	0	0	0
4.284904	0.01873465	-0.3717274	0	0	0	0	0	0
4.301471	0.01876096	-0.3717051	0.001587887	0.001347394	0.0479246	0.04066618	0	0
4.318038	0.01868204	-0.3716382	-0.004763911	0.004036901	-0.1917059	0.08117298	0	0
4.3347	0.01862942	-0.3715936	-0.003157598	0.002675786	0.04834159	-0.04096238	0	0
4.351172	0.0185505	-0.3715267	-0.004791079	0.004059922	-0.04929855	0.04177329	0	0
4.367738	0.0185242	-0.3714598	-0.001588091	0.004037017	0.09694818	-0.000693288	0	0
4.384305	0.01847158	-0.3714153	-0.003175775	0.00269119	-0.04791914	-0.04061949	0	0
4.400871	0.01847158	-0.3713707	0	0.002691267	0.09584921	2.34004E-06	0	0
4.417438	0.01844528	-0.3713484	-0.001587954	0.001345556	-0.04792593	-0.04061481	0	0
4.434004	0.01839266	-0.3713038	-0.003175866	0.002691267	-0.04792466	0.04061481	0	0
4.450572	0.01834005	-0.3712592	-0.003175613	0.002690957	7.645205E-06	-9.352728E-06	0	0
4.467137	0.01831374	-0.3712369	-0.001588183	0.00134575	0.04791081	-0.0406002	0	0
4.483704	0.01831374	-0.3712369	0	0	0.04793559	-0.04061832	0	0
4.50587	0.01828744	-0.3712146	-0.001186791	0.001005701	-0.03064067	0.02596528	0	0
4.522438	0.01828744	-0.3712146	0	0	0.03063954	-0.02596432	0	0
4.539005	0.01826113	-0.3711923	-0.001588	0.001345595	-0.04792524	0.04060955	0	0
4.555574	0.01823482	-0.3711701	-0.001587659	0.001343603	1.029037E-05	-6.012258E-05	0	0
4.572138	0.01820851	-0.3711478	-0.001588228	0.001345788	-1.718815E-05	6.597341E-05	0	0
4.588705	0.01818221	-0.3711255	-0.001587887	0.001345595	1.029185E-05	-5.846922E-06	0	0
4.605271	0.0181559	-0.3711032	-0.001588091	0.001345672	-6.152355E-06	2.340073E-06	0	0
4.621838	0.01812959	-0.3710809	-0.001587887	0.001345595	6.152355E-06	-2.340073E-06	0	0
4.638404	0.01810328	-0.3710586	-0.001588046	0.001345634	-4.774946E-06	1.17002E-06	0	0
4.654972	0.01807698	-0.3710363	-0.00158775	0.001345479	8.91355E-06	-4.676364E-06	0	0
4.671537	0.01810328	-0.3710141	0.001588024	0.001343912	0.09584782	-4.728499E-05	0	0
4.688105	0.01807698	-0.3709918	-0.001587842	0.001345556	-0.09585334	4.962642E-05	0	0
4.70467	0.01807698	-0.3709472	0	0.002691422	0.04792392	0.04062065	0	0
4.721239	0.01802436	-0.370858	-0.00317543	0.005379806	-0.09583467	0.08113559	0	0
4.737804	0.01797175	-0.3707689	-0.003176274	0.005379246	-2.546528E-05	-1.690658E-05	0	0
4.754371	0.01797175	-0.3707689	0	0	0.09586841	-0.16236	0	0
4.77101	0.01791913	-0.3706798	-0.003162053	0.005357143	-0.09522676	0.161333	0	0
4.787504	0.01794544	-0.3706129	0.001594978	0.004052716	0.1435716	-0.03936882	0	0
4.80407	0.01791913	-0.3705461	-0.001588046	0.004035102	-0.09627859	-0.0005327832	0	0
4.821043	0.01791913	-0.3705015	0	0.002625018	0.0473488	-0.04204275	0	0
4.837204	0.01791913	-0.370457	0	0.002756919	0	0.003980848	0	0
4.853774	0.01791913	-0.3704124	0	0.002689004	0	-0.00207501	0	0
4.870339	0.01794544	-0.3703901	0.001588137	0.001345711	0.04793007	-0.04054066	0	0
4.88709	0.01794544	-0.3703456	0	0.002659839	-0.0476687	0.0394442	0	0
4.936605	0.01820851	-0.3700338	0.005312923	0.006297489	0.08017562	0.05489461	0	0
4.953171	0.01820851	-0.3699892	0	0.002689468	-0.08039952	-0.05459954	0	0
4.969739	0.01826113	-0.3699447	0.003175613	0.002689159	0.09584019	-9.338674E-06	0	0
4.986666	0.01828744	-0.3699224	0.001554225	0.001315215	-0.04840694	-0.04101943	0	0
5.002872	0.01828744	-0.3699224	0	0	-0.04690998	-0.03969612	0	0
5.019684	0.01828744	-0.3699224	0	0	0	0	0	0
5.036195	0.01828744	-0.3699224	0	0	0	0	0	0
5.052712	0.01828744	-0.3699224	0	0	0	0	0	0
5.069139	0.01828744	-0.3699224	0	0	0	0	0	0
5.08573	0.01826113	-0.3699001	-0.001585718	0.001341865	-0.04802639	0.04064085	0	0
5.118838	0.01802436	-0.3695661	-0.007151275	0.01008901	-0.1119868	0.1760047	0	0
5.135404	0.01699836	-0.3683419	-0.06193321	0.0738965	-1.102828	1.284524	0	0
5.152277	0.01305189	-0.3641644	-0.2338877	0.2475803	-5.142235	5.193949	0	0
5.16854	0.00639465	-0.3554659	-0.4093487	0.5348656	-5.295118	8.669788	0	0
5.185301	-0.002736835	-0.332903	-0.5448267	1.346207	-4.102491	24.5687	0	0
5.201813	-0.007184087	-0.3080972	-0.2693359	1.502299	8.279894	4.691381	0	0
5.218237	-0.00931552	-0.2890635	-0.1297703	1.158844	4.237404	-10.42779	0	0
5.234835	-0.01276246	-0.2483854	-0.2076755	2.450824	-2.359161	39.12436	0	0
5.251371	-0.01481471	-0.2172585	-0.1241093	1.882398	2.522106	-17.15561	0	0
5.291877	-0.01862942	-0.1505916	-0.0941769	1.645858	0.5247459	-4.146798	0	0
5.308387	-0.02052343	-0.1135478	-0.1147156	2.243648	-0.3602245	10.48452	0	0
5.324697	-0.02175972	-0.09052847	-0.07580281	1.41143	1.185651	-25.35723	0	0
5.341413	-0.02286444	-0.07578117	-0.06608346	0.8821756	0.2942919	-16.02526	0	0
5.357925	-0.0242058	-0.05836783	-0.08123831	1.054623	-0.4560814	5.189759	0	0
5.374397	-0.0247581	-0.05011204	-0.03352896	0.5011914	1.446449	-16.7789	0	0
5.390963	-0.02641491	-0.03403085	-0.1000166	0.9707738	-2.012481	14.21355	0	0
5.407529	-0.02686196	-0.02212506	-0.02698486	0.7186561	2.204262	-7.609473	0	0
5.424096	-0.02707233	-0.006697448	-0.01269849	0.9312391	0.4311761	6.415951	0	0
5.440663	-0.02712492	0.00343437	-0.00317465	0.6115754	0.2874383	-9.647747	0	0
5.45723	-0.02707233	0.006216183	0.00317465	0.1679154	0.1916278	-13.39007	0	0
5.473797	-0.02667788	0.01554125	0.02380839	0.562846	0.6227276	11.91903	0	0
5.490519	-0.02636231	0.01509152	0.01887224	-0.0268955	-0.1482819	-17.71583	0	0
5.506933	-0.02628342	0.01496034	0.00480647	-0.007991965	-0.4244937	0.5704934	0	0
5.52354	-0.02630972	0.0149416	-0.001583563	-0.001128425	-0.1935116	0.207851	0	0
5.540063	-0.02630972	0.01490412	0	-0.002268491	0.04779822	-0.03441171	0	0
5.557063	-0.02630972	0.01490412	0	0	0	0.06766951	0	0
5.573197	-0.02633601	0.01492286	-0.001629923	0.0011616	-0.04919187	0.03505766	0	0
5.589765	-0.02633601	0.01492286	0	0	0.04984246	-0.03552131	0	0
5.60633	-0.02633601	0.01488538	0	-0.002262623	0	-0.06828904	0	0
5.622897	-0.0264675	0.01479167	-0.00793685	-0.005656265	-0.2395519	-0.1024277	0	0
5.639463	-0.0265201	0.01475419	-0.003174854	-0.002262605	0.1437235	0.1024253	0	0
5.65603	-0.0264938	0.01473545	0.001587438	-0.001131298	0.1437325	0.03414438	0	0
5.672596	-0.0265201	0.01475419	-0.001587483	0.001131331	-0.09582344	0.06828921	0	0
5.689164	-0.0264938	0.01473545	0.001587346	-0.001131233	0.09581792	-0.06828529	0	0
5.70573	-0.0264938	0.01473545	0	0	-0.04790689	0.03414117	0	0
5.722296	-0.0265201	0.01471671	-0.001587483	-0.001131331	-0.0479131	-0.03414559	0	0
5.788564	-0.02654639	0.01432311	-0.0003968284	-0.005939567	0.01437403	-0.05804681	0	0
5.805239	-0.02654639	0.01432311	0	0	0.004784353	0.07161026	0	0
5.821696	-0.02654639	0.01432311	0	0	0	0	0	0
5.838263	-0.0265201	0.01430436	0.001587371	-0.001131499	0.04806812	-0.03426361	0	0
5.854829	-0.0264675	0.01422939	0.003174763	-0.004525754	0.04790965	-0.1024432	0	0
5.871396	-0.02638861	0.01406068	0.004762088	-0.01018326	0.04790695	-0.1707487	0	0
5.888299	-0.0264938	0.01379824	-0.006223134	-0.01552665	-0.3282142	-0.1596488	0	0
5.90453	-0.02694085	0.01325454	-0.02754366	-0.03349846	-0.6434734	-0.542406	0	0
5.92132	-0.027309	0.01265449	-0.02192623	-0.03573733	0.1701172	-0.06780133	0	0
5.937663	-0.02762455	0.01212937	-0.01930843	-0.03213211	0.07900879	0.1088105	0	0
5.954229	-0.02775603	0.01042217	-0.007936289	-0.10305	0.3455591	-2.154945	0	0
5.970859	-0.02573116	0.008976944	0.1217621	-0.08690608	3.906996	0.4863157	0	0
5.987378	-0.0248896	0.008376152	0.05094656	-0.03637062	-2.136326	1.524527	0	0
6.003929	-0.02152299	0.005934347	0.2034018	-0.1475278	4.610065	-3.36126	0	0
6.020496	-0.0171299	0.002682134	0.2651749	-0.1963096	1.865228	-1.472959	0	0
6.037063	-0.01044699	-0.002211525	0.4033932	-0.2953904	4.171556	-2.990349	0	0
6.053629	-0.003973663	-0.006923792	0.3907419	-0.2844412	-0.3818278	0.3304569	0	0
6.11479	0.01178893	-0.01839367	0.2577248	-0.1875372	-1.711331	1.246717	0	0
6.13147	0.01389384	-0.01990842	0.1261957	-0.09081373	-1.689729	1.242588	0	0
6.147985	0.01449898	-0.02034405	0.03664133	-0.02637708	-2.697826	1.941154	0	0
6.164491	0.01449898	-0.02034405	0	0	-1.109622	0.7987863	0	0
6.181058	0.01449898	-0.02034405	0	0	0	0	0	0
6.197625	0.01449898	-0.02034405	0	0	0	0	0	0
6.214529	0.01447267	-0.02032511	-0.001556483	0.001120558	-0.04650296	0.03347884	0	0
6.230758	0.01447267	-0.02032511	0	0	0.04697747	-0.03382045	0	0
6.247324	0.01449898	-0.02034405	0.001588112	-0.001143328	0.0484241	-0.03486192	0	0
6.264064	0.01449898	-0.02034405	0	0	-0.04768229	0.03432788	0	0
6.280457	0.01449898	-0.02034405	0	0	0	0	0	0
6.297026	0.01449898	-0.02034405	0	0	0	0	0	0
6.313601	0.01449898	-0.02034405	0	0	0	0	0	0
6.330158	0.01447267	-0.02032511	-0.001589118	0.001144053	-0.04796383	0.03453056	0	0
6.346724	0.01447267	-0.02032511	0	0	0.04797695	-0.03454001	0	0
6.363291	0.01447267	-0.02032511	0	0	0	0	0	0
6.379857	0.01447267	-0.02032511	0	0	0	0	0	0
6.396426	0.01447267	-0.02032511	0	0	0	0	0	0
6.41317	0.01447267	-0.02032511	0	0	0	0	0	0
6.42968	0.01447267	-0.02032511	0	0	0	0	0	0
6.462691	0.01447267	-0.02032511	0	0	0	0	0	0
6.479258	0.01447267	-0.02032511	0	0	0	0	0	0
6.495826	0.01447267	-0.02032511	0	0	0	0	0	0
6.512392	0.01447267	-0.02032511	0	0	0	0	0	0
6.528957	0.01447267	-0.02032511	0	0	0	0	0	0
6.545524	0.01447267	-0.02032511	0	0	0	0	0	0
6.562274	0.01447267	-0.02032511	0	0	0	0	0	0
6.578785	0.01447267	-0.02032511	0	0	0	0	0	0
6.661502	0.01447267	-0.02032511	0	0	0	0	0	0
6.678057	0.01447267	-0.02032511	0	0	0	0	0	0
6.694626	0.01447267	-0.02032511	0	0	0	0	0	0
6.711192	0.01444636	-0.02030617	-0.001588249	0.001143427	-0.04793346	0.0345087	0	0
6.72789	0.01444636	-0.02030617	0	0	0.04774657	-0.03437415	0	0
6.744324	0.01444636	-0.02030617	0	0	0	0	0	0
6.76089	0.01444636	-0.02030617	0	0	0	0	0	0
6.777457	0.01444636	-0.02030617	0	0	0	0	0	0
6.794023	0.01444636	-0.02030617	0	0	0	0	0	0
6.810591	0.01444636	-0.02030617	0	0	0	0	0	0
6.82716	0.01444636	-0.02030617	0	0	0	0	0	0
6.843724	0.01444636	-0.02030617	0	0	0	0	0	0
6.86029	0.01444636	-0.02030617	0	0	0	0	0	0
6.876857	0.01444636	-0.02030617	0	0	0	0	0	0
6.915198	0.01444636	-0.02030617	0	0	0	0	0	0
6.931767	0.01444636	-0.02030617	0	0	0	0	0	0
6.948548	0.01444636	-0.02030617	0	0	0	0	0	0
6.964898	0.01444636	-0.02030617	0	0	0	0	0	0
6.981468	0.01444636	-0.02030617	0	0	0	0	0	0
6.998082	0.01444636	-0.02030617	0	0	0	0	0	0
7.014599	0.01444636	-0.02030617	0	0	0	0	0	0
7.031167	0.01444636	-0.02030617	0	0	0	0	0	0
7.047732	0.01444636	-0.02030617	0	0	0	0	0	0
7.064299	0.01444636	-0.02030617	0	0	0	0	0	0
7.081139	0.01444636	-0.02030617	0	0	0	0	0	0
7.097652	0.01444636	-0.02030617	0	0	0	0	0	0
7.113999	0.01444636	-0.02030617	0	0	0	0	0	0
7.130566	0.01444636	-0.02030617	0	0	0	0	0	0
7.147131	0.01444636	-0.02030617	0	0	0	0	0	0
7.163698	0.01444636	-0.02030617	0	0	0	0	0	0
7.180709	0.01444636	-0.02030617	0	0	0	0	0	0
7.196831	0.01444636	-0.02030617	0	0	0	0	0	0
7.213399	0.01444636	-0.02030617	0	0	0	0	0	0
7.229965	0.01444636	-0.02030617	0	0	0	0	0	0
7.246531	0.01444636	-0.02030617	0	0	0	0	0	0
7.263098	0.01444636	-0.02030617	0	0	0	0	0	0
7.296231	0.01444636	-0.02030617	0	0	0	0	0	0
7.312804	0.01442005	-0.02028723	-0.001587529	0.001142868	-0.03193808	0.02299234	0	0
7.329364	0.01442005	-0.02028723	0	0	0.04791378	-0.03449331	0	0
7.345932	0.01439374	-0.02030617	-0.001588021	-0.001143262	-0.04793691	-0.03451118	0	0
7.362839	0.01439374	-0.02030617	0	0	0.04743912	0.03415281	0	0
7.395631	0.01439374	-0.02030617	0	0	0	0	0	0
7.412198	0.01439374	-0.02030617	0	0	0	0	0	0
7.428765	0.01439374	-0.02030617	0	0	0	0	0	0
7.445398	0.01439374	-0.02030617	0	0	0	0	0	0
7.461908	0.01439374	-0.02030617	0	0	0	0	0	0
7.478465	0.01439374	-0.02030617	0	0	0	0	0	0
7.495032	0.01439374	-0.02030617	0	0	0	0	0	0
7.528455	0.01439374	-0.02030617	0	0	0	0	0	0
7.544736	0.01439374	-0.02030617	0	0	0	0	0	0
7.561479	0.01439374	-0.02030617	0	0	0	0	0	0
7.577992	0.01439374	-0.02030617	0	0	0	0	0	0
7.594503	0.01436743	-0.02028723	-0.001593489	0.001147158	-0.04825199	0.03473679	0	0
7.620692	0.01436743	-0.02028723	0	0	0.03731798	-0.02686535	0	0
7.63726	0.01436743	-0.02028723	0	0	0	0	0	0
7.653826	0.01436743	-0.02028723	0	0	0	0	0	0
7.678375	0.01436743	-0.02028723	0	0	0	0	0	0
7.694941	0.01434112	-0.02026828	-0.001588158	0.001143361	-0.03862739	0.02780899	0	0
7.711598	0.01434112	-0.02026828	0	0	0.04780206	-0.0344141	0	0
7.728102	0.01434112	-0.02026828	0	0	0	0	0	0
7.744644	0.01434112	-0.02026828	0	0	0	0	0	0
7.761209	0.01434112	-0.02026828	0	0	0	0	0	0
7.778135	0.01434112	-0.02026828	0	0	0	0	0	0
7.794342	0.01434112	-0.02026828	0	0	0	0	0	0
7.810907	0.01434112	-0.02026828	0	0	0	0	0	0
7.827478	0.01434112	-0.02026828	0	0	0	0	0	0
7.844041	0.01434112	-0.02026828	0	0	0	0	0	0
7.860689	0.01434112	-0.02026828	0	0	0	0	0	0
7.877203	0.01434112	-0.02026828	0	0	0	0	0	0
7.893742	0.01434112	-0.02026828	0	0	0	0	0	0
7.910307	0.01434112	-0.02026828	0	0	0	0	0	0
7.926877	0.01434112	-0.02026828	0	0	0	0	0	0
7.943441	0.01434112	-0.02026828	0	0	0	0	0	0
7.960009	0.01434112	-0.02026828	0	0	0	0	0	0
7.976789	0.01434112	-0.02026828	0	0	0	0	0	0
8.00971	0.01431481	-0.02024934	-0.000799214	0.0005753571	-0.01608037	0.01157632	0	0
8.026313	0.01431481	-0.02024934	0	0	0.01613812	-0.0116179	0	0
8.042842	0.01431481	-0.02024934	0	0	0	0	0	0
8.05941	0.01431481	-0.02024934	0	0	0	0	0	0
8.075974	0.01431481	-0.02024934	0	0	0	0	0	0
8.093355	0.01431481	-0.02024934	0	0	0	0	0	0
8.109108	0.01431481	-0.02024934	0	0	0	0	0	0
8.12588	0.01431481	-0.02024934	0	0	0	0	0	0
8.142392	0.01431481	-0.02024934	0	0	0	0	0	0
8.15881	0.01431481	-0.02024934	0	0	0	0	0	0
8.175411	0.01431481	-0.02024934	0	0	0	0	0	0
8.191941	0.01431481	-0.02024934	0	0	0	0	0	0
8.208508	0.01431481	-0.02024934	0	0	0	0	0	0
8.225075	0.01431481	-0.02024934	0	0	0	0	0	0
8.241673	0.01431481	-0.02024934	0	0	0	0	0	0
8.258209	0.01431481	-0.02024934	0	0	0	0	0	0
8.274774	0.01431481	-0.02024934	0	0	0	0	0	0
8.29134	0.01431481	-0.02024934	0	0	0	0	0	0
8.307906	0.01431481	-0.02024934	0	0	0	0	0	0
8.324472	0.01431481	-0.02024934	0	0	0	0	0	0
8.341041	0.01431481	-0.02024934	0	0	0	0	0	0
8.357607	0.01431481	-0.02024934	0	0	0	0	0	0
8.374173	0.01431481	-0.02024934	0	0	0	0	0	0
8.390739	0.01431481	-0.02024934	0	0	0	0	0	0
8.407307	0.01431481	-0.02024934	0	0	0	0	0	0
8.423873	0.01431481	-0.02024934	0	0	0	0	0	0
8.440598	0.01431481	-0.02024934	0	0	0	0	0	0
8.479208	0.01431481	-0.02024934	0	0	0	0	0	0
8.496141	0.0142885	-0.0202304	-0.001553777	0.00111857	-0.02797434	0.02013883	0	0
8.559085	0.0142885	-0.0202304	0	0	0.01945215	-0.01400367	0	0
8.575693	0.01426219	-0.02021146	-0.001584145	0.00114036	-0.01991341	0.01433483	0	0
8.592221	0.01426219	-0.02021146	0	0	0.04780685	-0.03441416	0	0
8.608786	0.01426219	-0.02021146	0	0	0	0	0	0
8.625353	0.01426219	-0.02021146	0	0	0	0	0	0
8.64192	0.01426219	-0.02021146	0	0	0	0	0	0
8.658485	0.01426219	-0.02021146	0	0	0	0	0	0
8.675053	0.01426219	-0.02021146	0	0	0	0	0	0
8.691619	0.01426219	-0.02021146	0	0	0	0	0	0
8.708185	0.01426219	-0.02021146	0	0	0	0	0	0
8.724797	0.01426219	-0.02021146	0	0	0	0	0	0
8.741319	0.01426219	-0.02021146	0	0	0	0	0	0
8.757885	0.01426219	-0.02021146	0	0	0	0	0	0
8.774453	0.01426219	-0.02021146	0	0	0	0	0	0
8.791018	0.01426219	-0.02021146	0	0	0	0	0	0
8.807586	0.01426219	-0.02021146	0	0	0	0	0	0
8.824152	0.01426219	-0.02021146	0	0	0	0	0	0
8.840718	0.01426219	-0.02021146	0	0	0	0	0	0
8.85739	0.01426219	-0.02021146	0	0	0	0	0	0
8.873852	0.01426219	-0.02021146	0	0	0	0	0	0
8.890417	0.01426219	-0.02021146	0	0	0	0	0	0
8.906983	0.01426219	-0.02021146	0	0	0	0	0	0
8.92355	0.01426219	-0.02021146	0	0	0	0	0	0
8.940117	0.01426219	-0.02021146	0	0	0	0	0	0
8.956683	0.01426219	-0.02021146	0	0	0	0	0	0
8.973478	0.01426219	-0.02021146	0	0	0	0	0	0
8.989989	0.01426219	-0.02021146	0	0	0	0	0	0
9.006495	0.01426219	-0.02021146	0	0	0	0	0	0
9.02295	0.01426219	-0.02021146	0	0	0	0	0	0
9.039518	0.01426219	-0.02021146	0	0	0	0	0	0
9.056085	0.01426219	-0.02021146	0	0	0	0	0	0
9.072651	0.01426219	-0.02021146	0	0	0	0	0	0
9.089554	0.01426219	-0.02021146	0	0	0	0	0	0
9.105784	0.01426219	-0.02021146	0	0	0	0	0	0
9.122351	0.01426219	-0.02021146	0	0	0	0	0	0
9.138917	0.01426219	-0.02021146	0	0	0	0	0	0
9.155484	0.01426219	-0.02021146	0	0	0	0	0	0
9.17205	0.01426219	-0.02021146	0	0	0	0	0	0
9.210139	0.01426219	-0.02021146	0	0	0	0	0	0
9.22665	0.01426219	-0.02021146	0	0	0	0	0	0
9.259787	0.01426219	-0.02021146	0	0	0	0	0	0
9.276691	0.01426219	-0.02021146	0	0	0	0	0	0
9.292918	0.01426219	-0.02021146	0	0	0	0	0	0
9.309484	0.01426219	-0.02021146	0	0	0	0	0	0
9.326052	0.01426219	-0.02021146	0	0	0	0	0	0
9.342736	0.01426219	-0.02021146	0	0	0	0	0	0
9.359186	0.01426219	-0.02021146	0	0	0	0	0	0
9.375763	0.01426219	-0.02021146	0	0	0	0	0	0
9.392321	0.01426219	-0.02021146	0	0	0	0	0	0
9.408885	0.01426219	-0.02021146	0	0	0	0	0	0
9.425451	0.01426219	-0.02021146	0	0	0	0	0	0
9.442305	0.01426219	-0.02021146	0	0	0	0	0	0
9.458824	0.01426219	-0.02021146	0	0	0	0	0	0
9.475151	0.01426219	-0.02021146	0	0	0	0	0	0
9.49172	0.01426219	-0.02021146	0	0	0	0	0	0
9.508358	0.01426219	-0.02021146	0	0	0	0	0	0
9.524851	0.01426219	-0.02021146	0	0	0	0	0	0
9.541418	0.01426219	-0.02021146	0	0	0	0	0	0
9.558387	0.01426219	-0.02021146	0	0	0	0	0	0
9.574552	0.01426219	-0.02021146	0	0	0	0	0	0
9.591119	0.01426219	-0.02021146	0	0	0	0	0	0
9.607684	0.01426219	-0.02021146	0	0	0	0	0	0
9.640818	0.01426219	-0.02021146	0	0	0	0	0	0
9.657455	0.01426219	-0.02021146	0	0	0	0	0	0
9.673951	0.01426219	-0.02021146	0	0	0	0	0	0
9.690517	0.01426219	-0.02021146	0	0	0	0	0	0
9.707085	0.01426219	-0.02021146	0	0	0	0	0	0
9.723651	0.01426219	-0.02021146	0	0	0	0	0	0
9.740218	0.01426219	-0.02021146	0	0	0	0	0	0
9.756784	0.01426219	-0.02021146	0	0	0	0	0	0
9.773351	0.01426219	-0.02021146	0	0	0	0	0	0
9.789917	0.01426219	-0.02021146	0	0	0	0	0	0
9.806483	0.01426219	-0.02021146	0	0	0	0	0	0
9.823075	0.01426219	-0.02021146	0	0	0	0	0	0
9.839617	0.01426219	-0.02021146	0	0	0	0	0	0
9.856184	0.01426219	-0.02021146	0	0	0	0	0	0
9.879163	0.01426219	-0.02021146	0	0	0	0	0	0
9.896125	0.01426219	-0.02021146	0	0	0	0	0	0
9.912297	0.01426219	-0.02021146	0	0	0	0	0	0
9.928864	0.01426219	-0.02021146	0	0	0	0	0	0
9.945431	0.01426219	-0.02021146	0	0	0	0	0	0
9.961998	0.01426219	-0.02021146	0	0	0	0	0	0
9.978689	0.01426219	-0.02021146	0	0	0	0	0	0
9.995196	0.01426219	-0.02021146	0	0	0	0	0	0
10.0117	0.01426219	-0.02021146	0	0	0	0	0	0
10.02826	0.01426219	-0.02021146	0	0	0	0	0	0
10.04483	0.01426219	-0.02021146	0	0	0	0	0	0
10.0614	0.01426219	-0.02021146	0	0	0	0	0	0
10.07825	0.01426219	-0.02021146	0	0	0	0	0	0
10.09453	0.01426219	-0.02021146	0	0	0	0	0	0
10.11127	0.01426219	-0.02021146	0	0	0	0	0	0
10.12766	0.01423588	-0.02019252	-0.001605497	0.001155804	-0.04845819	0.03488523	0	0
10.14423	0.01423588	-0.02019252	0	0	0.04871762	-0.035072	0	0
10.22521	0.01423588	-0.02019252	0	0	0	0	0	0
10.24177	0.01423588	-0.02019252	0	0	0	0	0	0
10.25834	0.01423588	-0.02019252	0	0	0	0	0	0
10.27491	0.01423588	-0.02019252	0	0	0	0	0	0
10.29147	0.01423588	-0.02019252	0	0	0	0	0	0
10.30804	0.01423588	-0.02019252	0	0	0	0	0	0
10.32461	0.01423588	-0.02019252	0	0	0	0	0	0
10.34117	0.01423588	-0.02019252	0	0	0	0	0	0
10.35774	0.01423588	-0.02019252	0	0	0	0	0	0
10.37431	0.01423588	-0.02019252	0	0	0	0	0	0
10.39097	0.01423588	-0.02019252	0	0	0	0	0	0
10.40748	0.01423588	-0.02019252	0	0	0	0	0	0
10.424	0.01423588	-0.02019252	0	0	0	0	0	0
10.44057	0.01420957	-0.02017358	-0.001588214	0.001143361	-0.04799871	0.03455445	0	0
10.45714	0.01420957	-0.02017358	0	0	0.04793378	-0.0345077	0	0
10.47403	0.01420957	-0.02017358	0	0	0	0	0	0
10.49027	0.01420957	-0.02017358	0	0	0	0	0	0
10.50684	0.01420957	-0.02017358	0	0	0	0	0	0
10.52341	0.01420957	-0.02017358	0	0	0	0	0	0
10.54008	0.01420957	-0.02017358	0	0	0	0	0	0
10.55659	0.01420957	-0.02017358	0	0	0	0	0	0
10.59471	0.01420957	-0.02017358	0	0	0	0	0	0
10.61163	0.01420957	-0.02017358	0	0	0	0	0	0
10.62779	0.01420957	-0.02017358	0	0	0	0	0	0
10.64436	0.01420957	-0.02017358	0	0	0	0	0	0
10.66093	0.01420957	-0.02017358	0	0	0	0	0	0
10.67767	0.01420957	-0.02017358	0	0	0	0	0	0
10.69406	0.01420957	-0.02017358	0	0	0	0	0	0
10.71063	0.01418326	-0.02015464	-0.001588249	0.001143315	-0.04819703	0.03469504	0	0
10.72727	0.01418326	-0.02015464	0	0	0.04783158	-0.03443197	0	0
10.74376	0.01418326	-0.02015464	0	0	0	0	0	0
10.76033	0.01418326	-0.02015464	0	0	0	0	0	0
10.7769	0.01418326	-0.02015464	0	0	0	0	0	0
10.79346	0.01418326	-0.02015464	0	0	0	0	0	0
10.81027	0.01418326	-0.02015464	0	0	0	0	0	0
10.82678	0.01418326	-0.02015464	0	0	0	0	0	0
10.84379	0.01418326	-0.02015464	0	0	0	0	0	0
10.85973	0.01418326	-0.02015464	0	0	0	0	0	0
10.87629	0.01415695	-0.0201357	-0.001588031	0.00114323	-0.04885637	0.03517188	0	0
10.89286	0.01415695	-0.0201357	0	0	0.0479255	-0.03450175	0	0
10.90943	0.01415695	-0.0201357	0	0	0	0	0	0
10.926	0.01415695	-0.0201357	0	0	0	0	0	0
10.94256	0.01415695	-0.0201357	0	0	0	0	0	0
10.95913	0.01415695	-0.0201357	0	0	0	0	0	0
10.9757	0.01415695	-0.0201357	0	0	0	0	0	0
10.99226	0.01415695	-0.0201357	0	0	0	0	0	0
11.00891	0.01415695	-0.0201357	0	0	0	0	0	0
11.02539	0.01413064	-0.02011676	-0.001596393	0.001149136	-0.04818618	0.034686	0	0
11.04196	0.01413064	-0.02011676	0	0	0.04830855	-0.03477408	0	0
11.12499	0.01410433	-0.02009782	-0.0003168691	0.0002281233	-0.003181574	0.002290508	0	0
11.14136	0.01407802	-0.02007888	-0.001607275	0.001156969	-0.01298188	0.009344476	0	0
11.15801	0.01407802	-0.02007888	0	0	0.04867154	-0.03503538	0	0
11.17452	0.01405171	-0.02005994	-0.001593443	0.001147013	-0.04804594	0.03458505	0	0
11.19106	0.01399909	-0.02002206	-0.003182418	0.002290962	-0.04808268	0.03461613	0	0
11.20763	0.01397278	-0.02000312	-0.001588214	0.001143249	0.04816168	-0.03467299	0	0
11.22419	0.01384122	-0.01990842	-0.007941071	0.005716132	-0.1917406	0.1380178	0	0
11.24076	0.01376229	-0.01985161	-0.004764094	0.003429239	0.09588135	-0.06901855	0	0
11.25733	0.01370967	-0.01981373	-0.003176611	0.002286517	0.04791171	-0.03448842	0	0
11.27389	0.0135518	-0.01977585	-0.009529284	0.002286385	-0.1917406	-3.970509E-06	0	0
11.29046	0.01318345	-0.01985161	-0.02223528	-0.004572771	-0.3834897	-0.2070217	0	0
11.30712	0.01113112	-0.02106391	-0.123205	-0.07277663	-3.039049	-2.052843	0	0
11.32996	-0.01628803	-0.03953414	-1.200011	-0.8083577	-27.25614	-18.61905	0	0
11.34653	-0.04210668	-0.05279116	-1.558416	-0.8001953	-9.092821	0.2070812	0	0
11.36315	-0.07977769	-0.06155387	-2.26639	-0.5271882	-21.3317	8.225875	0	0
11.37967	-0.1262202	-0.06489727	-2.812663	-0.2024843	-16.48703	9.799866	0	0
11.39623	-0.1914676	-0.06697447	-3.938568	-0.1253872	-34.03766	2.330751	0	0
11.4128	-0.2381312	-0.06751325	-2.816782	-0.03252278	33.85749	2.802816	0	0
11.42936	-0.2799498	-0.06695522	-2.524325	0.03368446	8.826896	1.998253	0	0
11.44593	-0.3240067	-0.06493572	-2.659128	0.1218904	-4.068364	2.66206	0	0
11.4625	-0.3386662	-0.06207241	-0.8849471	0.1728497	53.54642	1.537998	0	0
11.47906	-0.3353144	-0.0590201	0.2023119	0.1842377	32.81543	0.3437131	0	0
11.49575	-0.3343285	-0.05825274	0.05909526	0.04599524	-4.307163	-4.157568	0	0
11.51226	-0.3335064	-0.05719795	0.04978811	0.06388052	-0.280374	0.5387864	0	0
11.52876	-0.3335299	-0.05717877	-0.001422999	0.001162056	-1.551135	-1.899682	0	0
11.54533	-0.3335534	-0.0571596	-0.001417348	0.001157216	0.0001708752	-0.0001463408	0	0
11.5619	-0.3336943	-0.05704455	-0.008509643	0.006944669	-0.2140459	0.1746657	0	0
11.57847	-0.3337179	-0.05702538	-0.00141931	0.001157349	0.213999	-0.1746717	0	0
11.59503	-0.3336709	-0.05706373	0.002836821	-0.002314698	0.1284503	-0.1047866	0	0
11.6116	-0.3336474	-0.0570829	0.001417593	-0.001157191	-0.04283362	0.03493464	0	0
11.62816	-0.3336474	-0.0570829	0	0	-0.04278672	0.03492711	0	0
11.64486	-0.3336004	-0.0570829	0.002815589	0	0.08466031	0	0	0
11.6613	-0.3335534	-0.05712125	0.002858541	-0.002332421	0.001296342	-0.07039464	0	0
11.67788	-0.3334124	-0.05719795	0.008503279	-0.004626692	0.1709539	-0.06948321	0	0
11.69443	-0.3332949	-0.05721712	0.007096054	-0.001158149	-0.04247135	0.1046838	0	0
11.711	-0.3329894	-0.05727464	0.01844309	-0.003472247	0.3425826	-0.06986576	0	0
11.72756	-0.3326133	-0.05750475	0.02270307	-0.01389034	0.1285737	-0.3144367	0	0
11.74413	-0.3323546	-0.05767735	0.01561331	-0.01041832	-0.2139818	0.1047919	0	0
11.76093	-0.3314138	-0.05840619	0.05598788	-0.04337155	1.209871	-0.987482	0	0
11.77745	-0.3300955	-0.05948062	0.07984246	-0.06507348	0.7160171	-0.6514035	0	0
11.79396	-0.3288468	-0.06053625	0.07561829	-0.06392413	-0.1279092	0.03480284	0	0
11.8104	-0.3288703	-0.06051705	-0.001433969	0.001167705	-2.338228	1.975277	0	0
11.8601	-0.3288232	-0.06055545	0.0009480418	-0.0007724952	0.03601509	-0.0293351	0	0
11.87667	-0.3287996	-0.06061304	0.001422989	-0.00347652	0.007167283	-0.04080558	0	0
11.89323	-0.3287761	-0.06063224	0.001422989	-0.001158765	0	0.06995402	0	0
11.9098	-0.3287761	-0.06063224	0	0	-0.0429422	0.03496858	0	0
11.92637	-0.3287761	-0.06063224	0	0	0	0	0	0
11.94307	-0.3287761	-0.06063224	0	0	0	0	0	0
11.95958	-0.3287996	-0.06061304	-0.001427839	0.001162714	-0.04299327	0.03501017	0	0
11.97607	-0.3287996	-0.06061304	0	0	0.04326411	-0.03523071	0	0
11.99264	-0.3287996	-0.06061304	0	0	0	0	0	0
12.0092	-0.3287996	-0.06061304	0	0	0	0	0	0
12.02613	-0.3287996	-0.06061304	0	0	0	0	0	0
12.04264	-0.3287996	-0.06061304	0	0	0	0	0	0
12.0589	-0.3288232	-0.06059384	-0.00144944	0.001180304	-0.04423049	0.03601765	0	0
12.08964	-0.3288232	-0.06059384	0	0	0.03083544	-0.02510983	0	0
12.10621	-0.3288232	-0.06059384	0	0	0	0	0	0
12.12278	-0.3288232	-0.06059384	0	0	0	0	0	0
12.1397	-0.3288232	-0.06059384	0	0	0	0	0	0
12.15591	-0.3288232	-0.06059384	0	0	0	0	0	0
12.17248	-0.3288232	-0.06059384	0	0	0	0	0	0
12.18924	-0.3288232	-0.06059384	0	0	0	0	0	0
12.20561	-0.3287996	-0.06061304	0.001439815	-0.001172467	0.04345496	-0.03538613	0	0
12.22218	-0.3287996	-0.06061304	0	0	-0.04371163	0.03559513	0	0
12.23877	-0.3287996	-0.06061304	0	0	0	0	0	0
12.25531	-0.3287996	-0.06061304	0	0	0	0	0	0
12.27188	-0.3287761	-0.06059384	0.001422908	0.001158698	0.04298303	0.03500182	0	0
12.28844	-0.3287525	-0.06061304	0.001422989	-0.001158765	2.470006E-06	-0.06994319	0	0
12.30501	-0.3287525	-0.06061304	0	0	-0.04294838	0.03497361	0	0
12.32158	-0.3287289	-0.06059384	0.001422826	0.001158632	0.04294096	0.03496757	0	0
12.33814	-0.3287289	-0.06059384	0	0	-0.0429422	-0.03496857	0	0
12.35471	-0.3286582	-0.06057464	0.004268968	0.00115899	0.1288489	0.0349814	0	0
12.37128	-0.3285875	-0.06055545	0.004268723	0.001158698	-7.42056E-06	-8.801374E-06	0	0
12.38784	-0.3285167	-0.06057464	0.004271013	-0.001158832	6.913406E-05	-0.06994721	0	0
12.40441	-0.3270543	-0.06130423	0.08827931	-0.04404027	2.535594	-1.294276	0	0
12.42098	-0.3187001	-0.06405143	0.5042289	-0.1658123	12.55338	-3.675086	0	0
12.45442	-0.2939416	-0.06553181	0.7402237	-0.04425984	4.718438	2.430297	0	0
12.47068	-0.2666283	-0.06522413	1.680559	0.01893071	18.92032	1.271445	0	0
12.48724	-0.2303131	-0.06289844	2.192241	0.1403952	15.59158	3.701171	0	0
12.50381	-0.1786282	-0.05758146	3.11989	0.320952	27.99891	5.449687	0	0
12.52038	-0.1489929	-0.05273373	1.788789	0.2926099	-40.17386	-0.8553926	0	0
12.53694	-0.1310861	-0.04875427	1.080858	0.2402004	-21.36539	-1.58172	0	0
12.55351	-0.09309851	-0.03722878	2.293065	0.6957202	36.58553	13.74801	0	0
12.57008	-0.08030064	-0.03300367	0.7724814	0.2550283	-45.89263	-13.30049	0	0
12.58702	-0.06252366	-0.0278159	1.049283	0.3062069	8.260447	1.527298	0	0
12.60321	-0.04357766	-0.02015464	1.170191	0.473194	3.649218	5.039969	0	0
12.62004	-0.03148959	-0.01459104	0.7181449	0.33053	-13.68887	-4.320156	0	0
12.63655	-0.02070757	-0.008018006	0.6529465	0.3980554	-1.955253	2.02504	0	0
12.65291	-0.01723514	-0.00545284	0.2123095	0.156838	-13.40611	-7.33889	0	0
12.66948	-0.01741929	-0.005584822	-0.01111557	-0.007966416	-6.786343	-5.005791	0	0
12.68604	-0.01797175	-0.005980798	-0.03334839	-0.02390256	-0.6710073	-0.4809677	0	0
12.70261	-0.01797175	-0.005980798	0	0	1.006514	0.7214223	0	0
12.71918	-0.01797175	-0.005980798	0	0	0	0	0	0
12.73612	-0.01799806	-0.005999655	-0.001552301	-0.00111268	-0.04631663	-0.03319949	0	0
12.75231	-0.01805067	-0.00603737	-0.003250835	-0.002330233	-0.05126482	-0.03674794	0	0
12.76888	-0.01818221	-0.006131659	-0.007940003	-0.005691621	-0.143176	-0.1026344	0	0
12.78544	-0.01834005	-0.006244809	-0.009527936	-0.006830147	-0.04792667	-0.03436277	0	0
12.80217	-0.01857681	-0.006414542	-0.01415161	-0.01014522	-0.1388634	-0.09956187	0	0
12.824	-0.01862942	-0.006452261	-0.002410219	-0.001727906	0.3044974	0.2182918	0	0
12.8407	-0.01870834	-0.006508841	-0.004726522	-0.003388657	-0.06012227	-0.0431067	0	0
12.85714	-0.01870834	-0.006508841	0	0	0.1426467	0.1022699	0	0
12.8737	-0.01873465	-0.006527701	-0.001588046	-0.00113847	-0.04811704	-0.03449512	0	0
12.95678	-0.01889249	-0.006640865	-0.001899964	-0.001362193	-0.003130428	-0.002245293	0	0
12.9731	-0.0189188	-0.006659726	-0.001611308	-0.001155286	0.002903966	0.002081548	0	0
12.9898	-0.0189188	-0.006659726	0	0	0.04878946	0.03498138	0	0
13.00631	-0.0189188	-0.006659726	0	0	0	0	0	0
13.02283	-0.0189451	-0.006640865	-0.001593069	0.001142209	-0.04824136	0.0345884	0	0
13.03937	-0.0189451	-0.006640865	0	0	0.04819265	-0.03455348	0	0
13.05635	-0.0189451	-0.006640865	0	0	0	0	0	0
13.07286	-0.0189451	-0.006640865	0	0	0	0	0	0
13.08937	-0.0189451	-0.006640865	0	0	0	0	0	0
13.10565	-0.0189451	-0.006640865	0	0	0	0	0	0
13.1222	-0.0189188	-0.006659726	0.001589031	-0.001139314	0.04840425	-0.03470519	0	0
13.13891	-0.0189188	-0.006659726	0	0	-0.04777416	0.03425343	0	0
13.15534	-0.0189188	-0.006659726	0	0	0	0	0	0
13.1719	-0.0189188	-0.006659726	0	0	0	0	0	0
13.20504	-0.0189188	-0.006659726	0	0	0	0	0	0
13.2216	-0.0189188	-0.006659726	0	0	0	0	0	0
13.23848	-0.0189188	-0.006659726	0	0	0	0	0	0
13.25499	-0.01889249	-0.006678587	0.001593161	-0.001142275	0.04771637	-0.03421199	0	0
13.2715	-0.01889249	-0.006678587	0	0	-0.04824554	0.0345914	0	0
13.28801	-0.01889249	-0.006678587	0	0	0	0	0	0
13.30452	-0.01889249	-0.006678587	0	0	0	0	0	0
13.321	-0.0189188	-0.006659726	-0.001596388	0.001144588	-0.04838938	0.03469453	0	0
13.33757	-0.0189188	-0.006659726	0	0	0.04830839	-0.03463646	0	0
13.35414	-0.0189188	-0.006659726	0	0	0	0	0	0
13.37107	-0.0189188	-0.006659726	0	0	0	0	0	0
13.38727	-0.0189188	-0.006659726	0	0	0	0	0	0
13.40384	-0.01889249	-0.006678587	0.00158775	-0.001138395	0.04845674	-0.03474283	0	0
13.4204	-0.01889249	-0.006678587	0	0	-0.04791839	0.03435684	0	0
13.43697	-0.01889249	-0.006678587	0	0	0	0	0	0
13.45354	-0.01889249	-0.006678587	0	0	0	0	0	0
13.4701	-0.01889249	-0.006678587	0	0	0	0	0	0
13.48667	-0.01889249	-0.006678587	0	0	0	0	0	0
13.50324	-0.01889249	-0.006678587	0	0	0	0	0	0
13.5198	-0.01889249	-0.006678587	0	0	0	0	0	0
13.53637	-0.01889249	-0.006678587	0	0	0	0	0	0
13.5532	-0.01889249	-0.006678587	0	0	0	0	0	0
13.56971	-0.01889249	-0.006678587	0	0	0	0	0	0
13.58607	-0.0189188	-0.006697448	-0.001608114	-0.001152996	-0.04892871	-0.03508122	0	0
13.60264	-0.0189188	-0.006697448	0	0	0.04883943	0.03501721	0	0
13.6258	-0.0189188	-0.006697448	0	0	0	0	0	0
13.64236	-0.0189188	-0.006697448	0	0	0	0	0	0
13.65928	-0.0189451	-0.00671631	-0.001555166	-0.001115061	-0.04644575	-0.03330179	0	0
13.6755	-0.0189188	-0.006735171	0.001622015	-0.001162963	0.09589028	-0.001445727	0	0
13.69207	-0.0189451	-0.006754033	-0.00158775	-0.001138424	-0.09789938	0.0007484569	0	0
13.70863	-0.0189451	-0.006754033	0	0	0.04791564	0.03435571	0	0
13.74184	-0.0189451	-0.006754033	0	0	0	0	0	0
13.8246	-0.01897141	-0.006772894	-0.0003178647	-0.0002279104	-0.002740975	-0.001965291	0	0
13.84141	-0.01897141	-0.006772894	0	0	0.003192519	0.002289049	0	0
13.85773	-0.01897141	-0.006772894	0	0	0	0	0	0
13.8743	-0.01897141	-0.006772894	0	0	0	0	0	0
13.89087	-0.01897141	-0.006772894	0	0	0	0	0	0
13.90744	-0.01897141	-0.006772894	0	0	0	0	0	0
13.924	-0.01897141	-0.006772894	0	0	0	0	0	0
13.94057	-0.01897141	-0.006772894	0	0	0	0	0	0
13.95713	-0.01897141	-0.006772894	0	0	0	0	0	0
13.97402	-0.01897141	-0.006772894	0	0	0	0	0	0
13.99053	-0.01899771	-0.006791756	-0.001593253	-0.001142397	-0.04771231	-0.03421077	0	0
14.00683	-0.01899771	-0.006791756	0	0	0.04854696	0.03480923	0	0
14.02354	-0.01899771	-0.006791756	0	0	0	0	0	0
14.04004	-0.01899771	-0.006791756	0	0	0	0	0	0
14.05656	-0.01899771	-0.006791756	0	0	0	0	0	0
14.0731	-0.01897141	-0.006810618	0.00159013	-0.00114013	0.04810652	-0.03449258	0	0
14.08967	-0.01897141	-0.006810618	0	0	-0.04802616	0.03443496	0	0
14.10623	-0.01897141	-0.006810618	0	0	0	0	0	0
14.1228	-0.01897141	-0.006810618	0	0	0	0	0	0
14.13963	-0.01899771	-0.00682948	-0.001563186	-0.001120839	-0.04680925	-0.03356326	0	0
14.15593	-0.01899771	-0.00682948	0	0	0.04717706	0.03382698	0	0
14.1725	-0.01899771	-0.00682948	0	0	0	0	0	0
14.18906	-0.01899771	-0.00682948	0	0	0	0	0	0
14.20566	-0.01899771	-0.00682948	0	0	0	0	0	0
14.2222	-0.01899771	-0.00682948	0	0	0	0	0	0
14.26064	-0.01899771	-0.00682948	0	0	0	0	0	0
14.27721	-0.01899771	-0.00682948	0	0	0	0	0	0
14.29377	-0.01899771	-0.00682948	0	0	0	0	0	0
14.31034	-0.01899771	-0.00682948	0	0	0	0	0	0
14.32726	-0.01899771	-0.00682948	0	0	0	0	0	0
14.34347	-0.01899771	-0.00682948	0	0	0	0	0	0
14.36004	-0.01899771	-0.00682948	0	0	0	0	0	0
14.37678	-0.01902402	-0.006848342	-0.001570931	-0.001126392	-0.04715699	-0.0338126	0	0
14.39317	-0.01902402	-0.006848342	0	0	0.04741353	0.03399654	0	0
14.40974	-0.01902402	-0.006848342	0	0	0	0	0	0
14.42632	-0.01902402	-0.006848342	0	0	0	0	0	0
14.44287	-0.01902402	-0.006848342	0	0	0	0	0	0
14.45984	0	0	1.120933	0.4035181	33.43623	12.03651	0	0
14.47601	-0.01902402	-0.006848342	-1.17702	-0.4237082	-69.35236	-24.96574	0	0
14.49257	-0.01902402	-0.006848342	0	0	35.96243	12.9459	0	0
14.50914	-0.01902402	-0.006848342	0	0	0	0	0	0
14.52571	-0.01902402	-0.006848342	0	0	0	0	0	0
14.5424	-0.01899771	-0.006867204	0.001575958	-0.001129996	0.04738248	-0.03397427	0	0
14.55884	-0.01902402	-0.006848342	-0.001600185	0.001147367	-0.09586444	0.0687369	0	0
14.57543	-0.01902402	-0.006848342	0	0	0.04845405	-0.03474261	0	0
14.59197	-0.01905033	-0.006867204	-0.001589855	-0.001139961	-0.04798606	-0.03440706	0	0
14.60854	-0.01905033	-0.006867204	0	0	0.04801509	0.03442787	0	0
14.62511	-0.01905033	-0.006867204	0	0	0	0	0	0
14.64167	-0.01905033	-0.006867204	0	0	0	0	0	0
14.65849	-0.01905033	-0.006867204	0	0	0	0	0	0
14.675	-0.01905033	-0.006867204	0	0	0	0	0	0
14.69137	-0.01905033	-0.006867204	0	0	0	0	0	0
14.70794	-0.01905033	-0.006867204	0	0	0	0	0	0
14.72453	-0.01905033	-0.006867204	0	0	0	0	0	0
14.74107	-0.01905033	-0.006867204	0	0	0	0	0	0
14.75764	-0.01905033	-0.006867204	0	0	0	0	0	0
14.77421	-0.01905033	-0.006867204	0	0	0	0	0	0
14.79077	-0.01905033	-0.006867204	0	0	0	0	0	0
14.80759	-0.01905033	-0.006867204	0	0	0	0	0	0
14.82411	-0.01905033	-0.006867204	0	0	0	0	0	0
14.84061	-0.01905033	-0.006867204	0	0	0	0	0	0
14.8665	-0.01905033	-0.006867204	0	0	0	0	0	0
14.88307	-0.01905033	-0.006867204	0	0	0	0	0	0
14.89964	-0.01905033	-0.006867204	0	0	0	0	0	0
14.92282	-0.01905033	-0.006867204	0	0	0	0	0	0
14.93968	-0.01905033	-0.006867204	0	0	0	0	0	0
14.95596	-0.01905033	-0.006867204	0	0	0	0	0	0
14.97252	-0.01905033	-0.006867204	0	0	0	0	0	0
14.98909	-0.01905033	-0.006867204	0	0	0	0	0	0
15.00573	-0.01905033	-0.006867204	0	0	0	0	0	0
15.02224	-0.01905033	-0.006867204	0	0	0	0	0	0
15.03879	-0.01905033	-0.006867204	0	0	0	0	0	0
15.05576	-0.01905033	-0.006867204	0	0	0	0	0	0
15.07192	-0.01905033	-0.006867204	0	0	0	0	0	0
15.08879	-0.01905033	-0.006867204	0	0	0	0	0	0
15.1053	-0.01905033	-0.006867204	0	0	0	0	0	0
15.12162	-0.01905033	-0.006867204	0	0	0	0	0	0
15.13819	-0.01905033	-0.006867204	0	0	0	0	0	0
15.15483	-0.01905033	-0.006867204	0	0	0	0	0	0
15.17134	-0.01905033	-0.006867204	0	0	0	0	0	0
15.23789	-0.01902402	-0.006886067	0.0003952993	-0.0002834452	0.004759241	-0.003412564	0	0
15.25416	-0.01902402	-0.006886067	0	0	-0.004773546	0.003422822	0	0
15.27072	-0.01902402	-0.006886067	0	0	0	0	0	0
15.28729	-0.01902402	-0.006886067	0	0	0	0	0	0
15.30385	-0.01902402	-0.006886067	0	0	0	0	0	0
15.32045	-0.01902402	-0.006886067	0	0	0	0	0	0
15.33746	-0.01902402	-0.006886067	0	0	0	0	0	0
15.35355	-0.01902402	-0.006886067	0	0	0	0	0	0
15.37012	-0.01902402	-0.006886067	0	0	0	0	0	0
15.38669	-0.01902402	-0.006886067	0	0	0	0	0	0
15.40326	-0.01905033	-0.006867204	-0.001587842	0.001138545	-0.04792115	0.03436136	0	0
15.41982	-0.01905033	-0.006867204	0	0	0.04792254	-0.03436235	0	0
15.43639	-0.01905033	-0.006867204	0	0	0	0	0	0
15.48609	-0.01905033	-0.006867204	0	0	0	0	0	0
15.50266	-0.01905033	-0.006867204	0	0	0	0	0	0
15.51922	-0.01905033	-0.006867204	0	0	0	0	0	0
15.53579	-0.01905033	-0.006867204	0	0	0	0	0	0
15.55235	-0.01905033	-0.006867204	0	0	0	0	0	0
15.56892	-0.01905033	-0.006867204	0	0	0	0	0	0
15.58549	-0.01905033	-0.006867204	0	0	0	0	0	0
15.60215	-0.01905033	-0.006867204	0	0	0	0	0	0
15.61866	-0.01905033	-0.006867204	0	0	0	0	0	0
15.63519	-0.01905033	-0.006867204	0	0	0	0	0	0
15.65175	-0.01905033	-0.006867204	0	0	0	0	0	0
15.66869	-0.01905033	-0.006867204	0	0	0	0	0	0
15.68489	-0.01905033	-0.006867204	0	0	0	0	0	0
15.70145	-0.01905033	-0.006867204	0	0	0	0	0	0
15.71802	-0.01905033	-0.006867204	0	0	0	0	0	0
15.73459	-0.01905033	-0.006867204	0	0	0	0	0	0
15.75115	-0.01905033	-0.006867204	0	0	0	0	0	0
15.78939	-0.01905033	-0.006867204	0	0	0	0	0	0
15.80596	-0.01905033	-0.006867204	0	0	0	0	0	0
15.82252	-0.01905033	-0.006867204	0	0	0	0	0	0
15.83909	-0.01905033	-0.006867204	0	0	0	0	0	0
15.85566	-0.01905033	-0.006867204	0	0	0	0	0	0
15.87222	-0.01905033	-0.006867204	0	0	0	0	0	0
15.88885	-0.01905033	-0.006867204	0	0	0	0	0	0
15.90536	-0.01905033	-0.006867204	0	0	0	0	0	0
15.92192	-0.01905033	-0.006867204	0	0	0	0	0	0
15.93849	-0.01905033	-0.006867204	0	0	0	0	0	0
15.95506	-0.01905033	-0.006867204	0	0	0	0	0	0
15.97191	-0.01905033	-0.006867204	0	0	0	0	0	0
15.98842	-0.01905033	-0.006867204	0	0	0	0	0	0
16.00475	-0.01905033	-0.006867204	0	0	0	0	0	0
16.02132	-0.01905033	-0.006867204	0	0	0	0	0	0
16.03789	-0.01905033	-0.006867204	0	0	0	0	0	0
16.05445	-0.01905033	-0.006867204	0	0	0	0	0	0
16.07102	-0.01905033	-0.006867204	0	0	0	0	0	0
16.08759	-0.01905033	-0.006867204	0	0	0	0	0	0
16.10415	-0.01905033	-0.006867204	0	0	0	0	0	0
16.12072	-0.01905033	-0.006867204	0	0	0	0	0	0
16.13729	-0.01905033	-0.006867204	0	0	0	0	0	0
16.15385	-0.01905033	-0.006867204	0	0	0	0	0	0
16.17042	-0.01905033	-0.006867204	0	0	0	0	0	0
16.18706	-0.01905033	-0.006867204	0	0	0	0	0	0
16.20356	-0.01905033	-0.006867204	0	0	0	0	0	0
16.22012	-0.01905033	-0.006867204	0	0	0	0	0	0
16.23669	-0.01905033	-0.006867204	0	0	0	0	0	0
16.25326	-0.01907663	-0.006848342	-0.001587842	0.001138517	-0.04792392	0.03436249	0	0
16.26982	-0.01907663	-0.006848342	0	0	0.04792115	-0.03436052	0	0
16.28639	-0.01907663	-0.006848342	0	0	0	0	0	0
16.30296	-0.01907663	-0.006848342	0	0	0	0	0	0
16.31966	-0.01907663	-0.006848342	0	0	0	0	0	0
16.33609	-0.01907663	-0.006848342	0	0	0	0	0	0
16.35268	-0.01907663	-0.006848342	0	0	0	0	0	0
16.36922	-0.01907663	-0.006848342	0	0	0	0	0	0
16.3862	-0.01907663	-0.006848342	0	0	0	0	0	0
16.40236	-0.01907663	-0.006848342	0	0	0	0	0	0
16.41892	-0.01907663	-0.006848342	0	0	0	0	0	0
16.44143	-0.01907663	-0.006848342	0	0	0	0	0	0
16.45825	-0.01907663	-0.006848342	0	0	0	0	0	0
16.47456	-0.01907663	-0.006848342	0	0	0	0	0	0
16.49128	-0.01907663	-0.006848342	0	0	0	0	0	0
16.50779	-0.01907663	-0.006848342	0	0	0	0	0	0
16.52426	-0.01907663	-0.006848342	0	0	0	0	0	0
16.54083	-0.01907663	-0.006848342	0	0	0	0	0	0
16.5574	-0.01907663	-0.006848342	0	0	0	0	0	0
16.57434	-0.01907663	-0.006848342	0	0	0	0	0	0
16.59085	-0.01907663	-0.006848342	0	0	0	0	0	0
16.60736	-0.01907663	-0.006848342	0	0	0	0	0	0
16.62387	-0.01907663	-0.006848342	0	0	0	0	0	0
16.64023	-0.01907663	-0.006848342	0	0	0	0	0	0
16.65679	-0.01907663	-0.006848342	0	0	0	0	0	0
16.67336	-0.01907663	-0.006848342	0	0	0	0	0	0
16.68993	-0.01907663	-0.006848342	0	0	0	0	0	0
16.70693	-0.01907663	-0.006848342	0	0	0	0	0	0
16.72306	-0.01907663	-0.006848342	0	0	0	0	0	0
16.73995	-0.01907663	-0.006848342	0	0	0	0	0	0
16.7562	-0.01907663	-0.006848342	0	0	0	0	0	0
16.77276	-0.01907663	-0.006848342	0	0	0	0	0	0
16.78933	-0.01907663	-0.006848342	0	0	0	0	0	0
16.806	-0.01907663	-0.006848342	0	0	0	0	0	0
16.82251	-0.01907663	-0.006848342	0	0	0	0	0	0
16.83903	-0.01907663	-0.006848342	0	0	0	0	0	0
16.85559	-0.01907663	-0.006848342	0	0	0	0	0	0
16.87254	-0.01907663	-0.006848342	0	0	0	0	0	0
16.88873	-0.01907663	-0.006848342	0	0	0	0	0	0
16.90529	-0.01907663	-0.006848342	0	0	0	0	0	0
16.92208	-0.01907663	-0.006848342	0	0	0	0	0	0
16.93843	-0.01907663	-0.006848342	0	0	0	0	0	0
16.9551	-0.01907663	-0.006848342	0	0	0	0	0	0
16.97156	-0.01907663	-0.006848342	0	0	0	0	0	0
16.98813	-0.01907663	-0.006848342	0	0	0	0	0	0
17.00469	-0.01907663	-0.006848342	0	0	0	0	0	0
17.02126	-0.01907663	-0.006848342	0	0	0	0	0	0
17.03783	-0.01907663	-0.006848342	0	0	0	0	0	0
17.05467	-0.01907663	-0.006848342	0	0	0	0	0	0
17.07118	-0.01907663	-0.006848342	0	0	0	0	0	0
17.0877	-0.01910294	-0.00682948	-0.001592977	0.001142199	-0.0482344	0.03458512	0	0
17.10409	-0.01910294	-0.00682948	0	0	0.04840492	-0.03470739	0	0
17.12066	-0.01910294	-0.00682948	0	0	0	0	0	0
17.13723	-0.01910294	-0.00682948	0	0	0	0	0	0
17.15946	-0.01910294	-0.00682948	0	0	0	0	0	0
17.17603	-0.01912924	-0.006810618	-0.001587842	0.001138517	-0.04091847	0.02933944	0	0
17.19277	-0.01912924	-0.006810618	0	0	0.04767144	-0.03418146	0	0
17.20917	-0.01912924	-0.006810618	0	0	0	0	0	0
17.22579	-0.01912924	-0.006810618	0	0	0	0	0	0
17.24231	-0.01912924	-0.006810618	0	0	0	0	0	0
17.25887	-0.01912924	-0.006810618	0	0	0	0	0	0
17.27543	-0.01912924	-0.006810618	0	0	0	0	0	0
17.292	-0.01912924	-0.006810618	0	0	0	0	0	0
17.30857	-0.01912924	-0.006810618	0	0	0	0	0	0
17.32514	-0.01912924	-0.006810618	0	0	0	0	0	0
17.34188	-0.01915555	-0.006791756	-0.001571021	0.001126428	-0.04716103	0.03381465	0	0
17.35839	-0.01918186	-0.006772894	-0.001593345	0.001142463	-0.0006713027	0.000482176	0	0
17.37483	-0.01920816	-0.006754033	-0.001599813	0.001147073	-0.0001963003	0.000139893	0	0
17.3914	-0.01920816	-0.006754033	0	0	0.048461	-0.03474674	0	0
17.40892	-0.01920816	-0.006754033	0	0	0	0	0	0
17.42453	-0.01923447	-0.006735171	-0.001685239	0.001208323	-0.05086646	0.03647146	0	0
17.4411	-0.01923447	-0.006735171	0	0	0.05237095	-0.03755019	0	0
17.47425	-0.01923447	-0.006735171	0	0	0	0	0	0
17.4908	-0.01926078	-0.00671631	-0.001588756	0.001139117	-0.03196706	0.02291995	0	0
17.50738	-0.01926078	-0.00671631	0	0	0.04795428	-0.03438257	0	0
17.52401	-0.01933969	-0.006659726	-0.004743319	0.003400924	-0.1428248	0.1024043	0	0
17.5405	-0.01939231	-0.006622004	-0.003190375	0.002287428	0.04687605	-0.03361119	0	0
17.55707	-0.01955014	-0.006508841	-0.00952584	0.006829754	-0.1916349	0.1373961	0	0
17.57364	-0.02012886	-0.006131659	-0.03493553	0.0227694	-0.7668659	0.4810593	0	0
17.59021	-0.02318006	-0.004171009	-0.1841707	0.118345	-4.504187	2.884645	0	0
17.60707	-0.03729848	0.0008948981	-0.8370599	0.3003499	-19.52775	5.44372	0	0
17.62334	-0.06152751	0.00192973	-1.489388	0.06361237	-19.68729	-7.144753	0	0
17.63991	-0.1080772	0.00343437	-2.81007	0.0908307	-40.22411	0.8289905	0	0
17.65648	-0.1498163	0.005896767	-2.518798	0.1485964	8.790098	1.743271	0	0
17.67304	-0.1788066	0.008225937	-1.750256	0.1406214	23.19463	-0.2406859	0	0
17.68961	-0.2485668	0.01409817	-4.210734	0.3544489	-74.26591	6.454069	0	0
17.70618	-0.2711532	0.01681516	-1.36316	0.1639788	85.93501	-5.748068	0	0
17.72274	-0.296856	0.02082121	-1.551426	0.2418055	-5.68155	2.34868	0	0
17.73931	-0.3156593	0.02807298	-1.135104	0.4377686	12.56536	5.914521	0	0
17.7567	-0.3156118	0.03061139	0.002735575	0.145991	33.51247	-8.593648	0	0
17.77244	-0.3130414	0.03035016	0.1632317	-0.01658879	4.843782	-4.906666	0	0
17.78901	-0.3130414	0.03035016	0	0	-5.051674	0.5133878	0	0
17.80558	-0.3130175	0.0303315	0.001437133	-0.001126189	0.04337276	-0.03398845	0	0
17.83874	-0.3130175	0.03036882	0	0.001125412	-0.02889854	0.04527623	0	0
17.85528	-0.3129937	0.03038748	0.001441587	0.001128154	0.0290059	5.518626E-05	0	0
17.87185	-0.3129699	0.03040614	0.001437298	0.001126319	-0.0001295358	-5.545102E-05	0	0
17.88841	-0.312827	0.03051809	0.008627389	0.006757574	0.2169974	0.1699516	0	0
17.91143	-0.3120168	0.03111512	0.03519898	0.02593757	0.671252	0.4845256	0	0
17.928	-0.3114446	0.03156283	0.03453256	0.02702044	-0.01683414	0.02735405	0	0
17.94457	-0.3062617	0.0355711	0.31284	0.2419397	8.398851	6.485903	0	0
17.96133	-0.3030767	0.03804845	0.189996	0.147781	-3.685586	-2.824965	0	0
17.9777	-0.3008697	0.03976115	0.1348086	0.104619	-1.665559	-1.302632	0	0
17.99427	-0.3008457	0.03977976	0.001448259	0.001123525	-4.049064	-3.142313	0	0
18.01083	-0.3004376	0.03957502	0.02463555	-0.01235802	0.699834	-0.4068973	0	0
18.0274	-0.2997651	0.03942612	0.04058974	-0.008987837	0.4814985	0.1017124	0	0
18.04397	-0.2977702	0.03802983	0.1204303	-0.08428954	2.409733	-2.272741	0	0
18.06053	-0.2973853	0.03773189	0.02322883	-0.017984	-2.933716	2.001221	0	0
18.0771	-0.2973613	0.03771327	0.001453488	-0.001123845	-0.6571811	0.5088403	0	0
18.09367	-0.2973613	0.03771327	0	0	-0.04386637	0.03391771	0	0
18.11024	-0.2973372	0.03769465	0.001451522	-0.001123941	0.04380451	-0.03391864	0	0
18.1268	-0.2973132	0.03767603	0.001451857	-0.001124199	1.009055E-05	-7.810336E-06	0	0
18.19307	-0.2973372	0.03769465	-0.0003629328	0.0002810256	-0.02190919	0.01696469	0	0
18.20964	-0.2973853	0.03773189	-0.002905178	0.002247915	-0.03069075	0.02374488	0	0
18.2262	-0.2974094	0.0380857	-0.00145169	0.02135576	0.04386637	0.5766758	0	0
18.24277	-0.2971929	0.03884905	0.0130688	0.04607607	0.4382294	0.7460607	0	0
18.25934	-0.2970726	0.03950057	0.007262045	0.03932603	-0.1752483	-0.2037166	0	0
18.27591	-0.2969763	0.04065441	0.005808557	0.06964602	-0.04386636	0.9150589	0	0
18.29247	-0.2944719	0.0464555	0.1511838	0.3501948	4.387686	8.467465	0	0
18.30908	-0.2922051	0.05551143	0.1364819	0.5452361	-0.4431686	5.879253	0	0
18.32561	-0.2913119	0.0661552	0.05404728	0.6440901	-2.487882	2.983418	0	0
18.37877	-0.2879282	0.0901924	0.06364238	0.4521047	0.1376774	-2.754745	0	0
18.39564	-0.2877105	0.09021078	0.01290953	0.001089634	-0.7243831	-6.439766	0	0
18.41215	-0.2876379	0.09008211	0.004396731	-0.007792646	-0.255023	-0.2660918	0	0
18.42847	-0.2875895	0.08997181	0.002965408	-0.00675799	-0.04359389	0.03151258	0	0
18.44568	-0.2876137	0.08995343	-0.001406597	-0.001068372	-0.1304085	0.1697103	0	0
18.46161	-0.2875895	0.08993504	0.001519097	-0.001154289	0.08829761	-0.002592979	0	0
18.4782	-0.2875169	0.08987989	0.004375503	-0.003323837	0.0878294	-0.06670976	0	0
18.49522	-0.2874201	0.08980636	0.005687549	-0.004320821	0.03903587	-0.02966216	0	0
18.51131	-0.2873717	0.08976959	0.003008656	-0.002285207	-0.08091904	0.06148805	0	0
18.52787	-0.2873233	0.08969606	0.002921368	-0.004438716	-0.002673126	-0.0659497	0	0
18.54444	-0.2872991	0.08956736	0.001460852	-0.007768872	-0.04408099	-0.1005101	0	0
18.56101	-0.2873717	0.08947544	-0.004382052	-0.00554862	-0.1763493	0.0670112	0	0
18.57777	-0.2873959	0.08945706	-0.001443566	-0.001096452	0.08816096	0.1335747	0	0
18.59414	-0.2874201	0.08943867	-0.001478213	-0.001123223	-0.001045647	-0.0008079499	0	0
18.61071	-0.2874443	0.08942028	-0.001460516	-0.001109776	0.0005372543	0.0004082322	0	0
18.62728	-0.2874927	0.08938351	-0.002921704	-0.002219614	-0.04409876	-0.03349496	0	0
18.66041	-0.2876621	0.08925481	-0.005112688	-0.003884437	-0.04408606	-0.03349889	0	0
18.67697	-0.2877589	0.0891445	-0.005843408	-0.00665929	-0.01470326	-0.05583443	0	0
18.69354	-0.2877831	0.08912611	-0.001460684	-0.001109904	0.1322785	0.1674905	0	0
18.71011	-0.2877831	0.08912611	0	0	0.04408353	0.03349696	0	0
18.73211	-0.2877831	0.08912611	0	0	0	0	0	0
18.74889	-0.2878072	0.08910772	-0.001440149	-0.00109565	-0.03713437	-0.02825142	0	0
18.7654	-0.2878072	0.08910772	0	0	0.04325465	0.03290766	0	0
18.78192	-0.2878072	0.08910772	0	0	0	0	0	0
18.79843	-0.2878072	0.08910772	0	0	0	0	0	0
18.81494	-0.2878072	0.08910772	0	0	0	0	0	0
18.83151	-0.2878072	0.08910772	0	0	0	0	0	0
18.84808	-0.2877831	0.08908933	0.001459053	-0.001110032	0.04403684	-0.03350275	0	0
18.86464	-0.2878072	0.08907095	-0.001458885	-0.001109904	-0.08806861	3.854445E-06	0	0
18.88121	-0.2877831	0.08905257	0.001458885	-0.001109454	0.08805847	1.357235E-05	0	0
18.89778	-0.2877589	0.08903418	0.001460684	-0.001109904	5.428939E-05	-1.357235E-05	0	0
18.91451	-0.2877589	0.0889974	0	-0.002198045	-0.04386637	-0.03267839	0	0
18.93102	-0.2876379	0.08890547	0.007327039	-0.005567015	0.2203946	-0.1013374	0	0
18.99718	-0.2867423	0.0881883	0.0135374	-0.01084085	0.07512388	-0.06379508	0	0
19.01408	-0.2864275	0.08794922	0.01862445	-0.01414599	0.06124877	-0.03979446	0	0
19.03031	-0.2859432	0.08758137	0.02984173	-0.02266268	0.3385577	-0.2570488	0	0
19.04688	-0.2837375	0.08594409	0.1331327	-0.09882642	3.149233	-2.322153	0	0
19.06344	-0.2740089	0.07861474	0.5872183	-0.4424001	13.70433	-10.36908	0	0
19.08013	-0.2634665	0.07070034	0.6319023	-0.4743827	1.343849	-0.9618593	0	0
19.09664	-0.2460929	0.05777214	1.052066	-0.7828715	12.65653	-9.292557	0	0
19.11314	-0.2314603	0.04691995	0.8866989	-0.6576133	-5.008671	3.79384	0	0
19.12971	-0.2160482	0.03568289	0.9303793	-0.6783483	1.320938	-0.6270477	0	0
19.14668	-0.1948133	0.02108313	1.251628	-0.8605378	9.580606	-5.433433	0	0
19.16284	-0.1782204	0.01083497	1.026241	-0.6338307	-6.802203	6.842032	0	0
19.17941	-0.1564992	-0.00219269	1.311095	-0.7863514	8.7016	-4.659136	0	0
19.19621	-0.1439964	-0.006791756	0.7442151	-0.2737552	-16.98916	15.3623	0	0
19.21254	-0.1260647	-0.01313551	1.097905	-0.3884099	10.67499	-3.460486	0	0
19.22923	-0.1035233	-0.01983267	1.350806	-0.4013304	7.659016	-0.3912929	0	0
19.26225	-0.08424748	-0.02603165	0.5836947	-0.1877124	-15.43134	4.297179	0	0
19.27881	-0.06805264	-0.0358959	0.9781983	-0.595819	7.956972	-8.231339	0	0
19.29538	-0.0558104	-0.04170775	0.738943	-0.3508038	-7.223236	7.397128	0	0
19.31194	-0.04636149	-0.04789404	0.5704031	-0.3734481	-5.086836	-0.6834442	0	0
19.32851	-0.04063552	-0.05210201	0.3456206	-0.2539935	-6.78434	3.605354	0	0
19.34508	-0.0363524	-0.05522364	0.2585294	-0.1884224	-2.628419	1.97894	0	0
19.36164	-0.03283031	-0.05779242	0.212594	-0.1550515	-1.386331	1.007135	0	0
19.37834	-0.03162104	-0.05867476	0.07244126	-0.05285689	-4.21381	3.072566	0	0
19.39478	-0.03162104	-0.05867476	0	0	-2.186407	1.595316	0	0
19.41136	-0.03164732	-0.05869395	-0.00158537	-0.001156958	-0.0480096	-0.03503605	0	0
19.42791	-0.03164732	-0.05869395	0	0	0.0478493	0.03491907	0	0
19.45055	-0.03167361	-0.05871313	-0.001160984	-0.000847089	-0.02962139	-0.02161266	0	0
19.4674	-0.0316999	-0.05873232	-0.001560598	-0.001138881	-0.01011944	-0.007389048	0	0
19.48369	-0.0316999	-0.05873232	0	0	0.04709895	0.03437148	0	0
19.50026	-0.0316999	-0.05873232	0	0	0	0	0	0
19.51694	-0.0316999	-0.05873232	0	0	0	0	0	0
19.53345	-0.03172619	-0.05871313	-0.001592329	0.001162037	-0.04797926	0.03501391	0	0
19.54996	-0.03172619	-0.05871313	0	0	0.04821758	-0.03518783	0	0
19.56652	-0.03172619	-0.05871313	0	0	0	0	0	0
19.58309	-0.03177877	-0.05871313	-0.00317366	0	-0.09579778	0	0	0
19.59999	-0.03177877	-0.05871313	0	0	0.09481518	0	0	0
19.61622	-0.03177877	-0.05871313	0	0	0	0	0	0
19.63279	-0.03177877	-0.05871313	0	0	0	0	0	0
19.64936	-0.03177877	-0.05871313	0	0	0	0	0	0
19.66592	-0.03177877	-0.05871313	0	0	0	0	0	0
19.68249	-0.03180506	-0.05869395	-0.00158683	0.001157799	-0.04789338	0.03494445	0	0
19.69906	-0.03180506	-0.05869395	0	0	0.04789062	-0.03494244	0	0
19.71562	-0.03180506	-0.05869395	0	0	0	0	0	0
19.73219	-0.03180506	-0.05869395	0	0	0	0	0	0
19.74876	-0.03180506	-0.05869395	0	0	0	0	0	0
19.76532	-0.03180506	-0.05869395	0	0	0	0	0	0
19.78189	-0.03180506	-0.05869395	0	0	0	0	0	0
19.79846	-0.03180506	-0.05869395	0	0	0	0	0	0
19.81503	-0.03180506	-0.05869395	0	0	0	0	0	0
19.83159	-0.03180506	-0.05869395	0	0	0	0	0	0
19.84817	-0.03180506	-0.05869395	0	0	0	0	0	0
19.86472	-0.03180506	-0.05869395	0	0	0	0	0	0
19.88129	-0.03180506	-0.05869395	0	0	0	0	0	0
19.89786	-0.03180506	-0.05869395	0	0	0	0	0	0
19.91442	-0.03180506	-0.05869395	0	0	0	0	0	0
19.93099	-0.03180506	-0.05869395	0	0	0	0	0	0
19.94756	-0.03180506	-0.05869395	0	0	0	0	0	0
19.96425	-0.03180506	-0.05869395	0	0	0	0	0	0
19.98077	-0.03180506	-0.05869395	0	0	0	0	0	0
19.99728	-0.03180506	-0.05869395	0	0	0	0	0	0
20.01382	-0.03180506	-0.05869395	0	0	0	0	0	0
20.03039	-0.03180506	-0.05869395	0	0	0	0	0	0
20.04696	-0.03183135	-0.05867476	-0.001587012	0.001158157	-0.04790165	0.03495727	0	0
20.06988	-0.03183135	-0.05867476	0	0	0.04019184	-0.02933088	0	0
20.08644	-0.03185764	-0.05865558	-0.00158683	0.001158024	-0.04018528	0.02932609	0	0
20.10301	-0.03185764	-0.05865558	0	0	0.04789062	-0.03494922	0	0
20.11958	-0.03185764	-0.05865558	0	0	0	0	0	0
20.13614	-0.03185764	-0.05865558	0	0	0	0	0	0
20.15271	-0.03185764	-0.05865558	0	0	0	0	0	0
20.16928	-0.03185764	-0.05865558	0	0	0	0	0	0
20.18591	-0.03185764	-0.05865558	0	0	0	0	0	0
20.20242	-0.03185764	-0.05865558	0	0	0	0	0	0
20.21898	-0.03185764	-0.05865558	0	0	0	0	0	0
20.23554	-0.03185764	-0.05865558	0	0	0	0	0	0
20.25246	-0.03185764	-0.05865558	0	0	0	0	0	0
20.26868	-0.03185764	-0.05865558	0	0	0	0	0	0
20.28524	-0.03185764	-0.05865558	0	0	0	0	0	0
20.30181	-0.03185764	-0.05865558	0	0	0	0	0	0
20.31838	-0.03185764	-0.05865558	0	0	0	0	0	0
20.33495	-0.03185764	-0.05865558	0	0	0	0	0	0
20.35151	-0.03185764	-0.05865558	0	0	0	0	0	0
20.36854	-0.03185764	-0.05865558	0	0	0	0	0	0
20.38465	-0.03185764	-0.05865558	0	0	0	0	0	0
20.40121	-0.03185764	-0.05865558	0	0	0	0	0	0
20.41778	-0.03185764	-0.05865558	0	0	0	0	0	0
20.43435	-0.03185764	-0.05865558	0	0	0	0	0	0
20.4511	-0.03185764	-0.05865558	0	0	0	0	0	0
20.46748	-0.03185764	-0.05865558	0	0	0	0	0	0
20.48412	-0.03185764	-0.05865558	0	0	0	0	0	0
20.50061	-0.03185764	-0.05865558	0	0	0	0	0	0
20.51718	-0.03185764	-0.05865558	0	0	0	0	0	0
20.53375	-0.03185764	-0.05865558	0	0	0	0	0	0
20.55031	-0.03185764	-0.05865558	0	0	0	0	0	0
20.56688	-0.03185764	-0.05865558	0	0	0	0	0	0
20.58345	-0.03185764	-0.05865558	0	0	0	0	0	0
20.60002	-0.03185764	-0.05865558	0	0	0	0	0	0
20.61658	-0.03185764	-0.05865558	0	0	0	0	0	0
20.63323	-0.03185764	-0.05865558	0	0	0	0	0	0
20.64972	-0.03185764	-0.05865558	0	0	0	0	0	0
20.66628	-0.03185764	-0.05865558	0	0	0	0	0	0
20.68285	-0.03185764	-0.05865558	0	0	0	0	0	0
20.69978	-0.03185764	-0.05865558	0	0	0	0	0	0
20.71598	-0.03185764	-0.05865558	0	0	0	0	0	0
20.73255	-0.03185764	-0.05865558	0	0	0	0	0	0
20.74931	-0.03185764	-0.05865558	0	0	0	0	0	0
20.79882	-0.03185764	-0.05865558	0	0	0	0	0	0
20.84006	-0.03185764	-0.05865558	0	0	0	0	0	0
20.85662	-0.03185764	-0.05865558	0	0	0	0	0	0
20.87319	-0.03185764	-0.05865558	0	0	0	0	0	0
20.88976	-0.03185764	-0.05865558	0	0	0	0	0	0
20.90632	-0.03185764	-0.05865558	0	0	0	0	0	0
20.92289	-0.03185764	-0.05865558	0	0	0	0	0	0
20.93946	-0.03185764	-0.05865558	0	0	0	0	0	0
20.95602	-0.03185764	-0.05865558	0	0	0	0	0	0
20.97259	-0.03185764	-0.05865558	0	0	0	0	0	0
20.98949	-0.03185764	-0.05865558	0	0	0	0	0	0
21.00572	-0.03185764	-0.05865558	0	0	0	0	0	0
21.02229	-0.03185764	-0.05865558	0	0	0	0	0	0
21.03886	-0.03185764	-0.05865558	0	0	0	0	0	0
21.05542	-0.03185764	-0.05865558	0	0	0	0	0	0
21.07199	-0.03185764	-0.05865558	0	0	0	0	0	0
21.08855	-0.03185764	-0.05865558	0	0	0	0	0	0
21.10512	-0.03188393	-0.05867476	-0.00158683	-0.001158024	-0.04789338	-0.03495124	0	0
21.12169	-0.03191022	-0.05869395	-0.00158683	-0.001158024	0	0	0	0
21.13859	-0.03191022	-0.05869395	0	0	0.0474184	0.03460461	0	0
21.15482	-0.03191022	-0.05869395	0	0	0	0	0	0
21.17139	-0.03191022	-0.05869395	0	0	0	0	0	0
21.18796	-0.03191022	-0.05869395	0	0	0	0	0	0
21.20452	-0.03191022	-0.05869395	0	0	0	0	0	0
21.23046	-0.03191022	-0.05869395	0	0	0	0	0	0
21.24716	-0.03191022	-0.05869395	0	0	0	0	0	0
21.26367	-0.03191022	-0.05869395	0	0	0	0	0	0
21.28016	-0.03193651	-0.05871313	-0.001594171	-0.001163155	-0.04830683	-0.03524612	0	0
21.29673	-0.03193651	-0.05871313	0	0	0.04822321	0.03518511	0	0
21.3133	-0.03193651	-0.05871313	0	0	0	0	0	0
21.32986	-0.03193651	-0.05871313	0	0	0	0	0	0
21.34643	-0.03193651	-0.05871313	0	0	0	0	0	0
21.363	-0.03193651	-0.05871313	0	0	0	0	0	0
21.37956	-0.03193651	-0.05871313	0	0	0	0	0	0
21.39613	-0.03196279	-0.05873232	-0.001586605	-0.001158024	-0.04788383	-0.03494922	0	0
21.4127	-0.03196279	-0.05873232	0	0	0.04788383	0.03494922	0	0
21.42929	-0.03196279	-0.05873232	0	0	0	0	0	0
21.44583	-0.03196279	-0.05873232	0	0	0	0	0	0
21.46833	-0.03196279	-0.05873232	0	0	0	0	0	0
21.4849	-0.03196279	-0.05873232	0	0	0	0	0	0
21.50147	-0.03196279	-0.05873232	0	0	0	0	0	0
21.51835	-0.03196279	-0.05873232	0	0	0	0	0	0
21.5346	-0.03196279	-0.05873232	0	0	0	0	0	0
21.55117	-0.03196279	-0.05873232	0	0	0	0	0	0
21.56773	-0.03196279	-0.05873232	0	0	0	0	0	0
21.5843	-0.03196279	-0.05873232	0	0	0	0	0	0
21.60091	-0.03196279	-0.05873232	0	0	0	0	0	0
21.61743	-0.03196279	-0.05873232	0	0	0	0	0	0
21.634	-0.03196279	-0.05873232	0	0	0	0	0	0
21.65057	-0.03198908	-0.0587515	-0.00158683	-0.001158024	-0.04789062	-0.03494922	0	0
21.71684	-0.03198908	-0.0587515	0	0	0.01915625	0.01397969	0	0
21.7334	-0.03198908	-0.0587515	0	0	0	0	0	0
21.74997	-0.03198908	-0.0587515	0	0	0	0	0	0
21.76654	-0.03198908	-0.0587515	0	0	0	0	0	0
21.7831	-0.03198908	-0.0587515	0	0	0	0	0	0
21.79967	-0.03198908	-0.0587515	0	0	0	0	0	0
21.81624	-0.03198908	-0.0587515	0	0	0	0	0	0
21.8328	-0.03198908	-0.0587515	0	0	0	0	0	0
21.84937	-0.03198908	-0.0587515	0	0	0	0	0	0
21.86594	-0.03198908	-0.0587515	0	0	0	0	0	0
21.8825	-0.03198908	-0.0587515	0	0	0	0	0	0
21.89913	-0.03198908	-0.0587515	0	0	0	0	0	0
21.91564	-0.03198908	-0.0587515	0	0	0	0	0	0
21.9322	-0.03198908	-0.0587515	0	0	0	0	0	0
21.96534	-0.03198908	-0.0587515	0	0	0	0	0	0
21.9819	-0.03198908	-0.0587515	0	0	0	0	0	0
21.9987	-0.03198908	-0.0587515	0	0	0	0	0	0
22.01521	-0.03198908	-0.0587515	0	0	0	0	0	0
22.0316	-0.03198908	-0.0587515	0	0	0	0	0	0
22.04823	-0.03198908	-0.0587515	0	0	0	0	0	0
22.06474	-0.03198908	-0.0587515	0	0	0	0	0	0
22.0813	-0.03198908	-0.0587515	0	0	0	0	0	0
22.09787	-0.03198908	-0.0587515	0	0	0	0	0	0
22.11477	-0.03198908	-0.0587515	0	0	0	0	0	0
22.131	-0.03198908	-0.0587515	0	0	0	0	0	0
22.1478	-0.03198908	-0.0587515	0	0	0	0	0	0
22.16431	-0.03198908	-0.0587515	0	0	0	0	0	0
22.1807	-0.03198908	-0.0587515	0	0	0	0	0	0
22.19727	-0.03201537	-0.05877069	-0.00158683	-0.001158024	-0.04814838	-0.03513733	0	0
22.21383	-0.03201537	-0.05877069	0	0	0.04789062	0.03494922	0	0
22.2304	-0.03201537	-0.05877069	0	0	0	0	0	0
22.25265	-0.03201537	-0.05877069	0	0	0	0	0	0
22.26922	-0.03201537	-0.05877069	0	0	0	0	0	0
22.28579	-0.03201537	-0.05877069	0	0	0	0	0	0
22.30241	-0.03201537	-0.05877069	0	0	0	0	0	0
22.31892	-0.03201537	-0.05877069	0	0	0	0	0	0
22.33549	-0.03201537	-0.05877069	0	0	0	0	0	0
22.41832	-0.03204166	-0.05878987	-0.0003173806	-0.0002316154	-0.003192977	-0.002330145	0	0
22.47465	-0.03204166	-0.05878987	0	0	0.002280748	0.001664426	0	0
22.49121	-0.03204166	-0.05878987	0	0	0	0	0	0
22.50778	-0.03204166	-0.05878987	0	0	0	0	0	0
22.52457	-0.03204166	-0.05878987	0	0	0	0	0	0
22.54108	-0.03204166	-0.05878987	0	0	0	0	0	0
22.57405	-0.03204166	-0.05878987	0	0	0	0	0	0
22.59062	-0.03204166	-0.05878987	0	0	0	0	0	0
22.60718	-0.03204166	-0.05878987	0	0	0	0	0	0
22.62414	-0.03204166	-0.05878987	0	0	0	0	0	0
22.64032	-0.03206795	-0.05880906	-0.001624994	-0.001185875	-0.04904243	-0.03578979	0	0
22.65689	-0.03206795	-0.05880906	0	0	0.04962518	0.03621506	0	0
22.67345	-0.03206795	-0.05880906	0	0	0	0	0	0
22.69019	-0.03206795	-0.05880906	0	0	0	0	0	0
22.70658	-0.03206795	-0.05880906	0	0	0	0	0	0
22.72315	-0.03206795	-0.05880906	0	0	0	0	0	0
22.73973	-0.03206795	-0.05880906	0	0	0	0	0	0
22.75628	-0.03206795	-0.05880906	0	0	0	0	0	0
22.77285	-0.03206795	-0.05880906	0	0	0	0	0	0
22.78976	-0.03206795	-0.05880906	0	0	0	0	0	0
22.80598	-0.03206795	-0.05880906	0	0	0	0	0	0
22.82255	-0.03209424	-0.05882824	-0.001587012	-0.001158157	-0.04840042	-0.03532126	0	0
22.83912	-0.03209424	-0.05882824	0	0	0.04789613	0.03495325	0	0
22.8558	-0.03209424	-0.05882824	0	0	0	0	0	0
22.87231	-0.03209424	-0.05882824	0	0	0	0	0	0
22.88882	-0.03209424	-0.05882824	0	0	0	0	0	0
22.90538	-0.03209424	-0.05882824	0	0	0	0	0	0
22.92195	-0.03209424	-0.05882824	0	0	0	0	0	0
22.93852	-0.03212053	-0.05884743	-0.00158683	-0.001158024	-0.04789062	-0.03494922	0	0
22.95508	-0.03212053	-0.05884743	0	0	0.04789062	0.03494922	0	0
22.97165	-0.03212053	-0.05884743	0	0	0	0	0	0
22.98841	-0.03212053	-0.05884743	0	0	0	0	0	0
23.00479	-0.03212053	-0.05884743	0	0	0	0	0	0
23.02136	-0.03212053	-0.05884743	0	0	0	0	0	0
23.03792	-0.03212053	-0.05884743	0	0	0	0	0	0
23.07105	-0.03212053	-0.05884743	0	0	0	0	0	0
23.08762	-0.03212053	-0.05884743	0	0	0	0	0	0
23.11027	-0.03212053	-0.05884743	0	0	0	0	0	0
23.127	-0.03212053	-0.05884743	0	0	0	0	0	0
23.14351	-0.03212053	-0.05884743	0	0	0	0	0	0
23.15997	-0.03212053	-0.0588858	0	-0.002330806	0	-0.07068975	0	0
23.17654	-0.03212053	-0.0588858	0	0	0	0.07056729	0	0
23.1931	-0.03212053	-0.0588858	0	0	0	0	0	0
23.20967	-0.03214682	-0.05886661	-0.001586788	0.001158157	-0.0478921	0.03495526	0	0
23.22624	-0.03214682	-0.05886661	0	0	0.04788934	-0.03495325	0	0
23.24308	-0.03214682	-0.05886661	0	0	0	0	0	0
23.25937	-0.03214682	-0.05886661	0	0	0	0	0	0
23.27594	-0.03214682	-0.05886661	0	0	0	0	0	0
23.29261	-0.03214682	-0.05886661	0	0	0	0	0	0
23.30907	-0.03214682	-0.05886661	0	0	0	0	0	0
23.32564	-0.03214682	-0.05886661	0	0	0	0	0	0
23.3422	-0.03214682	-0.05886661	0	0	0	0	0	0
23.35877	-0.0321731	-0.0588858	-0.001586647	-0.00115789	-0.04788235	-0.03494319	0	0
23.37567	-0.0321731	-0.0588858	0	0	0.04740484	0.03459471	0	0
23.3919	-0.0321731	-0.0588858	0	0	0	0	0	0
23.42504	-0.0321731	-0.0588858	0	0	0	0	0	0
23.49131	-0.0321731	-0.0588858	0	0	0	0	0	0
23.50787	-0.0321731	-0.0588858	0	0	0	0	0	0
23.52444	-0.0321731	-0.0588858	0	0	0	0	0	0
23.54101	-0.03219939	-0.05890498	-0.001587012	-0.001158157	-0.04789889	-0.03495526	0	0
23.55757	-0.03219939	-0.05890498	0	0	0.04790165	0.03495727	0	0
23.57414	-0.03219939	-0.05890498	0	0	0	0	0	0
23.59083	-0.03219939	-0.05890498	0	0	0	0	0	0
23.60734	-0.03219939	-0.05890498	0	0	0	0	0	0
23.62385	-0.03219939	-0.05890498	0	0	0	0	0	0
23.64041	-0.03219939	-0.05890498	0	0	0	0	0	0
23.65697	-0.03219939	-0.05890498	0	0	0	0	0	0
23.67354	-0.03219939	-0.05890498	0	0	0	0	0	0
23.6904	-0.03219939	-0.05890498	0	0	0	0	0	0
23.70667	-0.03219939	-0.05890498	0	0	0	0	0	0
23.72324	-0.03219939	-0.05890498	0	0	0	0	0	0
23.73993	-0.03219939	-0.05890498	0	0	0	0	0	0
23.75644	-0.03219939	-0.05890498	0	0	0	0	0	0
23.77346	-0.03219939	-0.05890498	0	0	0	0	0	0
23.78951	-0.03219939	-0.05890498	0	0	0	0	0	0
23.80607	-0.03219939	-0.05890498	0	0	0	0	0	0
23.82264	-0.03219939	-0.05890498	0	0	0	0	0	0
23.86046	-0.03219939	-0.05890498	0	0	0	0	0	0
23.87703	-0.03219939	-0.05890498	0	0	0	0	0	0
23.89359	-0.03222568	-0.05892417	-0.001587195	-0.001158515	-0.04790441	-0.03496607	0	0
23.91055	-0.03222568	-0.05892417	0	0	0.04734836	0.03456021	0	0
23.92673	-0.03222568	-0.05892417	0	0	0	0	0	0
23.94357	-0.03222568	-0.05892417	0	0	0	0	0	0
23.95986	-0.03222568	-0.05892417	0	0	0	0	0	0
23.9766	-0.03222568	-0.05892417	0	0	0	0	0	0
23.99299	-0.03222568	-0.05892417	0	0	0	0	0	0
24.00956	-0.03222568	-0.05892417	0	0	0	0	0	0
24.02613	-0.03225197	-0.05894336	-0.001585692	-0.001157357	-0.04784526	-0.03492108	0	0
24.04314	-0.03225197	-0.05894336	0	0	0.04721218	0.03445901	0	0
24.05926	-0.03225197	-0.05894336	0	0	0	0	0	0
24.07582	-0.03225197	-0.05894336	0	0	0	0	0	0
24.09239	-0.03225197	-0.05894336	0	0	0	0	0	0
24.10919	-0.03225197	-0.05894336	0	0	0	0	0	0
24.12571	-0.03225197	-0.05894336	0	0	0	0	0	0
24.14209	-0.03225197	-0.05894336	0	0	0	0	0	0
24.15873	-0.03225197	-0.05894336	0	0	0	0	0	0
24.17523	-0.03225197	-0.05894336	0	0	0	0	0	0
24.19179	-0.03225197	-0.05894336	0	0	0	0	0	0
24.20836	-0.03225197	-0.05894336	0	0	0	0	0	0
24.22493	-0.03225197	-0.05894336	0	0	0	0	0	0
24.24149	-0.03225197	-0.05894336	0	0	0	0	0	0
24.2583	-0.03225197	-0.05894336	0	0	0	0	0	0
24.27481	-0.03227826	-0.05892417	-0.001592145	0.001161903	-0.0477897	0.03487558	0	0
24.29132	-0.03235712	-0.05886661	-0.004775659	0.003485532	-0.09639493	0.07035811	0	0
24.35746	-0.04168636	-0.05317409	-0.1410546	0.08606873	-1.648807	0.999155	0	0
24.37403	-0.05898413	-0.04584961	-1.044095	0.4421067	-10.91862	4.304839	0	0
24.3906	-0.07488602	-0.0447611	-0.9598398	0.06570267	2.542836	-11.3599	0	0
24.40716	-0.1335684	-0.04581141	-3.542484	-0.06340426	-77.94884	-3.896679	0	0
24.42392	-0.1776086	-0.04571591	-2.628314	0.005699301	27.43492	2.07385	0	0
24.44043	-0.2230421	-0.04457017	-2.751874	0.06939686	-3.714272	1.914791	0	0
24.45694	-0.2655995	-0.0431577	-2.577377	0.08554246	5.284273	0.4889356	0	0
24.47345	-0.3096552	-0.04134537	-2.668115	0.1097588	-2.747668	0.7332979	0	0
24.49	-0.3286582	-0.03941979	-1.148478	0.1163761	45.96859	0.2001719	0	0
24.50698	-0.3324487	-0.03707642	-0.2232434	0.1380137	27.59797	0.6454073	0	0
24.52313	-0.3305193	-0.03783829	0.1194393	-0.04716489	10.34278	-5.589021	0	0
24.54	-0.3288703	-0.03917202	0.09773485	-0.07904813	-0.6571973	-0.9654058	0	0
24.55626	-0.3284931	-0.03947696	0.02319376	-0.01875147	-2.249655	1.819757	0	0
24.57303	-0.3284224	-0.03949602	0.004219177	-0.001137026	-0.5745724	0.5333857	0	0
24.5894	-0.3284224	-0.03949602	0	0	-0.127335	0.03431552	0	0
24.61221	-0.328446	-0.03951508	-0.001033393	-0.0008356305	-0.02637243	-0.0213255	0	0
24.62878	-0.3284696	-0.03949602	-0.001422908	0.001150603	-0.009891411	0.05043875	0	0
24.64535	-0.3284696	-0.03949602	0	0	0.04294344	-0.03472527	0	0
24.66191	-0.3284696	-0.03949602	0	0	0	0	0	0
24.6786	-0.328446	-0.03951508	0.001412661	-0.001142318	0.04248259	-0.03435262	0	0
24.69505	-0.3283517	-0.0395532	0.005735026	-0.002317566	0.1304492	-0.03546907	0	0
24.71161	-0.3277385	-0.0400488	0.03701605	-0.02991801	0.9475541	-0.8360631	0	0
24.72818	-0.3245506	-0.04262343	0.1924235	-0.1554048	4.690476	-3.787416	0	0
24.74475	-0.3191984	-0.04693852	0.3230576	-0.2604598	3.942544	-3.170566	0	0
24.76131	-0.3161586	-0.04938526	0.1835025	-0.1477026	-4.212025	3.403214	0	0
24.77817	-0.3157544	-0.04974863	0.02397672	-0.02155531	-4.773009	3.774325	0	0
24.79445	-0.3157069	-0.04974863	0.002920304	0	-0.6354839	0.6505406	0	0
24.81101	-0.3157069	-0.04974863	0	0	-0.08891292	0	0	0
24.82758	-0.3156831	-0.04976775	0.0014355	-0.001154426	0.04332346	-0.03484064	0	0
24.84415	-0.3156356	-0.049806	0.002870999	-0.002308852	0.04332346	-0.03484064	0	0
24.86073	-0.3156118	-0.04982513	0.001434344	-0.001153721	-0.04334088	0.03484787	0	0
24.87728	-0.3155642	-0.04990163	0.002873977	-0.004622493	0.04345322	-0.1046998	0	0
24.89384	-0.3155167	-0.04993989	0.002870999	-0.002309077	-8.991991E-05	0.06985524	0	0
24.91041	-0.3154691	-0.04997814	0.002870999	-0.002308852	0	6.78793E-06	0	0
24.92698	-0.3154215	-0.0500164	0.002870999	-0.002309077	0	-6.78793E-06	0	0
24.94379	-0.3154215	-0.05005465	0	-0.002275802	-0.08601809	0.0009969529	0	0
24.9603	-0.3154215	-0.05005465	0	0	0	0.06830636	0	0
24.97668	-0.3154453	-0.05007378	-0.001451374	-0.001167419	-0.04412257	-0.03549019	0	0
24.99325	-0.3154453	-0.05007378	0	0	0.0440485	0.03543061	0	0
25.00983	-0.3154453	-0.05007378	0	0	0	0	0	0
25.02638	-0.3154453	-0.05007378	0	0	0	0	0	0
25.04294	-0.3154691	-0.05005465	-0.001435665	0.001154784	-0.0433609	0.03487754	0	0
25.05987	-0.3154691	-0.05005465	0	0	0.04286946	-0.03448224	0	0
25.07638	-0.3154453	-0.05003553	0.001440308	0.001158293	0.04307681	0.03464228	0	0
25.09265	-0.3154691	-0.0500164	-0.001462095	0.001176043	-0.08854789	0.0005415312	0	0
25.10921	-0.3154691	-0.0500164	0	0	0.04453114	-0.03581883	0	0
25.12592	-0.3154929	-0.04999727	-0.001423861	0.001145066	-0.04279729	0.0344175	0	0
25.14243	-0.3154929	-0.04999727	0	0	0.04286857	-0.03447482	0	0
25.15891	-0.3155167	-0.04997814	-0.001442475	0.001160261	-0.04371262	0.03516045	0	0
25.18076	-0.3155167	-0.04997814	0	0	0.03763109	-0.03026875	0	0
25.19733	-0.3155167	-0.04997814	0	0	0	0	0	0
25.21389	-0.3155167	-0.04997814	0	0	0	0	0	0
25.23046	-0.3155167	-0.04997814	0	0	0	0	0	0
25.24703	-0.3155167	-0.04997814	0	0	0	0	0	0
25.26359	-0.3155167	-0.04997814	0	0	0	0	0	0
25.28053	-0.3155167	-0.04997814	0	0	0	0	0	0
25.29673	-0.3154929	-0.04999727	0.001467775	-0.001180612	0.04429754	-0.03563093	0	0
25.3133	-0.3154929	-0.04999727	0	0	-0.04479	0.03602704	0	0
25.32986	-0.3154929	-0.04999727	0	0	0	0	0	0
25.34643	-0.3154929	-0.04999727	0	0	0	0	0	0
25.36308	-0.315255	-0.04995902	0.01428101	0.002297176	0.4298882	0.06914977	0	0
25.37956	-0.3126363	-0.04839103	0.158925	0.09515872	4.365868	2.80289	0	0
25.39613	-0.30987	-0.04670924	0.1669749	0.1015128	0.2436043	0.1922869	0	0
25.41269	-0.2858947	-0.03780019	1.447153	0.5377514	38.63585	13.16571	0	0
25.42926	-0.2682439	-0.03039919	1.065407	0.4467255	-11.52111	-2.747166	0	0
25.44583	-0.2424756	-0.01905629	1.555379	0.6846588	14.78739	7.18084	0	0
25.4624	-0.2229419	-0.01005649	1.179051	0.5432292	-11.35762	-4.268352	0	0
25.47896	-0.1984075	0.001459391	1.481073	0.6951798	9.11557	4.58614	0	0
25.49553	-0.1817356	0.008582686	1.006203	0.4299134	-14.33161	-8.005754	0	0
25.5121	-0.1660362	0.01272951	0.9477277	0.2503313	-1.764778	-5.419799	0	0
25.52866	-0.1467274	0.01355452	1.165482	0.049798	6.572209	-6.052456	0	0
25.54523	-0.1333874	0.01121021	0.8051993	-0.1415027	-10.87335	-5.773468	0	0
25.56273	-0.1157176	0.006742215	1.009713	-0.2553152	6.00324	-3.340826	0	0
25.57836	-0.1055276	0.001553464	0.65184	-0.331918	-10.80124	-2.312011	0	0
25.59525	-0.09852209	-0.001891335	0.4148757	-0.2040062	-7.287086	3.933522	0	0
25.6115	-0.08803502	-0.006565422	0.6454851	-0.2876928	6.960207	-2.525813	0	0
25.62806	-0.07813011	-0.01360801	0.5978618	-0.4250916	-1.45131	-4.187197	0	0
25.64463	-0.06985982	-0.01962435	0.4992534	-0.3631888	-2.976178	1.868339	0	0
25.6612	-0.06535416	-0.02292115	0.271962	-0.1989951	-6.860063	4.955659	0	0
25.67776	-0.06171102	-0.02555729	0.2199006	-0.1591176	-1.571216	1.203506	0	0
25.69433	-0.06055744	-0.02643017	0.06962983	-0.05268727	-4.535182	3.212074	0	0
25.7109	-0.06055744	-0.02643017	0	0	-2.101432	1.590105	0	0
25.72746	-0.06053123	-0.02644915	0.001582557	-0.001145544	0.04776168	-0.03457259	0	0
25.74436	-0.06055744	-0.02650608	-0.001552179	-0.003370662	-0.09368969	-0.06650341	0	0
25.7606	-0.06058366	-0.02656302	-0.001614339	-0.003505762	-0.001876103	-0.004077546	0	0
25.77738	-0.06068854	-0.0266769	-0.006249156	-0.006785328	-0.1403476	-0.09930906	0	0
25.79373	-0.06071476	-0.0267718	-0.001603417	-0.005803786	0.1402087	0.02962299	0	0
25.8104	-0.06079341	-0.02690467	-0.004717799	-0.007969358	-0.09430709	-0.06557602	0	0
25.82692	-0.06081963	-0.02696161	-0.001587675	-0.003448197	0.09432072	0.1362371	0	0
25.84824	-0.06084585	-0.02698059	-0.001229415	-0.0008900947	0.009467787	0.06760333	0	0
25.86494	-0.06089829	-0.02701856	-0.003140529	-0.002273737	-0.05026204	-0.03638963	0	0
25.88138	-0.06095073	-0.02705652	-0.003190459	-0.002309774	-0.001506993	-0.001087642	0	0
25.89796	-0.06097694	-0.0270755	-0.001580738	-0.001144451	0.04874706	0.03528935	0	0
25.91451	-0.06097694	-0.0270755	0	0	0.0477095	0.0345416	0	0
25.93108	-0.06097694	-0.0270755	0	0	0	0	0	0
25.94764	-0.06097694	-0.0270755	0	0	0	0	0	0
25.96421	-0.06097694	-0.0270755	0	0	0	0	0	0
25.98078	-0.06097694	-0.0270755	0	0	0	0	0	0
25.99735	-0.06097694	-0.0270755	0	0	0	0	0	0
26.01391	-0.06097694	-0.0270755	0	0	0	0	0	0
26.03048	-0.06097694	-0.0270755	0	0	0	0	0	0
26.04704	-0.06097694	-0.0270755	0	0	0	0	0	0
26.06361	-0.06097694	-0.0270755	0	0	0	0	0	0
26.08018	-0.06097694	-0.0270755	0	0	0	0	0	0
26.09674	-0.06097694	-0.0270755	0	0	0	0	0	0
26.11331	-0.06097694	-0.0270755	0	0	0	0	0	0
26.12988	-0.06100316	-0.02709448	-0.001582557	-0.001145769	-0.04776168	-0.03457937	0	0
26.21271	-0.06139642	-0.02737923	-0.004747557	-0.003437588	-0.03184057	-0.02305619	0	0
26.22928	-0.06139642	-0.0274172	0	-0.002292027	0.04776235	0.01152482	0	0
26.24621	-0.06142264	-0.02743619	-0.001547938	-0.001120974	-0.04620617	0.0349561	0	0
26.26241	-0.06142264	-0.02743619	0	0	0.04671955	0.033833	0	0
26.27898	-0.06142264	-0.02743619	0	0	0	0	0	0
26.29575	-0.06142264	-0.02743619	0	0	0	0	0	0
26.31211	-0.06142264	-0.02743619	0	0	0	0	0	0
26.32868	-0.06142264	-0.02743619	0	0	0	0	0	0
26.34525	-0.06142264	-0.02743619	0	0	0	0	0	0
26.36181	-0.06142264	-0.02743619	0	0	0	0	0	0
26.37838	-0.06142264	-0.02743619	0	0	0	0	0	0
26.39495	-0.06144886	-0.02745517	-0.00158274	-0.001146126	-0.04776993	-0.03459213	0	0
26.41183	-0.06144886	-0.02745517	0	0	0.04731775	0.03426469	0	0
26.42834	-0.06144886	-0.02745517	0	0	0	0	0	0
26.44464	-0.06144886	-0.02745517	0	0	0	0	0	0
26.46121	-0.06144886	-0.02745517	0	0	0	0	0	0
26.47778	-0.06144886	-0.02745517	0	0	0	0	0	0
26.49435	-0.06144886	-0.02745517	0	0	0	0	0	0
26.55887	-0.06147507	-0.02747416	-0.0004062828	-0.0002942187	-0.005010212	-0.003628257	0	0
26.57545	-0.06150129	-0.02749314	-0.001581829	-0.001145354	-0.01449528	-0.01049507	0	0
26.59246	-0.06150129	-0.02749314	0	0	0.04709449	0.03409968	0	0
26.60857	-0.06150129	-0.02749314	0	0	0	0	0	0
26.62514	-0.06150129	-0.02749314	0	0	0	0	0	0
26.6417	-0.06150129	-0.02749314	0	0	0	0	0	0
26.65827	-0.06150129	-0.02749314	0	0	0	0	0	0
26.67484	-0.06150129	-0.02749314	0	0	0	0	0	0
26.69593	-0.06150129	-0.02749314	0	0	0	0	0	0
26.71254	-0.06150129	-0.02749314	0	0	0	0	0	0
26.72906	-0.06150129	-0.02749314	0	0	0	0	0	0
26.74563	-0.06150129	-0.02749314	0	0	0	0	0	0
26.76219	-0.06150129	-0.02749314	0	0	0	0	0	0
26.77876	-0.06150129	-0.02749314	0	0	0	0	0	0
26.79533	-0.06150129	-0.02749314	0	0	0	0	0	0
26.81189	-0.06150129	-0.02749314	0	0	0	0	0	0
26.82863	-0.06150129	-0.02749314	0	0	0	0	0	0
26.84513	-0.06150129	-0.02749314	0	0	0	0	0	0
26.86159	-0.06150129	-0.02749314	0	0	0	0	0	0
26.87816	-0.06150129	-0.02749314	0	0	0	0	0	0
26.89473	-0.06150129	-0.02749314	0	0	0	0	0	0
26.91129	-0.06150129	-0.02749314	0	0	0	0	0	0
26.92786	-0.06150129	-0.02749314	0	0	0	0	0	0
26.94443	-0.06150129	-0.02749314	0	0	0	0	0	0
26.96122	-0.06150129	-0.02749314	0	0	0	0	0	0
26.97756	-0.06150129	-0.02753111	0	-0.002323168	0	-0.07010932	0	0
26.99413	-0.06150129	-0.02753111	0	0	0	0.07059695	0	0
27.01075	-0.06150129	-0.02753111	0	0	0	0	0	0
27.02726	-0.06147507	-0.0275501	0.001587859	-0.001149833	0.04791892	-0.03470002	0	0
27.04383	-0.06150129	-0.02756908	-0.001582922	-0.001146258	-0.09586543	0.0001080901	0	0
27.06039	-0.06150129	-0.02756908	0	0	0.04777818	0.03459811	0	0
27.07696	-0.06150129	-0.02756908	0	0	0	0	0	0
27.09353	-0.06150129	-0.02756908	0	0	0	0	0	0
27.1101	-0.06150129	-0.02756908	0	0	0	0	0	0
27.12684	-0.06150129	-0.02756908	0	0	0	0	0	0
27.14323	-0.06150129	-0.02756908	0	0	0	0	0	0
27.1598	-0.06150129	-0.02756908	0	0	0	0	0	0
27.17637	-0.06150129	-0.02756908	0	0	0	0	0	0
27.19339	-0.06150129	-0.02756908	0	0	0	0	0	0
27.2095	-0.06150129	-0.02756908	0	0	0	0	0	0
27.22606	-0.06150129	-0.02756908	0	0	0	0	0	0
27.24263	-0.06150129	-0.02756908	0	0	0	0	0	0
27.2592	-0.06150129	-0.02756908	0	0	0	0	0	0
27.27577	-0.06150129	-0.02756908	0	0	0	0	0	0
27.29246	-0.06150129	-0.02756908	0	0	0	0	0	0
27.30898	-0.06150129	-0.02756908	0	0	0	0	0	0
27.32548	-0.06150129	-0.02756908	0	0	0	0	0	0
27.34203	-0.06150129	-0.02756908	0	0	0	0	0	0
27.3586	-0.06150129	-0.02756908	0	0	0	0	0	0
27.37552	-0.06150129	-0.02756908	0	0	0	0	0	0
27.39203	-0.06150129	-0.02756908	0	0	0	0	0	0
27.4083	-0.06150129	-0.02756908	0	0	0	0	0	0
27.42487	-0.06150129	-0.02756908	0	0	0	0	0	0
27.46279	-0.06150129	-0.02756908	0	0	0	0	0	0
27.47959	-0.06150129	-0.02756908	0	0	0	0	0	0
27.49592	-0.06150129	-0.02756908	0	0	0	0	0	0
27.51262	-0.06150129	-0.02756908	0	0	0	0	0	0
27.52913	-0.06150129	-0.02756908	0	0	0	0	0	0
27.54562	-0.06150129	-0.02756908	0	0	0	0	0	0
27.56265	-0.06150129	-0.02756908	0	0	0	0	0	0
27.59054	-0.06150129	-0.02756908	0	0	0	0	0	0
27.60711	-0.06150129	-0.02756908	0	0	0	0	0	0
27.62369	-0.06150129	-0.02756908	0	0	0	0	0	0
27.64024	-0.06150129	-0.02756908	0	0	0	0	0	0
27.65681	-0.06150129	-0.02756908	0	0	0	0	0	0
27.67337	-0.06150129	-0.02756908	0	0	0	0	0	0
27.68994	-0.06150129	-0.02756908	0	0	0	0	0	0
27.70651	-0.06150129	-0.02756908	0	0	0	0	0	0
27.72308	-0.06150129	-0.02756908	0	0	0	0	0	0
27.73964	-0.06150129	-0.02756908	0	0	0	0	0	0
27.75629	-0.06150129	-0.02756908	0	0	0	0	0	0
27.7728	-0.06150129	-0.02756908	0	0	0	0	0	0
27.78934	-0.06150129	-0.02756908	0	0	0	0	0	0
27.80591	-0.06150129	-0.02756908	0	0	0	0	0	0
27.82247	-0.06150129	-0.02756908	0	0	0	0	0	0
27.83904	-0.06150129	-0.02756908	0	0	0	0	0	0
27.85561	-0.06150129	-0.02756908	0	0	0	0	0	0
27.87217	-0.06150129	-0.02756908	0	0	0	0	0	0
27.88888	-0.06150129	-0.02756908	0	0	0	0	0	0
27.90539	-0.06150129	-0.02756908	0	0	0	0	0	0
27.92187	-0.06150129	-0.02756908	0	0	0	0	0	0
27.93844	-0.06150129	-0.02756908	0	0	0	0	0	0
27.95501	-0.06150129	-0.02756908	0	0	0	0	0	0
27.97157	-0.06150129	-0.02756908	0	0	0	0	0	0
27.98846	-0.06150129	-0.02756908	0	0	0	0	0	0
28.1041	-0.06150129	-0.02756908	0	0	0	0	0	0
28.12067	-0.06150129	-0.02756908	0	0	0	0	0	0
28.13724	-0.06150129	-0.02756908	0	0	0	0	0	0
28.1538	-0.06150129	-0.02756908	0	0	0	0	0	0
28.17037	-0.06150129	-0.02756908	0	0	0	0	0	0
28.18694	-0.06147507	-0.02758807	0.00158274	-0.001146013	0.04776993	-0.03458874	0	0
28.20361	-0.06147507	-0.02758807	0	0	-0.04762462	0.03448353	0	0
28.22007	-0.06147507	-0.02758807	0	0	0	0	0	0
28.23664	-0.06147507	-0.02758807	0	0	0	0	0	0
28.25321	-0.06147507	-0.02758807	0	0	0	0	0	0
28.26977	-0.06147507	-0.02758807	0	0	0	0	0	0
28.28634	-0.06147507	-0.02758807	0	0	0	0	0	0
28.3074	-0.06147507	-0.02758807	0	0	0	0	0	0
28.32418	-0.06147507	-0.02758807	0	0	0	0	0	0
28.3407	-0.06147507	-0.02758807	0	0	0	0	0	0
28.3571	-0.06147507	-0.02758807	0	0	0	0	0	0
28.37366	-0.06147507	-0.02758807	0	0	0	0	0	0
28.39023	-0.06147507	-0.02758807	0	0	0	0	0	0
28.4068	-0.06147507	-0.02758807	0	0	0	0	0	0
28.42336	-0.06147507	-0.02758807	0	0	0	0	0	0
28.43993	-0.06147507	-0.02758807	0	0	0	0	0	0
28.4565	-0.06147507	-0.02758807	0	0	0	0	0	0
28.47306	-0.06147507	-0.02758807	0	0	0	0	0	0
28.48963	-0.06147507	-0.02758807	0	0	0	0	0	0
28.5062	-0.06147507	-0.02758807	0	0	0	0	0	0
28.52276	-0.06147507	-0.02758807	0	0	0	0	0	0
28.53934	-0.06147507	-0.02758807	0	0	0	0	0	0
28.5559	-0.06147507	-0.02758807	0	0	0	0	0	0
28.57247	-0.06147507	-0.02758807	0	0	0	0	0	0
28.58903	-0.06147507	-0.02758807	0	0	0	0	0	0
28.6056	-0.06147507	-0.02758807	0	0	0	0	0	0
28.62217	-0.06147507	-0.02758807	0	0	0	0	0	0
28.63891	-0.06147507	-0.02758807	0	0	0	0	0	0
28.6553	-0.06147507	-0.02758807	0	0	0	0	0	0
28.67187	-0.06147507	-0.02758807	0	0	0	0	0	0
28.68843	-0.06147507	-0.02758807	0	0	0	0	0	0
28.705	-0.06147507	-0.02758807	0	0	0	0	0	0
28.72157	-0.06147507	-0.02758807	0	0	0	0	0	0
28.83755	-0.06147507	-0.02758807	0	0	0	0	0	0
28.85411	-0.06147507	-0.02758807	0	0	0	0	0	0
28.87108	-0.06147507	-0.02758807	0	0	0	0	0	0
28.88724	-0.06147507	-0.02758807	0	0	0	0	0	0
28.9041	-0.06147507	-0.02758807	0	0	0	0	0	0
28.92041	-0.06147507	-0.02758807	0	0	0	0	0	0
28.93694	-0.06147507	-0.02758807	0	0	0	0	0	0
28.95351	-0.06147507	-0.02758807	0	0	0	0	0	0
28.97007	-0.06147507	-0.02758807	0	0	0	0	0	0
28.98667	-0.06147507	-0.02758807	0	0	0	0	0	0
29.00321	-0.06147507	-0.02758807	0	0	0	0	0	0
29.01978	-0.06147507	-0.02758807	0	0	0	0	0	0
29.03634	-0.06147507	-0.02758807	0	0	0	0	0	0
29.05291	-0.06147507	-0.02758807	0	0	0	0	0	0
29.06947	-0.06147507	-0.02758807	0	0	0	0	0	0
29.08623	-0.06147507	-0.02758807	0	0	0	0	0	0
29.1026	-0.06147507	-0.02758807	0	0	0	0	0	0
29.11917	-0.06147507	-0.02758807	0	0	0	0	0	0
29.13574	-0.06147507	-0.02758807	0	0	0	0	0	0
29.1523	-0.06147507	-0.02758807	0	0	0	0	0	0
29.17378	-0.06147507	-0.02758807	0	0	0	0	0	0
29.19035	-0.06147507	-0.02758807	0	0	0	0	0	0
29.20691	-0.06147507	-0.02758807	0	0	0	0	0	0
29.22383	-0.06147507	-0.02758807	0	0	0	0	0	0
29.24005	-0.06147507	-0.02758807	0	0	0	0	0	0
29.25662	-0.06147507	-0.02758807	0	0	0	0	0	0
29.27318	-0.06147507	-0.02758807	0	0	0	0	0	0
29.28987	-0.06147507	-0.02758807	0	0	0	0	0	0
29.30631	-0.06147507	-0.02758807	0	0	0	0	0	0
29.3229	-0.06147507	-0.02758807	0	0	0	0	0	0
29.33945	-0.06147507	-0.02758807	0	0	0	0	0	0
29.35601	-0.06147507	-0.02758807	0	0	0	0	0	0
29.37258	-0.06147507	-0.02758807	0	0	0	0	0	0
29.38915	-0.06147507	-0.02758807	0	0	0	0	0	0
29.40571	-0.06147507	-0.02758807	0	0	0	0	0	0
29.42247	-0.06147507	-0.02758807	0	0	0	0	0	0
29.43885	-0.06147507	-0.02758807	0	0	0	0	0	0
29.45541	-0.06147507	-0.02758807	0	0	0	0	0	0
29.47201	-0.06147507	-0.02758807	0	0	0	0	0	0
29.48855	-0.06147507	-0.02758807	0	0	0	0	0	0
29.57158	-0.06147507	-0.02758807	0	0	0	0	0	0
29.58809	-0.06147507	-0.02758807	0	0	0	0	0	0
29.6046	-0.06147507	-0.02758807	0	0	0	0	0	0
29.62108	-0.06147507	-0.02758807	0	0	0	0	0	0
29.63765	-0.06147507	-0.02758807	0	0	0	0	0	0
29.65421	-0.06147507	-0.02758807	0	0	0	0	0	0
29.67078	-0.06147507	-0.02758807	0	0	0	0	0	0
29.68735	-0.06147507	-0.02758807	0	0	0	0	0	0
29.70416	-0.06147507	-0.02758807	0	0	0	0	0	0
29.72068	-0.06147507	-0.02758807	0	0	0	0	0	0
29.73705	-0.06147507	-0.02758807	0	0	0	0	0	0
29.75362	-0.06147507	-0.02758807	0	0	0	0	0	0
29.78675	-0.06144886	-0.02760705	0.0007911663	-0.0005729969	0.01591769	-0.01152828	0	0
29.80332	-0.06144886	-0.02760705	0	0	-0.01591891	0.01152916	0	0
29.81988	-0.06144886	-0.02760705	0	0	0	0	0	0
29.83645	-0.06147507	-0.02762604	-0.001582333	-0.001145994	-0.04775764	-0.03458815	0	0
29.85302	-0.06147507	-0.02762604	0	0	0.04775489	0.03458616	0	0
29.86958	-0.06147507	-0.02762604	0	0	0	0	0	0
29.88615	-0.06147507	-0.02762604	0	0	0	0	0	0
29.90281	-0.06147507	-0.02762604	0	0	0	0	0	0
29.91928	-0.06147507	-0.02762604	0	0	0	0	0	0
29.93585	-0.06147507	-0.02762604	0	0	0	0	0	0
29.95711	-0.06147507	-0.02762604	0	0	0	0	0	0
29.97437	-0.06147507	-0.02762604	0	0	0	0	0	0
29.99024	-0.06147507	-0.02762604	0	0	0	0	0	0
30.00681	-0.06147507	-0.02762604	0	0	0	0	0	0
30.02338	-0.06147507	-0.02762604	0	0	0	0	0	0
30.03995	-0.06147507	-0.02762604	0	0	0	0	0	0
30.05651	-0.06147507	-0.02762604	0	0	0	0	0	0
30.07308	-0.06147507	-0.02762604	0	0	0	0	0	0
30.08964	-0.06147507	-0.02762604	0	0	0	0	0	0
30.10621	-0.06147507	-0.02762604	0	0	0	0	0	0
30.12278	-0.06147507	-0.02762604	0	0	0	0	0	0
30.13948	-0.06150129	-0.02764502	-0.001570085	-0.001136962	-0.04719779	-0.03417782	0	0
30.15591	-0.06150129	-0.02764502	0	0	0.04738526	0.03431358	0	0
30.17248	-0.06150129	-0.02764502	0	0	0	0	0	0
30.18904	-0.06150129	-0.02764502	0	0	0	0	0	0
30.20561	-0.06150129	-0.02764502	0	0	0	0	0	0
30.22253	-0.06150129	-0.02764502	0	0	0	0	0	0
30.23874	-0.06150129	-0.02764502	0	0	0	0	0	0
30.25556	-0.06150129	-0.02764502	0	0	0	0	0	0
30.27188	-0.06150129	-0.02764502	0	0	0	0	0	0
30.28845	-0.06150129	-0.02764502	0	0	0	0	0	0
30.30501	-0.06150129	-0.02764502	0	0	0	0	0	0
30.32158	-0.06150129	-0.02764502	0	0	0	0	0	0
30.33815	-0.06147507	-0.02762604	0.001582557	0.001145994	0.04776168	0.03458616	0	0
30.35471	-0.06147507	-0.02762604	0	0	-0.04776443	-0.03458815	0	0
30.37128	-0.06147507	-0.02762604	0	0	0	0	0	0
30.38815	-0.06147507	-0.02762604	0	0	0	0	0	0
30.40441	-0.06147507	-0.02762604	0	0	0	0	0	0
30.42098	-0.06147507	-0.02762604	0	0	0	0	0	0
30.43769	-0.06144886	-0.02764502	0.001568787	-0.001136183	0.04714255	-0.03414268	0	0
30.4542	-0.06144886	-0.02764502	0	0	-0.04722104	0.03419952	0	0
30.47071	-0.06144886	-0.02764502	0	0	0	0	0	0
30.48724	-0.06144886	-0.02764502	0	0	0	0	0	0
30.52038	-0.06144886	-0.02764502	0	0	0	0	0	0
30.53695	-0.06144886	-0.02764502	0	0	0	0	0	0
30.55351	-0.06144886	-0.02764502	0	0	0	0	0	0
30.57008	-0.06144886	-0.02764502	0	0	0	0	0	0
30.58665	-0.06144886	-0.02764502	0	0	0	0	0	0
30.66006	-0.06144886	-0.02764502	0	0	0	0	0	0
30.6816	-0.06144886	-0.02764502	0	0	0	0	0	0
30.69816	-0.06144886	-0.02764502	0	0	0	0	0	0
30.71473	-0.06144886	-0.02764502	0	0	0	0	0	0
30.73139	-0.06144886	-0.02764502	0	0	0	0	0	0
30.7479	-0.06144886	-0.02764502	0	0	0	0	0	0
30.76443	-0.06144886	-0.02764502	0	0	0	0	0	0
30.781	-0.06144886	-0.02764502	0	0	0	0	0	0
30.79757	-0.06144886	-0.02764502	0	0	0	0	0	0
30.81413	-0.06144886	-0.02764502	0	0	0	0	0	0
30.83097	-0.06144886	-0.02764502	0	0	0	0	0	0
30.84727	-0.06144886	-0.02764502	0	0	0	0	0	0
30.86383	-0.06144886	-0.02764502	0	0	0	0	0	0
30.8804	-0.06144886	-0.02764502	0	0	0	0	0	0
30.89701	-0.06144886	-0.02764502	0	0	0	0	0	0
30.91353	-0.06144886	-0.02764502	0	0	0	0	0	0
30.9301	-0.06144886	-0.02764502	0	0	0	0	0	0
30.94666	-0.06144886	-0.02764502	0	0	0	0	0	0
30.96323	-0.06139642	-0.02760705	0.00316489	0.002291987	0.09551657	0.06917232	0	0
30.98008	-0.06126534	-0.02758807	0.007780659	0.001126922	0.1381353	-0.03486671	0	0
30.99637	-0.05903658	-0.02874639	0.1368441	-0.07112049	3.895142	-2.180431	0	0
31.01309	-0.04998465	-0.0331368	0.5411426	-0.2624671	12.24616	-5.795873	0	0
31.04612	-0.0243636	-0.04126909	0.775835	-0.2462551	4.717314	0.3258625	0	0
31.06263	0.01168368	-0.04485657	2.182855	-0.217241	28.40303	0.5856963	0	0
31.0792	0.02862376	-0.04550583	1.022505	-0.03918932	-35.07595	5.382287	0	0
31.09615	0.05541689	-0.04669014	1.580303	-0.06985284	16.63993	-0.9147376	0	0
31.11233	0.1006326	-0.04907931	2.794537	-0.1476616	36.64565	-2.348273	0	0
31.1289	0.1175866	-0.05007378	1.023347	-0.06002633	-54.08665	2.676109	0	0
31.14547	0.1480405	-0.05179577	1.838202	-0.1039395	24.59238	-1.325302	0	0
31.1622	0.1674437	-0.05302091	1.159429	-0.07320813	-20.38216	0.9227994	0	0
31.17871	0.173118	-0.05351878	0.3436904	-0.0301552	-24.53711	1.295016	0	0
31.19517	0.2011882	-0.05572188	1.705909	-0.1338892	41.32354	-3.146821	0	0
31.21174	0.2106692	-0.05775406	0.5720739	-0.1226202	-34.32987	0.3411991	0	0
31.2283	0.2176545	-0.06047866	0.4217805	-0.1645139	-4.535862	-1.264355	0	0
31.24487	0.2244182	-0.06512799	0.4082575	-0.2806341	-0.4081949	-3.505119	0	0
31.26144	0.2291404	-0.0687644	0.2850348	-0.2194938	-3.718869	1.845217	0	0
31.278	0.2336531	-0.0722513	0.2723834	-0.2104698	-0.3818222	0.272346	0	0
31.29457	0.2373606	-0.07512501	0.2237886	-0.1734576	-1.466592	1.117031	0	0
31.31131	0.2396217	-0.07688157	0.1350645	-0.1049267	-2.663747	2.057488	0	0
31.3277	0.2410367	-0.0779824	0.08632567	-0.06715759	-1.471025	1.139939	0	0
31.34433	0.2410119	-0.07800172	-0.00149296	-0.001161838	-2.659557	1.998659	0	0
31.36084	0.2410119	-0.07800172	0	0	0.04506021	0.03506637	0	0
31.3774	0.2409871	-0.07802103	-0.001497561	-0.001165669	-0.04528249	-0.03524691	0	0
31.39397	0.2409871	-0.07802103	0	0	0.04519647	0.03517996	0	0
31.49344	0.2407389	-0.0779824	-0.002495063	0.0003883555	-0.02150153	0.003346704	0	0
31.51534	0.2406893	-0.0779824	-0.002267245	0	0.001877104	-0.003199858	0	0
31.5319	0.2406396	-0.0779824	-0.002996021	0	-0.01894904	0	0	0
31.54848	0.24059	-0.0779824	-0.002995541	0	1.448601E-05	0	0	0
31.56504	0.2405155	-0.07800172	-0.00449707	-0.00116679	-0.04531885	-0.03521583	0	0
31.5816	0.2404659	-0.07804035	-0.00299692	-0.002331787	0.04528764	-0.03516981	0	0
31.59817	0.2403666	-0.07807899	-0.005992251	-0.002331969	-0.09039406	-5.473596E-06	0	0
31.61503	0.2403418	-0.0780983	-0.001472689	-0.001145621	0.1352098	0.03549146	0	0
31.63131	0.2401431	-0.07825284	-0.01220354	-0.009495763	-0.3238764	-0.2520223	0	0
31.64806	0.2398949	-0.07844604	-0.01482089	-0.0115324	-0.07924721	-0.06166457	0	0
31.66456	0.2380566	-0.07987609	-0.1113803	-0.08664715	-2.903471	-2.258647	0	0
31.681	0.2371369	-0.08063006	-0.05594094	-0.04585811	1.682752	1.238071	0	0
31.69762	0.2371369	-0.08063006	0	0	1.692295	1.387275	0	0
31.71414	0.2371369	-0.08063006	0	0	0	0	0	0
31.73071	0.2371369	-0.08063006	0	0	0	0	0	0
31.74727	0.2371369	-0.08063006	0	0	0	0	0	0
31.76384	0.2371369	-0.08063006	0	0	0	0	0	0
31.78041	0.237112	-0.08061072	-0.001501331	0.001167152	-0.04531288	0.03522676	0	0
31.79697	0.237112	-0.08061072	0	0	0.04531288	-0.03522676	0	0
31.81354	0.2370871	-0.08059139	-0.001500259	0.001167018	-0.04527791	0.03522068	0	0
31.84667	0.2370374	-0.08055272	-0.001500709	0.001167018	-9.048231E-06	0	0	0
31.86324	0.2370125	-0.08053339	-0.001501158	0.001167018	-9.048231E-06	0	0	0
31.87981	0.2369379	-0.08047538	-0.004503095	0.003501457	-0.09060383	0.07045757	0	0
31.89673	0.2369131	-0.08045605	-0.001469687	0.001142552	0.09058376	-0.07044175	0	0
31.91324	0.2368882	-0.08043671	-0.001506187	0.001170927	-0.001091711	0.0008487122	0	0
31.92975	0.2368633	-0.08041738	-0.001505285	0.001170927	2.732728E-05	0	0	0
31.94607	0.2368385	-0.08039805	-0.001523789	0.001184611	-0.0005635877	0.0004167686	0	0
31.96264	0.2368136	-0.08037871	-0.001501331	0.001167152	0.0006828844	-0.0005308805	0	0
31.97921	0.2367887	-0.08035938	-0.001500986	0.001166884	1.043135E-05	-8.108977E-06	0	0
31.99577	0.2367639	-0.08034004	-0.001501331	0.001167152	-1.043135E-05	8.108977E-06	0	0
32.01234	0.236739	-0.08032071	-0.001501158	0.001167018	5.217731E-06	-4.054722E-06	0	0
32.02891	0.236739	-0.08032071	0	0	0.04530505	-0.03522068	0	0
32.04547	0.236739	-0.08032071	0	0	0	0	0	0
32.06204	0.236739	-0.08032071	0	0	0	0	0	0
32.07861	0.236739	-0.08032071	0	0	0	0	0	0
32.09517	0.236739	-0.08032071	0	0	0	0	0	0
32.11174	0.236739	-0.08032071	0	0	0	0	0	0
32.12839	0.236739	-0.08032071	0	0	0	0	0	0
32.14487	0.236739	-0.08032071	0	0	0	0	0	0
32.16144	0.2367141	-0.08030137	-0.001501158	0.001167018	-0.04542534	0.03531418	0	0
32.22796	0.2366893	-0.08032071	-0.0003736238	-0.0002906336	0.01356976	-0.01754268	0	0
32.24427	0.2366893	-0.08032071	0	0	0.004510395	0.003508536	0	0
32.26537	0.2366893	-0.08032071	0	0	0	0	0	0
32.282	0.2366644	-0.08030137	-0.001495648	0.001162734	-0.0396436	0.0308194	0	0
32.29851	0.23654	-0.08020472	-0.007533547	0.005855764	-0.1822241	0.1416359	0	0
32.31507	0.2349228	-0.07906435	-0.09761578	0.06883293	-2.723704	1.904162	0	0
32.33164	0.2305626	-0.07607071	-0.2631866	0.1806962	-4.996938	3.376041	0	0
32.34855	0.2181562	-0.06809063	-0.7336463	0.4718993	-14.05289	8.698399	0	0
32.36478	0.2004049	-0.06280237	-1.094146	0.3259546	-10.8799	-4.404619	0	0
32.39791	0.1477831	-0.05493624	-1.588129	0.2374005	-10.00808	-1.794107	0	0
32.41448	0.1065944	-0.05093465	-2.486152	0.2415365	-18.06827	0.08321761	0	0
32.43111	0.06548518	-0.04741624	-2.471685	0.2115431	0.4357693	-0.903434	0	0
32.44762	0.05557429	-0.0465373	-0.6002955	0.0532371	56.46563	-4.776586	0	0
32.46418	0.01820851	-0.04382568	-2.256962	0.1637869	-50.10212	3.343327	0	0
32.48074	-0.006447279	-0.04228001	-1.488227	0.09329646	23.2085	-2.128139	0	0
32.49731	-0.03979477	-0.04155517	-2.012859	0.04375193	-15.83342	-1.495257	0	0
32.51388	-0.05434119	-0.04289055	-0.8780234	-0.08060407	34.2494	-3.753072	0	0
32.53045	-0.06079341	-0.04445562	-0.3894573	-0.09446775	14.74496	-0.4184068	0	0
32.54701	-0.0678169	-0.05026506	-0.4239383	-0.3506586	-1.040638	-7.731854	0	0
32.56358	-0.07203305	-0.05342303	-0.2545459	-0.1906591	5.112862	4.82935	0	0
32.58014	-0.07297544	-0.05411249	-0.05688302	-0.04161622	5.966164	4.498641	0	0
32.59673	-0.0732372	-0.05434235	-0.01578495	-0.01386148	1.239771	0.8372542	0	0
32.61328	-0.07438879	-0.05518532	-0.06957474	-0.05092867	-1.623379	-1.11869	0	0
32.62985	-0.07454582	-0.05530029	-0.009475623	-0.006938	1.814422	1.3281	0	0
32.64641	-0.07454582	-0.05530029	0	0	0.2859749	0.2093893	0	0
32.66298	-0.07451965	-0.05531945	0.001579773	-0.001156716	0.04768863	-0.0349178	0	0
32.67954	-0.07423177	-0.05549192	0.0173762	-0.01041007	0.476792	-0.279299	0	0
32.69611	-0.07407475	-0.0556069	0.009478255	-0.006940272	-0.2383605	0.1047187	0	0
32.71281	-0.07362981	-0.05589437	0.02664764	-0.01721713	0.5161527	-0.3089468	0	0
32.72924	-0.07357746	-0.0559327	0.00318465	-0.002332056	-0.7081144	0.4492324	0	0
32.74583	-0.07355129	-0.05595187	0.00157768	-0.001155303	-0.04865531	0.03562931	0	0
32.76238	-0.07349894	-0.05595187	0.00316409	0	0.04787795	0.03486712	0	0
32.77895	-0.07344659	-0.05595187	0.003159718	0	-0.0001320202	0	0	0
32.79551	-0.07331572	-0.0560477	0.007899296	-0.005784497	0.1430407	-0.1745765	0	0
32.81238	-0.0731325	-0.05618187	0.01086188	-0.007953838	0.08860522	-0.06488075	0	0
32.8289	-0.0730278	-0.05622021	0.00633886	-0.002320971	-0.1354757	0.1687183	0	0
32.84541	-0.07289692	-0.05627771	0.007928956	-0.003483758	0.04814995	-0.03521052	0	0
32.86178	-0.07273985	-0.05639273	0.009593156	-0.007024788	0.05061608	-0.1076993	0	0
32.87843	-0.07266133	-0.05645024	0.004717218	-0.003454444	-0.1476661	0.1081266	0	0
32.89494	-0.0724519	-0.0566036	0.01267862	-0.009284561	0.2400546	-0.1757913	0	0
32.91148	-0.07234719	-0.05668028	0.006333461	-0.004638334	-0.1919836	0.1405795	0	0
32.92804	-0.06653323	-0.06086262	0.3509316	-0.2524462	10.41078	-7.486615	0	0
32.94461	-0.05827605	-0.06687827	0.4984046	-0.3631054	4.450746	-3.339701	0	0
32.96816	-0.05239936	-0.0711142	0.2495203	-0.1798552	-6.203627	4.567648	0	0
32.98501	-0.04536359	-0.07616723	0.4175648	-0.2998911	4.159369	-2.97108	0	0
33.0013	-0.04105587	-0.0793349	0.2644602	-0.19447	-4.620174	3.181252	0	0
33.01786	-0.03601074	-0.08304805	0.3045944	-0.224178	1.22166	-0.9042946	0	0
33.03444	-0.03543253	-0.08347384	0.03489278	-0.02569456	-8.139611	5.990242	0	0
33.05105	-0.03545881	-0.08345448	-0.001581646	0.00116488	-1.099029	0.8093151	0	0
33.06757	-0.03545881	-0.08345448	0	0	0.04773966	-0.03516021	0	0
33.08413	-0.03545881	-0.08345448	0	0	0	0	0	0
33.1007	-0.0354851	-0.08343513	-0.001586605	0.001168367	-0.04788383	0.03526139	0	0
33.11727	-0.03559023	-0.08335771	-0.00634552	0.004673019	-0.1436244	0.1057706	0	0
33.13383	-0.03566908	-0.08329964	-0.004759365	0.003504652	0.04787027	-0.03526139	0	0
33.1504	-0.03572164	-0.08326094	-0.003173491	0.002336823	0.04786728	-0.03524921	0	0
33.16697	-0.03580049	-0.08320288	-0.00475914	0.003504652	-0.0478605	0.03524921	0	0
33.18353	-0.03585305	-0.08316417	-0.00317276	0.002336285	0.04787704	-0.03526139	0	0
33.20016	-0.03590561	-0.08312546	-0.00316184	0.002328692	0.0003290118	-0.0002287643	0	0
33.21667	-0.03590561	-0.08312546	0	0	0.09542451	-0.07028005	0	0
33.26637	-0.03603702	-0.0830287	-0.002643967	0.001946829	-0.03993202	0.02940309	0	0
33.28322	-0.03606331	-0.08304805	-0.001559803	-0.001148793	0.01629068	-0.04651489	0	0
33.2995	-0.03608959	-0.0830287	-0.001613879	0.00118862	-0.001632019	0.07054326	0	0
33.31607	-0.03606331	-0.08304805	0.00158638	-0.001168367	0.09741392	-0.07174525	0	0
33.33276	-0.03606331	-0.08304805	0	0	-0.04770678	0.03513599	0	0
33.34927	-0.03606331	-0.08308675	0	-0.002343931	0	-0.0706099	0	0
33.36578	-0.03606331	-0.08308675	0	0	0	0.07097694	0	0
33.38234	-0.03606331	-0.08308675	0	0	0	0	0	0
33.3989	-0.03606331	-0.08308675	0	0	0	0	0	0
33.41547	-0.03608959	-0.08310611	-0.00158638	-0.001168367	-0.04787704	-0.03526139	0	0
33.43204	-0.03608959	-0.08310611	0	0	0.04787704	0.03526139	0	0
33.44884	-0.03606331	-0.08312546	0.001564052	-0.001151479	0.04686863	-0.03450542	0	0
33.46517	-0.03606331	-0.08312546	0	0	-0.04720318	0.03475171	0	0
33.48174	-0.03606331	-0.08312546	0	0	0	0	0	0
33.49837	-0.03606331	-0.08312546	0	0	0	0	0	0
33.51488	-0.03608959	-0.08314481	-0.001591878	-0.001172416	-0.04802639	-0.03537138	0	0
33.53144	-0.03608959	-0.08314481	0	0	0.0481483	0.03546117	0	0
33.548	-0.03608959	-0.08314481	0	0	0	0	0	0
33.56457	-0.03608959	-0.08314481	0	0	0	0	0	0
33.58144	-0.03608959	-0.08314481	0	0	0	0	0	0
33.5977	-0.03608959	-0.08314481	0	0	0	0	0	0
33.61445	-0.03611587	-0.08316417	-0.001569039	-0.001155595	-0.04752329	-0.03500085	0	0
33.63084	-0.03611587	-0.08316417	0	0	0.04735368	0.03487594	0	0
33.64748	-0.03611587	-0.08316417	0	0	0	0	0	0
33.66399	-0.03611587	-0.08316417	0	0	0	0	0	0
33.68053	-0.03611587	-0.08316417	0	0	0	0	0	0
33.6971	-0.03611587	-0.08316417	0	0	0	0	0	0
33.71402	-0.03611587	-0.08316417	0	0	0	0	0	0
33.73024	-0.03611587	-0.08316417	0	0	0	0	0	0
33.74705	-0.03611587	-0.08316417	0	0	0	0	0	0
33.76337	-0.03611587	-0.08316417	0	0	0	0	0	0
33.80244	-0.03611587	-0.08316417	0	0	0	0	0	0
33.8191	-0.03611587	-0.08316417	0	0	0	0	0	0
33.83558	-0.03611587	-0.08316417	0	0	0	0	0	0
33.85214	-0.03611587	-0.08316417	0	0	0	0	0	0
33.86871	-0.03611587	-0.08316417	0	0	0	0	0	0
33.88528	-0.03611587	-0.08316417	0	0	0	0	0	0
33.90216	-0.03611587	-0.08316417	0	0	0	0	0	0
33.91841	-0.03611587	-0.08316417	0	0	0	0	0	0
33.93518	-0.03611587	-0.08316417	0	0	0	0	0	0
33.95154	-0.03611587	-0.08316417	0	0	0	0	0	0
33.96821	-0.03611587	-0.08316417	0	0	0	0	0	0
33.98468	-0.03611587	-0.08316417	0	0	0	0	0	0
34.00124	-0.03611587	-0.08316417	0	0	0	0	0	0
34.01781	-0.03611587	-0.08316417	0	0	0	0	0	0
34.03437	-0.03611587	-0.08316417	0	0	0	0	0	0
34.05094	-0.03611587	-0.08316417	0	0	0	0	0	0
34.06751	-0.03611587	-0.08316417	0	0	0	0	0	0
34.15034	-0.03611587	-0.08316417	0	0	0	0	0	0
34.16691	-0.03611587	-0.08316417	0	0	0	0	0	0
34.18348	-0.03611587	-0.08316417	0	0	0	0	0	0
34.20004	-0.03611587	-0.08316417	0	0	0	0	0	0
34.21688	-0.03611587	-0.08316417	0	0	0	0	0	0
34.23339	-0.03611587	-0.08316417	0	0	0	0	0	0
34.25711	-0.03611587	-0.08316417	0	0	0	0	0	0
34.27368	-0.03611587	-0.08316417	0	0	0	0	0	0
34.29044	-0.03611587	-0.08316417	0	0	0	0	0	0
34.30694	-0.03611587	-0.08316417	0	0	0	0	0	0
34.32338	-0.03611587	-0.08316417	0	0	0	0	0	0
34.33994	-0.03611587	-0.08316417	0	0	0	0	0	0
34.35651	-0.03611587	-0.08316417	0	0	0	0	0	0
34.37308	-0.03611587	-0.08316417	0	0	0	0	0	0
34.38964	-0.03611587	-0.08316417	0	0	0	0	0	0
34.40621	-0.03611587	-0.08316417	0	0	0	0	0	0
34.42278	-0.03611587	-0.08316417	0	0	0	0	0	0
34.43935	-0.03614215	-0.08314481	-0.001586155	0.001168367	-0.04787026	0.03526139	0	0
34.45605	-0.03614215	-0.08314481	0	0	0.04767814	-0.03511988	0	0
34.47248	-0.03614215	-0.08314481	0	0	0	0	0	0
34.49492	-0.03614215	-0.08314481	0	0	0	0	0	0
34.51159	-0.03614215	-0.08314481	0	0	0	0	0	0
34.52811	-0.03614215	-0.08314481	0	0	0	0	0	0
34.54462	-0.03614215	-0.08314481	0	0	0	0	0	0
34.56119	-0.03614215	-0.08314481	0	0	0	0	0	0
34.57775	-0.03614215	-0.08314481	0	0	0	0	0	0
34.59432	-0.03611587	-0.08316417	0.001586155	-0.001168367	0.04787026	-0.03526139	0	0
34.61089	-0.03611587	-0.08316417	0	0	-0.04787577	0.03526545	0	0
34.62745	-0.03611587	-0.08316417	0	0	0	0	0	0
34.64402	-0.03611587	-0.08316417	0	0	0	0	0	0
34.66059	-0.03611587	-0.08316417	0	0	0	0	0	0
34.67715	-0.03611587	-0.08316417	0	0	0	0	0	0
34.74061	-0.03611587	-0.08316417	0	0	0	0	0	0
34.75726	-0.03611587	-0.08316417	0	0	0	0	0	0
34.77374	-0.03611587	-0.08316417	0	0	0	0	0	0
34.79031	-0.03611587	-0.08316417	0	0	0	0	0	0
34.80688	-0.03611587	-0.08316417	0	0	0	0	0	0
34.82344	-0.03611587	-0.08316417	0	0	0	0	0	0
34.84001	-0.03608959	-0.08318352	0.00158638	-0.001167918	0.04788256	-0.03525188	0	0
34.85658	-0.03611587	-0.08320288	-0.00158638	-0.001168367	-0.09575409	-1.357235E-05	0	0
34.87314	-0.03611587	-0.08320288	0	0	0.04787704	0.03526139	0	0
34.90636	-0.03611587	-0.08320288	0	0	0	0	0	0
34.92284	-0.03611587	-0.08320288	0	0	0	0	0	0
34.93941	-0.03611587	-0.08320288	0	0	0	0	0	0
34.95598	-0.03611587	-0.08320288	0	0	0	0	0	0
34.97255	-0.03608959	-0.08322223	0.00158638	-0.001167918	0.04787704	-0.03524782	0	0
35.00593	-0.03608959	-0.08322223	0	0	-0.03175716	0.02338011	0	0
35.02224	-0.03608959	-0.08322223	0	0	0	0	0	0
35.03895	-0.03608959	-0.08322223	0	0	0	0	0	0
35.05547	-0.03608959	-0.08322223	0	0	0	0	0	0
35.07195	-0.03608959	-0.08322223	0	0	0	0	0	0
35.08851	-0.03608959	-0.08322223	0	0	0	0	0	0
35.10551	-0.03608959	-0.08322223	0	0	0	0	0	0
35.12165	-0.03611587	-0.08320288	-0.001628374	0.001198834	-0.04914441	0.03618088	0	0
35.13853	-0.03611587	-0.08324158	0	-0.002292991	0.04931473	-0.1057487	0	0
35.15478	-0.03611587	-0.08324158	0	0	0	0.0692026	0	0
35.17135	-0.03614215	-0.08322223	-0.001586155	0.001168367	-0.04832648	0.03559745	0	0
35.18806	-0.03611587	-0.08324158	0.001572038	-0.001157969	0.09488843	-0.06989513	0	0
35.20448	-0.03611587	-0.08324158	0	0	-0.04744421	0.03494756	0	0
35.22108	-0.03614215	-0.08322223	-0.001582875	0.001165951	-0.04793683	0.03531043	0	0
35.23761	-0.03614215	-0.08322223	0	0	0.04777676	-0.03519252	0	0
35.25418	-0.03614215	-0.08322223	0	0	0	0	0	0
35.27547	-0.03614215	-0.08322223	0	0	0	0	0	0
35.29204	-0.03614215	-0.08322223	0	0	0	0	0	0
35.30865	-0.03614215	-0.08322223	0	0	0	0	0	0
35.32517	-0.03614215	-0.08322223	0	0	0	0	0	0
35.34174	-0.03614215	-0.08322223	0	0	0	0	0	0
35.35831	-0.03614215	-0.08322223	0	0	0	0	0	0
35.37487	-0.03611587	-0.08324158	0.001586155	-0.001168367	0.04787026	-0.03526139	0	0
35.39144	-0.03614215	-0.08322223	-0.001586155	0.001168367	-0.09574051	0.07052279	0	0
35.40801	-0.03614215	-0.08322223	0	0	0.04787026	-0.03526139	0	0
35.42473	-0.03614215	-0.08322223	0	0	0	0	0	0
35.44114	-0.03614215	-0.08322223	0	0	0	0	0	0
35.45776	-0.03614215	-0.08322223	0	0	0	0	0	0
35.47427	-0.03614215	-0.08322223	0	0	0	0	0	0
35.49084	-0.03614215	-0.08322223	0	0	0	0	0	0
35.50741	-0.03614215	-0.08322223	0	0	0	0	0	0
35.52398	-0.03614215	-0.08322223	0	0	0	0	0	0
35.54082	-0.03614215	-0.08322223	0	0	0	0	0	0
35.55711	-0.03614215	-0.08322223	0	0	0	0	0	0
35.57384	-0.03614215	-0.08322223	0	0	0	0	0	0
35.59024	-0.03614215	-0.08322223	0	0	0	0	0	0
35.60686	-0.03614215	-0.08322223	0	0	0	0	0	0
35.62338	-0.03614215	-0.08322223	0	0	0	0	0	0
35.63995	-0.03614215	-0.08322223	0	0	0	0	0	0
35.65651	-0.03614215	-0.08322223	0	0	0	0	0	0
35.68993	-0.03611587	-0.08324158	0.0007862883	-0.0005791826	0.01572961	-0.01158648	0	0
35.70621	-0.03611587	-0.08324158	0	0	-0.01582015	0.01165318	0	0
35.72295	-0.03611587	-0.08324158	0	0	0	0	0	0
35.73935	-0.03611587	-0.08324158	0	0	0	0	0	0
35.75597	-0.03611587	-0.08324158	0	0	0	0	0	0
35.77249	-0.03611587	-0.08324158	0	0	0	0	0	0
35.78905	-0.03611587	-0.08324158	0	0	0	0	0	0
35.80562	-0.03611587	-0.08324158	0	0	0	0	0	0
35.82219	-0.03614215	-0.08322223	-0.001586155	0.001168367	-0.04787026	0.03526139	0	0
35.83875	-0.03614215	-0.08322223	0	0	0.04787026	-0.03526139	0	0
35.85532	-0.03614215	-0.08322223	0	0	0	0	0	0
35.87189	-0.03614215	-0.08322223	0	0	0	0	0	0
35.88845	-0.03614215	-0.08322223	0	0	0	0	0	0
35.90502	-0.03614215	-0.08322223	0	0	0	0	0	0
35.92159	-0.03614215	-0.08322223	0	0	0	0	0	0
35.93815	-0.03614215	-0.08322223	0	0	0	0	0	0
35.97564	-0.03614215	-0.08322223	0	0	0	0	0	0
36.0253	-0.03614215	-0.08322223	0	0	0	0	0	0
36.04187	-0.03614215	-0.08322223	0	0	0	0	0	0
36.05843	-0.03614215	-0.08322223	0	0	0	0	0	0
36.075	-0.03614215	-0.08322223	0	0	0	0	0	0
36.09157	-0.03614215	-0.08322223	0	0	0	0	0	0
36.10823	-0.03614215	-0.08322223	0	0	0	0	0	0
36.12474	-0.03614215	-0.08322223	0	0	0	0	0	0
36.14127	-0.03614215	-0.08322223	0	0	0	0	0	0
36.15783	-0.03614215	-0.08322223	0	0	0	0	0	0
36.1744	-0.03614215	-0.08322223	0	0	0	0	0	0
36.19097	-0.03614215	-0.08322223	0	0	0	0	0	0
36.20753	-0.03614215	-0.08322223	0	0	0	0	0	0
36.2241	-0.03614215	-0.08322223	0	0	0	0	0	0
36.24082	-0.03614215	-0.08322223	0	0	0	0	0	0
36.25724	-0.03614215	-0.08322223	0	0	0	0	0	0
36.27385	-0.03614215	-0.08322223	0	0	0	0	0	0
36.29037	-0.03614215	-0.08322223	0	0	0	0	0	0
36.30693	-0.03614215	-0.08322223	0	0	0	0	0	0
36.3235	-0.03614215	-0.08322223	0	0	0	0	0	0
36.34007	-0.03614215	-0.08322223	0	0	0	0	0	0
36.35663	-0.03614215	-0.08322223	0	0	0	0	0	0
36.3732	-0.03614215	-0.08322223	0	0	0	0	0	0
36.38977	-0.03616843	-0.08324158	-0.00158638	-0.001168367	-0.04787704	-0.03526139	0	0
36.40633	-0.03616843	-0.08324158	0	0	0.04787704	0.03526139	0	0
36.4229	-0.03616843	-0.08324158	0	0	0	0	0	0
36.43947	-0.03616843	-0.08324158	0	0	0	0	0	0
36.45603	-0.03616843	-0.08324158	0	0	0	0	0	0
36.47298	-0.03616843	-0.08324158	0	0	0	0	0	0
36.48949	-0.03622099	-0.083319	-0.003183756	-0.004689215	-0.09514394	-0.1401333	0	0
36.50573	-0.03627356	-0.083319	-0.003236856	0	-0.001621417	0.1431857	0	0
36.5223	-0.03624728	-0.08329964	0.00158638	0.001168367	0.1470212	0.03561401	0	0
36.53887	-0.03624728	-0.08329964	0	0	-0.04787704	-0.03526139	0	0
36.55554	-0.03627356	-0.083319	-0.001576218	-0.001160883	-0.0474175	-0.03492294	0	0
36.572	-0.03627356	-0.083319	0	0	0.04757035	0.03503551	0	0
36.58857	-0.03627356	-0.083319	0	0	0	0	0	0
36.60514	-0.03627356	-0.083319	0	0	0	0	0	0
36.62209	-0.03627356	-0.083319	0	0	0	0	0	0
36.63827	-0.03627356	-0.083319	0	0	0	0	0	0
36.65511	-0.03627356	-0.083319	0	0	0	0	0	0
36.6714	-0.03627356	-0.083319	0	0	0	0	0	0
36.68814	-0.03627356	-0.083319	0	0	0	0	0	0
36.70465	-0.03627356	-0.083319	0	0	0	0	0	0
36.8205	-0.03629984	-0.08329964	-0.0002268249	0.00016708	-0.001713617	0.001262256	0	0
36.83725	-0.03629984	-0.08329964	0	0	0.001710659	-0.001260077	0	0
36.85364	-0.03629984	-0.08329964	0	0	0	0	0	0
36.8702	-0.03629984	-0.08329964	0	0	0	0	0	0
36.89236	-0.03629984	-0.08329964	0	0	0	0	0	0
36.90929	-0.03629984	-0.08329964	0	0	0	0	0	0
36.9255	-0.03632612	-0.083319	-0.001621475	-0.001194215	-0.04893622	-0.03604148	0	0
36.94207	-0.03632612	-0.083319	0	0	0.04947161	0.03643578	0	0
36.95863	-0.03632612	-0.083319	0	0	0	0	0	0
36.97535	-0.03632612	-0.083319	0	0	0	0	0	0
36.99186	-0.03632612	-0.083319	0	0	0	0	0	0
37.00833	-0.03632612	-0.083319	0	0	0	0	0	0
37.0249	-0.03632612	-0.083319	0	0	0	0	0	0
37.04147	-0.03632612	-0.083319	0	0	0	0	0	0
37.05803	-0.03632612	-0.083319	0	0	0	0	0	0
37.07491	-0.0363524	-0.08333835	-0.001557687	-0.001146793	-0.04658205	-0.03429442	0	0
37.09116	-0.0363524	-0.08333835	0	0	0.04701649	0.03461427	0	0
37.10773	-0.03640496	-0.08333835	-0.003172535	0	-0.09664858	0	0	0
37.1243	-0.03643124	-0.08335771	-0.00158638	-0.001168367	0.04787026	-0.03526139	0	0
37.14095	-0.03656265	-0.08337706	-0.007889891	-0.001162212	-0.1897379	0.0001852675	0	0
37.15743	-0.03687801	-0.08357061	-0.01913656	-0.01174497	-0.339425	-0.3193883	0	0
37.174	-0.03782406	-0.08419009	-0.05710361	-0.03739135	-1.14889	-0.7760642	0	0
37.19099	-0.04076688	-0.08628185	-0.1732022	-0.1231126	-3.45965	-2.55443	0	0
37.20713	-0.04827825	-0.09182901	-0.465279	-0.3436092	-8.814896	-6.654601	0	0
37.2237	-0.05995438	-0.1004831	-0.7047725	-0.5223649	-7.321493	-5.464691	0	0
37.24027	-0.08197378	-0.1169176	-1.329094	-0.9919838	-18.84206	-14.17313	0	0
37.25704	-0.1013099	-0.1314869	-1.152794	-0.8686049	5.287872	3.700576	0	0
37.2734	-0.1214779	-0.1467187	-1.23267	-0.9309708	-2.410646	-1.882206	0	0
37.28997	-0.1477316	-0.1664074	-1.584679	-1.188413	-10.69013	-7.818223	0	0
37.30654	-0.1660874	-0.1805202	-1.107956	-0.8518485	14.38755	10.15753	0	0
37.3231	-0.1890316	-0.1983541	-1.384916	-1.076458	-8.358687	-6.778737	0	0
37.33967	-0.1997982	-0.2065518	-0.6498766	-0.4948148	22.18354	17.55404	0	0
37.35624	-0.2191091	-0.2216674	-1.165609	-0.9123787	-15.56482	-12.60211	0	0
37.37281	-0.2364903	-0.234476	-1.049129	-0.7731281	3.515362	4.202592	0	0
37.38937	-0.2497037	-0.2421131	-0.7975613	-0.4609771	7.592329	9.420736	0	0
37.40615	-0.2572253	-0.2469921	-0.4483261	-0.2908149	10.47362	5.103191	0	0
37.42266	-0.2700047	-0.2566821	-0.7740386	-0.5869123	-9.784962	-8.895272	0	0
37.55526	-0.3103712	-0.2688577	-0.3044347	-0.09182537	3.149483	3.32039	0	0
37.57177	-0.3103473	-0.2688787	0.001443418	-0.001272012	2.051321	0.6072813	0	0
37.58828	-0.3103473	-0.2688787	0	0	-0.04370837	0.038518	0	0
37.60479	-0.3103235	-0.2688997	0.00144589	-0.001274405	0.04379335	-0.03859938	0	0
37.6213	-0.3102996	-0.2689207	0.001445556	-0.001272306	-1.011377E-05	6.356271E-05	0	0
37.63787	-0.3102041	-0.2689628	0.005761786	-0.002538208	0.1304744	-0.03826668	0	0
37.65482	-0.310061	-0.2690889	0.008445376	-0.007441564	0.08005995	-0.1462826	0	0
37.67101	-0.3090822	-0.2699512	0.06048702	-0.05328412	1.57062	-1.383531	0	0
37.68757	-0.3087239	-0.2702667	0.02162922	-0.01905084	-1.186666	1.045439	0	0
37.70414	-0.3087	-0.2702457	0.001442695	0.001270004	-0.6093006	0.6133549	0	0
37.7207	-0.3087	-0.2702457	0	0	-0.04354063	-0.03832878	0	0
37.73727	-0.3087	-0.2702457	0	0	0	0	0	0
37.75384	-0.3087	-0.2702457	0	0	0	0	0	0
37.7704	-0.3086762	-0.2702667	0.001440896	-0.001270004	0.04348634	-0.03832878	0	0
37.79266	-0.3086523	-0.2702878	0.0010738	-0.0009452656	-0.009454902	0.008363931	0	0
37.80943	-0.3086523	-0.2702878	0	0	-0.02751347	0.02422009	0	0
37.84237	-0.3086284	-0.2703088	0.0007257761	-0.0006389002	0.01460264	-0.0128547	0	0
37.85893	-0.3086284	-0.2703088	0	0	-0.01466342	0.0129082	0	0
37.8755	-0.3086284	-0.2703088	0	0	0	0	0	0
37.89206	-0.3086284	-0.2703088	0	0	0	0	0	0
37.90863	-0.3086284	-0.2703088	0	0	0	0	0	0
37.92519	-0.3086284	-0.2703088	0	0	0	0	0	0
37.94176	-0.3086284	-0.2703088	0	0	0	0	0	0
37.95853	-0.3086523	-0.2702878	-0.001424977	0.001254406	-0.04274018	0.03762415	0	0
37.9749	-0.3086523	-0.2702878	0	0	0.0430059	-0.03785806	0	0
37.99157	-0.3086523	-0.2702878	0	0	0	0	0	0
38.00807	-0.3086523	-0.2702878	0	0	0	0	0	0
38.02459	-0.3086523	-0.2702878	0	0	0	0	0	0
38.04116	-0.3086523	-0.2702878	0	0	0	0	0	0
38.05773	-0.3086523	-0.2702878	0	0	0	0	0	0
38.0743	-0.3086762	-0.2702667	-0.001442695	0.001270004	-0.04354063	0.03832878	0	0
38.09086	-0.3086762	-0.2702667	0	0	0.04354063	-0.03832878	0	0
38.10764	-0.3086762	-0.2702667	0	0	0	0	0	0
38.12415	-0.3087478	-0.2702036	-0.004339476	0.003823215	-0.1303504	0.1148428	0	0
38.14056	-0.3086762	-0.2698039	0.004366717	0.02436025	0.2644891	0.6239032	0	0
38.15712	-0.307577	-0.2684582	0.06636307	0.08124316	1.880362	1.725271	0	0
38.17369	-0.3033164	-0.2646367	0.2571703	0.2306675	5.759236	4.510156	0	0
38.19026	-0.2927359	-0.2554708	0.638639	0.5532556	11.51275	9.735727	0	0
38.20683	-0.2852163	-0.2490304	0.4538805	0.388747	-5.576023	-4.96488	0	0
