Time	Pos X	Pos Y	Vel X	Vel Y	Acc X	Acc YForce X	Force Y
0.01656594	0.009999666	0.06330729	-0.0001658019	-0.001049682	2.749873E-06	1.740928E-05	0	0
0.04744694	0.009578655	0.06301128	-0.01363336	-0.009585318	0.0002234165	0.0001415997	0	0
0.06401525	0.008657678	0.0623637	-0.05558663	-0.03908536	-0.8841704	-0.6217172	0	0
0.08058395	0.006605167	0.06092015	-0.1238788	-0.08712532	-2.060902	-1.449737	0	0
0.0971503	0.006447279	0.06080909	-0.009530651	-0.006704079	3.450972	2.427075	0	0
0.1138157	0.006447279	0.06080909	0	0	0.2867934	0.2017371	0	0
0.1302838	0.006447279	0.06080909	0	0	0	0	0	0
0.1468497	0.006447279	0.06080909	0	0	0	0	0	0
0.1634168	0.006447279	0.06080909	0	0	0	0	0	0
0.1799824	0.006447279	0.06080909	0	0	0	0	0	0
0.1965491	0.006447279	0.06080909	0	0	0	0	0	0
0.213117	0.006447279	0.06080909	0	0	0	0	0	0
0.2298965	0.006447279	0.06080909	0	0	0	0	0	0
0.246406	0.00639465	0.06077207	-0.003187806	-0.002242464	-0.09576153	-0.06736352	0	0
0.2629215	0.00634202	0.06073504	-0.003186689	-0.002241659	3.381253E-05	2.438648E-05	0	0
0.2793832	0.006315705	0.06067951	-0.001598555	-0.003373681	0.04815861	-0.03432748	0	0
0.2959495	0.006263076	0.06064248	-0.003176895	-0.002234769	-0.04778783	0.03448316	0	0
0.3125174	0.006236761	0.06062397	-0.001588282	-0.001117278	0.04794474	0.03372616	0	0
0.3290834	0.006210446	0.06060546	-0.001588498	-0.001117411	-6.538595E-06	-4.001859E-06	0	0
0.3456497	0.006105187	0.06056844	-0.006353789	-0.002234994	-0.1438262	-0.03373095	0	0
0.3787832	0.005736779	0.06030926	-0.01111892	-0.007822176	-0.09587819	-0.1124186	0	0
0.3953503	0.001815788	0.05762393	-0.2366728	-0.1620875	-4.538251	-3.103893	0	0
0.4119179	-0.002552626	0.05454746	-0.2636732	-0.1856931	-0.8148694	-0.7124117	0	0
0.4284838	-0.01334131	0.04697568	-0.6512569	-0.4570689	-11.69765	-8.19038	0	0
0.4639677	-0.03359262	0.03264456	-0.5707188	-0.403877	1.547327	1.021942	0	0
0.4805751	-0.04533733	0.02429941	-0.7071971	-0.5024958	-2.619985	-1.893193	0	0
0.4971012	-0.04793693	0.02244853	-0.157303	-0.1119975	16.59633	11.78561	0	0
0.5136675	-0.06058366	0.01342328	-0.763398	-0.5447937	-18.31521	-13.0784	0	0
0.5302339	-0.0671358	0.008732885	-0.3955089	-0.2831281	11.1035	7.897501	0	0
0.5468006	-0.07436263	0.003547191	-0.436225	-0.3130181	-1.228866	-0.9021202	0	0
0.5633677	-0.07734539	0.001402946	-0.1800414	-0.1294278	7.731777	5.540868	0	0
0.5799341	-0.08134641	-0.001477018	-0.2415147	-0.1738444	-1.855326	-1.340536	0	0
0.5965012	-0.084352	-0.003643341	-0.1814193	-0.1307605	1.813738	1.300314	0	0
0.61318	-0.08571055	-0.004661062	-0.08145314	-0.06101855	3.006865	2.097756	0	0
0.6296809	-0.08573667	-0.004679912	-0.001583056	-0.001142365	2.407197	1.804603	0	0
0.6462007	-0.08571055	-0.004661062	0.001581239	0.001141054	0.09582786	0.06915131	0	0
0.6627678	-0.08568443	-0.004604514	0.001576722	0.003413271	-0.0001365167	0.06867423	0	0
0.6793341	-0.08563218	-0.004566815	0.003153592	0.002275611	0.04759148	-0.0343357	0	0
0.6959009	-0.08560605	-0.004547967	0.001577206	0.001137735	-0.0475774	-0.0343426	0	0
0.712468	-0.08555381	-0.004547967	0.003153445	0	0.04757184	-0.03433752	0	0
0.7290347	-0.08555381	-0.004547967	0	0	-0.09517287	0	0	0
0.7456015	-0.08555381	-0.004547967	0	0	0	0	0	0
0.7621682	-0.08544932	-0.004472571	0.006307476	0.004550995	0.1903655	0.1373533	0	0
0.7787338	-0.08531869	-0.00437833	0.007885249	0.005688971	0.04762039	0.03434639	0	0
0.7952997	-0.08510969	-0.00422755	0.01261649	0.009101831	0.1428019	0.1030096	0	0
0.811868	-0.0847178	-0.003944856	0.02365318	0.01706237	0.3330905	0.2402514	0	0
0.8450011	-0.08108498	-0.00132637	0.1096431	0.07902934	1.73013	1.246785	0	0
0.8615679	-0.0753047	0.002832595	0.3489084	0.2510428	4.814208	3.461047	0	0
0.8781334	-0.06807884	0.008019382	0.4361979	0.3131067	2.634573	1.873212	0	0
0.8947005	-0.06346728	0.01132277	0.2783563	0.1993946	-4.763927	-3.432021	0	0
0.9112673	-0.05859076	0.01481042	0.2943558	0.2105205	0.4828762	0.3357857	0	0
0.9278344	-0.05192696	0.01956747	0.4022304	0.2871383	3.255719	2.31237	0	0
0.9444011	-0.04659782	0.02336475	0.3216768	0.2292107	-2.431157	-1.748287	0	0
0.9609679	-0.04097705	0.02732606	0.3392803	0.2391121	0.5312923	0.2988331	0	0
0.9775347	-0.0354851	0.03122705	0.3315043	0.2354714	-0.2346885	-0.1098792	0	0
0.9941014	-0.02909705	0.03575742	0.3855946	0.2734615	1.632497	1.146574	0	0
1.010954	-0.0247055	0.03886767	0.260593	0.1845608	-3.740449	-2.660191	0	0
1.027234	-0.0242321	0.03916552	0.02907771	0.01829474	-6.987522	-5.018191	0	0
1.043801	-0.0242584	0.03918413	-0.001587438	0.001123653	-0.9335672	-0.5227553	0	0
1.060494	-0.0242321	0.03920275	0.001575421	0.001115147	0.09509535	-0.0002557332	0	0
1.076999	-0.02333787	0.03983559	0.05417904	0.03834256	1.584531	1.121367	0	0
1.093502	-0.01862942	0.0431284	0.2853046	0.1995251	7.002035	4.883087	0	0
1.116859	-0.01736668	0.04402087	0.05406399	0.03821075	-5.801353	-4.047048	0	0
1.133537	-0.01736668	0.04402087	0	0	-1.350418	-0.9544334	0	0
1.15005	-0.01734037	0.04400228	0.001593239	-0.001126006	0.04800253	-0.03392532	0	0
1.166563	-0.01734037	0.04392792	0	-0.004503379	-0.04824303	-0.1022663	0	0
1.183133	-0.01734037	0.04392792	0	0	0	0.1361223	0	0
1.216263	-0.01718252	0.04307261	0.004764514	-0.02581655	0.09586496	-0.519445	0	0
1.233113	-0.01728775	0.04296104	-0.00624518	-0.006621465	-0.2202818	0.384055	0	0
1.249396	-0.01720883	0.04231012	0.004847043	-0.03997587	0.3347784	-1.006681	0	0
1.265961	-0.01476209	0.04046834	0.1477005	-0.1111815	4.348861	-2.167699	0	0
1.282529	-0.008315598	0.03590648	0.3891136	-0.2753564	7.286255	-4.955077	0	0
1.299096	-0.003289462	0.03234619	0.3033803	-0.2149011	-2.587454	1.824559	0	0
1.31566	-0.001157894	0.03083528	0.1286811	-0.09121242	-5.27285	3.733226	0	0
1.332227	0.003052622	0.02784892	0.2541601	-0.1802658	3.787344	-2.687907	0	0
1.348794	0.003947348	0.027214	0.05400614	-0.038324	-6.040832	4.283936	0	0
1.365704	0.003921032	0.02723268	-0.001556232	0.001104498	-1.659726	1.177785	0	0
1.381929	0.003947348	0.027214	0.001621886	-0.001151093	0.09591441	-0.06807289	0	0
1.398721	0.003947348	0.027214	0	0	-0.04912162	0.03486286	0	0
1.41506	0.003947348	0.027214	0	0	0	0	0	0
1.431744	0.003921032	0.02723268	-0.001577327	0.001119469	-0.04776517	0.03390015	0	0
1.448193	0.003921032	0.02723268	0	0	0.04760586	-0.03378709	0	0
1.464766	0.003921032	0.02723268	0	0	0	0	0	0
1.481328	0.003921032	0.02723268	0	0	0	0	0	0
1.547594	0.003868402	0.02727003	-0.0007942412	0.0005636394	-0.009589023	0.006804925	0	0
1.56416	0.003868402	0.02727003	0	0	0.009588609	-0.006804631	0	0
1.580728	0.003868402	0.02727003	0	0	0	0	0	0
1.597362	0.003868402	0.02727003	0	0	0	0	0	0
1.61387	0.003842086	0.02725136	-0.00159407	-0.001131239	-0.04809788	-0.03413288	0	0
1.630887	0.003815771	0.02723268	-0.001546475	-0.001097463	0.001419705	0.001007499	0	0
1.646994	0.003789456	0.027214	-0.001633791	-0.001159553	-0.002636102	-0.001874521	0	0
1.66356	0.003789456	0.027214	0	0	0.0500034	0.035489	0	0
1.680127	0.003736825	0.02717665	-0.00317683	-0.002254565	-0.09587866	-0.06804413	0	0
1.696933	0.003710509	0.02715798	-0.001565836	-0.001111203	0.04827222	0.03425997	0	0
1.71326	0.003657878	0.02715798	-0.003223616	0	-0.0500346	0.03353798	0	0
1.729963	0.003631563	0.0271393	-0.001575503	-0.001118174	0.04989813	-0.03385375	0	0
1.74647	0.003605247	0.02712062	-0.001594185	-0.001131434	-0.0005625507	-0.0003992575	0	0
1.762977	0.003578932	0.0271393	-0.001594185	0.001131434	0	0.06854204	0	0
1.779527	0.003526301	0.0271393	-0.00318008	0	-0.04797406	-0.03422641	0	0
1.796094	0.003526301	0.0271393	0	0	0.09602682	0	0	0
1.81266	0.003526301	0.0271393	0	0	0	0	0	0
1.829227	0.003526301	0.0271393	0	0	0	0	0	0
1.845794	0.003499986	0.02715798	-0.001588484	0.001127387	-0.04794192	0.03402559	0	0
1.862549	0.003499986	0.02715798	0	0	0.04767161	-0.03383375	0	0
1.879059	0.003499986	0.02715798	0	0	0	0	0	0
1.895574	0.003447355	0.02712062	-0.00318692	-0.002261838	-0.0965005	-0.06848886	0	0
1.912061	0.003447355	0.02712062	0	0	0.09656848	0.0685371	0	0
1.928627	0.003447355	0.02712062	0	0	0	0	0	0
1.945194	0.003421039	0.0271393	-0.001588415	0.001127339	-0.04793985	0.03402412	0	0
1.98013	0.003342093	0.02719533	-0.002259729	0.001603729	-0.01303435	0.009249684	0	0
1.996547	0.003342093	0.02719533	0	0	0.04400416	-0.03122974	0	0
2.013112	0.003342093	0.02719533	0	0	0	0	0	0
2.029678	0.003342093	0.02719533	0	0	0	0	0	0
2.046245	0.003342093	0.02719533	0	0	0	0	0	0
2.062811	0.003315777	0.027214	-0.001588495	0.001127283	-0.04794295	0.03402293	0	0
2.079379	0.003289462	0.02723268	-0.001588404	0.00112733	2.761629E-06	1.437031E-06	0	0
2.096216	0.003289462	0.02723268	0	0	0.04754978	-0.03374729	0	0
2.112727	0.003289462	0.02723268	0	0	0	0	0	0
2.129079	0.003289462	0.02723268	0	0	0	0	0	0
2.145645	0.003289462	0.02723268	0	0	0	0	0	0
2.162259	0.003289462	0.02723268	0	0	0	0	0	0
2.178778	0.003263146	0.02725136	-0.001593035	0.001130504	-0.04807961	0.03411992	0	0
2.195345	0.003263146	0.02725136	0	0	0.04814856	-0.03416884	0	0
2.212311	0.003236831	0.02727003	-0.001551096	0.001100732	-0.04625633	0.03282572	0	0
2.228479	0.003236831	0.02727003	0	0	0.04681351	-0.03322113	0	0
2.245045	0.003236831	0.02727003	0	0	0	0	0	0
2.261829	0.003236831	0.02727003	0	0	0	0	0	0
2.278179	0.003236831	0.02727003	0	0	0	0	0	0
2.294853	0.003236831	0.02727003	0	0	0	0	0	0
2.311312	0.003210515	0.02725136	-0.00159878	-0.001134582	-0.04825233	-0.03424249	0	0
2.327879	0.003210515	0.02725136	0	0	0.04840978	0.03435422	0	0
2.377579	0.002657888	0.02685915	-0.01111925	-0.007891466	-0.1677964	-0.1190872	0	0
2.39443	0.002315785	0.02661633	-0.02030114	-0.01440924	-0.1379669	-0.09793592	0	0
2.410714	-0.0004736842	0.02463583	-0.1713039	-0.1216243	-4.557173	-3.235688	0	0
2.427279	-0.0005	0.02465452	-0.001588631	0.001128151	5.166553	3.73689	0	0
2.443958	-0.0005	0.02465452	0	0	0.04778645	-0.0339351	0	0
2.460471	-0.0005263158	0.02467321	-0.001593631	0.001131815	-0.04801193	0.03409862	0	0
2.476983	-0.0005263158	0.02467321	0	0	0.04825595	-0.03427192	0	0
2.493545	-0.0005263158	0.02467321	0	0	0	0	0	0
2.510114	-0.0005	0.02465452	0.001588311	-0.001128036	0.04794048	-0.03404788	0	0
2.526681	-0.0005	0.02465452	0	0	-0.04793324	0.03404273	0	0
2.543529	-0.0005263158	0.02467321	-0.001561946	0.001109312	-0.04674308	0.03319746	0	0
2.559813	-0.0005	0.02465452	0.001616125	-0.00114779	0.09592333	-0.06812584	0	0
2.576552	-0.0005	0.02465452	0	0	-0.04894025	0.03475792	0	0
2.592946	-0.0005	0.02465452	0	0	0	0	0	0
2.609514	-0.0005	0.02465452	0	0	0	0	0	0
2.626089	-0.0004473684	0.02461714	0.003175294	-0.002255019	0.09580369	-0.06803752	0	0
2.643101	-0.0004210526	0.02459845	0.001546972	-0.001098677	-0.04848144	0.03442876	0	0
2.659212	-0.0003947368	0.02454239	0.001633342	-0.003479942	0.002607562	-0.07189207	0	0
2.675779	-0.000368421	0.02441156	0.001588425	-0.007896935	-0.001374501	-0.1351637	0	0
2.692346	-0.0004473684	0.02416857	-0.00476541	-0.01466685	-0.1917619	-0.2043194	0	0
2.708914	-0.001868419	0.02271033	-0.08577108	-0.08801578	-2.444738	-2.213659	0	0
2.725485	-0.008762933	0.01672151	-0.4160579	-0.3614031	-9.966714	-8.249718	0	0
2.742047	-0.01520935	0.0007443504	-0.3892411	-0.9647162	0.8093788	-18.20907	0	0
2.758615	-0.01689313	-0.01555546	-0.1016285	-0.9838161	8.681477	-0.5765248	0	0
2.793348	-0.0177876	-0.03959132	-0.02575265	-0.6920168	1.479033	5.687984	0	0
2.810218	-0.01889249	-0.0759935	-0.06549436	-2.157803	-0.7701422	-28.40501	0	0
2.826482	-0.01907663	-0.09313018	-0.01132181	-1.053629	1.634931	33.32404	0	0
2.843248	-0.01973428	-0.1159767	-0.03922604	-1.362704	-0.8448136	-9.357414	0	0
2.859755	-0.02020778	-0.1337952	-0.02868427	-1.079437	0.3168288	8.513493	0	0
2.876181	-0.02049713	-0.1529581	-0.01761569	-1.166633	0.3360941	-2.647679	0	0
2.892776	-0.0208917	-0.1735632	-0.02377545	-1.2416	-0.1865381	-2.270252	0	0
2.909315	-0.02173342	-0.2018084	-0.05089517	-1.707857	-0.8184866	-14.07187	0	0
2.926301	-0.02273292	-0.2224066	-0.05884157	-1.21263	-0.2370309	14.77198	0	0
2.942466	-0.0245477	-0.2478862	-0.1122672	-1.576243	-1.611578	-10.96831	0	0
2.959331	-0.02594155	-0.264364	-0.08264842	-0.9770564	0.8967369	18.14091	0	0
3.074982	-0.05714823	-0.3252528	-0.269833	-0.5264836	-1.412536	3.400123	0	0
3.091548	-0.06139642	-0.3289868	-0.2564473	-0.2254034	0.1012395	2.27716	0	0
3.108114	-0.06690001	-0.33469	-0.3322165	-0.3442699	-2.2869	-3.587683	0	0
3.124681	-0.0712738	-0.3396031	-0.2640024	-0.2965548	2.058765	1.440086	0	0
3.141454	-0.0755402	-0.3431713	-0.2543648	-0.2127345	0.2890711	2.514107	0	0
3.157965	-0.07915009	-0.3461542	-0.2186358	-0.1806608	1.073467	0.9636453	0	0
3.174475	-0.08171239	-0.3483508	-0.1551945	-0.1330488	1.92123	1.441861	0	0
3.190947	-0.08419522	-0.3503963	-0.1507339	-0.124184	0.1352445	0.2687795	0	0
3.224083	-0.08513582	-0.3512329	-0.0283863	-0.02524536	2.466323	1.994438	0	0
3.241024	-0.08500519	-0.3513429	0.007710582	-0.006498121	0.7208213	0.3743649	0	0
3.257214	-0.08490068	-0.3514751	0.00645479	-0.008160298	-0.03790315	-0.05016892	0	0
3.273782	-0.0848223	-0.3515411	0.004730965	-0.003988041	-0.05262419	0.1273688	0	0
3.290347	-0.0848223	-0.3515411	0	0	-0.142787	0.1203645	0	0
3.306914	-0.0848223	-0.3515411	0	0	0	0	0	0
3.323481	-0.0848223	-0.3515411	0	0	0	0	0	0
3.340049	-0.0848223	-0.3515411	0	0	0	0	0	0
3.356615	-0.08479618	-0.3515632	0.001577274	-0.001329462	0.04760292	-0.04012382	0	0
3.373181	-0.08479618	-0.3515632	0	0	-0.04760566	0.04012613	0	0
3.389748	-0.08479618	-0.3515632	0	0	0	0	0	0
3.406314	-0.08479618	-0.3515632	0	0	0	0	0	0
3.439665	-0.0848223	-0.3515411	-0.0007834673	0.0006603733	-0.0156954	0.01322943	0	0
3.456175	-0.0848223	-0.3515411	0	0	0.01571319	-0.01324442	0	0
3.472697	-0.0848223	-0.3515411	0	0	0	0	0	0
3.489148	-0.0848223	-0.3515411	0	0	0	0	0	0
3.505714	-0.0848223	-0.3515411	0	0	0	0	0	0
3.522281	-0.0848223	-0.3515411	0	0	0	0	0	0
3.539238	-0.0848223	-0.3515411	0	0	0	0	0	0
3.555415	-0.0848223	-0.3515411	0	0	0	0	0	0
3.571981	-0.0848223	-0.3515411	0	0	0	0	0	0
3.588548	-0.08479618	-0.3515191	0.001577252	0.001329443	0.04760429	0.04012497	0	0
3.605114	-0.08479618	-0.3515191	0	0	-0.0476036	-0.04012439	0	0
3.621792	-0.08479618	-0.3515191	0	0	0	0	0	0
3.63831	-0.08479618	-0.3515191	0	0	0	0	0	0
3.673079	-0.08479618	-0.3515191	0	0	0	0	0	0
3.689645	-0.08479618	-0.3515191	0	0	0	0	0	0
3.706234	-0.08479618	-0.3515191	0	0	0	0	0	0
3.722864	-0.08479618	-0.3515191	0	0	0	0	0	0
3.739347	-0.0848223	-0.3514971	-0.001585168	0.001336115	-0.04787181	0.04035046	0	0
3.755912	-0.0848223	-0.3514971	0	0	0.04796471	-0.04042877	0	0
3.772479	-0.0848223	-0.3514971	0	0	0	0	0	0
3.789411	-0.0848223	-0.3514971	0	0	0	0	0	0
3.805612	-0.0848223	-0.3514971	0	0	0	0	0	0
3.822179	-0.0848223	-0.3514971	0	0	0	0	0	0
3.838945	-0.0848223	-0.3514971	0	0	0	0	0	0
3.855314	-0.08484843	-0.3514751	-0.001595772	0.001345437	-0.0481591	0.04060419	0	0
3.871879	-0.08484843	-0.3514751	0	0	0.04845405	-0.04085287	0	0
3.888479	-0.0848223	-0.3514531	0.001573541	0.001324898	0.04744586	0.03994871	0	0
3.905012	-0.0848223	-0.3514531	0	0	-0.04749092	-0.03998665	0	0
3.921579	-0.08479618	-0.351431	0.001577206	0.001329405	0.04765024	0.0401637	0	0
3.938146	-0.08479618	-0.3513429	0	0.005317618	-0.04760155	0.120368	0	0
3.954714	-0.08463941	-0.3510787	0.009461834	0.01594765	0.2855526	0.3208081	0	0
3.971279	-0.08448264	-0.3506384	0.009463877	0.02657856	6.166979E-05	0.320853	0	0
3.987846	-0.08427361	-0.3498462	0.01261684	0.04781941	0.09516334	0.6410964	0	0
4.004562	-0.08320221	-0.3486366	0.06409524	0.07236382	1.546688	0.7374461	0	0
4.103812	-0.06160615	-0.3100095	0.2175918	0.3891889	1.323634	2.732049	0	0
4.12038	-0.05431494	-0.2757235	0.4400729	2.069386	1.920946	14.50715	0	0
4.136946	-0.052793	-0.2649933	0.09187514	0.6477494	-10.50893	-42.9063	0	0
4.153669	-0.05124457	-0.2540517	0.09259208	0.6542817	0.02153739	0.1962334	0	0
4.170079	-0.04751684	-0.2270323	0.2271641	1.646531	4.061566	29.94744	0	0
4.186646	-0.04510098	-0.2065518	0.1458217	1.236205	-2.466632	-12.44277	0	0
4.203215	-0.04320993	-0.1919277	0.114134	0.8826401	-0.9562974	-10.67014	0	0
4.21978	-0.04187025	-0.1778233	0.08087009	0.8514147	-1.003905	-0.9423822	0	0
4.236345	-0.04123976	-0.1685097	0.03806173	0.5622499	-1.292108	-8.728017	0	0
4.25324	-0.03971595	-0.1501543	0.09019446	1.086453	1.558077	15.66672	0	0
4.269479	-0.03890142	-0.1319602	0.0501582	1.120384	-1.208314	1.024062	0	0
4.286045	-0.03855982	-0.1228451	0.02062045	0.5502343	-0.9004048	-17.38	0	0
4.302612	-0.03756127	-0.1010871	0.06027451	1.313355	1.196831	23.03235	0	0
4.319179	-0.03711453	-0.08878247	0.02696631	0.7427297	-1.005272	-17.222	0	0
4.335745	-0.03679917	-0.08095878	0.01903608	0.4722661	-0.2393452	-8.162959	0	0
4.352312	-0.03553766	-0.06599338	0.07614686	0.9033393	1.723681	13.01038	0	0
4.36888	-0.03427605	-0.05566439	0.07614484	0.623405	-6.093503E-05	-8.448193	0	0
4.385446	-0.03204166	-0.04672835	0.1348832	0.5394425	1.772754	-2.534028	0	0
4.402344	-0.02849229	-0.03903862	0.2100451	0.455063	2.246086	-2.521541	0	0
4.41858	-0.02357458	-0.02711347	0.3028923	0.7344964	2.802174	8.433436	0	0
4.435145	-0.01955014	-0.02163234	0.2429366	0.3308703	-1.827828	-12.30506	0	0
4.451712	-0.01599864	-0.01419401	0.2143816	0.4490038	-0.8618516	3.565533	0	0
4.468279	-0.013315	-0.01052854	0.1619797	0.2212422	-1.581515	-6.873958	0	0
4.484846	-0.01305189	-0.01037747	0.01588237	0.00911878	-4.409291	-6.40199	0	0
4.501412	-0.01320976	-0.01060407	-0.009529454	-0.01367834	-0.7669743	-0.6880581	0	0
4.536228	-0.01323607	-0.01062296	-0.0007557144	-0.0005423831	0.1707549	0.2556526	0	0
4.552949	-0.01323607	-0.01062296	0	0	0.01466352	0.01052414	0	0
4.569364	-0.01323607	-0.01062296	0	0	0	0	0	0
4.585928	-0.01320976	-0.01064184	0.001588351	-0.00114003	0.04816179	-0.03456786	0	0
4.602495	-0.01320976	-0.01064184	0	0	-0.04794136	0.03440965	0	0
4.619499	-0.01320976	-0.01064184	0	0	0	0	0	0
4.635628	-0.01320976	-0.01064184	0	0	0	0	0	0
4.652195	-0.01320976	-0.01064184	0	0	0	0	0	0
4.668761	-0.01323607	-0.01062296	-0.001588214	0.001139932	-0.04793447	0.0344047	0	0
4.685328	-0.01323607	-0.01062296	0	0	0.04793447	-0.0344047	0	0
4.702055	-0.01323607	-0.01062296	0	0	0	0	0	0
4.718462	-0.01323607	-0.01062296	0	0	0	0	0	0
4.735028	-0.01323607	-0.01062296	0	0	0	0	0	0
4.751597	-0.01323607	-0.01062296	0	0	0	0	0	0
4.768162	-0.01323607	-0.01062296	0	0	0	0	0	0
4.784728	-0.01320976	-0.01064184	0.001588306	-0.001139998	0.04794068	-0.03440916	0	0
4.801295	-0.01320976	-0.01064184	0	0	-0.04793792	0.03440718	0	0
4.817861	-0.01320976	-0.01064184	0	0	0	0	0	0
4.83465	-0.01320976	-0.01064184	0	0	0	0	0	0
4.851159	-0.01323607	-0.01066073	-0.001593719	-0.001143883	-0.04786159	-0.0343524	0	0
4.950395	-0.01323607	-0.01062296	0	0.0003805963	0.01376922	0.01317101	0	0
4.966962	-0.01326238	-0.01060407	-0.001588123	0.00113981	-0.01371397	0.006556067	0	0
4.983529	-0.01326238	-0.01060407	0	0	0.04793033	-0.03440003	0	0
5.000094	-0.01326238	-0.01060407	0	0	0	0	0	0
5.016661	-0.01328869	-0.01058519	-0.001588225	0.001139899	-0.04793616	0.0344047	0	0
5.033288	-0.01326238	-0.01056631	0.00158244	0.001135692	0.09551902	-0.0001267576	0	0
5.0498	-0.01326238	-0.01056631	0	0	-0.04775195	-0.0342708	0	0
5.066362	-0.01326238	-0.01056631	0	0	0	0	0	0
5.083326	-0.01326238	-0.01056631	0	0	0	0	0	0
5.099495	-0.01326238	-0.01056631	0	0	0	0	0	0
5.116061	-0.01326238	-0.01056631	0	0	0	0	0	0
5.132627	-0.01326238	-0.01056631	0	0	0	0	0	0
5.149195	-0.01326238	-0.01056631	0	0	0	0	0	0
5.165884	-0.01326238	-0.01056631	0	0	0	0	0	0
5.182328	-0.01326238	-0.01056631	0	0	0	0	0	0
5.198895	-0.01326238	-0.01056631	0	0	0	0	0	0
5.215465	-0.01326238	-0.01056631	0	0	0	0	0	0
5.232037	-0.01326238	-0.01056631	0	0	0	0	0	0
5.248595	-0.01326238	-0.01056631	0	0	0	0	0	0
5.265162	-0.01326238	-0.01056631	0	0	0	0	0	0
5.281729	-0.01326238	-0.01056631	0	0	0	0	0	0
5.29848	-0.01326238	-0.01056631	0	0	0	0	0	0
5.314862	-0.01326238	-0.01056631	0	0	0	0	0	0
5.3315	-0.01326238	-0.01056631	0	0	0	0	0	0
5.348012	-0.01326238	-0.01056631	0	0	0	0	0	0
5.364563	-0.01326238	-0.01056631	0	0	0	0	0	0
5.381538	-0.01326238	-0.01056631	0	0	0	0	0	0
5.416036	-0.01326238	-0.01056631	0	0	0	0	0	0
5.432603	-0.01326238	-0.01056631	0	0	0	0	0	0
5.449584	-0.01326238	-0.01056631	0	0	0	0	0	0
5.465736	-0.01326238	-0.01056631	0	0	0	0	0	0
5.482304	-0.01326238	-0.01056631	0	0	0	0	0	0
5.498871	-0.01326238	-0.01056631	0	0	0	0	0	0
5.515436	-0.01326238	-0.01056631	0	0	0	0	0	0
5.532141	-0.01326238	-0.01056631	0	0	0	0	0	0
5.548652	-0.01323607	-0.01058519	0.001593535	-0.001143694	0.04797491	-0.03443203	0	0
5.565165	-0.01326238	-0.01056631	-0.001593351	0.001143562	-0.09650258	0.06926078	0	0
5.681104	-0.01326238	-0.01056631	0	0	0.01202965	-0.008633786	0	0
5.69767	-0.01326238	-0.01056631	0	0	0	0	0	0
5.714236	-0.01326238	-0.01056631	0	0	0	0	0	0
5.730804	-0.01326238	-0.01056631	0	0	0	0	0	0
5.74737	-0.01326238	-0.01056631	0	0	0	0	0	0
5.763937	-0.01326238	-0.01056631	0	0	0	0	0	0
5.780504	-0.01326238	-0.01056631	0	0	0	0	0	0
5.797329	-0.01326238	-0.01056631	0	0	0	0	0	0
5.813843	-0.01326238	-0.01056631	0	0	0	0	0	0
5.830352	-0.01326238	-0.01056631	0	0	0	0	0	0
5.846769	-0.01326238	-0.01056631	0	0	0	0	0	0
5.868347	-0.01326238	-0.01056631	0	0	0	0	0	0
5.884915	-0.01326238	-0.01056631	0	0	0	0	0	0
5.918049	-0.01328869	-0.01058519	-0.0007941009	-0.0005699132	-0.01597703	-0.01146646	0	0
5.934614	-0.01326238	-0.01060407	0.001588407	-0.00114003	0.04793892	-0.01147144	0	0
5.951181	-0.01326238	-0.01060407	0	0	-0.04794237	0.03440915	0	0
5.967747	-0.01326238	-0.01060407	0	0	0	0	0	0
5.984315	-0.01326238	-0.01060407	0	0	0	0	0	0
6.000971	-0.01326238	-0.01060407	0	0	0	0	0	0
6.017449	-0.01326238	-0.01060407	0	0	0	0	0	0
6.034495	-0.01326238	-0.01060407	0	0	0	0	0	0
6.050581	-0.01326238	-0.01060407	0	0	0	0	0	0
6.067147	-0.01326238	-0.01060407	0	0	0	0	0	0
6.083714	-0.01326238	-0.01060407	0	0	0	0	0	0
6.100281	-0.01326238	-0.01060407	0	0	0	0	0	0
6.117057	-0.01326238	-0.01060407	0	0	0	0	0	0
6.133414	-0.01326238	-0.01060407	0	0	0	0	0	0
6.150076	-0.01326238	-0.01060407	0	0	0	0	0	0
6.166548	-0.01326238	-0.01060407	0	0	0	0	0	0
6.201621	-0.01326238	-0.01060407	0	0	0	0	0	0
6.217922	-0.01328869	-0.01058519	-0.001614102	0.001158472	-0.03141839	0.02254958	0	0
6.234488	-0.01328869	-0.01058519	0	0	0.04911089	-0.03524782	0	0
6.251053	-0.01328869	-0.01058519	0	0	0	0	0	0
6.26762	-0.01328869	-0.01058519	0	0	0	0	0	0
6.284186	-0.01328869	-0.01058519	0	0	0	0	0	0
6.300753	-0.01328869	-0.01058519	0	0	0	0	0	0
6.317319	-0.01328869	-0.01058519	0	0	0	0	0	0
6.333886	-0.01326238	-0.01060407	0.001588225	-0.001139899	0.04793409	-0.03440322	0	0
6.350452	-0.01326238	-0.01060407	0	0	-0.04793478	0.03440371	0	0
6.36723	-0.01326238	-0.01060407	0	0	0	0	0	0
6.383586	-0.01326238	-0.01060407	0	0	0	0	0	0
6.400154	-0.01326238	-0.01060407	0	0	0	0	0	0
6.416719	-0.01326238	-0.01060407	0	0	0	0	0	0
6.433781	-0.01326238	-0.01060407	0	0	0	0	0	0
6.449852	-0.01326238	-0.01060407	0	0	0	0	0	0
6.466801	-0.01326238	-0.01060407	0	0	0	0	0	0
6.482985	-0.01326238	-0.01060407	0	0	0	0	0	0
6.499826	-0.01326238	-0.01060407	0	0	0	0	0	0
6.516119	-0.01326238	-0.01060407	0	0	0	0	0	0
6.532687	-0.01326238	-0.01060407	0	0	0	0	0	0
6.549252	-0.01326238	-0.01060407	0	0	0	0	0	0
6.56587	-0.01326238	-0.01060407	0	0	0	0	0	0
6.582385	-0.01326238	-0.01060407	0	0	0	0	0	0
6.598954	-0.01326238	-0.01060407	0	0	0	0	0	0
6.615519	-0.01326238	-0.01060407	0	0	0	0	0	0
6.632086	-0.01326238	-0.01060407	0	0	0	0	0	0
6.648652	-0.01326238	-0.01060407	0	0	0	0	0	0
6.665219	-0.01326238	-0.01060407	0	0	0	0	0	0
6.681952	-0.01326238	-0.01060407	0	0	0	0	0	0
6.714919	-0.01326238	-0.01060407	0	0	0	0	0	0
6.731489	-0.01326238	-0.01060407	0	0	0	0	0	0
6.748053	-0.01326238	-0.01060407	0	0	0	0	0	0
6.765011	-0.01326238	-0.01060407	0	0	0	0	0	0
6.781185	-0.01326238	-0.01060407	0	0	0	0	0	0
6.798035	-0.01326238	-0.01060407	0	0	0	0	0	0
6.814319	-0.01326238	-0.01060407	0	0	0	0	0	0
6.830885	-0.01326238	-0.01060407	0	0	0	0	0	0
6.847572	-0.01326238	-0.01060407	0	0	0	0	0	0
6.864018	-0.01326238	-0.01060407	0	0	0	0	0	0
6.88235	-0.01326238	-0.01060407	0	0	0	0	0	0
6.899118	-0.01326238	-0.01060407	0	0	0	0	0	0
6.915617	-0.01326238	-0.01060407	0	0	0	0	0	0
6.932128	-0.01326238	-0.01060407	0	0	0	0	0	0
6.948642	-0.01326238	-0.01060407	0	0	0	0	0	0
6.965184	-0.01326238	-0.01060407	0	0	0	0	0	0
6.982163	-0.01326238	-0.01060407	0	0	0	0	0	0
6.998676	-0.01326238	-0.01060407	0	0	0	0	0	0
7.014884	-0.01326238	-0.01060407	0	0	0	0	0	0
7.03145	-0.01326238	-0.01060407	0	0	0	0	0	0
7.048213	-0.01326238	-0.01060407	0	0	0	0	0	0
7.064584	-0.01326238	-0.01060407	0	0	0	0	0	0
7.081151	-0.01326238	-0.01060407	0	0	0	0	0	0
7.114285	-0.01328869	-0.01062296	-0.0007941009	-0.0005699132	-0.0159778	-0.01146701	0	0
7.13085	-0.01328869	-0.01062296	0	0	0.01597811	0.01146723	0	0
7.147418	-0.01328869	-0.01062296	0	0	0	0	0	0
7.163983	-0.01328869	-0.01062296	0	0	0	0	0	0
7.180803	-0.01328869	-0.01062296	0	0	0	0	0	0
7.197116	-0.01328869	-0.01062296	0	0	0	0	0	0
7.213832	-0.01328869	-0.01062296	0	0	0	0	0	0
7.23025	-0.01328869	-0.01062296	0	0	0	0	0	0
7.246853	-0.01328869	-0.01062296	0	0	0	0	0	0
7.263384	-0.01328869	-0.01062296	0	0	0	0	0	0
7.27995	-0.01328869	-0.01062296	0	0	0	0	0	0
7.296516	-0.01328869	-0.01062296	0	0	0	0	0	0
7.313085	-0.01326238	-0.01060407	0.001588042	0.001139712	0.0479272	0.03439657	0	0
7.329908	-0.01326238	-0.01060407	0	0	-0.04755694	-0.03413084	0	0
7.346216	-0.01326238	-0.01060407	0	0	0	0	0	0
7.362935	-0.01326238	-0.01060407	0	0	0	0	0	0
7.379444	-0.01326238	-0.01060407	0	0	0	0	0	0
7.395957	-0.01326238	-0.01060407	0	0	0	0	0	0
7.412483	-0.01326238	-0.01060407	0	0	0	0	0	0
7.42905	-0.01326238	-0.01060407	0	0	0	0	0	0
7.445992	-0.01326238	-0.01060407	0	0	0	0	0	0
7.462185	-0.01328869	-0.01062296	-0.001624891	-0.001166158	-0.04903862	-0.03519421	0	0
7.52845	-0.01328869	-0.01062296	0	0	0.01970568	0.01414245	0	0
7.57815	-0.01328869	-0.01062296	0	0	0	0	0	0
7.594717	-0.01328869	-0.01062296	0	0	0	0	0	0
7.611283	-0.01328869	-0.01062296	0	0	0	0	0	0
7.627851	-0.01328869	-0.01062296	0	0	0	0	0	0
7.644418	-0.01328869	-0.01062296	0	0	0	0	0	0
7.661143	-0.01328869	-0.01062296	0	0	0	0	0	0
7.697176	-0.01328869	-0.01062296	0	0	0	0	0	0
7.71418	-0.01328869	-0.01062296	0	0	0	0	0	0
7.730311	-0.01328869	-0.01062296	0	0	0	0	0	0
7.746877	-0.01328869	-0.01062296	0	0	0	0	0	0
7.763716	-0.01328869	-0.01062296	0	0	0	0	0	0
7.780009	-0.01328869	-0.01062296	0	0	0	0	0	0
7.79674	-0.01328869	-0.01062296	0	0	0	0	0	0
7.813143	-0.01328869	-0.01062296	0	0	0	0	0	0
7.829762	-0.01328869	-0.01062296	0	0	0	0	0	0
7.846278	-0.01328869	-0.01062296	0	0	0	0	0	0
7.862843	-0.01328869	-0.01062296	0	0	0	0	0	0
7.87941	-0.01328869	-0.01062296	0	0	0	0	0	0
7.895976	-0.01328869	-0.01062296	0	0	0	0	0	0
7.91282	-0.01328869	-0.01062296	0	0	0	0	0	0
7.92911	-0.01328869	-0.01062296	0	0	0	0	0	0
7.945675	-0.01328869	-0.01062296	0	0	0	0	0	0
7.962354	-0.01328869	-0.01062296	0	0	0	0	0	0
7.978876	-0.01326238	-0.01060407	0.001592487	0.001142902	0.04796473	0.0344235	0	0
7.995375	-0.01326238	-0.01060407	0	0	-0.04822585	-0.0346109	0	0
8.011942	-0.01326238	-0.01060407	0	0	0	0	0	0
8.02851	-0.01326238	-0.01060407	0	0	0	0	0	0
8.045075	-0.01326238	-0.01060407	0	0	0	0	0	0
8.061927	-0.01326238	-0.01060407	0	0	0	0	0	0
8.078209	-0.01328869	-0.01062296	-0.001615993	-0.001159772	-0.04877216	-0.03500299	0	0
8.094775	-0.01328869	-0.01062296	0	0	0.04919554	0.03530684	0	0
8.111461	-0.01328869	-0.01062296	0	0	0	0	0	0
8.127975	-0.01328869	-0.01062296	0	0	0	0	0	0
8.144477	-0.01328869	-0.01062296	0	0	0	0	0	0
8.161042	-0.01328869	-0.01062296	0	0	0	0	0	0
8.178008	-0.01328869	-0.01062296	0	0	0	0	0	0
8.194176	-0.01328869	-0.01062296	0	0	0	0	0	0
8.210745	-0.01326238	-0.01060407	0.001587996	0.001139679	0.04850801	0.03481341	0	0
8.227309	-0.01323607	-0.01062296	0.001588397	-0.001140007	1.210057E-05	-0.06880303	0	0
8.244055	-0.01323607	-0.01062296	0	0	-0.04768538	0.03422423	0	0
8.260443	-0.01323607	-0.01062296	0	0	0	0	0	0
8.277079	-0.01320976	-0.01060407	0.001581568	0.001135105	0.0478917	0.03437231	0	0
8.293593	-0.0130782	-0.01047189	0.007966002	0.008004068	0.1925884	0.2072043	0	0
8.310143	-0.01299927	-0.01041524	0.004769697	0.003423062	-0.09667058	-0.1385501	0	0
8.40967	0.02023408	0.01312329	0.3339117	0.2365031	2.835562	2.007987	0	0
8.426182	0.02183863	0.01404194	0.09717547	0.05563558	-2.040139	-1.558675	0	0
8.442704	0.02210166	0.013742	0.01591958	-0.01815358	-2.459741	-2.233712	0	0
8.459241	0.02212797	0.01361076	0.001590659	-0.007935781	-0.4334331	0.3090765	0	0
8.477007	0.02223318	0.01293578	0.005922071	-0.0379932	0.1262702	-0.8762404	0	0
8.493576	0.0224962	0.01259823	0.01587445	-0.02037179	0.28986	0.5132182	0	0
8.510141	0.02341677	0.01190429	0.05557186	-0.04189121	1.19807	-0.6494575	0	0
8.526753	0.02402169	0.01147285	0.03641475	-0.02597149	-0.5774148	0.4798366	0	0
8.543276	0.02399539	0.01145409	-0.001591811	-0.001135349	-1.14704	0.7495564	0	0
8.559842	0.02399539	0.01145409	0	0	0.04810741	0.0343123	0	0
8.576789	0.02386389	0.0113603	-0.007759852	-0.005534917	-0.2315471	-0.165157	0	0
8.592975	0.02357458	0.01115393	-0.01787434	-0.01274992	-0.3052734	-0.2177617	0	0
8.609811	0.02181233	0.009821627	-0.1046705	-0.07913326	-2.628441	-2.010281	0	0
8.626108	0.02168081	0.009540089	-0.008069769	-0.01727508	2.915501	1.866937	0	0
8.642677	0.02175972	0.009483779	0.004762414	-0.003398521	0.3904338	0.4222102	0	0
8.659243	0.02191754	0.009258528	0.009527135	-0.01359772	0.1437995	-0.3078124	0	0
8.675808	0.02191754	0.009070807	0	-0.01133217	-0.2875626	0.0683822	0	0
8.692375	0.02189124	0.008563911	-0.001587617	-0.03059633	-0.04791713	-0.581427	0	0
8.708942	0.02152299	0.007662575	-0.02222753	-0.05440474	-0.622914	-0.7185391	0	0
8.72551	0.01978689	0.004994723	-0.1047912	-0.1610319	-2.491778	-3.218013	0	0
8.742408	0.01689313	-0.01128397	-0.1712471	-0.9633411	-1.98581	-23.9743	0	0
8.758641	0.01636696	-0.01937818	-0.03241279	-0.4986135	4.190391	14.02672	0	0
8.775208	0.01599864	-0.03566747	-0.02223331	-0.98328	0.3103525	-14.77654	0	0
8.791945	0.01555138	-0.04720604	-0.02672118	-0.6893662	-0.1347537	8.825123	0	0
8.808456	0.01541983	-0.0577157	-0.007967279	-0.6365265	0.5640456	1.589216	0	0
8.894586	0.01628803	-0.1036798	0.01008023	-0.533664	0.1758329	1.002166	0	0
8.911526	0.01860312	-0.1053576	0.1366628	-0.09904498	1.22813	4.216765	0	0
8.927718	0.02031299	-0.1066264	0.1055974	-0.07836104	-0.9376104	0.6242784	0	0
8.944551	0.02175972	-0.1077006	0.08594923	-0.06381374	-0.5949509	0.4404965	0	0
8.960851	0.02175972	-0.1077006	0	0	-2.594102	1.926013	0	0
8.977417	0.02175972	-0.1077006	0	0	0	0	0	0
8.994081	0.02175972	-0.1077006	0	0	0	0	0	0
9.010603	0.02175972	-0.1077006	0	0	0	0	0	0
9.027117	0.02175972	-0.1077006	0	0	0	0	0	0
9.043683	0.02173342	-0.107681	-0.001587708	0.001179228	-0.04799587	0.03564766	0	0
9.060627	0.02173342	-0.107681	0	0	0.04737984	-0.03519012	0	0
9.076816	0.02170712	-0.1076615	-0.001624862	0.001206278	-0.04904125	0.03640763	0	0
9.093382	0.02168081	-0.107642	-0.001587708	0.001179228	0.001134299	-0.0008258103	0	0
9.110162	0.02165451	-0.1076224	-0.001567606	0.001164216	0.0006028247	-0.0004502037	0	0
9.126674	0.02165451	-0.1076224	0	0	0.04708683	-0.03497003	0	0
9.143193	0.02165451	-0.1076224	0	0	0	0	0	0
9.209351	0.02120735	-0.1072904	-0.006759089	0.005018983	-0.08175307	0.060706	0	0
9.225917	0.02083909	-0.107017	-0.02222938	0.01650425	-0.1870117	0.138839	0	0
9.242482	0.02026039	-0.1065874	-0.03493451	0.02593327	-0.3834749	0.284593	0	0
9.259269	0.01834005	-0.1051624	-0.1143972	0.08488692	-2.382553	1.767625	0	0
9.275617	0.01670897	-0.1039918	-0.09977299	0.07160592	0.4413588	-0.4008214	0	0
9.292183	0.01452529	-0.1024123	-0.1318146	0.0953439	-0.973491	0.7212085	0	0
9.308803	0.01076274	-0.1001325	-0.2263913	0.137174	-2.8499	1.260476	0	0
9.343342	-0.01055224	-0.1052015	-0.617124	-0.1467584	-7.637627	-5.550009	0	0
9.35991	-0.02165451	-0.1108279	-0.6700957	-0.3395917	-1.036479	-3.773099	0	0
9.376475	-0.03198908	-0.1186826	-0.6238679	-0.4741657	1.395198	-4.061567	0	0
9.393042	-0.04733304	-0.130166	-0.9262164	-0.6931803	-9.125682	-6.610444	0	0
9.409608	-0.05541689	-0.1362835	-0.48797	-0.3692712	13.22706	9.776159	0	0
9.426389	-0.06813123	-0.1459251	-0.7576697	-0.5745606	-8.087645	-6.156137	0	0
9.442743	-0.0890011	-0.1621686	-1.276088	-0.993213	-15.64546	-12.63459	0	0
9.459412	-0.1012317	-0.1717571	-0.7337649	-0.57525	16.42266	12.65677	0	0
9.475874	-0.1095075	-0.1783061	-0.5027114	-0.3978175	6.97401	5.35554	0	0
9.49293	-0.1260388	-0.1915633	-0.9692117	-0.7772566	-13.91757	-11.32019	0	0
9.509007	-0.1387346	-0.2018491	-0.7896807	-0.6397769	5.418412	4.149264	0	0
9.525576	-0.1566789	-0.2163983	-1.083059	-0.8781443	-8.986869	-7.301751	0	0
9.542141	-0.1704867	-0.2276293	-0.8335357	-0.6779811	7.530846	6.041111	0	0
9.559482	-0.1841274	-0.2387567	-0.7866328	-0.6416931	1.383324	1.070253	0	0
9.57549	-0.2013903	-0.252988	-1.078367	-0.8889933	-8.747906	-7.415511	0	0
9.592003	-0.2163495	-0.265455	-0.9059089	-0.7549849	5.302937	4.120642	0	0
9.608408	-0.2227417	-0.2708138	-0.3896486	-0.3266553	15.68323	13.01202	0	0
9.624974	-0.2309865	-0.2777713	-0.4976865	-0.419978	-3.276719	-2.830414	0	0
9.641541	-0.2395224	-0.2849879	-0.5152248	-0.435595	-0.5293207	-0.4713359	0	0
9.658109	-0.2447062	-0.2894248	-0.3128966	-0.267816	6.106275	5.06358	0	0
9.674674	-0.24916	-0.2932121	-0.2688642	-0.2286287	1.328977	1.182743	0	0
9.69124	-0.2507412	-0.2945758	-0.09544463	-0.08231392	5.234266	4.416172	0	0
9.707807	-0.2507412	-0.2945332	0	0.002572535	2.880691	2.562026	0	0
9.724374	-0.2507412	-0.2945332	0	0	0	-0.07764148	0	0
9.740941	-0.2507412	-0.2945332	0	0	0	0	0	0
9.757507	-0.2506671	-0.2945545	0.004472252	-0.001286267	0.1349767	-0.03882074	0	0
9.774073	-0.2505683	-0.2945545	0.005963946	0	0.0450233	0.03882298	0	0
9.79064	-0.2503954	-0.2945758	0.01043526	-0.001286193	0.1349521	-0.03881963	0	0
9.807206	-0.249333	-0.2952793	0.06412987	-0.04246841	1.620553	-1.242918	0	0
9.823772	-0.2474044	-0.2969006	0.1164171	-0.09786606	1.578122	-1.672001	0	0
9.840341	-0.2459196	-0.2980962	0.08961823	-0.07215939	-0.8087912	0.7758289	0	0
9.856906	-0.2436408	-0.2999765	0.1375684	-0.1135093	1.44718	-1.247978	0	0
9.873472	-0.2389262	-0.3039572	0.2845844	-0.2402927	4.437336	-3.826662	0	0
9.890039	-0.2364903	-0.3060153	0.1470335	-0.1242247	-4.151414	3.503041	0	0
9.906607	-0.2318591	-0.3099235	0.2795393	-0.2358986	3.999033	-3.370327	0	0
9.972877	-0.2198361	-0.3202074	0.1814246	-0.1551833	-1.184429	0.9743865	0	0
9.989442	-0.2192094	-0.3207481	0.03783193	-0.03263889	-1.733474	1.479376	0	0
10.00601	-0.2192847	-0.3206832	-0.004540614	0.003918168	-1.278916	1.103389	0	0
10.02281	-0.2192847	-0.3206832	0	0	0.1360881	-0.1174326	0	0
10.03932	-0.2192847	-0.3206832	0	0	0	0	0	0
10.05583	-0.2192847	-0.3206832	0	0	0	0	0	0
10.07228	-0.2193097	-0.3206616	-0.001524081	0.001313863	-0.04625245	0.0398728	0	0
10.08885	-0.2193348	-0.32064	-0.001512706	0.001305079	0.0003444535	-0.0002659686	0	0
10.10541	-0.2193599	-0.3206183	-0.001514159	0.001307109	-4.385128E-05	6.127233E-05	0	0
10.12238	-0.2193849	-0.3205967	-0.001477056	0.00127508	0.001106836	-0.0009554824	0	0
10.14097	-0.21941	-0.3205751	-0.001348834	0.001162097	0.003605613	-0.003177105	0	0
10.15754	-0.21941	-0.3205751	0	0	0.0383606	-0.03304983	0	0
10.17441	-0.2193849	-0.3205535	0.001485951	0.001281997	0.04442795	0.03833	0	0
10.19092	-0.2193849	-0.3205535	0	0	-0.0445079	-0.03839897	0	0
10.20724	-0.2193348	-0.3205102	0.003072573	0.002650596	0.09360875	0.08075285	0	0
10.2238	-0.2193097	-0.3204886	0.001514012	0.001306206	-0.0474031	-0.04088916	0	0
10.24037	-0.2192596	-0.3204453	0.003026776	0.002610313	0.04566057	0.03936255	0	0
10.25694	-0.2192345	-0.3204237	0.001512851	0.001305981	-0.04569166	-0.03936596	0	0
10.2735	-0.2191593	-0.3204021	0.004540352	0.001305981	0.09137017	0	0	0
10.29007	-0.2191342	-0.3203804	0.001513025	0.001304332	-0.09137017	-4.975994E-05	0	0
10.30663	-0.2191342	-0.3203804	0	0	-0.04566714	-0.03936822	0	0
10.3232	-0.2191091	-0.3203588	0.001513838	0.001306056	0.04569034	0.03941912	0	0
10.34003	-0.2191091	-0.3203588	0	0	-0.04533411	-0.03911178	0	0
10.35634	-0.2191091	-0.3203588	0	0	0	0	0	0
10.37306	-0.2191091	-0.3203588	0	0	0	0	0	0
10.38947	-0.2191091	-0.3203588	0	0	0	0	0	0
10.40603	-0.2191091	-0.3203588	0	0	0	0	0	0
10.42261	-0.2190841	-0.3203372	0.001512329	0.001303732	0.04563561	0.03934104	0	0
10.43917	-0.2190841	-0.3203372	0	0	-0.0456448	-0.03934897	0	0
10.45612	-0.2190841	-0.3203372	0	0	0	0	0	0
10.4723	-0.2190841	-0.3203372	0	0	0	0	0	0
10.48887	-0.2190841	-0.3203372	0	0	0	0	0	0
10.50543	-0.2190841	-0.3203372	0	0	0	0	0	0
10.522	-0.2190841	-0.3203372	0	0	0	0	0	0
10.53857	-0.2190841	-0.3202939	0	0.002612112	0	0.07883824	0	0
10.55513	-0.2190339	-0.3202507	0.003027327	0.002610013	0.09136491	-6.336104E-05	0	0
10.5717	-0.2189086	-0.3201426	0.007567825	0.006525259	0.1370365	0.1181658	0	0
10.58829	-0.2188333	-0.3200345	0.004533307	0.006516179	-0.0915161	-0.0002738358	0	0
10.60522	-0.2187079	-0.3199264	0.007410075	0.006387723	0.08583531	-0.003832806	0	0
10.6214	-0.2186829	-0.3199048	0.001549518	0.001334998	-0.1770197	-0.1526189	0	0
10.63797	-0.2186327	-0.3199048	0.003026776	0	0.04510561	-0.04076195	0	0
10.65453	-0.2186076	-0.3198831	0.001513751	0.001305981	-0.04566452	0.03941571	0	0
10.6711	-0.2186076	-0.3198831	0	0	-0.0456864	-0.03941571	0	0
10.68777	-0.2186076	-0.3198831	0	0	0	0	0	0
10.70428	-0.2186076	-0.3198831	0	0	0	0	0	0
10.7208	-0.2186076	-0.3198831	0	0	0	0	0	0
10.73737	-0.2186076	-0.3198831	0	0	0	0	0	0
10.75393	-0.2185826	-0.3199048	0.001513663	-0.001305906	0.04568114	-0.03941118	0	0
10.7705	-0.2186076	-0.3198831	-0.001513838	0.001306056	-0.09137017	0.07882916	0	0
10.78734	-0.2184572	-0.3197102	0.008934892	0.0102692	0.3127687	0.2682996	0	0
10.80363	-0.2165503	-0.3177658	0.117053	0.1193581	3.263294	3.292594	0	0
10.8202	-0.2126061	-0.3141635	0.238089	0.2174475	3.683725	2.98535	0	0
10.83688	-0.2031076	-0.3059295	0.5695579	0.4937364	9.971036	8.311145	0	0
10.85333	-0.1971678	-0.300896	0.360936	0.3058646	-6.296402	-5.670145	0	0
10.8704	-0.1838985	-0.2897012	0.7773557	0.6558257	12.42064	10.43837	0	0
10.88647	-0.1727094	-0.2804345	0.696504	0.5768329	-2.44011	-2.384009	0	0
10.97089	-0.1162887	-0.2342488	0.6683313	0.5470935	-0.2803679	-0.2959588	0	0
11.00402	-0.08842669	-0.2109178	0.840951	0.7041914	1.468456	1.336414	0	0
11.02059	-0.07577568	-0.1977248	0.7636605	0.7963758	-1.555207	1.854897	0	0
11.03715	-0.06548518	-0.1828575	0.6211718	0.8974476	-4.300566	3.050528	0	0
11.05372	-0.06173723	-0.1741053	0.2262396	0.5283123	-11.91976	-11.14117	0	0
11.07029	-0.05730561	-0.1595932	0.267478	0.875903	1.244577	10.49031	0	0
11.08685	-0.05281925	-0.1397437	0.2708128	1.198189	0.100646	9.726601	0	0
11.10342	-0.04932837	-0.1265816	0.2107219	0.7945102	-1.813653	-12.18374	0	0
11.12007	-0.04428681	-0.1155064	0.3026886	0.664937	2.768233	-3.9002	0	0
11.13655	-0.03682545	-0.1038553	0.4528191	0.7070909	4.531077	1.272244	0	0
11.15312	-0.03264629	-0.09880845	0.252269	0.3046457	-6.06921	-12.17912	0	0
11.16968	-0.02078648	-0.08950013	0.7159009	0.5618834	13.99325	7.763896	0	0
11.18625	-0.01389384	-0.0843837	0.4160404	0.3088281	-9.05007	-7.637445	0	0
11.20282	-0.00673674	-0.07885178	0.4319538	0.333869	0.4802423	0.7556949	0	0
11.21965	0.003105253	-0.07128763	0.5849058	0.4495344	4.57998	3.463475	0	0
11.23595	0.01107849	-0.06530105	0.4890354	0.3671848	-2.893709	-2.485605	0	0
11.25252	0.01818221	-0.05992202	0.4288057	0.3246975	-1.832344	-1.292573	0	0
11.26918	0.0244951	-0.05478296	0.3788011	0.3083655	-1.504724	-0.491457	0	0
11.28565	0.02886041	-0.04499023	0.2650465	0.5945819	-3.43302	8.637779	0	0
11.30222	0.02815046	-0.03673364	-0.04286001	0.4984545	-9.320807	-2.909925	0	0
11.31878	0.02709863	-0.02924024	-0.06348848	0.4523027	-0.6226223	-1.392985	0	0
11.33535	0.02236469	-0.02343303	-0.2857575	0.3505439	-6.708284	-3.071173	0	0
11.35192	0.02057604	-0.02017358	-0.1079506	0.1967183	5.366068	-4.642334	0	0
11.36875	0.02049713	-0.01894269	-0.004688806	0.07313484	3.091708	-3.700149	0	0
11.38505	0.02052343	-0.01899949	0.00161357	-0.003483977	0.1902116	-2.312427	0	0
11.40178	0.02049713	-0.01901842	-0.001572633	-0.001131899	-0.09646243	0.07120925	0	0
11.41819	0.02049713	-0.01901842	0	0	0.04746626	0.03416374	0	0
11.4348	0.02052343	-0.01903735	0.001583466	-0.001139697	0.0479589	-0.03451832	0	0
11.45132	0.02049713	-0.01901842	-0.001592333	0.001146078	-0.09584857	0.06898681	0	0
11.46789	0.02049713	-0.01901842	0	0	0.04812596	-0.03463856	0	0
11.48445	0.02049713	-0.01901842	0	0	0	0	0	0
11.50102	0.02047082	-0.01899949	-0.001587821	0.001142911	-0.04792052	0.03449314	0	0
11.51759	0.02044452	-0.01898055	-0.001587821	0.001142911	0	0	0	0
11.53415	0.02041822	-0.01896162	-0.001587729	0.001142846	2.758115E-06	-1.98514E-06	0	0
11.55088	0.02039191	-0.01894269	-0.001572633	0.001131788	0.0004534105	-0.0003321164	0	0
11.56729	0.02039191	-0.01894269	0	0	0.04746489	-0.0341594	0	0
11.58385	0.02039191	-0.01894269	0	0	0	0	0	0
11.60042	0.0203393	-0.01890482	-0.003175276	0.00228556	-0.09583001	0.06897833	0	0
11.61699	0.02004994	-0.0186587	-0.01746759	0.01485736	-0.4313554	0.3794285	0	0
11.63355	0.01986581	-0.01852619	-0.01111519	0.007999256	0.1917324	-0.2069957	0	0
11.66784	0.0198132	-0.01848832	-0.001534222	0.001104129	0.1883884	-0.1355773	0	0
11.68441	0.0198132	-0.01848832	0	0	0.03016648	-0.02170983	0	0
11.70099	0.0198132	-0.01848832	0	0	0	0	0	0
11.718	0.0198132	-0.01848832	0	0	0	0	0	0
11.73411	0.0198395	-0.01846939	0.001632266	0.001174672	0.04927749	0.0354629	0	0
11.81695	0.01960275	-0.01803403	-0.002858179	0.005256006	-0.04538209	0.04124745	0	0
11.83358	0.01960275	-0.01803403	0	0	0.02873459	-0.05284105	0	0
11.85008	0.01962906	-0.0180151	0.001594726	0.001147349	0.0481331	0.03463007	0	0
11.86664	0.01965536	-0.01795832	0.001587933	0.00342761	-0.0002054752	0.06896926	0	0
11.88321	0.01968167	-0.01763657	0.001587638	0.01941961	-8.910037E-06	0.4826396	0	0
11.90013	0.02049713	-0.01667152	0.04819481	0.0570355	1.391746	1.123255	0	0
11.91664	0.02283813	-0.01491248	0.1418177	0.1065623	2.800797	1.481631	0	0
11.93291	0.02799269	-0.01117064	0.3167823	0.2299617	5.337746	3.764616	0	0
11.94948	0.03262001	-0.007848189	0.2793216	0.2005551	-1.140777	-0.8955086	0	0
11.96604	0.03614215	-0.005320864	0.2126092	0.1525584	-2.0135	-1.448625	0	0
11.98261	0.04265832	-0.0006861914	0.3933394	0.2797655	5.454763	3.839337	0	0
11.99918	0.04638775	0.00202379	0.225122	0.1635842	-5.077105	-3.50656	0	0
12.01574	0.05129706	0.005539737	0.2963268	0.212223	2.149027	1.467964	0	0
12.03231	0.05211068	0.00612224	0.04911248	0.03516201	-7.461158	-5.343865	0	0
12.04887	0.05211068	0.00612224	0	0	-1.482303	-1.061253	0	0
12.06544	0.05211068	0.00612224	0	0	0	0	0	0
12.08201	0.05213692	0.006103451	0.001584131	-0.001134104	0.04781055	-0.03422832	0	0
12.09857	0.05213692	0.006103451	0	0	-0.04781055	0.03422832	0	0
12.11514	0.05213692	0.006103451	0	0	0	0	0	0
12.13171	0.05213692	0.006065873	0	-0.00226847	0	-0.06846453	0	0
12.14827	0.05216316	0.006047084	0.001583998	-0.00113417	0.04780927	0.03423621	0	0
12.16484	0.05213692	0.006028295	-0.001583998	-0.001134198	-0.0956158	-8.467833E-07	0	0
12.18182	0.05208443	0.005953137	-0.003090693	-0.004425487	-0.04490988	-0.09810306	0	0
12.19798	0.05195321	0.005859186	-0.008124567	-0.005816849	-0.1519226	-0.04199139	0	0
12.21454	0.05176949	0.005727652	-0.01108787	-0.007938519	-0.09056389	-0.06484208	0	0
12.23136	0.05153328	0.005558528	-0.014045	-0.01005607	-0.08857089	-0.06342418	0	0
12.24767	0.05113958	0.00523905	-0.02413471	-0.01958475	-0.3045431	-0.287609	0	0
12.26438	0.05079836	0.004957133	-0.02042197	-0.01687285	0.1124358	0.08212647	0	0
12.28081	0.05077212	0.004938337	-0.001597929	-0.001144379	0.5681434	0.4747135	0	0
12.29737	0.05069337	0.004881951	-0.004753342	-0.003403689	-0.09564625	-0.06848375	0	0
12.31394	0.05061463	0.004825563	-0.004752795	-0.003403382	1.651308E-05	9.282459E-06	0	0
12.33051	0.05058838	0.004806767	-0.001584539	-0.001134657	0.09562092	0.06847224	0	0
12.34707	0.05045713	0.004750378	-0.007922462	-0.00340383	-0.1912954	-0.0684897	0	0
12.36395	0.05037839	0.004693988	-0.004665517	-0.003340994	0.09738386	0.001878823	0	0
12.38046	0.05032589	0.004656394	-0.003179511	-0.002276897	0.04450573	0.03186959	0	0
12.39697	0.05027339	0.004656394	-0.003179553	0	-1.269105E-06	0.06894908	0	0
12.52157	0.04680789	0.002211901	-0.02781464	-0.01961986	-0.1745873	-0.1390447	0	0
12.5379	0.04680789	0.002211901	0	0	0.1973647	0.1392169	0	0
12.55447	0.04680789	0.002211901	0	0	0	0	0	0
12.5711	0.04683415	0.002193091	0.001579394	-0.001131387	0.04758403	-0.03408648	0	0
12.58761	0.04683415	0.002193091	0	0	-0.04765935	0.03414043	0	0
12.60417	0.04683415	0.002193091	0	0	0	0	0	0
12.62074	0.04683415	0.002193091	0	0	0	0	0	0
12.6373	0.04683415	0.002193091	0	0	0	0	0	0
12.65387	0.04683415	0.002193091	0	0	0	0	0	0
12.67067	0.04683415	0.002193091	0	0	0	0	0	0
12.68718	0.04678163	0.002193091	-0.003180272	0	-0.0954779	0	0	0
12.70357	0.04678163	0.002193091	0	0	0.09665401	0	0	0
12.7202	0.04678163	0.002193091	0	0	0	0	0	0
12.73671	0.04675537	0.002211901	-0.00159126	0.001139887	-0.04802293	0.03440088	0	0
12.75373	0.04670286	0.002249522	-0.003085298	0.002210247	-0.04456683	0.03192858	0	0
12.76984	0.04662408	0.002305953	-0.004889692	0.003502745	-0.0544614	0.03901105	0	0
12.7864	0.04651904	0.002418812	-0.006340488	0.006812565	-0.04439851	0.1012899	0	0
12.80297	0.04562621	0.003058273	-0.05389483	0.03860018	-1.435275	0.9594073	0	0
12.81977	0.04462824	0.003772821	-0.05938604	0.04252073	-0.1645507	0.117484	0	0
12.83611	0.0359319	0.009990539	-0.5325147	0.3807376	-14.27864	10.20711	0	0
12.8528	0.02515259	0.01767666	-0.6457338	0.4604365	-3.428405	2.413376	0	0
12.86931	0.01565661	0.02443025	-0.5751314	0.4090365	2.126316	-1.548004	0	0
12.8858	0.009447088	0.02883843	-0.3764547	0.2672475	6.019463	-4.295891	0	0
12.90237	0.003947348	0.03277509	-0.331984	0.2376314	1.345109	-0.895802	0	0
12.91894	-0.0008157893	0.03614867	-0.2875201	0.2036415	1.342002	-1.025874	0	0
12.9355	-0.006447279	0.04017059	-0.3398978	0.2427492	-1.580763	1.180271	0	0
12.95207	-0.0102628	0.04286806	-0.2303317	0.1628385	3.306807	-2.411779	0	0
12.96864	-0.01184155	0.04398369	-0.09529925	0.06734352	4.075639	-2.882292	0	0
12.9852	-0.01176262	0.04392792	0.004764867	-0.003366782	3.020115	-2.134164	0	0
13.00177	-0.01176262	0.04392792	0	0	-0.1438123	0.1016155	0	0
13.01841	-0.01176262	0.04392792	0	0	0	0	0	0
13.0349	-0.01176262	0.04392792	0	0	0	0	0	0
13.05147	-0.0117363	0.04390933	0.001588179	-0.001122046	0.04804334	-0.03394255	0	0
13.06804	-0.0117363	0.04390933	0	0	-0.04793271	0.0338644	0	0
13.0846	-0.01170999	0.04389073	0.001588327	-0.001122336	0.04793855	-0.03387411	0	0
13.10117	-0.01170999	0.04389073	0	0	-0.04793855	0.03387411	0	0
13.11773	-0.0117363	0.04390933	-0.001588327	0.001122336	-0.04793855	0.03387411	0	0
13.1343	-0.0117363	0.04390933	0	0	0.04793717	-0.03387313	0	0
13.151	-0.0117363	0.04390933	0	0	0	0	0	0
13.16743	-0.0117363	0.04390933	0	0	0	0	0	0
13.20228	-0.0117363	0.04390933	0	0	0	0	0	0
13.21885	-0.0117363	0.04390933	0	0	0	0	0	0
13.23541	-0.0117363	0.04390933	0	0	0	0	0	0
13.25208	-0.0117363	0.04390933	0	0	0	0	0	0
13.26859	-0.0117363	0.04387214	0	-0.002252321	0	-0.06789898	0	0
13.28511	-0.0117363	0.04387214	0	0	0	0.06817337	0	0
13.30168	-0.0117363	0.04387214	0	0	0	0	0	0
13.31825	-0.01170999	0.04385355	0.001588327	-0.001122111	0.04793855	-0.03386732	0	0
13.33481	-0.01170999	0.04385355	0	0	-0.04793717	0.03386635	0	0
13.35138	-0.01170999	0.04385355	0	0	0	0	0	0
13.36795	-0.01170999	0.04385355	0	0	0	0	0	0
13.38451	-0.01170999	0.04385355	0	0	0	0	0	0
13.40108	-0.01170999	0.04385355	0	0	0	0	0	0
13.41764	-0.01170999	0.04385355	0	0	0	0	0	0
13.43421	-0.01170999	0.04385355	0	0	0	0	0	0
13.45078	-0.01170999	0.04385355	0	0	0	0	0	0
13.46734	-0.01170999	0.04385355	0	0	0	0	0	0
13.48391	-0.01170999	0.04385355	0	0	0	0	0	0
13.51704	-0.01170999	0.04385355	0	0	0	0	0	0
13.53377	-0.01170999	0.04385355	0	0	0	0	0	0
13.55018	-0.01170999	0.04385355	0	0	0	0	0	0
13.56674	-0.01170999	0.04385355	0	0	0	0	0	0
13.58331	-0.01168368	0.04383496	0.00158827	-0.001122336	0.04793685	-0.03387411	0	0
13.59988	-0.01168368	0.04383496	0	0	-0.04793685	0.03387411	0	0
13.61683	-0.01168368	0.04383496	0	0	0	0	0	0
13.63301	-0.01168368	0.04383496	0	0	0	0	0	0
13.64958	-0.01168368	0.04383496	0	0	0	0	0	0
13.66614	-0.01168368	0.04383496	0	0	0	0	0	0
13.68288	-0.01168368	0.04383496	0	0	0	0	0	0
13.69939	-0.01165737	0.04381637	0.001593556	-0.001126031	0.04793494	-0.03387156	0	0
13.71584	-0.01165737	0.04381637	0	0	-0.04833847	0.0341567	0	0
13.73241	-0.01168368	0.04383496	-0.001588052	0.001122142	-0.04808806	0.03397976	0	0
13.76555	-0.01168368	0.04383496	0	0	0.03195106	-0.02257711	0	0
13.78211	-0.01168368	0.04383496	0	0	0	0	0	0
13.79868	-0.01168368	0.04383496	0	0	0	0	0	0
13.81547	-0.01168368	0.04383496	0	0	0	0	0	0
13.83181	-0.01168368	0.04383496	0	0	0	0	0	0
13.84838	-0.01168368	0.04383496	0	0	0	0	0	0
13.86501	-0.01168368	0.04383496	0	0	0	0	0	0
13.88151	-0.01168368	0.04383496	0	0	0	0	0	0
13.89808	-0.01168368	0.04383496	0	0	0	0	0	0
13.91464	-0.01168368	0.04383496	0	0	0	0	0	0
13.94886	-0.01168368	0.04383496	0	0	0	0	0	0
13.96543	-0.01168368	0.04383496	0	0	0	0	0	0
13.982	-0.01168368	0.04383496	0	0	0	0	0	0
13.9986	-0.01165737	0.04381637	0.001584951	-0.00111995	0.04778577	-0.03376615	0	0
14.01513	-0.01165737	0.04381637	0	0	-0.04783666	0.03380211	0	0
14.0317	-0.01165737	0.04381637	0	0	0	0	0	0
14.04863	-0.01165737	0.04381637	0	0	0	0	0	0
14.06483	-0.01165737	0.04381637	0	0	0	0	0	0
14.0814	-0.01165737	0.04381637	0	0	0	0	0	0
14.09796	-0.01165737	0.04381637	0	0	0	0	0	0
14.11453	-0.01165737	0.04381637	0	0	0	0	0	0
14.13109	-0.01165737	0.04381637	0	0	0	0	0	0
14.14771	-0.01165737	0.04381637	0	0	0	0	0	0
14.16423	-0.01165737	0.04381637	0	0	0	0	0	0
14.1808	-0.01165737	0.04381637	0	0	0	0	0	0
14.19736	-0.01165737	0.04381637	0	0	0	0	0	0
14.21425	-0.01165737	0.04381637	0	0	0	0	0	0
14.23049	-0.01165737	0.04381637	0	0	0	0	0	0
14.24727	-0.01165737	0.04381637	0	0	0	0	0	0
14.3299	-0.01163105	0.04379778	0.0003184644	-0.0002249947	0.00320385	-0.002263516	0	0
14.36303	-0.01157843	0.04376059	0.001588281	-0.001122303	0.01096995	-0.007751851	0	0
14.37987	-0.01157843	0.04376059	0	0	-0.03178186	0.02245755	0	0
14.39616	-0.01157843	0.04376059	0	0	0	0	0	0
14.41289	-0.01157843	0.04376059	0	0	0	0	0	0
14.4293	-0.01157843	0.04376059	0	0	0	0	0	0
14.44591	-0.01157843	0.04376059	0	0	0	0	0	0
14.46243	-0.01157843	0.04376059	0	0	0	0	0	0
14.479	-0.01157843	0.04376059	0	0	0	0	0	0
14.49556	-0.01157843	0.04376059	0	0	0	0	0	0
14.51213	-0.01157843	0.04376059	0	0	0	0	0	0
14.52898	-0.01157843	0.04376059	0	0	0	0	0	0
14.54526	-0.01157843	0.04376059	0	0	0	0	0	0
14.56183	-0.01157843	0.04376059	0	0	0	0	0	0
14.57851	-0.01157843	0.04376059	0	0	0	0	0	0
14.59502	-0.01157843	0.04376059	0	0	0	0	0	0
14.61153	-0.01157843	0.04376059	0	0	0	0	0	0
14.62809	-0.01157843	0.04376059	0	0	0	0	0	0
14.64505	-0.01157843	0.04376059	0	0	0	0	0	0
14.66123	-0.01157843	0.04376059	0	0	0	0	0	0
14.67779	-0.01157843	0.04376059	0	0	0	0	0	0
14.69459	-0.01157843	0.04376059	0	0	0	0	0	0
14.71093	-0.01157843	0.04376059	0	0	0	0	0	0
14.7275	-0.01157843	0.04376059	0	0	0	0	0	0
14.7461	-0.01157843	0.04376059	0	0	0	0	0	0
14.78093	-0.01157843	0.04376059	0	0	0	0	0	0
14.7975	-0.01157843	0.04376059	0	0	0	0	0	0
14.83063	-0.01157843	0.04376059	0	0	0	0	0	0
14.8472	-0.01157843	0.04376059	0	0	0	0	0	0
14.86376	-0.01157843	0.04376059	0	0	0	0	0	0
14.88033	-0.01157843	0.04376059	0	0	0	0	0	0
14.89723	-0.01157843	0.04376059	0	0	0	0	0	0
14.91346	-0.01157843	0.04376059	0	0	0	0	0	0
14.93025	-0.01157843	0.04376059	0	0	0	0	0	0
14.9466	-0.01157843	0.04376059	0	0	0	0	0	0
14.96316	-0.01157843	0.04376059	0	0	0	0	0	0
14.97979	-0.01157843	0.04376059	0	0	0	0	0	0
14.9963	-0.01157843	0.04376059	0	0	0	0	0	0
15.01286	-0.01157843	0.04376059	0	0	0	0	0	0
15.02943	-0.01157843	0.04376059	0	0	0	0	0	0
15.04634	-0.01157843	0.04376059	0	0	0	0	0	0
15.06256	-0.01157843	0.04376059	0	0	0	0	0	0
15.07913	-0.01157843	0.04376059	0	0	0	0	0	0
15.09569	-0.01157843	0.04376059	0	0	0	0	0	0
15.17853	-0.01155212	0.043742	0.0003176467	-0.000224462	0.003195655	-0.002258179	0	0
15.19509	-0.01155212	0.043742	0	0	-0.003195655	0.002258179	0	0
15.21196	-0.01155212	0.043742	0	0	0	0	0	0
15.22823	-0.01155212	0.043742	0	0	0	0	0	0
15.24498	-0.01155212	0.043742	0	0	0	0	0	0
15.26149	-0.01155212	0.043742	0	0	0	0	0	0
15.27793	-0.01155212	0.043742	0	0	0	0	0	0
15.29451	-0.01155212	0.043742	0	0	0	0	0	0
15.31106	-0.01157843	0.04376059	-0.001589643	0.001123306	-0.04797552	0.03390143	0	0
15.32763	-0.01157843	0.04376059	0	0	0.04800039	-0.03391901	0	0
15.34454	-0.01157843	0.04376059	0	0	0	0	0	0
15.36076	-0.01157843	0.04376059	0	0	0	0	0	0
15.37733	-0.01155212	0.043742	0.001588179	-0.001122271	0.04844585	-0.03423379	0	0
15.39408	-0.01155212	0.043742	0	0	-0.04766519	0.03368214	0	0
15.41046	-0.01157843	0.04376059	-0.001606209	0.001135012	-0.04847686	0.0342557	0	0
15.42703	-0.01157843	0.04376059	0	0	0.04875048	-0.03444905	0	0
15.44361	-0.01157843	0.04376059	0	0	0	0	0	0
15.46063	-0.01157843	0.04376059	0	0	0	0	0	0
15.47673	-0.01157843	0.04376059	0	0	0	0	0	0
15.49329	-0.01157843	0.04376059	0	0	0	0	0	0
15.50986	-0.01157843	0.04376059	0	0	0	0	0	0
15.52643	-0.01157843	0.04376059	0	0	0	0	0	0
15.5612	-0.01157843	0.04376059	0	0	0	0	0	0
15.57821	-0.01157843	0.04376059	0	0	0	0	0	0
15.6109	-0.01157843	0.04376059	0	0	0	0	0	0
15.62747	-0.01157843	0.04376059	0	0	0	0	0	0
15.64403	-0.01157843	0.04376059	0	0	0	0	0	0
15.66077	-0.01157843	0.04376059	0	0	0	0	0	0
15.67717	-0.01155212	0.043742	0.001604434	-0.001133758	0.0484233	-0.03421785	0	0
15.69373	-0.01155212	0.043742	0	0	-0.04866985	0.03439208	0	0
15.7103	-0.01155212	0.043742	0	0	0	0	0	0
15.72687	-0.01155212	0.043742	0	0	0	0	0	0
15.74343	-0.01155212	0.043742	0	0	0	0	0	0
15.76	-0.01152581	0.0437234	0.001588418	-0.0011224	0.04794545	-0.03387898	0	0
15.77686	-0.01147318	0.04368622	0.003121255	-0.002205344	0.04585854	-0.0323989	0	0
15.79336	-0.01142056	0.04364904	0.003188896	-0.002253363	0.002027485	-0.001439301	0	0
15.9091	-0.01113112	0.04344451	0.0025008	-0.001767147	-0.00520338	0.00367676	0	0
15.92567	-0.01113112	0.04344451	0	0	-0.0189019	0.0133567	0	0
15.94247	-0.01115743	0.0434631	-0.001566236	0.001106726	-0.0469408	0.03316909	0	0
15.95898	-0.01115743	0.0434631	0	0	0.04701471	-0.03322131	0	0
15.97549	-0.01118374	0.0434817	-0.001593648	0.001126096	-0.0482561	0.0340985	0	0
15.99193	-0.01121006	0.04350029	-0.00160021	0.001130733	-0.0001991383	0.000140712	0	0
16.00851	-0.01121006	0.04350029	0	0	0.04845621	-0.0342399	0	0
16.02507	-0.01121006	0.04350029	0	0	0	0	0	0
16.04164	-0.01121006	0.04350029	0	0	0	0	0	0
16.07477	-0.01118374	0.04351889	0.0007941633	0.0005612803	0.0159786	0.01129298	0	0
16.09158	-0.01118374	0.04351889	0	0	-0.01590171	-0.01123864	0	0
16.1079	-0.01115743	0.04353748	0.00161199	0.001139057	0.04865275	0.03437878	0	0
16.12447	-0.01113112	0.04359326	0.001588235	0.003366813	-0.0007222423	0.0677329	0	0
16.14104	-0.01105218	0.04368622	0.004764649	0.005611355	0.09586436	0.06774042	0	0
16.1576	-0.01094693	0.04379778	0.006353672	0.006734177	0.04795957	0.03388877	0	0
16.17417	-0.01078906	0.04409524	0.009529411	0.01795476	0.0958495	0.3386574	0	0
16.19073	-0.01078906	0.0441696	0	0.00448841	-0.2875982	-0.4064153	0	0
16.2073	-0.01071012	0.04437408	0.004764213	0.01234131	0.143776	0.2369874	0	0
16.22387	-0.01057855	0.04457856	0.00794209	0.0123437	0.09590851	7.217973E-05	0	0
16.24068	-0.01049961	0.04485737	0.004694501	0.01658096	-0.09728998	0.126938	0	0
16.27357	-0.01018386	0.04552644	0.00960193	0.02034587	0.09874146	0.07575314	0	0
16.29021	-0.01289402	0.05656783	-0.1628173	0.6633284	-3.481104	12.98167	0	0
16.30673	-0.01442005	0.06397321	-0.09241996	0.4484873	2.123128	-6.479442	0	0
16.32327	-0.01699836	0.08577849	-0.1558603	1.318142	-1.919274	26.30984	0	0
16.33984	-0.01878726	0.09900714	-0.1079783	0.7984832	1.446164	-15.69508	0	0
16.3564	-0.02083909	0.1109536	-0.1238626	0.7211698	-0.4794184	-2.333458	0	0
16.37327	-0.02283813	0.1214828	-0.1184802	0.6240484	0.1609682	-2.904544	0	0
16.38979	-0.02520519	0.1311151	-0.1433377	0.5832923	-0.7445414	-1.220746	0	0
16.4061	-0.0278875	0.1435309	-0.1644226	0.7610725	-0.6422977	5.415608	0	0
16.42281	-0.02854488	0.1531422	-0.03933938	0.5751698	3.787666	-5.62935	0	0
16.43923	-0.0296755	0.1624838	-0.06884675	0.5688398	-0.8905853	-0.1910494	0	0
16.47373	-0.03122669	0.1768405	-0.04496442	0.4161566	0.4690121	-2.998465	0	0
16.49036	-0.03191022	0.1871405	-0.0411159	0.6195691	0.07528009	3.97891	0	0
16.50686	-0.03327718	0.1979663	-0.08280573	0.6557887	-1.258274	1.093174	0	0
16.52343	-0.03311946	0.2044903	0.009520079	0.3937883	2.791379	-7.921324	0	0
16.54	-0.03235712	0.2131506	0.04601492	0.5227368	1.101416	3.891675	0	0
16.55657	-0.03125298	0.2198062	0.06664617	0.4017348	0.6226526	-3.651848	0	0
16.57341	-0.02917593	0.2290259	0.1232985	0.547304	1.695522	4.356672	0	0
16.5897	-0.02857117	0.2338927	0.03713614	0.2988524	-2.600685	-7.499149	0	0
16.60626	-0.02751937	0.2437987	0.0634869	0.5979234	0.8021011	9.103539	0	0
16.62295	-0.02704603	0.2461661	0.02837447	0.1419185	-1.056048	-13.71489	0	0
16.6394	-0.0243899	0.2569748	0.1614584	0.6570308	4.016714	15.54702	0	0
16.65597	-0.01994472	0.2641933	0.2682805	0.4356582	3.23507	-6.704195	0	0
16.67253	-0.01865573	0.2695465	0.07782171	0.3231932	-5.748389	-3.394396	0	0
16.6891	-0.01541983	0.2736451	0.1953193	0.2473916	3.546493	-2.287958	0	0
16.70566	-0.008999757	0.278011	0.3875164	0.2635257	5.800519	0.4869276	0	0
16.72223	-0.004657861	0.2809269	0.2620774	0.1760052	-3.785756	-2.641374	0	0
16.7388	-0.001105263	0.2833773	0.2144352	0.1479086	-1.437843	-0.8479567	0	0
16.75537	-0.001105263	0.2833773	0	0	-6.471669	-4.463891	0	0
16.77193	-0.001131578	0.2833952	-0.001588791	0.001079572	-0.04795532	0.03258529	0	0
16.80508	-0.006447279	0.2870077	-0.1603635	0.1089794	-3.193941	2.170532	0	0
16.82163	-0.01128899	0.2902976	-0.2924822	0.1987412	-2.658233	1.806011	0	0
16.8386	-0.01631434	0.2937122	-0.2961369	0.201216	-0.1090176	0.07382226	0	0
16.85476	-0.01841897	0.2951422	-0.1301983	0.08846423	5.008036	-3.402855	0	0
16.87133	-0.0185505	0.2951958	-0.007940347	0.003238342	3.735337	-2.603899	0	0
16.88813	-0.0185505	0.2951958	0	0	0.2379553	-0.09704623	0	0
16.90447	-0.0185242	0.2951779	0.001610764	-0.001094827	0.04861014	-0.03304003	0	0
16.9376	-0.0185505	0.2951601	-0.0007940228	-0.0005396926	-0.04861574	0.01122272	0	0
16.95419	-0.01857681	0.2951064	-0.001586016	-0.003232449	-0.01592943	-0.05415966	0	0
16.97073	-0.01857681	0.2951064	0	0	0.0478688	0.09756111	0	0
16.9873	-0.01857681	0.2951064	0	0	0	0	0	0
17.00387	-0.01860312	0.2950886	-0.001587476	-0.001079075	-0.04790461	-0.03256278	0	0
17.02043	-0.01870834	0.2949813	-0.006352942	-0.006475631	-0.143822	-0.1628684	0	0
17.037	-0.01889249	0.2948562	-0.0111164	-0.007552533	-0.1437862	-0.03250659	0	0
17.05356	-0.01910294	0.2946774	-0.0127042	-0.01079088	-0.04792541	-0.09774461	0	0
17.07014	-0.01915555	0.2946059	-0.003174952	-0.0043145	0.2875766	0.1954461	0	0
17.08677	-0.01918186	0.2945523	-0.001580925	-0.003222074	0.04799731	0.03289374	0	0
17.10326	-0.01920816	0.2945344	-0.001595372	-0.001084442	-0.0004360804	0.06452501	0	0
17.11983	-0.01923447	0.2944808	-0.001587842	-0.003237969	0.0002278068	-0.06514734	0	0
17.13868	-0.01928708	0.2944093	-0.002790771	-0.00379243	-0.03396239	-0.01565412	0	0
17.15532	-0.01931339	0.2943557	-0.001580744	-0.003221705	0.03409118	0.01607954	0	0
17.17184	-0.019366	0.2942127	-0.003185953	-0.008660704	-0.04841466	-0.1640455	0	0
17.18839	-0.01968167	0.2938194	-0.01907792	-0.02376621	-0.4806997	-0.4569108	0	0
17.20495	-0.02128626	0.2925144	-0.09684213	-0.07875993	-2.34828	-1.66067	0	0
17.22152	-0.02283813	0.2914597	-0.0936822	-0.063673	0.09536696	0.4553246	0	0
17.23808	-0.02286444	0.2914061	-0.0015878	-0.003236543	2.779735	1.824186	0	0
17.25489	-0.02283813	0.2913882	0.001564738	-0.001063769	0.09445867	0.06510224	0	0
17.27141	-0.02281183	0.2913703	0.001592383	-0.001082564	0.0008295025	-0.0005639281	0	0
17.28778	-0.02281183	0.2913703	0	0	-0.04841495	0.03291435	0	0
17.30443	-0.02281183	0.2913703	0	0	0	0	0	0
17.32094	-0.02281183	0.2913703	0	0	0	0	0	0
17.33749	-0.02278553	0.2913524	0.001589813	-0.001080816	0.04809694	-0.03269815	0	0
17.35405	-0.02275923	0.2913345	0.001587617	-0.001079323	-6.633354E-05	4.509781E-05	0	0
17.37098	-0.02275923	0.2913345	0	0	-0.04739869	0.03222346	0	0
17.38719	-0.02275923	0.2913345	0	0	0	0	0	0
17.40375	-0.02273292	0.2913167	0.0015878	-0.001079447	0.04845261	-0.03293995	0	0
17.42051	-0.02273292	0.2913167	0	0	-0.04764562	0.03239133	0	0
17.43702	-0.02273292	0.2913167	0	0	0	0	0	0
17.45345	-0.02273292	0.2913167	0	0	0	0	0	0
17.47056	-0.02273292	0.2913167	0	0	0	0	0	0
17.48659	-0.02273292	0.2913167	0	0	0	0	0	0
17.50315	-0.02270662	0.2912988	0.0015878	-0.001079447	0.04871631	-0.03311922	0	0
17.51972	-0.02262772	0.2911736	0.004762738	-0.007553462	0.09582535	-0.1953974	0	0
17.53628	-0.02260141	0.29112	0.0015878	-0.003236543	-0.09582535	0.1302924	0	0
17.55285	-0.02204906	0.2904943	0.03334029	-0.03777091	0.9583472	-1.042309	0	0
17.56942	-0.02083909	0.2895646	0.07303397	-0.0561158	1.197958	-0.55365	0	0
17.58599	-0.01413064	0.2847902	0.4049228	-0.2881811	10.01643	-7.003744	0	0
17.61915	-0.006473594	0.2759356	0.2308509	-0.2669575	-3.499917	0.4267244	0	0
17.63568	-0.008184028	0.2642112	-0.1034683	-0.7092329	-6.726773	-8.898941	0	0
17.65225	-0.01142056	0.250792	-0.1953572	-0.8099888	-2.776249	-3.044148	0	0
17.66882	-0.0140254	0.2402645	-0.1572284	-0.6354406	1.150731	5.267874	0	0
17.68539	-0.0174456	0.2256483	-0.20642	-0.8821353	-1.484521	-7.444832	0	0
17.71852	-0.02552077	0.2018417	-0.2437233	-0.7185242	-0.7505435	3.291862	0	0
17.73509	-0.02935998	0.1961811	-0.2317084	-0.341633	0.2417414	7.583067	0	0
17.75175	-0.03771894	0.1900109	-0.5017751	-0.3703898	-8.127707	-0.8654417	0	0
17.76822	-0.051717	0.1802394	-0.8498163	-0.5932244	-10.50511	-6.725936	0	0
17.78479	-0.05706954	0.1761532	-0.3230798	-0.2466406	15.94283	10.49011	0	0
17.80136	-0.0612129	0.171051	-0.250094	-0.3079704	2.202717	-1.850938	0	0
17.83481	-0.06514453	0.1448582	-0.1175269	-0.7829734	2.65027	-9.49622	0	0
17.85308	-0.06551138	0.1212819	-0.02007263	-1.290001	1.883932	-9.801581	0	0
17.86965	-0.06561619	0.11814	-0.006326182	-0.1896461	0.3945203	31.57998	0	0
17.88622	-0.06624503	0.1036098	-0.03795709	-0.8770458	-0.9546228	-20.74576	0	0
17.90279	-0.06695241	0.09731898	-0.04269712	-0.3797117	-0.1430543	15.00957	0	0
17.91935	-0.06750255	0.09105627	-0.03320672	-0.3780181	0.2864207	0.05111404	0	0
17.93592	-0.06760734	0.08193106	-0.006325561	-0.5508622	0.8113218	-5.216747	0	0
17.95249	-0.06624503	0.07725061	0.08222868	-0.2825124	2.672726	8.09928	0	0
17.96905	-0.06275958	0.06652491	0.2103826	-0.647405	3.867692	-11.01248	0	0
17.98562	-0.06092451	0.05867976	0.1107651	-0.4735339	-3.006461	5.24744	0	0
18.00219	-0.05672854	0.05029944	0.253269	-0.5058376	4.300777	-0.9749273	0	0
18.01875	-0.05274052	0.04283087	0.2407176	-0.4508038	-0.3788019	1.660923	0	0
18.03532	-0.04809446	0.03942612	0.2804365	-0.205511	1.198718	7.402952	0	0
18.05197	-0.04491714	0.03717319	0.1909046	-0.1353639	-2.695868	2.112179	0	0
18.06846	-0.0409245	0.03434112	0.2421107	-0.1717347	1.545402	-1.097673	0	0
18.08502	-0.03424976	0.02956638	0.4028884	-0.288204	4.863478	-3.523162	0	0
18.10159	-0.02838711	0.025402	0.3538296	-0.2513331	-1.480511	1.1127	0	0
18.13472	-0.02010255	0.01954875	0.2500571	-0.1766718	-2.087986	1.502246	0	0
18.15129	-0.02039191	0.01975462	-0.01746748	0.0124277	-5.383225	3.805129	0	0
18.16805	-0.02036561	0.01973591	0.001569658	-0.001116722	0.5712864	-0.4064552	0	0
18.18442	-0.02036561	0.01973591	0	0	-0.0473751	0.03370469	0	0
18.20108	-0.0203393	0.01971719	0.001579365	-0.00112374	0.04781672	-0.03402226	0	0
18.21759	-0.0203393	0.01967976	0	-0.002267101	-0.04762147	-0.03447493	0	0
18.23412	-0.02036561	0.01969848	-0.001590843	0.001131907	-0.04814198	0.1028605	0	0
18.25069	-0.0203393	0.01971719	0.001587729	0.001129579	0.09602346	-7.031967E-05	0	0
18.26726	-0.0203393	0.01971719	0	0	-0.04791776	-0.03409076	0	0
18.28413	-0.02036561	0.01973591	-0.001559012	0.001109258	-0.04662167	0.03317196	0	0
18.30039	-0.02036561	0.01973591	0	0	0.04705377	-0.03347941	0	0
18.31715	-0.02036561	0.01973591	0	0	0	0	0	0
18.33366	-0.02036561	0.01969848	0	-0.002266839	0	-0.06812314	0	0
18.35009	-0.02036561	0.01969848	0	0	0	0.06882536	0	0
18.36666	-0.02039191	0.01971719	-0.001587729	0.001129579	-0.04812554	0.03423858	0	0
18.38322	-0.02039191	0.01971719	0	0	0.04791776	-0.03409076	0	0
18.39979	-0.02039191	0.01971719	0	0	0	0	0	0
18.41672	-0.02039191	0.01971719	0	0	0	0	0	0
18.43324	-0.02039191	0.01971719	0	0	0	0	0	0
18.44949	-0.02036561	0.01969848	0.001618284	-0.001151317	0.04938573	-0.03513514	0	0
18.46605	-0.02036561	0.01969848	0	0	-0.04930824	0.03508001	0	0
18.48277	-0.02036561	0.01969848	0	0	0	0	0	0
18.49919	-0.02036561	0.01969848	0	0	0	0	0	0
18.5158	-0.02036561	0.01969848	0	0	0	0	0	0
18.53232	-0.02036561	0.01969848	0	0	0	0	0	0
18.55122	-0.02036561	0.01969848	0	0	0	0	0	0
18.56779	-0.02036561	0.01969848	0	0	0	0	0	0
18.58435	-0.02036561	0.01969848	0	0	0	0	0	0
18.60135	-0.02039191	0.01967976	-0.001547466	-0.001101044	-0.04610284	-0.03280281	0	0
18.61749	-0.02039191	0.01967976	0	0	0.04669992	0.03322765	0	0
18.63406	-0.02036561	0.01966104	0.001587729	-0.001129691	0.04854653	-0.03454154	0	0
18.65089	-0.02036561	0.01966104	0	0	-0.0475374	0.03382352	0	0
18.66719	-0.02036561	0.01966104	0	0	0	0	0	0
18.68391	-0.02039191	0.01967976	-0.00157288	0.001119126	-0.04763139	0.0338904	0	0
18.70032	-0.02039191	0.01967976	0	0	0.04746963	-0.0337753	0	0
18.75002	-0.02036561	0.01966104	0.0005292633	-0.0003765783	0.008005724	-0.005696185	0	0
18.76659	-0.02036561	0.01966104	0	0	-0.00798706	0.005682905	0	0
18.78349	-0.02036561	0.01966104	0	0	0	0	0	0
18.79972	-0.02036561	0.01966104	0	0	0	0	0	0
18.81651	-0.02036561	0.01966104	0	0	0	0	0	0
18.83285	-0.02036561	0.01966104	0	0	0	0	0	0
18.84942	-0.02036561	0.01966104	0	0	0	0	0	0
18.86599	-0.02036561	0.01966104	0	0	0	0	0	0
18.88256	-0.02039191	0.01967976	-0.001587364	0.001129431	-0.04790397	0.03408435	0	0
18.89912	-0.02039191	0.01967976	0	0	0.04790949	-0.03408827	0	0
18.91607	-0.02039191	0.01967976	0	0	0	0	0	0
18.93225	-0.02039191	0.01967976	0	0	0	0	0	0
18.94909	-0.02036561	0.01966104	0.00156166	-0.001111143	0.0472916	-0.03364863	0	0
18.96538	-0.02036561	0.01966104	0	0	-0.0471337	0.03353628	0	0
18.98212	-0.02036561	0.01966104	0	0	0	0	0	0
18.99852	-0.02036561	0.01966104	0	0	0	0	0	0
19.01514	-0.02036561	0.01966104	0	0	0	0	0	0
19.03165	-0.02036561	0.01966104	0	0	0	0	0	0
19.04822	-0.02036561	0.01966104	0	0	0	0	0	0
19.06478	-0.02039191	0.01967976	-0.001587912	0.001129822	-0.04793156	0.03410397	0	0
19.08135	-0.02039191	0.01967976	0	0	0.04792604	-0.03410004	0	0
19.0982	-0.02039191	0.01967976	0	0	0	0	0	0
19.11448	-0.02039191	0.01967976	0	0	0	0	0	0
19.13123	-0.02039191	0.01967976	0	0	0	0	0	0
19.14762	-0.02039191	0.01967976	0	0	0	0	0	0
19.16418	-0.02036561	0.01966104	0.001587912	-0.001129822	0.04818121	-0.03428161	0	0
19.18076	-0.02036561	0.01966104	0	0	-0.04791776	0.03409415	0	0
19.19732	-0.02036561	0.01966104	0	0	0	0	0	0
19.21388	-0.02036561	0.01966104	0	0	0	0	0	0
19.23079	-0.02036561	0.01966104	0	0	0	0	0	0
19.24702	-0.02036561	0.01966104	0	0	0	0	0	0
19.26358	-0.02039191	0.01967976	-0.001587912	0.001129822	-0.04843067	0.0344591	0	0
19.28015	-0.02039191	0.01967976	0	0	0.04792604	-0.03410004	0	0
19.29672	-0.02039191	0.01967976	0	0	0	0	0	0
19.33086	-0.02039191	0.01967976	0	0	0	0	0	0
19.34712	-0.02039191	0.01967976	0	0	0	0	0	0
19.36369	-0.02039191	0.01967976	0	0	0	0	0	0
19.38025	-0.02039191	0.01967976	0	0	0	0	0	0
19.39691	-0.02039191	0.01967976	0	0	0	0	0	0
19.41342	-0.02039191	0.01967976	0	0	0	0	0	0
19.42995	-0.02039191	0.01967976	0	0	0	0	0	0
19.44652	-0.02039191	0.01967976	0	0	0	0	0	0
19.46309	-0.02039191	0.01967976	0	0	0	0	0	0
19.47965	-0.02039191	0.01967976	0	0	0	0	0	0
19.49967	-0.02039191	0.01967976	0	0	0	0	0	0
19.51624	-0.02039191	0.01967976	0	0	0	0	0	0
19.58251	-0.02039191	0.01967976	0	0	0	0	0	0
19.61564	-0.02039191	0.01967976	0	0	0	0	0	0
19.63221	-0.02039191	0.01967976	0	0	0	0	0	0
19.64909	-0.02039191	0.01967976	0	0	0	0	0	0
19.66534	-0.02039191	0.01967976	0	0	0	0	0	0
19.68191	-0.02039191	0.01967976	0	0	0	0	0	0
19.69847	-0.02039191	0.01967976	0	0	0	0	0	0
19.71513	-0.02039191	0.01967976	0	0	0	0	0	0
19.77185	-0.02039191	0.01967976	0	0	0	0	0	0
19.78842	-0.02039191	0.01967976	0	0	0	0	0	0
19.80499	-0.02039191	0.01967976	0	0	0	0	0	0
19.82171	-0.02039191	0.01967976	0	0	0	0	0	0
19.83812	-0.02039191	0.01967976	0	0	0	0	0	0
19.85469	-0.02039191	0.01967976	0	0	0	0	0	0
19.87125	-0.02039191	0.01967976	0	0	0	0	0	0
19.88785	-0.02039191	0.01967976	0	0	0	0	0	0
19.90439	-0.02039191	0.01967976	0	0	0	0	0	0
19.92095	-0.02039191	0.01967976	0	0	0	0	0	0
19.93752	-0.02039191	0.01967976	0	0	0	0	0	0
19.95431	-0.02039191	0.01967976	0	0	0	0	0	0
19.97066	-0.02039191	0.01967976	0	0	0	0	0	0
19.98722	-0.02039191	0.01967976	0	0	0	0	0	0
20.00385	-0.02039191	0.01967976	0	0	0	0	0	0
20.02035	-0.02039191	0.01967976	0	0	0	0	0	0
20.03692	-0.02039191	0.01967976	0	0	0	0	0	0
20.05349	-0.02039191	0.01967976	0	0	0	0	0	0
20.08962	-0.02039191	0.01967976	0	0	0	0	0	0
20.10641	-0.02039191	0.01967976	0	0	0	0	0	0
20.12292	-0.02039191	0.01967976	0	0	0	0	0	0
20.13932	-0.02039191	0.01967976	0	0	0	0	0	0
20.15595	-0.02039191	0.01967976	0	0	0	0	0	0
20.17246	-0.02039191	0.01967976	0	0	0	0	0	0
20.18902	-0.02039191	0.01967976	0	0	0	0	0	0
20.20599	-0.02039191	0.01967976	0	0	0	0	0	0
20.22215	-0.02039191	0.01967976	0	0	0	0	0	0
20.23872	-0.02039191	0.01967976	0	0	0	0	0	0
20.25529	-0.02039191	0.01967976	0	0	0	0	0	0
20.27185	-0.02039191	0.01967976	0	0	0	0	0	0
20.32351	-0.02039191	0.01967976	0	0	0	0	0	0
20.34008	-0.02039191	0.01967976	0	0	0	0	0	0
20.45604	-0.02039191	0.01967976	0	0	0	0	0	0
20.47268	-0.02039191	0.01967976	0	0	0	0	0	0
20.48917	-0.02039191	0.01967976	0	0	0	0	0	0
20.50619	-0.02039191	0.01967976	0	0	0	0	0	0
20.52231	-0.02039191	0.01967976	0	0	0	0	0	0
20.53887	-0.02039191	0.01967976	0	0	0	0	0	0
20.55573	-0.02039191	0.01967976	0	0	0	0	0	0
20.57201	-0.02039191	0.01967976	0	0	0	0	0	0
20.58875	-0.02039191	0.01967976	0	0	0	0	0	0
20.60526	-0.02039191	0.01967976	0	0	0	0	0	0
20.62171	-0.02039191	0.01967976	0	0	0	0	0	0
20.63829	-0.02039191	0.01967976	0	0	0	0	0	0
20.65484	-0.02039191	0.01967976	0	0	0	0	0	0
20.67141	-0.02039191	0.01967976	0	0	0	0	0	0
20.68797	-0.02039191	0.01967976	0	0	0	0	0	0
20.70484	-0.02039191	0.01967976	0	0	0	0	0	0
20.72111	-0.02039191	0.01967976	0	0	0	0	0	0
20.73767	-0.02039191	0.01967976	0	0	0	0	0	0
20.75437	-0.02039191	0.01967976	0	0	0	0	0	0
20.77081	-0.02039191	0.01967976	0	0	0	0	0	0
20.78737	-0.02039191	0.01967976	0	0	0	0	0	0
20.80441	-0.02039191	0.01967976	0	0	0	0	0	0
20.82051	-0.02039191	0.01967976	0	0	0	0	0	0
20.83707	-0.02039191	0.01967976	0	0	0	0	0	0
20.85394	-0.02039191	0.01967976	0	0	0	0	0	0
20.87021	-0.02039191	0.01967976	0	0	0	0	0	0
20.88677	-0.02039191	0.01967976	0	0	0	0	0	0
20.90334	-0.02039191	0.01967976	0	0	0	0	0	0
20.91998	-0.02039191	0.01967976	0	0	0	0	0	0
20.93647	-0.02039191	0.01967976	0	0	0	0	0	0
20.95304	-0.02039191	0.01967976	0	0	0	0	0	0
20.96961	-0.02039191	0.01967976	0	0	0	0	0	0
20.98654	-0.02039191	0.01967976	0	0	0	0	0	0
21.00274	-0.02039191	0.01967976	0	0	0	0	0	0
21.01956	-0.02039191	0.01967976	0	0	0	0	0	0
21.0541	-0.02039191	0.01967976	0	0	0	0	0	0
21.07067	-0.02039191	0.01967976	0	0	0	0	0	0
21.08723	-0.02039191	0.01967976	0	0	0	0	0	0
21.18663	-0.02039191	0.01967976	0	0	0	0	0	0
21.2032	-0.02039191	0.01967976	0	0	0	0	0	0
21.21977	-0.02039191	0.01967976	0	0	0	0	0	0
21.23633	-0.02039191	0.01967976	0	0	0	0	0	0
21.2529	-0.02039191	0.01967976	0	0	0	0	0	0
21.26946	-0.02039191	0.01967976	0	0	0	0	0	0
21.28624	-0.02039191	0.01967976	0	0	0	0	0	0
21.3026	-0.02039191	0.01967976	0	0	0	0	0	0
21.31916	-0.02039191	0.01967976	0	0	0	0	0	0
21.33578	-0.02039191	0.01967976	0	0	0	0	0	0
21.3523	-0.02039191	0.01967976	0	0	0	0	0	0
21.36886	-0.02039191	0.01967976	0	0	0	0	0	0
21.38543	-0.02039191	0.01967976	0	0	0	0	0	0
21.402	-0.02039191	0.01967976	0	0	0	0	0	0
21.41856	-0.02039191	0.01967976	0	0	0	0	0	0
21.43535	-0.02039191	0.01967976	0	0	0	0	0	0
21.4517	-0.02039191	0.01967976	0	0	0	0	0	0
21.46826	-0.02039191	0.01967976	0	0	0	0	0	0
21.48483	-0.02039191	0.01967976	0	0	0	0	0	0
21.5014	-0.02039191	0.01967976	0	0	0	0	0	0
21.51797	-0.02039191	0.01967976	0	0	0	0	0	0
21.53453	-0.02039191	0.01967976	0	0	0	0	0	0
21.5511	-0.02039191	0.01967976	0	0	0	0	0	0
21.56767	-0.02039191	0.01967976	0	0	0	0	0	0
21.58423	-0.02039191	0.01967976	0	0	0	0	0	0
21.60097	-0.02039191	0.01967976	0	0	0	0	0	0
21.61737	-0.02039191	0.01967976	0	0	0	0	0	0
21.63399	-0.02039191	0.01967976	0	0	0	0	0	0
21.6505	-0.02039191	0.01967976	0	0	0	0	0	0
21.66707	-0.02039191	0.01967976	0	0	0	0	0	0
21.68363	-0.02039191	0.01967976	0	0	0	0	0	0
21.7002	-0.02039191	0.01967976	0	0	0	0	0	0
21.71677	-0.02039191	0.01967976	0	0	0	0	0	0
21.73334	-0.02039191	0.01967976	0	0	0	0	0	0
21.7499	-0.02039191	0.01967976	0	0	0	0	0	0
21.76658	-0.02039191	0.01967976	0	0	0	0	0	0
21.78303	-0.02039191	0.01967976	0	0	0	0	0	0
21.7996	-0.02039191	0.01967976	0	0	0	0	0	0
21.83564	-0.02039191	0.01967976	0	0	0	0	0	0
21.85215	-0.02039191	0.01967976	0	0	0	0	0	0
21.86843	-0.02039191	0.01967976	0	0	0	0	0	0
21.88499	-0.02039191	0.01967976	0	0	0	0	0	0
21.90156	-0.02039191	0.01967976	0	0	0	0	0	0
21.91819	-0.02039191	0.01967976	0	0	0	0	0	0
21.93469	-0.02039191	0.01967976	0	0	0	0	0	0
21.95126	-0.02039191	0.01967976	0	0	0	0	0	0
21.96782	-0.02039191	0.01967976	0	0	0	0	0	0
21.98439	-0.02041822	0.01969848	-0.001587842	0.001129691	-0.04792115	0.03409416	0	0
22.00096	-0.02041822	0.01969848	0	0	0.04792115	-0.03409416	0	0
22.01755	-0.02041822	0.01969848	0	0	0	0	0	0
22.03428	-0.02041822	0.01969848	0	0	0	0	0	0
22.05066	-0.02041822	0.01969848	0	0	0	0	0	0
22.0673	-0.02039191	0.01967976	0.001581107	-0.0011249	0.0478805	-0.03406524	0	0
22.08381	-0.02039191	0.01967976	0	0	-0.04769593	0.03393392	0	0
22.10082	-0.02039191	0.01967976	0	0	0	0	0	0
22.11693	-0.02039191	0.01967976	0	0	0	0	0	0
22.13349	-0.02039191	0.01967976	0	0	0	0	0	0
22.15006	-0.02039191	0.01967976	0	0	0	0	0	0
22.16663	-0.02039191	0.01967976	0	0	0	0	0	0
22.18338	-0.02039191	0.01967976	0	0	0	0	0	0
22.19976	-0.02039191	0.01967976	0	0	0	0	0	0
22.21641	-0.02039191	0.01967976	0	0	0	0	0	0
22.2329	-0.02039191	0.01967976	0	0	0	0	0	0
22.24947	-0.02039191	0.01967976	0	0	0	0	0	0
22.26603	-0.02039191	0.01967976	0	0	0	0	0	0
22.28295	-0.02036561	0.01969848	0.001554267	0.001105883	0.04641361	0.03302393	0	0
22.29916	-0.02031299	0.01973591	0.003245441	0.00230898	0.05103973	0.03630955	0	0
22.31598	-0.02026039	0.01977334	0.003128988	0.002226208	-0.00352634	-0.002506439	0	0
22.3323	-0.02023408	0.01979205	0.001611779	0.001146608	-0.04578947	-0.0325824	0	0
22.349	-0.02023408	0.01979205	0	0	-0.04880653	-0.03472061	0	0
22.36543	-0.02018147	0.01975462	0.003202114	-0.002278154	0.09664555	-0.06875879	0	0
22.382	-0.02015517	0.01973591	0.001587729	-0.001129579	-0.048925	0.03480834	0	0
22.39857	-0.02015517	0.01973591	0	0	-0.04791776	0.03409076	0	0
22.4317	-0.02010255	0.01973591	0.001587694	0	0.03194324	0	0	0
22.44827	-0.01994472	0.01984819	0.009527809	0.00677848	0.1597554	0.1363833	0	0
22.46509	-0.01989211	0.01988562	0.003128035	0.00222534	-0.1917	-0.1363856	0	0
22.4814	-0.01962906	0.02007276	0.0161231	0.01146999	0.3921918	0.2790039	0	0
22.49797	-0.01907663	0.02046571	0.03334445	0.02371869	0.5237208	0.3724969	0	0
22.51462	-0.01802436	0.02121408	0.06318042	0.04493339	0.8980733	0.6385702	0	0
22.53114	-0.01670897	0.02211191	0.07965402	0.05436829	0.4966598	0.2844512	0	0
22.56557	-0.007736688	0.02557017	0.2605551	0.1004279	3.550623	0.9040315	0	0
22.58214	0.004789437	0.02381342	0.7560784	-0.1060378	9.715667	-4.048147	0	0
22.59871	0.01597233	0.02132632	0.6750005	-0.1501215	-2.446935	-1.330449	0	0
22.61527	0.02970179	0.01709611	0.8287121	-0.2553361	4.639026	-3.175385	0	0
22.63184	0.03877003	0.01426688	0.5473604	-0.1707727	-8.491213	2.55213	0	0
22.64841	0.04691292	0.009352384	0.4915623	-0.2966734	-1.684085	-3.799911	0	0
22.66497	0.05045713	0.006854926	0.213929	-0.1507469	-8.379472	4.404326	0	0
22.68154	0.05578417	0.003265131	0.3215404	-0.2166804	3.247719	-1.989878	0	0
22.69825	0.06493489	-0.000403799	0.5475479	-0.2195362	6.791209	-0.08581258	0	0
22.71468	0.07985613	-0.001081581	0.9085978	-0.04127212	10.89651	5.380021	0	0
22.73125	0.1082073	-0.001740668	1.711081	-0.03977802	24.32399	0.04528772	0	0
22.74781	0.1314482	-0.002531746	1.402986	-0.04775504	-9.29831	-0.2407472	0	0
22.76438	0.1464441	-0.003492595	0.9051536	-0.05799693	-15.02548	-0.3091186	0	0
22.78094	0.1765886	-0.006546562	1.819529	-0.1843378	27.59591	-3.812975	0	0
22.79783	0.1856784	-0.00826331	0.5384331	-0.1016914	-38.29978	2.470805	0	0
22.81408	0.2005565	-0.01432635	0.9155397	-0.3730962	11.38175	-8.191484	0	0
22.83064	0.2042181	-0.0171067	0.2210157	-0.1678224	-21.163	6.254946	0	0
22.84721	0.2109208	-0.02214401	0.4045744	-0.3040523	5.539812	-4.111425	0	0
22.86388	0.2152698	-0.02542448	0.2608848	-0.1967863	-4.323123	3.227262	0	0
22.88034	0.2179053	-0.02745517	0.1600952	-0.1233538	-3.042011	2.216323	0	0
22.89691	0.2191844	-0.0284995	0.07720218	-0.06303584	-2.509661	1.826183	0	0
22.91348	0.2205378	-0.02986716	0.08169486	-0.08255191	0.1355895	-0.5889962	0	0
22.93004	0.2205128	-0.03030417	-0.001513025	-0.02638147	-2.511364	1.695325	0	0
23.01288	0.2204627	-0.03034218	-0.0006049884	-0.0004588234	0.009135395	0.2607974	0	0
23.07914	0.2204125	-0.03034218	-0.0007562442	0	-0.001014476	0.003077339	0	0
23.09571	0.2204125	-0.03034218	0	0	0.009129819	0	0	0
23.11228	0.2204125	-0.03034218	0	0	0	0	0	0
23.12884	0.2203875	-0.03032318	-0.001511952	0.001147006	-0.04563079	0.0346167	0	0
23.14557	0.2203875	-0.03032318	0	0	0.04540601	-0.03444617	0	0
23.16208	0.2203624	-0.03030417	-0.001518445	0.001151247	-0.04568476	0.03463703	0	0
23.19511	0.2203624	-0.03030417	0	0	0.0306547	-0.02324162	0	0
23.21168	0.2203374	-0.03028517	-0.001512503	0.001146629	-0.03049481	0.02311813	0	0
23.22824	0.2202872	-0.03024717	-0.003025499	0.002294427	-0.04566232	0.03464061	0	0
23.24481	0.2202872	-0.03024717	0	0	0.09132027	-0.06925391	0	0
23.26138	0.2202872	-0.03024717	0	0	0	0	0	0
23.27794	0.2202872	-0.03024717	0	0	0	0	0	0
23.29467	0.2202872	-0.03024717	0	0	0	0	0	0
23.31119	0.2202622	-0.03022817	-0.001517744	0.001150715	-0.04565317	0.03461309	0	0
23.32764	0.2202622	-0.03022817	0	0	0.04603615	-0.03490345	0	0
23.34421	0.2202622	-0.03022817	0	0	0	0	0	0
23.36077	0.2202622	-0.03022817	0	0	0	0	0	0
23.37734	0.2202622	-0.03022817	0	0	0	0	0	0
23.41228	0.2202121	-0.03019016	-0.001434453	0.001087836	-0.02785225	0.02112211	0	0
23.42884	0.220187	-0.03017116	-0.001512851	0.001146893	-0.001522231	0.001146691	0	0
23.44578	0.2201619	-0.03015216	-0.0014798	0.001121837	0.0009864651	-0.0007478388	0	0
23.46198	0.2201369	-0.03013316	-0.001547595	0.001173232	-0.002046159	0.001551191	0	0
23.47854	0.2201118	-0.03011416	-0.001511952	0.001146893	0.001087916	-0.0008039357	0	0
23.49511	0.2200868	-0.03009516	-0.001512851	0.001146893	-2.714469E-05	0	0	0
23.51183	0.2200617	-0.03007616	-0.001499216	0.001136556	0.0004096571	-0.000310562	0	0
23.52824	0.2200366	-0.03005716	-0.001526914	0.001157554	-0.0008359965	0.0006337698	0	0
23.54485	0.2199865	-0.03001916	-0.003018405	0.002288254	-0.04516667	0.03424087	0	0
23.56138	0.2199865	-0.03001916	0	0	0.09109564	-0.06905964	0	0
23.57794	0.2199614	-0.03000016	-0.001513025	0.001147025	-0.0457211	0.03466118	0	0
23.59451	0.2199364	-0.02998116	-0.001512851	0.001146781	5.259895E-06	-7.37861E-06	0	0
23.61108	0.2199364	-0.02998116	0	0	0.04565794	-0.03460991	0	0
23.62765	0.2199113	-0.02996216	-0.001512851	0.001146893	-0.04565794	0.0346133	0	0
23.64421	0.2199113	-0.02996216	0	0	0.04565794	-0.0346133	0	0
23.66078	0.2198863	-0.02994316	-0.001512677	0.001146649	-0.04565005	0.03460394	0	0
23.67735	0.2198612	-0.02996216	-0.001513025	-0.001146913	-1.051567E-05	-0.06921983	0	0
23.69396	0.2198612	-0.02996216	0	0	0.04560282	0.03456813	0	0
23.71048	0.2198612	-0.02996216	0	0	0	0	0	0
23.72705	0.2198612	-0.02996216	0	0	0	0	0	0
23.744	0.2198111	-0.02992416	-0.002957269	0.002241797	-0.08822469	0.06687991	0	0
23.76051	0.2197359	-0.02986716	-0.004553757	0.00345198	-0.04770973	0.0361653	0	0
23.77675	0.2196356	-0.02979116	-0.006175298	0.004680342	-0.04951395	0.03750819	0	0
23.87615	0.2001269	-0.01521504	-0.1962622	0.1466388	-1.643799	1.227603	0	0
23.89272	0.1916451	-0.008923839	-0.5119607	0.3797379	-2.722273	2.010017	0	0
23.90928	0.182601	-0.002249197	-0.5459673	0.4029286	-1.026382	0.6999354	0	0
23.92585	0.1675716	0.008826756	-0.9071746	0.6685458	-10.90189	8.016806	0	0
23.94264	0.161297	0.01342328	-0.3737432	0.2737904	15.99221	-11.83472	0	0
23.95898	0.1525168	0.01982948	-0.537209	0.3919586	-4.933692	3.566531	0	0
23.97555	0.1385281	0.02990231	-0.8443625	0.6079969	-9.332767	6.56426	0	0
23.99217	0.1304911	0.03566426	-0.4834437	0.3465954	10.87377	-7.875513	0	0
24.00869	0.1232666	0.04067302	-0.4375329	0.303342	1.38551	-1.305318	0	0
24.02525	0.1141074	0.04667845	-0.5529755	0.3625717	-3.490291	1.790751	0	0
24.04182	0.1096895	0.04931561	-0.2666643	0.1591795	8.641884	-6.139095	0	0
24.05872	0.09367242	0.05100467	-0.947594	0.09992718	-20.34438	-1.770302	0	0
24.07495	0.08915775	0.05057783	-0.2781751	-0.02629982	20.20426	-3.809757	0	0
24.09151	0.06862889	0.0468828	-1.239267	-0.2230586	-29.30608	-5.999666	0	0
24.10808	0.04788442	0.04389073	-1.252139	-0.1806013	-0.3885031	1.281436	0	0
24.12477	0.03398691	0.04190091	-0.8330055	-0.1192681	12.60521	1.844563	0	0
24.14128	0.01976059	0.03938889	-0.8614795	-0.1521166	-0.8577187	-0.9894887	0	0
24.15779	0.01389384	0.03788086	-0.3553036	-0.0913294	15.32671	1.8406	0	0
24.17435	0.0045526	0.03309208	-0.5640983	-0.2891847	-6.313429	-5.982648	0	0
24.19291	0.003210515	0.03206643	-0.07232387	-0.05527129	14.00421	6.661125	0	0
24.20948	0.003263146	0.03210374	0.003176456	0.002251254	2.149431	1.637618	0	0
24.22604	0.003263146	0.03210374	0	0	-0.09586563	-0.06794297	0	0
24.24261	0.003289462	0.03208508	0.001588221	-0.001125739	0.0479326	-0.03397488	0	0
24.25917	0.003315777	0.03206643	0.00158877	-0.001125903	1.655971E-05	-4.947182E-06	0	0
24.27574	0.003342093	0.03204778	0.001588221	-0.001125739	-1.655971E-05	4.947182E-06	0	0
24.29231	0.003394724	0.03201048	0.003177187	-0.002251772	0.0479551	-0.03398373	0	0
24.30887	0.003447355	0.03197318	0.003177173	-0.002251772	-4.286868E-07	0	0	0
24.32544	0.003526301	0.03195453	0.004765211	-0.001125869	0.04792984	0.03398178	0	0
24.34201	0.003631563	0.03202913	0.006353615	0.004503251	0.04793812	0.1698872	0	0
24.35893	0.003842086	0.03217833	0.01243941	0.008816027	0.1817136	0.1287737	0	0
24.37514	0.003973663	0.03227159	0.008116749	0.005752515	-0.1304581	-0.09245697	0	0
24.39196	0.004026294	0.03227159	0.003130318	0	-0.1509949	-0.1741928	0	0
24.40828	0.004052609	0.03225294	0.001612509	-0.001142747	-0.04581018	-0.03449016	0	0
24.42498	0.004157871	0.03217833	0.006301382	-0.004466006	0.1419845	-0.1006321	0	0
24.44141	0.004263132	0.03210374	0.006406665	-0.004540437	0.003177454	-0.002246341	0	0
24.458	0.004289447	0.03208508	0.00158603	-0.001124186	-0.1459828	0.103454	0	0
24.47454	0.004289447	0.03208508	0	0	-0.04786924	0.03392996	0	0
24.49111	0.004289447	0.03208508	0	0	0	0	0	0
24.50768	0.004289447	0.03208508	0	0	0	0	0	0
24.52455	0.004289447	0.03208508	0	0	0	0	0	0
24.5906	0.004315763	0.03206643	0.0003984312	-0.0002823537	0.004804892	-0.003405052	0	0
24.60711	0.004315763	0.03206643	0	0	-0.004825983	0.003419999	0	0
24.62364	0.004315763	0.03206643	0	0	0	0	0	0
24.64021	0.004315763	0.03206643	0	0	0	0	0	0
24.65678	0.004315763	0.03206643	0	0	0	0	0	0
24.67335	0.004315763	0.03206643	0	0	0	0	0	0
24.68991	0.004315763	0.03206643	0	0	0	0	0	0
24.70648	0.004315763	0.03206643	0	0	0	0	0	0
24.7232	0.004315763	0.03206643	0	0	0	0	0	0
24.77275	0.004315763	0.03206643	0	0	0	0	0	0
24.78931	0.004315763	0.03206643	0	0	0	0	0	0
24.80588	0.004315763	0.03206643	0	0	0	0	0	0
24.82277	0.004315763	0.03206643	0	0	0	0	0	0
24.83901	0.004315763	0.03206643	0	0	0	0	0	0
24.85579	0.004315763	0.03206643	0	0	0	0	0	0
24.87214	0.004315763	0.03206643	0	0	0	0	0	0
24.88882	0.004315763	0.03206643	0	0	0	0	0	0
24.90532	0.004315763	0.03206643	0	0	0	0	0	0
24.92184	0.004315763	0.03206643	0	0	0	0	0	0
24.93841	0.004315763	0.03206643	0	0	0	0	0	0
24.95498	0.004315763	0.03206643	0	0	0	0	0	0
24.99086	0.004315763	0.03206643	0	0	0	0	0	0
25.00742	0.004315763	0.03206643	0	0	0	0	0	0
25.02399	0.004315763	0.03206643	0	0	0	0	0	0
25.04055	0.004315763	0.03206643	0	0	0	0	0	0
25.05712	0.004315763	0.03206643	0	0	0	0	0	0
25.07369	0.004315763	0.03206643	0	0	0	0	0	0
25.09045	0.004315763	0.03206643	0	0	0	0	0	0
25.10682	0.004315763	0.03206643	0	0	0	0	0	0
25.12348	0.004315763	0.03206643	0	0	0	0	0	0
25.13996	0.004315763	0.03206643	0	0	0	0	0	0
25.15652	0.004315763	0.03206643	0	0	0	0	0	0
25.17309	0.004315763	0.03206643	0	0	0	0	0	0
25.24482	0.004315763	0.03206643	0	0	0	0	0	0
25.26139	0.004315763	0.03206643	0	0	0	0	0	0
25.27796	0.004315763	0.03206643	0	0	0	0	0	0
25.2946	0.004315763	0.03206643	0	0	0	0	0	0
25.31109	0.004315763	0.03206643	0	0	0	0	0	0
25.32766	0.004315763	0.03206643	0	0	0	0	0	0
25.34422	0.004315763	0.03206643	0	0	0	0	0	0
25.36079	0.004315763	0.03206643	0	0	0	0	0	0
25.37736	0.004315763	0.03206643	0	0	0	0	0	0
25.39392	0.004315763	0.03206643	0	0	0	0	0	0
25.41049	0.004315763	0.03206643	0	0	0	0	0	0
25.42706	0.004315763	0.03206643	0	0	0	0	0	0
25.4437	0.004315763	0.03206643	0	0	0	0	0	0
25.46022	0.004315763	0.03206643	0	0	0	0	0	0
25.47676	0.004315763	0.03206643	0	0	0	0	0	0
25.49332	0.004315763	0.03206643	0	0	0	0	0	0
25.51025	0.004315763	0.03206643	0	0	0	0	0	0
25.52676	0.004315763	0.03206643	0	0	0	0	0	0
25.54302	0.004315763	0.03206643	0	0	0	0	0	0
25.55979	0.004315763	0.03206643	0	0	0	0	0	0
25.5763	0.004315763	0.03206643	0	0	0	0	0	0
25.59281	0.004315763	0.03206643	0	0	0	0	0	0
25.60929	0.004315763	0.03206643	0	0	0	0	0	0
25.62585	0.004315763	0.03206643	0	0	0	0	0	0
25.64242	0.004315763	0.03206643	0	0	0	0	0	0
25.65899	0.004315763	0.03206643	0	0	0	0	0	0
25.67556	0.004315763	0.03206643	0	0	0	0	0	0
25.77821	0.004315763	0.03206643	0	0	0	0	0	0
25.79478	0.004315763	0.03206643	0	0	0	0	0	0
25.81446	0.004315763	0.03206643	0	0	0	0	0	0
25.83103	0.004315763	0.03206643	0	0	0	0	0	0
25.84759	0.004315763	0.03206643	0	0	0	0	0	0
25.86416	0.004315763	0.03206643	0	0	0	0	0	0
25.88073	0.004315763	0.03206643	0	0	0	0	0	0
25.89729	0.004315763	0.03206643	0	0	0	0	0	0
25.91386	0.004315763	0.03206643	0	0	0	0	0	0
25.93042	0.004315763	0.03206643	0	0	0	0	0	0
25.94699	0.004315763	0.03206643	0	0	0	0	0	0
25.96356	0.004315763	0.03206643	0	0	0	0	0	0
25.98013	0.004315763	0.03206643	0	0	0	0	0	0
25.99669	0.004315763	0.03206643	0	0	0	0	0	0
26.01361	0.004315763	0.03206643	0	0	0	0	0	0
26.03012	0.004315763	0.03206643	0	0	0	0	0	0
26.04639	0.004315763	0.03206643	0	0	0	0	0	0
26.06314	0.004315763	0.03206643	0	0	0	0	0	0
26.07952	0.004315763	0.03206643	0	0	0	0	0	0
26.09609	0.004315763	0.03206643	0	0	0	0	0	0
26.11266	0.004315763	0.03206643	0	0	0	0	0	0
26.12923	0.004315763	0.03206643	0	0	0	0	0	0
26.14579	0.004315763	0.03206643	0	0	0	0	0	0
26.16236	0.004315763	0.03206643	0	0	0	0	0	0
26.17893	0.004315763	0.03206643	0	0	0	0	0	0
26.19549	0.004315763	0.03206643	0	0	0	0	0	0
26.21226	0.004315763	0.03206643	0	0	0	0	0	0
26.22876	0.004315763	0.03206643	0	0	0	0	0	0
26.24519	0.004315763	0.03206643	0	0	0	0	0	0
26.26178	0.004315763	0.03206643	0	0	0	0	0	0
26.27833	0.004315763	0.03206643	0	0	0	0	0	0
26.29489	0.004315763	0.03206643	0	0	0	0	0	0
26.31182	0.004315763	0.03206643	0	0	0	0	0	0
26.32833	0.004315763	0.03206643	0	0	0	0	0	0
26.34459	0.004315763	0.03206643	0	0	0	0	0	0
26.36116	0.004342078	0.03204778	0.001588376	-0.001125869	0.0483857	-0.03429664	0	0
26.37787	0.004315763	0.03202913	-0.001574958	-0.001116135	-0.09506465	0.0002925181	0	0
26.39429	0.004315763	0.03202913	0	0	0.04753232	0.03368502	0	0
26.41086	0.004315763	0.03202913	0	0	0	0	0	0
26.42743	0.004315763	0.03202913	0	0	0	0	0	0
26.44399	0.004315763	0.03202913	0	0	0	0	0	0
26.46056	0.004315763	0.03202913	0	0	0	0	0	0
26.52683	0.004315763	0.03202913	0	0	0	0	0	0
26.5931	0.004315763	0.03202913	0	0	0	0	0	0
26.60966	0.004315763	0.03202913	0	0	0	0	0	0
26.62623	0.004315763	0.03202913	0	0	0	0	0	0
26.64467	0.004315763	0.03202913	0	0	0	0	0	0
26.66157	0.004315763	0.03202913	0	0	0	0	0	0
26.67781	0.004315763	0.03202913	0	0	0	0	0	0
26.69437	0.004315763	0.03202913	0	0	0	0	0	0
26.71094	0.004315763	0.03202913	0	0	0	0	0	0
26.72762	0.004315763	0.03202913	0	0	0	0	0	0
26.74413	0.004315763	0.03202913	0	0	0	0	0	0
26.76064	0.004315763	0.03202913	0	0	0	0	0	0
26.77721	0.004315763	0.03202913	0	0	0	0	0	0
26.79378	0.004315763	0.03202913	0	0	0	0	0	0
26.81034	0.004315763	0.03202913	0	0	0	0	0	0
26.82691	0.004315763	0.03202913	0	0	0	0	0	0
26.84348	0.004315763	0.03202913	0	0	0	0	0	0
26.86022	0.004315763	0.03202913	0	0	0	0	0	0
26.87661	0.004315763	0.03202913	0	0	0	0	0	0
26.89318	0.004315763	0.03202913	0	0	0	0	0	0
26.90975	0.004315763	0.03202913	0	0	0	0	0	0
26.92631	0.004315763	0.03202913	0	0	0	0	0	0
26.94288	0.004315763	0.03202913	0	0	0	0	0	0
26.95945	0.004315763	0.03202913	0	0	0	0	0	0
26.97602	0.004315763	0.03202913	0	0	0	0	0	0
26.99258	0.004315763	0.03202913	0	0	0	0	0	0
27.00933	0.004315763	0.03202913	0	0	0	0	0	0
27.02571	0.004315763	0.03202913	0	0	0	0	0	0
27.04235	0.004315763	0.03202913	0	0	0	0	0	0
27.05886	0.004315763	0.03202913	0	0	0	0	0	0
27.07541	0.004315763	0.03202913	0	0	0	0	0	0
27.09238	0.004315763	0.03202913	0	0	0	0	0	0
27.10855	0.004315763	0.03202913	0	0	0	0	0	0
27.12511	0.004315763	0.03202913	0	0	0	0	0	0
27.14192	0.004315763	0.03202913	0	0	0	0	0	0
27.17481	0.004315763	0.03202913	0	0	0	0	0	0
27.20797	0.004315763	0.03202913	0	0	0	0	0	0
27.22452	0.004315763	0.03202913	0	0	0	0	0	0
27.24108	0.004315763	0.03202913	0	0	0	0	0	0
27.25765	0.004315763	0.03202913	0	0	0	0	0	0
27.27451	0.004315763	0.03202913	0	0	0	0	0	0
27.29078	0.004315763	0.03202913	0	0	0	0	0	0
27.30735	0.004315763	0.03202913	0	0	0	0	0	0
27.32391	0.004315763	0.03202913	0	0	0	0	0	0
27.34056	0.004315763	0.03202913	0	0	0	0	0	0
27.35705	0.004315763	0.03202913	0	0	0	0	0	0
27.37361	0.004315763	0.03202913	0	0	0	0	0	0
27.39178	0.004315763	0.03202913	0	0	0	0	0	0
27.40834	0.004315763	0.03202913	0	0	0	0	0	0
27.42512	0.004315763	0.03202913	0	0	0	0	0	0
27.44148	0.004315763	0.03202913	0	0	0	0	0	0
27.45814	0.004315763	0.03202913	0	0	0	0	0	0
27.47465	0.004315763	0.03202913	0	0	0	0	0	0
27.49118	0.004315763	0.03202913	0	0	0	0	0	0
27.50775	0.004315763	0.03202913	0	0	0	0	0	0
27.52431	0.004315763	0.03202913	0	0	0	0	0	0
27.54088	0.004315763	0.03202913	0	0	0	0	0	0
27.55771	0.004315763	0.03202913	0	0	0	0	0	0
27.57401	0.004315763	0.03202913	0	0	0	0	0	0
27.59074	0.004315763	0.03202913	0	0	0	0	0	0
27.60715	0.004315763	0.03202913	0	0	0	0	0	0
27.62376	0.004315763	0.03202913	0	0	0	0	0	0
27.64028	0.004315763	0.03202913	0	0	0	0	0	0
27.65685	0.004315763	0.03202913	0	0	0	0	0	0
27.67342	0.004315763	0.03202913	0	0	0	0	0	0
27.69081	0.004315763	0.03202913	0	0	0	0	0	0
27.70657	0.004315763	0.03202913	0	0	0	0	0	0
27.72334	0.004315763	0.03202913	0	0	0	0	0	0
27.73969	0.004315763	0.03202913	0	0	0	0	0	0
27.75686	0.004315763	0.03202913	0	0	0	0	0	0
27.77287	0.004315763	0.03202913	0	0	0	0	0	0
27.78938	0.004315763	0.03202913	0	0	0	0	0	0
27.80639	0.004315763	0.03202913	0	0	0	0	0	0
27.82252	0.004315763	0.03202913	0	0	0	0	0	0
27.83908	0.004315763	0.03202913	0	0	0	0	0	0
27.85593	0.004315763	0.03202913	0	0	0	0	0	0
27.87222	0.004315763	0.03202913	0	0	0	0	0	0
27.88895	0.004315763	0.03202913	0	0	0	0	0	0
27.90535	0.004315763	0.03202913	0	0	0	0	0	0
27.92197	0.004315763	0.03202913	0	0	0	0	0	0
27.93848	0.004315763	0.03202913	0	0	0	0	0	0
27.95505	0.004315763	0.03202913	0	0	0	0	0	0
27.97162	0.004315763	0.03202913	0	0	0	0	0	0
27.98818	0.004315763	0.03202913	0	0	0	0	0	0
28.00475	0.004315763	0.03202913	0	0	0	0	0	0
28.02132	0.004315763	0.03202913	0	0	0	0	0	0
28.03806	0.004315763	0.03202913	0	0	0	0	0	0
28.05445	0.004315763	0.03202913	0	0	0	0	0	0
28.07102	0.004315763	0.03202913	0	0	0	0	0	0
28.08759	0.004315763	0.03202913	0	0	0	0	0	0
28.12186	0.004315763	0.03202913	0	0	0	0	0	0
28.13863	0.004315763	0.03202913	0	0	0	0	0	0
28.15514	0.004315763	0.03202913	0	0	0	0	0	0
28.17156	0.004315763	0.03202913	0	0	0	0	0	0
28.18816	0.004315763	0.03202913	0	0	0	0	0	0
28.20469	0.004315763	0.03202913	0	0	0	0	0	0
28.22126	0.004315763	0.03202913	0	0	0	0	0	0
28.2382	0.004315763	0.03202913	0	0	0	0	0	0
28.25439	0.004315763	0.03202913	0	0	0	0	0	0
28.27122	0.004315763	0.03202913	0	0	0	0	0	0
28.28753	0.004315763	0.03202913	0	0	0	0	0	0
28.30409	0.004315763	0.03202913	0	0	0	0	0	0
28.33722	0.004315763	0.03202913	0	0	0	0	0	0
28.42032	0.004315763	0.03202913	0	0	0	0	0	0
28.43662	0.004315763	0.03202913	0	0	0	0	0	0
28.45319	0.004342078	0.03204778	0.001588193	0.001125514	0.04832117	0.03424406	0	0
28.46976	0.004368393	0.03206643	0.001588587	0.001125998	1.18859E-05	1.460881E-05	0	0
28.48638	0.004421024	0.03214104	0.003165482	0.004487012	0.04750875	0.1012607	0	0
28.50289	0.004868383	0.03245808	0.02710562	0.0192096	0.722598	0.4443799	0	0
28.51945	0.004999958	0.03258862	0.007941934	0.007879283	-0.5794619	-0.3426006	0	0
28.53602	0.005289424	0.03283104	0.01747219	0.01463247	0.2876236	0.2038117	0	0
28.55259	0.005447315	0.03298021	0.009530282	0.009004028	-0.2396872	-0.1698668	0	0
28.56943	0.005920983	0.03335311	0.02812126	0.02213881	0.5564325	0.3931271	0	0
28.58572	0.006368335	0.03374461	0.02746382	0.02403533	-0.01984281	0.05724047	0	0
28.60245	0.008947129	0.03560837	0.1541303	0.1113934	3.836051	2.645608	0	0
28.61886	0.01086799	0.03704281	0.117103	0.08744913	-1.117485	-0.7226385	0	0
28.63542	0.02144408	0.04463432	0.6383739	0.4582246	15.81025	11.2457	0	0
28.65199	0.0264938	0.04820153	0.3048016	0.2153173	-10.06723	-7.330956	0	0
28.66856	0.03682545	0.0554929	0.6236196	0.4401075	9.621946	6.78418	0	0
28.68513	0.04439187	0.0608276	0.4567102	0.3220032	-5.037337	-3.564393	0	0
28.70169	0.05350152	0.06724575	0.5498598	0.3874005	2.81126	1.973694	0	0
28.71826	0.05937749	0.0713466	0.3547147	0.247556	-5.889828	-4.22076	0	0
28.73483	0.06451561	0.07496379	0.3101017	0.2183093	-1.346423	-0.882665	0	0
28.75156	0.07082869	0.07940721	0.3772797	0.2655453	2.017218	1.4184	0	0
28.76796	0.07404857	0.08167322	0.1963644	0.1381927	-5.460665	-3.843951	0	0
28.78458	0.0815294	0.08693757	0.449938	0.3166267	7.678503	5.403188	0	0
28.80109	0.08424748	0.0888503	0.1646325	0.1158531	-8.610042	-6.059012	0	0
28.81766	0.0893927	0.09250794	0.3106373	0.2208264	4.414566	3.173947	0	0
28.83422	0.09729706	0.0980714	0.4771084	0.3358107	5.024688	3.470633	0	0
28.85079	0.1035754	0.1024916	0.3789607	0.2668046	-2.962106	-2.082608	0	0
28.86736	0.1118471	0.1083177	0.4992782	0.3516628	3.631191	2.561025	0	0
28.88393	0.118443	0.1129661	0.3980868	0.2805458	-3.053789	-2.14619	0	0
28.9005	0.1264791	0.1186333	0.4850608	0.3420744	2.624731	1.856828	0	0
28.91706	0.1303618	0.1213732	0.2343831	0.1653979	-7.565904	-5.332414	0	0
28.93537	0.1374695	0.1263924	0.3882208	0.274146	4.411248	3.118319	0	0
28.95194	0.1390185	0.1274869	0.0934847	0.06605326	-8.450541	-5.966341	0	0
28.96851	0.1409538	0.1288181	0.1168124	0.0803556	0.703992	0.4316205	0	0
28.98507	0.1451045	0.1316801	0.2505117	0.1727303	4.03482	2.787713	0	0
29.00164	0.1458001	0.1321357	0.04198567	0.02749845	-6.292966	-4.382853	0	0
29.01826	0.1458774	0.132081	0.004652519	-0.00329004	-1.125162	-0.9279166	0	0
29.03477	0.1459289	0.1320082	0.003118685	-0.00441325	-0.04629653	-0.03390246	0	0
29.05134	0.1456971	0.1315525	-0.01399432	-0.02750025	-0.5172457	-0.6978114	0	0
29.06791	0.1453622	0.1311334	-0.02021482	-0.02530203	-0.187735	0.06634244	0	0
29.18388	0.1442026	0.1269579	-0.009998936	-0.03600488	0.07708012	-0.08075434	0	0
29.20044	0.1438676	0.1267208	-0.02022381	-0.01431362	-0.07714798	0.1636632	0	0
29.2174	0.1437129	0.1266478	-0.009120002	-0.004302982	0.3312053	0.2985981	0	0
29.23391	0.1436871	0.1266661	-0.001561778	0.00110498	0.2258584	0.1616033	0	0
29.25014	0.1436356	0.1266661	-0.003174373	0	-0.04924939	-0.0337466	0	0
29.26671	0.1435582	0.1266113	-0.004669147	-0.003303489	-0.04557145	-0.1007141	0	0
29.28328	0.1430684	0.1262282	-0.02956446	-0.0231236	-0.7514285	-0.598241	0	0
29.29995	0.1382699	0.1227973	-0.2877169	-0.2057165	-7.765131	-5.492328	0	0
29.31641	0.122826	0.111777	-0.9384666	-0.6696625	-19.63966	-14.00192	0	0
29.33298	0.1064643	0.1001628	-0.9877028	-0.7011123	-1.491017	-0.9523913	0	0
29.34954	0.08158168	0.08263085	-1.501747	-1.058109	-15.51389	-10.77419	0	0
29.36611	0.06855032	0.07348777	-0.7867558	-0.5520048	21.57973	15.27515	0	0
29.38268	0.04347259	0.05580799	-1.513695	-1.067153	-21.94158	-15.549	0	0
29.39924	0.02049713	0.03957502	-1.386642	-0.9797113	3.834233	2.63885	0	0
29.41605	0.004710491	0.02846506	-0.9395782	-0.661235	13.39679	9.543511	0	0
29.43256	-0.009552341	0.01848178	-0.8638901	-0.6046804	2.272109	1.697735	0	0
29.44894	-0.0137886	0.0154663	-0.2585286	-0.1840276	18.40226	12.78734	0	0
29.46551	-0.0272827	0.005915557	-0.8145056	-0.576484	-16.87168	-11.90948	0	0
29.48208	-0.03629984	-0.0004602755	-0.5442753	-0.384846	8.155568	5.783645	0	0
29.49864	-0.03735104	-0.001213388	-0.06345093	-0.04545796	14.51131	10.24275	0	0
29.51521	-0.03601074	-0.0002531995	0.08090066	0.0579571	4.35654	3.121073	0	0
29.53178	-0.03527484	0.0002738452	0.04442443	0.03181614	-1.100918	-0.7889811	0	0
29.54834	-0.03524855	0.0002926667	0.001586605	0.001136067	-1.292922	-0.9259797	0	0
29.56491	-0.03527484	0.0003114881	-0.001586605	0.001136061	-0.09576766	-1.58104E-07	0	0
29.59805	-0.03527484	0.0003114881	0	0	0.03192133	-0.02285672	0	0
29.61461	-0.03527484	0.0003114881	0	0	0	0	0	0
29.63118	-0.03527484	0.0003114881	0	0	0	0	0	0
29.64775	-0.0353274	0.0004244141	-0.00317276	0.006816229	-0.09575409	0.2057142	0	0
29.66431	-0.03514342	0.001083073	0.01110511	0.03975674	0.430907	0.9941465	0	0
29.68088	-0.03456518	0.002324763	0.03490283	0.07494856	0.7182167	1.062091	0	0
29.69745	-0.03311946	0.004900746	0.08725345	0.1554687	1.579854	2.429964	0	0
29.71402	-0.03309318	0.007023985	0.001586788	0.1281737	-2.585425	-0.8237659	0	0
29.73059	-0.03193651	0.008413705	0.06980865	0.08387404	2.05894	-1.336966	0	0
29.74715	-0.02704603	0.02336475	0.2952236	0.9025505	6.803036	24.7077	0	0
29.76379	-0.02712492	0.0314136	-0.00474001	0.4836028	-9.03264	-12.61554	0	0
29.78028	-0.02691455	0.04753293	0.01275687	0.9774663	0.5280569	14.90483	0	0
29.8001	-0.02680936	0.0653602	0.005309371	0.8998386	-0.2051508	-2.138355	0	0
29.81667	-0.02654639	0.07145737	0.01587108	0.3679834	0.2903102	-14.61913	0	0
29.83335	-0.02559967	0.08134168	0.05675888	0.5925931	1.229749	6.755401	0	0
29.84986	-0.02499479	0.08728707	0.03663266	0.3600663	-0.6063636	-7.005575	0	0
29.86637	-0.02815046	0.09331626	-0.1911363	0.3651843	-6.897506	0.1549883	0	0
29.88293	-0.03225197	0.09618095	-0.2475963	0.1729329	-1.707014	-5.812531	0	0
29.91607	-0.03693057	0.09944744	-0.1411842	0.09857132	2.140935	-1.4961	0	0
29.93264	-0.03898025	0.1008781	-0.1237188	0.08635394	0.3513778	-0.2457955	0	0
29.9492	-0.04187025	0.1028949	-0.1744813	0.121764	-1.532192	1.0688	0	0
29.96594	-0.04672911	0.1063581	-0.2902738	0.2068977	-3.477014	2.556392	0	0
29.98234	-0.05229438	0.1104228	-0.3394375	0.2479137	-1.483762	1.237866	0	0
29.9989	-0.05623014	0.1140818	-0.2376171	0.2209046	3.089306	-0.8194757	0	0
30.01547	-0.05859076	0.1212088	-0.1424875	0.4301907	2.871347	6.316994	0	0
30.03249	-0.0577515	0.1303678	0.04929573	0.5379724	5.709156	3.20853	0	0
30.0486	-0.05381641	0.1356515	0.2443009	0.328026	5.885607	-6.336559	0	0
30.06517	-0.05213692	0.1365984	0.1013741	0.05715285	-4.374224	-8.289975	0	0
30.08203	-0.05213692	0.1365984	0	0	-3.032765	-1.709818	0	0
30.0983	-0.05213692	0.1365984	0	0	0	0	0	0
30.11505	-0.05218941	0.1366348	-0.003133407	0.002173302	-0.09487771	0.06580631	0	0
30.13156	-0.05216316	0.136653	0.001589805	0.001103047	0.1420155	-0.03217994	0	0
30.148	-0.05221565	0.1366894	-0.003192521	0.002215052	-0.1451413	0.03374882	0	0
30.16459	-0.05221565	0.1368715	0	0.01097541	0.09665649	0.2652278	0	0
30.18113	-0.0513758	0.1382186	0.05076346	0.08142419	1.532133	2.126271	0	0
30.1977	-0.0513758	0.1387282	0	0.03076161	-1.533103	-1.530057	0	0
30.21427	-0.05518077	0.1415121	-0.2296416	0.1680178	-6.930198	4.14216	0	0
30.23083	-0.06137021	0.1460216	-0.3736813	0.2722563	-4.347379	3.146105	0	0
30.2474	-0.07098579	0.1542494	-0.5803977	0.4966325	-6.239429	6.772469	0	0
30.26415	-0.07389154	0.1633357	-0.1734745	0.5424492	12.21347	1.375152	0	0
30.28053	-0.07417943	0.1665063	-0.0175713	0.1935172	4.705168	-10.53079	0	0
30.29717	-0.07192833	0.1844856	0.1353005	1.080634	4.629404	26.86449	0	0
30.31368	-0.06928366	0.1906065	0.1601671	0.3706935	0.7501286	-21.4162	0	0
30.33023	-0.06642843	0.1949187	0.1725409	0.2605824	0.3742829	-3.330638	0	0
30.3468	-0.06289063	0.1979663	0.2135418	0.1839562	1.238123	-2.313913	0	0
30.36337	-0.05788264	0.2016255	0.3023181	0.2208927	2.679428	1.114809	0	0
30.37993	-0.0558104	0.2034094	0.1250803	0.107676	-5.349357	-3.417084	0	0
30.39674	-0.05355401	0.2052469	0.1342337	0.1093138	0.2742474	0.04907222	0	0
30.41307	-0.04911835	0.2091547	0.2717091	0.2393761	4.149016	3.925288	0	0
30.42963	-0.04286846	0.2136544	0.377288	0.2716375	3.210028	0.9808783	0	0
30.4462	-0.03695685	0.217882	0.3568253	0.2551771	-0.6175999	-0.4968041	0	0
30.46279	-0.03385548	0.2205794	0.1869624	0.1626073	-5.12323	-2.791997	0	0
30.47933	-0.03198908	0.2239769	0.1128118	0.2053596	-2.237998	1.290342	0	0
30.4959	-0.03961085	0.2297624	-0.4600506	0.3492123	-17.30097	4.344484	0	0
30.51247	-0.04454945	0.2331386	-0.2980949	0.2037897	4.887835	-4.388863	0	0
30.52934	-0.05344905	0.2392237	-0.5275239	0.3606946	-6.861383	4.692451	0	0
30.5456	-0.05552182	0.2406413	-0.127446	0.08715881	12.07437	-8.255326	0	0
30.6176	-0.07308014	0.2526561	-0.2438768	0.1668802	-1.319169	0.9032494	0	0
30.69206	-0.07287074	0.2525127	0.002812292	-0.001925558	1.684371	-1.152591	0	0
30.70863	-0.07284456	0.2524948	0.001579859	-0.001081122	-0.01353902	0.009276645	0	0
30.72519	-0.07281839	0.2524769	0.001579677	-0.001082796	-5.487648E-06	-5.052361E-05	0	0
30.74199	-0.07268751	0.2523873	0.007793423	-0.005336102	0.1862447	-0.1274844	0	0
30.75837	-0.07250426	0.2522259	0.01118703	-0.009848407	0.1022956	-0.1360172	0	0
30.77501	-0.07224248	0.2520467	0.01573021	-0.01077006	0.1375807	-0.02791024	0	0
30.79146	-0.0722163	0.2520288	0.00159167	-0.001088894	-0.4272677	0.2925654	0	0
30.80803	-0.0722163	0.2520288	0	0	-0.0482004	0.03297489	0	0
30.82459	-0.0722163	0.2520288	0	0	0	0	0	0
30.84116	-0.0722163	0.2520288	0	0	0	0	0	0
30.85807	-0.0722163	0.2520288	0	0	0	0	0	0
30.87429	-0.0722163	0.2519929	0	-0.002210357	0	-0.06671254	0	0
30.90742	-0.0722163	0.2519571	0	-0.001082084	0	0.02286145	0	0
30.94063	-0.07208541	0.2516882	0.00394238	-0.008098395	0.05943247	-0.1057728	0	0
30.96934	-0.07208541	0.2516882	0	0	-0.06367856	0.1308078	0	0
30.9859	-0.07205923	0.2516344	0.001580309	-0.003245165	0.0349034	-0.07167415	0	0
31.00247	-0.07200687	0.2515627	0.003160618	-0.004328086	0.04769382	-0.03268262	0	0
31.01918	-0.07198069	0.2515448	0.001566156	-0.001071744	-0.04791135	0.09784849	0	0
31.0357	-0.07190215	0.2514552	0.004756259	-0.005428506	0.09601221	-0.131125	0	0
31.05217	-0.07187597	0.2514014	0.00158909	-0.003263198	-0.09600534	0.06563628	0	0
31.06874	-0.07187597	0.2514014	0	0	-0.0480945	0.09876207	0	0
31.0853	-0.07184979	0.2513118	0.001580491	-0.00540983	0.0477048	-0.1632878	0	0
31.10187	-0.07187597	0.2512939	-0.001580309	-0.001082921	-0.0953986	0.1305939	0	0
31.11844	-0.07187597	0.251258	0	-0.002164043	0.04769382	-0.03262833	0	0
31.13501	-0.07192833	0.2512222	-0.003160254	-0.002163794	-0.09537116	7.518289E-06	0	0
31.15157	-0.07192833	0.2512222	0	0	0.09538214	0.06530719	0	0
31.16829	-0.07192833	0.2511863	0	-0.002144293	0	-0.06442563	0	0
31.1847	-0.07195451	0.2511684	-0.001595184	-0.001091299	-0.04814553	0.03178127	0	0
31.20132	-0.07195451	0.2511325	0	-0.002157337	0.04829288	-0.03227342	0	0
31.21784	-0.07195451	0.2509891	0	-0.008683162	0	-0.1969498	0	0
31.2344	-0.07161416	0.250541	0.02054593	-0.02705275	0.6210784	-0.5552902	0	0
31.25097	-0.07135235	0.2502542	0.01580491	-0.01731613	-0.1431008	0.2938854	0	0
31.26786	-0.07001694	0.2491964	0.07905833	-0.06261909	1.8906	-1.354073	0	0
31.2841	-0.0694408	0.2487303	0.03546954	-0.02869782	-1.315512	1.023746	0	0
31.3338	-0.0715618	0.2470986	-0.04267612	-0.03283067	-1.185053	-0.06267332	0	0
31.35037	-0.0730278	0.2455205	-0.08848785	-0.09525476	-0.6913202	-0.9420084	0	0
31.36694	-0.07190215	0.2447493	0.06792083	-0.04653423	4.719608	1.470134	0	0
31.3835	-0.06739777	0.2416639	0.271979	-0.1862961	6.158488	-4.218022	0	0
31.40045	-0.06150129	0.2373394	0.3479013	-0.2551574	2.265647	-2.054933	0	0
31.41664	-0.05481346	0.2297444	0.413241	-0.4692905	1.972068	-6.462922	0	0
31.43348	-0.05539065	0.2215143	-0.03427492	-0.4887268	-13.5513	-0.5885546	0	0
31.44977	-0.05717446	0.2159034	-0.1094863	-0.344382	-2.270016	4.356586	0	0
31.46807	-0.06317896	0.2035715	-0.3280967	-0.6738381	-6.319391	-9.523619	0	0
31.48464	-0.06815742	0.197227	-0.3005002	-0.3829519	0.7914519	8.342439	0	0
31.5012	-0.07135235	0.1863279	-0.1928463	-0.6578744	3.249002	-8.297177	0	0
31.51777	-0.07203305	0.1755564	-0.04108713	-0.6501689	4.580099	0.2325527	0	0
31.53434	-0.07190215	0.1673575	0.007901095	-0.4948849	1.478468	4.68648	0	0
31.55091	-0.07093342	0.144331	0.05847233	-1.389884	1.526243	-27.01112	0	0
31.56757	-0.07054066	0.1345588	0.02356895	-0.5864096	-1.050303	24.17792	0	0
31.58408	-0.06980744	0.1105692	0.04440545	-1.452861	0.6280516	-26.11648	0	0
31.60061	-0.06985982	0.1015566	-0.003169911	-0.5454506	-1.440138	27.46792	0	0
31.61717	-0.0702788	0.08943867	-0.02528989	-0.7314379	-0.6684672	-5.620551	0	0
31.63374	-0.07164034	0.07595982	-0.0821828	-0.8135852	-1.717032	-2.479209	0	0
31.65063	-0.07276604	0.06755992	-0.06664267	-0.497286	0.4644569	9.453418	0	0
31.66687	-0.07449348	0.06027224	-0.1063624	-0.4487194	-1.198813	1.465827	0	0
31.76627	-0.08304541	0.02674708	-0.08603427	-0.3372702	0.1757842	0.9637388	0	0
31.78284	-0.08346355	0.02641086	-0.02523617	-0.02029208	0.5242544	2.733263	0	0
31.79941	-0.08372487	0.02626142	-0.01577522	-0.009021369	0.2855318	0.3401509	0	0
31.81598	-0.08372487	0.02626142	0	0	0.4761246	0.2722811	0	0
31.83276	-0.08372487	0.02626142	0	0	0	0	0	0
31.84911	-0.08372487	0.02626142	0	0	0	0	0	0
31.86628	-0.08372487	0.02626142	0	0	0	0	0	0
31.88224	-0.08372487	0.02626142	0	0	0	0	0	0
31.89881	-0.08372487	0.02626142	0	0	0	0	0	0
31.91537	-0.08372487	0.02626142	0	0	0	0	0	0
31.93194	-0.08372487	0.02626142	0	0	0	0	0	0
31.94884	-0.08372487	0.02626142	0	0	0	0	0	0
31.96507	-0.08372487	0.02626142	0	0	0	0	0	0
31.98188	-0.08372487	0.02626142	0	0	0	0	0	0
31.99821	-0.08372487	0.02626142	0	0	0	0	0	0
32.01489	-0.08372487	0.02626142	0	0	0	0	0	0
32.03134	-0.08372487	0.02626142	0	0	0	0	0	0
32.04791	-0.083751	0.02624274	-0.001577161	-0.001127555	-0.04776929	-0.03415157	0	0
32.06447	-0.083751	0.02624274	0	0	0.04760429	0.0340336	0	0
32.08104	-0.08372487	0.02626142	0.001577161	0.001127555	0.04760429	0.0340336	0	0
32.09761	-0.08372487	0.02626142	0	0	-0.04759881	-0.03402968	0	0
32.11417	-0.08372487	0.02626142	0	0	0	0	0	0
32.13074	-0.08372487	0.02626142	0	0	0	0	0	0
32.14731	-0.08372487	0.02626142	0	0	0	0	0	0
32.16399	-0.083751	0.02624274	-0.001565983	-0.001119564	-0.04709338	-0.03366835	0	0
32.1805	-0.083751	0.02624274	0	0	0.04717456	0.03372638	0	0
32.19701	-0.083751	0.02624274	0	0	0	0	0	0
32.21357	-0.083751	0.02620537	0	-0.002255223	0	-0.06819624	0	0
32.23014	-0.083751	0.02620537	0	0	0	0.06807061	0	0
32.2467	-0.08377713	0.02618669	-0.001577161	-0.001127555	-0.04760429	-0.0340336	0	0
32.26588	-0.08377713	0.02618669	0	0	0.04412885	0.03154892	0	0
32.28257	-0.08377713	0.02618669	0	0	0	0	0	0
32.29902	-0.08380327	0.02616801	-0.00158969	-0.001136189	-0.04797141	-0.03428629	0	0
32.31558	-0.08380327	0.02616801	0	0	0.04816546	0.03442499	0	0
32.33215	-0.0838294	0.02614933	-0.001577161	-0.001127668	-0.04760429	-0.034037	0	0
32.34871	-0.0838294	0.02611197	0	-0.002255111	0.04759881	-0.03402629	0	0
32.36528	-0.08388166	0.02607461	-0.003154771	-0.002255335	-0.09521119	-6.78793E-06	0	0
32.38214	-0.08388166	0.02607461	0	0	0.09436381	0.06746037	0	0
32.39841	-0.08390779	0.02609329	-0.001606005	0.001148291	-0.04846931	0.03465549	0	0
32.41498	-0.08390779	0.02609329	0	0	0.04891419	-0.03497358	0	0
32.43155	-0.08390779	0.02609329	0	0	0	0	0	0
32.44811	-0.08393392	0.02607461	-0.001577161	-0.001127668	-0.04759881	-0.03403308	0	0
32.46468	-0.08393392	0.02603724	0	-0.002255223	0.04759881	-0.03402968	0	0
32.48124	-0.08403844	0.02596251	-0.006310546	-0.004511597	-0.1904746	-0.06810535	0	0
32.49823	-0.08427361	0.02579437	-0.01384114	-0.009896301	-0.2244316	-0.1604784	0	0
32.51438	-0.0848223	0.025402	-0.0339877	-0.02430445	-0.6080243	-0.4348389	0	0
32.53094	-0.08492681	0.02532726	-0.006307744	-0.004511346	0.8461964	0.6050897	0	0
32.54776	-0.08490068	0.02534595	0.001553109	0.001110898	0.2354519	0.1684001	0	0
32.64692	-0.08492681	0.02532726	-0.0002634524	-0.0001884406	-0.01566398	-0.01120403	0	0
32.66348	-0.08495294	0.02530858	-0.001577161	-0.001127893	-0.01135259	-0.008118401	0	0
32.68036	-0.08495294	0.02530858	0	0	0.04715903	0.03372537	0	0
32.69661	-0.08495294	0.02530858	0	0	0	0	0	0
32.71318	-0.08495294	0.02530858	0	0	0	0	0	0
32.72975	-0.08495294	0.02530858	0	0	0	0	0	0
32.74632	-0.08495294	0.02530858	0	0	0	0	0	0
32.76288	-0.08495294	0.02530858	0	0	0	0	0	0
32.77993	-0.08495294	0.02530858	0	0	0	0	0	0
32.79644	-0.08495294	0.02530858	0	0	0	0	0	0
32.81258	-0.08495294	0.02530858	0	0	0	0	0	0
32.82915	-0.08495294	0.02530858	0	0	0	0	0	0
32.86229	-0.08495294	0.02530858	0	0	0	0	0	0
32.87901	-0.08495294	0.02530858	0	0	0	0	0	0
32.89552	-0.08495294	0.02530858	0	0	0	0	0	0
32.91203	-0.08492681	0.02528989	0.001582261	-0.00113154	0.04791271	-0.03426435	0	0
32.92855	-0.08495294	0.02527121	-0.001581531	-0.001131018	-0.0957701	1.581558E-05	0	0
32.94512	-0.08495294	0.02523383	0	-0.002255673	0.04779672	-0.03398912	0	0
32.96169	-0.08495294	0.02519646	0	-0.002255898	0	-6.780903E-06	0	0
32.97825	-0.08495294	0.02519646	0	0	0	0.06808312	0	0
32.99508	-0.08497906	0.02521515	-0.001552053	0.001110364	-0.04647188	0.03324674	0	0
33.01138	-0.08497906	0.02521515	0	0	0.04684643	-0.03351471	0	0
33.02811	-0.08497906	0.02521515	0	0	0	0	0	0
33.04452	-0.08497906	0.02521515	0	0	0	0	0	0
33.06108	-0.08497906	0.02521515	0	0	0	0	0	0
33.07765	-0.08497906	0.02521515	0	0	0	0	0	0
33.09422	-0.08497906	0.02521515	0	0	0	0	0	0
33.11079	-0.08497906	0.02521515	0	0	0	0	0	0
33.14604	-0.08497906	0.02517777	0	-0.001060206	0	-0.02045985	0	0
33.16261	-0.08497906	0.02517777	0	0	0	0.02045985	0	0
33.17922	-0.08497906	0.0251404	0	-0.002249053	0	-0.06777512	0	0
33.19574	-0.08497906	0.0251404	0	0	0	0.06787656	0	0
33.21236	-0.08497906	0.0251404	0	0	0	0	0	0
33.22887	-0.08497906	0.0251404	0	0	0	0	0	0
33.24577	-0.08500519	0.02515909	-0.001546886	0.001106241	-0.0463013	0.03311196	0	0
33.26201	-0.08500519	0.02515909	0	0	0.0466851	-0.03338644	0	0
33.27858	-0.08500519	0.02515909	0	0	0	0	0	0
33.29514	-0.08500519	0.02515909	0	0	0	0	0	0
33.31181	-0.08500519	0.02515909	0	0	0	0	0	0
33.36141	-0.08497906	0.0251404	0.0005268525	-0.0003767739	0.007950678	-0.005685857	0	0
33.37836	-0.08497906	0.0251404	0	0	-0.007916498	0.005661414	0	0
33.39454	-0.08497906	0.0251404	0	0	0	0	0	0
33.41138	-0.08497906	0.0251404	0	0	0	0	0	0
33.4279	-0.08497906	0.0251404	0	0	0	0	0	0
33.44424	-0.08497906	0.0251404	0	0	0	0	0	0
33.49394	-0.08497906	0.0251404	0	0	0	0	0	0
33.51051	-0.08497906	0.0251404	0	0	0	0	0	0
33.52708	-0.08495294	0.02512172	0.001576711	-0.001127893	0.04758523	-0.03403987	0	0
33.54715	-0.08495294	0.02512172	0	0	-0.04303231	0.03078295	0	0
33.56372	-0.08495294	0.02512172	0	0	0	0	0	0
33.58028	-0.08495294	0.02512172	0	0	0	0	0	0
33.59685	-0.08495294	0.02512172	0	0	0	0	0	0
33.61353	-0.08495294	0.02512172	0	0	0	0	0	0
33.63004	-0.08495294	0.02512172	0	0	0	0	0	0
33.64655	-0.08495294	0.02512172	0	0	0	0	0	0
33.66312	-0.08495294	0.02512172	0	0	0	0	0	0
33.67968	-0.08495294	0.02512172	0	0	0	0	0	0
33.69625	-0.08495294	0.02512172	0	0	0	0	0	0
33.71282	-0.08495294	0.02512172	0	0	0	0	0	0
33.72939	-0.08495294	0.02512172	0	0	0	0	0	0
33.74612	-0.08495294	0.02512172	0	0	0	0	0	0
33.76252	-0.08495294	0.02512172	0	0	0	0	0	0
33.77908	-0.08495294	0.02512172	0	0	0	0	0	0
33.79565	-0.08495294	0.02512172	0	0	0	0	0	0
33.81222	-0.08495294	0.02512172	0	0	0	0	0	0
33.82918	-0.08495294	0.02512172	0	0	0	0	0	0
33.84535	-0.08495294	0.02512172	0	0	0	0	0	0
33.86192	-0.08495294	0.02512172	0	0	0	0	0	0
33.87849	-0.08495294	0.02512172	0	0	0	0	0	0
33.89505	-0.08495294	0.02512172	0	0	0	0	0	0
33.93308	-0.08495294	0.02512172	0	0	0	0	0	0
33.94965	-0.08495294	0.02512172	0	0	0	0	0	0
33.96628	-0.08490068	0.02512172	0.003140854	0	0.09459514	0	0	0
33.98279	-0.08490068	0.02512172	0	0	-0.09475844	0	0	0
33.99935	-0.08490068	0.02512172	0	0	0	0	0	0
34.01591	-0.08487456	0.02510303	0.001577524	-0.001128265	0.0476317	-0.03406679	0	0
34.03248	-0.08484843	0.02508434	0.001577161	-0.001127893	-1.096314E-05	1.12337E-05	0	0
34.04905	-0.08484843	0.02508434	0	0	-0.04759881	0.03403987	0	0
34.06561	-0.08484843	0.02508434	0	0	0	0	0	0
34.08218	-0.08484843	0.02508434	0	0	0	0	0	0
34.09874	-0.08484843	0.02508434	0	0	0	0	0	0
34.11539	-0.0848223	0.02510303	0.001569483	0.001122722	0.04725829	0.03380599	0	0
34.13187	-0.0848223	0.02510303	0	0	-0.04737256	-0.03388773	0	0
34.14845	-0.0848223	0.02510303	0	0	0	0	0	0
34.16501	-0.08484843	0.02508434	-0.001577074	-0.001128152	-0.04759619	-0.0340477	0	0
34.18158	-0.08484843	0.02508434	0	0	0.04760167	0.03405163	0	0
34.19845	-0.0848223	0.02510303	0.001548193	0.001107492	0.04629813	0.03311915	0	0
34.21471	-0.0848223	0.02510303	0	0	-0.04671917	-0.03342033	0	0
34.23128	-0.08479618	0.02508434	0.001577524	-0.001128152	0.04805234	-0.03436421	0	0
34.24784	-0.08479618	0.02508434	0	0	-0.04761525	0.03405163	0	0
34.26449	-0.08479618	0.02508434	0	0	0	0	0	0
34.28098	-0.08479618	0.02508434	0	0	0	0	0	0
34.29754	-0.08477005	0.02506566	0.001577161	-0.001127893	0.04771417	-0.03412236	0	0
34.31411	-0.08474392	0.02504697	0.001577161	-0.001128005	0	-3.390452E-06	0	0
34.33067	-0.0847178	0.02502828	0.001577074	-0.001128152	-2.614287E-06	-4.448504E-06	0	0
34.34724	-0.0845349	0.02489747	0.01103968	-0.007895922	0.2856148	-0.2042752	0	0
34.36381	-0.08396005	0.02448632	0.03469799	-0.02481723	0.7140092	-0.5106862	0	0
34.46321	-0.05187447	0.001628721	0.3227816	-0.2299479	2.484108	-1.768816	0	0
34.47978	-0.04856704	-0.0007426728	0.1996368	-0.1431376	-1.061862	0.748554	0	0
34.49635	-0.04793693	-0.001194558	0.03803355	-0.02727585	-4.877194	3.496715	0	0
34.51291	-0.04796319	-0.001175728	-0.001584806	0.001136564	-1.195684	0.8574885	0	0
34.52948	-0.04796319	-0.001175728	0	0	0.04783505	-0.03430551	0	0
34.54604	-0.04796319	-0.001175728	0	0	0	0	0	0
34.5627	-0.04796319	-0.001175728	0	0	0	0	0	0
34.57918	-0.04798944	-0.001156899	-0.001593612	0.001142879	-0.04809532	0.03449217	0	0
34.59575	-0.04798944	-0.001156899	0	0	0.04822858	-0.03458774	0	0
34.61231	-0.0480157	-0.001138069	-0.001584806	0.001136557	-0.04782954	0.03430135	0	0
34.62888	-0.0480157	-0.001138069	0	0	0.04782954	-0.03430135	0	0
34.64545	-0.04804195	-0.00111924	-0.001584581	0.00113655	-0.04782275	0.03430114	0	0
34.66201	-0.04804195	-0.00111924	0	0	0.04782275	-0.03430114	0	0
34.67858	-0.04806821	-0.00110041	-0.001584806	0.001136543	-0.04782954	0.03430092	0	0
34.6953	-0.04809446	-0.001081581	-0.001570701	0.00112642	0.0004237833	-0.0003041265	0	0
34.71181	-0.04814697	-0.001043923	-0.003180372	0.002280928	-0.04844609	0.0347471	0	0
34.72828	-0.04822574	-0.0009874364	-0.004781945	0.00342927	-0.04855919	0.03481736	0	0
34.74485	-0.04825199	-0.0009686078	-0.001584581	0.001136497	0.09677516	-0.06939575	0	0
34.77798	-0.04848828	-0.0007615001	-0.007131998	0.006251242	-0.1116228	0.1029168	0	0
34.79486	-0.04859329	-0.0006861914	-0.0062185	0.004459392	0.01826329	-0.03582387	0	0
34.81265	-0.04859329	-0.0006861914	0	0	0.1793336	-0.1286032	0	0
34.82922	-0.04859329	-0.0006861914	0	0	0	0	0	0
34.84578	-0.04861955	-0.0006673645	-0.001585171	0.001136657	-0.04784606	0.03430832	0	0
34.8624	-0.04861955	-0.0006673645	0	0	0.04776906	-0.0342531	0	0
34.87892	-0.0486458	-0.0006485377	-0.001589706	0.001140063	-0.04797741	0.03440718	0	0
34.89548	-0.0486458	-0.0006485377	0	0	0.04806041	-0.0344667	0	0
34.91205	-0.0486458	-0.0006485377	0	0	0	0	0	0
34.92862	-0.0486458	-0.0006485377	0	0	0	0	0	0
34.94546	-0.0486458	-0.0006485377	0	0	0	0	0	0
34.96197	-0.0486458	-0.0006485377	0	0	0	0	0	0
34.97848	-0.0486458	-0.0006485377	0	0	0	0	0	0
34.99488	-0.0486458	-0.0006485377	0	0	0	0	0	0
35.02801	-0.04861955	-0.0006673645	0.0007922905	-0.000568194	0.01599617	-0.01147171	0	0
35.04457	-0.04861955	-0.0006673645	0	0	-0.01594214	0.01143296	0	0
35.06114	-0.04861955	-0.0006673645	0	0	0	0	0	0
35.07771	-0.04861955	-0.0006673645	0	0	0	0	0	0
35.09428	-0.04861955	-0.0006673645	0	0	0	0	0	0
35.11108	-0.04861955	-0.0006673645	0	0	0	0	0	0
35.12741	-0.04861955	-0.0006673645	0	0	0	0	0	0
35.14398	-0.04861955	-0.0006673645	0	0	0	0	0	0
35.16061	-0.04861955	-0.0006673645	0	0	0	0	0	0
35.17712	-0.04861955	-0.0006673645	0	0	0	0	0	0
35.19368	-0.04861955	-0.0006673645	0	0	0	0	0	0
35.21024	-0.04861955	-0.0006673645	0	0	0	0	0	0
35.22715	-0.04861955	-0.0006673645	0	0	0	0	0	0
35.30971	-0.04861955	-0.0006673645	0	0	0	0	0	0
35.32622	-0.04861955	-0.0006673645	0	0	0	0	0	0
35.34277	-0.04861955	-0.0006673645	0	0	0	0	0	0
35.35934	-0.04861955	-0.0006673645	0	0	0	0	0	0
35.37591	-0.04861955	-0.0006673645	0	0	0	0	0	0
35.39248	-0.04861955	-0.0006673645	0	0	0	0	0	0
35.40904	-0.04861955	-0.0006673645	0	0	0	0	0	0
35.42561	-0.04861955	-0.0006673645	0	0	0	0	0	0
35.44231	-0.04861955	-0.0006673645	0	0	0	0	0	0
35.45874	-0.04861955	-0.0006673645	0	0	0	0	0	0
35.47531	-0.04861955	-0.0006673645	0	0	0	0	0	0
35.49188	-0.04861955	-0.0006673645	0	0	0	0	0	0
35.50845	-0.04861955	-0.0006673645	0	0	0	0	0	0
35.52501	-0.04861955	-0.0006673645	0	0	0	0	0	0
35.54158	-0.04861955	-0.0006673645	0	0	0	0	0	0
35.55815	-0.04861955	-0.0006673645	0	0	0	0	0	0
35.57471	-0.0486458	-0.0006485377	-0.001584581	0.001136388	-0.04782275	0.03429626	0	0
35.59128	-0.0486458	-0.0006485377	0	0	0.04782275	-0.03429626	0	0
35.60785	-0.0486458	-0.0006485377	0	0	0	0	0	0
35.62442	-0.0486458	-0.0006485377	0	0	0	0	0	0
35.64318	-0.0486458	-0.0006485377	0	0	0	0	0	0
35.65997	-0.0486458	-0.0006485377	0	0	0	0	0	0
35.67631	-0.0486458	-0.0006485377	0	0	0	0	0	0
35.69299	-0.0486458	-0.0006485377	0	0	0	0	0	0
35.70945	-0.0486458	-0.0006485377	0	0	0	0	0	0
35.72601	-0.0486458	-0.0006485377	0	0	0	0	0	0
35.74258	-0.0486458	-0.0006485377	0	0	0	0	0	0
35.75914	-0.0486458	-0.0006485377	0	0	0	0	0	0
35.77605	-0.04861955	-0.0006673645	0.001553111	-0.001113819	0.04640287	-0.03327798	0	0
35.79227	-0.04861955	-0.0006673645	0	0	-0.04687839	0.03361901	0	0
35.80884	-0.04861955	-0.0006673645	0	0	0	0	0	0
35.82541	-0.04859329	-0.0006861914	0.001584806	-0.001136395	0.04782954	-0.03429647	0	0
35.84198	-0.04859329	-0.0006861914	0	0	-0.04782954	0.03429647	0	0
35.8586	-0.04859329	-0.0006861914	0	0	0	0	0	0
35.87512	-0.04859329	-0.0006861914	0	0	0	0	0	0
35.89168	-0.04859329	-0.0006861914	0	0	0	0	0	0
35.90825	-0.04859329	-0.0006861914	0	0	0	0	0	0
35.92481	-0.04859329	-0.0006861914	0	0	0	0	0	0
35.94138	-0.04861955	-0.0007050184	-0.001584806	-0.001136402	-0.04782954	-0.03429668	0	0
35.95818	-0.04861955	-0.0007050184	0	0	0.04749599	0.03405751	0	0
36.09048	-0.04861955	-0.0007050184	0	0	0	0	0	0
36.14881	-0.04861955	-0.0007050184	0	0	0	0	0	0
36.16516	-0.04861955	-0.0007050184	0	0	0	0	0	0
36.18173	-0.04861955	-0.0007050184	0	0	0	0	0	0
36.19835	-0.04861955	-0.0007050184	0	0	0	0	0	0
36.21486	-0.04861955	-0.0007050184	0	0	0	0	0	0
36.23143	-0.04861955	-0.0007050184	0	0	0	0	0	0
36.24838	-0.04861955	-0.0007050184	0	0	0	0	0	0
36.26456	-0.04859329	-0.0007238455	0.001622922	-0.001163737	0.04898552	-0.0351257	0	0
36.28112	-0.04859329	-0.0007238455	0	0	-0.04956189	0.035539	0	0
36.29769	-0.04859329	-0.0007238455	0	0	0	0	0	0
36.31448	-0.04859329	-0.0007238455	0	0	0	0	0	0
36.33082	-0.04856704	-0.0007050184	0.001606404	0.001152056	0.04848696	0.03477313	0	0
36.34739	-0.04856704	-0.0007050184	0	0	-0.04881294	-0.03500692	0	0
36.36396	-0.04856704	-0.0007050184	0	0	0	0	0	0
36.38053	-0.04854079	-0.0006861914	0.001585171	0.001136664	0.04783505	0.03430063	0	0
36.39709	-0.04851453	-0.0007050184	0.001584946	-0.001136664	-6.789493E-06	-0.06862497	0	0
36.41366	-0.04851453	-0.0007050184	0	0	-0.04783928	0.03430853	0	0
36.43022	-0.04851453	-0.0007050184	0	0	0	0	0	0
36.44702	-0.04851453	-0.0007050184	0	0	0	0	0	0
36.46336	-0.04851453	-0.0007050184	0	0	0	0	0	0
36.47992	-0.04851453	-0.0007050184	0	0	0	0	0	0
36.49649	-0.04851453	-0.0007050184	0	0	0	0	0	0
36.51307	-0.04851453	-0.0007050184	0	0	0	0	0	0
36.53366	-0.04851453	-0.0006673645	0	0.001828934	0	0.04920908	0	0
36.55022	-0.04840952	-0.0005920579	0.006338774	0.004545514	0.1706028	0.07311448	0	0
36.56711	-0.04835701	-0.0005167531	0.00310925	0.004459161	-0.09653369	-0.002581154	0	0
36.58336	-0.04833075	-0.0004979271	0.001616063	0.001158747	-0.04506446	-0.09960669	0	0
36.59993	-0.0483045	-0.0004791013	0.001584581	0.001136332	-0.0009594057	-0.0006831049	0	0
36.61664	-0.04822574	-0.0004226244	0.004711881	0.003378612	0.09396021	0.06736965	0	0
36.63315	-0.04819948	-0.000403799	0.001590666	0.001140505	-0.09394968	-0.0673678	0	0
36.64966	-0.04793693	-0.0002155507	0.01589886	0.01139944	0.4333188	0.3106883	0	0
36.68276	-0.04384031	0.002682134	0.1237787	0.0875531	2.174553	1.535042	0	0
36.69933	-0.04144993	0.004393226	0.1442837	0.1032817	0.4128773	0.316704	0	0
