Time	Pos X	Pos Y	Vel X	Vel Y	Acc X	Acc YForce X	Force Y
0.01656831	-0.09747954	0.03974254	0.001538644	-0.000627307	-2.429273E-05	9.904175E-06	0	0
0.05018141	-0.09740134	0.03972392	0.002326512	-0.0005538102	-1.244253E-05	-1.160711E-06	0	0
0.06674854	-0.09737527	0.03974254	0.001573572	0.001123627	-0.01500471	0.03342824	0	0
0.08331607	-0.09724493	0.03983559	0.007866775	0.005616876	0.1899281	0.1356057	0	0
0.0998832	-0.0960196	0.04071024	0.07396153	0.05279385	1.994732	1.423795	0	0
0.1164491	-0.09354199	0.04247751	0.1495603	0.1066811	2.281672	1.626389	0	0
0.1330171	-0.08926217	0.04552644	0.2583199	0.184026	3.282429	2.334314	0	0
0.1495846	-0.08074512	0.0515799	0.5140813	0.3653809	7.718666	5.473142	0	0
0.1661509	-0.07658675	0.05452892	0.2510133	0.1780131	-7.939551	-5.654873	0	0
0.1850625	-0.07179743	0.05792034	0.2532477	0.17933	0.06298	0.03711858	0	0
0.2017678	-0.06831458	0.06038331	0.2084878	0.1474369	-1.256705	-0.8954505	0	0
0.2182714	-0.06469905	0.06293728	0.2190759	0.1547525	0.3188361	0.2202926	0	0
0.2347655	-0.05942993	0.0666543	0.3194546	0.2253546	3.041991	2.139608	0	0
0.2513326	-0.0573843	0.06809581	0.1234754	0.0870101	-5.927761	-4.184493	0	0
0.2678989	-0.05657115	0.06866858	0.04908419	0.03457438	-2.245199	-1.58256	0	0
0.2844653	-0.05116583	0.07247269	0.3262835	0.2296289	8.366343	5.887075	0	0
0.3010332	-0.05111334	0.07243577	0.003168357	-0.00222826	-9.751696	-6.997508	0	0
0.3178467	-0.05111334	0.07239886	0	-0.002195276	-0.09491391	0.0009881086	0	0
0.3341663	-0.05108709	0.07234348	0.001608394	-0.003393469	0.04854343	-0.03616304	0	0
0.350731	-0.0510346	0.07223273	0.003168961	-0.006686056	0.04745617	-0.1001261	0	0
0.367383	-0.05092961	0.07212198	0.006304944	-0.00665103	0.09440972	0.001054443	0	0
0.3838949	-0.04969589	0.07103271	0.07471695	-0.0659688	2.062849	-1.788628	0	0
0.4004316	-0.0483045	0.0699801	0.08413921	-0.06365284	0.2851033	0.07007765	0	0
0.4174144	-0.04483835	0.06743056	0.2040981	-0.1501247	3.578774	-2.579745	0	0
0.4335647	-0.0404516	0.06430613	0.2716204	-0.19346	2.037914	-1.307918	0	0
0.4504421	-0.03348748	0.05940201	0.4126301	-0.2905733	4.269441	-2.94036	0	0
0.4669658	-0.02822934	0.05558557	0.3182174	-0.230967	-2.826631	1.784559	0	0
0.4832657	-0.02373238	0.05222924	0.275889	-0.2059114	-1.289572	0.7633399	0	0
0.4998313	-0.01881357	0.04801583	0.2969302	-0.2543481	0.6402214	-1.473788	0	0
0.516398	-0.01668266	0.04539635	0.1286255	-0.1581164	-5.079774	2.904467	0	0
0.5329648	-0.01199942	0.03773189	0.282689	-0.4626411	4.649778	-9.190839	0	0
0.5495319	-0.008552423	0.03532886	0.2080629	-0.1450481	-2.25226	9.585148	0	0
0.5660974	-0.003526301	0.03176801	0.3034079	-0.2149551	2.877673	-2.109911	0	0
0.582663	-2.631579E-05	0.02924908	0.2112808	-0.152058	-2.78068	1.898431	0	0
0.5992317	0.004078925	0.02633614	0.2477705	-0.1758098	1.101268	-0.7168368	0	0
0.6157973	0.004447339	0.02607461	0.02223978	-0.01578781	-6.806569	4.829501	0	0
0.6489327	0.004447339	0.02607461	0	0	-0.4474717	0.317656	0	0
0.6655898	0.004447339	0.02607461	0	0	0	0	0	0
0.6820993	0.004447339	0.02607461	0	0	0	0	0	0
0.6986305	0.004447339	0.02607461	0	0	0	0	0	0
0.715198	0.004447339	0.02607461	0	0	0	0	0	0
0.7317644	0.004447339	0.02607461	0	0	0	0	0	0
0.7483311	0.004447339	0.02607461	0	0	0	0	0	0
0.7651572	0.004421024	0.02605592	-0.001563967	-0.001110208	-0.04683538	-0.03324689	0	0
0.7816691	0.004421024	0.02605592	0	0	0.0469125	0.03330164	0	0
0.7980301	0.004421024	0.02605592	0	0	0	0	0	0
0.8145981	0.004394709	0.02603724	-0.001588307	-0.001127619	-0.04823429	-0.03424395	0	0
0.8312058	0.004394709	0.02603724	0	0	0.04787561	0.0339893	0	0
0.8477303	0.004394709	0.02603724	0	0	0	0	0	0
0.8642963	0.004394709	0.02603724	0	0	0	0	0	0
0.8808634	0.004394709	0.02603724	0	0	0	0	0	0
0.8997734	0.004394709	0.02603724	0	0	0	0	0	0
0.9163417	0.004368393	0.02601856	-0.001588301	-0.001127595	-0.04476824	-0.03178266	0	0
0.9329084	0.004368393	0.02601856	0	0	0.04793416	0.03403027	0	0
0.9497925	0.004342078	0.02599988	-0.001558595	-0.001106395	-0.04659358	-0.03307525	0	0
0.9660431	0.004342078	0.02599988	0	0	0.04703823	0.03339088	0	0
0.9828162	0.004342078	0.02599988	0	0	0	0	0	0
0.9993277	0.004315763	0.0259812	-0.001593743	-0.001131478	-0.04788227	-0.03399403	0	0
1.015744	0.004315763	0.0259812	0	0	0.0484012	0.03436244	0	0
1.032853	0.004263132	0.0259812	-0.003076269	0	-0.09176049	0	0	0
1.048877	0.004210501	0.02594383	-0.003284404	-0.002331743	-0.006281777	-0.07037517	0	0
1.065444	0.004157871	0.02590647	-0.003176802	-0.002255352	0.003301518	0.00234389	0	0
1.082011	0.004052609	0.02583174	-0.006353661	-0.004510816	-0.09587847	-0.06807053	0	0
1.098578	0.003973663	0.02577569	-0.00476532	-0.003383213	0.04793708	0.03403173	0	0
1.115411	0.002236838	0.02454239	-0.1031786	-0.07326611	-2.946512	-2.092306	0	0
1.131711	-0.005342055	0.01919313	-0.4649774	-0.3281854	-10.9197	-7.693895	0	0
1.164946	-0.02183863	0.007512329	-0.496357	-0.3514576	-0.633485	-0.4698143	0	0
1.181457	-0.02775603	0.003283936	-0.358397	-0.2560998	2.773285	1.916893	0	0
1.197976	-0.03511713	-0.001947837	-0.4455934	-0.3166974	-2.639873	-1.834596	0	0
1.214544	-0.03863866	-0.004434875	-0.2125502	-0.1501114	7.043189	5.034676	0	0
1.231111	-0.04231683	-0.007074696	-0.2220261	-0.159348	-0.2859843	-0.2787605	0	0
1.247678	-0.04751684	-0.01077403	-0.3138823	-0.2232989	-2.772333	-1.930119	0	0
1.264513	-0.0514283	-0.01355131	-0.232328	-0.1649613	2.441548	1.746494	0	0
1.281058	-0.05371145	-0.01519613	-0.138	-0.09941767	2.825841	1.96353	0	0
1.297538	-0.05363273	-0.0151394	0.004776792	0.003442552	4.323416	3.114704	0	0
1.313943	-0.05360649	-0.01515831	0.001599502	-0.001152679	-0.09661766	-0.1397356	0	0
1.330562	-0.05360649	-0.01515831	0	0	-0.04843319	0.03490332	0	0
1.347077	-0.05360649	-0.01515831	0	0	0	0	0	0
1.364084	-0.05360649	-0.01515831	0	0	0	0	0	0
1.380211	-0.05360649	-0.01515831	0	0	0	0	0	0
1.397109	-0.05355401	-0.01508267	0.00310582	0.004476411	0.0940458	0.135548	0	0
1.413344	-0.05350152	-0.01504485	0.003232521	0.002329455	0.003823956	-0.06479711	0	0
1.429911	-0.05347528	-0.01502594	0.001583986	0.001141442	-0.05025717	-0.03621773	0	0
1.446477	-0.05344905	-0.01500703	0.001583727	0.001141473	-7.817672E-06	9.521749E-07	0	0
1.463045	-0.05344905	-0.01500703	0	0	-0.04779733	-0.03444998	0	0
1.479677	-0.05344905	-0.01500703	0	0	0	0	0	0
1.496178	-0.05344905	-0.01500703	0	0	0	0	0	0
1.512744	-0.05339656	-0.01493139	0.003168064	0.004565842	0.09580607	0.1380766	0	0
1.52931	-0.05334408	-0.01485576	0.003167973	0.004565654	-2.754701E-06	-5.664002E-06	0	0
1.546727	-0.05295046	-0.01453432	0.02260105	0.01845604	0.5718533	0.4087495	0	0
1.562443	-0.05274052	-0.01434526	0.01335761	0.01202943	-0.2789798	-0.1939638	0	0
1.57901	-0.05274052	-0.01434526	0	0	-0.413759	-0.372618	0	0
1.615018	-0.05271428	-0.01436416	0.0007287532	-0.0005250458	0.01386128	-0.009986652	0	0
1.631585	-0.05271428	-0.01436416	0	0	-0.01386128	0.009986652	0	0
1.648323	-0.05271428	-0.01436416	0	0	0	0	0	0
1.664809	-0.05271428	-0.01436416	0	0	0	0	0	0
1.681312	-0.05271428	-0.01436416	0	0	0	0	0	0
1.697849	-0.05271428	-0.01436416	0	0	0	0	0	0
1.714416	-0.05271428	-0.01436416	0	0	0	0	0	0
1.730983	-0.05271428	-0.01436416	0	0	0	0	0	0
1.74755	-0.05271428	-0.01436416	0	0	0	0	0	0
1.764118	-0.05271428	-0.01436416	0	0	0	0	0	0
1.780879	-0.05271428	-0.01436416	0	0	0	0	0	0
1.797252	-0.05274052	-0.01434526	-0.001602669	0.001154677	-0.04836952	0.03484885	0	0
1.813902	-0.05274052	-0.01434526	0	0	0.04853138	-0.03496547	0	0
1.830416	-0.05274052	-0.01434526	0	0	0	0	0	0
1.846951	-0.05274052	-0.01434526	0	0	0	0	0	0
1.863519	-0.05274052	-0.01434526	0	0	0	0	0	0
1.880086	-0.05274052	-0.01434526	0	0	0	0	0	0
1.896652	-0.05274052	-0.01434526	0	0	0	0	0	0
1.913217	-0.05274052	-0.01434526	0	0	0	0	0	0
1.929783	-0.05274052	-0.01434526	0	0	0	0	0	0
1.94635	-0.05274052	-0.01434526	0	0	0	0	0	0
1.962918	-0.05274052	-0.01434526	0	0	0	0	0	0
1.979521	-0.05274052	-0.01434526	0	0	0	0	0	0
1.99605	-0.05274052	-0.01434526	0	0	0	0	0	0
2.012617	-0.05274052	-0.01434526	0	0	0	0	0	0
2.029552	-0.05274052	-0.01434526	0	0	0	0	0	0
2.04575	-0.05274052	-0.01434526	0	0	0	0	0	0
2.062318	-0.05276676	-0.01432635	-0.001584109	0.001141143	-0.04834631	0.03482718	0	0
2.078884	-0.05276676	-0.01432635	0	0	0.04780987	-0.03444075	0	0
2.095451	-0.05276676	-0.01432635	0	0	0	0	0	0
2.11211	-0.05276676	-0.01432635	0	0	0	0	0	0
2.128621	-0.05276676	-0.01432635	0	0	0	0	0	0
2.14515	-0.05276676	-0.01432635	0	0	0	0	0	0
2.161718	-0.05276676	-0.01432635	0	0	0	0	0	0
2.178284	-0.05276676	-0.01432635	0	0	0	0	0	0
2.194851	-0.05276676	-0.01432635	0	0	0	0	0	0
2.211417	-0.05276676	-0.01432635	0	0	0	0	0	0
2.227984	-0.05276676	-0.01432635	0	0	0	0	0	0
2.244551	-0.05276676	-0.01432635	0	0	0	0	0	0
2.261118	-0.05276676	-0.01432635	0	0	0	0	0	0
2.277729	-0.05276676	-0.01432635	0	0	0	0	0	0
2.362843	-0.05276676	-0.01432635	0	0	0	0	0	0
2.379411	-0.05276676	-0.01432635	0	0	0	0	0	0
2.395978	-0.05276676	-0.01432635	0	0	0	0	0	0
2.412545	-0.05276676	-0.01432635	0	0	0	0	0	0
2.429337	-0.05276676	-0.01432635	0	0	0	0	0	0
2.445678	-0.05276676	-0.01432635	0	0	0	0	0	0
2.528512	-0.05276676	-0.01432635	0	0	0	0	0	0
2.545417	-0.05276676	-0.01432635	0	0	0	0	0	0
2.561646	-0.05276676	-0.01432635	0	0	0	0	0	0
2.578211	-0.05276676	-0.01432635	0	0	0	0	0	0
2.594779	-0.05276676	-0.01432635	0	0	0	0	0	0
2.611464	-0.05276676	-0.01432635	0	0	0	0	0	0
2.627987	-0.05276676	-0.01432635	0	0	0	0	0	0
2.644479	-0.05276676	-0.01432635	0	0	0	0	0	0
2.661046	-0.05276676	-0.01432635	0	0	0	0	0	0
2.678012	-0.05276676	-0.01432635	0	0	0	0	0	0
2.694179	-0.05276676	-0.01432635	0	0	0	0	0	0
2.711035	-0.052793	-0.01434526	-0.001556754	-0.001121597	-0.04714133	-0.03396398	0	0
2.727312	-0.05276676	-0.01436416	0.001612141	-0.001161502	0.09564088	-0.001204381	0	0
2.743879	-0.052793	-0.01434526	-0.001583952	0.001141192	-0.09731184	0.0701104	0	0
2.760571	-0.052793	-0.01434526	0	0	0.04762591	-0.03431311	0	0
2.777013	-0.052793	-0.01434526	0	0	0	0	0	0
2.793595	-0.052793	-0.01434526	0	0	0	0	0	0
2.810145	-0.052793	-0.01434526	0	0	0	0	0	0
2.826713	-0.052793	-0.01434526	0	0	0	0	0	0
2.843627	-0.052793	-0.01434526	0	0	0	0	0	0
2.859852	-0.052793	-0.01434526	0	0	0	0	0	0
2.876652	-0.052793	-0.01434526	0	0	0	0	0	0
2.892979	-0.052793	-0.01434526	0	0	0	0	0	0
2.926186	-0.052793	-0.01434526	0	0	0	0	0	0
2.942698	-0.052793	-0.01434526	0	0	0	0	0	0
2.959245	-0.052793	-0.01434526	0	0	0	0	0	0
2.975814	-0.052793	-0.01434526	0	0	0	0	0	0
2.992379	-0.052793	-0.01434526	0	0	0	0	0	0
3.008945	-0.052793	-0.01434526	0	0	0	0	0	0
3.025763	-0.052793	-0.01438307	0	-0.002248409	0	-0.06735019	0	0
3.042079	-0.052793	-0.01438307	0	0	0	0.06785955	0	0
3.05878	-0.052793	-0.01438307	0	0	0	0	0	0
3.075295	-0.052793	-0.01438307	0	0	0	0	0	0
3.091803	-0.052793	-0.01438307	0	0	0	0	0	0
3.108346	-0.05281925	-0.01436416	-0.001586437	0.00114282	-0.048	0.03457772	0	0
3.124913	-0.05281925	-0.01436416	0	0	0.04791497	-0.03451646	0	0
3.141838	-0.05281925	-0.01436416	0	0	0	0	0	0
3.159312	-0.052793	-0.01438307	0.001501871	-0.001081901	0.04365936	-0.03145085	0	0
3.176366	-0.052793	-0.01438307	0	0	-0.04349717	0.03133401	0	0
3.192875	-0.052793	-0.01438307	0	0	0	0	0	0
3.209013	-0.052793	-0.01438307	0	0	0	0	0	0
3.22558	-0.052793	-0.01438307	0	0	0	0	0	0
3.275435	-0.052793	-0.01438307	0	0	0	0	0	0
3.291847	-0.05281925	-0.01436416	-0.001599113	0.001151951	-0.02413127	0.01738342	0	0
3.308457	-0.05281925	-0.01436416	0	0	0.04842614	-0.03488469	0	0
3.32498	-0.05281925	-0.01436416	0	0	0	0	0	0
3.34198	-0.05284549	-0.01434526	-0.00154361	0.001112127	-0.04604685	0.03317543	0	0
3.358492	-0.05284549	-0.01434526	0	0	0.04606191	-0.03318629	0	0
3.37468	-0.05284549	-0.01434526	0	0	0	0	0	0
3.391516	-0.05284549	-0.01434526	0	0	0	0	0	0
3.407814	-0.05284549	-0.01434526	0	0	0	0	0	0
3.424537	-0.05284549	-0.01434526	0	0	0	0	0	0
3.441049	-0.05284549	-0.01434526	0	0	0	0	0	0
3.457515	-0.05284549	-0.01434526	0	0	0	0	0	0
3.491088	-0.05281925	-0.01436416	0.0007816217	-0.000563136	0.01562038	-0.01125404	0	0
3.5076	-0.05281925	-0.01436416	0	0	-0.01560603	0.0112437	0	0
3.523781	-0.05281925	-0.01436416	0	0	0	0	0	0
3.540347	-0.05281925	-0.01436416	0	0	0	0	0	0
3.556914	-0.05281925	-0.01436416	0	0	0	0	0	0
3.573644	-0.05281925	-0.01436416	0	0	0	0	0	0
3.590157	-0.05281925	-0.01436416	0	0	0	0	0	0
3.606669	-0.052793	-0.01438307	0.001589438	-0.001144982	0.04812794	-0.03466988	0	0
3.639748	-0.05281925	-0.01436416	-0.0007933959	0.0005715378	-0.04804989	0.03461366	0	0
3.656313	-0.05281925	-0.01436416	0	0	0.01598171	-0.01151273	0	0
3.67288	-0.052793	-0.01434526	0.001584177	0.001141192	0.04781434	0.03444397	0	0
3.689449	-0.05281925	-0.01432635	-0.001583949	0.001141028	-0.0956101	-4.957224E-06	0	0
3.706013	-0.05281925	-0.01428854	0	0.002282713	0.04780505	0.03445711	0	0
3.72275	-0.05295046	-0.01419401	-0.007839656	0.005647864	-0.2354189	0.1010529	0	0
3.739147	-0.05316039	-0.01400497	-0.01280326	0.01152921	-0.1498061	0.1775046	0	0
3.755713	-0.05321287	-0.01389155	-0.003167995	0.006846507	0.2923029	-0.1420583	0	0
3.772284	-0.05318663	-0.01387265	0.001583542	0.001140728	0.1433893	-0.1721859	0	0
3.788848	-0.05316039	-0.01385374	0.001584226	0.001141221	2.063754E-05	1.486507E-05	0	0
3.805413	-0.05308167	-0.01379703	0.004752198	0.003423261	0.09562404	0.06888251	0	0
3.82198	-0.05295046	-0.01370252	0.00792021	0.005704892	0.09561698	0.06886424	0	0
3.838546	-0.05284549	-0.01366472	0.006336307	0.002282033	-0.0478047	-0.1033073	0	0
3.855113	-0.05276676	-0.01364582	0.004752081	0.001140967	-0.04781444	-0.03443917	0	0
3.871858	-0.05266179	-0.01372143	0.006268866	-0.004515328	0.04553322	-0.1697995	0	0
3.888247	-0.05260931	-0.01375923	0.003202558	-0.002306733	-0.09254403	0.06665744	0	0
3.904877	-0.05260931	-0.01379703	0	-0.002273223	-0.09699047	0.001014851	0	0
3.921389	-0.05258306	-0.01381594	0.001589484	-0.00114479	0.04795968	0.03404836	0	0
3.937947	-0.05258306	-0.01381594	0	0	-0.04806514	0.03461782	0	0
3.954513	-0.05260931	-0.01383484	-0.001584177	-0.001141023	-0.04782467	-0.03444632	0	0
3.97108	-0.05266179	-0.01387265	-0.00316822	-0.002282113	-0.04780859	-0.03443962	0	0
4.006628	-0.05276676	-0.01398607	-0.002952946	-0.003190623	0.004130823	-0.01743306	0	0
4.023193	-0.052793	-0.01400497	-0.001584043	-0.001141145	0.02626757	0.039327	0	0
4.03976	-0.05284549	-0.01404278	-0.00316822	-0.002282225	-0.047814	-0.03444033	0	0
4.056484	-0.05289797	-0.01408059	-0.003138321	-0.002260687	0.0008981535	0.0006469875	0	0
4.072894	-0.05300294	-0.01419401	-0.006396607	-0.006912215	-0.09833668	-0.1403854	0	0
4.089459	-0.05305542	-0.01426964	-0.003168178	-0.004564994	0.09790476	0.0711814	0	0
4.106027	-0.05308167	-0.01440198	-0.001584086	-0.007987829	0.04781005	-0.1033058	0	0
4.122593	-0.05365897	-0.01534742	-0.03484672	-0.05706905	-1.003868	-1.481274	0	0
4.139159	-0.05428871	-0.01591483	-0.03801457	-0.03425151	-0.09561127	0.6886744	0	0
4.155725	-0.05940371	-0.01964329	-0.3087599	-0.2250634	-8.1717	-5.759129	0	0
4.172293	-0.0692051	-0.02688568	-0.5916129	-0.4371518	-8.536766	-6.401025	0	0
4.189078	-0.0778947	-0.0332319	-0.5176961	-0.3780852	2.216238	1.770987	0	0
4.205427	-0.08641583	-0.03947696	-0.5211915	-0.381977	-0.1054912	-0.1174537	0	0
4.221993	-0.09716673	-0.0473398	-0.6489633	-0.4746293	-3.8818	-2.814846	0	0
4.238614	-0.1045906	-0.05279116	-0.4466805	-0.3279968	6.095346	4.418447	0	0
4.255126	-0.1137438	-0.05953819	-0.5543031	-0.4085922	-3.248197	-2.432478	0	0
4.271693	-0.1199477	-0.06412832	-0.374494	-0.2770766	5.43572	3.975785	0	0
4.371092	-0.1589632	-0.09338272	-0.392511	-0.2943112	-0.1553639	-0.1486178	0	0
4.387717	-0.1678274	-0.1001131	-0.5331905	-0.4048343	-1.212499	-0.952584	0	0
4.404229	-0.1709211	-0.1025098	-0.1873691	-0.1451568	10.43631	7.836631	0	0
4.420793	-0.1772261	-0.1074076	-0.3806359	-0.2956817	-5.843147	-4.550907	0	0
4.437359	-0.1820156	-0.1111604	-0.2891172	-0.2265389	2.7624	2.087004	0	0
4.453927	-0.1876096	-0.1157024	-0.3376421	-0.2741474	-1.464528	-1.436868	0	0
4.470494	-0.1885492	-0.1166235	-0.056715	-0.05559838	8.478153	6.595632	0	0
4.487288	-0.1898185	-0.1179961	-0.07557976	-0.08172879	-0.5654663	-0.7832519	0	0
4.503626	-0.1914676	-0.1211164	-0.1009341	-0.1909854	-0.7652508	-3.297607	0	0
4.520196	-0.1824992	-0.1306588	0.5412548	-0.5758947	19.51469	-11.69654	0	0
4.536828	-0.1738839	-0.1373309	0.5180033	-0.401169	-0.7003199	5.262629	0	0
4.553339	-0.1651914	-0.144061	0.5264587	-0.4076064	0.2551201	-0.1942305	0	0
4.569893	-0.1535707	-0.1530576	0.701989	-0.5434697	5.308591	-4.108935	0	0
4.586459	-0.1507939	-0.1552075	0.1676168	-0.129779	-16.13435	12.4906	0	0
4.603025	-0.140283	-0.1633475	0.634477	-0.4913586	14.09068	-10.91312	0	0
4.61989	-0.1282915	-0.1726399	0.7110382	-0.5509933	2.290123	-1.783812	0	0
4.636159	-0.1237072	-0.1761947	0.2817799	-0.2184972	-12.95523	10.0349	0	0
4.652727	-0.1156656	-0.1824342	0.4853887	-0.3766163	6.200697	-4.815355	0	0
4.669294	-0.1098975	-0.1869132	0.3481626	-0.2703569	-4.14149	3.206914	0	0
4.685859	-0.1030286	-0.1922516	0.4146553	-0.3222618	2.006869	-1.566583	0	0
4.702439	-0.09938204	-0.1951284	0.2199381	-0.1735085	-5.874631	4.4879	0	0
4.718994	-0.09492438	-0.1985978	0.2692737	-0.2095758	1.48895	-1.088515	0	0
4.735559	-0.09440278	-0.1990039	0.03148884	-0.02451855	-7.179667	5.587613	0	0
4.752125	-0.09442885	-0.1989836	-0.001574058	0.001225966	-0.9979263	0.7770383	0	0
4.768692	-0.09442885	-0.1989836	0	0	0.04750722	-0.03700134	0	0
4.785258	-0.09442885	-0.1989836	0	0	0	0	0	0
4.801825	-0.09442885	-0.1990242	0	-0.002451933	0	-0.07400268	0	0
4.818528	-0.09442885	-0.1990242	0	0	0	0.07369827	0	0
4.835033	-0.09453318	-0.1991055	-0.006320869	-0.004921999	-0.1903369	-0.1482135	0	0
4.869617	-0.1025079	-0.2053701	-0.2305947	-0.1811462	-4.389882	-3.449371	0	0
4.886182	-0.107635	-0.2094275	-0.3095126	-0.2449338	-1.54292	-1.247107	0	0
4.902751	-0.1183911	-0.2178936	-0.6491446	-0.5109445	-10.24997	-8.028105	0	0
4.919319	-0.1267899	-0.2245845	-0.5069363	-0.4038513	4.291486	3.231802	0	0
4.935886	-0.1378052	-0.2333195	-0.6649055	-0.5272618	-4.767523	-3.724537	0	0
4.952623	-0.1453622	-0.2393778	-0.4514998	-0.3619591	6.40777	4.963418	0	0
4.969129	-0.1544701	-0.2467635	-0.5518197	-0.4474752	-3.017802	-2.572478	0	0
4.985584	-0.1611945	-0.2522167	-0.4086361	-0.3313858	4.344045	3.522034	0	0
5.00215	-0.167239	-0.2571417	-0.3648901	-0.2973104	1.324795	1.031933	0	0
5.019172	-0.1748283	-0.2633576	-0.4458388	-0.3651538	-2.410054	-2.019875	0	0
5.035284	-0.1806662	-0.268164	-0.3623466	-0.2983252	2.519835	2.01692	0	0
5.051849	-0.1863646	-0.2729194	-0.3439965	-0.28707	0.5615679	0.3444413	0	0
5.068443	-0.1933944	-0.2787643	-0.4236351	-0.3522288	-2.4017	-1.965026	0	0
5.084982	-0.1977498	-0.2824451	-0.2633303	-0.2225466	4.838146	3.913931	0	0
5.101549	-0.200607	-0.2848394	-0.172475	-0.1445297	2.74439	2.356589	0	0
5.200949	-0.213687	-0.2959191	-0.1315884	-0.1114652	0.3525712	0.2851201	0	0
5.217516	-0.213687	-0.2959191	0	0	1.134703	0.9611781	0	0
5.234084	-0.213687	-0.2959191	0	0	0	0	0	0
5.250651	-0.213687	-0.2959191	0	0	0	0	0	0
5.26734	-0.2136619	-0.2958978	0.001505357	0.001276786	0.04526501	0.03839203	0	0
5.283851	-0.2136619	-0.2958978	0	0	-0.04534237	-0.03845765	0	0
5.30035	-0.2136619	-0.2958978	0	0	0	0	0	0
5.316916	-0.2136619	-0.2958978	0	0	0	0	0	0
5.333485	-0.2136619	-0.2958978	0	0	0	0	0	0
5.350049	-0.2136619	-0.2958978	0	0	0	0	0	0
5.366616	-0.2136367	-0.2959191	0.001517348	-0.001286193	0.04579762	-0.03882074	0	0
5.383421	-0.2136367	-0.2959191	0	0	-0.04546781	0.03854118	0	0
5.399749	-0.2136367	-0.2959191	0	0	0	0	0	0
5.416316	-0.2136367	-0.2959191	0	0	0	0	0	0
5.432884	-0.2136619	-0.2958978	-0.001517305	0.001286156	-0.04579234	0.03881627	0	0
5.449468	-0.2136619	-0.2958978	0	0	0.04576798	-0.03879562	0	0
5.466018	-0.2136367	-0.2958765	0.001518922	0.001289328	0.04584116	0.038912	0	0
5.482583	-0.2136367	-0.2958765	0	0	-0.04586888	-0.03893553	0	0
5.499149	-0.2136367	-0.2958765	0	0	0	0	0	0
5.515717	-0.2136367	-0.2958765	0	0	0	0	0	0
5.532283	-0.2136367	-0.2958765	0	0	0	0	0	0
5.548849	-0.2136116	-0.2958551	0.001517479	0.001288103	0.04580025	0.03887727	0	0
5.565415	-0.2136116	-0.2958551	0	0	-0.04580091	-0.03887783	0	0
5.581983	-0.2136116	-0.2958551	0	0	0	0	0	0
5.598573	-0.2136116	-0.2958551	0	0	0	0	0	0
5.615116	-0.2135865	-0.2958338	0.001518722	0.001289923	0.04583776	0.03893219	0	0
5.631683	-0.2135865	-0.2958338	0	0	-0.04586878	-0.03895854	0	0
5.64825	-0.2135865	-0.2957911	0	0.00257426	0	0.07769131	0	0
5.664815	-0.2135865	-0.2957911	0	0	0	-0.0776969	0	0
5.683212	-0.2135613	-0.2957698	0.001366443	0.001159897	0.03908347	0.03317577	0	0
5.69978	-0.2135613	-0.2957698	0	0	-0.03908081	-0.03317351	0	0
5.716656	-0.2135613	-0.2957698	0	0	0	0	0	0
5.732914	-0.2135613	-0.2957698	0	0	0	0	0	0
5.749684	-0.2135613	-0.2957698	0	0	0	0	0	0
5.766047	-0.2135613	-0.2957698	0	0	0	0	0	0
5.782613	-0.2135613	-0.2957698	0	0	0	0	0	0
5.79918	-0.2135362	-0.2957485	0.001517392	0.00128623	0.04579762	0.03882074	0	0
5.815747	-0.2135362	-0.2957485	0	0	-0.04579564	-0.03881907	0	0
5.832314	-0.2135613	-0.2957272	-0.001517392	0.001288029	-0.04579564	0.03887336	0	0
5.848882	-0.2135362	-0.2957058	0.001517305	0.001287955	0.09158733	-2.238049E-06	0	0
5.931714	-0.2134357	-0.2955779	0.001213755	0.001544582	-0.003053822	0.002581763	0	0
5.94832	-0.2134105	-0.2955565	0.001512878	0.001284959	0.003008123	-0.002610885	0	0
5.964849	-0.2134105	-0.2955565	0	0	-0.0456581	-0.0387796	0	0
5.981415	-0.2134105	-0.2955565	0	0	0	0	0	0
5.997981	-0.2134105	-0.2955565	0	0	0	0	0	0
6.014547	-0.2133854	-0.2955352	0.001517479	0.001288103	0.04580091	0.03887783	0	0
6.031116	-0.2133854	-0.2954926	0	0.002573889	-0.04579696	0.03880453	0	0
6.047682	-0.2133351	-0.2950661	0.003034959	0.02574408	0.09159391	0.6992676	0	0
6.064248	-0.2132095	-0.2948316	0.007586497	0.01415475	0.1373776	-0.3497969	0	0
6.080813	-0.2127066	-0.2941922	0.03035229	0.03859993	0.6871322	0.7378207	0	0
6.09738	-0.2116504	-0.292914	0.06375928	0.07715625	1.008298	1.163716	0	0
6.113947	-0.2095113	-0.2907219	0.1291167	0.132316	1.972548	1.664773	0	0
6.130513	-0.2031581	-0.2847758	0.3835019	0.3589244	7.677583	6.839251	0	0
6.147081	-0.1959781	-0.2784684	0.4333565	0.3806931	1.504614	0.6569821	0	0
6.163648	-0.1831099	-0.2677017	0.7767751	0.6499158	10.36439	8.125157	0	0
6.180213	-0.171841	-0.2583959	0.6802713	0.5617695	-2.91274	-2.660489	0	0
6.196779	-0.1635522	-0.2516332	0.5003373	0.4082199	-5.430889	-4.634539	0	0
6.213346	-0.1463926	-0.2377632	1.03579	0.8372145	16.16071	12.94764	0	0
6.229913	-0.133465	-0.2274234	0.7803308	0.6241311	-7.71001	-6.431055	0	0
6.246481	-0.1172492	-0.2146176	0.9787309	0.7729145	5.987642	4.490227	0	0
6.263048	-0.1052153	-0.2051256	0.7263696	0.5729371	-7.616062	-6.035158	0	0
6.279613	-0.08962765	-0.1929401	0.9410336	0.7356506	6.479133	4.911128	0	0
6.296566	-0.08194765	-0.1869132	0.4530178	0.3555027	-14.56009	-11.34182	0	0
6.329589	-0.05874811	-0.1672881	0.702519	0.5942789	4.992386	4.777783	0	0
6.345881	-0.05169075	-0.1581171	0.4331895	0.5629308	-5.461414	-0.63567	0	0
6.379124	-0.04134485	-0.1350587	0.3112189	0.6936266	-2.462321	2.638465	0	0
6.412147	-0.03716709	-0.1141548	0.1265092	0.6330031	-2.787375	-0.9148446	0	0
6.449153	-0.03519599	-0.08035938	0.05326447	0.9132454	-1.045917	4.001789	0	0
6.465723	-0.03446004	-0.06947684	0.04441435	0.6567581	-0.1651882	-4.787355	0	0
6.500593	-0.03227826	-0.0483528	0.06256869	0.6057915	0.3529212	-0.9907917	0	0
6.517159	-0.0300173	-0.03572457	0.1364797	0.762285	1.436939	3.042464	0	0
6.533734	-0.02817675	-0.02436222	0.1110445	0.6855174	-0.767482	-2.316383	0	0
6.550295	-0.02738789	-0.01689857	0.04763373	0.4506755	-1.913657	-7.087238	0	0
6.56686	-0.02694085	-0.0100376	0.02698796	0.4142	-0.623261	-1.101132	0	0
6.583426	-0.02588895	-0.003285329	0.06349629	0.4075916	1.10195	-0.1994657	0	0
6.599993	-0.024574	0.00548336	0.07937289	0.5292944	0.4791774	3.673155	0	0
6.61656	-0.024574	0.01220439	0	0.4056824	-2.395513	-3.730672	0	0
6.633305	-0.02531038	0.01587851	-0.04397735	0.2194207	-1.320172	-5.591454	0	0
6.682827	-0.0303328	0.02771821	-0.101416	0.2390755	-0.8667702	0.2965972	0	0
6.699394	-0.03035909	0.02773689	-0.001587146	0.001127171	1.510519	-3.600414	0	0
6.71596	-0.03035909	0.02773689	0	0	0.04790292	-0.03402003	0	0
6.732527	-0.03035909	0.02773689	0	0	0	0	0	0
6.749094	-0.03035909	0.02773689	0	0	0	0	0	0
6.76566	-0.0303328	0.0277929	0.0015871	0.003381414	0.04790085	0.1020557	0	0
6.782228	-0.03014876	0.02792361	0.01110839	0.007889288	0.287353	0.1360479	0	0
6.798794	-0.02988584	0.02814767	0.01587135	0.01352531	0.1437507	0.1701004	0	0
6.815432	-0.02983325	0.02818501	0.003160443	0.002244249	-0.3828117	-0.3397493	0	0
6.831927	-0.02980696	0.02816634	0.001593982	-0.001131913	-0.04727725	-0.1018957	0	0
6.848494	-0.02980696	0.02816634	0	0	-0.04821263	0.03423657	0	0
6.865069	-0.02980696	0.02816634	0	0	0	0	0	0
6.898193	-0.02975437	0.028129	0.001587501	-0.001127294	0.03194181	-0.02268207	0	0
6.931327	-0.02972808	0.02811033	0.0007935502	-0.0005635128	-0.01198281	0.008508942	0	0
6.948027	-0.02972808	0.02811033	0	0	-0.01592409	0.01130796	0	0
6.964461	-0.0296755	0.02807298	0.003199598	-0.002272167	0.09656406	-0.06857413	0	0
6.981027	-0.02962291	0.0279983	0.003174475	-0.004508604	-0.0007613141	-0.06777085	0	0
6.997593	-0.02959662	0.02794228	0.001587146	-0.003381287	-0.04790981	0.03402546	0	0
7.01416	-0.02957033	0.02788627	0.001586988	-0.003381189	-4.771432E-06	2.937347E-06	0	0
7.030727	-0.02957033	0.02784892	0	-0.002254211	-0.04789608	0.03401276	0	0
7.047294	-0.02954403	0.02783025	0.0015871	-0.001127026	0.04789947	0.03401902	0	0
7.063862	-0.02954403	0.02775556	0	-0.004508033	-0.04789741	-0.1020361	0	0
7.080427	-0.02957033	0.02773689	-0.001587329	-0.0011273	-0.04790774	0.1020351	0	0
7.096994	-0.02959662	0.02768087	-0.001586896	-0.003381219	1.304627E-05	-0.06802832	0	0
7.113642	-0.02962291	0.02766219	-0.001579372	-0.00112165	0.0002265253	0.06802752	0	0
7.130127	-0.02962291	0.02766219	0	0	0.0476683	0.0338534	0	0
7.146694	-0.0296492	0.02764352	-0.0015871	-0.001127138	-0.04801903	-0.03410249	0	0
7.163261	-0.0296755	0.02762485	-0.001587009	-0.001127073	2.758036E-06	1.956976E-06	0	0
7.179827	-0.02970179	0.02760617	-0.001587237	-0.001127348	-6.89363E-06	-8.288519E-06	0	0
7.196394	-0.02972808	0.02755015	-0.001586896	-0.003381332	1.028774E-05	-0.06802831	0	0
7.21296	-0.02978067	0.02747545	-0.003174475	-0.004509279	-0.04791527	-0.03404297	0	0
7.229527	-0.02985954	0.02730738	-0.004761076	-0.01014514	-0.04788717	-0.1701029	0	0
7.246093	-0.02983325	0.02728871	0.001586988	-0.00112725	0.1915905	0.2721683	0	0
7.26266	-0.02985954	0.02727003	-0.001586988	-0.001127363	-0.09579354	-3.390549E-06	0	0
7.281075	-0.02983325	0.02725136	0.001427747	-0.00101414	0.08618144	0.00323667	0	0
7.297774	-0.02985954	0.02723268	-0.001574345	-0.00111827	-0.08549488	-0.002965467	0	0
7.314209	-0.02985954	0.02719533	0	-0.002272733	0.04751384	-0.03484177	0	0
7.380475	-0.02996471	0.02685915	-0.001587095	-0.005073178	-0.01919082	-0.03386239	0	0
7.397044	-0.029991	0.02684047	-0.001586805	-0.001127345	3.499428E-06	0.04763501	0	0
7.413624	-0.029991	0.02684047	0	0	0.04786852	0.03400818	0	0
7.430176	-0.0300173	0.02682179	-0.001588563	-0.001128402	-0.04794639	-0.0340577	0	0
7.446742	-0.03004359	0.02676576	-0.001587034	-0.003382411	4.619665E-05	-0.0680604	0	0
7.463312	-0.03006988	0.02670972	-0.001586668	-0.003381744	1.102448E-05	2.010967E-05	0	0
7.479903	-0.03012246	0.02659765	-0.003169527	-0.00675513	-0.04773299	-0.1017285	0	0
7.496442	-0.03012246	0.0265603	0	-0.002258721	0.09567028	0.1357214	0	0
7.513009	-0.03009617	0.02654162	0.001586988	-0.001127475	0.04793678	0.03417058	0	0
7.529575	-0.02991213	0.02629878	0.01110925	-0.01465819	0.2873908	-0.4083696	0	0
7.546142	-0.0296492	0.02607461	0.01587067	-0.0135315	0.1437039	0.03400452	0	0
7.562709	-0.02883411	0.02534595	0.04920045	-0.04398312	1.005924	-0.919058	0	0
7.579474	-0.027309	0.02422465	0.09096685	-0.06688109	1.253029	-0.6869595	0	0
7.595842	-0.02678307	0.02370125	0.03213276	-0.03197776	-1.775693	1.05343	0	0
7.612409	-0.02683566	0.02366387	-0.003174559	-0.002256685	-1.072041	0.9024253	0	0
7.628976	-0.02683566	0.02366387	0	0	0.09580976	0.06810786	0	0
7.645542	-0.02686196	0.02364517	-0.001587371	-0.00112852	-0.04790902	-0.03406026	0	0
7.662532	-0.02688826	0.02366387	-0.001547809	0.001100394	0.001178978	0.06642372	0	0
7.678678	-0.02688826	0.02366387	0	0	0.04671163	-0.033209	0	0
7.761599	-0.02688826	0.02366387	0	0	0	0	0	0
7.778076	-0.02691455	0.02368256	-0.001596007	0.001134547	-0.01605671	0.01141416	0	0
7.794641	-0.02691455	0.02368256	0	0	0.04830245	-0.03433655	0	0
7.811209	-0.02691455	0.02368256	0	0	0	0	0	0
7.827775	-0.02691455	0.02368256	0	0	0	0	0	0
7.844341	-0.02691455	0.02368256	0	0	0	0	0	0
7.860908	-0.02691455	0.02368256	0	0	0	0	0	0
7.877691	-0.02691455	0.02368256	0	0	0	0	0	0
7.894041	-0.02691455	0.02368256	0	0	0	0	0	0
7.910608	-0.02691455	0.02368256	0	0	0	0	0	0
7.927175	-0.02691455	0.02368256	0	0	0	0	0	0
7.943741	-0.02691455	0.02368256	0	0	0	0	0	0
7.960308	-0.02691455	0.02368256	0	0	0	0	0	0
7.976876	-0.02694085	0.02366387	-0.001587234	-0.00112831	-0.04790281	-0.03405246	0	0
7.993443	-0.02694085	0.02362648	0	-0.002256732	0.04790143	-0.03405487	0	0
8.010009	-0.02696715	0.02360778	-0.001587462	-0.001128585	-0.04791177	0.03404902	0	0
8.026796	-0.02701974	0.02357039	-0.0031329	-0.002227182	-0.046336	-0.03293862	0	0
8.043142	-0.0273353	0.02334605	-0.01930483	-0.01372463	-0.4880838	-0.3470038	0	0
8.061459	-0.02796639	0.02289732	-0.03445548	-0.02449898	-0.4370938	-0.310838	0	0
8.078029	-0.02912334	0.0220745	-0.0698216	-0.04965692	-1.013752	-0.7211399	0	0
8.09484	-0.02962291	0.02171913	-0.02971613	-0.02113847	1.201429	0.8543202	0	0
8.11135	-0.02962291	0.02171913	0	0	0.8918037	0.6343815	0	0
8.127729	-0.02962291	0.02171913	0	0	0	0	0	0
8.144376	-0.0296492	0.02170043	-0.001579508	-0.001123648	-0.04782657	-0.03402341	0	0
8.160886	-0.0296492	0.02170043	0	0	0.04763811	0.03388934	0	0
8.177429	-0.0296492	0.02170043	0	0	0	0	0	0
8.193995	-0.0296492	0.02170043	0	0	0	0	0	0
8.21056	-0.0296492	0.02170043	0	0	0	0	0	0
8.227431	-0.0296492	0.02170043	0	0	0	0	0	0
8.243942	-0.0296492	0.02170043	0	0	0	0	0	0
8.260259	-0.0296492	0.02170043	0	0	0	0	0	0
8.276965	-0.0296492	0.02170043	0	0	0	0	0	0
8.293477	-0.0296492	0.02170043	0	0	0	0	0	0
8.30996	-0.0296492	0.02170043	0	0	0	0	0	0
8.326528	-0.0296492	0.02170043	0	0	0	0	0	0
8.343094	-0.0296492	0.02170043	0	0	0	0	0	0
8.359658	-0.0296492	0.02170043	0	0	0	0	0	0
8.376225	-0.0296492	0.02170043	0	0	0	0	0	0
8.392794	-0.0296492	0.02170043	0	0	0	0	0	0
8.409559	-0.0296492	0.02170043	0	0	0	0	0	0
8.425926	-0.0296492	0.02170043	0	0	0	0	0	0
8.442583	-0.0296492	0.02170043	0	0	0	0	0	0
8.459063	-0.0296492	0.02170043	0	0	0	0	0	0
8.475628	-0.0296492	0.02170043	0	0	0	0	0	0
8.492192	-0.0296492	0.02170043	0	0	0	0	0	0
8.508759	-0.0296492	0.02170043	0	0	0	0	0	0
8.608197	-0.0296492	0.02170043	0	0	0	0	0	0
8.624726	-0.0296492	0.02170043	0	0	0	0	0	0
8.641293	-0.0296492	0.02170043	0	0	0	0	0	0
8.657859	-0.0296492	0.02170043	0	0	0	0	0	0
8.674426	-0.0296492	0.02170043	0	0	0	0	0	0
8.691257	-0.0296492	0.02170043	0	0	0	0	0	0
8.707561	-0.0296492	0.02170043	0	0	0	0	0	0
8.724279	-0.0296492	0.02170043	0	0	0	0	0	0
8.740693	-0.0296492	0.02170043	0	0	0	0	0	0
8.757305	-0.0296492	0.02170043	0	0	0	0	0	0
8.773826	-0.0296492	0.02170043	0	0	0	0	0	0
8.790392	-0.0296492	0.02170043	0	0	0	0	0	0
8.80696	-0.0296492	0.02170043	0	0	0	0	0	0
8.823525	-0.0296492	0.02170043	0	0	0	0	0	0
8.840093	-0.0296492	0.02170043	0	0	0	0	0	0
8.856659	-0.0296492	0.02170043	0	0	0	0	0	0
8.873385	-0.0296492	0.02170043	0	0	0	0	0	0
8.907617	-0.0296492	0.02170043	0	0	0	0	0	0
8.924184	-0.0296492	0.02170043	0	0	0	0	0	0
8.940752	-0.0296492	0.02170043	0	0	0	0	0	0
8.957334	-0.0296492	0.02170043	0	0	0	0	0	0
8.973884	-0.0296492	0.02170043	0	0	0	0	0	0
8.990452	-0.0296492	0.02170043	0	0	0	0	0	0
9.007019	-0.0296492	0.02170043	0	0	0	0	0	0
9.023585	-0.0296492	0.02170043	0	0	0	0	0	0
9.040153	-0.0296492	0.02170043	0	0	0	0	0	0
9.057016	-0.0296492	0.02170043	0	0	0	0	0	0
9.073286	-0.0296492	0.02170043	0	0	0	0	0	0
9.089851	-0.0296492	0.02170043	0	0	0	0	0	0
9.10642	-0.0296492	0.02170043	0	0	0	0	0	0
9.139574	-0.0296492	0.02170043	0	0	0	0	0	0
9.156118	-0.0296492	0.02170043	0	0	0	0	0	0
9.172685	-0.0296492	0.02170043	0	0	0	0	0	0
9.189252	-0.0296492	0.02170043	0	0	0	0	0	0
9.205817	-0.0296492	0.02170043	0	0	0	0	0	0
9.222383	-0.0296492	0.02170043	0	0	0	0	0	0
9.23895	-0.0296492	0.02170043	0	0	0	0	0	0
9.255517	-0.0296492	0.02170043	0	0	0	0	0	0
9.272083	-0.0296492	0.02170043	0	0	0	0	0	0
9.28865	-0.0296492	0.02170043	0	0	0	0	0	0
9.305216	-0.0296492	0.02170043	0	0	0	0	0	0
9.321782	-0.0296492	0.02170043	0	0	0	0	0	0
9.338348	-0.0296492	0.02170043	0	0	0	0	0	0
9.354915	-0.0296492	0.02170043	0	0	0	0	0	0
9.371734	-0.0296492	0.02170043	0	0	0	0	0	0
9.388048	-0.0296492	0.02170043	0	0	0	0	0	0
9.404614	-0.0296492	0.02170043	0	0	0	0	0	0
9.421183	-0.0296492	0.02170043	0	0	0	0	0	0
9.437748	-0.0296492	0.02170043	0	0	0	0	0	0
9.454317	-0.0296492	0.02170043	0	0	0	0	0	0
9.470883	-0.0296492	0.02170043	0	0	0	0	0	0
9.487448	-0.0296492	0.02170043	0	0	0	0	0	0
9.504014	-0.0296492	0.02170043	0	0	0	0	0	0
9.520582	-0.0296492	0.02170043	0	0	0	0	0	0
9.537148	-0.0296492	0.02170043	0	0	0	0	0	0
9.553714	-0.0296492	0.02170043	0	0	0	0	0	0
9.5894	-0.0296492	0.02170043	0	0	0	0	0	0
9.605967	-0.0296492	0.02170043	0	0	0	0	0	0
9.622536	-0.0296492	0.02170043	0	0	0	0	0	0
9.639102	-0.0296492	0.02170043	0	0	0	0	0	0
9.655669	-0.0296492	0.02170043	0	0	0	0	0	0
9.672235	-0.0296492	0.02170043	0	0	0	0	0	0
9.688959	-0.0296492	0.02170043	0	0	0	0	0	0
9.70547	-0.0296492	0.02170043	0	0	0	0	0	0
9.721936	-0.0296492	0.02170043	0	0	0	0	0	0
9.738502	-0.0296492	0.02170043	0	0	0	0	0	0
9.755069	-0.0296492	0.02170043	0	0	0	0	0	0
9.771634	-0.0296492	0.02170043	0	0	0	0	0	0
9.788528	-0.0296492	0.02170043	0	0	0	0	0	0
9.804768	-0.0296492	0.02170043	0	0	0	0	0	0
9.821554	-0.0296492	0.02170043	0	0	0	0	0	0
9.838064	-0.0296492	0.02170043	0	0	0	0	0	0
9.854578	-0.0296492	0.02170043	0	0	0	0	0	0
9.871035	-0.0296492	0.02170043	0	0	0	0	0	0
9.887602	-0.0296492	0.02170043	0	0	0	0	0	0
9.904168	-0.0296492	0.02170043	0	0	0	0	0	0
9.937301	-0.0296492	0.02170043	0	0	0	0	0	0
9.953868	-0.0296492	0.02170043	0	0	0	0	0	0
9.970657	-0.0296492	0.02170043	0	0	0	0	0	0
9.987003	-0.0296492	0.02170043	0	0	0	0	0	0
10.00357	-0.0296492	0.02170043	0	0	0	0	0	0
10.02019	-0.0296492	0.02170043	0	0	0	0	0	0
10.0367	-0.0296492	0.02170043	0	0	0	0	0	0
10.05327	-0.0296492	0.02170043	0	0	0	0	0	0
10.06983	-0.0296492	0.02170043	0	0	0	0	0	0
10.0864	-0.0296492	0.02170043	0	0	0	0	0	0
10.11954	-0.0296492	0.02170043	0	0	0	0	0	0
10.13628	-0.0296492	0.02170043	0	0	0	0	0	0
10.15267	-0.0296492	0.02170043	0	0	0	0	0	0
10.16924	-0.0296492	0.02170043	0	0	0	0	0	0
10.18582	-0.0296492	0.02170043	0	0	0	0	0	0
10.20237	-0.0296492	0.02170043	0	0	0	0	0	0
10.21894	-0.0296492	0.02170043	0	0	0	0	0	0
10.2355	-0.0296492	0.02170043	0	0	0	0	0	0
10.25236	-0.0296492	0.02170043	0	0	0	0	0	0
10.26863	-0.0296492	0.02170043	0	0	0	0	0	0
10.31838	-0.0296492	0.02170043	0	0	0	0	0	0
10.3349	-0.0296492	0.02170043	0	0	0	0	0	0
10.35147	-0.0296492	0.02170043	0	0	0	0	0	0
10.36944	-0.0296492	0.02170043	0	0	0	0	0	0
10.386	-0.0296492	0.02170043	0	0	0	0	0	0
10.40257	-0.0296492	0.02170043	0	0	0	0	0	0
10.41913	-0.0296492	0.02170043	0	0	0	0	0	0
10.43599	-0.0296492	0.02170043	0	0	0	0	0	0
10.45227	-0.0296492	0.02170043	0	0	0	0	0	0
10.46884	-0.0296492	0.02170043	0	0	0	0	0	0
10.53329	-0.0296492	0.02170043	0	0	0	0	0	0
10.54985	-0.0296492	0.02170043	0	0	0	0	0	0
10.56642	-0.0296492	0.02170043	0	0	0	0	0	0
10.58309	-0.0296492	0.02170043	0	0	0	0	0	0
10.5996	-0.0296492	0.02170043	0	0	0	0	0	0
10.61612	-0.0296492	0.02170043	0	0	0	0	0	0
10.63269	-0.0296492	0.02170043	0	0	0	0	0	0
10.64925	-0.0296492	0.02170043	0	0	0	0	0	0
10.66582	-0.0296492	0.02170043	0	0	0	0	0	0
10.68239	-0.0296492	0.02170043	0	0	0	0	0	0
10.69896	-0.0296492	0.02170043	0	0	0	0	0	0
10.71552	-0.0296492	0.02170043	0	0	0	0	0	0
10.73209	-0.0296492	0.02170043	0	0	0	0	0	0
10.74865	-0.0296492	0.02170043	0	0	0	0	0	0
10.76522	-0.0296492	0.02170043	0	0	0	0	0	0
10.78179	-0.0296492	0.02170043	0	0	0	0	0	0
10.79836	-0.0296492	0.02170043	0	0	0	0	0	0
10.81492	-0.0296492	0.02170043	0	0	0	0	0	0
10.83176	-0.0296492	0.02170043	0	0	0	0	0	0
10.84805	-0.0296492	0.02170043	0	0	0	0	0	0
10.86462	-0.0296492	0.02170043	0	0	0	0	0	0
10.88119	-0.0296492	0.02170043	0	0	0	0	0	0
10.89775	-0.0296492	0.02170043	0	0	0	0	0	0
10.91432	-0.0296492	0.02170043	0	0	0	0	0	0
10.93089	-0.0296492	0.02170043	0	0	0	0	0	0
10.94745	-0.0296492	0.02170043	0	0	0	0	0	0
10.96402	-0.0296492	0.02170043	0	0	0	0	0	0
10.98059	-0.0296492	0.02170043	0	0	0	0	0	0
10.99718	-0.0296492	0.02170043	0	0	0	0	0	0
11.01372	-0.0296492	0.02170043	0	0	0	0	0	0
11.03029	-0.0296492	0.02170043	0	0	0	0	0	0
11.04685	-0.0296492	0.02170043	0	0	0	0	0	0
11.0821	-0.0296492	0.02170043	0	0	0	0	0	0
11.09867	-0.0296492	0.02170043	0	0	0	0	0	0
11.11523	-0.0296492	0.02170043	0	0	0	0	0	0
11.1318	-0.0296492	0.02170043	0	0	0	0	0	0
11.14837	-0.0296492	0.02170043	0	0	0	0	0	0
11.16501	-0.0296492	0.02170043	0	0	0	0	0	0
11.1815	-0.0296492	0.02170043	0	0	0	0	0	0
11.19807	-0.0296492	0.02170043	0	0	0	0	0	0
11.21464	-0.0296492	0.02170043	0	0	0	0	0	0
11.24777	-0.0296492	0.02170043	0	0	0	0	0	0
11.26434	-0.0296492	0.02170043	0	0	0	0	0	0
11.2809	-0.0296492	0.02170043	0	0	0	0	0	0
11.29759	-0.0296492	0.02170043	0	0	0	0	0	0
11.31411	-0.0296492	0.02170043	0	0	0	0	0	0
11.3306	-0.0296492	0.02170043	0	0	0	0	0	0
11.34717	-0.0296492	0.02170043	0	0	0	0	0	0
11.36374	-0.0296492	0.02170043	0	0	0	0	0	0
11.3803	-0.0296492	0.02170043	0	0	0	0	0	0
11.39716	-0.0296492	0.02170043	0	0	0	0	0	0
11.41368	-0.0296492	0.02170043	0	0	0	0	0	0
11.43	-0.0296492	0.02170043	0	0	0	0	0	0
11.44657	-0.0296492	0.02170043	0	0	0	0	0	0
11.46322	-0.0296492	0.02170043	0	0	0	0	0	0
11.49627	-0.0296492	0.02170043	0	0	0	0	0	0
11.5294	-0.0296492	0.02170043	0	0	0	0	0	0
11.54597	-0.0296492	0.02170043	0	0	0	0	0	0
11.56253	-0.0296492	0.02170043	0	0	0	0	0	0
11.5791	-0.0296492	0.02170043	0	0	0	0	0	0
11.59567	-0.0296492	0.02170043	0	0	0	0	0	0
11.61223	-0.0296492	0.02170043	0	0	0	0	0	0
11.6288	-0.0296492	0.02170043	0	0	0	0	0	0
11.64537	-0.0296492	0.02170043	0	0	0	0	0	0
11.66193	-0.0296492	0.02170043	0	0	0	0	0	0
11.67886	-0.0296492	0.02170043	0	0	0	0	0	0
11.69507	-0.0296492	0.02170043	0	0	0	0	0	0
11.71163	-0.0296492	0.02170043	0	0	0	0	0	0
11.7282	-0.0296492	0.02170043	0	0	0	0	0	0
11.74491	-0.0296492	0.02170043	0	0	0	0	0	0
11.76142	-0.0296492	0.02170043	0	0	0	0	0	0
11.7779	-0.0296492	0.02170043	0	0	0	0	0	0
11.79447	-0.0296492	0.02170043	0	0	0	0	0	0
11.81103	-0.0296492	0.02170043	0	0	0	0	0	0
11.8276	-0.0296492	0.02170043	0	0	0	0	0	0
11.84417	-0.0296492	0.02170043	0	0	0	0	0	0
11.86322	-0.0296492	0.02170043	0	0	0	0	0	0
11.88	-0.0296492	0.02170043	0	0	0	0	0	0
11.89636	-0.0296492	0.02170043	0	0	0	0	0	0
11.91303	-0.0296492	0.02170043	0	0	0	0	0	0
11.99576	-0.0296492	0.02170043	0	0	0	0	0	0
12.0126	-0.0296492	0.02170043	0	0	0	0	0	0
12.02889	-0.0296492	0.02170043	0	0	0	0	0	0
12.04546	-0.0296492	0.02170043	0	0	0	0	0	0
12.06202	-0.0296492	0.02170043	0	0	0	0	0	0
12.07859	-0.0296492	0.02170043	0	0	0	0	0	0
12.09516	-0.0296492	0.02170043	0	0	0	0	0	0
12.12829	-0.0296492	0.02170043	0	0	0	0	0	0
12.14486	-0.0296492	0.02170043	0	0	0	0	0	0
12.16142	-0.0296492	0.02170043	0	0	0	0	0	0
12.17799	-0.0296492	0.02170043	0	0	0	0	0	0
12.19456	-0.0296492	0.02170043	0	0	0	0	0	0
12.21124	-0.0296755	0.02171913	-0.001575627	0.001120887	-0.04738203	0.03370717	0	0
12.22769	-0.0296755	0.02175654	0	0.002274663	0.04755387	0.03482203	0	0
12.24426	-0.02978067	0.02186877	-0.006348472	0.006774266	-0.1923057	0.1363004	0	0
12.26082	-0.02980696	0.02199969	-0.001587034	0.007903011	0.1437088	0.03406753	0	0
12.27739	-0.02985954	0.02211191	-0.003173814	0.006772924	-0.04788914	-0.03410608	0	0
12.29395	-0.02996471	0.02222412	-0.006348837	0.006773982	-0.09582513	3.191684E-05	0	0
12.31052	-0.029991	0.02228022	-0.001586942	0.003386488	0.1437225	-0.1022406	0	0
12.32709	-0.029991	0.02228022	0	0	0.04789539	-0.1022074	0	0
12.34366	-0.02996471	0.02226152	0.001586851	-0.001128727	0.04789126	-0.03406505	0	0
12.36022	-0.02993842	0.02224282	0.001587329	-0.001129099	1.442343E-05	-1.123657E-05	0	0
12.37679	-0.02991213	0.02222412	0.001586759	-0.001128662	-1.718112E-05	1.32003E-05	0	0
12.39336	-0.02991213	0.02218672	0	-0.002257047	-0.04787885	-0.03404786	0	0
12.40992	-0.02978067	0.0220558	0.00793779	-0.007904837	0.2395699	-0.1704555	0	0
12.42649	-0.02972808	0.02198099	0.003174475	-0.00451625	-0.1437903	0.1022913	0	0
12.44306	-0.0296492	0.02188747	0.004760777	-0.00564431	0.04787608	-0.03404589	0	0
12.45963	-0.0296755	0.02183136	-0.001586872	-0.003386436	-0.1915559	0.06813689	0	0
12.47619	-0.0296755	0.02183136	0	0	0.04789327	0.1022058	0	0
12.49293	-0.0296755	0.02183136	0	0	0	0	0	0
12.50945	-0.0296755	0.02183136	0	0	0	0	0	0
12.52589	-0.0296755	0.02183136	0	0	0	0	0	0
12.54246	-0.02970179	0.02181266	-0.001587055	-0.001129017	-0.04807729	-0.03420177	0	0
12.55902	-0.02970179	0.02181266	0	0	0.04789878	0.03407478	0	0
12.57559	-0.02970179	0.02181266	0	0	0	0	0	0
12.59216	-0.02970179	0.02181266	0	0	0	0	0	0
12.60872	-0.02970179	0.02181266	0	0	0	0	0	0
12.62553	-0.02970179	0.02181266	0	0	0	0	0	0
12.64371	-0.02972808	0.02179395	-0.001445792	-0.001028597	-0.04132316	-0.02939902	0	0
12.66055	-0.02975437	0.02177525	-0.001561261	-0.001110557	-0.003296713	-0.002340016	0	0
12.7266	-0.02985954	0.0215882	-0.001592292	-0.002831957	-0.0003743582	-0.02076739	0	0
12.74311	-0.02985954	0.0215882	0	0	0.01928635	0.03430158	0	0
12.75968	-0.02985954	0.02155079	0	-0.002258276	0	-0.06827084	0	0
12.77625	-0.02985954	0.02155079	0	0	0	0.06815687	0	0
12.79281	-0.02988584	0.02153208	-0.001587146	-0.001129082	-0.04790154	-0.03407674	0	0
12.80966	-0.02985954	0.02151338	0.001560731	-0.001110291	0.09421133	0.0005623958	0	0
12.82594	-0.02985954	0.02151338	0	0	-0.04710431	0.0335096	0	0
12.84251	-0.02988584	0.02149467	-0.001587146	-0.001129194	-0.04831035	-0.03437098	0	0
12.85908	-0.02988584	0.02149467	0	0	0.04790292	0.03408111	0	0
12.89221	-0.02985954	0.02147597	0.0007935273	-0.0005645647	0.01596611	-0.01135928	0	0
12.90923	-0.02983325	0.02145726	0.001545312	-0.001099399	0.01499131	-0.01066512	0	0
12.92534	-0.02959662	0.02128891	0.01468045	-0.01044463	0.396442	-0.2820559	0	0
12.94191	-0.02878152	0.02070895	0.04920197	-0.03500817	1.05618	-0.751517	0	0
12.95876	-0.02070757	0.01492286	0.4790719	-0.3433201	12.86281	-9.225481	0	0
12.97528	-0.01115743	0.00803816	0.5783783	-0.4169535	2.976343	-2.206888	0	0
12.99161	0.003921032	-0.002776642	0.9229418	-0.6619662	10.48921	-7.458686	0	0
13.00818	0.007920887	-0.005641387	0.2414595	-0.1729363	-20.71204	14.8629	0	0
13.02475	0.02378499	-0.0171067	0.9575039	-0.6920081	21.61088	-15.66607	0	0
13.04132	0.03871748	-0.02791084	0.9009641	-0.651876	-1.705979	1.210909	0	0
13.05788	0.04906585	-0.03540098	0.6249166	-0.4523145	-8.331372	6.022954	0	0
13.07445	0.06084585	-0.04399747	0.7110832	-0.5189146	2.601189	-2.010518	0	0
13.09136	0.06865509	-0.0497295	0.4617446	-0.3389237	-7.447672	5.376276	0	0
13.10758	0.07826088	-0.05679531	0.5922158	-0.4356208	3.937855	-2.918493	0	0
13.12438	0.08419522	-0.06122742	0.3532157	-0.2638023	-7.237826	5.203313	0	0
13.14071	0.08772167	-0.0638208	0.215927	-0.1587945	-4.14362	3.169326	0	0
13.1574	0.09630641	-0.07030503	0.5142682	-0.3884375	9.033855	-6.953658	0	0
13.17391	0.1015182	-0.07423751	0.3156765	-0.2381874	-5.981112	4.525181	0	0
13.19041	0.1060741	-0.07776992	0.2761344	-0.214104	-1.197935	0.7296088	0	0
13.20698	0.1101835	-0.08124886	0.2480621	-0.2100011	-0.8490088	0.124087	0	0
13.22355	0.1123408	-0.08490653	0.1302061	-0.2207646	-3.556901	-0.324843	0	0
13.24011	0.1066985	-0.09447087	-0.3406084	-0.5773712	-14.20962	-10.76272	0	0
13.25668	0.1037837	-0.1010092	-0.1759405	-0.3946518	4.969973	5.5148	0	0
13.27349	0.09771413	-0.1147424	-0.3610779	-0.8169953	-5.546908	-12.65385	0	0
13.28981	0.09346374	-0.125401	-0.2603914	-0.6529787	3.038899	4.950318	0	0
13.30638	0.09210707	-0.1291808	-0.08189385	-0.2281577	5.427212	12.91666	0	0
13.32302	0.08607626	-0.1460044	-0.3623722	-1.010881	-8.445892	-23.56973	0	0
13.33951	0.08226132	-0.1592141	-0.2313491	-0.8010725	3.954512	6.332407	0	0
13.35608	0.07922854	-0.1720179	-0.1830691	-0.7728829	1.46054	0.8527747	0	0
13.37264	0.07616815	-0.1805202	-0.1847363	-0.5132297	-0.05031914	7.836802	0	0
13.38921	0.07164034	-0.1869536	-0.2733147	-0.3883448	-2.673455	3.76925	0	0
13.42428	0.06197317	-0.1968522	-0.2756653	-0.2822651	-0.04552412	2.054422	0	0
13.44084	0.06150129	-0.1972175	-0.02848594	-0.02204771	4.787159	5.039669	0	0
13.45741	0.06150129	-0.1972175	0	0	0.8596827	0.6653821	0	0
13.47413	0.06150129	-0.1972175	0	0	0	0	0	0
13.49055	0.06152751	-0.1972378	0.001596949	-0.001236347	0.04820156	-0.03731734	0	0
13.50711	0.0616848	-0.1974001	0.009494992	-0.009799918	0.2394662	-0.2596448	0	0
13.52368	0.06247124	-0.198009	0.04746657	-0.03675153	1.145985	-0.8134013	0	0
13.54025	0.06430595	-0.2006496	0.110756	-0.1594029	1.910134	-3.701732	0	0
13.55681	0.06396525	-0.2043722	-0.0205647	-0.224698	-3.963495	-1.970723	0	0
13.57338	0.06425353	-0.2200873	0.01739994	-0.948513	1.145742	-21.84415	0	0
13.58995	0.06393904	-0.2271146	-0.01898478	-0.4242183	-1.098125	15.8237	0	0
13.60651	0.06299549	-0.237184	-0.05695646	-0.6078207	-1.146086	-5.54161	0	0
13.62308	0.06142264	-0.2486766	-0.09494272	-0.6937379	-1.146494	-2.593137	0	0
13.63964	0.05948238	-0.2560555	-0.1171209	-0.4454137	-0.6693785	7.494872	0	0
13.65625	0.05866943	-0.2584586	-0.04894284	-0.1446755	2.055017	9.064817	0	0
13.67278	0.05316039	-0.2658747	-0.3333707	-0.4487787	-8.583804	-9.17759	0	0
13.68978	0.0513758	-0.2673026	-0.1049864	-0.08400016	6.812653	10.88126	0	0
13.70591	0.0513758	-0.2673026	0	0	3.168678	2.535276	0	0
13.72248	0.05140205	-0.2672816	0.001584539	0.001268351	0.04845746	0.03878797	0	0
13.73931	0.0514283	-0.2672606	0.001559004	0.001248088	-0.0007645341	-0.0006066709	0	0
13.75561	0.05150703	-0.2671556	0.004830476	0.006443073	0.09873324	0.1567849	0	0
13.77218	0.05150703	-0.2671135	0	0.002536555	-0.1469727	-0.1188602	0	0
13.78874	0.05150703	-0.2671135	0	0	0	-0.07656	0	0
13.80536	0.05153328	-0.2670926	0.001579628	0.001262626	0.04760476	0.03805138	0	0
13.88842	0.06144886	-0.2742471	0.1193836	-0.08614122	1.181901	-0.8769036	0	0
13.90471	0.06849793	-0.2791236	0.4326305	-0.2992867	3.152964	-2.1454	0	0
13.92144	0.0753832	-0.2835889	0.4115446	-0.2669013	-0.6385061	0.9806659	0	0
13.93784	0.08173853	-0.2867911	0.3874446	-0.1952162	-0.7273605	2.163523	0	0
13.95441	0.08688596	-0.2873218	0.3107172	-0.03203435	-2.327224	4.949483	0	0
13.97098	0.09414195	-0.2865576	0.4379218	0.04611956	3.838931	2.358622	0	0
13.98755	0.101362	-0.2846698	0.4358507	0.1139609	-0.0625063	2.047454	0	0
14.0045	0.1048249	-0.281937	0.2042381	0.1611786	-6.909541	1.408614	0	0
14.02068	0.1059439	-0.2810269	0.06917492	0.05625663	-4.076448	-3.166733	0	0
14.03753	0.1059439	-0.2810269	0	0	-2.094636	-1.703467	0	0
14.05403	0.1063863	-0.2807096	0.02679584	0.01922299	0.8033357	0.5763029	0	0
14.07038	0.1068546	-0.2803288	0.02865389	0.02329618	0.0565579	0.1239854	0	0
14.08706	0.1077911	-0.2795252	0.05614227	0.04817478	0.832356	0.7533308	0	0
14.10357	0.1123668	-0.2758079	0.2771136	0.2251285	6.65724	5.331114	0	0
14.1201	0.11795	-0.2712768	0.3378568	0.2741913	1.838631	1.48508	0	0
14.13665	0.1241736	-0.2662316	0.3760286	0.3048293	1.154053	0.9262815	0	0
14.15321	0.1271265	-0.2637559	0.1782572	0.1494495	-5.972018	-4.691938	0	0
14.16978	0.1272042	-0.2636511	0.004688759	0.006328431	-5.238608	-4.319651	0	0
14.18635	0.1271524	-0.2636091	-0.003126439	0.002531013	-0.2358632	-0.1146063	0	0
14.20291	0.1271524	-0.2635253	0	0.005062608	0.09436155	0.0764081	0	0
14.21948	0.1271265	-0.2634624	-0.00156232	0.003795619	-0.04715363	-0.03824	0	0
14.23728	0.1270747	-0.2634205	-0.002909079	0.002355048	-0.03918147	-0.04191078	0	0
14.25418	0.1270229	-0.2634205	-0.00306485	0	-0.004489025	-0.06786805	0	0
14.27042	0.1270229	-0.2634205	0	0	0.09249735	0	0	0
14.2872	0.1270488	-0.2634414	0.001542969	-0.001248224	0.04672289	-0.03779768	0	0
14.30358	0.1270488	-0.2634414	0	0	-0.04653073	0.03764224	0	0
14.32022	0.1270488	-0.2634414	0	0	0	0	0	0
14.33674	0.1270488	-0.2634414	0	0	0	0	0	0
14.35325	0.1270488	-0.2634414	0	0	0	0	0	0
14.36982	0.1270229	-0.2634624	-0.00156331	-0.001266479	-0.04725831	-0.03828521	0	0
14.38638	0.1270229	-0.2634624	0	0	0.04718214	0.0382235	0	0
14.40295	0.126997	-0.2634833	-0.0015634	-0.001264752	-0.04718621	-0.0381725	0	0
14.41952	0.1269452	-0.2634833	-0.00312536	0	-0.04714141	0.0381714	0	0
14.43608	0.1269452	-0.2634833	0	0	0.09432626	0	0	0
14.45265	0.1269452	-0.2634833	0	0	0	0	0	0
14.46933	0.1269452	-0.2634833	0	0	0	0	0	0
14.48578	0.1269452	-0.2634833	0	0	0	0	0	0
14.50235	0.1269452	-0.2634833	0	0	0	0	0	0
14.51892	0.1269452	-0.2634833	0	0	0	0	0	0
14.53548	0.1269452	-0.2634833	0	0	0	0	0	0
14.55205	0.1269193	-0.2635043	-0.00156331	-0.001266479	-0.04718621	-0.0382268	0	0
14.60175	0.1268417	-0.2634414	-0.00156298	0.001265855	4.976976E-06	0.03821463	0	0
14.63013	0.1267899	-0.2633995	-0.001824798	0.001476643	-0.003353365	0.002699765	0	0
14.6467	0.126764	-0.2633785	-0.00156295	0.001266187	0.005825764	-0.004682338	0	0
14.66326	0.126764	-0.2633785	0	0	0.0471672	-0.0382114	0	0
14.67998	0.1267381	-0.2633995	-0.001549218	-0.001255063	-0.04654651	-0.03770857	0	0
14.69649	0.1267122	-0.2633785	-0.001568728	0.001270868	-0.0005871778	0.0760227	0	0
14.713	0.1267122	-0.2633785	0	0	0.04750702	-0.0384867	0	0
14.72953	0.1267122	-0.2633785	0	0	0	0	0	0
14.77923	0.1266863	-0.2633576	-0.0005210832	0.0004215437	-0.007868143	0.006365137	0	0
14.79579	0.1266863	-0.2633576	0	0	0.007863274	-0.006361199	0	0
14.81257	0.1266863	-0.2633576	0	0	0	0	0	0
14.82893	0.1266863	-0.2633576	0	0	0	0	0	0
14.8456	0.1266604	-0.2633366	-0.001553472	0.001258509	-0.04703415	0.03810362	0	0
14.86206	0.1266345	-0.2633156	-0.001572276	0.001272665	-0.0005675041	0.0004272443	0	0
14.87863	0.1265827	-0.2632737	-0.003126439	0.002531013	-0.04705372	0.03809761	0	0
14.89519	0.126505	-0.2632108	-0.004689929	0.003795838	-0.04718756	0.03817361	0	0
14.91214	0.1264791	-0.2631899	-0.001528208	0.001236283	0.09434292	-0.07637482	0	0
14.92833	0.1264014	-0.263127	-0.00479962	0.003884618	-0.09873141	0.07992689	0	0
14.94489	0.1263496	-0.2630851	-0.003125899	0.002531304	0.0511013	-0.04131878	0	0
14.96146	0.1262461	-0.2630012	-0.006252878	0.005060226	-0.09437785	0.07632741	0	0
14.97803	0.1259612	-0.2627707	-0.01719631	0.01391427	-0.3302736	0.2672156	0	0
14.99628	0.1255467	-0.2624354	-0.02270442	0.01836795	-0.1581853	0.1279036	0	0
15.01285	0.1250286	-0.2620164	-0.03127249	0.02529034	-0.2460636	0.1988019	0	0
15.02942	0.1242514	-0.2613881	-0.04691098	0.03792305	-0.4719434	0.3812339	0	0
15.04598	0.1217371	-0.2593579	-0.1517844	0.1225657	-3.165179	2.554594	0	0
15.06255	0.1182354	-0.2565359	-0.2113521	0.1703272	-1.797859	1.441526	0	0
15.07926	0.1114572	-0.2510915	-0.4057001	0.3258641	-5.840556	4.674203	0	0
15.09568	0.1056317	-0.246431	-0.354693	0.2837613	1.539531	-1.270773	0	0
15.11225	0.09604568	-0.2387981	-0.5786116	0.4607216	-6.787179	5.36383	0	0
15.12882	0.08824392	-0.2326177	-0.4709154	0.3730491	3.250279	-2.645962	0	0
15.14538	0.0778947	-0.2244612	-0.6247517	0.4923845	-4.643058	3.601756	0	0
15.16195	0.06972887	-0.2180576	-0.4929188	0.3865458	3.97907	-3.194493	0	0
15.17883	0.06131777	-0.2114897	-0.4983433	0.3891321	-0.1621945	0.0773297	0	0
15.19508	0.0584334	-0.2092438	-0.1774513	0.1381736	9.685097	-7.574377	0	0
15.21185	0.04315739	-0.1974001	-0.9108931	0.7062278	-22.20883	17.20084	0	0
15.22822	0.03332976	-0.1898234	-0.6005608	0.463005	9.365846	-7.340478	0	0
15.24478	0.01523566	-0.1759535	-1.092288	0.8372886	-14.93275	11.36624	0	0
15.26139	0.003921032	-0.1672881	-0.6813444	0.5218102	12.38838	-9.510481	0	0
15.27791	-0.007499859	-0.1586157	-0.6910371	0.5247403	-0.2925355	0.08843328	0	0
15.29448	-0.02199645	-0.1476119	-0.8750665	0.6642275	-5.560899	4.214949	0	0
15.31105	-0.02528408	-0.1451317	-0.1984419	0.1497048	20.42116	-15.52877	0	0
15.32761	-0.03848099	-0.135118	-0.7966588	0.6044986	-18.05526	13.72649	0	0
15.34418	-0.0473593	-0.1284125	-0.5358956	0.4047416	7.870301	-6.029025	0	0
15.36075	-0.06053123	-0.1183099	-0.795059	0.6097973	-7.821568	6.188592	0	0
15.37731	-0.06561619	-0.114194	-0.3069645	0.2484627	14.73157	-10.90573	0	0
15.39398	-0.07428411	-0.1061579	-0.5201727	0.4822588	-6.416353	7.035932	0	0
15.41049	-0.07632513	-0.09688191	-0.1235799	0.5616438	11.95302	2.392607	0	0
15.42701	-0.07483368	-0.0852164	0.09027873	0.7061237	6.473456	4.373376	0	0
15.44358	-0.07253044	-0.07392888	0.1390236	0.6813159	1.473199	-0.7497568	0	0
15.46015	-0.0678169	-0.06107381	0.2844773	0.7758439	4.389549	2.852695	0	0
15.47671	-0.0620256	-0.05085811	0.3496037	0.6166918	1.965521	-4.803218	0	0
15.49328	-0.05906281	-0.04567771	0.1788552	0.3127256	-5.153795	-9.174776	0	0
15.50985	-0.05064088	-0.03760971	0.5083486	0.4869856	9.944703	5.259481	0	0
15.52657	-0.04365645	-0.03250922	0.4176141	0.3049699	-2.725428	-5.46728	0	0
15.54308	-0.03411834	-0.02500712	0.5776172	0.4543181	4.813937	4.493368	0	0
15.5596	-0.02962291	-0.0182801	0.2722377	0.4073806	-9.246712	-1.42124	0	0
15.57611	-0.02701974	-0.00794253	0.1576177	0.6259224	-3.470325	6.616744	0	0
15.59268	-0.02546818	-8.378316E-05	0.09365792	0.4743823	-1.93337	-4.580741	0	0
15.60925	-0.0246266	0.002211901	0.05079182	0.1385518	-1.293664	-10.13509	0	0
15.64238	-0.01962906	0.01632813	0.1508391	0.4260655	2.012995	5.784896	0	0
15.65895	-0.01663005	0.01846306	0.1810311	0.1288718	0.60751	-5.980007	0	0
15.67551	-0.01636696	0.01865027	0.01588091	0.01130083	-4.984529	-3.548505	0	0
15.69208	-0.01639327	0.01863155	-0.001588158	-0.001129981	-0.5272477	-0.3751841	0	0
15.70865	-0.01647219	0.01853795	-0.004763974	-0.005650031	-0.09584909	-0.1364193	0	0
15.74378	-0.01647219	0.01846306	0	-0.002131352	0.09214035	0.06805502	0	0
15.76035	-0.01647219	0.01846306	0	0	0	0.04122414	0	0
15.77691	-0.01647219	0.01846306	0	0	0	0	0	0
15.79376	-0.01647219	0.01846306	0	0	0	0	0	0
15.81005	-0.01647219	0.01846306	0	0	0	0	0	0
15.82661	-0.0164985	0.01844434	-0.001588046	-0.001130094	-0.04833352	-0.03439537	0	0
15.84318	-0.0164985	0.01844434	0	0	0.04792869	0.03410728	0	0
15.85975	-0.0164985	0.01844434	0	0	0	0	0	0
15.87632	-0.0164985	0.01844434	0	0	0	0	0	0
15.89288	-0.01652481	0.01846306	-0.001588158	0.001130094	-0.0479307	0.0341063	0	0
15.90945	-0.01652481	0.01846306	0	0	0.04793346	-0.03410826	0	0
15.92601	-0.01652481	0.01846306	0	0	0	0	0	0
15.94258	-0.01652481	0.01846306	0	0	0	0	0	0
15.95937	-0.0164985	0.01844434	0.001566693	-0.00111482	0.04696387	-0.03341833	0	0
15.97589	-0.01652481	0.01842562	-0.001593202	-0.001133683	-0.09487158	-0.0005663538	0	0
15.9924	-0.0164985	0.01840689	0.001593202	-0.001133683	0.09647688	0	0	0
16.00885	-0.0164985	0.01836945	0	-0.002277079	-0.04834034	-0.03469248	0	0
16.02541	-0.0164985	0.01836945	0	0	0	0.06897849	0	0
16.04198	-0.01647219	0.01835073	0.001588137	-0.001130159	0.04793283	-0.03411023	0	0
16.05855	-0.01644589	0.018332	0.001587954	-0.001130141	-5.519903E-06	5.340708E-07	0	0
16.07511	-0.01644589	0.01829456	0	-0.00226017	-0.04792455	-0.03410434	0	0
16.09168	-0.01644589	0.01829456	0	0	0	0.06821599	0	0
16.10825	-0.01641958	0.01827584	0.001588066	-0.001130141	0.0479307	-0.03410969	0	0
16.12481	-0.01639327	0.01825711	0.001588137	-0.001130271	2.125742E-06	-3.928231E-06	0	0
16.14138	-0.01636696	0.01823839	0.001588066	-0.001130029	-2.125742E-06	7.322392E-06	0	0
16.15794	-0.01636696	0.01823839	0	0	-0.0479307	0.0341063	0	0
16.17451	-0.01634065	0.01821967	0.001587954	-0.001130141	0.04792731	-0.03410969	0	0
16.19108	-0.01634065	0.01821967	0	0	-0.04792455	0.03410773	0	0
16.20805	-0.01634065	0.01821967	0	0	0	0	0	0
16.22421	-0.01634065	0.01818222	0	-0.00231683	0	-0.06992608	0	0
16.24078	-0.01631434	0.01812605	0.001588137	-0.003390814	0.04852504	-0.03281527	0	0
16.25735	-0.01620911	0.01793881	0.006349848	-0.01129796	0.1436922	-0.2386106	0	0
16.27391	-0.01613018	0.01780774	0.004765733	-0.007914396	-0.04780867	0.1021161	0	0
16.29061	-0.01594602	0.01763921	0.01102967	-0.01009349	0.1883412	-0.06552	0	0
16.30704	-0.01570923	0.01747067	0.01440671	-0.01025453	0.1019251	-0.004860494	0	0
16.32363	-0.01563031	0.01741449	0.004758061	-0.003386809	-0.2921721	0.2079625	0	0
16.34064	-0.01563031	0.01741449	0	0	-0.1416015	0.1007926	0	0
16.35674	-0.01563031	0.01741449	0	0	0	0	0	0
16.37331	-0.01563031	0.01741449	0	0	0	0	0	0
16.38988	-0.01563031	0.01741449	0	0	0	0	0	0
16.40644	-0.01563031	0.01741449	0	0	0	0	0	0
16.42301	-0.01563031	0.01737703	0	-0.002260844	0	-0.06823635	0	0
16.43971	-0.01563031	0.01737703	0	0	0	0.06795469	0	0
16.48927	-0.01563031	0.01737703	0	0	0	0	0	0
16.50775	-0.01563031	0.01737703	0	0	0	0	0	0
16.52432	-0.01563031	0.01737703	0	0	0	0	0	0
16.54089	-0.01563031	0.01737703	0	0	0	0	0	0
16.55745	-0.01563031	0.01737703	0	0	0	0	0	0
16.5743	-0.01563031	0.01737703	0	0	0	0	0	0
16.59059	-0.015604	0.0173583	0.001615784	-0.001150095	0.04876725	-0.03471193	0	0
16.60715	-0.015604	0.0173583	0	0	-0.04918632	0.03501021	0	0
16.62372	-0.015604	0.0173583	0	0	0	0	0	0
16.64036	-0.01557769	0.01733958	0.001581693	-0.00112583	0.04763687	-0.03390734	0	0
16.65686	-0.01555138	0.01732085	0.001594435	-0.001135052	0.000384551	-0.0002783403	0	0
16.67342	-0.01552507	0.01730212	0.001588249	-0.001130496	-0.0001870698	0.0001377868	0	0
16.68999	-0.01552507	0.01726466	0	-0.002260844	-0.04793622	-0.03411594	0	0
16.70655	-0.01552507	0.01726466	0	0	0	0.06823635	0	0
16.72341	-0.01552507	0.01726466	0	0	0	0	0	0
16.73969	-0.01552507	0.01726466	0	0	0	0	0	0
16.75625	-0.01552507	0.01726466	0	0	0	0	0	0
16.77282	-0.01552507	0.01726466	0	0	0	0	0	0
16.78946	-0.01552507	0.01726466	0	0	0	0	0	0
16.80597	-0.01552507	0.01726466	0	0	0	0	0	0
16.82252	-0.01549876	0.01724594	0.001589474	-0.001131521	0.04807559	-0.03422422	0	0
16.83909	-0.01549876	0.01724594	0	0	-0.04799253	0.03416509	0	0
16.856	-0.01552507	0.01722721	-0.001555244	-0.001107042	-0.04644806	-0.03306232	0	0
16.87222	-0.01552507	0.01722721	0	0	0.04694005	0.03341253	0	0
16.88903	-0.01552507	0.01722721	0	0	0	0	0	0
16.90536	-0.01552507	0.01722721	0	0	0	0	0	0
16.92192	-0.01552507	0.01722721	0	0	0	0	0	0
16.93849	-0.01549876	0.01720848	0.00158801	-0.001130478	0.04792624	-0.03411791	0	0
16.95506	-0.01549876	0.01720848	0	0	-0.04792624	0.03411791	0	0
16.97162	-0.01547245	0.01718975	0.001588249	-0.001130609	0.04793622	-0.0341238	0	0
16.98819	-0.01547245	0.01718975	0	0	-0.04793346	0.03412183	0	0
17.00511	-0.01547245	0.01718975	0	0	0	0	0	0
17.02132	-0.01547245	0.01718975	0	0	0	0	0	0
17.03789	-0.01549876	0.01720848	-0.001588066	0.001130478	-0.04844666	0.03448716	0	0
17.05446	-0.01549876	0.01720848	0	0	0.04792794	-0.03411791	0	0
17.07103	-0.01549876	0.01720848	0	0	0	0	0	0
17.08768	-0.01549876	0.01720848	0	0	0	0	0	0
17.17043	-0.01549876	0.01720848	0	0	0	0	0	0
17.18699	-0.01549876	0.01720848	0	0	0	0	0	0
17.20356	-0.01549876	0.01720848	0	0	0	0	0	0
17.22027	-0.01549876	0.01720848	0	0	0	0	0	0
17.23669	-0.01549876	0.01720848	0	0	0	0	0	0
17.25326	-0.01549876	0.01720848	0	0	0	0	0	0
17.26982	-0.01549876	0.01720848	0	0	0	0	0	0
17.28639	-0.01549876	0.01720848	0	0	0	0	0	0
17.30296	-0.01549876	0.01720848	0	0	0	0	0	0
17.31984	-0.01549876	0.01720848	0	0	0	0	0	0
17.33772	-0.01549876	0.01720848	0	0	0	0	0	0
17.35436	-0.01549876	0.01720848	0	0	0	0	0	0
17.37087	-0.01549876	0.01720848	0	0	0	0	0	0
17.38742	-0.01549876	0.01720848	0	0	0	0	0	0
17.40398	-0.01547245	0.01718975	0.001588066	-0.001130478	0.04796384	-0.03414346	0	0
17.42091	-0.01547245	0.01718975	0	0	-0.04742022	0.03375648	0	0
17.43712	-0.01547245	0.01718975	0	0	0	0	0	0
17.45368	-0.01547245	0.01718975	0	0	0	0	0	0
17.47025	-0.01547245	0.01718975	0	0	0	0	0	0
17.48682	-0.01547245	0.01718975	0	0	0	0	0	0
17.50347	-0.01549876	0.01720848	-0.001580062	0.001124781	-0.04757136	0.03386408	0	0
17.51998	-0.01549876	0.01720848	0	0	0.04765072	-0.03392057	0	0
17.53651	-0.01549876	0.01720848	0	0	0	0	0	0
17.55351	-0.01549876	0.01720848	0	0	0	0	0	0
17.56965	-0.01549876	0.01720848	0	0	0	0	0	0
17.58652	-0.01549876	0.01720848	0	0	0	0	0	0
17.60278	-0.01549876	0.01720848	0	0	0	0	0	0
17.61954	-0.01549876	0.01720848	0	0	0	0	0	0
17.63591	-0.01549876	0.01720848	0	0	0	0	0	0
17.65257	-0.01549876	0.01720848	0	0	0	0	0	0
17.68562	-0.01549876	0.01720848	0	0	0	0	0	0
17.70218	-0.01549876	0.01720848	0	0	0	0	0	0
17.71875	-0.01547245	0.01718975	0.001588066	-0.001130478	0.0479307	-0.03411987	0	0
17.73563	-0.01547245	0.01718975	0	0	-0.04748242	0.03380076	0	0
17.75188	-0.01547245	0.01718975	0	0	0	0	0	0
17.76865	-0.01547245	0.01718975	0	0	0	0	0	0
17.78502	-0.01547245	0.01718975	0	0	0	0	0	0
17.80158	-0.01547245	0.01718975	0	0	0	0	0	0
17.81815	-0.01547245	0.01715229	0	-0.002260957	0	-0.06823974	0	0
17.83471	-0.01547245	0.01715229	0	0	0	0.06823581	0	0
17.85128	-0.01541983	0.01707738	0.003176077	-0.004521914	0.09585419	-0.1364716	0	0
17.89174	-0.01539352	0.01702119	0.0006503511	-0.001388874	-0.04429381	0.05494432	0	0
17.90825	-0.01539352	0.01702119	0	0	-0.01141594	0.02437959	0	0
17.92466	-0.01536721	0.01700246	0.001603574	-0.001141631	0.04871001	-0.03467808	0	0
17.94127	-0.0153409	0.01698373	0.001583453	-0.001127234	-0.0006093362	0.0004359891	0	0
17.95779	-0.01531459	0.016965	0.001592834	-0.001133985	0.0002831524	-0.0002037621	0	0
17.97436	-0.0153409	0.01694627	-0.001588066	-0.001130478	-0.09614367	0.0001059934	0	0
17.99131	-0.01531459	0.01692754	0.001551974	-0.001104896	0.09367734	0.0007632173	0	0
18.00749	-0.01531459	0.01692754	0	0	-0.04684407	0.03334966	0	0
18.02406	-0.01531459	0.01692754	0	0	0	0	0	0
18.04062	-0.01531459	0.01692754	0	0	0	0	0	0
18.05736	-0.01531459	0.01692754	0	0	0	0	0	0
18.07376	-0.01531459	0.01692754	0	0	0	0	0	0
18.09191	-0.01531459	0.01692754	0	0	0	0	0	0
18.10848	-0.01531459	0.01692754	0	0	0	0	0	0
18.12505	-0.01531459	0.01692754	0	0	0	0	0	0
18.14161	-0.01531459	0.01692754	0	0	0	0	0	0
18.22445	-0.01528828	0.01690881	0.0003176206	-0.0002261009	0.003195331	-0.002274623	0	0
18.24101	-0.01528828	0.01690881	0	0	-0.003195331	0.002274623	0	0
18.25758	-0.01528828	0.01690881	0	0	0	0	0	0
18.27415	-0.01528828	0.01690881	0	0	0	0	0	0
18.29071	-0.01528828	0.01690881	0	0	0	0	0	0
18.30753	-0.01528828	0.01690881	0	0	0	0	0	0
18.32385	-0.01528828	0.01690881	0	0	0	0	0	0
18.34041	-0.01528828	0.01690881	0	0	0	0	0	0
18.35698	-0.01528828	0.01690881	0	0	0	0	0	0
18.37355	-0.01528828	0.01690881	0	0	0	0	0	0
18.39012	-0.01528828	0.01690881	0	0	0	0	0	0
18.4071	-0.01528828	0.01690881	0	0	0	0	0	0
18.42361	-0.01528828	0.01690881	0	0	0	0	0	0
18.43981	-0.01528828	0.01690881	0	0	0	0	0	0
18.45638	-0.01528828	0.01690881	0	0	0	0	0	0
18.48952	-0.01528828	0.01690881	0	0	0	0	0	0
18.50617	-0.01528828	0.01690881	0	0	0	0	0	0
18.52269	-0.01528828	0.01690881	0	0	0	0	0	0
18.53922	-0.01528828	0.01690881	0	0	0	0	0	0
18.55578	-0.01526197	0.01689008	0.00158801	-0.001130591	0.04798425	-0.0341626	0	0
18.57235	-0.01526197	0.01689008	0	0	-0.04792624	0.0341213	0	0
18.58892	-0.01526197	0.01685262	0	-0.002261069	0	-0.06823921	0	0
18.60574	-0.01523566	0.01683389	0.001563585	-0.001113162	0.04682252	0.03437481	0	0
18.62205	-0.01523566	0.01683389	0	0	-0.04718908	0.03359529	0	0
18.63862	-0.01523566	0.01683389	0	0	0	0	0	0
18.65528	-0.01523566	0.01683389	0	0	0	0	0	0
18.71459	-0.01520935	0.01681516	0.000443578	-0.0003157961	0.005838441	-0.004156557	0	0
18.73116	-0.01523566	0.01679643	-0.001587701	-0.001130331	-0.02676826	-0.01073396	0	0
18.74773	-0.01523566	0.01679643	0	0	0.04791691	0.03411344	0	0
18.76436	-0.01523566	0.01679643	0	0	0	0	0	0
18.78086	-0.01523566	0.01679643	0	0	0	0	0	0
18.79743	-0.01523566	0.01679643	0	0	0	0	0	0
18.81399	-0.01523566	0.01679643	0	0	0	0	0	0
18.83058	-0.01526197	0.0167777	-0.00158624	-0.001129291	-0.04785079	-0.03406638	0	0
18.84713	-0.01526197	0.01674024	0	-0.002263788	0.04787283	-0.0342392	0	0
18.8637	-0.01528828	0.01672151	-0.00158801	-0.001130591	-0.04795385	0.03421966	0	0
18.88026	-0.01528828	0.01668404	0	-0.002261182	0.04792624	-0.0341213	0	0
18.89683	-0.01528828	0.01664658	0	-0.002261034	0	4.461788E-06	0	0
18.9134	-0.01531459	0.01662785	-0.001588249	-0.001130721	-0.04793346	0.03411291	0	0
18.92997	-0.0153409	0.01660912	-0.001587884	-0.001130573	1.103566E-05	4.462045E-06	0	0
18.94653	-0.0153409	0.01660912	0	0	0.04792518	0.03412273	0	0
18.96516	-0.0153409	0.01660912	0	0	0	0	0	0
18.98174	-0.0153409	0.01660912	0	0	0	0	0	0
18.9983	-0.0153409	0.01660912	0	0	0	0	0	0
19.01487	-0.0153409	0.01660912	0	0	0	0	0	0
19.03144	-0.0153409	0.01660912	0	0	0	0	0	0
19.11427	-0.01539352	0.01657165	-0.0006352592	-0.0004522901	-0.006390966	-0.004550222	0	0
19.13083	-0.01541983	0.01651546	-0.001588066	-0.003391997	-0.009585812	-0.02957522	0	0
19.1474	-0.01547245	0.01647799	-0.003176442	-0.002261555	-0.04794004	0.0341188	0	0
19.16397	-0.01549876	0.01645926	-0.001588249	-0.001130834	0.04793728	0.03412916	0	0
19.18053	-0.01549876	0.01645926	0	0	0.04793622	0.03413059	0	0
19.19716	-0.01552507	0.01644053	-0.001582	-0.001126424	-0.04765433	-0.03393108	0	0
19.21368	-0.01549876	0.0164218	0.001593146	-0.00113436	0.09579852	-0.0002394445	0	0
19.23023	-0.01549876	0.0164218	0	0	-0.04817552	0.03430219	0	0
19.2468	-0.01549876	0.0164218	0	0	0	0	0	0
19.26336	-0.01549876	0.0164218	0	0	0	0	0	0
19.28022	-0.01549876	0.0164218	0	0	0	0	0	0
19.2965	-0.01549876	0.0164218	0	0	0	0	0	0
19.31325	-0.01552507	0.01640306	-0.00157083	-0.00111847	-0.0475638	-0.03386663	0	0
19.32976	-0.01552507	0.01640306	0	0	0.04723102	0.03362967	0	0
19.3462	-0.01552507	0.01640306	0	0	0	0	0	0
19.36278	-0.01552507	0.01640306	0	0	0	0	0	0
19.37933	-0.01552507	0.01640306	0	0	0	0	0	0
19.3963	-0.01552507	0.01640306	0	0	0	0	0	0
19.41247	-0.01552507	0.01640306	0	0	0	0	0	0
19.42903	-0.01552507	0.01640306	0	0	0	0	0	0
19.4456	-0.01552507	0.01640306	0	0	0	0	0	0
19.46217	-0.01552507	0.01640306	0	0	0	0	0	0
19.47886	-0.01549876	0.01638433	0.001575855	-0.001122048	0.04737395	-0.03373145	0	0
19.4953	-0.01549876	0.01638433	0	0	-0.04756487	0.03386739	0	0
19.51187	-0.01549876	0.01638433	0	0	0	0	0	0
19.52843	-0.01549876	0.01638433	0	0	0	0	0	0
19.545	-0.01549876	0.01638433	0	0	0	0	0	0
19.56157	-0.01552507	0.01640306	-0.001588193	0.001130834	-0.04793452	0.03413059	0	0
19.57843	-0.01549876	0.01638433	0.001559816	-0.001110629	0.09416155	-0.06704539	0	0
19.5947	-0.01549876	0.01638433	0	0	-0.04707806	0.03352077	0	0
19.61146	-0.01552507	0.01640306	-0.001569579	0.00111758	-0.04752317	0.03383769	0	0
19.62797	-0.01552507	0.01640306	0	0	0.04717716	-0.03359133	0	0
19.64448	-0.01549876	0.01638433	0.001593146	-0.00113436	0.04824509	-0.03435172	0	0
19.66099	-0.01549876	0.01638433	0	0	-0.0482423	0.03434974	0	0
19.67753	-0.01552507	0.0163656	-0.001590574	-0.001132641	-0.04812551	-0.03426998	0	0
19.6941	-0.01552507	0.0163656	0	0	0.04804233	0.03421075	0	0
19.71067	-0.01552507	0.0163656	0	0	0	0	0	0
19.72723	-0.01552507	0.0163656	0	0	0	0	0	0
19.74405	-0.01552507	0.0163656	0	0	0	0	0	0
19.82828	-0.01552507	0.0163656	0	0	0	0	0	0
19.84484	-0.01552507	0.0163656	0	0	0	0	0	0
19.86141	-0.01552507	0.0163656	0	0	0	0	0	0
19.87815	-0.01552507	0.0163656	0	0	0	0	0	0
19.89454	-0.01552507	0.0163656	0	0	0	0	0	0
19.91117	-0.01552507	0.0163656	0	0	0	0	0	0
19.92768	-0.01552507	0.0163656	0	0	0	0	0	0
19.96081	-0.01552507	0.0163656	0	0	0	0	0	0
19.97738	-0.01552507	0.0163656	0	0	0	0	0	0
19.99394	-0.01552507	0.0163656	0	0	0	0	0	0
20.01051	-0.01552507	0.0163656	0	0	0	0	0	0
20.02708	-0.01552507	0.0163656	0	0	0	0	0	0
20.04364	-0.01552507	0.0163656	0	0	0	0	0	0
20.06021	-0.01552507	0.0163656	0	0	0	0	0	0
20.07679	-0.01552507	0.0163656	0	0	0	0	0	0
20.09334	-0.01552507	0.0163656	0	0	0	0	0	0
20.11031	-0.01552507	0.0163656	0	0	0	0	0	0
20.12648	-0.01552507	0.0163656	0	0	0	0	0	0
20.14304	-0.01552507	0.0163656	0	0	0	0	0	0
20.15961	-0.01552507	0.0163656	0	0	0	0	0	0
20.17636	-0.01552507	0.0163656	0	0	0	0	0	0
20.19274	-0.01552507	0.0163656	0	0	0	0	0	0
20.20931	-0.01552507	0.0163656	0	0	0	0	0	0
20.22588	-0.01552507	0.0163656	0	0	0	0	0	0
20.24244	-0.01552507	0.0163656	0	0	0	0	0	0
20.25901	-0.01552507	0.0163656	0	0	0	0	0	0
20.27558	-0.01552507	0.0163656	0	0	0	0	0	0
20.29214	-0.01552507	0.0163656	0	0	0	0	0	0
20.30895	-0.01552507	0.0163656	0	0	0	0	0	0
20.32546	-0.01552507	0.0163656	0	0	0	0	0	0
20.34185	-0.01552507	0.0163656	0	0	0	0	0	0
20.35849	-0.01552507	0.0163656	0	0	0	0	0	0
20.37498	-0.01552507	0.0163656	0	0	0	0	0	0
20.39154	-0.01552507	0.0163656	0	0	0	0	0	0
20.40811	-0.01552507	0.0163656	0	0	0	0	0	0
20.42504	-0.01552507	0.0163656	0	0	0	0	0	0
20.44125	-0.01552507	0.0163656	0	0	0	0	0	0
20.45782	-0.01555138	0.01638433	-0.001587884	0.001130686	-0.04844108	0.03449348	0	0
20.47438	-0.01555138	0.01638433	0	0	0.04792242	-0.03412416	0	0
20.49315	-0.01555138	0.01638433	0	0	0	0	0	0
20.50972	-0.01555138	0.01638433	0	0	0	0	0	0
20.52661	-0.01555138	0.01638433	0	0	0	0	0	0
20.54285	-0.01555138	0.01638433	0	0	0	0	0	0
20.55942	-0.01555138	0.01638433	0	0	0	0	0	0
20.57614	-0.01555138	0.01638433	0	0	0	0	0	0
20.59255	-0.01555138	0.01638433	0	0	0	0	0	0
20.60912	-0.01555138	0.01638433	0	0	0	0	0	0
20.62568	-0.01555138	0.01638433	0	0	0	0	0	0
20.64225	-0.01555138	0.01638433	0	0	0	0	0	0
20.65882	-0.01555138	0.01638433	0	0	0	0	0	0
20.67539	-0.01555138	0.01638433	0	0	0	0	0	0
20.69195	-0.01555138	0.01638433	0	0	0	0	0	0
20.70852	-0.01555138	0.01638433	0	0	0	0	0	0
20.72509	-0.01555138	0.01638433	0	0	0	0	0	0
20.74166	-0.01555138	0.01638433	0	0	0	0	0	0
20.75828	-0.01555138	0.01638433	0	0	0	0	0	0
20.77479	-0.01555138	0.01638433	0	0	0	0	0	0
20.7918	-0.01555138	0.01638433	0	0	0	0	0	0
20.80792	-0.01557769	0.01640306	-0.001631976	0.001162008	-0.04925596	0.03507148	0	0
20.85762	-0.01565661	0.01634686	-0.001588029	-0.001130741	0.0006676514	-0.03483224	0	0
20.87439	-0.01568292	0.01632813	-0.001569277	-0.001117325	0.000282123	0.0002018374	0	0
20.89075	-0.01568292	0.01632813	0	0	0.04736633	0.03372483	0	0
20.90738	-0.01568292	0.01632813	0	0	0	0	0	0
20.92389	-0.01568292	0.01629066	0	-0.002269357	0	-0.06848145	0	0
20.94045	-0.01570923	0.0163094	-0.001588615	0.001131206	-0.04803575	0.1028245	0	0
20.95702	-0.01573554	0.01629066	-0.001587954	-0.001130816	1.995617E-05	-0.06827975	0	0
20.97359	-0.01576185	0.01627193	-0.001588066	-0.001130703	-3.393965E-06	3.390452E-06	0	0
20.99015	-0.01584078	0.01621573	-0.004764087	-0.003392335	-0.09585249	-0.06825617	0	0
21.00695	-0.01597233	0.01612206	-0.007832796	-0.005577442	-0.09198373	-0.06549799	0	0
21.02328	-0.01720883	0.01524144	-0.07568981	-0.05390539	-2.048165	-1.458708	0	0
21.03997	-0.01978689	0.01340453	-0.1544916	-0.1100775	-2.386211	-1.700958	0	0
21.05642	-0.01978689	0.01344203	0	0.00227991	4.662567	3.390954	0	0
21.07299	-0.01976059	0.01342328	0.001587546	-0.001131585	0.04808386	-0.1033279	0	0
21.08955	-0.01976059	0.01342328	0	0	-0.04791225	0.0341513	0	0
21.10612	-0.01976059	0.01342328	0	0	0	0	0	0
21.12303	-0.01978689	0.01344203	-0.001555319	0.001108614	-0.0464556	0.03311303	0	0
21.13925	-0.01973428	0.01347953	0.003243533	0.002311757	0.144838	0.03631302	0	0
21.15606	-0.01962906	0.01355452	0.006262572	0.004463375	0.09142525	0.06515726	0	0
21.17239	-0.01957645	0.01359202	0.003221185	0.002295772	-0.09178922	-0.0654184	0	0
21.18908	-0.01949753	0.01364826	0.004727602	0.003369263	0.04561343	0.0325047	0	0
21.20552	-0.01949753	0.01364826	0	0	-0.1426875	-0.1016904	0	0
21.22209	-0.01949753	0.01364826	0	0	0	0	0	0
21.24043	-0.01947122	0.01362951	0.001434574	-0.001022374	0.04109999	-0.02929062	0	0
21.25713	-0.01947122	0.01362951	0	0	-0.04094338	0.029179	0	0
21.27356	-0.01944492	0.01361076	0.001600742	-0.001140796	0.04831048	-0.0344293	0	0
21.29012	-0.01944492	0.01361076	0	0	-0.04850874	0.03457059	0	0
21.30669	-0.01944492	0.01361076	0	0	0	0	0	0
21.32326	-0.01944492	0.01361076	0	0	0	0	0	0
21.33983	-0.01944492	0.01361076	0	0	0	0	0	0
21.3567	-0.01944492	0.01361076	0	0	0	0	0	0
21.37322	-0.01947122	0.01362951	-0.001592609	0.001135	-0.04769711	0.03399217	0	0
21.38953	-0.01947122	0.01362951	0	0	0.04851183	-0.0345728	0	0
21.43723	-0.01947122	0.01362951	0	0	0	0	0	0
21.45379	-0.01949753	0.01364826	-0.001587659	0.001131473	-0.02470441	0.01760603	0	0
21.47036	-0.01944492	0.01368575	0.003175683	0.002263206	0.1437497	0.0341538	0	0
21.48693	-0.01928708	0.01379824	0.009528034	0.00679023	0.1917254	0.1366337	0	0
21.50349	-0.01923447	0.01379824	0.003176049	0	-0.1917254	-0.2049531	0	0
21.52006	-0.01918186	0.01379824	0.003175683	0	-1.103278E-05	0	0	0
21.53663	-0.01915555	0.01377949	0.001587842	-0.001131547	-0.04792115	-0.03415014	0	0
21.55319	-0.01902402	0.01372325	0.007939208	-0.003394696	0.1916846	-0.06830198	0	0
21.56985	-0.0185242	0.01344203	0.03000364	-0.01688115	0.6640708	-0.4059004	0	0
21.58633	-0.01652481	0.01212937	0.1213537	-0.0796726	2.756949	-1.89505	0	0
21.60289	-0.01447267	0.01077869	0.1238816	-0.0815369	0.07650888	-0.05642381	0	0
21.61946	-0.009052385	0.007099119	0.3271693	-0.2220991	6.135588	-4.242418	0	0
21.6364	-0.004421024	0.003942034	0.2734422	-0.1863989	-1.603578	1.065535	0	0
21.65259	0	0.0008948981	0.2729819	-0.1881494	-0.01389259	-0.05283456	0	0
21.66942	-7.894737E-05	0.001026622	-0.004690748	0.007826507	-8.407765	5.934035	0	0
21.68573	7.894737E-05	0.00110189	0.009684408	0.004616551	0.4338431	-0.09687667	0	0
21.78513	0.001078947	0.001177157	0.01006021	0.000757199	0.003247908	-0.03335496	0	0
21.80169	0.003236831	0.0001609141	0.1302801	-0.06135466	1.036692	-0.5356091	0	0
21.81826	0.01289402	-0.004793012	0.5829092	-0.2990195	13.66195	-7.173567	0	0
21.83504	0.02289074	-0.009131461	0.595857	-0.2585945	0.3883048	1.212354	0	0
21.85139	0.03138443	-0.01496921	0.5193166	-0.3569285	-2.310127	-2.967898	0	0
21.86806	0.04105587	-0.02193554	0.5801623	-0.4178904	1.842375	-1.845891	0	0
21.88453	0.04672911	-0.02603165	0.3445403	-0.2487596	-7.110679	5.104084	0	0
21.90109	0.04827825	-0.02715143	0.09351657	-0.06759792	-7.599534	5.48452	0	0
21.91766	0.0509821	-0.02910727	0.1632049	-0.1180549	2.103319	-1.522882	0	0
21.93423	0.0513758	-0.02939221	0.023764	-0.01719868	-4.208334	3.043847	0	0
21.9508	0.05134956	-0.02937321	-0.001584131	0.001146668	-0.765008	0.5536636	0	0
21.96736	0.05127082	-0.02935421	-0.004752844	0.001146668	-0.09563194	0	0	0
21.98393	0.05119208	-0.02929723	-0.004752297	0.003439384	1.651213E-05	0.06919032	0	0
22.0005	0.05116583	-0.02927823	-0.001584314	0.001146688	0.09560992	-0.06919371	0	0
22.03368	0.05090336	-0.02908828	-0.007909606	0.005724212	-0.1271432	0.09201169	0	0
22.0502	0.05085086	-0.02905029	-0.003178593	0.002300149	0.09519183	-0.06889492	0	0
22.06676	0.05079836	-0.0290123	-0.003169077	0.002293263	0.0002876437	-0.0002081544	0	0
22.08372	0.05069337	-0.02889834	-0.006192476	0.006721791	-0.09019756	0.132117	0	0
22.0999	0.05058838	-0.02882237	-0.006488316	0.004694844	-0.008927947	-0.06116987	0	0
22.11814	0.0501684	-0.02851849	-0.02302555	0.01665977	-0.4804275	0.3475961	0	0
22.13471	0.04972214	-0.0281197	-0.02693585	0.02407093	-0.1123418	0.2129202	0	0
22.15127	0.0451535	-0.02314864	-0.2757639	0.3000538	-7.509645	8.329181	0	0
22.16828	0.04365645	-0.01173731	-0.08804069	0.6710966	5.591786	11.0524	0	0
22.18441	0.04360392	-0.00219269	-0.003256979	0.5917844	2.558925	-2.393785	0	0
22.2013	0.04496966	0.006685859	0.08082639	0.5254449	2.545995	-2.008723	0	0
22.21754	0.05040464	0.01552251	0.3347618	0.5442848	7.664226	0.5686237	0	0
22.23411	0.05525947	0.02141985	0.2930385	0.355964	-1.271952	-5.741036	0	0
22.25084	0.06425353	0.02794228	0.5376213	0.3898795	7.345584	1.018587	0	0
22.26724	0.06844555	0.03089125	0.255561	0.1797798	-8.513088	-6.341185	0	0
22.28386	0.07425794	0.0350307	0.3497495	0.2490838	2.852302	2.098728	0	0
22.30037	0.08171239	0.04030085	0.4513022	0.3190619	3.064692	2.11182	0	0
22.33351	0.09119373	0.04701284	0.2861804	0.2025913	-3.325832	-2.345913	0	0
22.35007	0.09424628	0.04903712	0.1842521	0.1221861	-2.050957	-1.617881	0	0
22.36664	0.09500262	0.04957551	0.04565312	0.03249729	-4.182927	-2.706814	0	0
22.38321	0.09500262	0.04957551	0	0	-1.377893	-0.9808267	0	0
22.39994	0.0950287	0.04959407	0.001558048	0.001109108	0.046785	0.03330424	0	0
22.41634	0.0950287	0.0496312	0	0.002264634	-0.0470247	0.03487586	0	0
22.43297	0.0950287	0.0496312	0	0	0	-0.06857575	0	0
22.44947	0.09500262	0.04964977	-0.001579833	0.001124615	-0.04767945	0.03394096	0	0
22.46604	0.09500262	0.04964977	0	0	0.04776469	-0.03400164	0	0
22.48261	0.09500262	0.04964977	0	0	0	0	0	0
22.49917	0.09500262	0.04964977	0	0	0	0	0	0
22.51574	0.09500262	0.04964977	0	0	0	0	0	0
22.53253	0.09500262	0.04964977	0	0	0	0	0	0
22.54904	0.09505478	0.04968689	0.003159022	0.002248451	0.0948481	0.06750865	0	0
22.56544	0.09513301	0.04974258	0.004772033	0.003397006	0.04901937	0.03490455	0	0
22.582	0.09534164	0.04989108	0.01259255	0.008963553	0.2372666	0.1688834	0	0
22.6317	0.09625427	0.05054072	0.01836354	0.01307161	0.08708943	0.06199419	0	0
22.64861	0.09648892	0.05074486	0.01387743	0.01207346	-0.06735243	-0.01498565	0	0
22.66484	0.09669748	0.05093044	0.01285385	0.01143727	-0.03089191	-0.01920026	0	0
22.6814	0.09687997	0.05109746	0.01101539	0.0100811	-0.05606231	-0.04135543	0	0
22.69815	0.09703638	0.05120879	0.009340917	0.006649168	-0.05026663	-0.1030244	0	0
22.71454	0.09732313	0.05145001	0.01749765	0.01471936	0.246185	0.2435729	0	0
22.7311	0.1002939	0.05363888	0.1793389	0.1321356	4.911237	3.563114	0	0
22.74768	0.1084673	0.05953163	0.4929505	0.3554004	9.461548	6.73582	0	0
22.76423	0.116081	0.06506435	0.4599873	0.3342634	-0.9948891	-0.6379526	0	0
22.7808	0.1211408	0.06914891	0.3054048	0.2465444	-4.667458	-2.648587	0	0
22.79772	0.1259352	0.07345086	0.2834564	0.254337	-0.6555361	0.2327452	0	0
22.81394	0.1295338	0.07951777	0.2218309	0.3739932	-1.859755	3.611024	0	0
22.83074	0.1308015	0.08303594	0.0754614	0.2094155	-4.432494	-4.983894	0	0
22.84707	0.1278514	0.08943867	-0.1806685	0.3921125	-7.731351	5.51476	0	0
22.86376	0.1227482	0.09372037	-0.3056388	0.2564363	-3.784028	-4.108194	0	0
22.8818	0.1156397	0.09878699	-0.3940497	0.2808593	-2.545175	0.7030889	0	0
22.89837	0.1130423	0.1006213	-0.1567568	0.1107087	6.856424	-4.91639	0	0
22.9153	0.1080772	0.1041962	-0.2933455	0.2112087	-4.077891	3.000451	0	0
22.93151	0.1067505	0.105204	-0.08185977	0.06218417	6.383021	-4.497827	0	0
22.94807	0.1071668	0.1058636	0.02512529	0.03980993	3.26433	-0.6826832	0	0
22.96483	0.1107294	0.108336	0.212569	0.1475213	5.624362	3.231945	0	0
22.98121	0.1165743	0.1124539	0.3569484	0.2514806	4.35738	3.137499	0	0
22.99786	0.121426	0.1158371	0.2913722	0.2031809	-1.985609	-1.462486	0	0
23.01434	0.1242773	0.1177745	0.1729993	0.1175523	-3.572709	-2.584425	0	0
23.03138	0.1267122	0.1195285	0.1428605	0.1029093	-0.8989811	-0.4367722	0	0
23.04747	0.1269452	0.1196929	0.01448577	0.01021877	-3.87458	-2.797567	0	0
23.06404	0.1269711	0.1197112	0.00156322	0.001102708	-0.395721	-0.2791567	0	0
23.08061	0.126997	0.1197294	0.00156232	0.001102708	-2.714469E-05	0	0	0
23.09717	0.126997	0.1197294	0	0	-0.04715092	-0.03327981	0	0
23.11374	0.126997	0.1197294	0	0	0	0	0	0
23.13046	0.126997	0.1197294	0	0	0	0	0	0
23.14687	0.126997	0.1197294	0	0	0	0	0	0
23.16348	0.126997	0.1197294	0	0	0	0	0	0
23.18053	0.126997	0.1197294	0	0	0	0	0	0
23.19657	0.126997	0.1197294	0	0	0	0	0	0
23.21314	0.126997	0.1197294	0	0	0	0	0	0
23.22971	0.126997	0.1197294	0	0	0	0	0	0
23.24627	0.126997	0.1197294	0	0	0	0	0	0
23.26284	0.126997	0.1197294	0	0	0	0	0	0
23.27941	0.126997	0.1197294	0	0	0	0	0	0
23.29597	0.1270229	0.1197477	0.00156322	0.001102708	0.04717806	0.03327981	0	0
23.31254	0.1270747	0.1197842	0.00312554	0.002204967	0.04715092	0.03326623	0	0
23.32911	0.1271524	0.119839	0.004688759	0.003307675	0.04717806	0.03327981	0	0
23.34567	0.1273077	0.1198756	0.009378598	0.002205221	0.1415478	-0.03327406	0	0
23.36224	0.1276702	0.1198756	0.02187878	0	0.3772779	-0.06655753	0	0
23.37881	0.1291974	0.1193093	0.09217958	-0.03418081	2.121682	-1.031579	0	0
23.39538	0.1302065	0.1193276	0.0609116	0.001102708	-0.9436697	1.064859	0	0
23.41194	0.1348606	0.1215923	0.2809235	0.1367008	6.639973	4.092357	0	0
23.42851	0.1420628	0.1240568	0.4346761	0.1487406	4.639996	0.3633413	0	0
23.44508	0.1482722	0.1255714	0.3748417	0.09143279	-1.805806	-1.729553	0	0
23.4617	0.1621429	0.1270309	0.8346428	0.08781957	13.85609	-0.1088842	0	0
23.47821	0.1732457	0.1275781	0.672253	0.03313117	-4.900932	-1.650499	0	0
23.49478	0.1848649	0.1293651	0.7014186	0.10788	0.8816395	2.259565	0	0
23.51134	0.1914676	0.1311151	0.3985373	0.1056307	-9.1415	-0.06788838	0	0
23.52791	0.1985845	0.1342309	0.4295823	0.1880675	0.9369379	2.48795	0	0
23.54448	0.2001774	0.1350505	0.09615627	0.04947827	-10.0634	-4.182873	0	0
23.56104	0.2030823	0.1363435	0.1753423	0.07804225	2.389977	0.8621125	0	0
23.57761	0.2030823	0.1363435	0	0	-5.291842	-2.35532	0	0
23.59418	0.2031076	0.1363253	0.001524544	-0.001099111	0.04601083	-0.03317122	0	0
23.61304	0.2031581	0.1362888	0.002676585	-0.001930807	0.0325169	-0.02347502	0	0
23.62982	0.2032086	0.1362524	0.00300918	-0.002170731	0.009332391	-0.006732104	0	0
23.64618	0.2032338	0.1362342	0.001542648	-0.001112819	-0.0442524	0.03192234	0	0
23.66274	0.2033095	0.1361796	0.004572513	-0.003298471	0.0920242	-0.06638345	0	0
23.67935	0.20336	0.1361432	0.003040638	-0.002192526	-0.04618954	0.03334678	0	0
23.69588	0.2034357	0.1360886	0.004580954	-0.00330456	0.04648683	-0.03356127	0	0
23.71244	0.203461	0.1360703	0.001523644	-0.001099111	-0.09237081	0.06663349	0	0
23.72901	0.203461	0.1360703	0	0	-0.04598368	0.03317122	0	0
23.74558	0.203461	0.1360703	0	0	0	0	0	0
23.76214	0.2034862	0.1360521	0.001523644	-0.001099111	0.04598632	-0.03317313	0	0
23.77871	0.2035367	0.1360157	0.003047289	-0.002198221	0.04598368	-0.03317122	0	0
23.79528	0.2035872	0.1359793	0.003046389	-0.002198221	-2.714469E-05	0	0	0
23.81194	0.2036124	0.1359611	0.001514751	-0.001092695	-0.04608964	0.03326719	0	0
23.82841	0.2035872	0.1359429	-0.001532821	-0.00110573	-0.09198119	-0.0003934345	0	0
23.84498	0.2035872	0.1359429	0	0	0.04639952	0.0334712	0	0
23.86155	0.203562	0.1359247	-0.001522745	-0.001099111	-0.04595653	-0.03317122	0	0
23.87811	0.2035367	0.1359429	-0.001523644	0.001099111	-2.714469E-05	0.06634244	0	0
23.89468	0.2035367	0.1359429	0	0	0.04598368	-0.03317122	0	0
23.91151	0.2035367	0.1359429	0	0	0	0	0	0
23.94454	0.2035115	0.1359247	-0.00076433	-0.0005513644	-0.01533011	-0.01105868	0	0
23.96095	0.203461	0.1359247	-0.003076688	0	-0.04677606	0.0111534	0	0
23.97751	0.2034357	0.1359064	-0.001523644	-0.00110001	0.04709598	-0.03335775	0	0
23.99408	0.2034357	0.1359064	0	0	0.04598368	0.03319837	0	0
24.01066	0.2034357	0.1359064	0	0	0	0	0	0
24.0276	0.2034105	0.1358882	-0.00149019	-0.001074977	-0.04446213	-0.03207363	0	0
24.04378	0.2034105	0.1358882	0	0	0.04498696	0.03245223	0	0
24.06062	0.2033853	0.1359064	-0.001499306	0.001081554	-0.04540335	0.03275259	0	0
24.07693	0.2033853	0.1359064	0	0	0.04523353	-0.03263009	0	0
24.09348	0.20336	0.1358882	-0.001525049	-0.001100124	-0.04640808	-0.03347738	0	0
24.11005	0.2032591	0.1358518	-0.006094577	-0.002198221	-0.1379722	-0.03315591	0	0
24.16918	0.2032338	0.1358336	-0.000426874	-0.0003079339	0.07486983	0.02497052	0	0
24.18575	0.2032086	0.1358154	-0.001523644	-0.001099111	-0.01448823	-0.01045137	0	0
24.20232	0.2031833	0.1357972	-0.001523644	-0.001099111	0	0	0	0
24.21888	0.2031581	0.135779	-0.001523644	-0.001099111	0	0	0	0
24.23545	0.2031581	0.135779	0	0	0.04598368	0.03317122	0	0
24.25202	0.2031328	0.1357972	-0.001523644	0.001099111	-0.04598368	0.03317122	0	0
24.26877	0.2030823	0.1357608	-0.003014867	-0.002174192	-0.04475785	-0.09824554	0	0
24.28515	0.2030823	0.1357608	0	0	0.0909941	0.06562101	0	0
24.30172	0.2030571	0.1357426	-0.001523644	-0.001099111	-0.04624188	-0.03335748	0	0
24.3183	0.2030319	0.1357244	-0.001521892	-0.001097847	5.284657E-05	3.812327E-05	0	0
24.33711	0.2030319	0.1357244	0	0	0.04300474	0.0310223	0	0
24.35368	0.2030066	0.1357061	-0.001523469	-0.001098984	-0.04307018	-0.03106952	0	0
24.38681	0.2029309	0.1356515	-0.002286048	-0.001648761	-0.01534312	-0.01106153	0	0
24.40338	0.2028804	0.1356151	-0.003048188	-0.002199121	-0.01533488	-0.01107369	0	0
24.41994	0.2027794	0.1355422	-0.006095477	-0.004396442	-0.09196735	-0.06631529	0	0
24.43689	0.2025774	0.1353966	-0.01191967	-0.008596827	-0.1737837	-0.1253322	0	0
24.45308	0.2025269	0.1353601	-0.003119661	-0.002249764	0.2655847	0.1915547	0	0
24.46964	0.2025016	0.1353419	-0.001524544	-0.001099111	0.04869859	0.03512921	0	0
24.48642	0.2024764	0.1353237	-0.001504419	-0.00108613	0.000603509	0.0003892593	0	0
24.50278	0.2023754	0.1352509	-0.006177643	-0.004454392	-0.1410544	-0.101666	0	0
24.51934	0.2022491	0.1351598	-0.00762092	-0.005496453	-0.04384337	-0.03165537	0	0
24.53596	0.2018197	0.1348502	-0.025839	-0.0186327	-0.5490011	-0.3958604	0	0
24.55248	0.2014914	0.1346134	-0.01987808	-0.01433329	0.1798905	0.1297491	0	0
24.56904	0.2012135	0.134413	-0.01677744	-0.0120966	0.09372314	0.06760853	0	0
24.58561	0.199242	0.1329921	-0.1189963	-0.08576841	-3.085325	-2.223676	0	0
24.60251	0.199242	0.1329921	0	0	3.555903	2.562972	0	0
24.61874	0.1991915	0.1329557	-0.003114722	-0.002243811	-0.09400248	-0.06771835	0	0
24.63553	0.1989639	0.1327917	-0.0135567	-0.009768954	-0.3161952	-0.22787	0	0
24.65188	0.1983822	0.1323726	-0.03558147	-0.02563514	-0.6647088	-0.4788423	0	0
24.66844	0.1929382	0.1284534	-0.3286404	-0.2365879	-8.903993	-6.409364	0	0
24.68501	0.1808954	0.1198025	-0.7269034	-0.5221716	-12.02029	-8.619429	0	0
24.7021	0.1700266	0.1120514	-0.6360512	-0.4536011	2.699501	2.037441	0	0
24.71815	0.1588092	0.1041412	-0.6990539	-0.4929522	-1.901425	-1.187619	0	0
24.73471	0.1438418	0.0936469	-0.9034365	-0.6334394	-6.266761	-4.307606	0	0
24.75161	0.1341629	0.08686399	-0.5726807	-0.4013316	9.882678	6.935165	0	0
24.76813	0.1233443	0.07927821	-0.6551207	-0.4593593	-2.46717	-1.736584	0	0
24.78441	0.1170416	0.07483466	-0.3870308	-0.2728624	8.173781	5.686094	0	0
24.80098	0.1104955	0.07018325	-0.3951231	-0.2807594	-0.2463242	-0.2403786	0	0
24.81755	0.1069847	0.06772624	-0.2119111	-0.1483057	5.529347	3.997459	0	0
24.83411	0.0999292	0.06267826	-0.4258703	-0.3046969	-6.4573	-4.719896	0	0
24.85069	0.09419411	0.05856863	-0.3460509	-0.2479716	2.40854	1.711679	0	0
24.86771	0.08834836	0.05430643	-0.3434401	-0.250406	0.07771514	-0.07246556	0	0
24.88382	0.0796731	0.04807154	-0.5385833	-0.3870786	-5.89045	-4.1255	0	0
24.90038	0.07729308	0.04638119	-0.1436584	-0.1020298	12.08653	8.723816	0	0
24.91695	0.0677907	0.03963086	-0.5735644	-0.4074505	-12.97459	-9.217617	0	0
24.93375	0.05866943	0.03318531	-0.5429967	-0.3837091	0.916154	0.7115614	0	0
24.95026	0.04898709	0.02629878	-0.5863849	-0.4170642	-1.30256	-1.001355	0	0
24.98322	0.04144993	0.02100829	-0.2286831	-0.1605172	7.230549	5.185816	0	0
24.99979	0.04108214	0.02074637	-0.02218988	-0.01580256	4.16873	2.92153	0	0
25.01635	0.04108214	0.02074637	0	0	0.6697305	0.4769496	0	0
25.03332	0.04105587	0.02072766	-0.001548273	-0.001102695	-0.046182	-0.03289125	0	0
25.04948	0.04102959	0.02070895	-0.001625607	-0.001157493	-0.002334199	-0.001654004	0	0
25.08399	0.03982104	0.01984819	-0.03501862	-0.0249411	-0.6589717	-0.4693412	0	0
25.10056	0.03595818	0.01713356	-0.2331899	-0.1638743	-3.879861	-2.720079	0	0
25.11738	0.03233084	0.01454803	-0.2156937	-0.1537445	0.5241124	0.3034457	0	0
25.13369	0.02607304	0.01008438	-0.3835503	-0.2735842	-5.066215	-3.616976	0	0
25.15026	0.02073387	0.006347699	-0.3222727	-0.2255463	1.863522	1.460888	0	0
25.16693	0.01334131	0.001139524	-0.4435095	-0.3124596	-3.647803	-2.61507	0	0
25.1834	0.008394539	-0.002324541	-0.3003862	-0.2103506	4.319221	3.081476	0	0
25.19996	0.003973663	-0.005377424	-0.2668446	-0.1842724	1.015326	0.7894053	0	0
25.21653	-0.00210526	-0.009584501	-0.3669245	-0.2539397	-3.020418	-2.102561	0	0
25.2331	-0.004184186	-0.01107621	-0.1254842	-0.09003943	7.286683	4.946518	0	0
25.24966	-0.009683908	-0.01491248	-0.3319639	-0.2315582	-6.231568	-4.271045	0	0
25.31595	-0.01670897	-0.01973798	-0.105981	-0.07279802	2.727506	1.916159	0	0
25.33253	-0.01676159	-0.0197001	-0.003173351	0.002284413	1.240639	0.9060631	0	0
25.34954	-0.0167879	-0.01964329	-0.00154647	0.003339627	0.04843026	0.03141246	0	0
25.36563	-0.0168142	-0.01958648	-0.001635595	0.003531976	-0.002692874	0.005811805	0	0
25.38257	-0.0168142	-0.01958648	0	0	0.04952484	-0.1069462	0	0
25.39876	-0.0167879	-0.01956754	0.001624614	0.001169459	0.04903093	0.03529435	0	0
25.41559	-0.0167879	-0.01956754	0	0	-0.04919802	-0.03541463	0	0
25.4319	-0.0167879	-0.01956754	0	0	0	0	0	0
25.44861	-0.01676159	-0.01954861	0.001574001	0.001132915	0.04766257	0.03430598	0	0
25.46503	-0.01673528	-0.01952967	0.001602157	0.001153294	0.0008497526	0.000615049	0	0
25.4816	-0.01673528	-0.01952967	0	0	-0.04857408	-0.0349655	0	0
25.49817	-0.01673528	-0.0194918	0	0.002286029	0	0.06900043	0	0
25.51473	-0.01673528	-0.0194918	0	0	0	-0.06899646	0	0
25.5313	-0.01673528	-0.0194918	0	0	0	0	0	0
25.54786	-0.01673528	-0.0194918	0	0	0	0	0	0
25.581	-0.01670897	-0.01951073	0.000793977	-0.0005714791	0.01597485	-0.01149818	0	0
25.59757	-0.01670897	-0.01951073	0	0	-0.01597485	0.01149818	0	0
25.61413	-0.01670897	-0.01951073	0	0	0	0	0	0
25.63074	-0.01670897	-0.01951073	0	0	0	0	0	0
25.64727	-0.01670897	-0.01951073	0	0	0	0	0	0
25.66383	-0.01670897	-0.01951073	0	0	0	0	0	0
25.6804	-0.01670897	-0.01951073	0	0	0	0	0	0
25.69697	-0.01670897	-0.01951073	0	0	0	0	0	0
25.71381	-0.01670897	-0.01951073	0	0	0	0	0	0
25.7301	-0.01670897	-0.01951073	0	0	0	0	0	0
25.74667	-0.01670897	-0.01951073	0	0	0	0	0	0
25.76335	-0.01670897	-0.01951073	0	0	0	0	0	0
25.7798	-0.01670897	-0.01951073	0	0	0	0	0	0
25.79687	-0.01670897	-0.01951073	0	0	0	0	0	0
25.81293	-0.01670897	-0.01951073	0	0	0	0	0	0
25.8295	-0.01670897	-0.01951073	0	0	0	0	0	0
25.8464	-0.01668266	-0.01952967	0.001556879	-0.001120622	0.04652338	-0.03348696	0	0
25.86263	-0.01668266	-0.01952967	0	0	-0.04698669	0.03382044	0	0
25.87943	-0.01668266	-0.01952967	0	0	0	0	0	0
25.89577	-0.01668266	-0.01956754	0	-0.002318053	0	-0.06996302	0	0
25.91401	-0.01668266	-0.01956754	0	0	0	0.06703776	0	0
25.93096	-0.01665635	-0.01954861	0.001551864	0.001116982	0.04409646	0.03173921	0	0
25.94714	-0.01665635	-0.01954861	0	0	-0.04683536	-0.03371058	0	0
25.96371	-0.01665635	-0.01954861	0	0	0	0	0	0
25.98028	-0.01668266	-0.01956754	-0.001587771	-0.001142827	-0.04791627	-0.03448859	0	0
25.99701	-0.01668266	-0.01956754	0	0	0.04768571	0.03432263	0	0
26.01341	-0.01668266	-0.01956754	0	0	0	0	0	0
26.03003	-0.01668266	-0.01956754	0	0	0	0	0	0
26.04655	-0.01668266	-0.01956754	0	0	0	0	0	0
26.06311	-0.01668266	-0.01956754	0	0	0	0	0	0
26.07967	-0.01668266	-0.01956754	0	0	0	0	0	0
26.09624	-0.01668266	-0.01956754	0	0	0	0	0	0
26.1131	-0.01668266	-0.01956754	0	0	0	0	0	0
26.12937	-0.01665635	-0.01954861	0.001616237	0.001163315	0.04878094	0.03511095	0	0
26.14611	-0.01665635	-0.01954861	0	0	-0.04895285	-0.03523468	0	0
26.19565	-0.01665635	-0.01958648	0	-0.0007644739	0	-0.01153394	0	0
26.21221	-0.01665635	-0.01958648	0	0	0	0.01156589	0	0
26.22878	-0.01665635	-0.01958648	0	0	0	0	0	0
26.24569	-0.01665635	-0.01958648	0	0	0	0	0	0
26.26191	-0.01665635	-0.01958648	0	0	0	0	0	0
26.27847	-0.01665635	-0.01958648	0	0	0	0	0	0
26.29504	-0.01665635	-0.01958648	0	0	0	0	0	0
26.31161	-0.01665635	-0.01958648	0	0	0	0	0	0
26.32817	-0.01665635	-0.01958648	0	0	0	0	0	0
26.34475	-0.01663005	-0.01960542	0.001586858	-0.001142282	0.04787493	-0.03446222	0	0
26.36176	-0.01663005	-0.01960542	0	0	-0.04724421	0.0340082	0	0
26.37827	-0.01663005	-0.01960542	0	0	0	0	0	0
26.39444	-0.01663005	-0.01960542	0	0	0	0	0	0
26.4113	-0.01663005	-0.01960542	0	0	0	0	0	0
26.42758	-0.01665635	-0.01958648	-0.001616237	0.00116343	-0.04877814	0.03511238	0	0
26.44414	-0.01665635	-0.01958648	0	0	0.04921155	-0.03542438	0	0
26.46071	-0.01665635	-0.01958648	0	0	0	0	0	0
26.47727	-0.01665635	-0.01958648	0	0	0	0	0	0
26.49384	-0.01665635	-0.01958648	0	0	0	0	0	0
26.51041	-0.01665635	-0.01958648	0	0	0	0	0	0
26.52697	-0.01663005	-0.01956754	0.001587954	0.001143071	0.04793007	0.03450191	0	0
26.54354	-0.01663005	-0.01956754	0	0	-0.04792731	-0.03449992	0	0
26.56011	-0.01663005	-0.01956754	0	0	0	0	0	0
26.57692	-0.01663005	-0.01956754	0	0	0	0	0	0
26.59324	-0.01660374	-0.01958648	0.001611516	-0.001160032	0.04863566	-0.03500982	0	0
26.60994	-0.01660374	-0.01958648	0	0	-0.0488014	0.03512913	0	0
26.62638	-0.01657743	-0.01960542	0.001600597	-0.00115209	0.04830611	-0.03477014	0	0
26.64294	-0.01657743	-0.01960542	0	0	-0.04850155	0.03491081	0	0
26.67799	-0.01655112	-0.01962435	0.0007506377	-0.0005402848	0.01454416	-0.01046842	0	0
26.69454	-0.01655112	-0.01962435	0	0	-0.01454792	0.01047112	0	0
26.71112	-0.01655112	-0.01962435	0	0	0	0	0	0
26.72767	-0.01652481	-0.01964329	0.001590151	-0.001144652	0.04799361	-0.03454765	0	0
26.74424	-0.01652481	-0.01964329	0	0	-0.04802402	0.03456954	0	0
26.7608	-0.01652481	-0.01964329	0	0	0	0	0	0
26.77756	-0.0164985	-0.01966223	0.00157017	-0.001130189	0.047122	-0.03391783	0	0
26.79394	-0.0164985	-0.01966223	0	0	-0.04738783	0.03410917	0	0
26.8105	-0.0164985	-0.01966223	0	0	0	0	0	0
26.87127	-0.0164985	-0.01966223	0	0	0	0	0	0
26.88813	-0.0164985	-0.01966223	0	0	0	0	0	0
26.90464	-0.0164985	-0.01966223	0	0	0	0	0	0
26.92097	-0.0164985	-0.01966223	0	0	0	0	0	0
26.93754	-0.0164985	-0.01966223	0	0	0	0	0	0
26.9541	-0.0164985	-0.01966223	0	0	0	0	0	0
26.97069	-0.0164985	-0.01966223	0	0	0	0	0	0
26.98724	-0.0164985	-0.01966223	0	0	0	0	0	0
27.00381	-0.0164985	-0.01966223	0	0	0	0	0	0
27.02073	-0.01652481	-0.01964329	-0.001554773	0.001119106	-0.04642606	0.0334169	0	0
27.0535	-0.01652481	-0.01964329	0	0	0.03128329	-0.02251733	0	0
27.07027	-0.01652481	-0.01964329	0	0	0	0	0	0
27.08678	-0.01652481	-0.01964329	0	0	0	0	0	0
27.10329	-0.01652481	-0.01964329	0	0	0	0	0	0
27.1198	-0.01652481	-0.01964329	0	0	0	0	0	0
27.13634	-0.01652481	-0.01964329	0	0	0	0	0	0
27.15333	-0.01652481	-0.01964329	0	0	0	0	0	0
27.16947	-0.01652481	-0.01964329	0	0	0	0	0	0
27.18604	-0.01652481	-0.01964329	0	0	0	0	0	0
27.20261	-0.01652481	-0.01964329	0	0	0	0	0	0
27.21937	-0.01652481	-0.01964329	0	0	0	0	0	0
27.23574	-0.01652481	-0.01964329	0	0	0	0	0	0
27.25231	-0.01652481	-0.01964329	0	0	0	0	0	0
27.26887	-0.01652481	-0.01964329	0	0	0	0	0	0
27.28544	-0.01652481	-0.01964329	0	0	0	0	0	0
27.30201	-0.01652481	-0.01964329	0	0	0	0	0	0
27.31857	-0.01652481	-0.01964329	0	0	0	0	0	0
27.33514	-0.01652481	-0.01964329	0	0	0	0	0	0
27.35198	-0.01652481	-0.01964329	0	0	0	0	0	0
27.36827	-0.01652481	-0.01964329	0	0	0	0	0	0
27.38499	-0.01652481	-0.01964329	0	0	0	0	0	0
27.4015	-0.01652481	-0.01964329	0	0	0	0	0	0
27.41798	-0.01652481	-0.01964329	0	0	0	0	0	0
27.43455	-0.01655112	-0.01962435	-0.001587588	0.001142807	-0.04804073	0.03458157	0	0
27.47006	-0.01655112	-0.01962435	0	0	0.03048133	-0.02194163	0	0
27.48663	-0.01655112	-0.01962435	0	0	0	0	0	0
27.50357	-0.01655112	-0.01962435	0	0	0	0	0	0
27.51976	-0.01655112	-0.01962435	0	0	0	0	0	0
27.53659	-0.01652481	-0.01964329	0.001562588	-0.001124811	0.04731973	-0.03406256	0	0
27.55289	-0.01652481	-0.01964329	0	0	-0.04716173	0.03394883	0	0
27.56962	-0.01652481	-0.01964329	0	0	0	0	0	0
27.58613	-0.01655112	-0.01962435	-0.001593089	0.001146767	-0.04792229	0.03449632	0	0
27.6142	-0.01655112	-0.01962435	0	0	0.03573209	-0.02572134	0	0
27.63077	-0.01655112	-0.01962435	0	0	0	0	0	0
27.64734	-0.01655112	-0.01962435	0	0	0	0	0	0
27.66391	-0.01655112	-0.01962435	0	0	0	0	0	0
27.68047	-0.01655112	-0.01962435	0	0	0	0	0	0
27.69704	-0.01655112	-0.01962435	0	0	0	0	0	0
27.71361	-0.01655112	-0.01962435	0	0	0	0	0	0
27.73017	-0.01655112	-0.01962435	0	0	0	0	0	0
27.74674	-0.01655112	-0.01962435	0	0	0	0	0	0
27.76331	-0.01655112	-0.01962435	0	0	0	0	0	0
27.77987	-0.01655112	-0.01962435	0	0	0	0	0	0
27.79644	-0.01655112	-0.01962435	0	0	0	0	0	0
27.8133	-0.01655112	-0.01962435	0	0	0	0	0	0
27.82957	-0.01655112	-0.01962435	0	0	0	0	0	0
27.84614	-0.01655112	-0.01962435	0	0	0	0	0	0
27.86271	-0.01655112	-0.01962435	0	0	0	0	0	0
27.87927	-0.01655112	-0.01962435	0	0	0	0	0	0
27.89584	-0.01655112	-0.01962435	0	0	0	0	0	0
27.91241	-0.01655112	-0.01962435	0	0	0	0	0	0
27.92898	-0.01655112	-0.01962435	0	0	0	0	0	0
27.94554	-0.01655112	-0.01962435	0	0	0	0	0	0
27.96241	-0.01655112	-0.01962435	0	0	0	0	0	0
27.97868	-0.01655112	-0.01962435	0	0	0	0	0	0
27.99543	-0.01655112	-0.01962435	0	0	0	0	0	0
28.01181	-0.01655112	-0.01962435	0	0	0	0	0	0
28.02838	-0.01655112	-0.01962435	0	0	0	0	0	0
28.04496	-0.01655112	-0.01962435	0	0	0	0	0	0
28.06152	-0.01655112	-0.01962435	0	0	0	0	0	0
28.07808	-0.01655112	-0.01962435	0	0	0	0	0	0
28.09465	-0.01655112	-0.01962435	0	0	0	0	0	0
28.11271	-0.01652481	-0.01964329	0.001456337	-0.001048328	0.04205442	-0.0302724	0	0
28.12928	-0.01652481	-0.01964329	0	0	-0.04205211	0.03027073	0	0
28.14585	-0.01652481	-0.01964329	0	0	0	0	0	0
28.16241	-0.01652481	-0.01964329	0	0	0	0	0	0
28.17898	-0.01652481	-0.01964329	0	0	0	0	0	0
28.19559	-0.01655112	-0.01962435	-0.001583942	0.001140183	-0.04774027	0.03436529	0	0
28.21211	-0.01655112	-0.01962435	0	0	0.04780622	-0.03441276	0	0
28.22909	-0.01655112	-0.01962435	0	0	0	0	0	0
28.24525	-0.01655112	-0.01962435	0	0	0	0	0	0
28.26181	-0.01655112	-0.01962435	0	0	0	0	0	0
28.27863	-0.01655112	-0.01962435	0	0	0	0	0	0
28.29495	-0.01655112	-0.01962435	0	0	0	0	0	0
28.31151	-0.01655112	-0.01962435	0	0	0	0	0	0
28.32816	-0.01655112	-0.01962435	0	0	0	0	0	0
28.34468	-0.01655112	-0.01962435	0	0	0	0	0	0
28.36121	-0.01655112	-0.01962435	0	0	0	0	0	0
28.37778	-0.01655112	-0.01962435	0	0	0	0	0	0
28.39435	-0.01655112	-0.01962435	0	0	0	0	0	0
28.41092	-0.01655112	-0.01962435	0	0	0	0	0	0
28.42748	-0.01655112	-0.01962435	0	0	0	0	0	0
28.44405	-0.01655112	-0.01962435	0	0	0	0	0	0
28.46062	-0.01655112	-0.01962435	0	0	0	0	0	0
28.4772	-0.01655112	-0.01962435	0	0	0	0	0	0
28.49378	-0.01655112	-0.01962435	0	0	0	0	0	0
28.51031	-0.01655112	-0.01962435	0	0	0	0	0	0
28.52688	-0.01655112	-0.01962435	0	0	0	0	0	0
28.54345	-0.01655112	-0.01962435	0	0	0	0	0	0
28.56002	-0.01655112	-0.01962435	0	0	0	0	0	0
28.57658	-0.01655112	-0.01962435	0	0	0	0	0	0
28.59315	-0.01655112	-0.01962435	0	0	0	0	0	0
28.60986	-0.01655112	-0.01962435	0	0	0	0	0	0
28.62629	-0.01655112	-0.01962435	0	0	0	0	0	0
28.64285	-0.01655112	-0.01962435	0	0	0	0	0	0
28.65942	-0.01655112	-0.01962435	0	0	0	0	0	0
28.67599	-0.01655112	-0.01962435	0	0	0	0	0	0
28.69256	-0.01655112	-0.01962435	0	0	0	0	0	0
28.79196	-0.01655112	-0.01962435	0	0	0	0	0	0
28.80852	-0.01655112	-0.01962435	0	0	0	0	0	0
28.82509	-0.01652481	-0.01964329	0.001587954	-0.001143071	0.04792731	-0.03449992	0	0
28.84166	-0.01652481	-0.01964329	0	0	-0.04792455	0.03449794	0	0
28.85822	-0.01652481	-0.01964329	0	0	0	0	0	0
28.87479	-0.01652481	-0.01964329	0	0	0	0	0	0
28.89136	-0.01652481	-0.01964329	0	0	0	0	0	0
28.90808	-0.01652481	-0.01964329	0	0	0	0	0	0
28.92449	-0.01652481	-0.01964329	0	0	0	0	0	0
28.9411	-0.01652481	-0.01964329	0	0	0	0	0	0
28.97585	-0.01652481	-0.01964329	0	0	0	0	0	0
28.99242	-0.01652481	-0.01964329	0	0	0	0	0	0
29.00899	-0.01652481	-0.01964329	0	0	0	0	0	0
29.02566	-0.01652481	-0.01964329	0	0	0	0	0	0
29.04212	-0.01652481	-0.01964329	0	0	0	0	0	0
29.05869	-0.01652481	-0.01964329	0	0	0	0	0	0
29.0757	-0.01652481	-0.01964329	0	0	0	0	0	0
29.09182	-0.01652481	-0.01964329	0	0	0	0	0	0
29.10839	-0.01652481	-0.01964329	0	0	0	0	0	0
29.12523	-0.01652481	-0.01964329	0	0	0	0	0	0
29.14175	-0.01652481	-0.01964329	0	0	0	0	0	0
29.15809	-0.01652481	-0.01964329	0	0	0	0	0	0
29.17466	-0.01652481	-0.01964329	0	0	0	0	0	0
29.19122	-0.01652481	-0.01964329	0	0	0	0	0	0
29.2078	-0.01652481	-0.01964329	0	0	0	0	0	0
29.24092	-0.01652481	-0.01964329	0	0	0	0	0	0
29.25749	-0.01652481	-0.01964329	0	0	0	0	0	0
29.27434	-0.01652481	-0.01964329	0	0	0	0	0	0
29.29062	-0.01652481	-0.01964329	0	0	0	0	0	0
29.30719	-0.01652481	-0.01964329	0	0	0	0	0	0
29.32376	-0.01652481	-0.01964329	0	0	0	0	0	0
29.34039	-0.01652481	-0.01964329	0	0	0	0	0	0
29.35689	-0.01652481	-0.01964329	0	0	0	0	0	0
29.37346	-0.01652481	-0.01964329	0	0	0	0	0	0
29.39003	-0.01652481	-0.01964329	0	0	0	0	0	0
29.40659	-0.01652481	-0.01964329	0	0	0	0	0	0
29.42316	-0.01652481	-0.01964329	0	0	0	0	0	0
29.43973	-0.01652481	-0.01964329	0	0	0	0	0	0
29.4563	-0.01652481	-0.01964329	0	0	0	0	0	0
29.47286	-0.01652481	-0.01964329	0	0	0	0	0	0
29.50599	-0.01652481	-0.01964329	0	0	0	0	0	0
29.52256	-0.01652481	-0.01964329	0	0	0	0	0	0
29.53913	-0.01652481	-0.01964329	0	0	0	0	0	0
29.55569	-0.01652481	-0.01964329	0	0	0	0	0	0
29.63545	-0.01652481	-0.01964329	0	0	0	0	0	0
29.65202	-0.01652481	-0.01964329	0	0	0	0	0	0
29.66858	-0.01652481	-0.01964329	0	0	0	0	0	0
29.68517	-0.01652481	-0.01964329	0	0	0	0	0	0
29.70172	-0.01652481	-0.01964329	0	0	0	0	0	0
29.71828	-0.01652481	-0.01964329	0	0	0	0	0	0
29.73485	-0.01652481	-0.01964329	0	0	0	0	0	0
29.75168	-0.01652481	-0.01964329	0	0	0	0	0	0
29.76798	-0.01652481	-0.01964329	0	0	0	0	0	0
29.78612	-0.01652481	-0.01964329	0	0	0	0	0	0
29.80271	-0.01652481	-0.01964329	0	0	0	0	0	0
29.81925	-0.01652481	-0.01964329	0	0	0	0	0	0
29.83582	-0.01652481	-0.01964329	0	0	0	0	0	0
29.85239	-0.01652481	-0.01964329	0	0	0	0	0	0
29.86926	-0.01652481	-0.01964329	0	0	0	0	0	0
29.88552	-0.01652481	-0.01964329	0	0	0	0	0	0
29.90209	-0.01652481	-0.01964329	0	0	0	0	0	0
29.91865	-0.01652481	-0.01964329	0	0	0	0	0	0
29.93531	-0.01652481	-0.01964329	0	0	0	0	0	0
29.95179	-0.01652481	-0.01964329	0	0	0	0	0	0
29.96836	-0.01652481	-0.01964329	0	0	0	0	0	0
29.98492	-0.01652481	-0.01964329	0	0	0	0	0	0
30.00186	-0.01652481	-0.01964329	0	0	0	0	0	0
30.01805	-0.01652481	-0.01964329	0	0	0	0	0	0
30.03462	-0.01652481	-0.01964329	0	0	0	0	0	0
30.05119	-0.01652481	-0.01964329	0	0	0	0	0	0
30.0679	-0.01652481	-0.01964329	0	0	0	0	0	0
30.08442	-0.01652481	-0.01964329	0	0	0	0	0	0
30.10093	-0.01652481	-0.01964329	0	0	0	0	0	0
30.13402	-0.01652481	-0.01964329	0	0	0	0	0	0
30.15059	-0.01652481	-0.01964329	0	0	0	0	0	0
30.16716	-0.01652481	-0.01964329	0	0	0	0	0	0
30.18399	-0.01652481	-0.01964329	0	0	0	0	0	0
30.20029	-0.01652481	-0.01964329	0	0	0	0	0	0
30.21686	-0.01652481	-0.01964329	0	0	0	0	0	0
30.23343	-0.01652481	-0.01964329	0	0	0	0	0	0
30.24999	-0.01652481	-0.01964329	0	0	0	0	0	0
30.26656	-0.01652481	-0.01964329	0	0	0	0	0	0
30.28312	-0.01652481	-0.01964329	0	0	0	0	0	0
30.29969	-0.01652481	-0.01964329	0	0	0	0	0	0
30.31658	-0.01652481	-0.01964329	0	0	0	0	0	0
30.33282	-0.01652481	-0.01964329	0	0	0	0	0	0
30.34939	-0.01652481	-0.01964329	0	0	0	0	0	0
30.36612	-0.01652481	-0.01964329	0	0	0	0	0	0
30.38252	-0.01652481	-0.01964329	0	0	0	0	0	0
30.39914	-0.01652481	-0.01964329	0	0	0	0	0	0
30.41566	-0.01652481	-0.01964329	0	0	0	0	0	0
30.43266	-0.01652481	-0.01964329	0	0	0	0	0	0
30.46536	-0.01652481	-0.01964329	0	0	0	0	0	0
30.53664	-0.01652481	-0.01964329	0	0	0	0	0	0
30.55326	-0.01652481	-0.01964329	0	0	0	0	0	0
30.56978	-0.01652481	-0.01964329	0	0	0	0	0	0
30.58634	-0.01652481	-0.01964329	0	0	0	0	0	0
30.60291	-0.01652481	-0.01964329	0	0	0	0	0	0
30.61948	-0.01652481	-0.01964329	0	0	0	0	0	0
30.63631	-0.01652481	-0.01964329	0	0	0	0	0	0
30.65261	-0.01652481	-0.01964329	0	0	0	0	0	0
30.66918	-0.01652481	-0.01964329	0	0	0	0	0	0
30.68584	-0.01652481	-0.01964329	0	0	0	0	0	0
30.70231	-0.01652481	-0.01964329	0	0	0	0	0	0
30.71888	-0.01652481	-0.01964329	0	0	0	0	0	0
30.73545	-0.01652481	-0.01964329	0	0	0	0	0	0
30.75201	-0.01652481	-0.01964329	0	0	0	0	0	0
30.76858	-0.01652481	-0.01964329	0	0	0	0	0	0
30.78514	-0.01652481	-0.01964329	0	0	0	0	0	0
30.80171	-0.01652481	-0.01964329	0	0	0	0	0	0
30.81844	-0.01652481	-0.01964329	0	0	0	0	0	0
30.83495	-0.01652481	-0.01964329	0	0	0	0	0	0
30.85146	-0.01652481	-0.01964329	0	0	0	0	0	0
30.86798	-0.01652481	-0.01964329	0	0	0	0	0	0
30.88454	-0.01652481	-0.01964329	0	0	0	0	0	0
30.90111	-0.01652481	-0.01964329	0	0	0	0	0	0
30.91768	-0.01652481	-0.01964329	0	0	0	0	0	0
30.93425	-0.01652481	-0.01964329	0	0	0	0	0	0
30.95103	-0.01652481	-0.01964329	0	0	0	0	0	0
30.96738	-0.01652481	-0.01964329	0	0	0	0	0	0
30.98395	-0.01652481	-0.01964329	0	0	0	0	0	0
31.00051	-0.01652481	-0.01964329	0	0	0	0	0	0
31.01708	-0.01652481	-0.01964329	0	0	0	0	0	0
31.03365	-0.01652481	-0.01964329	0	0	0	0	0	0
31.06678	-0.01652481	-0.01964329	0	0	0	0	0	0
31.08335	-0.01652481	-0.01964329	0	0	0	0	0	0
31.09991	-0.01652481	-0.01964329	0	0	0	0	0	0
31.11648	-0.01652481	-0.01964329	0	0	0	0	0	0
31.13305	-0.01652481	-0.01964329	0	0	0	0	0	0
31.14961	-0.01652481	-0.01964329	0	0	0	0	0	0
31.16619	-0.01652481	-0.01964329	0	0	0	0	0	0
31.18275	-0.01652481	-0.01964329	0	0	0	0	0	0
31.19931	-0.01652481	-0.01964329	0	0	0	0	0	0
31.21588	-0.01652481	-0.01964329	0	0	0	0	0	0
31.23245	-0.01652481	-0.01964329	0	0	0	0	0	0
31.24902	-0.01652481	-0.01964329	0	0	0	0	0	0
31.26769	-0.01652481	-0.01964329	0	0	0	0	0	0
31.28427	-0.01652481	-0.01964329	0	0	0	0	0	0
31.30083	-0.01652481	-0.01964329	0	0	0	0	0	0
31.3174	0	0	0.9974396	1.185671	30.11319	35.79599	0	0
31.33431	-0.01652481	-0.01964329	-0.9771894	-1.1616	-58.98326	-70.11429	0	0
31.35053	-0.01652481	-0.01964329	0	0	29.49333	35.05916	0	0
31.4168	-0.01652481	-0.01964329	0	0	0	0	0	0
31.43336	-0.01652481	-0.01964329	0	0	0	0	0	0
31.44993	-0.01652481	-0.01964329	0	0	0	0	0	0
31.4665	-0.01652481	-0.01964329	0	0	0	0	0	0
31.48306	-0.01652481	-0.01964329	0	0	0	0	0	0
31.49993	-0.01652481	-0.01964329	0	0	0	0	0	0
31.51644	-0.01655112	-0.01962435	-0.001593273	0.0011469	-0.04774157	0.03436622	0	0
31.53276	-0.01655112	-0.01962435	0	0	0.04851799	-0.03492512	0	0
31.54933	-0.01655112	-0.01962435	0	0	0	0	0	0
31.56597	-0.01655112	-0.01962435	0	0	0	0	0	0
31.58246	-0.01655112	-0.01962435	0	0	0	0	0	0
31.59949	-0.01655112	-0.01962435	0	0	0	0	0	0
31.6156	-0.01655112	-0.01962435	0	0	0	0	0	0
31.63216	-0.01655112	-0.01962435	0	0	0	0	0	0
31.64903	-0.01655112	-0.01962435	0	0	0	0	0	0
31.66554	-0.01655112	-0.01962435	0	0	0	0	0	0
31.68186	-0.01655112	-0.01962435	0	0	0	0	0	0
31.69843	-0.01647219	-0.01956754	0.004763974	0.003429099	0.1448611	0.1042707	0	0
31.71508	-0.01639327	-0.01951073	0.004740507	0.003412207	-0.0007065008	-0.0005085457	0	0
31.73156	-0.01613018	-0.01932137	0.01596095	0.01148789	0.3386533	0.2437385	0	0
31.74813	-0.01602494	-0.0192835	0.006352041	0.002285916	-0.290734	-0.2784212	0	0
31.76512	-0.01599864	-0.01930244	0.001548902	-0.001114849	-0.1431544	-0.1013575	0	0
31.78126	-0.01594602	-0.01930244	0.003258554	0	0.05160037	0.03364816	0	0
31.79813	-0.01591971	-0.0192835	0.001559519	0.001122412	-0.05145765	0.03399383	0	0
31.8144	-0.01584078	-0.01930244	0.00485349	-0.001164407	0.09941798	-0.06902031	0	0
31.83096	-0.01570923	-0.01920776	0.007940107	0.005714566	0.09402023	0.2095377	0	0
31.84755	-0.0150515	-0.01873443	0.03966012	0.0285409	0.9568162	0.6885433	0	0
31.8641	-0.01473578	-0.01850726	0.01907887	0.01372804	-0.6211789	-0.4470786	0	0
31.88066	-0.01447267	-0.01835581	0.01588083	0.009140966	-0.0965727	-0.138518	0	0
31.89723	-0.0128414	-0.01725809	0.09846389	0.06625908	2.492362	1.723828	0	0
31.9138	-0.006605167	-0.01296543	0.3764631	0.2591353	8.390516	5.82135	0	0
31.93036	0.0001052632	-0.008338792	0.4050424	0.2792642	0.8625736	0.6075256	0	0
31.94693	0.009604968	-0.001834834	0.5734034	0.3925797	5.081144	3.419869	0	0
31.9635	0.01684051	0.003152301	0.4367384	0.3010241	-4.124557	-2.763152	0	0
31.98027	0.02602044	0.009220985	0.547421	0.3618901	3.32015	1.8258	0	0
31.99945	0.03461774	0.01467922	0.4481025	0.2844905	-2.762269	-2.152656	0	0
32.01602	0.0424219	0.01777029	0.4710057	0.1865554	0.6405583	-2.739047	0	0
32.03259	0.05050964	0.01777029	0.4881765	0	0.5181838	-5.62993	0	0
32.04932	0.07048829	0.01612206	1.194091	-0.09851169	21.1996	-2.958443	0	0
32.06572	0.08610238	0.01456677	0.9518932	-0.09481639	-7.309552	0.1115244	0	0
32.08229	0.1102355	0.01220439	1.456678	-0.1425934	15.31024	-1.449085	0	0
32.09886	0.1241218	0.01098507	0.838178	-0.07359825	-18.66638	2.082276	0	0
32.11542	0.1369272	0.009427467	0.7731168	-0.09403896	-1.963777	-0.6169727	0	0
32.13199	0.1520026	0.005953137	0.9099521	-0.209711	4.130174	-3.491391	0	0
32.14856	0.1590145	0.004205237	0.4232349	-0.1055035	-14.68915	3.14499	0	0
32.1654	0.1670343	0.0005749761	0.4761829	-0.2155495	1.584837	-3.293892	0	0
32.18169	0.1755683	-0.005716809	0.5237979	-0.386175	1.437021	-5.149489	0	0
32.19826	0.1823465	-0.01073626	0.4091309	-0.3029749	-3.489582	2.531974	0	0
32.21494	0.1915183	-0.01756087	0.5499396	-0.4092016	4.235473	-3.195261	0	0
32.23145	0.1981546	-0.02252308	0.4018619	-0.3004881	-4.461288	3.275324	0	0
32.24796	0.2046723	-0.0274172	0.394774	-0.2964338	-0.2146285	0.12277	0	0
32.26453	0.2105937	-0.03188176	0.357416	-0.2694811	-1.129418	0.8148408	0	0
32.28109	0.2189587	-0.0382193	0.5049145	-0.3825348	4.451513	-3.411968	0	0
32.29766	0.2238178	-0.04191757	0.2932952	-0.2232278	-6.386683	4.807894	0	0
32.31422	0.2274676	-0.04470382	0.2203523	-0.1682173	-2.201677	1.660414	0	0
32.33079	0.2354703	-0.05083898	0.4830465	-0.3703193	7.929042	-6.100155	0	0
32.34737	0.2410615	-0.055147	0.337331	-0.2599126	-4.396691	3.331315	0	0
32.36404	0.247355	-0.06001798	0.3773516	-0.292063	1.203529	-0.96685	0	0
32.38055	0.2484184	-0.06084342	0.06441341	-0.0499958	-9.429296	7.293846	0	0
32.41362	0.2597833	-0.06970793	0.3436644	-0.2680562	5.632374	-4.398186	0	0
32.43019	0.2611838	-0.07080592	0.08453438	-0.06627493	-5.220518	4.065151	0	0
32.44676	0.2612083	-0.07082519	0.00148227	-0.001162971	-2.506518	1.965083	0	0
32.46333	0.2612083	-0.07082519	0	0	-0.04472986	0.03509448	0	0
32.47989	0.2612083	-0.07082519	0	0	0	0	0	0
32.49646	0.2611838	-0.07080592	-0.00148227	0.001162971	-0.04474016	0.03510256	0	0
32.51303	0.2611346	-0.07076739	-0.002966339	0.002325941	-0.0447893	0.03509852	0	0
32.52959	0.261061	-0.07070959	-0.004446811	0.003488912	-0.04468072	0.03509852	0	0
32.54616	0.2610118	-0.07070959	-0.002964541	0	0.04473501	-0.1052956	0	0
32.56273	0.2609873	-0.07069032	-0.001484069	0.001162971	0.04468072	0.03509852	0	0
32.5797	0.2608399	-0.07057473	-0.008685434	0.006812226	-0.2147418	0.1684585	0	0
32.59586	0.2605205	-0.07032429	-0.01975615	0.01549089	-0.3341148	0.2619226	0	0
32.61243	0.2596358	-0.0696309	-0.05340131	0.04185345	-1.027838	0.8053592	0	0
32.629	0.2596358	-0.0696309	0	0	1.611655	-1.26314	0	0
32.64557	0.2596112	-0.06961164	-0.001484069	0.001162521	-0.0447893	0.03508495	0	0
32.66213	0.2596112	-0.06961164	0	0	0.0447893	-0.03508495	0	0
32.68118	0.259562	-0.06961164	-0.002582257	0	-0.07251453	0	0	0
32.69778	0.2595375	-0.06959238	-0.001478525	0.001159584	0.03095833	0.03252493	0	0
32.71431	0.2595129	-0.06961164	-0.001487838	-0.001165473	-0.0002810421	-0.07017035	0	0
32.73088	0.2594883	-0.06959238	-0.001484069	0.001162521	0.0001138772	0.07034807	0	0
32.74744	0.2594637	-0.06957312	-0.001484069	0.001162521	0	0	0	0
32.76434	0.2594637	-0.06957312	0	0	0.04435524	-0.03474494	0	0
32.78085	0.2594391	-0.06955387	-0.001489213	0.001166099	-0.04458522	0.03491158	0	0
32.79715	0.2594391	-0.06955387	0	0	0.0453887	-0.03554072	0	0
32.81387	0.2594391	-0.06955387	0	0	0	0	0	0
32.83038	0.2594391	-0.06955387	0	0	0	0	0	0
32.84689	0.2594145	-0.06953461	-0.001489213	0.00116655	-0.0451003	0.03532857	0	0
32.86341	0.2593899	-0.06951535	-0.001488525	0.001166011	2.082795E-05	-1.631622E-05	0	0
32.87997	0.2593899	-0.06951535	0	0	0.04499111	-0.03524303	0	0
32.89654	0.2593654	-0.06949609	-0.001484069	0.001162521	-0.0447893	0.03508495	0	0
32.91311	0.2593654	-0.06949609	0	0	0.0447893	-0.03508495	0	0
32.92967	0.2593654	-0.06949609	0	0	0	0	0	0
32.94624	0.2593654	-0.06949609	0	0	0	0	0	0
32.96281	0.2593654	-0.06949609	0	0	0	0	0	0
32.97937	0.2593408	-0.06947684	-0.001484069	0.001162071	-0.0447893	0.03507138	0	0
32.99594	0.2593162	-0.06945758	-0.001484069	0.001162521	0	1.357235E-05	0	0
33.01251	0.2592179	-0.06938054	-0.005934478	0.004649634	-0.1343136	0.1052413	0	0
33.02908	0.2591195	-0.06930352	-0.005936277	0.004649184	-5.428939E-05	-1.356181E-05	0	0
33.04603	0.2589965	-0.06920724	-0.007251828	0.005677904	-0.03924259	0.03068646	0	0
33.06221	0.2587014	-0.06901469	-0.01824083	0.01190204	-0.3316489	0.1878449	0	0
33.07906	0.2578405	-0.06837936	-0.05110854	0.03771442	-0.9952723	0.7816287	0	0
33.09557	0.2550335	-0.06626266	-0.1700175	0.1282072	-3.564877	2.712963	0	0
33.11191	0.253875	-0.06535874	-0.07087223	0.05529965	3.017572	-2.219004	0	0
33.12848	0.2508399	-0.06310979	-0.1831971	0.1357469	-3.41276	2.444224	0	0
33.1451	0.2490364	-0.0617075	-0.1084849	0.08435098	2.250931	-1.548458	0	0
33.16161	0.2489623	-0.06164989	-0.004492007	0.003489496	3.138513	-2.440404	0	0
33.17818	0.2489623	-0.06168829	0	-0.002318296	0.1358036	-0.1755827	0	0
33.19475	0.2488387	-0.06174591	-0.007459921	-0.003477669	-0.2251409	-0.03498995	0	0
33.21132	0.248814	-0.06176511	-0.001492164	-0.001159148	0.1801073	0.0699731	0	0
33.22788	0.248814	-0.06176511	0	0	0.0450336	0.03498315	0	0
33.24445	0.248814	-0.06176511	0	0	0	0	0	0
33.26119	0.248814	-0.06176511	0	0	0	0	0	0
33.2777	0.2487893	-0.06178432	-0.00149699	-0.001163122	-0.04501857	-0.03497826	0	0
33.29415	0.2487893	-0.06178432	0	0	0.04541978	0.03528999	0	0
33.31073	0.2487893	-0.06178432	0	0	0	0	0	0
33.32728	0.2487398	-0.06178432	-0.002986391	0	-0.09012946	0	0	0
33.34662	0.2485668	-0.0617267	-0.008947393	0.002978997	-0.1660617	0.08298897	0	0
33.36319	0.2484679	-0.06168829	-0.005968182	0.002317987	0.08295967	-0.01840661	0	0
33.37976	0.247726	-0.06153466	-0.04477932	0.009273184	-1.171188	0.2098841	0	0
33.39633	0.2470581	-0.06163068	-0.04031542	-0.00579574	0.1347208	-0.454781	0	0
33.4129	0.2458949	-0.06211083	-0.07021176	-0.02898162	-0.9022735	-0.6997513	0	0
33.42946	0.2383051	-0.06272553	-0.4581187	-0.03710353	-11.70705	-0.2451197	0	0
33.44603	0.2230921	-0.06287923	-0.918469	-0.009279368	-13.895	0.8398316	0	0
33.46284	0.2141645	-0.06318665	-0.5309283	-0.01828219	11.61045	-0.2697184	0	0
33.47935	0.1926593	-0.06426287	-1.302852	-0.06520107	-23.16602	-1.408071	0	0
33.49573	0.1803097	-0.06607031	-0.7539335	-0.1103425	16.6913	-1.372642	0	0
33.51229	0.1629117	-0.06882215	-1.050143	-0.1661015	-8.990325	-1.692358	0	0
33.52889	0.1490444	-0.07132617	-0.8356879	-0.1508993	6.467046	0.4584332	0	0
33.54543	0.1348348	-0.07473911	-0.8590759	-0.206338	-0.7058521	-1.673143	0	0
33.562	0.1255726	-0.07782787	-0.5590659	-0.1864382	9.061622	0.6010616	0	0
33.57856	0.1058919	-0.08273843	-1.187931	-0.2964019	-18.97918	-3.31871	0	0
33.59513	0.09033244	-0.08504209	-0.9391707	-0.1390492	7.507595	4.748914	0	0
33.6117	0.07048829	-0.08513892	-1.197795	-0.005844984	-7.805308	4.020111	0	0
33.62827	0.0577515	-0.08428689	-0.7687942	0.05142884	12.94728	1.728528	0	0
33.64485	0.04342006	-0.08177108	-0.8642513	0.1517147	-2.879576	3.025241	0	0
33.66148	0.035012	-0.07852332	-0.5055326	0.1952713	10.80004	1.311369	0	0
33.67797	0.0279401	-0.07317673	-0.4289352	0.3242883	2.312778	3.895536	0	0
33.69453	0.0246266	-0.07074812	-0.2000031	0.1465914	6.925931	-5.375901	0	0
33.7111	0.02118104	-0.06826387	-0.2079742	0.1499494	-0.2405694	0.1013457	0	0
33.72767	0.01573554	-0.06428209	-0.3286911	0.240341	-3.643243	2.728021	0	0
33.74424	0.0102628	-0.0602867	-0.3303355	0.2411619	-0.04962907	0.02477631	0	0
33.7608	0.007473545	-0.05821437	-0.1683984	0.1251149	4.887836	-3.502708	0	0
33.77737	0.005052588	-0.05645024	-0.1461292	0.1064835	0.6721615	-0.5623612	0	0
33.79393	0.002815782	-0.05470633	-0.1350139	0.1052623	0.3354617	-0.03685619	0	0
33.81059	0.00192105	-0.05401672	-0.05373393	0.04141498	2.446837	-1.922049	0	0
33.82711	0.00192105	-0.05401672	0	0	1.619828	-1.248469	0	0
33.84363	0.001842103	-0.05395927	-0.004777354	0.003477031	-0.1445636	0.1052156	0	0
33.8602	0.001815788	-0.05390181	-0.001588418	0.003468225	0.09636432	-0.0002661203	0	0
33.87713	0.001763156	-0.0538635	-0.003108139	0.00226222	-0.04536389	-0.03599944	0	0
33.89334	0.00173684	-0.05384435	-0.00162394	0.001181852	0.04478804	-0.0326018	0	0
33.9099	0.00173684	-0.05384435	0	0	0.04955835	-0.03606699	0	0
33.92667	0.001763156	-0.05378689	0.00156891	0.003425409	0.04706264	0.1027521	0	0
33.94304	0.001763156	-0.05374859	0	0.002341109	-0.04734981	-0.03272425	0	0
33.9596	0.001710525	-0.05367198	-0.003176836	0.004624	-0.09647688	0.06932879	0	0
33.97617	0.001789472	-0.05353793	0.004765254	0.00809155	0.2396927	0.1046509	0	0
33.99274	0.001842103	-0.05342303	0.003176843	0.006935325	-0.04793834	-0.03489495	0	0
34.0093	0.001842103	-0.05330813	0	0.006936697	-0.09588834	4.142098E-05	0	0
34.03118	-0.0004210526	-0.0515087	-0.1034477	0.08225108	-2.691099	1.959235	0	0
34.04776	-0.004368393	-0.04863956	-0.2380427	0.1730225	-3.499629	2.360166	0	0
34.06432	-0.01384122	-0.04176497	-0.5721763	0.4152378	-10.08301	7.309229	0	0
34.08088	-0.0209443	-0.03661939	-0.4288417	0.3106593	4.327839	-3.157638	0	0
34.09745	-0.02704603	-0.03220498	-0.3683011	0.2664545	1.827329	-1.334257	0	0
34.11401	-0.03327718	-0.02770198	-0.3761129	0.2718014	-0.235761	0.1613696	0	0
34.13058	-0.03551138	-0.02608858	-0.1348565	0.09738518	7.281135	-5.263892	0	0
34.14733	-0.03653637	-0.02534859	-0.06120578	0.04418745	2.210819	-1.59687	0	0
34.16384	-0.03842844	-0.023945	-0.1146017	0.08501475	-1.605577	1.227648	0	0
34.18028	-0.03871748	-0.02366056	-0.01758016	0.0173	2.944386	-2.054992	0	0
34.19686	-0.03869121	-0.0236416	0.001584471	0.001143479	0.5803274	-0.4892381	0	0
34.21341	-0.03869121	-0.0236416	0	0	-0.04781943	-0.03451027	0	0
34.22998	-0.03863866	-0.0236416	0.003172085	0	0.09577783	0	0	0
34.24655	-0.03861238	-0.02366056	0.001586155	-0.001144532	-0.04786347	-0.03454205	0	0
34.26311	-0.03861238	-0.02366056	0	0	-0.04787026	0.03454205	0	0
34.27968	-0.03853355	-0.02371745	0.004759111	-0.003434387	0.1436468	-0.1036619	0	0
34.29625	-0.03850727	-0.02373641	0.001586155	-0.001144532	-0.09577104	0.06911592	0	0
34.31294	-0.03848099	-0.02375537	0.001573834	-0.001135642	-0.0003704001	0.0002672703	0	0
34.32938	-0.03842844	-0.02375537	0.003197115	0	0.0489907	0.03427373	0	0
34.34595	-0.03837589	-0.0237933	0.003172085	-0.002289064	-0.000758354	-0.06935558	0	0
34.36251	-0.03834961	-0.02377433	0.001586155	0.001144532	-0.04786347	0.1036261	0	0
34.37908	-0.03827078	-0.0237933	0.004758241	-0.001144532	0.09573373	-0.06908409	0	0
34.39565	-0.0382445	-0.02377433	0.001586155	0.001144532	-0.09573373	0.06908409	0	0
34.41222	-0.03819195	-0.02373641	0.003172085	0.002289064	0.04786347	0.03454205	0	0
34.42903	-0.03816567	-0.02371745	0.001563121	0.001127911	-0.04820348	-0.03478736	0	0
34.44535	-0.03813939	-0.02373641	0.001609879	-0.001161651	0.001411173	-0.06909911	0	0
34.46192	-0.03806056	-0.0237933	0.00475737	-0.003432806	0.09568547	-0.06904439	0	0
34.47857	-0.03795545	-0.02386915	0.006315313	-0.004557366	0.04690542	-0.03385744	0	0
34.49505	-0.03774522	-0.02402085	0.0127509	-0.009201537	0.1942487	-0.1401775	0	0
34.51162	-0.03737732	-0.02428635	0.02220662	-0.0160257	0.286066	-0.2064527	0	0
34.52819	-0.03732476	-0.02428635	0.00317231	0	-0.5744566	0.4836565	0	0
34.54475	-0.03732476	-0.02428635	0	0	-0.09574051	0	0	0
34.56132	-0.0372722	-0.02428635	0.003172535	0	0.0957473	0	0	0
34.57789	-0.03719337	-0.02430532	0.00475869	-0.001144757	0.04787026	-0.03454883	0	0
34.59445	-0.03708825	-0.02430532	0.006346307	0	0.04791987	0.03455281	0	0
34.61102	-0.03698313	-0.02430532	0.00634507	0	-3.731683E-05	0	0	0
34.62759	-0.03666777	-0.02434325	0.01903521	-0.002289514	0.3829892	-0.06909767	0	0
34.64418	-0.03645752	-0.02434325	0.01266994	0	-0.1919494	0.06904203	0	0
34.679	-0.03614215	-0.02419153	0.009056176	0.004356716	-0.07028174	0.08473084	0	0
34.69557	-0.03603702	-0.02411567	0.006345295	0.004578803	-0.05274949	0.004321463	0	0
34.71214	-0.03598446	-0.02411567	0.003173491	0	-0.09573627	-0.1382045	0	0
34.7287	-0.0359319	-0.02411567	0.00317276	0	-2.205277E-05	0	0	0
34.74527	-0.03585305	-0.02409671	0.00475914	0.001144757	0.04787704	0.03454883	0	0
34.76227	-0.03569536	-0.02409671	0.009276905	0	0.1345954	-0.03410515	0	0
34.7784	-0.03559023	-0.02405878	0.006515265	0.002350445	-0.08334646	0.07093658	0	0
34.79529	-0.03524855	-0.02388811	0.02023229	0.01010622	0.4153675	0.2348539	0	0
34.81154	-0.03495944	-0.02371745	0.01779527	0.0105043	-0.07354957	0.01201393	0	0
34.8281	-0.03456518	-0.02343303	0.02380298	0.01717137	0.183105	0.2032013	0	0
34.84483	-0.03254114	-0.02201134	0.1210285	0.08501072	2.920821	2.03801	0	0
34.86124	-0.03064829	-0.02068502	0.1153413	0.08082031	-0.1716398	-0.126467	0	0
34.87785	-0.02625712	-0.01771227	0.2642607	0.1788997	4.508932	2.969615	0	0
34.89437	-0.01920816	-0.01271977	0.4267534	0.302253	4.904039	3.722809	0	0
34.91094	-0.01420957	-0.009206964	0.3017157	0.2120331	-3.779302	-2.726922	0	0
34.92751	-0.009631281	-0.00603737	0.2763461	0.1913171	-0.7656574	-0.6252118	0	0
34.9444	-0.009604968	-0.006018512	0.001557747	0.001116386	-8.212759	-5.684639	0	0
34.96064	-0.009578655	-0.00603737	0.001620378	-0.001161231	0.001890417	-0.06874654	0	0
34.9772	-0.009578655	-0.00603737	0	0	-0.04939214	0.03539647	0	0
34.99377	-0.009578655	-0.00603737	0	0	0	0	0	0
35.10974	-0.009657594	-0.006584283	-0.0006807107	-0.004716118	-0.00513612	-0.03558421	0	0
35.1263	-0.009447088	-0.006772894	0.01270622	-0.01138461	0.1010075	-0.05031531	0	0
35.14287	-0.006999886	-0.00856525	0.1477474	-0.1082117	4.076021	-2.922584	0	0
35.15955	-0.003447355	-0.01111398	0.2130088	-0.1528211	1.963265	-1.341989	0	0
35.176	0.002447363	-0.01538525	0.3582808	-0.2596076	4.384821	-3.223192	0	0
35.19258	0.01252566	-0.02271263	0.6079074	-0.4419763	7.557236	-5.521061	0	0
35.20913	0.01615649	-0.02540551	0.2193592	-0.1626923	-11.72776	8.429778	0	0
35.2257	0.020918	-0.02895532	0.2874054	-0.2142671	2.054583	-1.557248	0	0
35.24226	0.02691455	-0.03344113	0.3619526	-0.2707641	2.249838	-1.705081	0	0
35.25883	0.03054313	-0.03621955	0.2190214	-0.1677057	-4.313671	3.110308	0	0
35.27563	0.03459146	-0.03926731	0.240973	-0.1814153	0.6578805	-0.410873	0	0
35.29197	0.03756127	-0.04161238	0.1818119	-0.1435652	-1.785486	1.14232	0	0
35.30853	0.04034651	-0.04371116	0.1681176	-0.1266822	-0.4162174	0.5131336	0	0
