Time	Pos X	Pos Y	Vel X	Vel Y	Acc X	Acc YForce X	Force Y
0.01656555	-0.116107	0.03247673	0.001834564	-0.0005131529	-2.899487E-05	8.110263E-06	0	0
0.04357872	-0.116107	0.03247673	0	0	2.899965E-05	-8.111602E-06	0	0
0.0601494	-0.116081	0.03245808	0.00156694	-0.001125409	0.03595231	-0.02582171	0	0
0.07671535	-0.1160291	0.03242078	0.003134327	-0.002251462	0.04730071	-0.03398211	0	0
0.09334248	-0.1158474	0.03229024	0.01093045	-0.007851345	0.2348719	-0.1687063	0	0
0.1098587	-0.1153281	0.03191723	0.03144307	-0.02258446	0.6189064	-0.4445271	0	0
0.126414	-0.1132762	0.03044346	0.1239422	-0.08902101	2.796944	-2.008877	0	0
0.1429807	-0.1107814	0.02857707	0.1505876	-0.1126586	0.8044618	-0.7136515	0	0
0.1595498	-0.1034192	0.02321517	0.4443348	-0.3236081	8.864939	-6.366203	0	0
0.1764039	-0.09609783	0.01788264	0.4343957	-0.3163936	-0.2973729	0.2158525	0	0
0.1926805	-0.08795668	0.01192305	0.5001753	-0.3661449	1.985458	-1.501667	0	0
0.2092484	-0.07674371	0.003829226	0.676788	-0.488524	5.377239	-3.726013	0	0
0.2259372	-0.06849793	-0.002136184	0.4940931	-0.3574516	-5.493488	3.941239	0	0
0.2424478	-0.05887923	-0.009055961	0.5825744	-0.4191091	2.665147	-1.857188	0	0
0.2589585	-0.05688593	-0.01049077	0.1207283	-0.08690196	-13.98628	10.06037	0	0
0.275513	-0.04906585	-0.0161229	0.4723836	-0.3402174	10.63522	-7.661092	0	0
0.309496	-0.04793693	-0.01693641	0.03322016	-0.02393866	-8.689859	6.258302	0	0
0.3260303	-0.04793693	-0.01693641	0	0	-0.6575994	0.4738703	0	0
0.3425967	-0.04793693	-0.01693641	0	0	0	0	0	0
0.3591638	-0.04793693	-0.01693641	0	0	0	0	0	0
0.3757305	-0.04793693	-0.01693641	0	0	0	0	0	0
0.4030248	-0.04796319	-0.01695533	-0.0009619553	-0.0006932138	-0.02193192	-0.0158048	0	0
0.4195947	-0.0480157	-0.01695533	-0.003169105	0	-0.05031786	0.01580366	0	0
0.4365866	-0.04809446	-0.01701209	-0.004635379	-0.00334066	-0.04368882	-0.09953768	0	0
0.4527266	-0.04814697	-0.01704994	-0.003253279	-0.002344692	0.04171509	0.03006071	0	0
0.4692945	-0.04819948	-0.01708778	-0.003169481	-0.002284248	0.002562004	0.001847999	0	0
0.4858612	-0.04819948	-0.01708778	0	0	0.09565461	0.06893836	0	0
0.5024279	-0.04825199	-0.01704994	-0.003169484	0.002284412	-0.09565814	0.0689458	0	0
0.5190116	-0.0483045	-0.01701209	-0.003166468	0.002281964	9.098194E-05	-7.385171E-05	0	0
0.5355606	-0.0483045	-0.01701209	0	0	0.09556935	-0.06887352	0	0
0.5521692	-0.0483045	-0.01701209	0	0	0	0	0	0
0.5686949	-0.0483045	-0.01701209	0	0	0	0	0	0
0.5852616	-0.0483045	-0.01701209	0	0	0	0	0	0
0.601828	-0.04833075	-0.01703102	-0.001584667	-0.001142233	-0.04782731	-0.03447408	0	0
0.6187196	-0.04835701	-0.01704994	-0.001554373	-0.001120128	0.0009054233	0.0006606786	0	0
0.6349602	-0.04854079	-0.01722024	-0.0113158	-0.01048613	-0.2946201	-0.2826853	0	0
0.6515285	-0.0486458	-0.01729593	-0.006338364	-0.004568501	0.1517097	0.1803663	0	0
0.6682508	-0.04875081	-0.01737162	-0.006279785	-0.004526551	0.001759635	0.001260104	0	0
0.6847836	-0.04882957	-0.0174284	-0.004763875	-0.003433992	0.04558437	0.03285396	0	0
0.7012769	-0.04885583	-0.01744732	-0.001591908	-0.001147289	0.09604425	0.06923925	0	0
0.7177939	-0.04888208	-0.0174284	-0.001589402	0.001145646	7.592142E-05	0.0694612	0	0
0.7343622	-0.04893459	-0.01739055	-0.003168957	0.002284419	-0.04774193	0.03441933	0	0
0.8172022	-0.04940713	-0.01750409	-0.00570427	-0.001370654	-0.02550403	-0.03676828	0	0
0.8337615	-0.04951213	-0.01754194	-0.006341157	-0.002285669	-0.006407359	-0.009205455	0	0
0.8504277	-0.04972214	-0.0174284	-0.0126009	0.006812876	-0.1884019	0.2738424	0	0
0.8668977	-0.04982714	-0.01739055	-0.006375284	0.002298052	0.1878793	-0.1362503	0	0
0.8839065	-0.04987964	-0.0173527	-0.00308666	0.002225142	0.09822989	-0.002177792	0	0
0.9000323	-0.0499059	-0.01733378	-0.001627958	0.001173553	0.04402349	-0.03173685	0	0
0.9166006	-0.04993214	-0.01731486	-0.001584254	0.001142097	0.00133676	-0.0009621166	0	0
0.9331623	-0.04993214	-0.01731486	0	0	0.04781941	-0.03447327	0	0
0.9499477	-0.04993214	-0.01731486	0	0	0	0	0	0
0.9662938	-0.04993214	-0.01731486	0	0	0	0	0	0
0.982971	-0.04993214	-0.01731486	0	0	0	0	0	0
0.9994264	-0.04998465	-0.01731486	-0.003190471	0	-0.09629381	0	0	0
1.015998	-0.05003715	-0.0173527	-0.003168128	-0.002283871	0.0006765065	-0.06915191	0	0
1.032561	-0.05029964	-0.01754194	-0.01584777	-0.01142516	-0.3826662	-0.2758802	0	0
1.049127	-0.05155953	-0.01845046	-0.07605616	-0.05484509	-1.817407	-1.310642	0	0
1.06603	-0.05518077	-0.02102602	-0.2142299	-0.1523679	-4.128443	-2.913849	0	0
1.08226	-0.06855032	-0.03066524	-0.8237562	-0.5939142	-18.39607	-13.32628	0	0
1.098828	-0.07150944	-0.03281348	-0.1786011	-0.1296599	19.67039	14.15483	0	0
1.115395	-0.08521419	-0.04279515	-0.8272623	-0.6025249	-19.57649	-14.27099	0	0
1.13208	-0.09286372	-0.04839103	-0.4584736	-0.3353886	11.091	8.033893	0	0
1.165279	-0.1080252	-0.05942305	-0.4566791	-0.3322955	0.03597306	0.06200428	0	0
1.181845	-0.1127046	-0.06276395	-0.2824614	-0.2016673	3.50075	2.624859	0	0
1.198623	-0.1151463	-0.06441665	-0.1455383	-0.09850866	4.106433	3.09381	0	0
1.214978	-0.1149126	-0.06420521	0.01429058	0.01292803	4.823958	3.363384	0	0
1.231647	-0.1149126	-0.06420521	0	0	-0.4327213	-0.3914632	0	0
1.248111	-0.1147827	-0.0641091	0.007886943	0.00583737	0.2380353	0.1761772	0	0
1.264679	-0.1147048	-0.06405143	0.004702497	0.003480667	-0.09640575	-0.07134672	0	0
1.281245	-0.1146788	-0.06403222	0.001567841	0.001159914	-0.09460582	-0.07004169	0	0
1.297812	-0.1146269	-0.06399377	0.003135456	0.002320561	0.04731276	0.03502991	0	0
1.314379	-0.1144711	-0.06387845	0.009406121	0.006960934	0.1892525	0.1400493	0	0
1.331221	-0.1142373	-0.06370549	0.0138795	0.01026972	0.1338974	0.09903889	0	0
1.347512	-0.1141594	-0.06368627	0.00478296	0.001179961	-0.274546	-0.2743414	0	0
1.364079	-0.1140555	-0.06364784	0.006271497	0.002319712	0.04530276	0.03468764	0	0
1.380644	-0.1139776	-0.06370549	0.004704074	-0.003480268	-0.04730799	-0.1750551	0	0
1.397211	-0.1138477	-0.06380158	0.007839878	-0.005800304	0.0946459	-0.07002413	0	0
1.413777	-0.1137178	-0.06393611	0.007840158	-0.00812079	8.460654E-06	-0.07003517	0	0
1.430346	-0.1135879	-0.06403222	0.007839425	-0.005800536	-2.21201E-05	0.07002416	0	0
1.546375	-0.1129904	-0.06458966	0.005149814	-0.004804348	-0.02028402	0.007512867	0	0
1.579445	-0.1077131	-0.06849487	0.1595798	-0.1180892	1.035753	-0.7597951	0	0
1.596012	-0.10032	-0.07396746	0.4462411	-0.3303212	5.775102	-4.275642	0	0
1.61258	-0.08860946	-0.08264168	0.7068385	-0.5235694	7.864733	-5.83216	0	0
1.629146	-0.08220904	-0.08738649	0.3863612	-0.2864201	-9.672337	7.157411	0	0
1.645713	-0.06637603	-0.09917835	0.955689	-0.7117634	17.18309	-12.83744	0	0
1.662279	-0.06042635	-0.1036407	0.3591417	-0.269364	-18.00435	13.35202	0	0
1.678847	-0.05176949	-0.1100848	0.5225213	-0.3889591	4.930895	-3.60945	0	0
1.695413	-0.04378778	-0.1160747	0.4818012	-0.3615699	-1.228956	0.8266225	0	0
1.711991	-0.03443375	-0.1230613	0.5642368	-0.4214305	2.487148	-1.806046	0	0
1.728546	-0.02825564	-0.1276446	0.3731992	-0.2768603	-5.765837	4.363374	0	0
1.745518	-0.02183863	-0.1324533	0.3780894	-0.2833323	0.1458602	-0.1930419	0	0
1.761679	-0.01857681	-0.1349007	0.201829	-0.1514373	-5.319703	3.980716	0	0
1.778246	-0.01857681	-0.1349007	0	0	-6.166845	4.627136	0	0
1.794811	-0.01865573	-0.1348415	-0.00476446	0.003575875	-0.1438062	0.107931	0	0
1.811377	-0.01865573	-0.1348415	0	0	0.1438062	-0.107931	0	0
1.827943	-0.01873465	-0.1347823	-0.004764014	0.00357644	-0.143786	0.107943	0	0
1.84451	-0.01897141	-0.1346046	-0.0142911	0.01072698	-0.2875435	0.2158154	0	0
1.861079	-0.01899771	-0.1345848	-0.001587705	0.00119165	0.3833781	-0.2877686	0	0
1.877646	-0.01902402	-0.1346046	-0.001587853	-0.001191761	-4.482948E-06	-0.07192863	0	0
1.912126	-0.01907663	-0.1345651	-0.001525879	0.001145247	0.001214054	0.04578141	0	0
1.928512	-0.01912924	-0.1345256	-0.00321066	0.002409757	-0.03312147	0.02485928	0	0
1.945081	-0.01931339	-0.1343874	-0.01111417	0.008341728	-0.239827	0.1800019	0	0
1.961669	-0.01939231	-0.1343282	-0.004757534	0.003569863	0.1917168	-0.1439199	0	0
1.978215	-0.01941861	-0.1343084	-0.001589901	0.001193298	0.09560109	-0.07172617	0	0
1.994779	-0.01941861	-0.1343084	0	0	0.04801906	-0.03604065	0	0
2.011696	-0.01944492	-0.1342887	-0.001554837	0.001167064	-0.04643839	0.03485674	0	0
2.027913	-0.01941861	-0.1343084	0.001622091	-0.001217544	0.09588125	-0.07196865	0	0
2.044479	-0.01944492	-0.1342887	-0.001587821	0.001191821	-0.09791522	0.07349536	0	0
2.061046	-0.01952383	-0.1342294	-0.004763456	0.003575206	-0.09584294	0.07193225	0	0
2.094179	-0.02065496	-0.1333807	-0.03413957	0.02561669	-0.5910712	0.4434926	0	0
2.110745	-0.02189124	-0.1324533	-0.07462645	0.05597961	-0.8146484	0.6109413	0	0
2.127312	-0.02402169	-0.1308559	-0.1285945	0.09641953	-1.628806	1.220514	0	0
2.143878	-0.02396909	-0.1308954	0.003175191	-0.002380944	3.976931	-2.98189	0	0
2.160809	-0.02396909	-0.1308954	0	0	-0.09479073	0.07107962	0	0
2.177014	-0.02396909	-0.1308954	0	0	0	0	0	0
2.193578	-0.02394279	-0.1309151	0.001587779	-0.001190159	0.04845303	-0.03631918	0	0
2.210145	-0.02391649	-0.1309348	0.00158755	-0.001189988	-6.897541E-06	5.172277E-06	0	0
2.226712	-0.02389019	-0.1309545	0.00158755	-0.001189988	0	0	0	0
2.243279	-0.02389019	-0.1309545	0	0	-0.04791373	0.03591494	0	0
2.259873	-0.02386389	-0.1309742	0.001585016	-0.001188005	0.04779737	-0.03582518	0	0
2.276414	-0.02383759	-0.1309939	0.001590044	-0.001191858	0.0001517379	-0.0001162777	0	0
2.293395	-0.02381129	-0.1310136	0.001548811	-0.00116095	-0.001230047	0.0009220115	0	0
2.309546	-0.02378499	-0.1310334	0.001628445	-0.001220642	0.00240356	-0.001801649	0	0
2.326419	-0.02378499	-0.1310334	0	0	-0.04931085	0.03696219	0	0
2.342679	-0.02378499	-0.1310334	0	0	0	0	0	0
2.359443	-0.02378499	-0.1310334	0	0	0	0	0	0
2.375814	-0.02378499	-0.1310334	0	0	0	0	0	0
2.39238	-0.02378499	-0.1310334	0	0	0	0	0	0
2.408945	-0.02378499	-0.1310334	0	0	0	0	0	0
2.425513	-0.02378499	-0.1310334	0	0	0	0	0	0
2.442079	-0.02378499	-0.1310334	0	0	0	0	0	0
2.458646	-0.02378499	-0.1310334	0	0	0	0	0	0
2.475214	-0.02378499	-0.1310334	0	0	0	0	0	0
2.491778	-0.02378499	-0.1310334	0	0	0	0	0	0
2.558045	-0.02375869	-0.1310531	0.0003968875	-0.000297497	0.004791539	-0.003591618	0	0
2.591179	-0.02375869	-0.1310531	0	0	-0.003992811	0.002992911	0	0
2.608116	-0.02375869	-0.1310531	0	0	0	0	0	0
2.642641	-0.02375869	-0.1310531	0	0	0	0	0	0
2.659162	-0.02375869	-0.1310531	0	0	0	0	0	0
2.67573	-0.02375869	-0.1310531	0	0	0	0	0	0
2.692298	-0.02375869	-0.1310531	0	0	0	0	0	0
2.708864	-0.02375869	-0.1310531	0	0	0	0	0	0
2.725431	-0.02375869	-0.1310531	0	0	0	0	0	0
2.741996	-0.02375869	-0.1310531	0	0	0	0	0	0
2.758563	-0.02375869	-0.1310531	0	0	0	0	0	0
2.775132	-0.02375869	-0.1310531	0	0	0	0	0	0
2.791699	-0.02375869	-0.1310531	0	0	0	0	0	0
2.808263	-0.02375869	-0.1310531	0	0	0	0	0	0
2.824829	-0.02375869	-0.1310531	0	0	0	0	0	0
2.841397	-0.02375869	-0.1310531	0	0	0	0	0	0
2.857963	-0.02375869	-0.1310531	0	0	0	0	0	0
2.874532	-0.02375869	-0.1310531	0	0	0	0	0	0
2.891098	-0.02375869	-0.1310531	0	0	0	0	0	0
2.907831	-0.02375869	-0.1310531	0	0	0	0	0	0
2.92434	-0.02375869	-0.1310531	0	0	0	0	0	0
2.940798	-0.02375869	-0.1310531	0	0	0	0	0	0
2.957364	-0.02375869	-0.1310531	0	0	0	0	0	0
2.973931	-0.02375869	-0.1310531	0	0	0	0	0	0
2.990497	-0.02375869	-0.1310531	0	0	0	0	0	0
3.007063	-0.02375869	-0.1310531	0	0	0	0	0	0
3.02363	-0.02375869	-0.1310531	0	0	0	0	0	0
3.040196	-0.02375869	-0.1310531	0	0	0	0	0	0
3.056763	-0.02375869	-0.1310531	0	0	0	0	0	0
3.073447	-0.02375869	-0.1310531	0	0	0	0	0	0
3.089961	-0.02375869	-0.1310531	0	0	0	0	0	0
3.106466	-0.02375869	-0.1310531	0	0	0	0	0	0
3.12303	-0.02375869	-0.1310531	0	0	0	0	0	0
3.139596	-0.02375869	-0.1310531	0	0	0	0	0	0
3.156166	-0.02375869	-0.1310531	0	0	0	0	0	0
3.172732	-0.02375869	-0.1310531	0	0	0	0	0	0
3.189298	-0.02375869	-0.1310531	0	0	0	0	0	0
3.206052	-0.02375869	-0.1310531	0	0	0	0	0	0
3.22243	-0.02373238	-0.1310728	0.001605967	-0.001203708	0.04847202	-0.03633085	0	0
3.238997	-0.02375869	-0.1310925	-0.001587617	-0.001190853	-0.09693637	0.0003901847	0	0
3.255577	-0.02373238	-0.1311122	0.001586384	-0.00118903	0.09575433	5.500935E-05	0	0
3.27213	-0.02373238	-0.1311122	0	0	-0.04787923	0.03588654	0	0
3.305265	-0.02367978	-0.1311517	0.001587493	-0.001189945	0.03194946	-0.02394852	0	0
3.32183	-0.02365348	-0.1311714	0.00158771	-0.001190108	4.368522E-06	-3.272292E-06	0	0
3.356608	-0.02365348	-0.1311714	0	0	-0.03092347	0.02317946	0	0
3.373175	-0.02365348	-0.1311714	0	0	0	0	0	0
3.389743	-0.02365348	-0.1311714	0	0	0	0	0	0
3.406685	-0.02362718	-0.1311911	0.001552517	-0.001163646	0.04633033	-0.0347256	0	0
3.422876	-0.02362718	-0.1311911	0	0	-0.04685809	0.03512117	0	0
3.439706	-0.02362718	-0.1311911	0	0	0	0	0	0
3.456218	-0.02362718	-0.1311911	0	0	0	0	0	0
3.472575	-0.02362718	-0.1311911	0	0	0	0	0	0
3.489143	-0.02362718	-0.1311911	0	0	0	0	0	0
3.506256	-0.02362718	-0.1311911	0	0	0	0	0	0
3.522275	-0.02362718	-0.1311911	0	0	0	0	0	0
3.538842	-0.02362718	-0.1311911	0	0	0	0	0	0
3.555408	-0.02365348	-0.1312108	-0.001587708	-0.001190922	-0.0479192	-0.03594364	0	0
3.571975	-0.02365348	-0.1312108	0	0	0.0479192	0.03594364	0	0
3.588542	-0.02365348	-0.1312108	0	0	0	0	0	0
3.605325	-0.02365348	-0.1312108	0	0	0	0	0	0
3.621677	-0.02365348	-0.1312108	0	0	0	0	0	0
3.638242	-0.02365348	-0.1312108	0	0	0	0	0	0
3.654809	-0.02365348	-0.1312108	0	0	0	0	0	0
3.671376	-0.02365348	-0.1312108	0	0	0	0	0	0
3.687943	-0.02365348	-0.1312108	0	0	0	0	0	0
3.70451	-0.02365348	-0.1312108	0	0	0	0	0	0
3.721078	-0.02365348	-0.1312108	0	0	0	0	0	0
3.737917	-0.02365348	-0.1312108	0	0	0	0	0	0
3.754429	-0.02365348	-0.1312108	0	0	0	0	0	0
3.770776	-0.02365348	-0.1312108	0	0	0	0	0	0
3.787344	-0.02365348	-0.1312108	0	0	0	0	0	0
3.803967	-0.02365348	-0.1312108	0	0	0	0	0	0
3.820478	-0.02365348	-0.1312108	0	0	0	0	0	0
3.837043	-0.02365348	-0.1312108	0	0	0	0	0	0
3.853609	-0.02365348	-0.1312108	0	0	0	0	0	0
3.870176	-0.02365348	-0.1312108	0	0	0	0	0	0
3.886743	-0.02365348	-0.1312108	0	0	0	0	0	0
3.90331	-0.02365348	-0.1312108	0	0	0	0	0	0
3.919877	-0.02367978	-0.1311911	-0.001587504	0.001190853	-0.04791063	0.03593976	0	0
3.936557	-0.02367978	-0.1311911	0	0	0.04774847	-0.03581811	0	0
3.953068	-0.02367978	-0.1311911	0	0	0	0	0	0
3.96958	-0.02367978	-0.1311911	0	0	0	0	0	0
3.986142	-0.02367978	-0.1311911	0	0	0	0	0	0
4.00271	-0.02367978	-0.1311911	0	0	0	0	0	0
4.019276	-0.02367978	-0.1311911	0	0	0	0	0	0
4.052409	-0.02367978	-0.1311911	0	0	0	0	0	0
4.085664	-0.02367978	-0.1311911	0	0	0	0	0	0
4.118676	-0.02367978	-0.1311517	0	0.001194371	0	0.01802374	0	0
4.135243	-0.02367978	-0.1311517	0	0	0	-0.02409019	0	0
4.151809	-0.02367978	-0.1311517	0	0	0	0	0	0
4.168378	-0.02367978	-0.1311517	0	0	0	0	0	0
4.184943	-0.02365348	-0.1311714	0.001587779	-0.001190159	0.04792063	-0.03592011	0	0
4.201509	-0.02365348	-0.1311714	0	0	-0.04792477	0.03592321	0	0
4.218077	-0.02365348	-0.1311714	0	0	0	0	0	0
4.23477	-0.02365348	-0.1311714	0	0	0	0	0	0
4.251279	-0.02362718	-0.1311911	0.001593211	-0.001194147	0.04798584	-0.03596644	0	0
4.267791	-0.02362718	-0.1311911	0	0	-0.04824846	0.03616328	0	0
4.284342	-0.02360088	-0.1312108	0.001589059	-0.00119202	0.04806165	-0.03605305	0	0
4.300908	-0.02360088	-0.1312108	0	0	-0.04798277	0.03599387	0	0
4.334044	-0.02346937	-0.1313094	0.003968759	-0.002975248	0.07985159	-0.05986211	0	0
4.350608	-0.02325896	-0.1314671	0.01270257	-0.009523072	0.1757313	-0.1317475	0	0
4.367174	-0.02310115	-0.1315855	0.009526024	-0.007142832	-0.09587926	0.07184408	0	0
4.383742	-0.02310115	-0.1315855	0	0	-0.2875001	0.2155742	0	0
4.400385	-0.02312746	-0.1315657	-0.001580339	0.001185394	-0.04758448	0.03569257	0	0
4.416898	-0.02315376	-0.131546	-0.00159273	0.001193871	-0.0003737177	0.000255657	0	0
4.433443	-0.02315376	-0.1315066	0	0.002384032	0.04818033	0.03600254	0	0
4.450008	-0.02312746	-0.1313686	0.001587733	0.008332673	0.04795376	0.1796648	0	0
4.466576	-0.02310115	-0.13127	0.001587571	0.005951396	-4.880423E-06	-0.07187124	0	0
4.483142	-0.02289074	-0.1309939	0.01270107	0.01666163	0.3354062	0.3232355	0	0
4.499708	-0.02273292	-0.1307968	0.009526411	0.01190146	-0.09581705	-0.1436704	0	0
4.516276	-0.02268032	-0.1307179	0.003174938	0.004758641	-0.1916906	-0.2155739	0	0
4.532843	-0.02257511	-0.1304814	0.006350833	0.01427937	0.09584868	0.2873361	0	0
4.549489	-0.02254881	-0.1302646	0.001580022	0.01302419	-0.1436423	-0.03779155	0	0
4.565977	-0.02257511	-0.1293778	-0.001595331	0.0537864	-0.09583373	1.230224	0	0
4.582543	-0.02339047	-0.1277036	-0.04921652	0.1010563	-1.440714	1.430087	0	0
4.599109	-0.02920222	-0.1187611	-0.3508284	0.5398192	-9.103188	13.24265	0	0
4.615675	-0.03401319	-0.1013404	-0.2904158	1.051605	1.823412	15.44706	0	0
4.648814	-0.03511713	-0.08003073	-0.03331222	0.6430342	5.172587	-8.219911	0	0
4.665378	-0.03509085	-0.07167306	0.0015867	0.5045719	0.7021475	-2.785788	0	0
4.682091	-0.03524855	-0.06620496	-0.009435897	0.327183	-0.3312421	-5.330745	0	0
4.698602	-0.03430233	-0.05595187	0.05730882	0.6209866	2.008953	8.843211	0	0
4.715075	-0.03206795	-0.04487566	0.1356324	0.6723544	2.37454	1.557321	0	0
4.73164	-0.03012246	-0.0367146	0.1174501	0.4926877	-0.5503436	-5.438161	0	0
4.748209	-0.02796639	-0.02458981	0.1301296	0.7317902	0.3826858	7.216442	0	0
4.764774	-0.02694085	-0.01464777	0.061909	0.6001724	-2.058931	-3.972291	0	0
4.781651	-0.0265201	-0.01147285	0.02492948	0.1881136	-1.105749	-12.32124	0	0
4.797906	-0.0246266	0.003302741	0.1164912	0.9090196	2.763538	21.75855	0	0
4.814675	-0.02168081	0.01261699	0.1756643	0.5554308	1.791829	-10.70708	0	0
4.831192	-0.01978689	0.01936159	0.1146672	0.4083507	-1.832509	-4.418666	0	0
4.8477	-0.01757714	0.02515909	0.1338587	0.3511913	0.5811224	-1.730803	0	0
4.864173	-0.01728775	0.03264456	0.01756699	0.4544005	-3.525979	3.129318	0	0
4.880741	-0.01620911	0.03758291	0.06510713	0.2980793	1.438843	-4.731196	0	0
4.897307	-0.01673528	0.04465291	-0.03176169	0.4267707	-2.923591	3.884024	0	0
4.913873	-0.01652481	0.04862864	0.01270459	0.2399889	1.342072	-5.637409	0	0
4.930758	-0.01623541	0.05565972	0.01713903	0.4164029	0.132563	5.273714	0	0
4.947008	-0.01547245	0.0661552	0.04695272	0.6458893	0.899766	6.925816	0	0
4.963573	-0.0150515	0.07391217	0.02541176	0.468266	-0.6564366	-5.412872	0	0
4.980141	-0.01370967	0.08255719	0.08099058	0.5217994	1.677444	1.615711	0	0
4.996806	-0.01294664	0.08732386	0.04578597	0.2860288	-1.059337	-7.094539	0	0
5.013273	-0.008762933	0.09046812	0.2540649	0.1909423	6.286325	-2.869925	0	0
5.029841	-0.007841945	0.09114817	0.05558938	0.04104637	-6.008075	-4.537514	0	0
5.046408	-0.006368335	0.09221397	0.08894727	0.06433215	1.006729	0.702756	0	0
5.062973	-0.006368335	0.09221397	0	0	-2.684588	-1.94166	0	0
5.079541	-0.006473594	0.09236096	-0.006353263	0.00887178	-0.1917501	0.2677624	0	0
5.096107	-0.007131458	0.09304072	-0.03971335	0.04103519	-1.006853	0.9707356	0	0
5.112885	-0.01149949	0.09869525	-0.2603284	0.3370014	-6.61628	8.876076	0	0
5.129241	-0.01186786	0.1066146	-0.02252272	0.4841996	7.176988	4.44245	0	0
5.145807	-0.01063118	0.1150509	0.07465293	0.5092627	2.951755	0.761304	0	0
5.162376	-0.009210266	0.1202044	0.08575656	0.311026	0.3351034	-5.98271	0	0
5.178942	-0.003894717	0.1293651	0.3208656	0.5529771	7.095401	7.30189	0	0
5.195507	-0.00347367	0.1306412	0.02541883	0.0770392	-8.917628	-14.36549	0	0
5.212073	-0.003447355	0.130623	0.001588495	-0.001100073	-0.7192839	-2.358519	0	0
5.22864	-0.003447355	0.130623	0	0	-0.04794295	0.03320172	0	0
5.245482	-0.003394724	0.1305866	0.003124912	-0.002164081	0.09353469	-0.06477516	0	0
5.261992	-0.003394724	0.1305866	0	0	-0.09369516	0.06488629	0	0
5.278503	-0.003394724	0.1305866	0	0	0	0	0	0
5.294906	-0.003394724	0.1305866	0	0	0	0	0	0
5.311525	-0.003421039	0.1306048	-0.001583436	0.00109657	-0.04795036	0.03320685	0	0
5.328039	-0.003394724	0.130623	0.001593541	0.001103568	0.09588549	0.0002111974	0	0
5.361174	-0.003394724	0.130623	0	0	-0.03209628	-0.02222749	0	0
5.377739	-0.003342093	0.1306959	0.003177187	0.004401446	0.06392698	0.08855982	0	0
5.394306	-0.002210523	0.1315161	0.06830563	0.0495087	1.96575	1.361457	0	0
5.411095	0.002763151	0.1349959	0.2962467	0.2072668	6.833742	4.729635	0	0
5.427439	0.01042068	0.1404024	0.46852	0.3307908	5.199443	3.728124	0	0
5.444121	0.0158934	0.144331	0.3280492	0.2354924	-4.25325	-2.885497	0	0
5.460632	0.01883988	0.1465124	0.178461	0.13212	-4.506606	-3.114272	0	0
5.477142	0.02604674	0.1523252	0.4365022	0.3520713	7.814466	6.660956	0	0
5.493705	0.02859746	0.1552476	0.154002	0.1764413	-8.54161	-5.310306	0	0
5.510666	0.03212053	0.1590935	0.2077144	0.2267483	1.602208	1.500626	0	0
5.526839	0.03853355	0.1635894	0.3965408	0.2779947	5.698956	1.546664	0	0
5.543692	0.04378778	0.1672489	0.3117622	0.2171382	-2.567048	-1.842701	0	0
5.559974	0.04890833	0.1709243	0.3144901	0.2257365	0.08232659	0.2594924	0	0
5.57688	0.05544312	0.1759362	0.3865305	0.2964524	2.170653	2.130743	0	0
5.610015	0.05730561	0.1881335	0.05621002	0.3681153	-6.601033	1.432092	0	0
5.626581	0.05583664	0.1934755	-0.08867239	0.3224636	-2.915096	-0.9185305	0	0
5.64326	0.05651869	0.1994987	0.04089217	0.3611149	3.897198	1.162599	0	0
5.659771	0.0563613	0.2022742	-0.009532441	0.1681016	-1.51926	-5.81536	0	0
5.676284	0.05835472	0.2078943	0.120723	0.340356	3.944342	5.216137	0	0
5.69285	0.05977083	0.2092267	0.08548101	0.08042859	-1.065398	-7.857855	0	0
5.709415	0.06265473	0.2127187	0.1740976	0.2108077	2.674723	3.935247	0	0
5.725982	0.06294306	0.2182777	0.01740458	0.3355505	-4.729413	3.765069	0	0
5.742549	0.06493489	0.220903	0.1202237	0.1584616	3.103087	-5.344553	0	0
5.759116	0.06524935	0.2210109	0.01898144	0.006511391	-3.055541	-4.585934	0	0
5.775681	0.06524935	0.2210109	0	0	-0.5729021	-0.1965283	0	0
5.792367	0.06519694	0.2210469	-0.003140807	0.002154895	-0.09445535	0.06480545	0	0
5.808815	0.06509212	0.2211547	-0.006372855	0.006558586	-0.09754761	0.1329094	0	0
5.825389	0.06480387	0.2213525	-0.01739163	0.01193216	-0.3336854	0.1627299	0	0
5.842401	0.06454181	0.2215323	-0.01540427	0.01056791	0.0591714	-0.0406191	0	0
5.858516	0.0641225	0.2218199	-0.0260204	0.01784935	-0.3204692	0.2198049	0	0
5.875083	0.06176345	0.2234377	-0.1423926	0.09765086	-3.56075	2.441761	0	0
5.891648	0.05853831	0.2256483	-0.1946923	0.133444	-1.578497	1.080301	0	0
5.908446	0.0577515	0.2261873	-0.0468393	0.03209095	4.4316	-3.037856	0	0
5.924782	0.05777773	0.2261694	0.001605464	-0.001099196	1.462108	-1.001709	0	0
5.941471	0.05777773	0.2261694	0	0	-0.04861462	0.03328444	0	0
6.040749	0.05785641	0.2260436	0.0007925747	-0.001266949	0.006834468	-0.01092505	0	0
6.057317	0.05785641	0.2260436	0	0	-0.006841614	0.01093648	0	0
6.073884	0.05785641	0.2260436	0	0	0	0	0	0
6.090449	0.05785641	0.2260436	0	0	0	0	0	0
6.107088	0.05785641	0.2260436	0	0	0	0	0	0
6.1236	0.05785641	0.2260436	0	0	0	0	0	0
6.140149	0.05783018	0.2260256	-0.001584966	-0.001085907	-0.0479406	-0.03284554	0	0
6.156718	0.05783018	0.2260256	0	0	0.04785846	0.03278926	0	0
6.173285	0.05783018	0.2259897	0	-0.002169502	0	-0.06547381	0	0
6.189849	0.05777773	0.2259537	-0.003166695	-0.002169752	-0.0955793	-7.540453E-06	0	0
6.206659	0.05777773	0.2259178	0	-0.002138116	0.09488285	0.0009478902	0	0
6.222982	0.05777773	0.2258819	0	-0.002200974	0	-0.001897147	0	0
6.239551	0.05777773	0.225774	0	-0.006507756	0	-0.1309381	0	0
6.272685	0.0577515	0.2255404	-0.0007915263	-0.007050431	-0.01592539	-0.01091853	0	0
6.28925	0.05762036	0.2253428	-0.007916622	-0.01193239	-0.1433655	-0.09823088	0	0
6.305818	0.0575679	0.2252709	-0.003166373	-0.004338754	0.143369	0.2291863	0	0
6.322384	0.05609897	0.2241566	-0.08866969	-0.06725919	-2.580533	-1.89897	0	0
6.338951	0.0546298	0.2230782	-0.08868198	-0.06509585	-0.0003708084	0.06529264	0	0
6.372217	0.05481346	0.2229165	0.005520878	-0.004862754	1.89036	1.208692	0	0
6.38879	0.05497088	0.2228086	0.009498858	-0.006508057	0.07981658	-0.03301235	0	0
6.40535	0.05541689	0.2224311	0.02693187	-0.02279459	0.526152	-0.4915499	0	0
6.42231	0.05583664	0.221748	0.02474925	-0.0402776	-0.06511259	-0.5215586	0	0
6.438483	0.05699085	0.2193027	0.07136934	-0.1511989	1.407078	-3.347805	0	0
6.455049	0.05295046	0.2100188	-0.2438927	-0.5604105	-9.629649	-12.49933	0	0
6.471617	0.04861955	0.1987235	-0.2614065	-0.6817663	-0.5285764	-3.662577	0	0
6.488361	0.04457572	0.1789017	-0.2415005	-1.183771	0.597558	-15.06965	0	0
6.504873	0.04305233	0.1675024	-0.09226006	-0.6903698	4.487553	14.83623	0	0
6.521386	0.0409245	0.1433491	-0.1288621	-1.462738	-1.108338	-23.38787	0	0
6.537894	0.03997869	0.1249875	-0.05729249	-1.112244	2.1674	10.6143	0	0
6.55445	0.03905907	0.1013732	-0.05554798	-1.42639	0.05276198	-9.501204	0	0
6.571018	0.03895397	0.08509761	-0.006343623	-0.9823118	1.485461	13.40656	0	0
6.587584	0.039243	0.07047874	0.01744764	-0.8824732	0.7180218	3.013137	0	0
6.604149	0.03919045	0.05293413	-0.003172451	-1.059117	-0.6223782	-5.331646	0	0
6.620716	0.0390328	0.04115678	-0.009516081	-0.7109024	-0.1914649	10.50988	0	0
6.637283	0.03874376	0.02988364	-0.01744686	-0.6804677	-0.2393583	0.9185483	0	0
6.653978	0.03632612	0.01567241	-0.144808	-0.8512015	-3.829	-5.13296	0	0
6.670488	0.03535368	0.01231692	-0.05890142	-0.2032454	2.587157	19.51379	0	0
6.769818	-0.02168081	-0.03974381	-0.5741923	-0.5241192	-4.448318	-2.769986	0	0
6.78657	-0.02644121	-0.0431577	-0.2841725	-0.203793	2.498411	2.759488	0	0
6.80295	-0.03301432	-0.04785581	-0.4012695	-0.2868063	-3.534198	-2.505489	0	0
6.819591	-0.04226429	-0.05451476	-0.5558657	-0.4001611	-4.68169	-3.432762	0	0
6.836083	-0.04536359	-0.05677614	-0.1879235	-0.1371166	11.105	7.939039	0	0
6.85265	-0.04940713	-0.05969172	-0.2440823	-0.1759949	-1.698761	-1.176038	0	0
6.869218	-0.04930212	-0.05961495	0.00633796	0.004633177	7.557698	5.451365	0	0
6.886139	-0.04924962	-0.05957657	0.003102896	0.00226828	-0.09660012	-0.07061665	0	0
6.90235	-0.04922336	-0.05955738	0.001619351	0.001183893	-0.04477607	-0.03272875	0	0
6.919162	-0.04922336	-0.05955738	0	0	-0.04903723	-0.03585069	0	0
6.935673	-0.04919711	-0.05949981	0.001589935	0.003486486	0.04771312	0.1046276	0	0
6.952185	-0.04917086	-0.05932711	0.001589889	0.01045938	-1.39247E-06	0.2111505	0	0
6.968698	-0.04922336	-0.05925035	-0.003179687	0.00464838	-0.1444262	-0.1759614	0	0
6.985212	-0.04930212	-0.05907766	-0.004768979	0.01045697	-0.04812145	0.1758756	0	0
7.001751	-0.04993214	-0.05842538	-0.03809196	0.03943774	-1.008142	0.8767738	0	0
7.018317	-0.05253058	-0.05637356	-0.1568597	0.1238623	-3.587618	2.550214	0	0
7.034882	-0.0548397	-0.05461054	-0.1393949	0.1064281	0.527149	-0.5262256	0	0
7.051449	-0.0618421	-0.04950001	-0.4226656	0.3084725	-8.54962	6.098064	0	0
7.068016	-0.06501351	-0.04722514	-0.1914327	0.137315	6.978724	-5.16562	0	0
7.103974	-0.07308014	-0.04134537	-0.224336	0.1635186	-0.6264369	0.4988831	0	0
7.120539	-0.07480751	-0.04012505	-0.104276	0.07366711	2.285851	-1.710703	0	0
7.137106	-0.07480751	-0.04012505	0	0	3.147281	-2.223438	0	0
7.153673	-0.07480751	-0.04012505	0	0	0	0	0	0
7.170346	-0.07480751	-0.04012505	0	0	0	0	0	0
7.186853	-0.07480751	-0.04012505	0	0	0	0	0	0
7.203374	-0.07480751	-0.04012505	0	0	0	0	0	0
7.21994	-0.07480751	-0.04012505	0	0	0	0	0	0
7.236506	-0.07480751	-0.04012505	0	0	0	0	0	0
7.253073	-0.07480751	-0.04012505	0	0	0	0	0	0
7.269639	-0.07480751	-0.04012505	0	0	0	0	0	0
7.286207	-0.07480751	-0.04012505	0	0	0	0	0	0
7.302774	-0.07480751	-0.04012505	0	0	0	0	0	0
7.319447	-0.07480751	-0.04012505	0	0	0	0	0	0
7.335906	-0.07480751	-0.04012505	0	0	0	0	0	0
7.352473	-0.07480751	-0.04012505	0	0	0	0	0	0
7.36904	-0.07480751	-0.04012505	0	0	0	0	0	0
7.385607	-0.07475517	-0.04012505	0.003159177	0	0.09534416	0	0	0
7.402174	-0.07475517	-0.04012505	0	0	-0.09534553	0	0	0
7.418739	-0.07475517	-0.04012505	0	0	0	0	0	0
7.435306	-0.074729	-0.04010599	0.001579409	0.001150603	0.04766941	0.03472728	0	0
7.452038	-0.07470284	-0.04008693	0.001563836	0.001139481	-0.0004676792	-0.0003340197	0	0
7.46844	-0.0746505	-0.0400488	0.003191232	0.002324489	0.04911633	0.03576465	0	0
7.485062	-0.07457199	-0.04002974	0.00472291	0.001146775	0.04638097	-0.03566255	0	0
7.501575	-0.07454582	-0.04001068	0.00158506	0.001154391	-0.09469777	0.000229859	0	0
7.518139	-0.07410092	-0.03972474	0.02685864	0.01726181	0.7640778	0.4869637	0	0
7.534706	-0.07370833	-0.03943884	0.0236979	0.01725802	-0.0954024	-0.0001142977	0	0
7.551273	-0.07310633	-0.03907674	0.03633616	0.02185611	0.381429	0.1387727	0	0
7.56784	-0.07255661	-0.03871468	0.03318255	0.0218553	-0.09517765	-2.450998E-05	0	0
7.584406	-0.07114289	-0.0376859	0.08533754	0.06210063	1.574131	1.214676	0	0
7.601147	-0.06671663	-0.03446847	0.2643998	0.1921911	5.376101	3.905791	0	0
7.617539	-0.06053123	-0.02994316	0.3773264	0.2760563	3.408231	2.531131	0	0
7.634106	-0.05090336	-0.02297802	0.581156	0.4204285	6.18425	4.380293	0	0
7.650681	-0.04623019	-0.01960542	0.2819429	0.2034772	-9.028318	-6.546189	0	0
7.66724	-0.03467031	-0.01128397	0.6981175	0.5025442	12.56053	9.026118	0	0
7.683807	-0.03277773	-0.009924323	0.1142332	0.08206582	-17.62598	-12.69317	0	0
7.71694	-0.01986581	-0.0007050184	0.3896994	0.2782512	5.542499	3.947333	0	0
7.783206	-0.006289391	0.008883077	0.2048803	0.144693	-1.859382	-1.343669	0	0
7.799774	-0.006263076	0.008864303	0.001588239	-0.001133079	-2.454218	-1.760466	0	0
7.833307	-0.006236761	0.008770433	0.0007847328	-0.00279932	-0.01603748	-0.03325714	0	0
7.84982	-0.006210446	0.008714111	0.001593604	-0.003410834	0.01616257	-0.01221905	0	0
7.866039	-0.006210446	0.008639012	0	-0.00463041	-0.04868713	-0.03725997	0	0
7.882606	-0.006210446	0.008601462	0	-0.002266587	0	0.07209982	0	0
7.899173	-0.006157817	0.00852636	0.003176632	-0.004533026	0.09587093	-0.06840126	0	0
7.915869	-0.006157817	0.008488809	0	-0.002249165	-0.09549987	0.0686603	0	0
7.932306	-0.006105187	0.008301046	0.003201882	-0.01142315	0.09663855	-0.2768875	0	0
7.948889	-0.006078872	0.008244715	0.001586823	-0.003396825	-0.04891081	0.2430711	0	0
7.965439	-0.006105187	0.008150828	-0.001590069	-0.005673049	-0.09588292	-0.06869957	0	0
7.982005	-0.006157817	0.008075717	-0.003176906	-0.00453398	-0.04791773	0.03439649	0	0
7.998571	-0.006210446	0.007963046	-0.003176906	-0.006801195	0	-0.06842862	0	0
8.015139	-0.006315705	0.007812814	-0.006353446	-0.009068056	-0.09587093	-0.06841597	0	0
8.031706	-0.006499908	0.007643795	-0.01111852	-0.01020202	-0.1438101	-0.03422311	0	0
8.048461	-0.007447231	0.006967633	-0.05653932	-0.04035559	-1.363074	-0.9049057	0	0
8.06484	-0.009183953	0.005727652	-0.1060311	-0.07570387	-1.493666	-1.066813	0	0
8.081487	-0.009289207	0.005652487	-0.006322955	-0.004515378	3.019105	2.155545	0	0
8.097998	-0.009289207	0.005652487	0	0	0.1906954	0.1361803	0	0
8.115007	-0.009289207	0.005652487	0	0	0	0	0	0
8.131107	-0.009289207	0.005652487	0	0	0	0	0	0
8.147674	-0.00931552	0.005633696	-0.001588327	-0.001134338	-0.04862292	-0.03472513	0	0
8.164563	-0.00931552	0.005633696	0	0	0.0474753	0.03390553	0	0
8.180808	-0.00931552	0.005633696	0	0	0	0	0	0
8.197372	-0.00931552	0.005633696	0	0	0	0	0	0
8.213941	-0.00931552	0.005633696	0	0	0	0	0	0
8.230593	-0.00931552	0.005633696	0	0	0	0	0	0
8.247073	-0.009289207	0.005614904	0.001596599	-0.001140218	0.04818821	-0.03441382	0	0
8.263638	-0.009262893	0.005596112	0.001588474	-0.001134404	-0.0002458527	0.0001759418	0	0
8.280205	-0.009262893	0.005596112	0	0	-0.04794439	0.03423932	0	0
8.296772	-0.009262893	0.005596112	0	0	0	0	0	0
8.329906	-0.00931552	0.005596112	-0.001588263	0	-0.03195592	0	0	0
8.346669	-0.009368147	0.005558528	-0.003139534	-0.002242116	-0.03108934	-0.04493471	0	0
8.363038	-0.009368147	0.005558528	0	0	0.09475952	0.06767303	0	0
8.379698	-0.009420774	0.005520944	-0.003158944	-0.002255977	-0.09564268	-0.06830375	0	0
8.396204	-0.009420774	0.005520944	0	0	0.09524665	0.06802092	0	0
8.412739	-0.009447088	0.005426982	-0.001591406	-0.005682684	-0.04816458	-0.1719888	0	0
8.429306	-0.00939446	0.005276638	0.003176583	-0.00907483	0.1440391	-0.1024755	0	0
8.44624	-0.00931552	0.005069903	0.004661564	-0.01220799	0.04432564	-0.09352271	0	0
8.46275	-0.009183953	0.004863155	0.007968924	-0.01252259	0.09889129	-0.009406456	0	0
8.479264	-0.007631431	0.003377958	0.09401346	-0.08993656	2.605528	-2.344185	0	0
8.495774	-0.006131502	0.001967354	0.09084965	-0.0854393	-0.09580398	0.1361822	0	0
8.512137	-0.006841999	0.001384131	-0.04342052	-0.03564248	-4.084493	1.514817	0	0
8.528705	-0.01620911	-0.005245451	-0.5653998	-0.4001624	-15.851	-11.06941	0	0
8.54532	-0.02099691	-0.008640739	-0.2881632	-0.2043518	8.354993	5.901083	0	0
8.561836	-0.02557337	-0.01192622	-0.2770809	-0.1989188	0.334494	0.1639836	0	0
8.580432	-0.03795545	-0.02083657	-0.6658571	-0.4791619	-11.07234	-7.98132	0	0
8.597346	-0.04171263	-0.02354679	-0.2221299	-0.1602322	12.49582	8.98139	0	0
8.613857	-0.04856704	-0.0284995	-0.4151428	-0.2999647	-5.774451	-4.180437	0	0
8.630135	-0.05027339	-0.02977216	-0.10483	-0.07818622	9.464139	6.763958	0	0
8.64688	-0.05504959	-0.0332319	-0.2852214	-0.2066061	-5.462619	-3.888816	0	0
8.663392	-0.05617767	-0.03401183	-0.06831922	-0.0472344	6.521907	4.792056	0	0
8.679912	-0.05591534	-0.03363135	0.01588005	0.02303204	2.549062	2.127258	0	0
8.696418	-0.05591534	-0.03363135	0	0	-0.4808386	-0.6973965	0	0
8.712967	-0.05594157	-0.03361233	-0.001585191	0.001149387	-0.04795571	0.03477163	0	0
8.729536	-0.05594157	-0.03361233	0	0	0.04786457	-0.03470555	0	0
8.746453	-0.05591534	-0.03363135	0.001550697	-0.001124376	0.04630831	-0.03357714	0	0
8.768659	-0.0558891	-0.03361233	0.001181404	0.0008566102	-0.009439377	0.05063538	0	0
8.785229	-0.0557317	-0.03349819	0.009499325	0.006888039	0.2145152	0.1555476	0	0
8.801793	-0.05549559	-0.03328896	0.01425402	0.01263161	0.1434971	0.1733413	0	0
8.818359	-0.05536442	-0.03319386	0.00791819	0.00574053	-0.1912378	-0.2079971	0	0
8.834929	-0.055207	-0.03307974	0.009500322	0.006887536	0.04774746	0.03461572	0	0
8.851493	-0.05512829	-0.03302268	0.004751641	0.003444535	-0.1433196	-0.103913	0	0
8.86806	-0.05510206	-0.03300367	0.001583682	0.001147905	-0.09561745	-0.06931841	0	0
8.884626	-0.05507582	-0.03302268	0.001583548	-0.001147971	-4.033524E-06	-0.06929167	0	0
8.901193	-0.05504959	-0.03300367	0.001583773	0.001147971	6.784807E-06	0.06929567	0	0
8.917759	-0.05494464	-0.03292759	0.006334867	0.004592109	0.1433966	0.1039503	0	0
8.934328	-0.05455109	-0.03264233	0.02375227	0.01721659	0.5256431	0.3809967	0	0
8.950893	-0.05368521	-0.03201484	0.05227066	0.03787938	0.8606869	0.6236042	0	0
8.967608	-0.0522419	-0.03096932	0.08634803	0.0625497	1.023948	0.7412874	0	0
8.984124	-0.05106084	-0.03011416	0.0715109	0.05177856	-0.4464873	-0.3241314	0	0
9.000636	-0.0510346	-0.03013316	0.001589438	-0.001150735	-2.117059	-1.602575	0	0
9.017161	-0.0510346	-0.03013316	0	0	-0.04811058	0.03483151	0	0
9.033731	-0.0510346	-0.03013316	0	0	0	0	0	0
9.050297	-0.0510346	-0.03013316	0	0	0	0	0	0
9.067185	-0.0510346	-0.03013316	0	0	0	0	0	0
9.083692	-0.05100835	-0.03011416	0.001590215	0.001151134	0.04761862	0.03447044	0	0
9.100204	-0.05090336	-0.03003816	0.006358429	0.004602941	0.1444121	0.1045428	0	0
9.116714	-0.05082461	-0.02998116	0.004769267	0.003452292	-0.04812308	-0.03484398	0	0
9.133226	-0.04998465	-0.0294112	0.05087037	0.03451765	1.396035	0.9407223	0	0
9.149696	-0.04930212	-0.02891733	0.04144063	0.02998629	-0.2859066	-0.1373894	0	0
9.166264	-0.04284219	-0.02432428	0.3899221	0.2772368	10.54816	7.484007	0	0
9.182828	-0.03535368	-0.01896162	0.4520853	0.323747	1.876251	1.403802	0	0
9.216243	-0.02638861	-0.01251191	0.2682962	0.1930192	-3.677312	-2.615644	0	0
9.232809	-0.02318006	-0.01020753	0.1936797	0.1391005	-1.492893	-1.078781	0	0
9.249377	-0.02215427	-0.009471236	0.06191315	0.04444054	-3.976723	-2.856844	0	0
9.265943	-0.02212797	-0.009490113	0.0015878	-0.001139548	-1.820675	-1.375649	0	0
9.282511	-0.02212797	-0.009490113	0	0	-0.04792126	0.03439261	0	0
9.299343	-0.02218057	-0.009565623	-0.003125221	-0.004486046	-0.093568	-0.1343106	0	0
9.315858	-0.02218057	-0.009641136	0	-0.004572424	0.09371785	-0.002590263	0	0
9.332209	-0.02218057	-0.00971665	0	-0.004618352	0	-0.001397457	0	0
9.348777	-0.02215427	-0.009924323	0.001587525	-0.01253449	0.0482253	-0.2404738	0	0
9.365392	-0.02207536	-0.01020753	0.004749293	-0.01704562	0.09528248	-0.1359465	0	0
9.38191	-0.02168081	-0.01052854	0.02388505	-0.01943287	0.5775349	-0.07204942	0	0
9.398475	-0.02125995	-0.01083069	0.02540749	-0.01824095	0.04601904	0.03602798	0	0
9.415041	-0.01563031	-0.01487467	0.3398257	-0.244109	9.490254	-6.817495	0	0
9.431607	-0.01084168	-0.01831795	0.2890587	-0.2078493	-1.532241	1.094381	0	0
9.448453	-0.004973643	-0.02254203	0.3483403	-0.250751	1.774263	-1.28402	0	0
9.46496	0.0002368421	-0.02629733	0.3156502	-0.227495	-0.9801293	0.6972714	0	0
9.481308	0.003526301	-0.02870841	0.2012162	-0.147486	-3.482999	2.435213	0	0
9.497988	0.006368335	-0.03076026	0.1703881	-0.1230144	-0.9334011	0.7409436	0	0
9.514442	0.006447279	-0.0308933	0.004797659	-0.008085081	-4.99753	3.468573	0	0
9.53101	0.006447279	-0.0308933	0	0	-0.1452871	0.2448398	0	0
9.547577	0.006263076	-0.03076026	-0.01111852	0.008030163	-0.3355575	0.2423508	0	0
9.564141	0.006210446	-0.03072225	-0.003177272	0.002294632	0.2396879	-0.1731136	0	0
9.580708	0.006052558	-0.03060823	-0.009530718	0.006882992	-0.1917695	0.1384929	0	0
9.597276	0.005920983	-0.03051321	-0.007941393	0.005735035	0.04796593	-0.03464541	0	0
9.614068	0.005789409	-0.03041819	-0.007835406	0.005658272	0.003177032	-0.002301012	0	0
9.630408	0.005736779	-0.03038019	-0.003220878	0.002325876	0.1392747	-0.1005777	0	0
9.646974	0.005710464	-0.03036118	-0.00158853	0.001147138	0.04960702	-0.03582184	0	0
9.663543	0.005710464	-0.03036118	0	0	0.04794194	-0.03462068	0	0
9.680123	0.005684149	-0.03034218	-0.001587097	0.001146082	-0.04787662	0.0345729	0	0
9.696674	0.005657834	-0.03032318	-0.001589932	0.001148129	-8.556623E-05	6.178885E-05	0	0
9.713241	0.005657834	-0.03032318	0	0	0.0480091	-0.03466856	0	0
9.730148	0.005657834	-0.03032318	0	0	0	0	0	0
9.746374	0.005657834	-0.03032318	0	0	0	0	0	0
9.762943	0.005631519	-0.03030417	-0.001588193	0.001146874	-0.04842797	0.03497104	0	0
9.779683	0.005631519	-0.03030417	0	0	0.04768061	-0.03443136	0	0
9.796075	0.005631519	-0.03030417	0	0	0	0	0	0
9.812711	0.005605204	-0.03028517	-0.00158182	0.001142159	-0.0478938	0.03458191	0	0
9.82922	0.00557889	-0.03026617	-0.001593973	0.001151047	-0.000366664	0.0002681578	0	0
9.845775	0.005552575	-0.03024717	-0.001589565	0.001147752	0.000133302	-9.966669E-05	0	0
9.862343	0.00552626	-0.03022817	-0.001588284	0.00114694	3.867153E-05	-2.452864E-05	0	0
9.878907	0.00552626	-0.03022817	0	0	0.04793727	-0.0346167	0	0
9.91224	0.00536837	-0.03034218	-0.004736769	-0.003420427	-0.09493058	-0.06854949	0	0
9.928806	0.005105219	-0.03057022	-0.01588473	-0.01376508	-0.22341	-0.2073115	0	0
9.945373	0.004947328	-0.03068424	-0.009530859	-0.006882992	0.1917712	0.2077139	0	0
9.962316	0.004210501	-0.03129245	-0.04348861	-0.03589711	-1.013384	-0.8658539	0	0
9.978507	0.00376314	-0.0316156	-0.02762942	-0.0199585	0.4786313	0.4810281	0	0
9.995072	0.0008947366	-0.03372646	-0.1731571	-0.1274265	-4.442671	-3.280784	0	0
10.01164	0.0008947366	-0.03372646	0	0	5.226193	3.845961	0	0
10.02836	0.0008947366	-0.03368842	0	0.002275267	0	0.068349	0	0
10.04477	0.0008684208	-0.0336694	-0.001603563	0.001159072	-0.04839842	-0.03368877	0	0
10.06141	0.0008947366	-0.03368842	0.001582141	-0.001143588	0.09640834	-0.06968495	0	0
10.07791	0.0008947366	-0.03368842	0	0	-0.04775048	0.03451454	0	0
10.0949	0.0008947366	-0.03368842	0	0	0	0	0	0
10.11104	0.0008684208	-0.03370744	-0.001630954	-0.001179102	-0.04922513	-0.0355874	0	0
10.1276	0.0008684208	-0.03370744	0	0	0.049874	0.0360565	0	0
10.14417	0.0008684208	-0.03370744	0	0	0	0	0	0
10.16096	0.0008684208	-0.03370744	0	0	0	0	0	0
10.17746	0.0008684208	-0.03370744	0	0	0	0	0	0
10.19387	0.0008684208	-0.03370744	0	0	0	0	0	0
10.21044	0.0008684208	-0.03370744	0	0	0	0	0	0
10.227	0.0008684208	-0.03370744	0	0	0	0	0	0
10.24357	0.0008684208	-0.03370744	0	0	0	0	0	0
10.26014	0.0008684208	-0.03370744	0	0	0	0	0	0
10.2767	0.0008684208	-0.03370744	0	0	0	0	0	0
10.29327	0.0008684208	-0.0336694	0	0.002296749	0	0.06931802	0	0
10.30984	0.0008684208	-0.0336694	0	0	0	-0.06932002	0	0
10.3264	0.0008684208	-0.0336694	0	0	0	0	0	0
10.34308	0.0008684208	-0.0336694	0	0	0	0	0	0
10.4258	0.0008421051	-0.03368842	-0.0003181091	-0.0002299331	-0.003200337	-0.002313242	0	0
10.44265	0.0008421051	-0.03368842	0	0	0.00319485	0.002309276	0	0
10.45893	0.0008421051	-0.03368842	0	0	0	0	0	0
10.47567	0.0008421051	-0.03368842	0	0	0	0	0	0
10.49207	0.0008421051	-0.03368842	0	0	0	0	0	0
10.50869	0.0008421051	-0.03368842	0	0	0	0	0	0
10.5252	0.0008421051	-0.03368842	0	0	0	0	0	0
10.54177	0.0008684208	-0.03370744	0.001588696	-0.001148553	0.04802987	-0.03472336	0	0
10.55833	0.0008684208	-0.03370744	0	0	-0.04795245	0.03466739	0	0
10.5749	0.0008684208	-0.03370744	0	0	0	0	0	0
10.59175	0.0008421051	-0.03372646	-0.00156181	-0.001128895	-0.04673867	-0.03378327	0	0
10.60803	0.0008421051	-0.03372646	0	0	0.04713687	0.03407109	0	0
10.6246	0.0008421051	-0.03372646	0	0	0	0	0	0
10.64117	0.0008421051	-0.03372646	0	0	0	0	0	0
10.6743	0.0008421051	-0.03372646	0	0	0	0	0	0
10.69087	0.0008421051	-0.03372646	0	0	0	0	0	0
10.70743	0.0008421051	-0.03372646	0	0	0	0	0	0
10.724	0.0008421051	-0.03372646	0	0	0	0	0	0
10.74057	0.0008421051	-0.03372646	0	0	0	0	0	0
10.77388	0.0008157893	-0.03370744	-0.0007899833	0.0005710081	-0.01583827	0.01144807	0	0
10.79039	0.0008157893	-0.03370744	0	0	0.01585495	-0.01146012	0	0
10.8069	0.0008157893	-0.03370744	0	0	0	0	0	0
10.82341	0.0008157893	-0.03370744	0	0	0	0	0	0
10.83997	0.0008157893	-0.03370744	0	0	0	0	0	0
10.85653	0.0008157893	-0.03370744	0	0	0	0	0	0
10.8731	0.0008157893	-0.03370744	0	0	0	0	0	0
10.88967	0.0008421051	-0.03368842	0.001588242	0.001148223	0.04793186	0.03465243	0	0
10.90647	0.0008157893	-0.0336694	-0.001566068	0.00113197	-0.09451716	-0.0004869975	0	0
10.9228	0.0008157893	-0.0336694	0	0	0.0472681	-0.03416587	0	0
10.93949	0.0008157893	-0.0336694	0	0	0	0	0	0
10.95593	0.0008157893	-0.0336694	0	0	0	0	0	0
10.9725	0.0008157893	-0.0336694	0	0	0	0	0	0
10.98907	0.0008157893	-0.0336694	0	0	0	0	0	0
11.00563	0.0007894735	-0.03368842	-0.001588604	-0.001148262	-0.04794555	-0.03465562	0	0
11.0222	0.0007894735	-0.03368842	0	0	0.04794831	0.03465761	0	0
11.03877	0.0008157893	-0.03370744	0.001588421	-0.001148355	0.04794003	-0.03465841	0	0
11.05533	0.0008157893	-0.03370744	0	0	-0.04794141	0.03465941	0	0
11.0719	0.0008157893	-0.03378354	0	-0.004593234	0	-0.138636	0	0
11.08847	0.0005526315	-0.03401183	-0.01588241	-0.01377822	-0.4793182	-0.2771955	0	0
11.10503	-0.001078947	-0.03519162	-0.09848794	-0.07121626	-2.492968	-1.733434	0	0
11.1216	-0.008394539	-0.04052542	-0.4416209	-0.3219859	-10.35667	-7.568895	0	0
11.13816	-0.01057855	-0.04210832	-0.1318349	-0.09554987	9.350166	6.834442	0	0
11.15473	-0.02060235	-0.04934702	-0.6050723	-0.4369538	-14.28315	-10.30418	0	0
11.1713	-0.02565227	-0.05302091	-0.3047787	-0.2217311	9.062618	6.495247	0	0
11.20443	-0.03545881	-0.06020992	-0.2959792	-0.2169772	0.177045	0.09564751	0	0
11.28726	-0.05594157	-0.07556887	-0.2472826	-0.1854243	0.4199294	0.272093	0	0
11.30383	-0.0595086	-0.07834944	-0.2152941	-0.167826	0.3218167	0.1770459	0	0
11.3204	-0.06197317	-0.08016605	-0.1487786	-0.1096633	2.007499	1.755403	0	0
11.33696	-0.06417491	-0.08198387	-0.1328975	-0.109724	0.4793217	-0.001831357	0	0
11.35353	-0.0641225	-0.08202256	0.003163948	-0.00233552	4.106461	3.241083	0	0
11.3701	-0.06409629	-0.0820419	0.001582108	-0.001167468	-0.0477414	0.03525289	0	0
11.38666	-0.06409629	-0.0820419	0	0	-0.04774948	0.03523526	0	0
11.40332	-0.06407008	-0.08206125	0.001572966	-0.001161499	0.04734274	-0.03495852	0	0
11.4198	-0.06404387	-0.0820806	0.001590991	-0.001174023	0.0005440338	-0.0003779953	0	0
11.45336	-0.06393904	-0.08215798	0.003123757	-0.002305852	0.03063474	-0.02262139	0	0
11.46987	-0.06386042	-0.08221602	0.004762047	-0.003515241	0.03272011	-0.02415407	0	0
11.48607	-0.06370316	-0.0823321	0.009708014	-0.00716625	0.1512107	-0.1116205	0	0
11.50263	-0.06359833	-0.08240949	0.006327617	-0.004671401	-0.1031668	0.0761406	0	0
11.5192	-0.06275958	-0.0830674	0.05063574	-0.0397183	1.337299	-1.057778	0	0
11.53577	-0.06163237	-0.08389969	0.06803458	-0.0502342	0.5251283	-0.3173886	0	0
11.59405	-0.02765085	-0.1091074	0.5830259	-0.4324922	6.880041	-5.106787	0	0
11.61062	-0.02049713	-0.114429	0.4317496	-0.3211772	-2.020955	1.487097	0	0
11.62719	-0.01584078	-0.1179372	0.2810739	-0.2117668	-4.547268	3.301917	0	0
11.64399	-0.005026273	-0.1260109	0.6435408	-0.4804428	10.86174	-8.051188	0	0
11.66032	-0.001473683	-0.1286686	0.2175785	-0.1627689	-12.85631	9.587972	0	0
11.67701	0.003789456	-0.1326112	0.31527	-0.2361664	2.958383	-2.222692	0	0
11.69345	0.00726303	-0.1352167	0.2112707	-0.1584768	-3.138613	2.34461	0	0
11.71002	0.008868189	-0.1364218	0.09689312	-0.07274067	-3.465188	2.597466	0	0
11.72659	0.008526109	-0.1361254	-0.02065033	0.01789184	-3.547775	2.735531	0	0
11.74315	0.008157713	-0.1358488	-0.02223642	0.01669443	-0.04787084	-0.03614001	0	0
11.75972	0.007841945	-0.1355723	-0.01906093	0.01669359	0.09583911	-2.524115E-05	0	0
11.77629	0.007763002	-0.135513	-0.004764986	0.003577057	0.4314649	-0.3958692	0	0
11.79285	0.007684059	-0.1354537	-0.00476526	0.003577262	-8.277859E-06	6.211908E-06	0	0
11.80961	0.007684059	-0.1354537	0	0	0.1430009	-0.1073502	0	0
11.82599	0.007684059	-0.1354537	0	0	0	0	0	0
11.84263	0.007710373	-0.1354735	0.001580676	-0.001186913	0.04786471	-0.03594109	0	0
11.85912	0.007710373	-0.1354735	0	0	-0.04770628	0.03582213	0	0
11.87569	0.007710373	-0.1354735	0	0	0	0	0	0
11.89267	0.007736688	-0.1354932	0.001549606	-0.001163583	0.04619154	-0.03468473	0	0
11.90882	0.007763002	-0.135513	0.001629046	-0.001222289	0.002397489	-0.001771752	0	0
11.92539	0.007789316	-0.1355328	0.001588411	-0.001192721	-0.001241909	0.0009036775	0	0
11.9422	0.007763002	-0.1355525	-0.001564987	-0.001174246	-0.09446824	0.0005534666	0	0
11.95852	0.007736688	-0.1355328	-0.001612575	0.001209931	-0.001436296	0.07195873	0	0
11.97509	0.007736688	-0.1355328	0	0	0.0490374	-0.03679324	0	0
12.09105	0.007605116	-0.135434	-0.001134578	0.0008516793	-0.008560838	0.006426257	0	0
12.10782	0.007605116	-0.135434	0	0	0.008547922	-0.006416561	0	0
12.12419	0.007605116	-0.135434	0	0	0	0	0	0
12.14075	0.007605116	-0.135434	0	0	0	0	0	0
12.15736	0.007605116	-0.135434	0	0	0	0	0	0
12.17389	0.007605116	-0.135434	0	0	0	0	0	0
12.19045	0.007631431	-0.1354537	0.001588713	-0.001192027	0.0480138	-0.03602521	0	0
12.20702	0.007631431	-0.1354537	0	0	-0.04795161	0.03597855	0	0
12.2239	0.007605116	-0.135434	-0.00155865	0.00116947	-0.0465949	0.0349606	0	0
12.24015	0.007578802	-0.1354142	-0.001619266	0.001215889	-0.001829445	0.001400975	0	0
12.25672	0.007552488	-0.135355	-0.001588439	0.003576363	0.0009393501	0.07192864	0	0
12.28985	0.007473545	-0.1352957	-0.00238263	0.001788181	-0.01598008	-0.03598035	0	0
12.30646	0.007473545	-0.1352957	0	0	0.04790185	-0.03595069	0	0
12.32299	0.007447231	-0.1353155	-0.001592013	-0.001194503	-0.04804429	-0.0360481	0	0
12.33955	0.007447231	-0.1353155	0	0	0.0481066	0.03609484	0	0
12.3565	0.007447231	-0.1353155	0	0	0	0	0	0
12.37301	0.007447231	-0.1353155	0	0	0	0	0	0
12.38925	0.007447231	-0.135276	0	0.00243186	0	0.07423984	0	0
12.40603	0.007447231	-0.135276	0	0	0	-0.07364806	0	0
12.42254	0.007447231	-0.135276	0	0	0	0	0	0
12.43895	0.007447231	-0.135276	0	0	0	0	0	0
12.45557	0.007447231	-0.135276	0	0	0	0	0	0
12.47209	0.007447231	-0.135276	0	0	0	0	0	0
12.48866	0.007447231	-0.135276	0	0	0	0	0	0
12.5056	0.007447231	-0.135276	0	0	0	0	0	0
12.52179	0.007447231	-0.135276	0	0	0	0	0	0
12.53835	0.007447231	-0.135276	0	0	0	0	0	0
12.55513	0.007447231	-0.135276	0	0	0	0	0	0
12.57149	0.007420917	-0.1352957	-0.001609349	-0.001208443	-0.04857444	-0.03647402	0	0
12.58866	0.007447231	-0.135276	0.001532309	0.001150594	0.09371492	0.07036952	0	0
12.60467	0.007447231	-0.135276	0	0	-0.04617739	-0.0346741	0	0
12.62119	0.007447231	-0.135276	0	0	0	0	0	0
12.63775	0.007447231	-0.135276	0	0	0	0	0	0
12.6547	0.007447231	-0.135276	0	0	0	0	0	0
12.67089	0.007447231	-0.135276	0	0	0	0	0	0
12.68745	0.007447231	-0.135276	0	0	0	0	0	0
12.70402	0.007447231	-0.135276	0	0	0	0	0	0
12.72075	0.007447231	-0.135276	0	0	0	0	0	0
12.80342	0.007420917	-0.1352562	-0.0003183236	0.0002388455	-0.003202495	0.002402905	0	0
12.81998	0.007420917	-0.1352562	0	0	0.003207912	-0.00240697	0	0
12.83683	0.007394602	-0.1352365	-0.00156156	0.001172538	-0.04672854	0.03508734	0	0
12.85335	0.007368288	-0.1352167	-0.00159376	0.001195814	-0.0009651556	0.0006976638	0	0
12.86985	0.007368288	-0.1352167	0	0	0.04826649	-0.03621481	0	0
12.88625	0.007368288	-0.1352167	0	0	0	0	0	0
12.90288	0.007341973	-0.135197	-0.001582489	0.001187378	-0.04791961	0.03595519	0	0
12.91939	0.007341973	-0.135197	0	0	0.04775138	-0.03582896	0	0
12.95252	0.007341973	-0.135197	0	0	0	0	0	0
12.96909	0.007341973	-0.135197	0	0	0	0	0	0
12.98565	0.007341973	-0.135197	0	0	0	0	0	0
13.00222	0.007341973	-0.135197	0	0	0	0	0	0
13.01878	0.007341973	-0.135197	0	0	0	0	0	0
13.03548	0.007341973	-0.135197	0	0	0	0	0	0
13.05199	0.007341973	-0.135197	0	0	0	0	0	0
13.0685	0.007315659	-0.1352167	-0.001593852	-0.001195883	-0.04827067	-0.03621795	0	0
13.08505	0.007315659	-0.1352167	0	0	0.04820384	0.03616781	0	0
13.11853	0.007341973	-0.135197	0.0007860069	0.0005897486	0.01570959	0.01178706	0	0
13.13475	0.007341973	-0.135197	0	0	-0.01581449	-0.01186577	0	0
13.15132	0.007341973	-0.135197	0	0	0	0	0	0
13.16807	0.007341973	-0.135197	0	0	0	0	0	0
13.18458	0.007341973	-0.135197	0	0	0	0	0	0
13.20109	0.007341973	-0.135197	0	0	0	0	0	0
13.2176	0.007341973	-0.135197	0	0	0	0	0	0
13.23415	0.007341973	-0.135197	0	0	0	0	0	0
13.25072	0.007341973	-0.135197	0	0	0	0	0	0
13.26729	0.007341973	-0.135197	0	0	0	0	0	0
13.28385	0.007341973	-0.135197	0	0	0	0	0	0
13.30066	0.007341973	-0.135197	0	0	0	0	0	0
13.31699	0.007341973	-0.135197	0	0	0	0	0	0
13.35012	0.007315659	-0.1352167	-0.0007941966	-0.0005958934	-0.01605784	-0.01204835	0	0
13.36671	0.007315659	-0.1352167	0	0	0.01597314	0.0119848	0	0
13.38325	0.007315659	-0.1352167	0	0	0	0	0	0
13.39982	0.007315659	-0.1352167	0	0	0	0	0	0
13.41638	0.007315659	-0.1352167	0	0	0	0	0	0
13.43295	0.007315659	-0.1352167	0	0	0	0	0	0
13.44952	0.007315659	-0.1352167	0	0	0	0	0	0
13.46628	0.007315659	-0.1352167	0	0	0	0	0	0
13.48279	0.007315659	-0.1352167	0	0	0	0	0	0
13.49922	0.007315659	-0.1352167	0	0	0	0	0	0
13.51578	0.007315659	-0.1352167	0	0	0	0	0	0
13.53235	0.007341973	-0.135197	0.001588439	0.001191821	0.04794194	0.03597131	0	0
13.56548	0.007341973	-0.135197	0	0	-0.03196007	-0.02397995	0	0
13.58205	0.007341973	-0.135197	0	0	0	0	0	0
13.59887	0.007341973	-0.135197	0	0	0	0	0	0
13.61538	0.007341973	-0.135197	0	0	0	0	0	0
13.63189	0.007341973	-0.135197	0	0	0	0	0	0
13.64841	0.007341973	-0.135197	0	0	0	0	0	0
13.66488	0.007341973	-0.135197	0	0	0	0	0	0
13.68145	0.007341973	-0.135197	0	0	0	0	0	0
13.69802	0.007341973	-0.135197	0	0	0	0	0	0
13.71458	0.007341973	-0.135197	0	0	0	0	0	0
13.73115	0.007341973	-0.135197	0	0	0	0	0	0
13.74772	0.007341973	-0.135197	0	0	0	0	0	0
13.76428	0.007315659	-0.1351772	-0.001588439	0.001192721	-0.04794194	0.03599845	0	0
13.78085	0.007315659	-0.1351772	0	0	0.04794332	-0.03599949	0	0
13.81606	0.007315659	-0.1351772	0	0	0	0	0	0
13.83263	0.007315659	-0.1351772	0	0	0	0	0	0
13.84919	0.007315659	-0.1351772	0	0	0	0	0	0
13.86576	0.007315659	-0.1351772	0	0	0	0	0	0
13.88257	0.007315659	-0.1351772	0	0	0	0	0	0
13.89889	0.007289344	-0.135197	-0.001612292	-0.001210632	-0.04866048	-0.03653799	0	0
13.91546	0.007289344	-0.135197	0	0	0.04902596	0.03681242	0	0
13.93203	0.007289344	-0.135197	0	0	0	0	0	0
13.94859	0.007289344	-0.135197	0	0	0	0	0	0
13.96516	0.007315659	-0.1352167	0.001588256	-0.001191684	0.04793366	-0.03596509	0	0
13.98173	0.007315659	-0.1352167	0	0	-0.04793504	0.03596613	0	0
13.99829	0.007315659	-0.1352167	0	0	0	0	0	0
14.01486	0.007315659	-0.1352167	0	0	0	0	0	0
14.03142	0.007315659	-0.1352167	0	0	0	0	0	0
14.04799	0.007315659	-0.1352167	0	0	0	0	0	0
14.06456	0.007315659	-0.1352167	0	0	0	0	0	0
14.08121	0.007289344	-0.1352365	-0.001580523	-0.001185882	-0.04758114	-0.03570059	0	0
14.09769	0.00726303	-0.1352562	-0.001596499	-0.001198794	-0.0004821779	-0.0003897142	0	0
14.11426	0.006184132	-0.1361056	-0.0651262	-0.05127259	-1.92231	-1.515155	0	0
14.13082	-0.0001315789	-0.1408916	-0.3812171	-0.288879	-9.539916	-7.171182	0	0
14.14739	-0.004394709	-0.1441403	-0.2573378	-0.1961081	3.738791	2.799912	0	0
14.16396	-0.01442005	-0.1517447	-0.6050265	-0.4589209	-10.49266	-7.931248	0	0
14.18078	-0.02265402	-0.1579775	-0.4895079	-0.3705396	3.459576	2.646858	0	0
14.19729	-0.02846599	-0.1624283	-0.3520477	-0.2695992	4.124223	3.02852	0	0
14.21366	-0.04265832	-0.1733223	-0.8671327	-0.6656066	-15.6675	-12.04548	0	0
14.23031	-0.05071962	-0.1796142	-0.4839626	-0.3777339	11.60283	8.71712	0	0
14.2634	-0.07198069	-0.1963654	-0.6425851	-0.5062813	-3.188799	-2.584197	0	0
14.27993	-0.07438879	-0.1982729	-0.1457224	-0.1154319	10.01496	7.878115	0	0
14.29649	-0.08380327	-0.2059201	-0.5683568	-0.4616657	-12.77241	-10.46351	0	0
14.31306	-0.09033244	-0.2111833	-0.3941244	-0.3177071	5.258949	4.34518	0	0
14.34619	-0.1045386	-0.2239884	-0.4287664	-0.386481	-0.6970382	-1.383814	0	0
14.36276	-0.1082853	-0.2292564	-0.2261007	-0.3179008	4.077485	1.379785	0	0
14.37943	-0.1076871	-0.2366256	0.03589476	-0.4421564	7.882537	-3.738421	0	0
14.39593	-0.1047208	-0.2471169	0.1797074	-0.6355984	4.335282	-5.831379	0	0
14.41246	-0.09899117	-0.2522375	0.3466975	-0.3098509	5.055342	9.861449	0	0
14.42902	-0.09108934	-0.2585631	0.4770105	-0.3818581	3.937952	-2.175999	0	0
14.44647	-0.08555381	-0.2630012	0.3173896	-0.2544667	-4.693885	3.746131	0	0
14.46216	-0.08233973	-0.2655809	0.2048014	-0.1643758	-3.397921	2.718948	0	0
14.479	-0.07603733	-0.2706454	0.3741247	-0.3006433	5.203646	-4.187771	0	0
14.49529	-0.07192833	-0.273952	0.2522896	-0.2030207	-3.677203	2.946425	0	0
14.51201	-0.06629743	-0.2784896	0.3367221	-0.2713412	2.557822	-2.069722	0	0
14.54504	-0.05762036	-0.2854544	0.2627747	-0.2109224	-1.48657	1.214604	0	0
14.56156	-0.05607274	-0.2867062	0.09366793	-0.07576118	-3.413307	2.728138	0	0
14.57812	-0.05525947	-0.2873642	0.04909156	-0.03972317	-1.347179	1.089134	0	0
14.61126	-0.05531194	-0.2872793	-0.001583615	0.002563466	-1.019626	0.8508415	0	0
14.62782	-0.05533818	-0.2872581	-0.001583773	0.00128087	-3.178597E-06	-0.02580687	0	0
14.64439	-0.05536442	-0.2872369	-0.001583548	0.00128087	6.784807E-06	0	0	0
14.66112	-0.05539065	-0.2872156	-0.00156829	0.001270311	0.0004582768	-0.0003171674	0	0
14.67753	-0.05536442	-0.2871944	0.001598827	0.001293229	0.09558103	0.0006916463	0	0
14.69415	-0.05536442	-0.2871944	0	0	-0.04840873	-0.03915594	0	0
14.71115	-0.05536442	-0.2871944	0	0	0	0	0	0
14.72722	-0.05536442	-0.2871944	0	0	0	0	0	0
14.74379	-0.05536442	-0.2871944	0	0	0	0	0	0
14.76036	-0.05536442	-0.2871944	0	0	0	0	0	0
14.7772	-0.05536442	-0.2871944	0	0	0	0	0	0
14.79349	-0.05536442	-0.2871944	0	0	0	0	0	0
14.81006	-0.05536442	-0.2871944	0	0	0	0	0	0
14.82662	-0.05536442	-0.2871944	0	0	0	0	0	0
14.84324	-0.05536442	-0.2871944	0	0	0	0	0	0
14.85976	-0.05536442	-0.2871944	0	0	0	0	0	0
14.87632	-0.05536442	-0.2871944	0	0	0	0	0	0
14.89289	-0.05536442	-0.2871944	0	0	0	0	0	0
14.90946	-0.05536442	-0.2871944	0	0	0	0	0	0
14.92602	-0.05536442	-0.2871944	0	0	0	0	0	0
14.94281	-0.05536442	-0.2871944	0	0	0	0	0	0
14.95916	-0.05536442	-0.2871944	0	0	0	0	0	0
14.97572	-0.05536442	-0.2871944	0	0	0	0	0	0
14.99229	-0.05536442	-0.2871944	0	0	0	0	0	0
15.00886	-0.05536442	-0.2871944	0	0	0	0	0	0
15.02542	-0.05536442	-0.2871944	0	0	0	0	0	0
15.04199	-0.05536442	-0.2871944	0	0	0	0	0	0
15.05855	-0.05536442	-0.2871944	0	0	0	0	0	0
15.07512	-0.05536442	-0.2871944	0	0	0	0	0	0
15.09169	-0.05536442	-0.2871519	0	0.002563245	0	0.07735888	0	0
15.10825	-0.05539065	-0.2871307	-0.001583639	0.001280944	-0.0477957	-0.03870102	0	0
15.12494	-0.05541689	-0.2871095	-0.001572278	0.001271574	0.0003416659	-0.0002817896	0	0
15.14139	-0.05544312	-0.2870882	-0.001594933	0.001291891	-0.0006837202	0.0006131622	0	0
15.15798	-0.05544312	-0.2870882	0	0	0.04828109	-0.03910755	0	0
15.19306	-0.05541689	-0.287067	0.0007477997	0.0006048661	0.01447339	0.01170696	0	0
15.20962	-0.05541689	-0.2869821	0	0.00512528	-0.014479	0.08752489	0	0
15.22619	-0.05536442	-0.2868548	0.003167321	0.007687022	0.09559544	0.07731795	0	0
15.24275	-0.05515453	-0.2864303	0.01266928	0.02562281	0.2867863	0.5413342	0	0
15.25932	-0.05523324	-0.2862393	-0.004750869	0.01152783	-0.5257715	-0.4254116	0	0
15.27589	-0.05541689	-0.2858787	-0.01108574	0.0217712	-0.1911977	0.3091632	0	0
15.29256	-0.05667608	-0.2841823	-0.07551383	0.1017318	-1.938196	2.405463	0	0
15.30902	-0.05903658	-0.2817676	-0.1434129	0.1467024	-2.049199	1.357215	0	0
15.32559	-0.06257609	-0.2786163	-0.2136696	0.1902346	-2.127392	1.318166	0	0
15.34215	-0.06682142	-0.2747321	-0.2562488	0.2344524	-1.285117	1.334571	0	0
15.35872	-0.07109052	-0.2668825	-0.2576983	0.4738303	-0.04374532	7.224649	0	0
15.37562	-0.07205923	-0.2578523	-0.05733282	0.5344514	5.987757	1.81161	0	0
15.39186	-0.07095961	-0.2467635	0.06771827	0.6828823	3.77405	4.479655	0	0
15.40842	-0.0694408	-0.2350339	0.09168028	0.7080434	0.730449	0.7670013	0	0
15.42515	-0.06878604	-0.2313385	0.03912973	0.22084	-1.578121	-14.63097	0	0
15.44155	-0.06320518	-0.2089581	0.3403094	1.364708	9.090145	34.52398	0	0
15.45812	-0.05824982	-0.1958786	0.299123	0.789528	-1.249373	-17.44785	0	0
15.47469	-0.05447238	-0.1875798	0.2280201	0.5009444	-2.146014	-8.709971	0	0
15.49125	-0.04633523	-0.1799161	0.4911873	0.4626074	7.942857	-1.15708	0	0
15.50782	-0.04068806	-0.1742258	0.3408445	0.3434496	-4.537353	-3.59619	0	0
15.52472	-0.03756127	-0.1664675	0.1850058	0.4590454	-4.656185	3.453798	0	0
15.54123	-0.03495944	-0.1535949	0.1575641	0.7795481	-0.8212644	9.5919	0	0
15.55774	-0.03535368	-0.1412677	-0.0238793	0.7466479	-5.494476	-0.9962854	0	0
15.57426	-0.03585305	-0.1209004	-0.03024287	1.23349	-0.1927074	14.743	0	0
15.59077	-0.03611587	-0.1096156	-0.0159151	0.6833564	0.4338363	-16.65772	0	0
15.60722	-0.03661521	-0.08663063	-0.03035678	1.397349	-0.4381205	21.66057	0	0
15.62379	-0.03669405	-0.06999683	-0.004758641	1.00396	0.7752981	-11.91468	0	0
15.64035	-0.03669405	-0.05409334	0	0.9600474	0.1436202	-1.325337	0	0
15.65692	-0.03553766	-0.03443041	0.06980362	1.186925	2.106859	6.847772	0	0
15.67349	-0.03461774	-0.02115864	0.05552965	0.8011318	-0.4308141	-11.64393	0	0
15.75639	-0.02328526	0.02334605	0.1366958	0.536829	0.8159931	-2.657133	0	0
15.7729	-0.02252251	0.02661633	0.04620233	0.1980903	-0.9102877	-3.407424	0	0
15.78945	-0.01857681	0.03262591	0.2383136	0.3629688	5.809971	4.986378	0	0
15.80602	-0.01199942	0.03739668	0.3970347	0.2879804	4.791866	-2.263937	0	0
15.82294	-0.007210401	0.04082188	0.2831334	0.2025026	-3.402005	-2.553052	0	0
15.83915	-0.003710509	0.04325857	0.2158005	0.1502441	-2.032228	-1.577256	0	0
15.85572	-0.00118421	0.04493172	0.1524965	0.1009974	-1.930914	-1.502135	0	0
15.87229	-0.0008157893	0.04448562	0.0222392	-0.02692819	-3.9314	-3.861024	0	0
15.88885	-0.0006315788	0.04428114	0.0111196	-0.01234322	-0.3356093	0.4402005	0	0
15.9055	-0.0009999997	0.04327716	-0.02213599	-0.06032215	-1.001379	-1.444722	0	0
15.92199	-0.001421052	0.04275648	-0.02553233	-0.03157394	-0.1025017	0.8676227	0	0
15.93855	-0.00136842	0.0425705	0.003177208	-0.01122693	0.8685053	0.6155268	0	0
15.95512	-0.001342105	0.0425519	0.001588418	-0.001122496	-0.04795256	0.3049699	0	0
15.97204	-0.001315789	0.04249611	0.001555299	-0.003297701	-0.0009889941	-0.06495608	0	0
16.00482	-0.001236841	0.04232872	0.002408491	-0.005106617	0.01716723	-0.03639755	0	0
16.02139	-0.00118421	0.04225432	0.003176843	-0.004490659	0.01557072	0.01248244	0	0
16.03795	-0.001342105	0.04206832	-0.009530535	-0.01122698	-0.3835094	-0.2033027	0	0
16.0546	-0.001342105	0.04206832	0	0	0.2869714	0.3380527	0	0
16.07108	-0.001342105	0.04206832	0	0	0	0	0	0
16.08765	-0.001342105	0.04206832	0	0	0	0	0	0
16.10422	-0.001342105	0.04206832	0	0	0	0	0	0
16.12164	-0.00136842	0.04204972	-0.001510345	-0.001067537	-0.04443384	-0.0314066	0	0
16.13735	-0.00136842	0.04201252	0	-0.002368128	0.04558491	-0.03925418	0	0
16.15392	-0.001473683	0.04190091	-0.006353685	-0.00673655	-0.1968538	-0.1353452	0	0
16.17068	-0.00155263	0.0418079	-0.004709416	-0.005548262	0.04933166	0.03565124	0	0
16.18705	-0.00155263	0.0417707	0	-0.00227288	0.1421386	0.09885689	0	0
16.2037	-0.001578946	0.04167769	-0.001580774	-0.005587039	-0.04787874	-0.1003797	0	0
16.22019	-0.001657893	0.04162188	-0.004788414	-0.00338498	-0.09680676	0.06645826	0	0
16.23675	-0.001684209	0.04160328	-0.001588425	-0.001122946	0.09680993	0.06843378	0	0
16.25332	-0.001684209	0.04156607	0	-0.002245925	0.04794151	-0.03389354	0	0
16.26989	-0.001657893	0.04151027	0.001588425	-0.003368612	0.04794151	-0.03388471	0	0
16.28645	-0.001631577	0.04149166	0.001588418	-0.001122946	-2.108053E-07	0.06777435	0	0
16.30302	-0.0009999997	0.04100794	0.03812211	-0.02919749	1.102589	-0.8472914	0	0
16.31959	0.0002368421	0.04009615	0.07465592	-0.05503581	1.102593	-0.779802	0	0
16.33615	0.001999997	0.03881182	0.1064243	-0.07752237	0.9587703	-0.678646	0	0
16.35281	0.00192105	0.0387932	-0.004740693	-0.001118053	-3.346297	2.299929	0	0
16.36929	0.001868419	0.03875596	-0.003194119	-0.002259693	0.04668107	-0.03445873	0	0
16.38585	0.001815788	0.03871873	-0.003176836	-0.002247465	0.0005230316	0.0003700228	0	0
16.40242	0.001763156	0.0386815	-0.003176843	-0.002247465	-2.108053E-07	0	0	0
16.41899	0.00173684	0.03866288	-0.001588418	-0.00112362	0.04793876	0.03391771	0	0
16.43555	0.001710525	0.03864426	-0.001588418	-0.001123845	0	-6.784417E-06	0	0
16.45238	0.001684209	0.03862565	-0.001564285	-0.001106549	0.0007227433	0.00051799	0	0
16.55152	-0.0246266	0.01999791	-0.2653849	-0.1878894	-2.275004	-1.610684	0	0
16.60122	-0.05300294	-0.0001967264	-0.5709332	-0.4063168	-2.052812	-1.467495	0	0
16.61779	-0.05935127	-0.004755311	-0.3831855	-0.2751567	2.833117	1.97921	0	0
16.63436	-0.06462043	-0.008546378	-0.3180473	-0.2288292	1.965876	1.398166	0	0
16.65102	-0.07043592	-0.01273866	-0.3489747	-0.2515696	-0.9306601	-0.684298	0	0
16.66749	-0.07101198	-0.01315441	-0.03498026	-0.02524574	9.476917	6.830862	0	0
16.68407	-0.07069777	-0.01288984	0.01894805	0.01595496	1.631692	1.246597	0	0
16.70062	-0.07067158	-0.01283314	0.001582216	0.003425058	-0.524102	-0.3781531	0	0
16.71719	-0.07056684	-0.01275756	0.006322135	0.004562445	0.1431169	0.0343422	0	0
16.73376	-0.07048829	-0.01270087	0.004741376	0.003421735	-0.04770739	-0.03442667	0	0
16.75033	-0.0704621	-0.01268197	0.001580577	0.001140466	-0.09538764	-0.06884488	0	0
16.76689	-0.0704621	-0.01268197	0	0	-0.0477019	-0.03441933	0	0
16.78346	-0.0704621	-0.01268197	0	0	0	0	0	0
16.80013	-0.07038355	-0.01262528	0.004711004	0.00339976	0.1417215	0.1022753	0	0
16.81664	-0.07017406	-0.01247412	0.01269148	0.009157897	0.2405188	0.1735412	0	0
16.85005	-0.0696765	-0.01207735	0.01489138	0.01187467	0.04406936	0.05442353	0	0
16.86668	-0.06965031	-0.01205846	0.001575318	0.001136447	-0.2661223	-0.214604	0	0
16.88319	-0.06965031	-0.01205846	0	0	-0.04753771	-0.03429409	0	0
16.89975	-0.06965031	-0.01205846	0	0	0	0	0	0
16.91632	-0.06962412	-0.01207735	0.001580759	-0.001140372	0.04771563	-0.03442245	0	0
16.93289	-0.06962412	-0.01207735	0	0	-0.04770739	0.0344165	0	0
16.94945	-0.06962412	-0.01207735	0	0	0	0	0	0
16.96602	-0.06962412	-0.01207735	0	0	0	0	0	0
16.98259	-0.06962412	-0.01207735	0	0	0	0	0	0
16.99928	-0.06962412	-0.01207735	0	0	0	0	0	0
17.01578	-0.06959794	-0.01209625	0.001585969	-0.001144457	0.04777664	-0.03447627	0	0
17.03229	-0.06959794	-0.01209625	0	0	-0.04804163	0.03466749	0	0
17.04885	-0.06959794	-0.01209625	0	0	0	0	0	0
17.06542	-0.06959794	-0.01209625	0	0	0	0	0	0
17.08199	-0.06959794	-0.01209625	0	0	0	0	0	0
17.09855	-0.06959794	-0.01209625	0	0	0	0	0	0
17.11535	-0.06957175	-0.01207735	0.001558863	0.001124577	0.0467185	0.03370311	0	0
17.13186	-0.06954556	-0.01205846	0.001586237	0.001144325	0.0008217868	0.0005928456	0	0
17.14838	-0.06949318	-0.01202068	0.003172108	0.002288328	0.04802478	0.03464376	0	0
17.16489	-0.06936223	-0.011964	0.007928889	0.003431615	0.1440242	0.03461606	0	0
17.18139	-0.0692051	-0.01185065	0.009526228	0.006871847	0.04838882	0.1042163	0	0
17.19795	-0.06910034	-0.01181287	0.00632494	0.002281045	-0.09683801	-0.1388704	0	0
17.21452	-0.06902176	-0.01183176	0.004742725	-0.00114026	-0.04775684	-0.1032671	0	0
17.23108	-0.06902176	-0.01183176	0	0	-0.1431357	0.03441311	0	0
17.24765	-0.06894319	-0.01188844	0.004742725	-0.003420836	0.1431357	-0.103241	0	0
17.26422	-0.068917	-0.01190733	0.001580759	-0.00114026	-0.09542835	0.06882791	0	0
17.31392	-0.05714823	-0.02040087	0.2368063	-0.1709037	3.549765	-2.561882	0	0
17.3305	-0.05213692	-0.02402085	0.3021354	-0.218251	0.985591	-0.7143092	0	0
17.34705	-0.04144993	-0.03174868	0.6458115	-0.4669901	10.37217	-7.506961	0	0
17.36362	-0.03401319	-0.03713356	0.4488824	-0.3250318	-5.946756	4.286777	0	0
17.38018	-0.02675677	-0.04243264	0.438049	-0.3198899	-0.3269719	0.1551922	0	0
17.39675	-0.01933969	-0.04781759	0.4476957	-0.3250363	0.2911552	-0.155328	0	0
17.41332	-0.01013123	-0.05455307	0.5558238	-0.4065545	3.263314	-2.460222	0	0
17.43007	-0.003921032	-0.05907766	0.3706242	-0.2700273	-5.557663	4.097051	0	0
17.44645	0.002657888	-0.06387845	0.4016827	-0.2931173	0.937348	-0.6968586	0	0
17.4636	0.00376314	-0.06468578	0.06445003	-0.04707746	-10.05843	7.338476	0	0
17.47959	0.002499995	-0.0637247	-0.07902768	0.06012921	-4.330415	3.23569	0	0
17.51373	0.002473679	-0.06370549	-0.0007707389	0.0005627741	1.561173	-1.18831	0	0
17.53029	0.002421048	-0.06370549	-0.003177187	0	-0.04745626	-0.01109816	0	0
17.54686	0.002421048	-0.06370549	0	0	0.09588771	0	0	0
17.56343	0.002447363	-0.0637247	0.001588404	-0.001159823	0.04793536	-0.0350015	0	0
17.58018	0.002447363	-0.06376314	0	-0.002294471	-0.04767193	-0.03405363	0	0
17.61313	0.002447363	-0.06380158	0	-0.001166696	0	0.02269263	0	0
17.62972	0.002447363	-0.06380158	0	0	0	0.02355352	0	0
17.64626	0.002473679	-0.0638208	0.001590432	-0.001161744	0.04799933	-0.03506149	0	0
17.66283	0.002473679	-0.0638208	0	0	-0.04803251	0.03508573	0	0
17.67975	0.002447363	-0.06384002	-0.001554766	-0.001135251	-0.04642322	-0.03389706	0	0
17.69596	0.002473679	-0.06389768	0.001623749	-0.003557781	0.09593332	-0.07311632	0	0
17.71253	0.002447363	-0.06395534	-0.001588418	-0.003480367	-0.0980097	0.002362067	0	0
17.7291	0.002421048	-0.06408988	-0.001588404	-0.008121006	4.25124E-07	-0.1400548	0	0
17.74566	0.002421048	-0.06420521	0	-0.006961184	0.04793812	0.0350035	0	0
17.76223	0.002368417	-0.06435898	-0.003176836	-0.009281728	-0.09587709	-0.07003417	0	0
17.77883	0.002315785	-0.06447432	-0.003171359	-0.006950081	0.0001651428	0.07030854	0	0
17.79536	0.002315785	-0.06455121	0	-0.004649654	0.09571731	0.06943103	0	0
17.81193	0.002263154	-0.06458966	-0.003176822	-0.002320994	-0.09596505	0.07034388	0	0
17.8285	0.002263154	-0.06458966	0	0	0.09587666	0.07004774	0	0
17.84506	0.002263154	-0.06458966	0	0	0	0	0	0
17.86189	0.002236838	-0.06457044	-0.001564463	0.001142774	-0.04685684	0.03422695	0	0
17.8782	0.002236838	-0.06457044	0	0	0.04721558	-0.03448899	0	0
17.89491	0.002184207	-0.06453199	-0.003150359	0.00230165	-0.09540755	0.0697047	0	0
17.91142	0.002131576	-0.06449354	-0.003187478	0.002328318	-0.00111741	0.0008028002	0	0
17.9279	0.002131576	-0.06449354	0	0	0.09660979	-0.07056939	0	0
17.94446	0.002131576	-0.06449354	0	0	0	0	0	0
18.04401	0.00210526	-0.06455121	-0.0002643508	-0.0005792914	-0.002276655	-0.004989003	0	0
18.06043	0.00210526	-0.06455121	0	0	0.002279539	0.004995321	0	0
18.07703	0.002052629	-0.06458966	-0.003169902	-0.002315928	-0.09599385	-0.07013305	0	0
18.09356	0.002052629	-0.06458966	0	0	0.09567333	0.06989888	0	0
18.11013	0.002026313	-0.06460889	-0.001588418	-0.001160272	-0.0479938	-0.03505745	0	0
18.1267	0.001999997	-0.06462811	-0.001588418	-0.001160272	0	0	0	0
18.14326	0.001973682	-0.06464734	-0.001588418	-0.001160722	0	-1.357235E-05	0	0
18.1601	0.00192105	-0.06468578	-0.003125736	-0.002283218	-0.04602017	-0.03360233	0	0
18.1764	0.001789472	-0.06474346	-0.008074093	-0.003539125	-0.1493417	-0.03790334	0	0
18.19312	0.001605262	-0.06487804	-0.0110162	-0.008048203	-0.08910593	-0.1365638	0	0
18.20953	0.001394736	-0.06507031	-0.01282848	-0.01171603	-0.05469773	-0.1107015	0	0
18.24266	0.0005789473	-0.06566642	-0.02462197	-0.01799178	-0.2380437	-0.1266719	0	0
18.25923	-0.006184132	-0.07057473	-0.4082203	-0.2962661	-7.718309	-5.599105	0	0
18.2758	-0.01086799	-0.07404461	-0.2827184	-0.2094422	3.787652	2.62035	0	0
18.29237	-0.02104952	-0.08144227	-0.6145583	-0.4465236	-10.01495	-7.155131	0	0
18.3092	-0.02851858	-0.0869407	-0.4436821	-0.3266215	5.115824	3.589721	0	0
18.32571	-0.03085862	-0.08866611	-0.1417183	-0.104495	9.055426	6.661229	0	0
18.34207	-0.03926928	-0.09484015	-0.5142396	-0.37749	-11.33405	-8.305942	0	0
18.35863	-0.04814697	-0.1014183	-0.5359204	-0.3971057	-0.6585729	-0.5958457	0	0
18.3752	-0.05300294	-0.1050258	-0.293107	-0.2177489	7.328543	5.413311	0	0
18.39177	-0.05525947	-0.1066655	-0.1362045	-0.09897032	4.735328	3.584745	0	0
18.40877	-0.05567923	-0.1069779	-0.02468584	-0.01837405	3.321851	2.400753	0	0
18.4249	-0.055653	-0.1069584	0.001626334	0.001210628	0.7941028	0.5910669	0	0
18.4418	-0.05567923	-0.1069389	-0.001552885	0.001155954	-0.09627045	-0.001655606	0	0
18.45831	-0.055653	-0.1069584	0.001588761	-0.001182659	0.09404635	-0.07000723	0	0
18.49124	-0.055653	-0.1069584	0	0	-0.03213117	0.02391815	0	0
18.50781	-0.05562676	-0.1069779	0.001583639	-0.001178846	0.03199303	-0.02381532	0	0
18.52437	-0.05557429	-0.107056	0.003167139	-0.004714843	0.04779286	-0.1067227	0	0
18.54094	-0.05554806	-0.1070756	0.001583457	-0.001178711	-0.04779561	0.1067207	0	0
18.55751	-0.05549559	-0.1071537	0.003167139	-0.004715293	0.04779561	-0.1067343	0	0
18.57408	-0.05539065	-0.1072709	0.006334277	-0.007073164	0.09558444	-0.07116068	0	0
18.59064	-0.055207	-0.1074467	0.01108615	-0.01061142	0.14342	-0.1067908	0	0
18.60721	-0.05504959	-0.1076029	0.009501641	-0.009431484	-0.04782331	0.03561249	0	0
18.62378	-0.05499712	-0.107642	0.003167139	-0.002358321	-0.1911757	0.2134685	0	0
18.64044	-0.05494464	-0.107642	0.003149235	0	-0.0005387784	0.07097	0	0
18.65695	-0.05494464	-0.107642	0	0	-0.09493481	0	0	0
18.67348	-0.05494464	-0.107642	0	0	0	0	0	0
18.69004	-0.05494464	-0.107642	0	0	0	0	0	0
18.70661	-0.05497088	-0.1076224	-0.001583864	0.001179296	-0.04780111	0.03559123	0	0
18.7235	-0.05497088	-0.1076224	0	0	0.04734867	-0.03525435	0	0
18.77287	-0.05497088	-0.1076224	0	0	0	0	0	0
18.78955	-0.05497088	-0.1076224	0	0	0	0	0	0
18.80606	-0.05497088	-0.1076224	0	0	0	0	0	0
18.82257	-0.05497088	-0.1076224	0	0	0	0	0	0
18.83914	-0.05497088	-0.1076224	0	0	0	0	0	0
18.85609	-0.05497088	-0.1076224	0	0	0	0	0	0
18.87227	-0.05497088	-0.1076224	0	0	0	0	0	0
18.88884	-0.05499712	-0.1076029	-0.001583682	0.00117916	-0.04835228	0.03600161	0	0
18.90541	-0.05499712	-0.1076029	0	0	0.04779561	-0.03558713	0	0
18.92214	-0.05499712	-0.1076029	0	0	0	0	0	0
18.93865	-0.05499712	-0.1076029	0	0	0	0	0	0
18.95516	-0.05499712	-0.1076029	0	0	0	0	0	0
18.97167	-0.05499712	-0.1076029	0	0	0	0	0	0
19.0052	-0.05499712	-0.1076029	0	0	0	0	0	0
19.02137	-0.05502335	-0.1075834	-0.001621541	0.00120706	-0.03262671	0.02428702	0	0
19.03794	-0.05502335	-0.1075834	0	0	0.0495197	-0.03686201	0	0
19.05523	-0.05502335	-0.1075834	0	0	0	0	0	0
19.07124	-0.05502335	-0.1075834	0	0	0	0	0	0
19.08776	-0.05502335	-0.1075834	0	0	0	0	0	0
19.10427	-0.05502335	-0.1075834	0	0	0	0	0	0
19.12078	-0.05502335	-0.1075834	0	0	0	0	0	0
19.13734	-0.05502335	-0.1075834	0	0	0	0	0	0
19.18733	-0.05502335	-0.1075834	0	0	0	0	0	0
19.20361	-0.05502335	-0.1075834	0	0	0	0	0	0
19.22018	-0.05504959	-0.1075638	-0.001583682	0.00117916	-0.0482091	0.035895	0	0
19.23685	-0.05504959	-0.1075638	0	0	0.04765023	-0.03547889	0	0
19.25331	-0.05504959	-0.1075638	0	0	0	0	0	0
19.26988	-0.05504959	-0.1075638	0	0	0	0	0	0
19.28644	-0.05504959	-0.1075638	0	0	0	0	0	0
19.30301	-0.05504959	-0.1075638	0	0	0	0	0	0
19.31958	-0.05504959	-0.1075638	0	0	0	0	0	0
19.33614	-0.05504959	-0.1075638	0	0	0	0	0	0
19.35271	-0.05504959	-0.1075638	0	0	0	0	0	0
19.36928	-0.05504959	-0.1075638	0	0	0	0	0	0
19.38584	-0.05504959	-0.1075638	0	0	0	0	0	0
19.40248	-0.05504959	-0.1075638	0	0	0	0	0	0
19.41898	-0.05504959	-0.1075638	0	0	0	0	0	0
19.43554	-0.05504959	-0.1075638	0	0	0	0	0	0
19.45211	-0.05504959	-0.1075638	0	0	0	0	0	0
19.46868	-0.05504959	-0.1075638	0	0	0	0	0	0
19.48525	-0.05504959	-0.1075638	0	0	0	0	0	0
19.50181	-0.05504959	-0.1075638	0	0	0	0	0	0
19.51856	-0.05504959	-0.1075638	0	0	0	0	0	0
19.53495	-0.05504959	-0.1075638	0	0	0	0	0	0
19.55152	-0.05504959	-0.1075638	0	0	0	0	0	0
19.56808	-0.05504959	-0.1075638	0	0	0	0	0	0
19.58465	-0.05504959	-0.1075638	0	0	0	0	0	0
19.60122	-0.05504959	-0.1075638	0	0	0	0	0	0
19.61814	-0.05504959	-0.1075638	0	0	0	0	0	0
19.63435	-0.05507582	-0.1075443	-0.001617956	0.00120468	-0.04883	0.03635731	0	0
19.65116	-0.05507582	-0.1075443	0	0	0.04899358	-0.0364791	0	0
19.66767	-0.05507582	-0.1075443	0	0	0	0	0	0
19.68405	-0.05507582	-0.1075443	0	0	0	0	0	0
19.7007	-0.05507582	-0.1075443	0	0	0	0	0	0
19.71721	-0.05504959	-0.1075638	0.00158917	-0.001183247	0.04793091	-0.03568788	0	0
19.73375	-0.05504959	-0.1075638	0	0	-0.04807472	0.03579495	0	0
19.75073	-0.05504959	-0.1075638	0	0	0	0	0	0
19.76688	-0.05504959	-0.1075638	0	0	0	0	0	0
19.78375	-0.05504959	-0.1075638	0	0	0	0	0	0
19.80027	-0.05504959	-0.1075638	0	0	0	0	0	0
19.81658	-0.05504959	-0.1075638	0	0	0	0	0	0
19.83315	-0.05504959	-0.1075638	0	0	0	0	0	0
19.8498	-0.05504959	-0.1075638	0	0	0	0	0	0
19.86631	-0.05504959	-0.1075638	0	0	0	0	0	0
19.88285	-0.05504959	-0.1075638	0	0	0	0	0	0
19.89942	-0.05504959	-0.1075638	0	0	0	0	0	0
19.91599	-0.05504959	-0.1075638	0	0	0	0	0	0
19.93286	-0.05504959	-0.1075638	0	0	0	0	0	0
19.96638	-0.05504959	-0.1075638	0	0	0	0	0	0
19.98249	-0.05504959	-0.1075638	0	0	0	0	0	0
19.99906	-0.05504959	-0.1075638	0	0	0	0	0	0
20.01563	-0.05504959	-0.1075638	0	0	0	0	0	0
20.03219	-0.05504959	-0.1075638	0	0	0	0	0	0
20.06533	-0.05504959	-0.1075638	0	0	0	0	0	0
20.08196	-0.05504959	-0.1075638	0	0	0	0	0	0
20.09846	-0.05504959	-0.1075638	0	0	0	0	0	0
20.11503	-0.05504959	-0.1075638	0	0	0	0	0	0
20.132	-0.05504959	-0.1075638	0	0	0	0	0	0
20.14816	-0.05504959	-0.1075638	0	0	0	0	0	0
20.16503	-0.05504959	-0.1075638	0	0	0	0	0	0
20.18153	-0.05504959	-0.1075638	0	0	0	0	0	0
20.19786	-0.05504959	-0.1075638	0	0	0	0	0	0
20.21443	-0.05504959	-0.1075638	0	0	0	0	0	0
20.23099	-0.05504959	-0.1075638	0	0	0	0	0	0
20.24758	-0.05504959	-0.1075638	0	0	0	0	0	0
20.26412	-0.05504959	-0.1075638	0	0	0	0	0	0
20.28069	-0.05504959	-0.1075638	0	0	0	0	0	0
20.29728	-0.05504959	-0.1075638	0	0	0	0	0	0
20.31383	-0.05504959	-0.1075638	0	0	0	0	0	0
20.33039	-0.05504959	-0.1075638	0	0	0	0	0	0
20.34715	-0.05504959	-0.1075638	0	0	0	0	0	0
20.36353	-0.05504959	-0.1075638	0	0	0	0	0	0
20.38009	-0.05504959	-0.1075638	0	0	0	0	0	0
20.39666	-0.05504959	-0.1075638	0	0	0	0	0	0
20.41323	-0.05504959	-0.1075638	0	0	0	0	0	0
20.42979	-0.05504959	-0.1075638	0	0	0	0	0	0
20.44636	-0.05504959	-0.1075638	0	0	0	0	0	0
20.49568	-0.05504959	-0.1075638	0	0	0	0	0	0
20.51227	-0.05504959	-0.1075638	0	0	0	0	0	0
20.52882	-0.05504959	-0.1075638	0	0	0	0	0	0
20.54538	-0.05504959	-0.1075638	0	0	0	0	0	0
20.56195	-0.05504959	-0.1075638	0	0	0	0	0	0
20.57852	-0.05504959	-0.1075638	0	0	0	0	0	0
20.59533	-0.05504959	-0.1075638	0	0	0	0	0	0
20.61184	-0.05504959	-0.1075638	0	0	0	0	0	0
20.62822	-0.05504959	-0.1075638	0	0	0	0	0	0
20.64478	-0.05504959	-0.1075638	0	0	0	0	0	0
20.66135	-0.05504959	-0.1075638	0	0	0	0	0	0
20.67792	-0.05504959	-0.1075638	0	0	0	0	0	0
20.69449	-0.05504959	-0.1075638	0	0	0	0	0	0
20.72843	-0.05504959	-0.1075638	0	0	0	0	0	0
20.74493	-0.05504959	-0.1075638	0	0	0	0	0	0
20.76144	-0.05504959	-0.1075638	0	0	0	0	0	0
20.77771	-0.05504959	-0.1075638	0	0	0	0	0	0
20.79447	-0.05504959	-0.1075638	0	0	0	0	0	0
20.81098	-0.05504959	-0.1075638	0	0	0	0	0	0
20.82749	-0.05504959	-0.1075638	0	0	0	0	0	0
20.844	-0.05504959	-0.1075638	0	0	0	0	0	0
20.86054	-0.05504959	-0.1075638	0	0	0	0	0	0
20.87711	-0.05504959	-0.1075638	0	0	0	0	0	0
20.91024	-0.05504959	-0.1075638	0	0	0	0	0	0
20.94357	-0.05504959	-0.1075638	0	0	0	0	0	0
20.96009	-0.05504959	-0.1075638	0	0	0	0	0	0
20.97659	-0.05504959	-0.1075638	0	0	0	0	0	0
20.99307	-0.05504959	-0.1075638	0	0	0	0	0	0
21.00964	-0.05504959	-0.1075638	0	0	0	0	0	0
21.02621	-0.05504959	-0.1075638	0	0	0	0	0	0
21.04277	-0.05504959	-0.1075638	0	0	0	0	0	0
21.05934	-0.05504959	-0.1075638	0	0	0	0	0	0
21.07616	-0.05504959	-0.1075638	0	0	0	0	0	0
21.09247	-0.05504959	-0.1075638	0	0	0	0	0	0
21.10919	-0.05504959	-0.1075638	0	0	0	0	0	0
21.12561	-0.05504959	-0.1075638	0	0	0	0	0	0
21.14221	-0.05504959	-0.1075638	0	0	0	0	0	0
21.15874	-0.05504959	-0.1075638	0	0	0	0	0	0
21.17531	-0.05504959	-0.1075638	0	0	0	0	0	0
21.19187	-0.05504959	-0.1075638	0	0	0	0	0	0
21.20844	-0.05504959	-0.1075638	0	0	0	0	0	0
21.225	-0.05504959	-0.1075638	0	0	0	0	0	0
21.24157	-0.05504959	-0.1075638	0	0	0	0	0	0
21.25829	-0.05504959	-0.1075638	0	0	0	0	0	0
21.27471	-0.05504959	-0.1075638	0	0	0	0	0	0
21.29127	-0.05504959	-0.1075638	0	0	0	0	0	0
21.30784	-0.05504959	-0.1075638	0	0	0	0	0	0
21.3244	-0.05504959	-0.1075638	0	0	0	0	0	0
21.34097	-0.05504959	-0.1075638	0	0	0	0	0	0
21.35754	-0.05504959	-0.1075638	0	0	0	0	0	0
21.37437	-0.05504959	-0.1075638	0	0	0	0	0	0
21.39067	-0.05504959	-0.1075638	0	0	0	0	0	0
21.4074	-0.05504959	-0.1075638	0	0	0	0	0	0
21.44042	-0.05504959	-0.1075638	0	0	0	0	0	0
21.45694	-0.05504959	-0.1075638	0	0	0	0	0	0
21.47351	-0.05504959	-0.1075638	0	0	0	0	0	0
21.49007	-0.05504959	-0.1075638	0	0	0	0	0	0
21.50697	-0.05504959	-0.1075638	0	0	0	0	0	0
21.52348	-0.05507582	-0.1075443	-0.00158917	0.001183247	-0.0475724	0.03542094	0	0
21.53977	-0.05507582	-0.1075443	0	0	0.04844087	-0.03606758	0	0
21.5565	-0.05507582	-0.1075443	0	0	0	0	0	0
21.57301	-0.05507582	-0.1075443	0	0	0	0	0	0
21.58952	-0.05507582	-0.1075443	0	0	0	0	0	0
21.60604	-0.05507582	-0.1075443	0	0	0	0	0	0
21.6226	-0.05507582	-0.1075443	0	0	0	0	0	0
21.63917	-0.05507582	-0.1075443	0	0	0	0	0	0
21.65574	-0.05507582	-0.1075443	0	0	0	0	0	0
21.67258	-0.05507582	-0.1075443	0	0	0	0	0	0
21.68887	-0.05507582	-0.1075443	0	0	0	0	0	0
21.7056	-0.05510206	-0.1075248	-0.001567933	0.001167155	-0.04748157	0.03534484	0	0
21.72212	-0.05510206	-0.1075248	0	0	0.04716555	-0.0351096	0	0
21.73857	-0.05515453	-0.1074857	-0.003188655	0.002373721	-0.09671818	0.07199963	0	0
21.75514	-0.05523324	-0.1074271	-0.004750049	0.003536624	-0.04727807	0.03521201	0	0
21.77171	-0.05528571	-0.1073881	-0.003168093	0.002358414	0.04774627	-0.0355605	0	0
21.78828	-0.05557429	-0.1071732	-0.0174069	0.01295867	-0.4296292	0.3198426	0	0
21.80484	-0.05578417	-0.107017	-0.01267686	0.009436654	0.1427529	-0.1062945	0	0
21.82141	-0.05659739	-0.1064117	-0.04909147	0.03654109	-1.099438	0.8183432	0	0
21.83797	-0.05895791	-0.1046941	-0.1424814	0.1036712	-2.818677	2.026108	0	0
21.85454	-0.06378179	-0.1011066	-0.2911701	0.2165455	-4.487432	3.406552	0	0
21.87122	-0.06883842	-0.09734882	-0.3031252	0.2252619	-0.3595632	0.2621571	0	0
21.88774	-0.08753887	-0.08351255	-1.132019	0.8375697	-24.96577	18.44233	0	0
21.90424	-0.1022735	-0.07263686	-0.8928788	0.6590379	7.241865	-5.406461	0	0
21.9208	-0.1238108	-0.05681448	-1.300595	0.9554806	-12.33187	8.966269	0	0
21.93737	-0.1399218	-0.04516208	-0.9724584	0.7033402	9.905462	-7.611365	0	0
21.95394	-0.1596558	-0.03123542	-1.191011	0.8405181	-6.595551	4.1398	0	0
21.9705	-0.1691574	-0.02567113	-0.5735814	0.3358999	18.63406	-15.22941	0	0
21.98731	-0.1934451	-0.02184078	-1.44554	0.2279719	-26.13225	-3.234561	0	0
22.00364	-0.2130838	-0.02278845	-1.20242	-0.05802307	7.337397	-8.631344	0	0
22.02021	-0.2309117	-0.02354679	-1.076098	-0.04577353	3.839592	0.3723282	0	0
22.03684	-0.2507906	-0.02405878	-1.195074	-0.03077947	-3.583497	0.4516118	0	0
22.05386	-0.260889	-0.02481743	-0.5934855	-0.04458581	17.87812	-0.4102992	0	0
22.06991	-0.2685619	-0.02745517	-0.4780544	-0.1643419	3.490952	-3.621753	0	0
22.08647	-0.271031	-0.0294112	-0.1490329	-0.1180664	10.08725	1.418732	0	0
22.10304	-0.2711287	-0.02937321	-0.0058985	0.002293224	4.319805	3.632459	0	0
22.11961	-0.2711532	-0.02924024	-0.001475245	0.008027152	0.1335018	0.1730602	0	0
22.13617	-0.2712508	-0.02916426	-0.005896701	0.004586224	-0.1334475	-0.1038534	0	0
22.16931	-0.271202	-0.02908828	0.001474091	0.002292924	0.1482949	-0.04613952	0	0
22.18595	-0.2711776	-0.02910727	0.001468818	-0.001141693	-0.0001059274	-0.06900398	0	0
22.20244	-0.2711532	-0.02912627	0.001479921	-0.001151614	0.0003351206	-0.0002994658	0	0
22.42752	-0.2703469	-0.02975316	0.003582282	-0.002785206	0.008702789	-0.006762303	0	0
22.44413	-0.2703469	-0.02975316	0	0	-0.01482194	0.01152399	0	0
22.46066	-0.2703469	-0.02975316	0	0	0	0	0	0
22.47722	-0.2703469	-0.02975316	0	0	0	0	0	0
22.57663	-0.2703469	-0.02975316	0	0	0	0	0	0
22.59324	-0.2703469	-0.02975316	0	0	0	0	0	0
22.60976	-0.2703469	-0.02975316	0	0	0	0	0	0
22.62633	-0.2703469	-0.02975316	0	0	0	0	0	0
22.64289	-0.2703469	-0.02975316	0	0	0	0	0	0
22.65946	-0.2703469	-0.02975316	0	0	0	0	0	0
22.67603	-0.2703469	-0.02975316	0	0	0	0	0	0
22.6926	-0.2703224	-0.02977216	0.001474905	-0.001146649	0.04450504	-0.03459995	0	0
22.70934	-0.2703224	-0.02977216	0	0	-0.04428584	0.03442954	0	0
22.72584	-0.2703224	-0.02977216	0	0	0	0	0	0
22.74229	-0.270298	-0.02979116	0.001485335	-0.001154757	0.04506877	-0.03503823	0	0
22.75886	-0.270298	-0.02979116	0	0	-0.04498287	0.03497143	0	0
22.77543	-0.270298	-0.02979116	0	0	0	0	0	0
22.79199	-0.270298	-0.02979116	0	0	0	0	0	0
22.80856	-0.270298	-0.02979116	0	0	0	0	0	0
22.82541	-0.270298	-0.02979116	0	0	0	0	0	0
22.84169	-0.270298	-0.02979116	0	0	0	0	0	0
22.85826	-0.270298	-0.02979116	0	0	0	0	0	0
22.87483	-0.270298	-0.02979116	0	0	0	0	0	0
22.89145	-0.270298	-0.02979116	0	0	0	0	0	0
22.90796	-0.270298	-0.02979116	0	0	0	0	0	0
22.94109	-0.2702491	-0.02982916	0.001476059	-0.001146847	0.0297326	-0.0231012	0	0
22.95766	-0.2701758	-0.02988616	0.004425224	-0.003440342	0.0593396	-0.04614699	0	0
22.97451	-0.2700047	-0.03001916	0.01015545	-0.007894313	0.1714876	-0.1332932	0	0
22.99079	-0.269369	-0.03055121	0.03903139	-0.03267172	0.8715276	-0.7478268	0	0
23.00736	-0.2680237	-0.03159659	0.08120647	-0.06309925	1.283784	-0.9261953	0	0
23.02393	-0.2658445	-0.03328896	0.1315335	-0.1021514	1.518873	-1.178596	0	0
23.04055	-0.2610855	-0.0369812	0.2862331	-0.2220717	4.660525	-3.612754	0	0
23.05706	-0.2568068	-0.0402585	0.2591591	-0.1985037	-0.8170464	0.711242	0	0
23.07363	-0.2538257	-0.04245172	0.1800015	-0.1324285	-2.393528	1.997948	0	0
23.10676	-0.2438886	-0.04902195	0.2999198	-0.1983014	2.41313	-1.325568	0	0
23.12361	-0.2388269	-0.052236	0.3003043	-0.1906855	0.007692665	0.1523548	0	0
23.13989	-0.2321582	-0.05591354	0.4096912	-0.2259304	3.301493	-1.063753	0	0
23.15664	-0.2202121	-0.06090102	0.7132694	-0.2977878	9.19217	-2.175802	0	0
23.17303	-0.2088062	-0.06466656	0.6959918	-0.2297754	-0.5214108	2.052501	0	0
23.18959	-0.1906051	-0.06993905	1.098749	-0.3182849	12.22207	-2.68591	0	0
23.20616	-0.1806153	-0.07188506	0.6030539	-0.1174749	-14.96182	6.061156	0	0
23.22318	-0.1608099	-0.07653403	1.163315	-0.2730668	16.67924	-4.632046	0	0
23.23929	-0.1432231	-0.08124886	1.091831	-0.2927093	-2.157507	-0.5928442	0	0
23.25586	-0.1355066	-0.08386098	0.465772	-0.157668	-19.16032	4.13289	0	0
23.27242	-0.1270747	-0.08847219	0.5089485	-0.2783331	1.30307	-3.641682	0	0
23.28923	-0.1178462	-0.0916931	0.5491338	-0.1916563	1.20413	2.597224	0	0
23.30556	-0.1160551	-0.09186784	0.1096876	-0.01070169	-13.26251	5.461221	0	0
23.33869	-0.1115872	-0.09353814	0.1348421	-0.05040978	0.5085497	-0.8027793	0	0
23.35528	-0.1115872	-0.09353814	0	0	-2.711779	1.01378	0	0
23.37183	-0.1116132	-0.09351871	-0.001570786	0.001174487	-0.04740642	0.03544609	0	0
23.3884	-0.1116651	-0.09347986	-0.003136871	0.002345009	-0.04729448	0.03534881	0	0
23.40531	-0.1116651	-0.09347986	0	0	0.09367874	-0.07003076	0	0
23.42153	-0.1116651	-0.093441	0	0.002396317	0	0.07232933	0	0
23.43834	-0.1115872	-0.09338272	0.004638035	0.003467002	0.1404451	0.03242157	0	0
23.45466	-0.1114572	-0.09328559	0.007961301	0.005950664	0.1003022	0.07496137	0	0
23.47136	-0.1107814	-0.09274171	0.04046973	0.03257023	0.9844499	0.8061178	0	0
23.48787	-0.1098975	-0.09204259	0.05352393	0.04233531	0.3930488	0.2940167	0	0
23.50436	-0.1094555	-0.09171251	0.0268065	0.02001789	-0.809549	-0.6762267	0	0
23.52093	-0.1089095	-0.09130483	0.03296073	0.02460767	0.1861744	0.1388473	0	0
23.5375	-0.1064123	-0.08944193	0.1507279	0.1124448	3.554221	2.650929	0	0
23.5872	-0.07632513	-0.06693599	0.6053785	0.4528379	6.860888	5.13669	0	0
23.60376	-0.06483007	-0.05808011	0.6938428	0.5345417	1.334968	1.232948	0	0
23.62033	-0.05929882	-0.05346133	0.3338672	0.2787903	-10.86409	-7.718595	0	0
23.63698	-0.05043089	-0.04344396	0.5325716	0.6016021	5.981758	9.717866	0	0
23.65347	-0.04517976	-0.03882901	0.3185723	0.2799771	-6.458511	-9.706659	0	0
23.67003	-0.03700941	-0.0324902	0.4931634	0.3826115	5.282549	3.105376	0	0
23.6866	-0.02772973	-0.02134811	0.560058	0.6724604	2.018767	8.747153	0	0
23.71973	-0.020918	-0.01209625	0.2056022	0.2792539	-7.131939	-7.911633	0	0
23.73655	-0.01949753	-0.01111398	0.08445638	0.05840233	-2.425358	-4.421484	0	0
23.75286	-0.01949753	-0.01111398	0	0	-2.549045	-1.762687	0	0
23.76957	-0.01949753	-0.01111398	0	0	0	0	0	0
23.786	-0.01949753	-0.01111398	0	0	0	0	0	0
23.8026	-0.01949753	-0.01111398	0	0	0	0	0	0
23.81913	-0.01949753	-0.01111398	0	0	0	0	0	0
23.8357	-0.01949753	-0.01111398	0	0	0	0	0	0
23.85226	-0.01949753	-0.01111398	0	0	0	0	0	0
23.86883	-0.01947122	-0.01113287	0.001588024	-0.001140166	0.04792943	-0.03441226	0	0
23.8854	-0.01949753	-0.01111398	-0.001587842	0.001140035	-0.09585334	0.06882057	0	0
23.90217	-0.01952383	-0.01109509	-0.00156852	0.001126107	0.0005795739	-0.0004177865	0	0
23.93509	-0.01949753	-0.01107621	0.0007989337	0.0005736166	0.04763691	-0.01111697	0	0
23.95166	-0.01952383	-0.01109509	-0.001587659	-0.001139904	-0.04821818	-0.03461958	0	0
23.96823	-0.01952383	-0.01109509	0	0	0.04791564	0.03440236	0	0
23.98479	-0.01952383	-0.01109509	0	0	0	0	0	0
24.00139	-0.01949753	-0.01111398	0.001585286	-0.001138144	0.04780826	-0.03432358	0	0
24.01793	-0.01952383	-0.01113287	-0.001590405	-0.001141875	-0.09584256	-0.0001126052	0	0
24.0345	-0.01952383	-0.01120842	0	-0.00456014	0.04803723	-0.1032466	0	0
24.05107	-0.01957645	-0.01124619	-0.003175318	-0.002279864	-0.09582575	0.06881491	0	0
24.0842	-0.01965536	-0.01130285	-0.002381843	-0.001710207	0.01596473	0.01146151	0	0
24.10077	-0.01970797	-0.01134063	-0.003175571	-0.002280182	-0.01597044	-0.01146837	0	0
24.11733	-0.01973428	-0.01135952	-0.001588024	-0.001140222	0.047915	0.03440604	0	0
24.1339	-0.01976059	-0.01137841	-0.001587842	-0.001140091	5.516389E-06	3.959854E-06	0	0
24.15047	-0.0198132	-0.01141618	-0.003175205	-0.002279976	-0.04790397	-0.03439981	0	0
24.16703	-0.0198132	-0.01141618	0	0	0.09582237	0.06880586	0	0
24.18387	-0.0198395	-0.01143507	-0.001562721	-0.001122189	-0.04678865	-0.0335989	0	0
24.20016	-0.01991842	-0.01149174	-0.004842579	-0.003477232	-0.09900341	-0.07108761	0	0
24.21673	-0.01999733	-0.01154841	-0.004762864	-0.003420105	0.002425495	0.001738222	0	0
24.2334	-0.02015517	-0.01166175	-0.009466768	-0.006798064	-0.1415079	-0.1016194	0	0
24.24991	-0.02036561	-0.01181287	-0.01274767	-0.009154582	-0.09888111	-0.07102175	0	0
24.26643	-0.02062865	-0.01200179	-0.01592335	-0.01143585	-0.09615218	-0.06907146	0	0
24.283	-0.02202275	-0.01304102	-0.08415788	-0.06273545	-2.062409	-1.550546	0	0
24.29956	-0.0243899	-0.01478012	-0.1428812	-0.1049725	-1.772376	-1.27479	0	0
24.31613	-0.0246529	-0.01512049	-0.01587459	-0.02054475	3.833068	2.548034	0	0
24.3327	-0.0246529	-0.01512049	0	0	0.4791237	0.6200773	0	0
24.34926	-0.0246266	-0.01521504	0.001587575	-0.005707915	0.04791862	-0.1722851	0	0
24.36583	-0.02509999	-0.01555546	-0.02857067	-0.02054519	-0.9101775	-0.4477898	0	0
24.46557	-0.05497088	-0.03713356	-0.2995018	-0.2163537	-2.3295	-1.683587	0	0
24.48208	-0.05741053	-0.03890523	-0.1477678	-0.1073091	1.305292	0.9380568	0	0
24.49836	-0.06058366	-0.04128816	-0.194828	-0.1463101	-1.434901	-1.189169	0	0
24.51493	-0.06050501	-0.04123095	0.004747672	0.003453384	6.07461	4.558444	0	0
24.5315	-0.06047879	-0.04121188	0.001582557	0.001151053	-0.09552336	-0.06948449	0	0
24.54812	-0.06050501	-0.0411928	-0.001576929	0.001147184	-0.09518365	-0.0001165676	0	0
24.56464	-0.06042635	-0.04117373	0.004763252	0.001154776	0.191314	0.0002290847	0	0
24.5812	-0.06040013	-0.04111652	0.001583287	0.00345475	-0.09614865	0.06954147	0	0
24.59776	-0.06037391	-0.04113559	0.001582782	-0.001151053	-1.522365E-05	-0.1390354	0	0
24.61433	-0.06037391	-0.04113559	0	0	-0.04776846	0.03473885	0	0
24.6309	-0.06034769	-0.04111652	0.00158274	0.001151186	0.04776993	0.03474485	0	0
24.64746	-0.06032147	-0.04109745	0.001582782	0.001151053	1.285986E-06	-4.002017E-06	0	0
24.66403	-0.06026903	-0.04105932	0.003165115	0.002302106	0.04775489	0.03473885	0	0
24.68073	-0.06016415	-0.04098304	0.006282939	0.004569268	0.09373998	0.06816413	0	0
24.71409	-0.06005926	-0.04090676	0.003143736	0.002286201	-0.06271324	-0.04560984	0	0
24.73075	-0.06005926	-0.04090676	0	0	-0.06283733	-0.04569683	0	0
24.74722	-0.06003304	-0.04092583	0.001592315	-0.001157759	0.04805616	-0.03494124	0	0
24.76379	-0.06000682	-0.0409449	0.001582557	-0.001151053	-0.0002953651	0.0002030053	0	0
24.78079	-0.05995438	-0.04098304	0.003084596	-0.002243223	0.04474438	-0.03253476	0	0
24.79692	-0.05992816	-0.04100211	0.00162541	-0.00118199	-0.04404087	0.03202992	0	0
24.81349	-0.05995438	-0.04098304	-0.00158274	0.001150961	-0.09812125	0.0713533	0	0
24.83006	-0.05995438	-0.04098304	0	0	0.04776993	-0.03473806	0	0
24.84662	-0.05995438	-0.04098304	0	0	0	0	0	0
24.86335	-0.05995438	-0.04098304	0	0	0	0	0	0
24.88249	-0.05995438	-0.04098304	0	0	0	0	0	0
24.89906	-0.05995438	-0.04098304	0	0	0	0	0	0
24.9322	-0.05995438	-0.04098304	0	0	0	0	0	0
24.94876	-0.05995438	-0.04098304	0	0	0	0	0	0
24.96543	-0.05995438	-0.04098304	0	0	0	0	0	0
24.98194	-0.05995438	-0.04098304	0	0	0	0	0	0
24.99846	-0.05995438	-0.04098304	0	0	0	0	0	0
25.01503	-0.05995438	-0.04098304	0	0	0	0	0	0
25.0316	-0.05995438	-0.04098304	0	0	0	0	0	0
25.04848	-0.05995438	-0.04098304	0	0	0	0	0	0
25.06499	-0.05995438	-0.04098304	0	0	0	0	0	0
25.0813	-0.05995438	-0.04098304	0	0	0	0	0	0
25.09786	-0.05995438	-0.04098304	0	0	0	0	0	0
25.11453	-0.05995438	-0.04098304	0	0	0	0	0	0
25.13104	-0.05995438	-0.04098304	0	0	0	0	0	0
25.14805	-0.05992816	-0.04100211	0.00154156	-0.001121015	0.04598439	-0.03343963	0	0
25.16413	-0.05992816	-0.04100211	0	0	-0.04658875	0.03387911	0	0
25.1807	-0.05990193	-0.04102118	0.001582965	-0.001151186	0.04848851	-0.03526249	0	0
25.19726	-0.05987571	-0.04104025	0.001582965	-0.001151186	0	0	0	0
25.2141	-0.05984949	-0.04109745	0.001557499	-0.003397999	-0.0007623957	-0.06726687	0	0
25.2801	-0.05956105	-0.04134537	0.004370457	-0.003756444	0.03395888	-0.004327249	0	0
25.29666	-0.05935127	-0.04149795	0.01266394	-0.009210384	0.1004499	-0.06605761	0	0
25.31323	-0.05922015	-0.04163146	0.007914362	-0.00805872	-0.1433508	0.03475929	0	0
25.3298	-0.05895791	-0.0418222	0.0158269	-0.01151168	0.2387871	-0.1042045	0	0
25.34636	-0.057122	-0.0431577	0.1108284	-0.08062055	2.867152	-2.08571	0	0
25.36293	-0.05497088	-0.0447611	0.1298419	-0.09678132	0.5738605	-0.4877611	0	0
25.37972	-0.05489217	-0.04481838	0.004688965	-0.003412254	-3.752283	2.799353	0	0
25.39606	-0.05489217	-0.04481838	0	0	-0.1415214	0.102988	0	0
25.41274	-0.05489217	-0.04481838	0	0	0	0	0	0
25.42925	-0.05489217	-0.04481838	0	0	0	0	0	0
25.44577	-0.05489217	-0.04481838	0	0	0	0	0	0
25.46233	-0.05489217	-0.04481838	0	0	0	0	0	0
25.49547	-0.05426247	-0.04527666	0.01900429	-0.01383096	0.3823818	-0.2782902	0	0
25.51231	-0.04751684	-0.0502268	0.4004364	-0.293852	7.63167	-5.602643	0	0
25.5286	-0.04486461	-0.05215943	0.1628638	-0.1186758	-7.17078	5.287437	0	0
25.54534	-0.03803428	-0.05717877	0.4078657	-0.2997242	7.417227	-5.481088	0	0
25.56173	-0.03530112	-0.0591736	0.1667981	-0.1217396	-7.275851	5.371893	0	0
25.57837	-0.03283031	-0.06097781	0.148523	-0.1084531	-0.5534231	0.4023557	0	0
25.59488	-0.03022763	-0.06287923	0.1576057	-0.1151408	0.2739877	-0.2017416	0	0
25.61143	-0.0288867	-0.06389768	0.08102284	-0.0615375	-2.316207	1.621202	0	0
25.62799	-0.02862376	-0.06408988	0.01587293	-0.01160271	-1.96736	1.507903	0	0
25.64456	-0.02865005	-0.06407066	-0.001586872	0.001160139	-0.526938	0.3851835	0	0
25.66113	-0.02865005	-0.06407066	0	0	0.04789465	-0.03501507	0	0
25.6777	-0.02865005	-0.06407066	0	0	0	0	0	0
25.69426	-0.02865005	-0.06407066	0	0	0	0	0	0
25.71096	-0.02865005	-0.06407066	0	0	0	0	0	0
25.7274	-0.02865005	-0.06407066	0	0	0	0	0	0
25.74398	-0.02862376	-0.06408988	0.00158523	-0.001158938	0.04800259	-0.03509399	0	0
25.76053	-0.02862376	-0.06408988	0	0	-0.04784508	0.03497883	0	0
25.7771	-0.02862376	-0.06412832	0	-0.002320095	0	-0.07006496	0	0
25.79366	-0.02859746	-0.06418598	0.001587167	-0.003480817	0.0479008	-0.03503066	0	0
25.81053	-0.02849229	-0.06430131	0.006236548	-0.006838367	0.1390698	-0.1004292	0	0
25.82704	-0.02817675	-0.06460889	0.01910958	-0.01862745	0.3856893	-0.353213	0	0
25.84336	-0.02809787	-0.06474346	0.004832718	-0.008244297	-0.4348062	0.316222	0	0
25.85993	-0.02812416	-0.06476269	-0.00158735	-0.001160856	-0.1952076	0.215378	0	0
25.87649	-0.02815046	-0.06478191	-0.00158735	-0.001160406	0	1.357391E-05	0	0
25.98281	-0.03396062	-0.06903394	-0.05464722	-0.03999227	-0.4317789	-0.3159974	0	0
25.99938	-0.04512724	-0.07722915	-0.6740181	-0.4946637	-5.040102	-3.699867	0	0
26.01595	-0.05148079	-0.08190649	-0.3835012	-0.2823248	8.767817	6.408399	0	0
26.03268	-0.06441078	-0.09146013	-0.7726279	-0.5708752	-11.68468	-8.664577	0	0
26.0492	-0.07098579	-0.09633729	-0.3981979	-0.295372	11.26207	8.286561	0	0
26.06571	-0.08672925	-0.1080717	-0.9534607	-0.7106659	-16.814	-12.57558	0	0
26.08222	-0.09531556	-0.1145074	-0.5200669	-0.389801	13.12442	9.716723	0	0
26.09878	-0.09807903	-0.1165843	-0.166842	-0.125394	10.68002	7.994543	0	0
26.11535	-0.1094555	-0.125047	-0.686686	-0.5108076	-15.69073	-11.63314	0	0
26.13191	-0.1141594	-0.1285701	-0.2839581	-0.2126799	12.15505	8.99803	0	0
26.14848	-0.1136139	-0.1281565	0.0329261	0.02496384	9.564134	7.172515	0	0
26.16505	-0.1136139	-0.1281565	0	0	-0.9936544	-0.7533669	0	0
26.18162	-0.1136139	-0.1281565	0	0	0	0	0	0
26.1983	-0.1135879	-0.1281368	0.00155723	0.001180762	0.04683554	0.03551281	0	0
26.21482	-0.1135619	-0.1281565	0.001573056	-0.001192762	0.0004766921	-0.07149316	0	0
26.23132	-0.1135879	-0.1281368	-0.001573783	0.001193313	-0.09528995	0.07225312	0	0
26.24788	-0.1135619	-0.1281171	0.001568889	0.001188702	0.09503751	-0.0001394405	0	0
26.26445	-0.1132502	-0.1278021	0.01881665	0.01901767	0.5206583	0.5382033	0	0
26.28102	-0.1123408	-0.1269949	0.05489077	0.04872064	1.088719	0.8964374	0	0
26.29758	-0.1115872	-0.1263848	0.04548897	0.0368265	-0.283747	-0.3589659	0	0
26.31439	-0.1108334	-0.1257748	0.0448567	0.0362993	-0.01894674	-0.01579814	0	0
26.33072	-0.1092215	-0.124516	0.09871574	0.07709197	1.625563	1.231196	0	0
26.36392	-0.1090915	-0.124457	0.00391545	0.001776649	-1.913849	-1.520482	0	0
26.39698	-0.1090915	-0.124457	0	0	-0.05908595	-0.02681046	0	0
26.41355	-0.1090915	-0.124457	0	0	0	0	0	0
26.43047	-0.1090655	-0.1244767	0.001537304	-0.001162449	0.04591228	-0.03471705	0	0
26.44698	-0.1090655	-0.1244767	0	0	-0.04599087	0.03477648	0	0
26.46349	-0.1090655	-0.1244767	0	0	0	0	0	0
26.48	-0.1090655	-0.124516	0	-0.002382564	0	-0.07215098	0	0
26.49652	-0.1090655	-0.124516	0	0	0	0.07215098	0	0
26.51295	-0.1090655	-0.124516	0	0	0	0	0	0
26.52952	-0.1090655	-0.1244767	0	0.002374061	0	0.07193502	0	0
26.54608	-0.1090135	-0.1244373	0.003139842	0.002373885	0.09476608	-5.319626E-06	0	0
26.56265	-0.1084934	-0.1240441	0.03139436	0.02373611	0.8527721	0.6447504	0	0
26.57922	-0.1050071	-0.121411	0.2104563	0.1589518	5.40441	4.081051	0	0
26.59578	-0.0973492	-0.1156436	0.46223	0.3481217	7.598984	5.709489	0	0
26.61235	-0.09153298	-0.1112778	0.3510678	0.263523	-3.354882	-2.553194	0	0
26.62892	-0.08772167	-0.1084234	0.2300514	0.1722869	-3.652282	-2.75351	0	0
26.64562	-0.08126798	-0.1036017	0.386431	0.2887114	4.700604	3.499596	0	0
26.66213	-0.07760698	-0.1009117	0.2216934	0.162894	-4.959798	-3.788019	0	0
26.67864	-0.07512153	-0.0990226	0.1505244	0.1144107	-2.154956	-1.468046	0	0
26.69518	-0.07433645	-0.09847753	0.04746373	0.03295358	-3.118095	-2.46448	0	0
26.71175	-0.07433645	-0.09847753	0	0	-1.433696	-0.9954005	0	0
26.72832	-0.07428411	-0.0984386	0.003158905	0.002349506	0.09533594	0.07090822	0	0
26.74488	-0.07428411	-0.0984386	0	0	-0.09533594	-0.07090822	0	0
26.7617	-0.07428411	-0.0984386	0	0	0	0	0	0
26.77802	-0.07412709	-0.09828289	0.009621143	0.009540344	0.2903166	0.2878784	0	0
26.79458	-0.07397006	-0.09816612	0.009482622	0.007051677	-0.004212831	-0.07568759	0	0
26.81124	-0.07397006	-0.09812719	0	0.002337933	-0.2855287	-0.1419342	0	0
26.84428	-0.07394388	-0.09814665	0.0007920268	-0.000588891	0.01593683	-0.05889234	0	0
26.86085	-0.07391771	-0.09816612	0.001579859	-0.001175113	0.01587925	-0.01181567	0	0
26.87778	-0.07394388	-0.09818558	-0.001545866	-0.001149389	-0.09330867	0.0007679142	0	0
26.89398	-0.07391771	-0.09820504	0.001615571	-0.001201216	0.09541785	-0.001564223	0	0
26.91055	-0.07386537	-0.09824397	0.003159269	-0.002349776	0.04710957	-0.03505102	0	0
26.92712	-0.0738392	-0.09826343	0.001579859	-0.001174663	-0.04766667	0.03546498	0	0
26.94383	-0.07381302	-0.09828289	0.001566335	-0.001164607	-0.0004064171	0.0003021812	0	0
26.96025	-0.07378685	-0.09830235	0.001593804	-0.001185032	0.0008290922	-0.0006164512	0	0
26.97685	-0.07381302	-0.09828289	-0.001576411	0.001172099	-0.09599225	0.07137255	0	0
26.99338	-0.07381302	-0.09828289	0	0	0.04757891	-0.03537606	0	0
27.02652	-0.07381302	-0.09832182	0	-0.001174888	0	-0.02365695	0	0
27.0434	-0.0738392	-0.09834128	-0.001550232	-0.001152635	-0.0309933	0.0004448998	0	0
27.05965	-0.0738392	-0.09834128	0	0	0.0467861	0.03478659	0	0
27.10945	-0.0738392	-0.09834128	0	0	0	0	0	0
27.12596	-0.07381302	-0.09836075	0.001585151	-0.001179049	0.02390553	-0.01778114	0	0
27.16099	-0.07373451	-0.09845807	0.002241441	-0.002778298	0.0127335	-0.03102904	0	0
27.17724	-0.07368216	-0.09853593	0.003221281	-0.004791116	0.01910799	-0.03925225	0	0
27.19401	-0.07347277	-0.09873058	0.01248791	-0.011609	0.280653	-0.2064891	0	0
27.21052	-0.07328955	-0.09894472	0.01109606	-0.01296909	-0.04182324	-0.04086898	0	0
27.22703	-0.0732372	-0.09910047	0.003170754	-0.009432396	-0.2399875	0.1070953	0	0
27.24354	-0.07321102	-0.09923676	0.001585151	-0.008253798	-0.04801389	0.03568932	0	0
27.26007	-0.0732372	-0.09933411	-0.001583505	-0.005890026	-0.09590074	0.07154056	0	0
27.27664	-0.0733419	-0.09948988	-0.006319886	-0.009402253	-0.143109	-0.1061214	0	0
27.2932	-0.07342042	-0.09962619	-0.004740123	-0.008228537	0.04768008	0.03542486	0	0
27.32634	-0.07368216	-0.100678	-0.007899296	-0.03174222	-0.06356511	-0.4731143	0	0
27.34291	-0.07438879	-0.1029582	-0.0426526	-0.1376375	-0.6992379	-2.130618	0	0
27.35962	-0.07004312	-0.1076029	0.2599113	-0.2777952	9.08954	-4.210576	0	0
27.37614	-0.06265473	-0.1131172	0.4474068	-0.3339167	5.641738	-1.688696	0	0
27.39265	-0.05239936	-0.1207826	0.6211606	-0.4642923	5.261465	-3.947924	0	0
27.40917	-0.04546864	-0.1259716	0.4194498	-0.3140363	-6.106273	4.548614	0	0
27.42574	-0.03708825	-0.1322561	0.5058414	-0.3793335	2.61076	-1.973287	0	0
27.44231	-0.03180506	-0.1362242	0.3188939	-0.2395162	-5.642087	4.219695	0	0
27.45887	-0.02878152	-0.1384974	0.1825221	-0.1372283	-4.115947	3.08723	0	0
27.47571	-0.02549447	-0.1409707	0.1952374	-0.1469055	0.3806814	-0.289721	0	0
27.49201	-0.02562597	-0.1408718	-0.008067926	0.00607263	-6.135766	4.616888	0	0
27.50873	-0.02565227	-0.140852	-0.001572367	0.001184036	0.1966931	-0.1480323	0	0
27.52524	-0.02588895	-0.1406738	-0.01433416	0.01078878	-0.3839582	0.2889734	0	0
27.54171	-0.02615193	-0.1404759	-0.01597277	0.01202285	-0.04969079	0.03742326	0	0
27.55828	-0.02625712	-0.1403571	-0.006349343	0.007167604	0.2913412	-0.1469885	0	0
27.57484	-0.0264675	-0.1401592	-0.01270004	0.01194768	-0.1916753	0.1442714	0	0
27.59179	-0.0264938	-0.1401394	-0.001551205	0.001167304	0.3326238	-0.3216311	0	0
27.60798	-0.0264938	-0.1401394	0	0	0.04681546	-0.03522931	0	0
27.62454	-0.0264675	-0.1401592	0.001587279	-0.001194451	0.04846777	-0.0364727	0	0
27.64133	-0.0264675	-0.1401592	0	0	-0.04759188	0.03581358	0	0
27.65768	-0.0264675	-0.1401592	0	0	0	0	0	0
27.67424	-0.0264675	-0.1401592	0	0	0	0	0	0
27.69081	-0.0264675	-0.1401592	0	0	0	0	0	0
27.70738	-0.0264675	-0.1401592	0	0	0	0	0	0
27.72394	-0.0264675	-0.1401592	0	0	0	0	0	0
27.74051	-0.0264675	-0.1401592	0	0	0	0	0	0
27.75708	-0.0264675	-0.1401592	0	0	0	0	0	0
27.77364	-0.0264938	-0.1401394	-0.001587462	0.001194588	-0.04790971	0.03605275	0	0
27.79021	-0.02657269	-0.14008	-0.004761402	0.00358294	-0.09578971	0.0720806	0	0
27.80678	-0.02665158	-0.1399811	-0.004762386	0.005972942	-2.969544E-05	0.0721304	0	0
27.82334	-0.02670418	-0.139902	-0.003175037	0.004778353	0.04791182	-0.0360569	0	0
27.83991	-0.02699344	-0.1396843	-0.01746007	0.01313806	-0.4311481	0.252311	0	0
27.85648	-0.027309	-0.1394469	-0.01904482	0.01432906	-0.04782509	0.03594245	0	0
27.95588	-0.03028022	-0.1370146	-0.02989108	0.02446887	-0.09352586	0.08743431	0	0
27.97244	-0.03474917	-0.133578	-0.2698084	0.2074802	-2.068879	1.578161	0	0
27.98907	-0.03879631	-0.1305011	-0.2433618	0.1850225	0.7967408	-0.6765676	0	0
28.02233	-0.04544238	-0.1255191	-0.1998539	0.1498145	0.8721661	-0.7057859	0	0
28.03888	-0.04575751	-0.1252437	-0.01904342	0.01664253	3.63053	-2.673986	0	0
28.05562	-0.04570499	-0.125283	0.003136702	-0.002349356	0.6662143	-0.5704508	0	0
28.07213	-0.04567873	-0.1253027	0.001590341	-0.001191233	-0.04649799	0.03482395	0	0
28.08858	-0.04557369	-0.1253814	0.006388379	-0.004785734	0.1455929	-0.1090725	0	0
28.10515	-0.0454949	-0.1254404	0.00475477	-0.003561356	-0.04948473	0.03708843	0	0
28.12171	-0.04541612	-0.1255387	0.004755542	-0.005937176	2.329967E-05	-0.07169827	0	0
28.13828	-0.04499592	-0.1258535	0.02536297	-0.01899968	0.6219333	-0.3942272	0	0
28.15485	-0.04489087	-0.1259322	0.006340798	-0.004749921	-0.5740902	0.4300587	0	0
28.17142	-0.04470703	-0.1260699	0.01109657	-0.008313485	0.1435293	-0.1075486	0	0
28.18798	-0.04470703	-0.1260699	0	0	-0.3349143	0.2509159	0	0
28.20455	-0.04470703	-0.1260699	0	0	0	0	0	0
28.22111	-0.04470703	-0.1260699	0	0	0	0	0	0
28.23768	-0.04470703	-0.1260699	0	0	0	0	0	0
28.25426	-0.04470703	-0.1260699	0	0	0	0	0	0
28.27081	-0.04468077	-0.1260896	0.001587083	-0.001189524	0.04789826	-0.03589991	0	0
28.28738	-0.04468077	-0.1260896	0	0	-0.04792861	0.03592266	0	0
28.30395	-0.04465451	-0.1261093	0.001585256	-0.001187255	0.04784587	-0.0358335	0	0
28.32051	-0.04465451	-0.1261093	0	0	-0.04784311	0.03583144	0	0
28.33708	-0.04465451	-0.1261093	0	0	0	0	0	0
28.35365	-0.04465451	-0.1261093	0	0	0	0	0	0
28.37035	-0.04465451	-0.1261093	0	0	0	0	0	0
28.38686	-0.04465451	-0.1261093	0	0	0	0	0	0
28.40335	-0.04462824	-0.126129	0.001592958	-0.001193928	0.04827566	-0.03618278	0	0
28.41991	-0.04462824	-0.126129	0	0	-0.04819209	0.03612014	0	0
28.43648	-0.04460198	-0.1261486	0.001585256	-0.001187255	0.04784311	-0.03583144	0	0
28.45341	-0.04454945	-0.126188	0.003103343	-0.002325086	0.04532544	-0.03397215	0	0
28.46962	-0.04452319	-0.1262077	0.001620556	-0.00121444	-0.04475059	0.03351935	0	0
28.48643	-0.04449692	-0.1262273	0.00156188	-0.001169748	-0.001776788	0.001353328	0	0
28.50275	-0.04449692	-0.1262273	0	0	-0.04714033	0.0353051	0	0
28.51932	-0.04452319	-0.1262077	-0.001585256	0.001187255	-0.04820663	0.03610369	0	0
28.53597	-0.04452319	-0.1262077	0	0	0.04772224	-0.03574091	0	0
28.55245	-0.04452319	-0.1262077	0	0	0	0	0	0
28.56902	-0.04452319	-0.1262077	0	0	0	0	0	0
28.58558	-0.04452319	-0.1262077	0	0	0	0	0	0
28.60215	-0.04452319	-0.1262077	0	0	0	0	0	0
28.61872	-0.04452319	-0.1262077	0	0	0	0	0	0
28.63528	-0.04452319	-0.1262077	0	0	0	0	0	0
28.65185	-0.04452319	-0.1262077	0	0	0	0	0	0
28.66856	-0.04452319	-0.1262077	0	0	0	0	0	0
28.68498	-0.04452319	-0.1262077	0	0	0	0	0	0
28.70158	-0.04452319	-0.1262077	0	0	0	0	0	0
28.71811	-0.04452319	-0.1262077	0	0	0	0	0	0
28.73468	-0.04452319	-0.1262077	0	0	0	0	0	0
28.75125	-0.04452319	-0.1262077	0	0	0	0	0	0
28.76781	-0.04452319	-0.1262077	0	0	0	0	0	0
28.80103	-0.04452319	-0.1262077	0	0	0	0	0	0
28.8176	-0.04452319	-0.1262077	0	0	0	0	0	0
28.83418	-0.04452319	-0.1262077	0	0	0	0	0	0
28.85073	-0.04452319	-0.1262077	0	0	0	0	0	0
28.8673	-0.04452319	-0.1262077	0	0	0	0	0	0
28.88387	-0.04452319	-0.1262077	0	0	0	0	0	0
28.90043	-0.04452319	-0.1262077	0	0	0	0	0	0
28.93357	-0.04452319	-0.1262077	0	0	0	0	0	0
28.95013	-0.04452319	-0.1262077	0	0	0	0	0	0
28.9667	-0.04452319	-0.1262077	0	0	0	0	0	0
28.98329	-0.04452319	-0.1262077	0	0	0	0	0	0
28.99983	-0.04452319	-0.1262077	0	0	0	0	0	0
29.0164	-0.04452319	-0.1262077	0	0	0	0	0	0
29.03332	-0.04452319	-0.1262077	0	0	0	0	0	0
29.04954	-0.04452319	-0.1262077	0	0	0	0	0	0
29.0661	-0.04454945	-0.126188	-0.001585481	0.001188155	-0.04836777	0.03624667	0	0
29.08286	-0.04454945	-0.126188	0	0	0.04758148	-0.03565743	0	0
29.09937	-0.04454945	-0.126188	0	0	0	0	0	0
29.1158	-0.04454945	-0.126188	0	0	0	0	0	0
29.13237	-0.04454945	-0.126188	0	0	0	0	0	0
29.1494	-0.04454945	-0.126188	0	0	0	0	0	0
29.1655	-0.04454945	-0.126188	0	0	0	0	0	0
29.18243	-0.04454945	-0.126188	0	0	0	0	0	0
29.19864	-0.04454945	-0.126188	0	0	0	0	0	0
29.2152	-0.04454945	-0.126188	0	0	0	0	0	0
29.23177	-0.04457572	-0.1261683	-0.001585073	0.001187119	-0.0478376	0.03582731	0	0
29.24834	-0.04457572	-0.1261683	0	0	0.0478376	-0.03582731	0	0
29.2649	-0.04457572	-0.1261683	0	0	0	0	0	0
29.2815	-0.04457572	-0.1261683	0	0	0	0	0	0
29.29804	-0.04457572	-0.1261683	0	0	0	0	0	0
29.3146	-0.04457572	-0.1261683	0	0	0	0	0	0
29.33117	-0.04457572	-0.1261683	0	0	0	0	0	0
29.34774	-0.04457572	-0.1261683	0	0	0	0	0	0
29.3643	-0.04460198	-0.1261486	-0.001585256	0.001188155	-0.04784587	0.03586065	0	0
29.38107	-0.04460198	-0.1261486	0	0	0.0475584	-0.03564519	0	0
29.39758	-0.04462824	-0.126129	-0.001590382	0.001191095	-0.04778877	0.03579074	0	0
29.41409	-0.04462824	-0.126129	0	0	0.04815862	-0.03606774	0	0
29.43061	-0.04462824	-0.126129	0	0	0	0	0	0
29.44714	-0.04462824	-0.126129	0	0	0	0	0	0
29.4637	-0.04462824	-0.126129	0	0	0	0	0	0
29.48027	-0.04462824	-0.126129	0	0	0	0	0	0
29.49684	-0.04462824	-0.126129	0	0	0	0	0	0
29.5134	-0.04462824	-0.126129	0	0	0	0	0	0
29.52997	-0.04462824	-0.126129	0	0	0	0	0	0
29.5631	-0.04470703	-0.1261093	-0.00237802	0.0005941116	-0.0478477	0.01195401	0	0
29.57971	-0.04470703	-0.1261093	0	0	0.04780734	-0.01194392	0	0
29.59624	-0.04489087	-0.1260109	-0.01112474	0.005953154	-0.3357454	0.1796665	0	0
29.6128	-0.04510098	-0.1258929	-0.01268182	0.007125331	-0.04705233	0.03542123	0	0
29.62937	-0.04554743	-0.1255977	-0.02694777	0.01781333	-0.4305473	0.3225644	0	0
29.64594	-0.04670286	-0.124811	-0.06973401	0.0474843	-1.291217	0.8954201	0	0
29.66277	-0.05326536	-0.1202525	-0.3898743	0.2708136	-9.584611	6.686207	0	0
29.67929	-0.06771211	-0.1117668	-0.8748279	0.5138555	-14.543	7.288451	0	0
29.6958	-0.07925469	-0.1099088	-0.699207	0.1125496	5.31831	-12.15271	0	0
29.79504	-0.2497284	-0.1129997	-1.717704	-0.0311437	-8.798873	-1.241377	0	0
29.81161	-0.2715195	-0.1131367	-1.315163	-0.00826981	3.475752	0.197505	0	0
29.82817	-0.2835192	-0.1135087	-0.7243883	-0.0224543	17.82961	-0.4280888	0	0
29.8449	-0.2913602	-0.1134304	-0.4686966	0.004681176	7.679658	0.8150095	0	0
29.86131	-0.2974334	-0.1129214	-0.3702022	0.03102474	2.972564	0.7950502	0	0
29.87793	-0.3018776	-0.1096547	-0.2674201	0.1965678	3.112363	5.012836	0	0
29.89444	-0.3042269	-0.1077006	-0.1422436	0.1183189	3.777833	-2.361556	0	0
29.91101	-0.3079594	-0.1046551	-0.2252684	0.1838037	-2.509447	1.979298	0	0
29.92758	-0.3100371	-0.1029582	-0.1254264	0.102436	3.013237	-2.455685	0	0
29.94448	-0.3100848	-0.1029192	-0.00282456	0.002307076	3.663228	-2.991757	0	0
29.96099	-0.3100848	-0.1029192	0	0	0.08454458	-0.0690553	0	0
29.97728	-0.310061	-0.1029387	0.001465358	-0.001196892	0.04467984	-0.03649411	0	0
29.99401	-0.310061	-0.1029387	0	0	-0.04437531	0.03624538	0	0
30.01052	-0.3100371	-0.1029582	0.001445723	-0.001180854	0.04348931	-0.0355217	0	0
30.02698	-0.3099655	-0.1029777	0.004350441	-0.001184961	0.08811088	-0.0001245599	0	0
30.04354	-0.3099178	-0.1030167	0.002882124	-0.002354095	-0.04446745	-0.03540682	0	0
30.06011	-0.3098939	-0.1030362	0.001441062	-0.001177047	-0.04349635	0.03552745	0	0
30.07667	-0.30987	-0.1030557	0.001440896	-0.001176912	-5.006914E-06	4.089858E-06	0	0
30.09358	-0.30987	-0.1030557	0	0	-0.04305018	0.03516303	0	0
30.10981	-0.30987	-0.1030557	0	0	0	0	0	0
30.12637	-0.30987	-0.1030557	0	0	0	0	0	0
30.14294	-0.30987	-0.1030557	0	0	0	0	0	0
30.15963	-0.30987	-0.1030557	0	0	0	0	0	0
30.17607	-0.30987	-0.1030557	0	0	0	0	0	0
30.19265	-0.30987	-0.1030557	0	0	0	0	0	0
30.20966	-0.30987	-0.1030557	0	0	0	0	0	0
30.22577	-0.30987	-0.1030557	0	0	0	0	0	0
30.24234	-0.30987	-0.1030557	0	0	0	0	0	0
30.2592	-0.3098462	-0.1030752	0.001416275	-0.001156802	0.04237736	-0.03461347	0	0
30.27547	-0.3098462	-0.1030752	0	0	-0.04274573	0.03491436	0	0
30.29222	-0.3098462	-0.1030752	0	0	0	0	0	0
30.30861	-0.3098462	-0.1030752	0	0	0	0	0	0
30.32526	-0.3098223	-0.1030947	0.001433634	-0.00117098	0.04338954	-0.03544021	0	0
30.34174	-0.3097984	-0.1030752	0.0014484	0.001183041	0.000445668	0.07104858	0	0
30.35831	-0.3097745	-0.1030557	0.00144073	0.001176776	-0.000232059	-0.0001895443	0	0
30.37487	-0.3097745	-0.1030557	0	0	-0.04348133	-0.03551518	0	0
30.40801	-0.3097745	-0.1030557	0	0	0	0	0	0
30.42457	-0.3097745	-0.1030557	0	0	0	0	0	0
30.44132	-0.3097745	-0.1030557	0	0	0	0	0	0
30.45771	-0.3097507	-0.1030752	0.00145683	-0.001189926	0.04396721	-0.03591204	0	0
30.47434	-0.3097268	-0.1030947	0.001434784	-0.00117192	-0.0006675583	0.0005452554	0	0
30.49086	-0.3097029	-0.1031142	0.001445723	-0.001181306	0.0003299761	-0.0002831357	0	0
30.50741	-0.3096791	-0.1031337	0.001442391	-0.001178133	-0.0001007886	9.597174E-05	0	0
30.52397	-0.3096791	-0.1031337	0	0	-0.04355401	0.03557454	0	0
30.57367	-0.3096791	-0.1031337	0	0	0	0	0	0
30.62337	-0.3096313	-0.1030947	0.0009605975	0.0007847578	0.009663816	0.007894831	0	0
30.63997	-0.3094881	-0.1030167	0.008631466	0.004700072	0.115707	0.0590584	0	0
30.65651	-0.3093448	-0.1029387	0.008662135	0.004715791	0.0009256571	0.0004744376	0	0
30.67307	-0.3089866	-0.1028022	0.02162064	0.008237933	0.3914264	0.1063903	0	0
30.69002	-0.3080072	-0.1023539	0.05780406	0.02646172	1.079712	0.543797	0	0
30.70621	-0.307051	-0.1016132	0.05906132	0.04574841	0.03794428	0.5820733	0	0
30.72278	-0.3033643	-0.09865271	0.2225038	0.1786753	4.989283	4.057757	0	0
30.73934	-0.3000774	-0.09598724	0.1984186	0.1609069	-0.7268931	-0.5362513	0	0
30.75605	-0.2925911	-0.08986873	0.4482093	0.3663194	7.508443	6.174483	0	0
30.77256	-0.2848528	-0.0836674	0.4684884	0.3754371	0.6104435	0.2744597	0	0
30.78904	-0.2749842	-0.07581978	0.5988408	0.4762053	3.950415	3.053849	0	0
30.80561	-0.2529132	-0.05861721	1.33221	1.038349	22.1919	17.01057	0	0
30.82218	-0.2425748	-0.05076245	0.6241004	0.4741688	-21.37202	-17.02797	0	0
30.83874	-0.2207633	-0.03505839	1.31654	0.9478988	20.89908	14.29802	0	0
30.85562	-0.2029561	-0.02487434	1.055285	0.6035243	-7.812286	-10.2978	0	0
30.87188	-0.1968388	-0.02187869	0.3762143	0.1842326	-20.49441	-12.65425	0	0
30.88844	-0.1597327	-0.008640739	2.239985	0.799136	56.77818	18.73251	0	0
30.90501	-0.1414439	-0.005113483	1.103919	0.2129056	-34.2885	-17.69349	0	0
30.92158	-0.1237331	-0.003963701	1.069025	0.069401	-1.053106	-4.330976	0	0
30.93818	-0.1073489	-0.003379539	0.9867928	0.03518312	-2.479059	-1.03157	0	0
30.95471	-0.08957544	-0.002211525	1.075284	0.07066416	2.67082	1.070882	0	0
30.97128	-0.08064053	-0.00111924	0.5393121	0.0659305	-16.19431	-0.1430268	0	0
30.98784	-0.07475517	-0.00110041	0.3552821	0.001136673	-5.554355	-1.955594	0	0
31.00472	-0.074729	-0.001156899	0.001550141	-0.003346465	-10.57641	-0.1340437	0	0
31.02098	-0.074729	-0.00111924	0	0.002317123	-0.04678605	0.1709372	0	0
31.03754	-0.074729	-0.00111924	0	0	0	-0.07060148	0	0
31.05426	-0.07470284	-0.001138069	0.001565353	-0.001126434	0.04703126	-0.0338439	0	0
31.07077	-0.07470284	-0.001138069	0	0	-0.04710685	0.03389829	0	0
31.08724	-0.0746505	-0.001175728	0.00317756	-0.002286281	0.09633147	-0.06931131	0	0
31.10381	-0.07459816	-0.001213388	0.003159269	-0.002273141	-0.0005536222	0.0003977045	0	0
31.12038	-0.07451965	-0.001269878	0.004739224	-0.003410154	0.04768588	-0.03431708	0	0
31.13732	-0.07381302	-0.001816001	0.04171094	-0.03223661	1.103423	-0.8603271	0	0
31.15383	-0.0724519	-0.002795481	0.08242287	-0.05931271	1.21692	-0.8093315	0	0
31.18858	-0.07203305	-0.003172281	0.01205344	-0.01084317	-1.372692	0.9454923	0	0
31.20515	-0.07208541	-0.003209963	-0.003160981	-0.002274781	-0.2964889	0.1669754	0	0
31.22171	-0.07211158	-0.003228805	-0.001579859	-0.001137266	0.04772111	0.03433222	0	0
31.23829	-0.07213777	-0.003209963	-0.001579763	0.001136874	2.891047E-06	0.06862184	0	0
31.2549	-0.07211158	-0.003228805	0.001575773	-0.001134002	0.09508104	-0.0684249	0	0
31.32111	-0.07211158	-0.003228805	0	0	-0.0190254	0.0136916	0	0
31.33796	-0.07211158	-0.003228805	0	0	0	0	0	0
31.35425	-0.07211158	-0.003228805	0	0	0	0	0	0
31.42802	-0.07208541	-0.003247646	0.0003547831	-0.0002553917	0.003939273	-0.002835697	0	0
31.44453	-0.07208541	-0.003247646	0	0	-0.003929536	0.002828689	0	0
31.47756	-0.07208541	-0.003247646	0	0	0	0	0	0
31.49413	-0.07208541	-0.003247646	0	0	0	0	0	0
31.5107	-0.07208541	-0.003247646	0	0	0	0	0	0
31.52727	-0.07208541	-0.003247646	0	0	0	0	0	0
31.54383	-0.07208541	-0.003247646	0	0	0	0	0	0
31.5604	-0.07208541	-0.003247646	0	0	0	0	0	0
31.57697	-0.07208541	-0.003247646	0	0	0	0	0	0
31.59364	-0.07208541	-0.003247646	0	0	0	0	0	0
31.61015	-0.07208541	-0.003247646	0	0	0	0	0	0
31.62667	-0.07208541	-0.003247646	0	0	0	0	0	0
31.64323	-0.07208541	-0.003247646	0	0	0	0	0	0
31.6598	-0.07208541	-0.003247646	0	0	0	0	0	0
31.67637	-0.07208541	-0.003247646	0	0	0	0	0	0
31.69294	-0.07205923	-0.003266488	0.001580127	-0.00113715	0.04768832	-0.03431924	0	0
31.7095	-0.07205923	-0.003266488	0	0	-0.04769107	0.03432122	0	0
31.74264	-0.07205923	-0.003266488	0	0	0	0	0	0
31.7592	-0.07205923	-0.003266488	0	0	0	0	0	0
31.77577	-0.07205923	-0.003266488	0	0	0	0	0	0
31.8089	-0.07203305	-0.003285329	0.0007902909	-0.0005687455	0.0159019	-0.01144406	0	0
31.82547	-0.07203305	-0.003285329	0	0	-0.01590252	0.0114445	0	0
31.84204	-0.07200687	-0.003304171	0.001580309	-0.001137294	0.04769382	-0.03432361	0	0
31.8586	-0.07200687	-0.003304171	0	0	-0.04769382	0.03432361	0	0
31.89174	-0.07200687	-0.003379539	0	-0.00227461	0	-0.04576525	0	0
31.90837	-0.07198069	-0.003398382	0.00157406	-0.001133162	0.03163131	0.02293781	0	0
31.92488	-0.07195451	-0.003454909	0.00158542	-0.003423044	0.0003427467	-0.06909288	0	0
31.94189	-0.07192833	-0.003511438	0.001539025	-0.003322929	-0.001383863	0.00298624	0	0
31.958	-0.07190215	-0.003530281	0.001625022	-0.001169545	0.0025963	0.06501171	0	0
31.97457	-0.07190215	-0.003567967	0	-0.00227451	-0.0497245	-0.03381111	0	0
31.99114	-0.07190215	-0.003567967	0	0	0	0.06864484	0	0
32.02427	-0.07190215	-0.003605654	0	-0.001137458	0	-0.02288746	0	0
32.04084	-0.07192833	-0.003624498	-0.001580309	-0.001137393	-0.0317971	1.318755E-06	0	0
32.05747	-0.07198069	-0.003662185	-0.003147572	-0.002265439	-0.04720229	-0.03397409	0	0
32.07399	-0.07198069	-0.003662185	0	0	0.09495019	0.0683396	0	0
32.09053	-0.07203305	-0.003699873	-0.00316381	-0.002277478	-0.09569331	-0.06888511	0	0
32.1071	-0.07203305	-0.003699873	0	0	0.09553898	0.06877401	0	0
32.12367	-0.07203305	-0.003699873	0	0	0	0	0	0
32.14024	-0.07203305	-0.003699873	0	0	0	0	0	0
32.15681	-0.07205923	-0.003718717	-0.001579581	-0.001136911	-0.04766089	-0.03430416	0	0
32.17406	-0.07205923	-0.003718717	0	0	0.04669348	0.03360786	0	0
32.19007	-0.07205923	-0.003718717	0	0	0	0	0	0
32.20658	-0.07205923	-0.003718717	0	0	0	0	0	0
32.22307	-0.07205923	-0.003756406	0	-0.002285938	0	-0.06926885	0	0
32.23964	-0.07208541	-0.00381294	-0.001580309	-0.003412375	-0.0478094	-0.03407836	0	0
32.25621	-0.07208541	-0.00381294	0	0	0.04769382	0.1029857	0	0
32.27277	-0.07211158	-0.003831784	-0.001579859	-0.001137477	-0.04768024	-0.03432913	0	0
32.30615	-0.07216395	-0.003907165	-0.00156875	-0.002258336	0.0002224219	-0.02244148	0	0
32.32316	-0.07216395	-0.003907165	0	0	0.0311332	0.04481862	0	0
32.33904	-0.07216395	-0.003907165	0	0	0	0	0	0
32.3556	-0.07213777	-0.00392601	0.001580309	-0.001137505	0.04871454	-0.0350647	0	0
32.3722	-0.07216395	-0.003944856	-0.001577766	-0.001135703	-0.09523413	5.435099E-05	0	0
32.38874	-0.07219012	-0.003963701	-0.00158241	-0.001139342	-0.0001401504	-0.000109819	0	0
32.4053	-0.07226866	-0.00405793	-0.004740477	-0.005687695	-0.09538752	-0.1373803	0	0
32.42223	-0.0724519	-0.004189856	-0.01082648	-0.007794342	-0.1817096	-0.06289805	0	0
32.43843	-0.0725828	-0.004321787	-0.008077331	-0.008141469	0.08297917	-0.01047753	0	0
32.455	-0.07273985	-0.004585665	-0.009480054	-0.01592769	-0.04280242	-0.2375871	0	0
32.47157	-0.07284456	-0.004887265	-0.006320336	-0.01820461	0.0953605	-0.06871763	0	0
32.48828	-0.07253044	-0.005792232	0.01880039	-0.05416249	0.7549292	-1.080608	0	0
32.50479	-0.06304791	-0.0173527	0.5742179	-0.700048	16.71826	-19.44138	0	0
32.53985	-0.05350152	-0.02432428	0.2723098	-0.1988638	-5.854233	9.718355	0	0
32.55642	-0.04586256	-0.02984816	0.461089	-0.3334217	3.65679	-2.606483	0	0
32.57298	-0.03598446	-0.03700025	0.596243	-0.4317009	4.078955	-2.966072	0	0
32.58955	-0.02883411	-0.04218463	0.4314965	-0.3128579	-4.971487	3.586276	0	0
32.60686	-0.02175972	-0.04732069	0.4086621	-0.2966921	-0.6739359	0.4771193	0	0
32.62288	-0.01305189	-0.05365283	0.5437603	-0.3954101	4.053935	-2.962265	0	0
32.63925	-0.007710373	-0.05754311	0.3262457	-0.2376078	-6.716153	4.872431	0	0
32.65582	-0.004078925	-0.06019073	0.2191947	-0.1598109	-3.249889	2.361782	0	0
32.68895	-0.004368393	-0.0599796	-0.008736178	0.006371941	-4.585978	3.343605	0	0
32.70552	-0.004368393	-0.0599796	0	0	0.1757858	-0.1282135	0	0
32.72208	-0.004368393	-0.0599796	0	0	0	0	0	0
32.73896	-0.004368393	-0.0599796	0	0	0	0	0	0
32.75522	-0.004342078	-0.05999879	0.001618212	-0.001180213	0.04883773	-0.03561891	0	0
32.77198	-0.004342078	-0.05999879	0	0	-0.04900134	0.03573823	0	0
32.78835	-0.004342078	-0.05999879	0	0	0	0	0	0
32.80492	-0.004342078	-0.05999879	0	0	0	0	0	0
32.82148	-0.004342078	-0.05999879	0	0	0	0	0	0
32.83805	-0.004342078	-0.05999879	0	0	0	0	0	0
32.85504	-0.004342078	-0.05999879	0	0	0	0	0	0
32.87119	-0.004342078	-0.05999879	0	0	0	0	0	0
32.88775	-0.004394709	-0.05999879	-0.003176807	0	-0.09710599	0	0	0
32.90432	-0.004368393	-0.0599796	0.001588404	0.001158473	0.1438144	0.0349628	0	0
32.92089	-0.004421024	-0.05994121	-0.003176779	0.002317172	-0.1438135	0.03496959	0	0
32.93745	-0.004473655	-0.05990282	-0.003176807	0.002316947	-8.432211E-07	-6.78793E-06	0	0
32.95402	-0.004657861	-0.05976848	-0.01111871	0.008109089	-0.2396872	0.1748072	0	0
32.97059	-0.004894698	-0.05959576	-0.01429549	0.01042536	-0.0958754	0.06990522	0	0
32.98716	-0.004921013	-0.05957657	-0.001588404	0.001158249	0.3835007	-0.279682	0	0
33.00372	-0.004947328	-0.05955738	-0.001588376	0.001158473	8.467346E-07	6.78793E-06	0	0
33.02029	-0.005105219	-0.05944224	-0.009530311	0.006949716	-0.2396881	0.1747801	0	0
33.03686	-0.005263109	-0.05932711	-0.009530282	0.006949491	8.713285E-07	-6.78793E-06	0	0
33.12616	-0.009368147	-0.05633522	-0.04596997	0.03350441	-0.3442075	0.2508364	0	0
33.14275	-0.009368147	-0.05633522	0	0	0.4341205	-0.3164012	0	0
33.15929	-0.00939446	-0.05631605	-0.001590489	0.001158725	-0.04799552	0.03496637	0	0
33.17628	-0.009447088	-0.05627771	-0.003098809	0.002257369	-0.04498773	0.03276855	0	0
33.19242	-0.009762848	-0.0560477	-0.01955461	0.01424425	-0.4966942	0.3618064	0	0
33.20899	-0.01192049	-0.05447644	-0.1302354	0.09484147	-3.383198	2.463629	0	0
33.22556	-0.01731406	-0.05055201	-0.3255567	0.2368795	-5.894808	4.286716	0	0
33.24232	-0.02509999	-0.04493294	-0.464505	0.3352307	-4.168992	2.95092	0	0
33.25883	-0.03006988	-0.0413263	-0.3010228	0.2184519	4.913539	-3.509845	0	0
33.27534	-0.03332976	-0.0389624	-0.197403	0.1431468	3.137727	-2.280326	0	0
33.29182	-0.03424976	-0.03833361	-0.05582705	0.03815579	4.29105	-3.182191	0	0
33.30839	-0.03648381	-0.03675269	-0.1348473	0.09542475	-2.391166	1.732969	0	0
33.32496	-0.03729848	-0.03620051	-0.04917396	0.03332949	2.585625	-1.874038	0	0
33.34153	-0.03737732	-0.03618147	-0.00475869	0.001149254	1.340456	-0.9712015	0	0
33.35809	-0.03742988	-0.03621955	-0.003172535	-0.002298508	0.04787026	-0.1040537	0	0
33.37492	-0.03748244	-0.0362957	-0.003124114	-0.004526954	0.001450166	-0.06673983	0	0
33.39123	-0.03753499	-0.03637186	-0.003222017	-0.004669046	-0.00295471	-0.004288356	0	0
33.40779	-0.03769267	-0.0364861	-0.009517156	-0.006895525	-0.1914645	-0.0677176	0	0
33.42436	-0.03968967	-0.03793354	-0.1205395	-0.08736715	-3.35066	-2.428638	0	0
33.44093	-0.05006339	-0.04546763	-0.6261591	-0.4547588	-15.25963	-11.0879	0	0
33.47406	-0.05861698	-0.05170008	-0.2581776	-0.1881173	7.404371	5.365249	0	0
33.49063	-0.06676903	-0.05765817	-0.4920582	-0.3596311	-4.706048	-3.45113	0	0
33.50719	-0.07276604	-0.06209162	-0.3619802	-0.2676035	3.925761	2.777398	0	0
33.52376	-0.08030064	-0.0677057	-0.4547894	-0.3388665	-2.800986	-2.15072	0	0
