Time	Pos X	Pos Y	Vel X	Vel Y	Acc X	Acc YForce X	Force Y
0.01612698	-0.008868189	-0.02861345	0.0001469231	0.0004740514	-2.434825E-06	-7.856028E-06	0	0
0.04701349	-0.008868189	-0.02861345	0	0	2.435385E-06	7.857835E-06	0	0
0.06358891	-0.008868189	-0.02861345	0	0	0	0	0	0
0.08015446	-0.008868189	-0.02861345	0	0	0	0	0	0
0.09712622	-0.008868189	-0.02861345	0	0	0	0	0	0
0.1135793	-0.008868189	-0.02861345	0	0	0	0	0	0
0.1298511	-0.008868189	-0.02861345	0	0	0	0	0	0
0.1464166	-0.008868189	-0.02861345	0	0	0	0	0	0
0.1630986	-0.008868189	-0.02861345	0	0	0	0	0	0
0.1795505	-0.008841875	-0.02863244	0.001599429	-0.001154369	0.04827173	-0.03483957	0	0
0.1961196	-0.008841875	-0.02863244	0	0	-0.04843676	0.03495868	0	0
0.2126824	-0.008841875	-0.02863244	0	0	0	0	0	0
0.2292476	-0.008841875	-0.02863244	0	0	0	0	0	0
0.2458171	-0.008841875	-0.02863244	0	0	0	0	0	0
0.2623834	-0.008841875	-0.02863244	0	0	0	0	0	0
0.2789497	-0.008841875	-0.02863244	0	0	0	0	0	0
0.2955137	-0.008841875	-0.02863244	0	0	0	0	0	0
0.3120828	-0.008841875	-0.02863244	0	0	0	0	0	0
0.32865	-0.008841875	-0.02863244	0	0	0	0	0	0
0.3452187	-0.008841875	-0.02863244	0	0	0	0	0	0
0.3617838	-0.008841875	-0.02863244	0	0	0	0	0	0
0.3783498	-0.008841875	-0.02863244	0	0	0	0	0	0
0.3949169	-0.008841875	-0.02863244	0	0	0	0	0	0
0.4114852	-0.008841875	-0.02863244	0	0	0	0	0	0
0.4282864	-0.008841875	-0.02863244	0	0	0	0	0	0
0.4448003	-0.008841875	-0.02863244	0	0	0	0	0	0
0.4611818	-0.008841875	-0.02863244	0	0	0	0	0	0
0.4778177	-0.008841875	-0.02863244	0	0	0	0	0	0
0.5108812	-0.008841875	-0.02863244	0	0	0	0	0	0
0.5465763	-0.008841875	-0.02863244	0	0	0	0	0	0
0.5798925	-0.008841875	-0.02863244	0	0	0	0	0	0
0.5962741	-0.008841875	-0.02863244	0	0	0	0	0	0
0.6129392	-0.008841875	-0.02863244	0	0	0	0	0	0
0.629406	-0.008841875	-0.02863244	0	0	0	0	0	0
0.6459736	-0.008841875	-0.02863244	0	0	0	0	0	0
0.6625403	-0.008841875	-0.02863244	0	0	0	0	0	0
0.6791071	-0.008841875	-0.02863244	0	0	0	0	0	0
0.6956726	-0.008841875	-0.02863244	0	0	0	0	0	0
0.7122406	-0.008841875	-0.02863244	0	0	0	0	0	0
0.7288077	-0.008841875	-0.02863244	0	0	0	0	0	0
0.7453744	-0.008841875	-0.02863244	0	0	0	0	0	0
0.7620237	-0.008841875	-0.02863244	0	0	0	0	0	0
0.7785068	-0.008841875	-0.02863244	0	0	0	0	0	0
0.7950735	-0.008841875	-0.02863244	0	0	0	0	0	0
0.8116383	-0.008841875	-0.02863244	0	0	0	0	0	0
0.8282066	-0.008841875	-0.02863244	0	0	0	0	0	0
0.8447734	-0.008841875	-0.02863244	0	0	0	0	0	0
0.8613389	-0.008841875	-0.02863244	0	0	0	0	0	0
0.8781078	-0.008841875	-0.02863244	0	0	0	0	0	0
0.8944716	-0.008841875	-0.02863244	0	0	0	0	0	0
0.9111241	-0.008841875	-0.02863244	0	0	0	0	0	0
0.9276079	-0.008841875	-0.02863244	0	0	0	0	0	0
0.9441727	-0.008841875	-0.02863244	0	0	0	0	0	0
0.9607378	-0.008815561	-0.02865143	0.001588491	-0.001146475	0.04794732	-0.03460543	0	0
0.9773049	-0.008815561	-0.02865143	0	0	-0.04794396	0.034603	0	0
0.9938709	-0.008815561	-0.02865143	0	0	0	0	0	0
1.010438	-0.008789247	-0.02867042	0.001588393	-0.001146364	0.04794039	-0.0345992	0	0
1.027004	-0.008789247	-0.02867042	0	0	-0.0479397	0.0345987	0	0
1.043714	-0.008789247	-0.02867042	0	0	0	0	0	0
1.060227	-0.008762933	-0.02868942	0.001593577	-0.001150259	0.04796656	-0.03462271	0	0
1.076705	-0.008762933	-0.02868942	0	0	-0.04830455	0.03486667	0	0
1.093271	-0.008762933	-0.02868942	0	0	0	0	0	0
1.109838	-0.008762933	-0.02868942	0	0	0	0	0	0
1.126404	-0.008762933	-0.02868942	0	0	0	0	0	0
1.142972	-0.008762933	-0.02868942	0	0	0	0	0	0
1.159538	-0.008762933	-0.02868942	0	0	0	0	0	0
1.178115	-0.008762933	-0.02868942	0	0	0	0	0	0
1.194683	-0.008762933	-0.02868942	0	0	0	0	0	0
1.211334	-0.008762933	-0.02868942	0	0	0	0	0	0
1.227817	-0.008762933	-0.02868942	0	0	0	0	0	0
1.244385	-0.008762933	-0.02868942	0	0	0	0	0	0
1.260951	-0.008762933	-0.02868942	0	0	0	0	0	0
1.277517	-0.008762933	-0.02868942	0	0	0	0	0	0
1.294083	-0.008762933	-0.02868942	0	0	0	0	0	0
1.31065	-0.008762933	-0.02868942	0	0	0	0	0	0
1.327414	-0.008789247	-0.02870841	-0.001569566	-0.001132816	-0.04708989	-0.03398659	0	0
1.343785	-0.008789247	-0.02870841	0	0	0.04736824	0.03418748	0	0
1.360446	-0.008789247	-0.02870841	0	0	0	0	0	0
1.376918	-0.008789247	-0.02870841	0	0	0	0	0	0
1.393483	-0.008762933	-0.0287274	0.001588486	-0.001146471	0.04808296	-0.03470333	0	0
1.41005	-0.008762933	-0.0287274	0	0	-0.04794421	0.03460319	0	0
1.426617	-0.008762933	-0.0287274	0	0	0	0	0	0
1.443185	-0.008762933	-0.0287274	0	0	0	0	0	0
1.460009	-0.008762933	-0.0287274	0	0	0	0	0	0
1.476317	-0.008762933	-0.0287274	0	0	0	0	0	0
1.492884	-0.008762933	-0.0287274	0	0	0	0	0	0
1.50945	-0.008762933	-0.0287274	0	0	0	0	0	0
1.542583	-0.008762933	-0.0287274	0	0	0	0	0	0
1.592283	-0.00873662	-0.02874639	0.0005294508	-0.0003821625	0.006391763	-0.004613634	0	0
1.60885	-0.00873662	-0.02874639	0	0	-0.007989716	0.005767051	0	0
1.625626	-0.00873662	-0.02874639	0	0	0	0	0	0
1.642138	-0.00873662	-0.02874639	0	0	0	0	0	0
1.65855	-0.00873662	-0.02874639	0	0	0	0	0	0
1.675162	-0.00873662	-0.02874639	0	0	0	0	0	0
1.691683	-0.00873662	-0.02874639	0	0	0	0	0	0
1.70825	-0.00873662	-0.02874639	0	0	0	0	0	0
1.725197	-0.00873662	-0.02874639	0	0	0	0	0	0
1.741383	-0.00873662	-0.02874639	0	0	0	0	0	0
1.75795	-0.00873662	-0.02874639	0	0	0	0	0	0
1.774518	-0.00873662	-0.02874639	0	0	0	0	0	0
1.791083	-0.00873662	-0.02874639	0	0	0	0	0	0
1.80765	-0.00873662	-0.02874639	0	0	0	0	0	0
1.824217	-0.00873662	-0.02874639	0	0	0	0	0	0
1.840786	-0.00873662	-0.02874639	0	0	0	0	0	0
1.857351	-0.00873662	-0.02874639	0	0	0	0	0	0
1.873918	-0.00873662	-0.02874639	0	0	0	0	0	0
1.890484	-0.00873662	-0.02874639	0	0	0	0	0	0
1.90705	-0.00873662	-0.02874639	0	0	0	0	0	0
1.942013	-0.00873662	-0.02874639	0	0	0	0	0	0
1.95858	-0.00873662	-0.02874639	0	0	0	0	0	0
1.975148	-0.00873662	-0.02874639	0	0	0	0	0	0
1.991713	-0.00873662	-0.02874639	0	0	0	0	0	0
2.008396	-0.00873662	-0.02874639	0	0	0	0	0	0
2.024908	-0.00873662	-0.02874639	0	0	0	0	0	0
2.04142	-0.00873662	-0.02874639	0	0	0	0	0	0
2.05798	-0.00873662	-0.02874639	0	0	0	0	0	0
2.074547	-0.00873662	-0.02874639	0	0	0	0	0	0
2.091114	-0.00873662	-0.02874639	0	0	0	0	0	0
2.10768	-0.00873662	-0.02874639	0	0	0	0	0	0
2.124246	-0.00873662	-0.02874639	0	0	0	0	0	0
2.14099	-0.00873662	-0.02874639	0	0	0	0	0	0
2.157501	-0.00873662	-0.02874639	0	0	0	0	0	0
2.173947	-0.008710306	-0.02876539	0.001599965	-0.00115487	0.04854693	-0.03504163	0	0
2.190514	-0.008710306	-0.02876539	0	0	-0.04846454	0.03498216	0	0
2.20708	-0.008710306	-0.02876539	0	0	0	0	0	0
2.223646	-0.008710306	-0.02876539	0	0	0	0	0	0
2.240561	-0.008710306	-0.02876539	0	0	0	0	0	0
2.256779	-0.008710306	-0.02876539	0	0	0	0	0	0
2.273347	-0.00873662	-0.02874639	-0.001588223	0.001146394	-0.04844085	0.03496506	0	0
2.289915	-0.00873662	-0.02874639	0	0	0.04793163	-0.03459749	0	0
2.306607	-0.00873662	-0.02874639	0	0	0	0	0	0
2.323046	-0.00873662	-0.02874639	0	0	0	0	0	0
2.339613	-0.00873662	-0.02874639	0	0	0	0	0	0
2.35618	-0.00873662	-0.02874639	0	0	0	0	0	0
2.373155	-0.00873662	-0.02874639	0	0	0	0	0	0
2.389314	-0.00873662	-0.02874639	0	0	0	0	0	0
2.422446	-0.00873662	-0.02874639	0	0	0	0	0	0
2.439013	-0.00873662	-0.02874639	0	0	0	0	0	0
2.455713	-0.008710306	-0.02876539	0.001575684	-0.001137343	0.04736609	-0.03418929	0	0
2.472148	-0.008710306	-0.02876539	0	0	-0.0475532	0.03432434	0	0
2.50528	-0.008710306	-0.02876539	0	0	0	0	0	0
2.521848	-0.008710306	-0.02876539	0	0	0	0	0	0
2.538771	-0.008710306	-0.02876539	0	0	0	0	0	0
2.55498	-0.008710306	-0.02876539	0	0	0	0	0	0
2.571794	-0.008710306	-0.02876539	0	0	0	0	0	0
2.588114	-0.008710306	-0.02876539	0	0	0	0	0	0
2.604685	-0.008710306	-0.02876539	0	0	0	0	0	0
2.623395	-0.008710306	-0.02876539	0	0	0	0	0	0
2.639963	-0.008710306	-0.02876539	0	0	0	0	0	0
2.656529	-0.008710306	-0.02876539	0	0	0	0	0	0
2.673097	-0.008710306	-0.02876539	0	0	0	0	0	0
2.70623	-0.008710306	-0.02876539	0	0	0	0	0	0
2.722901	-0.008710306	-0.02876539	0	0	0	0	0	0
2.739412	-0.008683993	-0.02878438	0.001593658	-0.001150204	0.04802723	-0.0346631	0	0
2.755929	-0.008683993	-0.02878438	0	0	-0.0482505	0.03482424	0	0
2.772496	-0.008657678	-0.02880337	0.001588393	-0.001146476	0.0480107	-0.03465334	0	0
2.789451	-0.008631364	-0.02882237	0.001552019	-0.001120262	-0.001085108	0.0007820321	0	0
2.805631	-0.008631364	-0.02882237	0	0	-0.04683902	0.03380884	0	0
2.822196	-0.008631364	-0.02882237	0	0	0	0	0	0
2.838766	-0.008631364	-0.02882237	0	0	0	0	0	0
2.855332	-0.008605051	-0.02884136	0.001588383	-0.001146397	0.04793507	-0.03459659	0	0
2.872007	-0.008605051	-0.02884136	0	0	-0.04778414	0.03448765	0	0
2.888465	-0.008605051	-0.02884136	0	0	0	0	0	0
2.905032	-0.008578737	-0.02886035	0.001588337	-0.001146476	0.04809495	-0.03471538	0	0
2.921597	-0.008578737	-0.02886035	0	0	-0.04794025	0.03460371	0	0
2.938164	-0.008578737	-0.02886035	0	0	0	0	0	0
2.954732	-0.008578737	-0.02886035	0	0	0	0	0	0
2.971297	-0.008578737	-0.02886035	0	0	0	0	0	0
3.022303	-0.008657678	-0.02884136	-0.001547688	0.0003723786	-0.02290481	0.005510968	0	0
3.03887	-0.008657678	-0.02884136	0	0	0.02290392	-0.005510754	0	0
3.055437	-0.008657678	-0.02884136	0	0	0	0	0	0
3.072003	-0.008657678	-0.02884136	0	0	0	0	0	0
3.121704	-0.008657678	-0.02880337	0	0.0007642728	0	0.01153323	0	0
3.138701	-0.008683993	-0.02878438	-0.001548155	0.001117433	-0.0232114	0.005294914	0	0
3.154836	-0.008683993	-0.02878438	0	0	0.04672612	-0.03372615	0	0
3.171404	-0.008683993	-0.02878438	0	0	0	0	0	0
3.18823	-0.008657678	-0.02876539	0.001563884	0.001128675	0.04683181	0.03379913	0	0
3.204537	-0.008578737	-0.02870841	0.004840949	0.003494128	0.09890559	0.07139207	0	0
3.221254	-0.008447167	-0.02861345	0.007870552	0.005680512	0.09174056	0.06620672	0	0
3.23767	-0.008341912	-0.02853748	0.006411628	0.004627478	-0.04403231	-0.031782	0	0
3.254278	-0.008289284	-0.02853748	0.003168886	0	-0.09819328	-0.1401244	0	0
3.270803	-0.00826297	-0.02851849	0.001592381	0.001149242	-0.04758109	0.03468568	0	0
3.287802	-0.007999829	-0.02844253	0.01548019	0.004468872	0.4142673	0.0990231	0	0
3.303938	-0.00781563	-0.02834758	0.01141477	0.005884163	-0.1226912	0.04271233	0	0
3.320503	-0.007789316	-0.02832859	0.001588594	0.001146417	-0.3004832	-0.1448797	0	0
3.370204	-0.003552617	-0.02534859	0.08524297	0.05995788	1.262406	0.8875083	0	0
3.386772	0.00639465	-0.01818545	0.6004096	0.4323618	7.773879	5.619586	0	0
3.403385	0.01368336	-0.01294653	0.4387287	0.3153462	-4.872737	-3.526616	0	0
3.419904	0.02197015	-0.007301065	0.5016428	0.3417494	1.898862	0.7968957	0	0
3.43647	0.03706197	-0.0001779023	0.9110357	0.4299983	12.37402	2.66735	0	0
3.453038	0.05205819	0.004054838	0.9051345	0.2554777	-0.1781042	-5.267194	0	0
3.469603	0.07637745	0.007437204	1.468062	0.2041806	16.98967	-1.548194	0	0
3.486171	0.09633248	0.008563911	1.204488	0.06800818	-7.955069	-4.109898	0	0
3.50491	0.1238367	0.009802859	1.467681	0.06611274	7.454386	-0.05368415	0	0
3.521479	0.1305687	0.01029081	0.4063134	0.02945041	-30.05996	-1.038347	0	0
3.538477	0.1567302	0.01121021	1.539047	0.05408735	33.7455	0.733964	0	0
3.554611	0.1816338	0.01286077	1.543563	0.1023045	0.1363165	1.455291	0	0
3.571179	0.1984328	0.0143606	1.013947	0.09052572	-16.19537	-0.3601882	0	0
3.588013	0.2190841	0.01653419	1.22676	0.1291192	6.371262	1.155425	0	0
3.604527	0.2358436	0.01861283	1.014846	0.1258691	-6.354554	-0.09746028	0	0
3.621039	0.2462414	0.02020375	0.6297189	0.09634973	-11.66125	-0.8938147	0	0
3.637447	0.2524938	0.02070895	0.3810741	0.03079136	-7.553193	-1.991495	0	0
3.654014	0.2586277	0.02087733	0.3702367	0.01016348	-0.328658	-0.6255664	0	0
3.67058	0.2642759	0.01911826	0.3409601	-0.1061887	-0.8836062	-3.511666	0	0
3.687149	0.2678768	0.01939902	0.2173228	0.0169444	-3.731301	3.716083	0	0
3.703715	0.2701758	0.01763921	0.1387732	-0.1062302	-2.370548	-3.717284	0	0
3.720281	0.2723497	0.01597218	0.1312337	-0.1006318	-0.2275603	0.168975	0	0
3.736848	0.2730087	0.0154663	0.0397778	-0.03053611	-2.760324	2.11563	0	0
3.753413	0.2729843	0.01548504	-0.001473424	0.001131155	-1.245045	0.9557818	0	0
3.770147	0.2729599	0.01550378	-0.001458624	0.001119737	0.0004444584	-0.000342888	0	0
3.786546	0.2729599	0.01550378	0	0	0.0440239	-0.03379567	0	0
3.803114	0.2729355	0.01552251	-0.00147317	0.001130959	-0.04468575	0.03430546	0	0
3.819681	0.2729355	0.01552251	0	0	0.04445876	-0.03413119	0	0
3.836248	0.2729355	0.01552251	0	0	0	0	0	0
3.852815	0.2729355	0.01552251	0	0	0	0	0	0
3.869381	0.2728623	0.01554125	-0.004418347	0.001131066	-0.1333508	0.03413686	0	0
3.885949	0.2727891	0.01555999	-0.004419828	0.001130984	-4.469233E-05	-2.45597E-06	0	0
3.902515	0.272667	0.0156162	-0.00736691	0.003393141	-0.08894632	0.06827448	0	0
3.919081	0.2726182	0.01565367	-0.002946637	0.002262034	0.1334108	-0.0341386	0	0
3.935647	0.2725938	0.01567241	-0.001473382	0.00113101	0.04446515	-0.03413611	0	0
3.952214	0.2725206	0.01569115	-0.004420083	0.001130993	-0.08893736	-4.919108E-07	0	0
3.968781	0.2724718	0.01565367	-0.002946637	-0.002261922	0.0444706	-0.1024028	0	0
3.985346	0.2723985	0.01563494	-0.004420273	-0.001131155	-0.04447731	0.03412882	0	0
4.001913	0.2723741	0.0156162	-0.00147334	-0.001130977	0.08894502	5.358353E-06	0	0
4.018479	0.2723741	0.0156162	0	0	0.04446708	0.03413418	0	0
4.035334	0.2723497	0.01559746	-0.001448143	-0.001111635	-0.04332965	-0.03326106	0	0
4.051613	0.2723497	0.01559746	0	0	0.04370629	0.03355018	0	0
4.06818	0.2723009	0.01559746	-0.002946637	0	-0.08971205	0	0	0
4.084747	0.2723009	0.01559746	0	0	0.08892967	0	0	0
4.101379	0.2722765	0.0156162	-0.001469366	0.001126551	-0.04425892	0.03393296	0	0
4.11789	0.2722521	0.01563494	-0.001478254	0.001134749	-0.0002681838	0.0002473651	0	0
4.134446	0.2722521	0.01563494	0	0	0.0447045	-0.03431644	0	0
4.151013	0.2722521	0.01563494	0	0	0	0	0	0
4.167923	0.2722521	0.01563494	0	0	0	0	0	0
4.271937	0.2721544	0.01567241	-0.0009386519	0.0003602857	-0.00776236	0.002979451	0	0
4.288511	0.2721056	0.01570988	-0.002947079	0.00226088	-0.0166553	0.01576108	0	0
4.305071	0.2720568	0.01570988	-0.002947825	0	-2.2514E-05	-0.0682335	0	0
4.321638	0.2719347	0.01576609	-0.007370402	0.00339298	-0.1335063	0.1024254	0	0
4.338204	0.2717882	0.01584104	-0.008843763	0.004523861	-0.04446869	0.03413201	0	0
4.354774	0.2709821	0.01634686	-0.04864348	0.03052752	-1.201106	0.7847581	0	0
4.371337	0.2671915	0.01872515	-0.2288518	0.1435827	-5.438854	3.412111	0	0
4.388085	0.261503	0.02224282	-0.3396589	0.2100416	-3.326406	1.995082	0	0
4.404593	0.2514572	0.02945439	-0.6085567	0.4368632	-8.085911	6.820654	0	0
4.421105	0.2423764	0.03599963	-0.549926	0.396372	1.775585	-1.226242	0	0
4.437616	0.2360923	0.04048694	-0.3806083	0.2717854	5.12721	-3.772681	0	0
4.454173	0.2226165	0.04970546	-0.8138922	0.5567671	-13.10293	8.618127	0	0
4.470738	0.2149182	0.05406538	-0.4647415	0.2632036	10.54133	-8.863081	0	0
4.487653	0.1913915	0.05817967	-1.390891	0.2432352	-27.66301	-0.5964338	0	0
4.503871	0.1610406	0.05992046	-1.871353	0.1073328	-14.50079	-4.101659	0	0
4.520673	0.1294561	0.06221567	-1.879824	0.1366046	-0.2565416	0.8864722	0	0
4.537185	0.114549	0.06338128	-0.902813	0.07059226	29.32755	-1.981533	0	0
4.553574	0.0933333	0.06476848	-1.294553	0.08464477	-11.90686	0.4271236	0	0
4.570138	0.06207803	0.06652491	-1.886844	0.1060336	-17.97367	0.6490645	0	0
4.586705	0.05085086	0.06704245	-0.6777122	0.03124055	36.49534	-2.257485	0	0
4.603272	0.03537997	0.06713486	-0.9338249	0.005577852	-7.729719	-0.7745242	0	0
4.619839	0.02265402	0.06661733	-0.7681398	-0.03123786	5.000385	-1.1111	0	0
4.636757	0.009526027	0.05993898	-0.7759694	-0.3947442	-0.2338196	-10.85566	0	0
4.65327	0.002026313	0.05469578	-0.4541739	-0.317522	9.625648	2.309892	0	0
4.66954	-0.005868354	0.04950126	-0.4852379	-0.3192762	-0.9475773	-0.05350818	0	0
4.686106	-0.01720883	0.04279367	-0.6845714	-0.4049054	-6.070676	-2.607827	0	0
4.702804	-0.02607304	0.03775051	-0.5308582	-0.3020239	4.621052	3.092908	0	0
4.719315	-0.03382919	0.03251402	-0.4697444	-0.317143	1.84026	-0.455266	0	0
4.735827	-0.04179144	0.0268965	-0.4822123	-0.3402101	-0.3775468	-0.6985101	0	0
4.752372	-0.04436561	0.02510303	-0.1555829	-0.1083978	9.880731	7.012458	0	0
4.76894	-0.04888208	0.02188747	-0.2725993	-0.1940803	-3.5338	-2.587542	0	0
4.785506	-0.05037839	0.02074637	-0.0903277	-0.06888493	5.501125	3.778514	0	0
4.802072	-0.05024714	0.02083992	0.007922462	0.005646871	2.965452	2.249568	0	0
4.818639	-0.05024714	0.02083992	0	0	-0.2391107	-0.1704303	0	0
4.835208	-0.0502209	0.02082121	0.001584174	-0.001129224	0.0478084	-0.03407858	0	0
4.851911	-0.0501684	0.02085862	0.003143155	0.00224022	0.04685526	0.1012688	0	0
4.86834	-0.05008965	0.02091475	0.004793163	0.003416254	0.04980023	0.03549483	0	0
4.884932	-0.04987964	0.02098959	0.01265717	0.004510346	0.2381519	0.03313326	0	0
4.901473	-0.04987964	0.02098959	0	0	-0.3820216	-0.1361323	0	0
4.918038	-0.0498009	0.02100829	0.004753841	0.001129372	0.1435952	0.03411397	0	0
4.934605	-0.04977464	0.02098959	0.001584627	-0.001129274	-0.09565396	-0.06817098	0	0
4.951478	-0.04969589	0.02093346	0.004667145	-0.003326169	0.09217893	-0.06569544	0	0
4.96774	-0.04964339	0.02089604	0.003228595	-0.002301116	-0.04341488	0.0309357	0	0
5.002516	-0.04948588	0.02078379	0.004529155	-0.003227857	0.02548228	-0.01815794	0	0
5.019039	-0.04948588	0.02078379	0	0	-0.08828918	0.0629223	0	0
5.052172	-0.04943338	0.02074637	0.001584514	-0.00112933	0.03190988	-0.02274312	0	0
5.06874	-0.04943338	0.02074637	0	0	-0.0318808	0.02272239	0	0
5.085305	-0.04943338	0.02074637	0	0	0	0	0	0
5.102086	-0.04943338	0.02074637	0	0	0	0	0	0
5.118439	-0.04943338	0.02074637	0	0	0	0	0	0
5.135108	-0.04943338	0.02074637	0	0	0	0	0	0
5.15162	-0.04943338	0.02074637	0	0	0	0	0	0
5.168141	-0.04943338	0.02074637	0	0	0	0	0	0
5.184707	-0.04943338	0.02074637	0	0	0	0	0	0
5.201282	-0.04943338	0.02074637	0	0	0	0	0	0
5.217839	-0.04943338	0.02074637	0	0	0	0	0	0
5.234679	-0.04943338	0.02074637	0	0	0	0	0	0
5.251191	-0.04945963	0.02072766	-0.00158971	-0.00113317	-0.04766542	-0.03397667	0	0
5.26754	-0.04943338	0.02070895	0.00160552	-0.001144326	0.09723686	-0.0003395076	0	0
5.284106	-0.04940713	0.02069024	0.001584627	-0.001129387	-0.0006347678	0.000453879	0	0
5.31724	-0.04938088	0.02067153	0.0007923134	-0.0005646934	-0.01594184	0.01136198	0	0
5.333806	-0.04938088	0.02067153	0	0	-0.01594199	0.01136209	0	0
5.350374	-0.04935462	0.02065282	0.001584536	-0.001129322	0.04782207	-0.03408349	0	0
5.366941	-0.04935462	0.02065282	0	0	-0.04782	0.03408201	0	0
5.383509	-0.04935462	0.02065282	0	0	0	0	0	0
5.400298	-0.04932837	0.02063411	0.001563654	-0.001114439	0.04687747	-0.03341026	0	0
5.41664	-0.04932837	0.02063411	0	0	-0.04719524	0.03363674	0	0
5.43332	-0.04930212	0.0206154	0.001573935	-0.001121767	0.04766334	-0.03397036	0	0
5.449832	-0.04930212	0.0206154	0	0	-0.04741889	0.03379614	0	0
5.466345	-0.04930212	0.0206154	0	0	0	0	0	0
5.482908	-0.04930212	0.0206154	0	0	0	0	0	0
5.499867	-0.04927587	0.02059669	0.001547958	-0.001103253	0.04617655	-0.0329107	0	0
5.51604	-0.04927587	0.02059669	0	0	-0.04672084	0.03329862	0	0
5.532607	-0.04927587	0.02059669	0	0	0	0	0	0
5.549402	-0.04927587	0.02059669	0	0	0	0	0	0
5.56574	-0.04927587	0.02059669	0	0	0	0	0	0
5.582439	-0.04927587	0.02059669	0	0	0	0	0	0
5.598874	-0.04927587	0.02059669	0	0	0	0	0	0
5.61545	-0.04927587	0.02059669	0	0	0	0	0	0
5.632007	-0.04927587	0.02059669	0	0	0	0	0	0
5.648573	-0.04927587	0.02059669	0	0	0	0	0	0
5.66514	-0.04927587	0.02059669	0	0	0	0	0	0
5.751572	-0.04927587	0.02059669	0	0	0	0	0	0
5.768557	-0.04927587	0.02059669	0	0	0	0	0	0
5.784707	-0.04927587	0.02059669	0	0	0	0	0	0
5.801272	-0.04924962	0.02057798	0.001584764	-0.001129484	0.04844102	-0.03452462	0	0
5.818095	-0.04924962	0.02057798	0	0	-0.04746555	0.03382939	0	0
5.834407	-0.04924962	0.02057798	0	0	0	0	0	0
5.850972	-0.04924962	0.02057798	0	0	0	0	0	0
5.867628	-0.04924962	0.02057798	0	0	0	0	0	0
5.884138	-0.04924962	0.02057798	0	0	0	0	0	0
5.90115	-0.04924962	0.02057798	0	0	0	0	0	0
5.917239	-0.04924962	0.02057798	0	0	0	0	0	0
5.933805	-0.04924962	0.02057798	0	0	0	0	0	0
5.950371	-0.04922336	0.02055927	0.001584627	-0.001129387	0.04782757	-0.03408741	0	0
5.966938	-0.04922336	0.02055927	0	0	-0.04782482	0.03408545	0	0
5.983505	-0.04922336	0.02055927	0	0	0	0	0	0
6.000073	-0.04922336	0.02055927	0	0	0	0	0	0
6.016733	-0.04922336	0.02055927	0	0	0	0	0	0
6.033244	-0.04924962	0.02057798	-0.001589981	0.001133203	-0.0479333	0.03416276	0	0
6.049771	-0.04924962	0.02057798	0	0	0.04812562	-0.03429984	0	0
6.066338	-0.04924962	0.02057798	0	0	0	0	0	0
6.082904	-0.04924962	0.02057798	0	0	0	0	0	0
6.099473	-0.04924962	0.02057798	0	0	0	0	0	0
6.116302	-0.04922336	0.02055927	0.001559888	-0.001111755	0.04670582	-0.03328792	0	0
6.132604	-0.04922336	0.02055927	0	0	-0.04708226	0.03355622	0	0
6.149325	-0.04922336	0.02055927	0	0	0	0	0	0
6.165738	-0.04922336	0.02055927	0	0	0	0	0	0
6.182348	-0.04922336	0.02055927	0	0	0	0	0	0
6.198874	-0.04922336	0.02055927	0	0	0	0	0	0
6.215438	-0.04922336	0.02055927	0	0	0	0	0	0
6.232005	-0.04924962	0.02057798	-0.001584672	0.001129419	-0.04783101	0.03408986	0	0
6.248571	-0.04924962	0.02057798	0	0	0.04782826	-0.0340879	0	0
6.265138	-0.04924962	0.02057798	0	0	0	0	0	0
6.281919	-0.04924962	0.02057798	0	0	0	0	0	0
6.298433	-0.04924962	0.02057798	0	0	0	0	0	0
6.314839	-0.04924962	0.02057798	0	0	0	0	0	0
6.331455	-0.04924962	0.02057798	0	0	0	0	0	0
6.347972	-0.04924962	0.02057798	0	0	0	0	0	0
6.364552	-0.04924962	0.02057798	0	0	0	0	0	0
6.381106	-0.04924962	0.02057798	0	0	0	0	0	0
6.397674	-0.04924962	0.02057798	0	0	0	0	0	0
6.414237	-0.04924962	0.02057798	0	0	0	0	0	0
6.430805	-0.04924962	0.02057798	0	0	0	0	0	0
6.449371	-0.04924962	0.02057798	0	0	0	0	0	0
6.46594	-0.04924962	0.02057798	0	0	0	0	0	0
6.482561	-0.04924962	0.02057798	0	0	0	0	0	0
6.499073	-0.04924962	0.02057798	0	0	0	0	0	0
6.51564	-0.04924962	0.02057798	0	0	0	0	0	0
6.532207	-0.04924962	0.02057798	0	0	0	0	0	0
6.554362	-0.04924962	0.02057798	0	0	0	0	0	0
6.570929	-0.04924962	0.02057798	0	0	0	0	0	0
6.587496	-0.04924962	0.02057798	0	0	0	0	0	0
6.604146	-0.04924962	0.02057798	0	0	0	0	0	0
6.620658	-0.04924962	0.02057798	0	0	0	0	0	0
6.653763	-0.04924962	0.02057798	0	0	0	0	0	0
6.670693	-0.04924962	0.02057798	0	0	0	0	0	0
6.686896	-0.04924962	0.02057798	0	0	0	0	0	0
6.703463	-0.04924962	0.02057798	0	0	0	0	0	0
6.720231	-0.04924962	0.02057798	0	0	0	0	0	0
6.73674	-0.04924962	0.02057798	0	0	0	0	0	0
6.753252	-0.04924962	0.02057798	0	0	0	0	0	0
6.769729	-0.04924962	0.02057798	0	0	0	0	0	0
6.786296	-0.04924962	0.02057798	0	0	0	0	0	0
6.802863	-0.04924962	0.02057798	0	0	0	0	0	0
6.869129	-0.04924962	0.02057798	0	0	0	0	0	0
6.885845	-0.04924962	0.02057798	0	0	0	0	0	0
6.902263	-0.04924962	0.02057798	0	0	0	0	0	0
6.918832	-0.04924962	0.02057798	0	0	0	0	0	0
6.935397	-0.04924962	0.02057798	0	0	0	0	0	0
6.951963	-0.04924962	0.02057798	0	0	0	0	0	0
6.968529	-0.04924962	0.02057798	0	0	0	0	0	0
6.985096	-0.04924962	0.02057798	0	0	0	0	0	0
7.001663	-0.04924962	0.02057798	0	0	0	0	0	0
7.01823	-0.04924962	0.02057798	0	0	0	0	0	0
7.03495	-0.04924962	0.02057798	0	0	0	0	0	0
7.051363	-0.04924962	0.02057798	0	0	0	0	0	0
7.118771	-0.04924962	0.02057798	0	0	0	0	0	0
7.135338	-0.04924962	0.02057798	0	0	0	0	0	0
7.151906	-0.04924962	0.02057798	0	0	0	0	0	0
7.168544	-0.04924962	0.02057798	0	0	0	0	0	0
7.185557	-0.04924962	0.02057798	0	0	0	0	0	0
7.201606	-0.04924962	0.02057798	0	0	0	0	0	0
7.218173	-0.04924962	0.02057798	0	0	0	0	0	0
7.23474	-0.04924962	0.02057798	0	0	0	0	0	0
7.269672	-0.04924962	0.02057798	0	0	0	0	0	0
7.286239	-0.04924962	0.02057798	0	0	0	0	0	0
7.30314	-0.04924962	0.02057798	0	0	0	0	0	0
7.319655	-0.04924962	0.02057798	0	0	0	0	0	0
7.335941	-0.04924962	0.02057798	0	0	0	0	0	0
7.352509	-0.04924962	0.02057798	0	0	0	0	0	0
7.369073	-0.04924962	0.02057798	0	0	0	0	0	0
7.385641	-0.04924962	0.02057798	0	0	0	0	0	0
7.402208	-0.04924962	0.02057798	0	0	0	0	0	0
7.418773	-0.04924962	0.02057798	0	0	0	0	0	0
7.435342	-0.04924962	0.02057798	0	0	0	0	0	0
7.451907	-0.04924962	0.02057798	0	0	0	0	0	0
7.468757	-0.04924962	0.02057798	0	0	0	0	0	0
7.485039	-0.04924962	0.02057798	0	0	0	0	0	0
7.501607	-0.04924962	0.02057798	0	0	0	0	0	0
7.534741	-0.04924962	0.02057798	0	0	0	0	0	0
7.551317	-0.04924962	0.02057798	0	0	0	0	0	0
7.567873	-0.04924962	0.02057798	0	0	0	0	0	0
7.58484	-0.04924962	0.02057798	0	0	0	0	0	0
7.601006	-0.04924962	0.02057798	0	0	0	0	0	0
7.617573	-0.04924962	0.02057798	0	0	0	0	0	0
7.634378	-0.04922336	0.02055927	0.001562145	-0.001113364	0.04681017	-0.03336229	0	0
7.650708	-0.04922336	0.02055927	0	0	-0.04714496	0.0336009	0	0
7.667273	-0.04922336	0.02055927	0	0	0	0	0	0
7.683912	-0.04922336	0.02055927	0	0	0	0	0	0
7.716974	-0.04922336	0.02055927	0	0	0	0	0	0
7.733541	-0.04922336	0.02055927	0	0	0	0	0	0
7.750106	-0.04922336	0.02055927	0	0	0	0	0	0
7.766672	-0.04922336	0.02055927	0	0	0	0	0	0
7.783241	-0.04922336	0.02055927	0	0	0	0	0	0
7.799807	-0.04922336	0.02055927	0	0	0	0	0	0
7.816504	-0.04922336	0.02055927	0	0	0	0	0	0
7.832943	-0.04922336	0.02055927	0	0	0	0	0	0
7.849529	-0.04922336	0.02055927	0	0	0	0	0	0
7.866075	-0.04922336	0.02055927	0	0	0	0	0	0
7.883055	-0.04922336	0.02055927	0	0	0	0	0	0
7.899207	-0.04922336	0.02055927	0	0	0	0	0	0
7.916075	-0.04922336	0.02055927	0	0	0	0	0	0
7.932341	-0.04922336	0.02055927	0	0	0	0	0	0
7.948908	-0.04922336	0.02055927	0	0	0	0	0	0
7.965473	-0.04922336	0.02055927	0	0	0	0	0	0
7.982126	-0.04922336	0.02055927	0	0	0	0	0	0
7.998607	-0.04922336	0.02055927	0	0	0	0	0	0
8.015646	-0.04922336	0.02055927	0	0	0	0	0	0
8.034684	-0.04922336	0.02055927	0	0	0	0	0	0
8.067819	-0.04922336	0.02055927	0	0	0	0	0	0
8.084387	-0.04922336	0.02055927	0	0	0	0	0	0
8.100952	-0.04922336	0.02055927	0	0	0	0	0	0
8.117716	-0.04922336	0.02055927	0	0	0	0	0	0
8.134088	-0.04922336	0.02055927	0	0	0	0	0	0
8.150654	-0.04922336	0.02055927	0	0	0	0	0	0
8.167253	-0.04922336	0.02055927	0	0	0	0	0	0
8.183787	-0.04922336	0.02055927	0	0	0	0	0	0
8.200353	-0.04922336	0.02055927	0	0	0	0	0	0
8.216919	-0.04922336	0.02055927	0	0	0	0	0	0
8.233816	-0.04922336	0.02055927	0	0	0	0	0	0
8.250054	-0.04919711	0.02054056	0.001616688	-0.001152237	0.04879033	-0.03477358	0	0
8.266823	-0.04919711	0.02054056	0	0	-0.04898065	0.03490922	0	0
8.283186	-0.04919711	0.02054056	0	0	0	0	0	0
8.299846	-0.04919711	0.02054056	0	0	0	0	0	0
8.31632	-0.04919711	0.02054056	0	0	0	0	0	0
8.399154	-0.04919711	0.02054056	0	0	0	0	0	0
8.415721	-0.04919711	0.02054056	0	0	0	0	0	0
8.43244	-0.04917086	0.02052185	0.00157021	-0.001119111	0.04717314	-0.03362099	0	0
8.448853	-0.04917086	0.02052185	0	0	-0.04739311	0.03377776	0	0
8.46542	-0.04917086	0.02052185	0	0	0	0	0	0
8.481985	-0.04917086	0.02052185	0	0	0	0	0	0
8.498987	-0.04917086	0.02052185	0	0	0	0	0	0
8.515121	-0.04917086	0.02052185	0	0	0	0	0	0
8.548251	-0.04917086	0.02052185	0	0	0	0	0	0
8.564819	-0.04917086	0.02052185	0	0	0	0	0	0
8.581543	-0.04917086	0.02052185	0	0	0	0	0	0
8.597953	-0.04917086	0.02052185	0	0	0	0	0	0
8.614567	-0.04917086	0.02052185	0	0	0	0	0	0
8.631084	-0.04917086	0.02052185	0	0	0	0	0	0
8.647652	-0.04917086	0.02052185	0	0	0	0	0	0
8.66422	-0.04917086	0.02052185	0	0	0	0	0	0
8.697351	-0.04917086	0.02052185	0	0	0	0	0	0
8.713918	-0.04917086	0.02052185	0	0	0	0	0	0
8.73065	-0.04917086	0.02052185	0	0	0	0	0	0
8.747052	-0.04917086	0.02052185	0	0	0	0	0	0
8.763683	-0.04917086	0.02052185	0	0	0	0	0	0
8.780197	-0.04917086	0.02052185	0	0	0	0	0	0
8.796751	-0.04917086	0.02052185	0	0	0	0	0	0
8.813317	-0.04917086	0.02052185	0	0	0	0	0	0
8.829887	-0.04917086	0.02052185	0	0	0	0	0	0
8.846453	-0.04917086	0.02052185	0	0	0	0	0	0
8.863245	-0.04917086	0.02052185	0	0	0	0	0	0
8.879585	-0.04917086	0.02052185	0	0	0	0	0	0
8.897715	-0.04917086	0.02052185	0	0	0	0	0	0
8.914284	-0.04917086	0.02052185	0	0	0	0	0	0
8.93085	-0.04917086	0.02052185	0	0	0	0	0	0
8.947416	-0.04917086	0.02052185	0	0	0	0	0	0
8.963984	-0.04917086	0.02052185	0	0	0	0	0	0
8.980551	-0.04917086	0.02052185	0	0	0	0	0	0
8.997336	-0.04917086	0.02052185	0	0	0	0	0	0
9.013849	-0.04917086	0.02052185	0	0	0	0	0	0
9.030249	-0.04917086	0.02052185	0	0	0	0	0	0
9.046815	-0.04917086	0.02052185	0	0	0	0	0	0
9.129648	-0.04917086	0.02052185	0	0	0	0	0	0
9.146214	-0.04917086	0.02052185	0	0	0	0	0	0
9.162782	-0.04917086	0.02052185	0	0	0	0	0	0
9.17935	-0.04917086	0.02052185	0	0	0	0	0	0
9.195976	-0.04917086	0.02052185	0	0	0	0	0	0
9.212488	-0.04917086	0.02052185	0	0	0	0	0	0
9.2295	-0.04917086	0.02052185	0	0	0	0	0	0
9.245615	-0.04917086	0.02052185	0	0	0	0	0	0
9.262182	-0.04917086	0.02052185	0	0	0	0	0	0
9.279038	-0.04917086	0.02052185	0	0	0	0	0	0
9.295315	-0.04917086	0.02052185	0	0	0	0	0	0
9.312057	-0.04917086	0.02052185	0	0	0	0	0	0
9.32857	-0.04917086	0.02052185	0	0	0	0	0	0
9.361584	-0.04917086	0.02052185	0	0	0	0	0	0
9.37815	-0.04917086	0.02052185	0	0	0	0	0	0
9.394714	-0.04917086	0.02052185	0	0	0	0	0	0
9.411281	-0.04917086	0.02052185	0	0	0	0	0	0
9.428143	-0.04917086	0.02052185	0	0	0	0	0	0
9.444414	-0.04917086	0.02052185	0	0	0	0	0	0
9.46098	-0.04917086	0.02052185	0	0	0	0	0	0
9.477682	-0.04917086	0.02052185	0	0	0	0	0	0
9.494116	-0.04917086	0.02052185	0	0	0	0	0	0
9.510681	-0.04914461	0.02054056	0.001584764	0.001129484	0.04802454	0.03422779	0	0
9.527246	-0.04914461	0.02054056	0	0	-0.04783377	-0.03409182	0	0
9.544229	-0.04914461	0.02054056	0	0	0	0	0	0
9.560731	-0.04917086	0.02052185	-0.001590808	-0.001133792	-0.04750885	-0.03386025	0	0
9.576949	-0.04917086	0.02052185	0	0	0.04861799	0.03465075	0	0
9.59376	-0.04917086	0.02052185	0	0	0	0	0	0
9.610084	-0.04917086	0.02052185	0	0	0	0	0	0
9.626646	-0.04914461	0.02050314	0.001585037	-0.001129792	0.04819719	-0.03435427	0	0
9.643291	-0.0490921	0.02046571	0.003154273	-0.002248209	0.04725491	-0.03367925	0	0
9.65978	-0.0490921	0.02046571	0	0	-0.0951989	0.06785303	0	0
9.676346	-0.0490921	0.02046571	0	0	0	0	0	0
9.692915	-0.0490921	0.02046571	0	0	0	0	0	0
9.709479	-0.0490921	0.02046571	0	0	0	0	0	0
9.726046	-0.0490921	0.02046571	0	0	0	0	0	0
9.742615	-0.0490921	0.02046571	0	0	0	0	0	0
9.761523	-0.04906585	0.020447	0.001388377	-0.0009895164	0.03913385	-0.02789127	0	0
9.778091	-0.0490396	0.02042829	0.00158449	-0.001129402	0.005527948	-0.003943019	0	0
9.79466	-0.04901335	0.02040958	0.00158449	-0.001129289	0	3.39377E-06	0	0
9.811407	-0.04898709	0.02035345	0.001567527	-0.003351821	-0.0005091563	-0.06671132	0	0
9.827793	-0.04893459	0.02031602	0.003204434	-0.002283913	0.04940338	0.03223046	0	0
9.844358	-0.04872456	0.02016632	0.01267856	-0.009036773	0.2875185	-0.2049342	0	0
9.860942	-0.04867205	0.0201289	0.003166289	-0.002256837	-0.286957	0.2045306	0	0
9.877489	-0.04861955	0.02009147	0.003172998	-0.00226178	0.0002025088	-0.000149183	0	0
9.894061	-0.04859329	0.02007276	0.00158435	-0.001129142	-0.04796758	0.03419884	0	0
9.910624	-0.04856704	0.02005405	0.001585037	-0.001129904	2.074324E-05	-2.301291E-05	0	0
9.92749	-0.04856704	0.02005405	0	0	-0.04741483	0.03379997	0	0
9.943756	-0.04854079	0.02003533	0.001614168	-0.001150507	0.04871849	-0.03472437	0	0
9.961014	-0.04851453	0.02001662	0.001521184	-0.001084278	-0.002773696	0.001975596	0	0
9.97689	-0.04851453	0.02001662	0	0	-0.04591074	0.03272452	0	0
9.993546	-0.04851453	0.02001662	0	0	0	0	0	0
10.01002	-0.04854079	0.01999791	-0.00159311	-0.001135659	-0.04808015	-0.03427425	0	0
10.02659	-0.04854079	0.01999791	0	0	0.04820919	0.03436624	0	0
10.04358	-0.04854079	0.01999791	0	0	0	0	0	0
10.05972	-0.04854079	0.01999791	0	0	0	0	0	0
10.07629	-0.04859329	0.01999791	-0.003169752	0	-0.09691859	0	0	0
10.09286	-0.04859329	0.01999791	0	0	0.09566331	0	0	0
10.12613	-0.04861955	0.01997919	-0.000789155	-0.0005624745	-0.01583378	-0.01128561	0	0
10.14256	-0.04859329	0.01996048	0.001598331	-0.001139219	0.04804	-0.01160501	0	0
10.15912	-0.04859329	0.01996048	0	0	-0.04844408	0.03452878	0	0
10.17571	-0.04859329	0.01996048	0	0	0	0	0	0
10.19226	-0.04861955	0.01994176	-0.001586267	-0.00113062	-0.04787363	-0.03412219	0	0
10.20883	-0.04861955	0.01994176	0	0	0.04789569	0.03413791	0	0
10.27509	-0.05100835	0.01737703	-0.03604911	-0.03870414	-0.4352057	-0.4672588	0	0
10.29175	-0.05725315	0.0122419	-0.3748868	-0.3082711	-4.086176	-3.250813	0	0
10.30822	-0.06223531	0.004167638	-0.3023952	-0.4900719	2.187864	-5.486917	0	0
10.32479	-0.06899557	-0.008338792	-0.408097	-0.7549765	-3.199109	-8.017452	0	0
10.34136	-0.07601117	-0.01934031	-0.4234621	-0.6640528	-0.4637462	2.74424	0	0
10.35792	-0.08343741	-0.02525374	-0.4482492	-0.3569352	-0.7480761	9.268829	0	0
10.37449	-0.09072395	-0.03055121	-0.4398671	-0.3197933	0.2529845	1.12101	0	0
10.39106	-0.09737527	-0.03540098	-0.4014971	-0.2927495	1.15811	0.8162528	0	0
10.40762	-0.09969471	-0.03709546	-0.1400097	-0.102285	7.892159	5.74856	0	0
10.42434	-0.1110154	-0.04539124	-0.677157	-0.4962208	-16.13821	-11.83552	0	0
10.44075	-0.1226445	-0.05395927	-0.7084208	-0.5219443	-0.9435678	-0.7763596	0	0
10.45732	-0.1249768	-0.05572188	-0.140786	-0.1063979	17.21051	12.59923	0	0
10.47389	-0.134473	-0.06276395	-0.5731921	-0.4250601	-13.05042	-9.617521	0	0
10.49045	-0.1458001	-0.07121055	-0.6837446	-0.509867	-3.336579	-2.559549	0	0
10.50702	-0.1502023	-0.07450759	-0.265714	-0.1990096	12.61655	9.381963	0	0
10.52359	-0.1561397	-0.07900637	-0.3584045	-0.271563	-2.797482	-2.189727	0	0
10.54042	-0.1612714	-0.08291259	-0.3048699	-0.2320658	1.602898	1.182599	0	0
10.55672	-0.1680321	-0.08818133	-0.4147618	-0.3232319	-3.316737	-2.751557	0	0
10.59142	-0.1783733	-0.09647343	-0.2980479	-0.238989	2.288654	1.651926	0	0
10.60798	-0.184636	-0.1017691	-0.3780194	-0.3196483	-1.56	-1.573415	0	0
10.62455	-0.1896154	-0.1065679	-0.3005555	-0.289653	2.337865	0.9052597	0	0
10.64112	-0.1912393	-0.1156436	-0.09802821	-0.5478753	6.112638	-7.793613	0	0
10.65768	-0.1882699	-0.1236313	0.1792342	-0.4821368	8.368278	1.984107	0	0
10.67451	-0.1866187	-0.1300281	0.09810892	-0.3800938	-2.429138	3.055478	0	0
10.69082	-0.182321	-0.1467783	0.2636151	-1.027427	4.995274	-19.53767	0	0
10.70738	-0.181481	-0.1501344	0.0507021	-0.202579	-6.477369	25.09402	0	0
10.72406	-0.1780929	-0.1632276	0.2032296	-0.7853777	4.588892	-17.53389	0	0
10.74056	-0.1758234	-0.1762349	0.1375119	-0.7881145	-1.980911	-0.0824949	0	0
10.75708	-0.1753387	-0.1858834	0.02933464	-0.5839018	-3.275261	6.182905	0	0
10.77409	-0.1739095	-0.1979481	0.08405547	-0.7095585	1.632124	-3.747885	0	0
10.79022	-0.1737818	-0.2067557	0.007913661	-0.5460519	-2.298096	4.934924	0	0
10.80678	-0.1734755	-0.2150473	0.0184924	-0.5004857	0.3235413	1.3936	0	0
10.82363	-0.1739605	-0.2256127	-0.02880096	-0.6273252	-1.415583	-3.796552	0	0
10.83992	-0.1745221	-0.2282058	-0.03446462	-0.1591537	-0.1709247	14.12904	0	0
10.85648	-0.1766141	-0.2421753	-0.126299	-0.843347	-2.794895	-20.8228	0	0
10.87315	-0.1787556	-0.2508624	-0.1284602	-0.5211098	-0.06502832	9.695834	0	0
10.88967	-0.1845343	-0.2592324	-0.3499733	-0.5069073	-6.675672	0.4280156	0	0
10.90618	-0.1906812	-0.2645109	-0.3721178	-0.3195489	-0.6704273	5.672285	0	0
10.92275	-0.198104	-0.2719716	-0.4480654	-0.4503555	-2.295537	-3.953668	0	0
10.93933	-0.2014156	-0.2781515	-0.1997517	-0.3727638	7.491748	2.340981	0	0
10.95588	-0.2053533	-0.2842035	-0.2378757	-0.3655915	-1.15065	0.2164707	0	0
10.97245	-0.210946	-0.2906155	-0.3375903	-0.3870531	-3.010692	-0.6479923	0	0
10.98902	-0.2141645	-0.2933399	-0.1942692	-0.1644475	4.325566	6.718446	0	0
11.00575	-0.2174036	-0.2960898	-0.1935963	-0.1643528	0.02020743	0.002841641	0	0
11.02226	-0.2174036	-0.2960898	0	0	5.823806	4.944098	0	0
11.03872	-0.2174036	-0.2960898	0	0	0	0	0	0
11.05528	-0.2173785	-0.2961111	0.001514737	-0.001288066	0.045868	-0.03900414	0	0
11.07185	-0.2173785	-0.2961111	0	0	-0.04571618	0.03887504	0	0
11.08842	-0.2173785	-0.2961111	0	0	0	0	0	0
11.10498	-0.2173785	-0.2961111	0	0	0	0	0	0
11.12155	-0.2173785	-0.2961111	0	0	0	0	0	0
11.13812	-0.2173785	-0.2961111	0	0	0	0	0	0
11.15468	-0.2173785	-0.2961111	0	0	0	0	0	0
11.17125	-0.2173785	-0.2961111	0	0	0	0	0	0
11.18782	-0.2173534	-0.2960898	0.001514737	0.001288066	0.04571749	0.03887615	0	0
11.20439	-0.2173534	-0.2960898	0	0	-0.0457096	-0.03886944	0	0
11.22095	-0.2173534	-0.2960898	0	0	0	0	0	0
11.23752	-0.2173534	-0.2960898	0	0	0	0	0	0
11.25408	-0.2173534	-0.2960898	0	0	0	0	0	0
11.27065	-0.2173534	-0.2960898	0	0	0	0	0	0
11.28722	-0.2173534	-0.2960898	0	0	0	0	0	0
11.30545	-0.2173534	-0.2960898	0	0	0	0	0	0
11.32202	-0.2173534	-0.2960898	0	0	0	0	0	0
11.33858	-0.2173534	-0.2960898	0	0	0	0	0	0
11.3555	-0.2173534	-0.2960898	0	0	0	0	0	0
11.37201	-0.2173534	-0.2960898	0	0	0	0	0	0
11.38852	-0.2173534	-0.2960898	0	0	0	0	0	0
11.40503	-0.2173534	-0.2960898	0	0	0	0	0	0
11.42142	-0.2173283	-0.2960685	0.001531577	0.001300568	0.04656081	0.03953798	0	0
11.43799	-0.2173283	-0.2960685	0	0	-0.04647726	-0.03946703	0	0
11.45457	-0.2173283	-0.2960685	0	0	0	0	0	0
11.47112	-0.2173283	-0.2960685	0	0	0	0	0	0
11.48769	-0.2173283	-0.2960685	0	0	0	0	0	0
11.50425	-0.2173283	-0.2960685	0	0	0	0	0	0
11.52082	-0.2173283	-0.2960258	0	0.002576133	0	0.07775678	0	0
11.53738	-0.2173283	-0.2960258	0	0	0	-0.07775007	0	0
11.55413	-0.2173283	-0.2960258	0	0	0	0	0	0
11.57052	-0.2173283	-0.2960258	0	0	0	0	0	0
11.58716	-0.2173283	-0.2959831	0	0.002564323	0	0.07765067	0	0
11.60365	-0.2173283	-0.2959831	0	0	0	-0.07739364	0	0
11.65371	-0.2173534	-0.2959618	-0.000501305	0.0004256925	-0.007533053	0.006396832	0	0
11.66992	-0.2173534	-0.2959618	0	0	0.007564817	-0.006423805	0	0
11.68648	-0.2173785	-0.2959405	-0.001514912	0.001288215	-0.04622032	0.03930374	0	0
11.70305	-0.2173785	-0.2959405	0	0	0.04572539	-0.03888287	0	0
11.71961	-0.2173534	-0.2959191	0.00151465	0.001287992	0.04571354	0.0388728	0	0
11.73618	-0.2173283	-0.2958978	0.001514737	0.001286267	2.631628E-06	-5.205986E-05	0	0
11.75275	-0.2173283	-0.2958551	0	0.002575836	-0.04571486	0.03891927	0	0
11.76931	-0.2173534	-0.2957485	-0.001514824	0.006437104	-0.04571881	0.1165367	0	0
11.78588	-0.2172781	-0.2955565	0.00454395	0.01158653	0.1828647	0.155419	0	0
11.80245	-0.2172279	-0.2953006	0.003029649	0.01544869	-0.04570432	0.1165669	0	0
11.81901	-0.217253	-0.2949808	-0.001514737	0.0193048	-0.1371617	0.1163878	0	0
11.83558	-0.2171526	-0.2945119	0.006057903	0.02830379	0.2285361	0.271582	0	0
11.85215	-0.2138881	-0.2899138	0.1970729	0.2775727	5.764844	7.522951	0	0
11.86871	-0.2103923	-0.2860272	0.2110275	0.2346233	0.4211981	-1.296365	0	0
11.88537	-0.2021733	-0.2765043	0.4935422	0.5718364	8.504771	10.1514	0	0
11.90188	-0.1927861	-0.2685213	0.5685468	0.4834987	2.261624	-2.66366	0	0
11.91841	-0.1775831	-0.2560764	0.9194005	0.7526079	10.6169	8.143297	0	0
11.93498	-0.1643207	-0.2453922	0.8005674	0.6449372	-3.589902	-3.252694	0	0
11.95155	-0.1456456	-0.23039	1.127297	0.9055871	9.861296	7.866883	0	0
11.96811	-0.1358941	-0.222653	0.5886337	0.4670293	-16.25784	-13.23646	0	0
11.98468	-0.11538	-0.2063684	1.238304	0.982997	19.60823	15.57283	0	0
12.00125	-0.09935598	-0.1938111	0.9672115	0.7579627	-8.181833	-6.791744	0	0
12.01796	-0.08325448	-0.1813057	0.9632387	0.7481057	-0.1193643	-0.2961551	0	0
12.08408	-0.008841875	-0.1239458	1.125448	0.8675357	1.958234	1.441795	0	0
12.13378	0.03714081	-0.08109415	0.9252622	0.8622597	-1.72849	-0.04555504	0	0
12.15593	0.04570499	-0.06435898	0.3866274	0.7555041	-7.496874	-1.485856	0	0
12.17258	0.05308167	-0.05420826	0.4430638	0.6096802	1.454536	-3.758325	0	0
12.18906	0.05759413	-0.04804695	0.2737277	0.3737479	-5.110575	-7.120451	0	0
12.20563	0.06758114	-0.03856225	0.6028519	0.5725309	9.957925	6.014343	0	0
12.2222	0.07480751	-0.0332319	0.4361846	0.3217404	-5.030175	-7.56909	0	0
12.23876	0.08265337	-0.02756908	0.4736045	0.341828	1.129369	0.6062642	0	0
12.25533	0.08563218	-0.02536756	0.1798013	0.1328839	-8.867255	-6.306128	0	0
12.27214	0.08876612	-0.02305385	0.1864389	0.1376433	0.1988694	0.1425979	0	0
12.28846	0.09004532	-0.02155654	0.07836737	0.09172978	-3.261792	-1.385754	0	0
12.30516	0.0899409	-0.02095024	-0.006253838	0.03631231	-2.562725	-1.678299	0	0
12.32159	0.0899148	-0.02093129	-0.001587977	0.001152677	0.1408241	-1.061181	0	0
12.33818	0.08986259	-0.02093129	-0.003147369	0	-0.04722157	-0.0349054	0	0
12.35473	0.08986259	-0.02093129	0	0	0.09498505	0	0	0
12.38786	0.08936659	-0.02057135	-0.01497103	0.01086413	-0.3013566	0.2186875	0	0
12.40473	0.0879828	-0.01956754	-0.0820339	0.05950781	-1.341278	0.9728885	0	0
12.42099	0.08299313	-0.01591483	-0.3067745	0.2245763	-6.78288	4.981919	0	0
12.43756	0.0754617	-0.01047189	-0.4545983	0.3285365	-4.50241	3.166415	0	0
12.45413	0.06514453	-0.003040396	-0.6227814	0.4485916	-5.075922	3.623375	0	0
12.47078	0.05777773	0.002211901	-0.4424202	0.3154314	5.429716	-4.008744	0	0
12.48726	0.04987964	0.007869152	-0.4792118	0.3432506	-1.110437	0.8396339	0	0
12.50383	0.04554743	0.01096631	-0.2614932	0.1869449	6.587825	-4.729568	0	0
12.56517	0.04531107	0.01113517	-0.003853231	0.002752819	3.307036	-2.364267	0	0
12.58174	0.04531107	0.01113517	0	0	0.0494578	-0.03533357	0	0
12.5983	0.04533733	0.01111641	0.001585122	-0.001132511	0.04783633	-0.03417729	0	0
12.61488	0.04536359	0.01109764	0.001584617	-0.00113199	-1.523508E-05	1.573038E-05	0	0
12.63143	0.04538986	0.01100384	0.001586169	-0.005665547	4.683092E-05	-0.1368348	0	0
12.648	0.04544238	0.01081621	0.003170469	-0.01132573	0.04782942	-0.1708788	0	0
12.66457	0.04544238	0.01081621	0	0	-0.0956877	0.341821	0	0
12.68113	0.04544238	0.01081621	0	0	0	0	0	0
12.6977	0.04533733	0.01085374	-0.006340433	0.00226493	-0.1913546	0.06835573	0	0
12.71445	0.04528481	0.01089126	-0.003135988	0.002240555	0.0961816	-0.0007316112	0	0
12.73083	0.04512724	0.01100384	-0.009618498	0.006871696	-0.1956651	0.1397842	0	0
12.7474	0.04486461	0.01122897	-0.01585302	0.01359002	-0.1892202	0.2039039	0	0
12.76449	0.04336753	0.01229817	-0.08759093	0.06255629	-2.131376	1.454817	0	0
12.78053	0.03756127	0.01644053	-0.3619034	0.258193	-8.278528	5.904156	0	0
12.7971	0.03017505	0.02170043	-0.4459103	0.317543	-2.576263	1.820105	0	0
12.81367	0.02139147	0.02790494	-0.5302082	0.3745265	-2.544409	1.719964	0	0
12.83024	0.01628803	0.03152552	-0.3079911	0.2185011	6.706138	-4.708585	0	0
12.8468	0.013315	0.03363276	-0.1794835	0.1272152	3.878369	-2.755013	0	0
12.86336	0.0119468	0.03460206	-0.08259912	0.05851683	2.92448	-2.07368	0	0
12.87993	0.01115743	0.03516115	-0.04764364	0.03374512	1.055019	-0.7476549	0	0
12.98254	0.01073643	0.03490025	-0.004103144	-0.002542771	0.3653552	-0.3044975	0	0
12.99915	0.0102628	0.03456478	-0.02851787	-0.020199	-0.204799	-0.1481065	0	0
13.01567	0.008026144	0.03305479	-0.1353475	-0.09137464	-3.224218	-2.148147	0	0
13.03267	0.007420917	0.03266321	-0.03560517	-0.02303666	2.975291	2.038506	0	0
13.0488	0.007420917	0.03266321	0	0	1.074597	0.6952679	0	0
13.06537	0.007420917	0.03266321	0	0	0	0	0	0
13.08194	0.007447231	0.03264456	0.001588411	-0.001125484	0.04794109	-0.03396913	0	0
13.09872	0.007447231	0.03264456	0	0	-0.04763261	0.03375055	0	0
13.11507	0.007473545	0.03262591	0.00160919	-0.001140415	0.04856683	-0.03441877	0	0
13.13174	0.007526174	0.03258862	0.003157401	-0.002237635	0.04688571	-0.03322797	0	0
13.14826	0.007657745	0.03249538	0.007964117	-0.005643914	0.1448294	-0.1026334	0	0
13.16477	0.007999829	0.03221564	0.0207186	-0.01694265	0.3861314	-0.3420599	0	0
13.18134	0.00826297	0.03202913	0.01588319	-0.01125734	-0.1461811	0.1718749	0	0
13.1979	0.008341912	0.03197318	0.004764986	-0.003377382	-0.3355482	0.2378176	0	0
13.2148	0.008315598	0.03199183	-0.001557682	0.001104132	-0.1889585	0.133934	0	0
13.23104	0.008315598	0.03199183	0	0	0.04701363	-0.03332468	0	0
13.2476	0.00826297	0.03202913	-0.003176822	0.002251643	-0.09683825	0.06863625	0	0
13.26417	0.00826297	0.03202913	0	0	0.09588218	-0.06795862	0	0
13.28074	0.00826297	0.03202913	0	0	0	0	0	0
13.29736	0.00826297	0.03202913	0	0	0	0	0	0
13.31387	0.008289284	0.03201048	0.001593852	-0.001129771	0.04810672	-0.0340995	0	0
13.33044	0.00826297	0.03199183	-0.001588256	-0.001125579	-0.09619959	0.0001267194	0	0
13.347	0.008236656	0.03201048	-0.001588383	0.001125709	-3.822603E-06	0.06794401	0	0
13.36357	0.008236656	0.03201048	0	0	0.04793886	-0.03397494	0	0
13.38042	0.008236656	0.03201048	0	0	0	0	0	0
13.3967	0.008184028	0.03197318	-0.003231704	-0.002290541	-0.09754424	-0.06913663	0	0
13.41344	0.007999829	0.03184262	-0.01100738	-0.007802037	-0.2354905	-0.1669186	0	0
13.42995	0.007684059	0.03161879	-0.01912374	-0.01355569	-0.2441301	-0.1730627	0	0
13.44646	0.0003947368	0.02644822	-0.4414838	-0.3131599	-12.78992	-9.072624	0	0
13.46297	-0.004973643	0.02263553	-0.3251779	-0.230945	3.522284	2.489849	0	0
13.47954	-0.01694575	0.01415441	-0.722596	-0.5118923	-12.01485	-8.493675	0	0
13.51267	-0.02859746	0.005840396	-0.3516597	-0.2509246	7.463253	5.250681	0	0
13.5458	-0.0502209	-0.009546746	-0.652634	-0.4644116	-4.541908	-3.221665	0	0
13.56254	-0.05793509	-0.01506376	-0.4608547	-0.3295926	3.845474	2.703331	0	0
13.57893	-0.0623926	-0.01824224	-0.2719199	-0.1938958	5.702556	4.095692	0	0
13.59556	-0.06420112	-0.01951073	-0.1087498	-0.0762766	4.941123	3.561749	0	0
13.61208	-0.06393904	-0.01909416	0.01587044	0.02522583	3.759964	3.062468	0	0
13.62909	-0.06393904	-0.01905629	0	0.002226354	-0.4734249	-0.6860887	0	0
13.69513	-0.06344107	-0.01820438	0.007539731	0.01289858	0.09077943	0.1284951	0	0
13.71165	-0.0632576	-0.01807188	0.01111012	0.008023423	0.04324569	-0.05904946	0	0
13.72803	-0.06270715	-0.01752302	0.03359452	0.03349778	0.6834393	0.7743225	0	0
13.74467	-0.05924637	-0.01392935	0.2080068	0.2159939	5.281559	5.526354	0	0
13.76118	-0.05630883	-0.01113287	0.1779351	0.1693912	-0.9072264	-1.405946	0	0
13.77773	-0.05140205	-0.007489718	0.2964298	0.2200909	3.584018	1.533473	0	0
13.79564	-0.04218549	-0.0008744663	0.5146592	0.3694001	6.332643	4.332698	0	0
13.81222	-0.0401626	0.0005749761	0.1220173	0.08742813	-11.38529	-8.176235	0	0
13.84534	-0.02659899	0.01027204	0.4094803	0.2927507	5.783656	4.131019	0	0
13.86191	-0.01933969	0.01544756	0.4381971	0.3124131	0.5779169	0.3956996	0	0
13.87848	-0.01694575	0.01715229	0.1445073	0.1029036	-8.864085	-6.323372	0	0
13.89504	-0.01276246	0.0201289	0.2525034	0.1796683	3.259421	2.316828	0	0
13.91161	-0.009526027	0.02242983	0.195363	0.1388926	-1.72455	-1.230648	0	0
13.9283	-0.006526223	0.02456107	0.1797544	0.1277084	-0.4693648	-0.3363193	0	0
13.94481	-0.005973613	0.02495353	0.03346539	0.02376688	-4.406135	-3.130655	0	0
13.96133	-0.005973613	0.02495353	0	0	-1.013224	-0.7195846	0	0
13.97788	-0.005973613	0.02495353	0	0	0	0	0	0
13.99444	-0.005947298	0.02493485	0.001588284	-0.00112794	0.04795798	-0.03405796	0	0
14.01101	-0.005973613	0.02491616	-0.001588559	-0.001128135	-0.09588007	-5.878123E-06	0	0
14.02787	-0.005999928	0.02482272	-0.001560854	-0.005542398	0.0008288786	-0.1320672	0	0
14.05134	-0.006026243	0.02480403	-0.001121039	-0.0007961202	0.01090464	0.1176779	0	0
14.06791	-0.006052558	0.02474796	-0.001588376	-0.003384128	-0.01167146	-0.06463398	0	0
14.08448	-0.006315705	0.0245237	-0.01588362	-0.01353685	-0.4314312	-0.3064097	0	0
14.10104	-0.006499908	0.02439287	-0.01111916	-0.007897389	0.1437958	0.1702041	0	0
14.11761	-0.006947257	0.02400034	-0.02700355	-0.02369397	-0.4794194	-0.476769	0	0
14.13418	-0.0070262	0.02390688	-0.004765317	-0.005641812	0.6711898	0.5448464	0	0
14.15074	-0.007078829	0.02383211	-0.003176878	-0.004513517	0.04794194	0.03405397	0	0
14.16747	-0.007184087	0.02375733	-0.006293586	-0.004470904	-0.09362051	0.001279997	0	0
14.18388	-0.007236716	0.02368256	-0.003207157	-0.004556762	0.0931486	-0.00259119	0	0
14.20044	-0.00726303	0.02362648	-0.001588347	-0.003385139	0.04908889	0.03552837	0	0
14.21701	-0.007341973	0.02357039	-0.004765289	-0.003385447	-0.09588305	-9.275699E-06	0	0
14.23358	-0.007447231	0.02345822	-0.006351871	-0.006769057	-0.04787902	-0.1021088	0	0
14.26671	-0.007526174	0.02340214	-0.002382987	-0.001693023	0.07985871	0.1021359	0	0
14.28328	-0.007526174	0.02340214	0	0	0.04795316	0.03406892	0	0
14.29984	-0.007526174	0.02340214	0	0	0	0	0	0
14.31641	-0.007526174	0.02340214	0	0	0	0	0	0
14.33297	-0.007552488	0.02338344	-0.001588411	-0.00112852	-0.04794109	-0.03406075	0	0
14.37199	-0.007578802	0.02332735	-0.0006744256	-0.001437502	0.01644333	-0.005558832	0	0
14.38856	-0.007605116	0.02330866	-0.001588502	-0.001128585	-0.01644526	0.005557759	0	0
14.40512	-0.007710373	0.02323387	-0.006353334	-0.004514044	-0.1438112	-0.1021792	0	0
14.42169	-0.007736688	0.02321517	-0.001588411	-0.001128632	0.1438098	0.1021749	0	0
14.43826	-0.007789316	0.02321517	-0.00317685	0	-0.04794194	0.03406414	0	0
14.45517	-0.00781563	0.02319648	-0.001556073	-0.001105545	0.04841489	-0.03302417	0	0
14.47139	-0.007841945	0.02317778	-0.00162215	-0.001152585	-0.001994326	-0.001419764	0	0
14.48796	-0.007841945	0.02317778	0	0	0.04947348	0.03515235	0	0
14.50452	-0.007841945	0.02314039	0	-0.002257134	0	-0.06812241	0	0
14.52109	-0.007841945	0.02314039	0	0	0	0.06812241	0	0
14.53766	-0.007868258	0.02312169	-0.0015882	-0.001128502	-0.04793197	-0.03405827	0	0
14.55474	-0.007894573	0.02314039	-0.001540635	0.001094666	0.001413581	0.06607037	0	0
14.57079	-0.007894573	0.02314039	0	0	0.04649913	-0.03303899	0	0
14.58736	-0.007920887	0.02312169	-0.001588347	-0.001128567	-0.04869322	-0.03459796	0	0
14.60392	-0.007920887	0.02312169	0	0	0.0479378	0.0340612	0	0
14.62049	-0.007920887	0.02312169	0	0	0	0	0	0
14.63706	-0.007920887	0.02312169	0	0	0	0	0	0
14.65362	-0.007920887	0.02312169	0	0	0	0	0	0
14.67032	-0.007920887	0.02312169	0	0	0	0	0	0
14.68676	-0.007920887	0.02312169	0	0	0	0	0	0
14.70334	-0.007947201	0.02314039	-0.001586465	0.001127269	-0.04804	0.03413502	0	0
14.71989	-0.007947201	0.02310299	0	-0.002259866	0.04788098	-0.1022269	0	0
14.73646	-0.007947201	0.02310299	0	0	0	0.06824218	0	0
14.75302	-0.007947201	0.02310299	0	0	0	0	0	0
14.76959	-0.007973515	0.0230843	-0.001588347	-0.001128567	-0.04793918	-0.03406218	0	0
14.78616	-0.007973515	0.0230843	0	0	0.0479378	0.0340612	0	0
14.80272	-0.007973515	0.0230843	0	0	0	0	0	0
14.81943	-0.007973515	0.0230843	0	0	0	0	0	0
14.83586	-0.007973515	0.0230843	0	0	0	0	0	0
14.85242	-0.007973515	0.0230843	0	0	0	0	0	0
14.86899	-0.007973515	0.0230843	0	0	0	0	0	0
14.88556	-0.007973515	0.0230843	0	0	0	0	0	0
14.90212	-0.007999829	0.02310299	-0.001588383	0.001128632	-0.04794025	0.03406414	0	0
14.91869	-0.007999829	0.02310299	0	0	0.04793886	-0.03406316	0	0
14.93526	-0.007999829	0.02310299	0	0	0	0	0	0
14.95182	-0.007999829	0.02310299	0	0	0	0	0	0
14.96839	-0.007999829	0.02310299	0	0	0	0	0	0
14.98495	-0.007999829	0.02310299	0	0	0	0	0	0
15.00152	-0.007999829	0.02310299	0	0	0	0	0	0
15.01809	-0.007999829	0.02310299	0	0	0	0	0	0
15.05371	-0.007999829	0.02310299	0	0	0	0	0	0
15.07028	-0.007999829	0.02310299	0	0	0	0	0	0
15.08711	-0.007999829	0.02310299	0	0	0	0	0	0
15.10341	-0.007999829	0.02310299	0	0	0	0	0	0
15.12014	-0.007999829	0.02310299	0	0	0	0	0	0
15.13655	-0.007999829	0.02310299	0	0	0	0	0	0
15.15314	-0.007999829	0.02310299	0	0	0	0	0	0
15.16968	-0.007999829	0.02310299	0	0	0	0	0	0
15.18625	-0.007999829	0.02310299	0	0	0	0	0	0
15.20281	-0.007999829	0.02310299	0	0	0	0	0	0
15.21938	-0.007999829	0.02310299	0	0	0	0	0	0
15.23595	-0.007999829	0.02310299	0	0	0	0	0	0
15.25273	-0.007999829	0.02310299	0	0	0	0	0	0
15.26908	-0.007999829	0.02310299	0	0	0	0	0	0
15.28565	-0.007999829	0.02310299	0	0	0	0	0	0
15.30226	-0.007999829	0.02310299	0	0	0	0	0	0
15.31878	-0.007999829	0.02310299	0	0	0	0	0	0
15.33535	-0.007999829	0.02310299	0	0	0	0	0	0
15.35191	-0.007999829	0.02310299	0	0	0	0	0	0
15.36848	-0.007999829	0.02310299	0	0	0	0	0	0
15.38532	-0.007999829	0.02310299	0	0	0	0	0	0
15.40161	-0.007999829	0.02310299	0	0	0	0	0	0
15.41818	-0.007999829	0.02310299	0	0	0	0	0	0
15.43486	-0.007999829	0.02310299	0	0	0	0	0	0
15.45137	-0.007999829	0.02310299	0	0	0	0	0	0
15.46788	-0.007999829	0.02310299	0	0	0	0	0	0
15.48445	-0.007999829	0.02310299	0	0	0	0	0	0
15.50101	-0.007999829	0.02310299	0	0	0	0	0	0
15.51758	-0.007999829	0.02310299	0	0	0	0	0	0
15.53415	-0.007999829	0.02310299	0	0	0	0	0	0
15.55071	-0.007999829	0.02310299	0	0	0	0	0	0
15.56728	-0.007999829	0.02310299	0	0	0	0	0	0
15.58385	-0.007999829	0.02310299	0	0	0	0	0	0
15.60047	-0.007999829	0.02310299	0	0	0	0	0	0
15.61699	-0.007999829	0.02310299	0	0	0	0	0	0
15.63354	-0.007999829	0.02310299	0	0	0	0	0	0
15.65011	-0.007999829	0.02310299	0	0	0	0	0	0
15.66668	-0.007999829	0.02310299	0	0	0	0	0	0
15.68324	-0.007999829	0.02310299	0	0	0	0	0	0
15.70004	-0.007999829	0.02310299	0	0	0	0	0	0
15.71638	-0.007999829	0.02310299	0	0	0	0	0	0
15.75099	-0.007999829	0.02310299	0	0	0	0	0	0
15.76756	-0.007999829	0.02310299	0	0	0	0	0	0
15.78412	-0.007999829	0.02310299	0	0	0	0	0	0
15.80069	-0.007999829	0.02310299	0	0	0	0	0	0
15.81726	-0.007999829	0.02310299	0	0	0	0	0	0
15.83383	-0.007999829	0.02310299	0	0	0	0	0	0
15.85039	-0.007999829	0.02310299	0	0	0	0	0	0
15.86716	-0.007999829	0.02310299	0	0	0	0	0	0
15.88352	-0.007999829	0.02310299	0	0	0	0	0	0
15.90009	-0.007999829	0.02310299	0	0	0	0	0	0
15.91666	-0.007999829	0.02310299	0	0	0	0	0	0
15.93371	-0.007999829	0.02310299	0	0	0	0	0	0
15.94979	-0.007999829	0.02310299	0	0	0	0	0	0
15.96636	-0.007973515	0.0230843	0.001588291	-0.001128567	0.04865026	-0.03456865	0	0
15.98292	-0.007973515	0.0230843	0	0	-0.04793611	0.0340612	0	0
15.99949	-0.007973515	0.0230843	0	0	0	0	0	0
16.01627	-0.007973515	0.0230843	0	0	0	0	0	0
16.03263	-0.007973515	0.0230843	0	0	0	0	0	0
16.04919	-0.007973515	0.0230843	0	0	0	0	0	0
16.06581	-0.007973515	0.0230843	0	0	0	0	0	0
16.08282	-0.007973515	0.0230843	0	0	0	0	0	0
16.09889	-0.007973515	0.0230843	0	0	0	0	0	0
16.11546	-0.007973515	0.0230843	0	0	0	0	0	0
16.13235	-0.007973515	0.0230843	0	0	0	0	0	0
16.14887	-0.007973515	0.0230843	0	0	0	0	0	0
16.16516	-0.007973515	0.0230843	0	0	0	0	0	0
16.18173	-0.007973515	0.0230843	0	0	0	0	0	0
16.1984	-0.007973515	0.0230843	0	0	0	0	0	0
16.21486	-0.007973515	0.0230843	0	0	0	0	0	0
16.23143	-0.007973515	0.0230843	0	0	0	0	0	0
16.24799	-0.007973515	0.0230843	0	0	0	0	0	0
16.29797	-0.007947201	0.0230656	0.0005265796	-0.0003741502	0.007913758	-0.005622956	0	0
16.31426	-0.007947201	0.0230656	0	0	-0.007946559	0.005646262	0	0
16.33082	-0.007947201	0.0230656	0	0	0	0	0	0
16.34739	-0.007947201	0.0230656	0	0	0	0	0	0
16.36401	-0.007947201	0.0230656	0	0	0	0	0	0
16.38053	-0.007947201	0.0230656	0	0	0	0	0	0
16.39709	-0.007947201	0.0230656	0	0	0	0	0	0
16.41366	-0.007947201	0.0230656	0	0	0	0	0	0
16.43023	-0.007947201	0.0230656	0	0	0	0	0	0
16.44707	-0.007947201	0.0230656	0	0	0	0	0	0
16.46336	-0.007947201	0.0230656	0	0	0	0	0	0
16.50101	-0.007947201	0.0230656	0	0	0	0	0	0
16.51758	-0.007947201	0.0230656	0	0	0	0	0	0
16.53415	-0.007947201	0.0230656	0	0	0	0	0	0
16.55115	-0.007947201	0.0230656	0	0	0	0	0	0
16.56728	-0.007947201	0.0230656	0	0	0	0	0	0
16.58385	-0.007947201	0.0230656	0	0	0	0	0	0
16.60042	-0.007947201	0.0230656	0	0	0	0	0	0
16.64926	-0.007947201	0.0230656	0	0	0	0	0	0
16.66583	-0.007973515	0.0230469	-0.001588165	-0.001128437	-0.0242778	-0.01725008	0	0
16.6824	-0.007973515	0.0230469	0	0	0.04792815	0.03405434	0	0
16.69897	-0.007999829	0.0230282	-0.001588291	-0.001128567	-0.04793473	-0.03406022	0	0
16.71576	-0.008105085	0.02295341	-0.006266701	-0.004452863	-0.1402261	-0.09963918	0	0
16.7321	-0.008157713	0.02291602	-0.003221516	-0.002289135	0.09190916	0.0653052	0	0
16.74879	-0.008473481	0.02280383	-0.01892253	-0.00672309	-0.4754449	-0.1342653	0	0
16.76523	-0.009815474	0.0220745	-0.08160413	-0.04434898	-1.891843	-1.135617	0	0
16.78181	-0.01523566	0.01874387	-0.326975	-0.2009213	-7.430545	-4.741465	0	0
16.79837	-0.0246003	0.01361076	-0.5655761	-0.3100136	-7.200994	-3.292412	0	0
16.81533	-0.03446004	0.01152913	-0.5811515	-0.1226954	-0.4646126	5.587658	0	0
16.8315	-0.05268803	0.01299203	-1.127503	0.09048855	-16.48988	6.434275	0	0
16.84807	-0.06585202	0.01527892	-0.7945796	0.1380368	10.17061	1.452567	0	0
16.86463	-0.0738392	0.01732085	-0.4821626	0.1232653	9.429308	-0.4458292	0	0
16.8812	-0.08390779	0.02138244	-0.6078116	0.2451863	-3.792532	3.680008	0	0
16.89776	-0.09609783	0.02648558	-0.7358768	0.3080616	-3.865459	1.897797	0	0
16.91433	-0.09852209	0.02814767	-0.1463288	0.1003241	17.79362	-6.26989	0	0
16.93091	-0.09985103	0.02913709	-0.08013226	0.05965971	1.99678	-1.226618	0	0
16.94746	-0.09972076	0.02904376	0.007872381	-0.005639885	2.656138	-1.970859	0	0
16.96403	-0.09966865	0.02904376	0.003145327	0	-0.1427449	0.1703101	0	0
16.98095	-0.0996426	0.02909976	0.00154004	0.003309963	-0.0479399	0.09884792	0	0
16.99746	-0.09966865	0.02915576	-0.001577932	0.00339129	-0.0932684	0.002432742	0	0
17.01373	-0.09969471	0.02917442	-0.001601425	0.001147261	-0.0007166579	-0.06845394	0	0
17.0303	-0.09974682	0.02921175	-0.003145327	0.002253312	-0.04701728	0.03368316	0	0
17.04686	-0.0999292	0.02930508	-0.01100865	0.005633167	-0.2373154	0.1020042	0	0
17.06351	-0.1018829	0.03066736	-0.1173419	0.08182238	-3.20122	2.293717	0	0
17.08	-0.1041741	0.03230888	-0.1389747	0.09956407	-0.6528404	0.5354144	0	0
17.09657	-0.1106774	0.03696831	-0.3925847	0.2812756	-7.672958	5.497674	0	0
17.11313	-0.1222038	0.04522909	-0.6956533	0.4985645	-9.14663	6.55779	0	0
17.1297	-0.1313447	0.05178399	-0.5518098	0.3957002	4.341205	-3.104449	0	0
17.14627	-0.1405926	0.0584575	-0.5582677	0.4028605	-0.1949194	0.2161233	0	0
17.16283	-0.1512055	0.06611823	-0.6405926	0.462402	-2.484716	1.797069	0	0
17.1794	-0.1572437	0.07049721	-0.3644694	0.2643159	8.333415	-5.978251	0	0
17.19597	-0.1621685	0.07407824	-0.2972645	0.2161515	2.02825	-1.453603	0	0
17.21262	-0.1635522	0.07511137	-0.08309887	0.06204539	6.447201	-4.639183	0	0
17.2291	-0.1639621	0.07548028	-0.02486782	0.02238375	1.757518	-1.19706	0	0
17.24673	-0.1636803	0.07568317	0.01598253	0.01150829	1.19757	-0.3188254	0	0
17.2633	-0.1635522	0.07577538	0.007731551	0.005566159	-0.241279	-0.1737624	0	0
17.27986	-0.1631167	0.07605203	0.02628961	0.01669848	0.5600834	0.335974	0	0
17.29643	-0.1627323	0.07632866	0.02320182	0.01669905	-0.09319507	1.731514E-05	0	0
17.313	-0.1616046	0.07710312	0.06806841	0.04674638	1.354154	0.9068825	0	0
17.4124	-0.1599379	0.07852259	0.01676763	0.01428044	-0.4423747	-0.2799589	0	0
17.42896	-0.1544701	0.08263085	0.3300028	0.2479468	2.701032	2.014909	0	0
17.44553	-0.1445892	0.09046812	0.5964819	0.4731132	8.042356	6.795535	0	0
17.46229	-0.1379343	0.09616259	0.3970709	0.3397682	-5.98379	-4.001328	0	0
17.47866	-0.1291197	0.1025649	0.5383717	0.3910382	4.264712	1.547422	0	0
17.49523	-0.1227223	0.107164	0.3861952	0.2776338	-4.62009	-3.442964	0	0
17.51182	-0.1171713	0.1111914	0.3344771	0.2426759	-1.559599	-1.054182	0	0
17.52836	-0.1105995	0.1159285	0.3973667	0.2864231	1.898011	1.32029	0	0
17.54493	-0.10597	0.1192545	0.2794685	0.2007808	-3.561455	-2.587071	0	0
17.56149	-0.1028984	0.1217019	0.1853971	0.1477247	-2.839243	-1.601328	0	0
17.57806	-0.09927781	0.1254072	0.2185422	0.2236551	1.000322	2.291583	0	0
17.59463	-0.1023777	0.1302038	-0.187107	0.2895194	-12.24252	1.987789	0	0
17.6112	-0.1070888	0.1378727	-0.2843625	0.462901	-2.935178	5.232666	0	0
17.62777	-0.1173271	0.1474392	-0.6179155	0.577365	-10.06607	3.454334	0	0
17.64442	-0.1230074	0.1514174	-0.3410978	0.2388857	8.332312	-10.18835	0	0
17.66093	-0.1332065	0.1585676	-0.6176811	0.4330329	-8.339621	5.853982	0	0
17.67794	-0.1422176	0.164894	-0.5296402	0.3718461	2.626092	-1.825083	0	0
17.69403	-0.1459804	0.1675386	-0.2339414	0.1644201	8.933977	-6.266984	0	0
17.74373	-0.1540076	0.1731865	-0.1615066	0.1136353	1.101061	-0.771965	0	0
17.7603	-0.1540847	0.1732408	-0.004652782	0.003275746	2.366929	-1.665329	0	0
17.77701	-0.1541104	0.1732227	-0.001536827	-0.001082197	0.09361936	-0.1309351	0	0
17.79343	-0.1541104	0.1732227	0	0	0.04638153	0.03266077	0	0
17.81	-0.1541361	0.1732046	-0.001551706	-0.001092041	-0.0470445	-0.03310842	0	0
17.82657	-0.1541874	0.1731684	-0.003100898	-0.002184478	-0.04675472	-0.03296982	0	0
17.84313	-0.1543159	0.1730779	-0.007755829	-0.005461104	-0.1404861	-0.09888875	0	0
17.8597	-0.154393	0.1729874	-0.004653317	-0.005462003	0.09364477	-2.715485E-05	0	0
17.87626	-0.1545985	0.1728065	-0.01240825	-0.01092311	-0.2340712	-0.1648354	0	0
17.89283	-0.1547527	0.1726979	-0.009303764	-0.00655329	0.09369887	0.1318889	0	0
17.91011	-0.1550353	0.1725351	-0.01635279	-0.009425014	-0.2082564	-0.08484225	0	0
17.92612	-0.1565249	0.1714854	-0.0930611	-0.06557585	-2.304449	-1.686867	0	0
17.94253	-0.1588092	0.1698744	-0.1391823	-0.09815605	-1.422652	-1.004966	0	0
17.95914	-0.1589888	0.1698563	-0.01080889	-0.001089678	3.886848	2.938943	0	0
17.97616	-0.1594249	0.1702003	-0.02563698	0.02021842	-0.4409637	0.6336689	0	0
17.99223	-0.160656	0.1710691	-0.07659253	0.05405708	-1.540147	1.022784	0	0
18.00918	-0.1616303	0.1717569	-0.05748245	0.04057911	0.5787089	-0.4081524	0	0
18.02536	-0.1636547	0.1731865	-0.1250755	0.0883247	-2.039962	1.440965	0	0
18.04193	-0.1717388	0.178974	-0.4879548	0.3493373	-11.07927	7.969123	0	0
18.05849	-0.1780929	0.183474	-0.3836267	0.2716814	3.148991	-2.34393	0	0
18.07522	-0.181812	0.1861112	-0.2223049	0.1576369	4.845551	-3.425505	0	0
18.09163	-0.1864155	0.1893792	-0.2805816	0.1991815	-1.758693	1.253748	0	0
18.10825	-0.1875841	0.1902094	-0.07033134	0.049967	6.366621	-4.518388	0	0
18.12527	-0.1882699	0.1906967	-0.04029541	0.02863532	0.8930178	-0.634226	0	0
18.14711	-0.1882699	0.1906967	0	0	1.036777	-0.7367697	0	0
18.16368	-0.1883207	0.1907328	-0.003066177	0.002178434	-0.07981528	0.05670655	0	0
18.1803	-0.188473	0.1908411	-0.009168388	0.006516694	-0.1838899	0.1307333	0	0
18.26308	-0.1888539	0.1911118	-0.004600702	0.003270118	0.04595277	-0.03266187	0	0
18.27987	-0.1889046	0.1911479	-0.003023993	0.002149724	0.01583499	-0.01125219	0	0
18.29622	-0.1890316	0.1912382	-0.007766008	0.0055198	-0.1431143	0.1017091	0	0
18.31278	-0.1898438	0.1918156	-0.04903299	0.03485985	-1.253885	0.8914887	0	0
18.32935	-0.1909603	0.1926095	-0.06738754	0.04792194	-0.5539731	0.3942375	0	0
18.34591	-0.1955224	0.1958565	-0.2753713	0.195988	-6.276962	4.468642	0	0
18.36248	-0.2024511	0.2007965	-0.4182188	0.2981747	-4.311146	3.084001	0	0
18.37905	-0.2032086	0.2013371	-0.04572449	0.03263889	11.24255	-8.014348	0	0
18.39561	-0.2031328	0.2012831	0.004570933	-0.003263153	1.518006	-1.083588	0	0
18.41218	-0.2030823	0.2012831	0.003048188	0	-0.04595653	0.09848216	0	0
18.42898	-0.2030823	0.2012831	0	0	-0.09136862	0	0	0
18.44549	-0.2030823	0.2012831	0	0	0	0	0	0
18.46188	-0.2030823	0.2012831	0	0	0	0	0	0
18.47853	-0.2030571	0.201265	0.001516486	-0.001083204	0.0459024	-0.03278743	0	0
18.49502	-0.2030571	0.201265	0	0	-0.04575711	0.03268365	0	0
18.51158	-0.2030319	0.201247	0.001524346	-0.001087919	0.0461137	-0.03291113	0	0
18.52855	-0.2030319	0.201247	0	0	-0.0454709	0.03245237	0	0
18.54472	-0.2030066	0.201229	0.001561026	-0.001115018	0.04711185	-0.03365132	0	0
18.56129	-0.2029814	0.201211	0.001524544	-0.001087418	-0.001114365	0.0008430739	0	0
18.57808	-0.2029814	0.201211	0	0	-0.04568996	0.03258947	0	0
18.59459	-0.2029561	0.2011929	0.001528925	-0.001092089	0.04589997	-0.03278569	0	0
18.61099	-0.2029561	0.2011929	0	0	-0.04646939	0.03319243	0	0
18.62762	-0.2029309	0.2011749	0.001517356	-0.00108293	0.04594198	-0.03278858	0	0
18.64413	-0.2029056	0.2011569	0.001529102	-0.001092216	0.0003543952	-0.0002801674	0	0
18.66068	-0.2029056	0.2011569	0	0	-0.04624955	0.03303539	0	0
18.67725	-0.2028804	0.2011389	0.001524544	-0.001087418	0.04602937	-0.03283157	0	0
18.69382	-0.2028551	0.2011209	0.001523644	-0.001087418	-2.714821E-05	0	0	0
18.71039	-0.2028299	0.2011028	0.001523644	-0.001088317	0	-2.714469E-05	0	0
18.72695	-0.2028299	0.2011028	0	0	-0.04598632	0.03284737	0	0
18.7437	-0.2028299	0.2011028	0	0	0	0	0	0
18.76021	-0.2028299	0.2011028	0	0	0	0	0	0
18.77665	-0.2028046	0.2010848	0.001536573	-0.001095998	0.04663156	-0.0332611	0	0
18.79322	-0.2028046	0.2010848	0	0	-0.0465588	0.0332092	0	0
18.80978	-0.2027541	0.2010488	0.003048188	-0.002175735	0.0919998	-0.0656676	0	0
18.82635	-0.2026531	0.2009767	0.006095477	-0.004351471	0.09196735	-0.06566382	0	0
18.84327	-0.2026026	0.2009406	0.00298462	-0.002130362	-0.09289657	0.06632687	0	0
18.85948	-0.2025774	0.2009226	0.001557904	-0.001112132	-0.04306084	0.03073199	0	0
18.87605	-0.2025774	0.2009226	0	0	-0.04752928	0.03392945	0	0
18.89262	-0.2025774	0.2009226	0	0	0	0	0	0
18.91412	-0.2025774	0.2009226	0	0	0	0	0	0
18.93083	-0.2025774	0.2009226	0	0	0	0	0	0
18.94726	-0.2025774	0.2009226	0	0	0	0	0	0
18.96386	-0.2025774	0.2009226	0	0	0	0	0	0
18.98039	-0.2025774	0.2009226	0	0	0	0	0	0
18.99696	-0.2025774	0.2009226	0	0	0	0	0	0
19.01353	-0.2025774	0.2009226	0	0	0	0	0	0
19.03009	-0.2025774	0.2009226	0	0	0	0	0	0
19.06343	-0.2025521	0.2009046	0.0007572886	-0.0005404734	0.01517669	-0.01083153	0	0
19.07994	-0.2025521	0.2009046	0	0	-0.01519353	0.01084355	0	0
19.09645	-0.2024764	0.2008505	0.00458858	-0.003275365	0.1389636	-0.09919332	0	0
19.11292	-0.2023249	0.2007424	0.009194155	-0.006561957	0.1396073	-0.09962539	0	0
19.12949	-0.2018955	0.200436	0.02591843	-0.01849633	0.5061089	-0.3611571	0	0
19.14606	-0.2013398	0.2000394	0.03354356	-0.02393489	0.2301401	-0.1641455	0	0
19.16262	-0.1982557	0.1978401	0.1861544	-0.1327531	4.605805	-3.284141	0	0
19.17919	-0.1963832	0.1965058	0.1130258	-0.08054089	-2.207026	1.575769	0	0
19.19602	-0.1923551	0.1936379	0.2393891	-0.1704351	3.784027	-2.691937	0	0
19.21253	-0.1855513	0.1888015	0.4120528	-0.2929042	5.1791	-3.673501	0	0
19.22904	-0.1791378	0.1842147	0.3884158	-0.2777873	-0.7157539	0.4577582	0	0
19.24546	-0.1742413	0.1807455	0.2982674	-0.2113242	-2.737705	2.018409	0	0
19.26203	-0.1627323	0.1726075	0.694682	-0.4912125	12.01847	-8.485636	0	0
19.27859	-0.1563451	0.1680638	0.3855342	-0.2742551	-9.330099	6.547788	0	0
19.29516	-0.1418049	0.1577876	0.8776461	-0.6202708	14.85197	-10.44277	0	0
19.31173	-0.1256762	0.1463488	0.9735314	-0.6904501	2.893823	-2.118017	0	0
19.32862	-0.1124447	0.1369625	0.783412	-0.5557445	-5.682535	4.026257	0	0
19.34513	-0.1035754	0.1305683	0.53721	-0.387291	-7.371409	5.043581	0	0
19.36164	-0.08126798	0.1138989	1.350677	-1.009307	24.63129	-18.83427	0	0
19.378	-0.07226866	0.1010064	0.5502961	-0.7883545	-24.35037	6.722136	0	0
19.39456	-0.06878604	0.08526324	0.2102112	-0.9502621	-10.33038	-4.918087	0	0
19.41117	-0.06765972	0.06243772	0.06780522	-1.374113	-4.292139	-12.77492	0	0
19.42771	-0.06742396	0.04550786	0.01425669	-1.023774	-1.615447	10.56897	0	0
19.44426	-0.06739777	0.02980899	0.001582848	-0.948568	-0.3830484	2.273001	0	0
19.46083	-0.06800026	0.01591598	-0.03636644	-0.8385841	-1.145905	3.321042	0	0
19.4774	-0.06936223	0.0009701694	-0.08219942	-0.902027	-1.383163	-1.914602	0	0
19.49396	-0.07229484	-0.01026418	-0.177033	-0.6781847	-2.862082	6.755573	0	0
19.51053	-0.07331572	-0.01251191	-0.0616208	-0.1356734	3.483346	16.37397	0	0
19.52726	-0.07820857	-0.0182801	-0.2924042	-0.3447155	-6.930348	-6.277467	0	0
19.54366	-0.0794116	-0.01918883	-0.07334928	-0.05540604	6.61109	8.731379	0	0
19.56028	-0.0794116	-0.01915096	0	0.00227872	2.221358	1.746963	0	0
19.5768	-0.0794116	-0.01915096	0	0	0	-0.06877192	0	0
19.61282	-0.07943775	-0.01913202	-0.0007259457	0.0005255868	-0.01381706	0.01000359	0	0
19.6294	-0.0794639	-0.01911309	-0.001577602	0.001142188	-0.01619092	0.01172227	0	0
19.6455	-0.0794639	-0.01911309	0	0	0.04827348	-0.03495013	0	0
19.66207	-0.0794639	-0.01911309	0	0	0	0	0	0
19.67864	-0.0794639	-0.01911309	0	0	0	0	0	0
19.69521	-0.0794639	-0.01911309	0	0	0	0	0	0
19.71189	-0.0794639	-0.01911309	0	0	0	0	0	0
19.72834	-0.0794639	-0.01911309	0	0	0	0	0	0
19.74491	-0.0794639	-0.01911309	0	0	0	0	0	0
19.76147	-0.0794639	-0.01911309	0	0	0	0	0	0
19.77804	-0.0794639	-0.01911309	0	0	0	0	0	0
19.81117	-0.07943775	-0.01913202	0.000789255	-0.0005714229	0.01588106	-0.01149793	0	0
19.82774	-0.07943775	-0.01913202	0	0	-0.01587923	0.01149661	0	0
19.84431	-0.07943775	-0.01913202	0	0	0	0	0	0
19.86087	-0.07943775	-0.01913202	0	0	0	0	0	0
19.87744	-0.07943775	-0.01913202	0	0	0	0	0	0
19.89402	-0.07943775	-0.01913202	0	0	0	0	0	0
19.91057	-0.0794639	-0.01911309	-0.001580329	0.001144163	-0.04769718	0.03453289	0	0
19.92754	-0.07943775	-0.01909416	0.001540901	0.001115617	0.09311617	-0.0008516235	0	0
19.96027	-0.07943775	-0.01909416	0	0	-0.03100299	-0.02244625	0	0
19.97684	-0.07943775	-0.01909416	0	0	0	0	0	0
19.99359	-0.0794116	-0.01911309	0.001561077	-0.001130224	0.04685447	-0.03392277	0	0
20.00997	-0.07935929	-0.01915096	0.003193046	-0.002311774	0.04925575	-0.0356613	0	0
20.02661	-0.07933315	-0.01916989	0.001571006	-0.001137849	-0.04912006	0.03554986	0	0
20.04313	-0.07933315	-0.01920776	0	-0.002292667	-0.04737762	-0.0348264	0	0
20.05967	-0.079307	-0.0192267	0.001581058	-0.001144691	0.04782655	0.03472594	0	0
20.07665	-0.07928085	-0.01920776	0.001540209	0.001115115	-0.001218671	0.06741717	0	0
20.0928	-0.07928085	-0.01920776	0	0	-0.04648359	-0.03365425	0	0
20.10937	-0.079307	-0.01918883	-0.001578692	0.00114309	-0.04824769	0.0349349	0	0
20.12594	-0.079307	-0.01918883	0	0	0.04764776	-0.0345005	0	0
20.1427	-0.079307	-0.01918883	0	0	0	0	0	0
20.15907	-0.079307	-0.01918883	0	0	0	0	0	0
20.17572	-0.079307	-0.01918883	0	0	0	0	0	0
20.1922	-0.079307	-0.01918883	0	0	0	0	0	0
20.20877	-0.079307	-0.01918883	0	0	0	0	0	0
20.22534	-0.079307	-0.01918883	0	0	0	0	0	0
20.24191	-0.07925469	-0.0192267	0.00315702	-0.002285804	0.09527905	-0.0689857	0	0
20.25878	-0.07925469	-0.0192267	0	0	-0.09440952	0.06835613	0	0
20.27504	-0.07920239	-0.01926457	0.003216265	-0.002328699	0.09706707	-0.07028029	0	0
20.2918	-0.07917624	-0.0192835	0.001560189	-0.001129692	-0.05014791	0.03630733	0	0
20.30831	-0.07917624	-0.0192835	0	0	-0.04688955	0.03395151	0	0
20.34134	-0.07915009	-0.01930244	0.0007918989	-0.0005733935	0.01598641	-0.01157535	0	0
20.35788	-0.07915009	-0.01930244	0	0	-0.0159778	0.01156911	0	0
20.37444	-0.07912394	-0.01932137	0.001578692	-0.00114309	0.04768893	-0.03453032	0	0
20.41199	-0.07899318	-0.01941605	0.003482585	-0.002521649	0.03518465	-0.02547629	0	0
20.42855	-0.07894088	-0.01945392	0.003157384	-0.002286179	-0.006009844	0.004351572	0	0
20.44541	-0.07888857	-0.0194918	0.003102022	-0.002246204	-0.001656228	0.00119592	0	0
20.46169	-0.07875781	-0.01958648	0.008036408	-0.005818966	0.1489286	-0.1078324	0	0
20.47843	-0.0787055	-0.01962435	0.003122865	-0.002261297	-0.148805	0.1077428	0	0
20.49482	-0.07849628	-0.01977585	0.01277012	-0.009246876	0.2911715	-0.2108373	0	0
20.51146	-0.0777116	-0.02034405	0.04715123	-0.03414297	1.04104	-0.7538393	0	0
20.52797	-0.07737155	-0.0205903	0.02059909	-0.01491687	-0.8009763	0.579978	0	0
20.54452	-0.07692684	-0.02095024	0.02687061	-0.02174841	0.1897115	-0.2066522	0	0
20.56108	-0.07690068	-0.02093129	0.00157896	0.00114352	-0.7636991	0.6912379	0	0
20.578	-0.07692684	-0.02095024	-0.001546206	-0.001119799	-0.09332915	-0.0675912	0	0
20.59422	-0.07692684	-0.02095024	0	0	0.04666726	0.03379755	0	0
20.61103	-0.07690068	-0.02093129	0.001556029	0.001126914	0.04711565	0.03412228	0	0
20.62735	-0.07690068	-0.02093129	0	0	-0.04696377	-0.03401228	0	0
20.64392	-0.07692684	-0.02095024	-0.00157896	-0.00114352	-0.0480096	-0.0347697	0	0
20.66057	-0.07692684	-0.02095024	0	0	0.04753543	0.03442629	0	0
20.67705	-0.07692684	-0.02095024	0	0	0	0	0	0
20.73505	-0.07692684	-0.02091235	0	0.0006532468	0	0.008770087	0	0
20.75162	-0.07692684	-0.02091235	0	0	0	-0.008759993	0	0
20.76819	-0.07692684	-0.02091235	0	0	0	0	0	0
20.78475	-0.07692684	-0.02091235	0	0	0	0	0	0
20.80132	-0.07692684	-0.02091235	0	0	0	0	0	0
20.81789	-0.07692684	-0.02091235	0	0	0	0	0	0
20.91729	-0.07692684	-0.02091235	0	0	0	0	0	0
20.93385	-0.07692684	-0.02091235	0	0	0	0	0	0
20.95042	-0.07692684	-0.02091235	0	0	0	0	0	0
20.96699	-0.07692684	-0.02091235	0	0	0	0	0	0
20.98355	-0.07692684	-0.02091235	0	0	0	0	0	0
21.00012	-0.07692684	-0.02091235	0	0	0	0	0	0
21.01669	-0.07692684	-0.02091235	0	0	0	0	0	0
21.03325	-0.07692684	-0.02091235	0	0	0	0	0	0
21.04982	-0.07692684	-0.02091235	0	0	0	0	0	0
21.06639	-0.07692684	-0.02091235	0	0	0	0	0	0
21.08295	-0.07692684	-0.02091235	0	0	0	0	0	0
21.09952	-0.07692684	-0.02091235	0	0	0	0	0	0
21.11609	-0.07692684	-0.02091235	0	0	0	0	0	0
21.13265	-0.07692684	-0.02091235	0	0	0	0	0	0
21.14922	-0.07692684	-0.02091235	0	0	0	0	0	0
21.16579	-0.07692684	-0.02091235	0	0	0	0	0	0
21.18235	-0.07692684	-0.02091235	0	0	0	0	0	0
21.19894	-0.07692684	-0.02091235	0	0	0	0	0	0
21.21549	-0.07692684	-0.02091235	0	0	0	0	0	0
21.23799	-0.07692684	-0.02091235	0	0	0	0	0	0
21.25456	-0.07692684	-0.02091235	0	0	0	0	0	0
21.2715	-0.07692684	-0.02091235	0	0	0	0	0	0
21.288	-0.07692684	-0.02091235	0	0	0	0	0	0
21.30426	-0.07692684	-0.02091235	0	0	0	0	0	0
21.32882	-0.07692684	-0.02091235	0	0	0	0	0	0
21.34543	-0.07692684	-0.02091235	0	0	0	0	0	0
21.36196	-0.07692684	-0.02091235	0	0	0	0	0	0
21.37857	-0.07692684	-0.02091235	0	0	0	0	0	0
21.39509	-0.07692684	-0.02091235	0	0	0	0	0	0
21.41166	-0.07692684	-0.02091235	0	0	0	0	0	0
21.42824	-0.07692684	-0.02091235	0	0	0	0	0	0
21.44479	-0.07692684	-0.02091235	0	0	0	0	0	0
21.46163	-0.07692684	-0.02091235	0	0	0	0	0	0
21.47793	-0.07692684	-0.02091235	0	0	0	0	0	0
21.49449	-0.07692684	-0.02091235	0	0	0	0	0	0
21.51106	-0.076953	-0.0208934	-0.00157896	0.00114352	-0.04765584	0.0345135	0	0
21.52763	-0.076953	-0.0208934	0	0	0.0476531	-0.03451151	0	0
21.5442	-0.076953	-0.0208934	0	0	0	0	0	0
21.56076	-0.076953	-0.0208934	0	0	0	0	0	0
21.57733	-0.076953	-0.0208934	0	0	0	0	0	0
21.5939	-0.07692684	-0.02091235	0.00157896	-0.00114352	0.0476531	-0.03451151	0	0
21.61074	-0.07692684	-0.02091235	0	0	-0.04726134	0.03422779	0	0
21.62703	-0.07692684	-0.02091235	0	0	0	0	0	0
21.6933	-0.07692684	-0.02091235	0	0	0	0	0	0
21.743	-0.07692684	-0.02091235	0	0	0	0	0	0
21.75957	-0.07692684	-0.02091235	0	0	0	0	0	0
21.77613	-0.07692684	-0.02091235	0	0	0	0	0	0
21.7927	-0.07692684	-0.02091235	0	0	0	0	0	0
21.80927	-0.07692684	-0.02091235	0	0	0	0	0	0
21.8259	-0.07692684	-0.02091235	0	0	0	0	0	0
21.84242	-0.07692684	-0.02091235	0	0	0	0	0	0
21.85897	-0.07692684	-0.02091235	0	0	0	0	0	0
21.87593	-0.07692684	-0.02091235	0	0	0	0	0	0
21.8921	-0.07692684	-0.02091235	0	0	0	0	0	0
21.90867	-0.07692684	-0.02091235	0	0	0	0	0	0
21.92547	-0.07692684	-0.02091235	0	0	0	0	0	0
21.9418	-0.07692684	-0.02091235	0	0	0	0	0	0
21.97636	-0.07690068	-0.02093129	0.0007570569	-0.0005482787	0.01487635	-0.01077381	0	0
21.99302	-0.07690068	-0.02093129	0	0	-0.01478216	0.0107056	0	0
22.00953	-0.07690068	-0.02093129	0	0	0	0	0	0
22.02606	-0.07690068	-0.02093129	0	0	0	0	0	0
22.04263	-0.07690068	-0.02093129	0	0	0	0	0	0
22.05919	-0.07690068	-0.02093129	0	0	0	0	0	0
22.07607	-0.07690068	-0.02093129	0	0	0	0	0	0
22.10889	-0.07690068	-0.02093129	0	0	0	0	0	0
22.12546	-0.07690068	-0.02093129	0	0	0	0	0	0
22.14212	-0.07690068	-0.02093129	0	0	0	0	0	0
22.15863	-0.07690068	-0.02093129	0	0	0	0	0	0
22.17516	-0.07690068	-0.02093129	0	0	0	0	0	0
22.19172	-0.07690068	-0.02093129	0	0	0	0	0	0
22.20829	-0.07690068	-0.02093129	0	0	0	0	0	0
22.22518	-0.07690068	-0.02093129	0	0	0	0	0	0
22.24142	-0.07690068	-0.02093129	0	0	0	0	0	0
22.25799	-0.07690068	-0.02093129	0	0	0	0	0	0
22.27471	-0.07690068	-0.02093129	0	0	0	0	0	0
22.29122	-0.07690068	-0.02093129	0	0	0	0	0	0
22.30769	-0.07690068	-0.02093129	0	0	0	0	0	0
22.32426	-0.07690068	-0.02093129	0	0	0	0	0	0
22.34126	-0.07690068	-0.02093129	0	0	0	0	0	0
22.35739	-0.07690068	-0.02093129	0	0	0	0	0	0
22.37396	-0.07690068	-0.02093129	0	0	0	0	0	0
22.39079	-0.07690068	-0.02093129	0	0	0	0	0	0
22.40731	-0.07690068	-0.02093129	0	0	0	0	0	0
22.42366	-0.07690068	-0.02093129	0	0	0	0	0	0
22.44033	-0.07690068	-0.02093129	0	0	0	0	0	0
22.45685	-0.07690068	-0.02093129	0	0	0	0	0	0
22.47336	-0.07690068	-0.02093129	0	0	0	0	0	0
22.48992	-0.07690068	-0.02093129	0	0	0	0	0	0
22.50688	-0.07690068	-0.02093129	0	0	0	0	0	0
22.5231	-0.07690068	-0.02093129	0	0	0	0	0	0
22.53963	-0.07690068	-0.02093129	0	0	0	0	0	0
22.55619	-0.07690068	-0.02093129	0	0	0	0	0	0
22.57276	-0.07690068	-0.02093129	0	0	0	0	0	0
22.58944	-0.07690068	-0.02093129	0	0	0	0	0	0
22.62246	-0.07690068	-0.02093129	0	0	0	0	0	0
22.63902	-0.07690068	-0.02093129	0	0	0	0	0	0
22.65599	-0.07690068	-0.02093129	0	0	0	0	0	0
22.6725	-0.07690068	-0.02093129	0	0	0	0	0	0
22.68873	-0.07690068	-0.02093129	0	0	0	0	0	0
22.70552	-0.07690068	-0.02093129	0	0	0	0	0	0
22.74075	-0.07690068	-0.02093129	0	0	0	0	0	0
22.75732	-0.07690068	-0.02093129	0	0	0	0	0	0
22.77389	-0.07690068	-0.02093129	0	0	0	0	0	0
22.80702	-0.07690068	-0.02093129	0	0	0	0	0	0
22.82358	-0.07690068	-0.02093129	0	0	0	0	0	0
22.84015	-0.07690068	-0.02093129	0	0	0	0	0	0
22.85672	-0.07690068	-0.02093129	0	0	0	0	0	0
22.87364	-0.07690068	-0.02093129	0	0	0	0	0	0
22.88985	-0.07690068	-0.02093129	0	0	0	0	0	0
22.90642	-0.07690068	-0.02093129	0	0	0	0	0	0
22.92317	-0.07690068	-0.02093129	0	0	0	0	0	0
22.93955	-0.07690068	-0.02093129	0	0	0	0	0	0
22.95625	-0.07690068	-0.02093129	0	0	0	0	0	0
22.97269	-0.07690068	-0.02093129	0	0	0	0	0	0
22.98972	-0.07687452	-0.02095024	0.001535645	-0.001112151	0.04588363	-0.03323002	0	0
23.00583	-0.07687452	-0.02095024	0	0	-0.04634051	0.03356091	0	0
23.02239	-0.07687452	-0.02095024	0	0	0	0	0	0
23.03896	-0.07687452	-0.02095024	0	0	0	0	0	0
23.05552	-0.07687452	-0.02095024	0	0	0	0	0	0
23.07209	-0.07687452	-0.02095024	0	0	0	0	0	0
23.08866	-0.07687452	-0.02095024	0	0	0	0	0	0
23.10522	-0.07687452	-0.02095024	0	0	0	0	0	0
23.13883	-0.07687452	-0.02095024	0	0	0	0	0	0
23.15492	-0.07687452	-0.02095024	0	0	0	0	0	0
23.17185	-0.07687452	-0.02095024	0	0	0	0	0	0
23.18806	-0.07687452	-0.02095024	0	0	0	0	0	0
23.20462	-0.07687452	-0.02095024	0	0	0	0	0	0
23.22119	-0.07687452	-0.02095024	0	0	0	0	0	0
23.23775	-0.07687452	-0.02095024	0	0	0	0	0	0
23.25441	-0.07687452	-0.02095024	0	0	0	0	0	0
23.27089	-0.07687452	-0.02095024	0	0	0	0	0	0
23.28745	-0.07687452	-0.02095024	0	0	0	0	0	0
23.30402	-0.07687452	-0.02095024	0	0	0	0	0	0
23.32059	-0.07687452	-0.02095024	0	0	0	0	0	0
23.33715	-0.07687452	-0.02095024	0	0	0	0	0	0
23.37029	-0.07687452	-0.02095024	0	0	0	0	0	0
23.387	-0.07687452	-0.02095024	0	0	0	0	0	0
23.40351	-0.07687452	-0.02095024	0	0	0	0	0	0
23.42003	-0.07687452	-0.02095024	0	0	0	0	0	0
23.43656	-0.07687452	-0.02095024	0	0	0	0	0	0
23.45312	-0.07687452	-0.02095024	0	0	0	0	0	0
23.46969	-0.07687452	-0.02095024	0	0	0	0	0	0
23.49125	-0.07687452	-0.02095024	0	0	0	0	0	0
23.50782	-0.07687452	-0.02095024	0	0	0	0	0	0
23.52439	-0.07687452	-0.02095024	0	0	0	0	0	0
23.54095	-0.07687452	-0.02095024	0	0	0	0	0	0
23.55763	-0.07687452	-0.02095024	0	0	0	0	0	0
23.57414	-0.07687452	-0.02095024	0	0	0	0	0	0
23.59065	-0.07687452	-0.02095024	0	0	0	0	0	0
23.60766	-0.07687452	-0.02095024	0	0	0	0	0	0
23.62379	-0.07687452	-0.02095024	0	0	0	0	0	0
23.64035	-0.07687452	-0.02095024	0	0	0	0	0	0
23.6572	-0.07687452	-0.02095024	0	0	0	0	0	0
23.67372	-0.07687452	-0.02095024	0	0	0	0	0	0
23.69022	-0.07687452	-0.02095024	0	0	0	0	0	0
23.70673	-0.07687452	-0.02095024	0	0	0	0	0	0
23.72319	-0.07687452	-0.02095024	0	0	0	0	0	0
23.73975	-0.07687452	-0.02095024	0	0	0	0	0	0
23.75632	-0.07687452	-0.02095024	0	0	0	0	0	0
23.77289	-0.07687452	-0.02095024	0	0	0	0	0	0
23.78946	-0.07687452	-0.02095024	0	0	0	0	0	0
23.80602	-0.07687452	-0.02095024	0	0	0	0	0	0
23.82259	-0.07687452	-0.02095024	0	0	0	0	0	0
23.83934	-0.07687452	-0.02095024	0	0	0	0	0	0
23.85587	-0.07687452	-0.02095024	0	0	0	0	0	0
23.87229	-0.07687452	-0.02095024	0	0	0	0	0	0
23.88887	-0.07687452	-0.02095024	0	0	0	0	0	0
23.90542	-0.07687452	-0.02095024	0	0	0	0	0	0
23.92199	-0.07687452	-0.02095024	0	0	0	0	0	0
23.93857	-0.07687452	-0.02095024	0	0	0	0	0	0
23.95512	-0.07687452	-0.02095024	0	0	0	0	0	0
23.97169	-0.07687452	-0.02095024	0	0	0	0	0	0
23.98825	-0.07687452	-0.02095024	0	0	0	0	0	0
24.00482	-0.07687452	-0.02095024	0	0	0	0	0	0
24.02146	-0.07687452	-0.02095024	0	0	0	0	0	0
24.03795	-0.07687452	-0.02095024	0	0	0	0	0	0
24.05452	-0.07687452	-0.02095024	0	0	0	0	0	0
24.07149	-0.07687452	-0.02095024	0	0	0	0	0	0
24.08765	-0.07687452	-0.02095024	0	0	0	0	0	0
24.10422	-0.07687452	-0.02095024	0	0	0	0	0	0
24.12078	-0.07684836	-0.02093129	0.001579591	0.001143652	0.04767491	0.03451747	0	0
24.13753	-0.07684836	-0.02093129	0	0	-0.0474156	-0.03432972	0	0
24.17406	-0.07684836	-0.02093129	0	0	0	0	0	0
24.19053	-0.07684836	-0.02093129	0	0	0	0	0	0
24.2071	-0.07684836	-0.02093129	0	0	0	0	0	0
24.22367	-0.07684836	-0.02093129	0	0	0	0	0	0
24.24023	-0.07684836	-0.02093129	0	0	0	0	0	0
24.2568	-0.07684836	-0.02093129	0	0	0	0	0	0
24.27337	-0.07684836	-0.02093129	0	0	0	0	0	0
24.28993	-0.07684836	-0.02093129	0	0	0	0	0	0
24.3065	-0.07679604	-0.0208934	0.003158283	0.002287304	0.09532265	0.06903494	0	0
24.32307	-0.0764821	-0.02066607	0.01894931	0.01372157	0.4766017	0.3451067	0	0
24.33968	-0.07580185	-0.02017358	0.04094231	0.0296416	0.662796	0.4797772	0	0
24.3562	-0.07569719	-0.02009782	0.006335422	0.004586157	-1.044438	-0.7561749	0	0
24.37277	-0.07535703	-0.01981373	0.02053424	0.01714949	0.4291634	0.3797306	0	0
24.43925	-0.06388663	-0.01149174	0.1725277	0.125172	1.830149	1.300696	0	0
24.4556	-0.05922015	-0.008093482	0.2854486	0.2078714	1.363247	0.9983948	0	0
24.47227	-0.05733184	-0.006697448	0.1132355	0.08371538	-5.214814	-3.759588	0	0
24.48873	-0.05735807	-0.006678587	-0.001593875	0.001146114	-3.465755	-2.492089	0	0
24.5053	-0.05741053	-0.006640865	-0.003166464	0.002276922	-0.04761982	0.03424217	0	0
24.52187	-0.05751544	-0.006565422	-0.006332703	0.004553732	-0.09555728	0.06871425	0	0
24.53843	-0.05767281	-0.006452261	-0.009500036	0.006831215	-0.09559581	0.06873854	0	0
24.555	-0.05790887	-0.006244809	-0.01424655	0.01252039	-0.14325	0.1716997	0	0
24.57156	-0.05819736	-0.005999655	-0.01741977	0.0148026	-0.09577905	0.06888518	0	0
24.58813	-0.05859076	-0.005679097	-0.0237426	0.01934669	-0.1908453	0.1371566	0	0
24.60469	-0.05961349	-0.004943818	-0.06174655	0.04439179	-1.147028	0.7559061	0	0
24.62138	-0.06126534	-0.003756406	-0.09902161	0.07118063	-1.12122	0.8057984	0	0
24.63783	-0.06131777	-0.003718717	-0.003186904	0.002290708	2.892297	-2.079102	0	0
24.6544	-0.06116047	-0.003605654	0.009492709	0.006822941	0.3839534	0.1372413	0	0
24.67096	-0.06034769	-0.003021556	0.04907646	0.03526844	1.194709	0.8585362	0	0
24.68753	-0.0562826	-0.0001026068	0.2453973	0.1762084	5.926339	4.254556	0	0
24.70409	-0.05035214	0.004186437	0.3579633	0.2588872	3.397445	2.495395	0	0
24.72066	-0.04137112	0.0107224	0.5420956	0.3945112	5.557123	4.09314	0	0
24.73723	-0.03524855	0.01539135	0.3696014	0.281851	-5.206184	-3.400287	0	0
24.75379	-0.03101637	0.02035345	0.2554552	0.2995128	-3.445138	0.5330661	0	0
24.77036	-0.03109524	0.02198099	-0.004760602	0.09823852	-7.853328	-6.074471	0	0
24.8313	-0.06194695	0.04504324	-0.5062973	0.3784669	-6.471173	3.615701	0	0
24.84804	-0.06881224	0.04990965	-0.4100928	0.2906916	1.238523	-1.130007	0	0
24.86455	-0.07525236	0.0544733	-0.390119	0.2764492	0.6007352	-0.4283573	0	0
24.88105	-0.08343741	0.06030926	-0.4958203	0.353521	-3.201495	2.334364	0	0
24.89756	-0.08868779	0.0640287	-0.3180119	0.2252836	5.385177	-3.883852	0	0
24.91413	-0.09453318	0.06816972	-0.3528284	0.2499528	-1.052584	0.7458059	0	0
24.9307	-0.09839179	0.07090346	-0.2329058	0.1650087	3.619273	-2.563617	0	0
24.94761	-0.1021433	0.07367229	-0.2218934	0.1637712	0.3289828	-0.03696893	0	0
24.96412	-0.1046947	0.07551717	-0.1545227	0.1117299	2.015961	-1.557252	0	0
24.9804	-0.1088574	0.07894649	-0.2556759	0.2106314	-3.084592	3.015927	0	0
24.99697	-0.1136139	0.08353304	-0.2870995	0.276845	-0.9566262	2.015737	0	0
25.03417	-0.1311378	0.09636453	-0.4710614	0.3449238	-3.421392	1.266155	0	0
25.05058	-0.1367981	0.1003462	-0.344874	0.2425983	2.353643	-1.908571	0	0
25.06719	-0.1435325	0.1051307	-0.4054112	0.2880304	-1.833138	1.375737	0	0
25.08371	-0.1465986	0.1073105	-0.1855638	0.1319233	6.635009	-4.711323	0	0
25.10028	-0.1507425	0.1102581	-0.2501538	0.1779361	-1.952028	1.39059	0	0
25.11685	-0.1536735	0.1123441	-0.1769172	0.1259116	2.210411	-1.570193	0	0
25.13341	-0.1559856	0.1139903	-0.1395583	0.09936517	1.127496	-0.8011721	0	0
25.14998	-0.1559342	0.1139538	0.003099813	-0.002207919	4.305677	-3.065659	0	0
25.16655	-0.1559342	0.1139538	0	0	-0.09355792	0.06663898	0	0
25.18311	-0.1559599	0.113972	-0.001549906	0.001104185	-0.04677896	0.03332628	0	0
25.19978	-0.156037	0.1140635	-0.004621353	0.005485287	-0.09241449	0.1318198	0	0
25.21629	-0.1564221	0.1146669	-0.0233301	0.03655115	-0.563852	0.936276	0	0
25.23281	-0.1606047	0.1195833	-0.2531905	0.2976088	-6.959233	7.903759	0	0
25.24938	-0.1617072	0.1252248	-0.06654386	0.3405183	5.641124	1.296879	0	0
25.26595	-0.1619122	0.1356151	-0.01237714	0.6271613	1.634755	8.650903	0	0
25.33238	-0.1557802	0.174869	0.09230746	0.5908977	1.261286	-0.4369205	0	0
25.34878	-0.1486068	0.1805286	0.4372103	0.3449479	4.163579	-2.969043	0	0
25.36535	-0.1413923	0.1856597	0.4355219	0.3097483	-0.05120629	-1.06755	0	0
25.38191	-0.1353257	0.1899387	0.3662196	0.2583126	-2.091788	-1.552511	0	0
25.39848	-0.1283174	0.1958024	0.4230245	0.3539343	1.714473	2.886034	0	0
25.41505	-0.1273336	0.1999493	0.05937986	0.2503076	-10.97482	-3.12746	0	0
25.43162	-0.1277738	0.2068138	-0.02656664	0.4143422	-2.59387	4.950574	0	0
25.44818	-0.1288092	0.2186194	-0.06249011	0.7125024	-1.08411	8.997972	0	0
25.46475	-0.1295079	0.2243184	-0.04218516	0.344073	0.6128397	-11.11986	0	0
25.48148	-0.1339303	0.2290439	-0.2642573	0.282371	-6.669136	-1.852995	0	0
25.498	-0.1377794	0.231756	-0.2331125	0.1642484	0.9367717	-3.552882	0	0
25.51445	-0.1407474	0.2338209	-0.1803948	0.125509	1.599214	-1.175178	0	0
25.53102	-0.1447438	0.2367112	-0.2411946	0.1744345	-1.841195	1.481607	0	0
25.54758	-0.1499964	0.2409463	-0.3170877	0.2556626	-2.290456	2.451469	0	0
25.56415	-0.1514112	0.2458433	-0.08540408	0.2956184	6.99303	1.206006	0	0
25.58107	-0.1492245	0.25314	0.1291924	0.4311005	6.40756	4.045314	0	0
25.59756	-0.1471394	0.2590351	0.1264394	0.3574738	-0.08238174	-2.203287	0	0
25.61408	-0.1422691	0.2645694	0.2949205	0.335129	5.104751	-0.6770183	0	0
25.63041	-0.1411859	0.2653214	0.06630637	0.04603583	-6.959279	-8.800329	0	0
25.6471	-0.1401024	0.2660376	0.06493895	0.04292231	-0.04140946	-0.09428643	0	0
25.66361	-0.1395863	0.2663599	0.03125541	0.01951816	-1.014644	-0.7049993	0	0
25.68012	-0.1395605	0.266342	0.001563764	-0.001083439	-0.8993053	-0.6239846	0	0
25.69668	-0.1395347	0.2663241	0.001558002	-0.001081246	-0.0001742308	6.630858E-05	0	0
25.71325	-0.1394315	0.2662525	0.006230392	-0.004322689	0.1410211	-0.09783256	0	0
25.72981	-0.1391476	0.2660555	0.01713802	-0.01189011	0.329212	-0.2283984	0	0
25.74638	-0.1390185	0.265966	0.007790014	-0.005403811	-0.2821397	0.1957683	0	0
25.76295	-0.1389927	0.2659481	0.001557823	-0.001081122	-0.1880879	0.130459	0	0
25.7797	-0.1389669	0.2659302	0.001540443	-0.001067281	-0.0005215903	0.000415364	0	0
25.79621	-0.1389153	0.2658944	0.003127889	-0.002170741	0.04773338	-0.03318023	0	0
25.83115	-0.1388636	0.2658586	0.001477718	-0.00102438	-0.03207761	0.02228405	0	0
25.84774	-0.1388636	0.2658586	0	0	-0.02867213	0.01987604	0	0
25.86428	-0.1388636	0.2658586	0	0	0	0	0	0
25.88084	-0.1388636	0.2658586	0	0	0	0	0	0
25.89741	0	0	8.381825	-16.04726	252.9786	-484.3351	0	0
25.91398	-0.138812	0.2658228	-8.37871	16.04509	-505.834	968.5491	0	0
25.9308	-0.1387862	0.2658049	0.001533981	-0.001064576	250.966	-480.5397	0	0
25.94711	-0.1387862	0.2658049	0	0	-0.04629299	0.03212712	0	0
25.96368	-0.1387862	0.2658049	0	0	0	0	0	0
25.98025	-0.1387604	0.2657869	0.001557823	-0.001081122	0.04701789	-0.03263021	0	0
25.99681	-0.1387604	0.2657869	0	0	-0.04701519	0.03262833	0	0
26.01338	-0.1387604	0.2657869	0	0	0	0	0	0
26.02995	-0.1387604	0.2657869	0	0	0	0	0	0
26.04651	-0.1387346	0.2657691	0.001558722	-0.001079323	0.04704233	-0.03257403	0	0
26.06341	-0.138683	0.2657332	0.003055148	-0.002120259	0.04471944	-0.0311075	0	0
26.07992	-0.1386572	0.2657153	0.001563041	-0.001084744	-0.0446642	0.03099675	0	0
26.09622	-0.1386313	0.2656974	0.001584814	-0.001099219	0.0006636544	-0.0004412274	0	0
26.11278	-0.1385797	0.2656616	0.003116005	-0.002160694	0.0465977	-0.03230315	0	0
26.12935	-0.1385539	0.2656437	0.001558722	-0.001081122	-0.04700158	0.03258342	0	0
26.14592	-0.1385281	0.2656258	0.001557823	-0.001081122	-2.714469E-05	0	0	0
26.16248	-0.1385281	0.2656258	0	0	-0.04701519	0.03262833	0	0
26.17905	-0.1384248	0.2655542	0.006233091	-0.004322689	0.188115	-0.130459	0	0
26.26188	-0.1331806	0.2618473	0.06331061	-0.04475188	0.574223	-0.406734	0	0
26.27845	-0.1285762	0.2586231	0.2779239	-0.1946127	2.159097	-1.507661	0	0
26.29502	-0.1253913	0.2564194	0.1922418	-0.1330158	-2.585889	1.859	0	0
26.31158	-0.121789	0.2539286	0.217461	-0.1503616	0.7611586	-0.5235288	0	0
26.32815	-0.1180019	0.2512043	0.2285916	-0.1644421	0.3359433	-0.4249733	0	0
26.34472	-0.1135879	0.2480131	0.2664273	-0.1926187	1.141883	-0.8503721	0	0
26.36212	-0.1098195	0.2450901	0.2165875	-0.1680013	-1.467342	0.7247642	0	0
26.37813	-0.09899117	0.2372676	0.6763378	-0.4885921	13.76122	-9.595908	0	0
26.39464	-0.08824392	0.2296906	0.6508786	-0.4588817	-0.7828261	0.9135416	0	0
26.41115	-0.07135235	0.2177202	1.023111	-0.725039	11.27227	-8.060017	0	0
26.42766	-0.05759413	0.2076962	0.8332297	-0.6070719	-5.75015	3.572386	0	0
26.44412	-0.04890833	0.2000755	0.5277387	-0.4630271	-9.265605	4.368909	0	0
26.46068	-0.03869121	0.1728608	0.616778	-1.642872	2.69621	-35.72707	0	0
26.47725	-0.03651008	0.1467304	0.1316378	-1.577049	-14.64156	1.986534	0	0
26.49421	-0.03493315	0.1274322	0.09299973	-1.138117	-1.152498	13.09251	0	0
26.51038	-0.03369777	0.1098371	0.0763794	-1.087836	-0.5016603	1.517649	0	0
26.52695	-0.03275144	0.09454683	0.05712025	-0.9229251	-0.5882174	5.036755	0	0
26.54374	-0.0321731	0.07717687	0.03444058	-1.034401	-0.6798559	-3.341642	0	0
26.56008	-0.03212053	0.06946293	0.003217515	-0.4720817	-0.9423681	16.9718	0	0
26.57677	-0.03167361	0.05527046	0.02678776	-0.8506849	0.7137343	-11.46454	0	0
26.59322	-0.03191022	0.0448202	-0.01438414	-0.6353142	-1.242642	6.500277	0	0
26.61213	-0.03361891	0.02822235	-0.09034345	-0.8775767	-2.148034	-6.850882	0	0
26.6287	-0.03482801	0.02235503	-0.0729818	-0.3541523	0.4893295	14.75245	0	0
26.64531	-0.03748244	0.01623446	-0.1597614	-0.3683777	-2.61525	-0.4287072	0	0
26.66183	-0.04594133	0.01064734	-0.512113	-0.338252	-10.6346	0.909248	0	0
26.6784	-0.04772689	0.009371155	-0.1077763	-0.07703067	12.2212	7.895494	0	0
26.69496	-0.04775314	0.009314843	-0.001584988	-0.003399416	3.205043	2.222323	0	0
26.71186	-0.04775314	0.009314843	0	0	0.04736608	0.1015887	0	0
26.7281	-0.04772689	0.009296071	0.001617012	-0.00115609	0.04880153	-0.03489088	0	0
26.74488	-0.04772689	0.009296071	0	0	-0.04896218	0.03500573	0	0
26.76123	-0.04772689	0.009296071	0	0	0	0	0	0
26.7779	-0.04772689	0.009296071	0	0	0	0	0	0
26.79436	-0.04770063	0.0092773	0.00159546	-0.001140625	0.04815384	-0.0344261	0	0
26.81093	-0.04767437	0.009258528	0.001584848	-0.001132934	-0.0003212991	0.0002328677	0	0
26.8275	-0.04767437	0.009220985	0	-0.002266129	-0.04782807	-0.03419792	0	0
26.84406	-0.04764812	0.009202213	0.001584988	-0.001133195	0.0478378	0.03419399	0	0
26.86096	-0.04762186	0.009183441	0.001553507	-0.001110687	-0.0009406914	0.000672552	0	0
26.8772	-0.04762186	0.009183441	0	0	-0.04688763	0.03352253	0	0
26.89399	-0.04762186	0.009183441	0	0	0	0	0	0
26.91033	-0.04762186	0.009183441	0	0	0	0	0	0
26.92701	-0.04762186	0.009183441	0	0	0	0	0	0
26.96003	-0.04762186	0.009183441	0	0	0	0	0	0
26.9766	-0.04762186	0.009183441	0	0	0	0	0	0
26.99316	-0.04762186	0.009183441	0	0	0	0	0	0
27.00973	-0.04762186	0.009183441	0	0	0	0	0	0
27.0263	-0.04762186	0.009183441	0	0	0	0	0	0
27.0431	-0.04762186	0.009183441	0	0	0	0	0	0
27.05943	-0.04762186	0.009183441	0	0	0	0	0	0
27.07612	-0.04762186	0.009183441	0	0	0	0	0	0
27.09257	-0.04762186	0.009183441	0	0	0	0	0	0
27.10914	-0.04762186	0.009183441	0	0	0	0	0	0
27.1257	-0.04762186	0.009183441	0	0	0	0	0	0
27.14227	-0.04762186	0.009183441	0	0	0	0	0	0
27.15883	-0.04759561	0.00916467	0.001584806	-0.001133064	0.04782954	-0.03419595	0	0
27.1754	-0.04759561	0.00916467	0	0	-0.04782954	0.03419595	0	0
27.1922	-0.04756935	0.009145897	0.0015625	-0.001117172	0.04682213	-0.03347736	0	0
27.20853	-0.04756935	0.009145897	0	0	-0.04715635	0.03371632	0	0
27.22511	-0.04756935	0.009108352	0	-0.00226436	0	-0.06880189	0	0
27.24174	-0.04754309	0.00908958	0.001579351	-0.00112922	0.04756361	0.03418577	0	0
27.25825	-0.04754309	0.00908958	0	0	-0.04765942	0.03407602	0	0
27.2748	-0.04754309	0.00908958	0	0	0	0	0	0
27.29137	-0.04754309	0.00908958	0	0	0	0	0	0
27.32547	-0.04754309	0.00908958	0	0	0	0	0	0
27.34204	-0.04754309	0.00908958	0	0	0	0	0	0
27.35883	-0.04754309	0.00908958	0	0	0	0	0	0
27.37534	-0.04754309	0.00908958	0	0	0	0	0	0
27.39174	-0.04754309	0.00908958	0	0	0	0	0	0
27.4083	-0.04754309	0.00908958	0	0	0	0	0	0
27.42487	-0.04754309	0.00908958	0	0	0	0	0	0
27.44144	-0.04754309	0.00908958	0	0	0	0	0	0
27.458	-0.04754309	0.00908958	0	0	0	0	0	0
27.47457	-0.04754309	0.00908958	0	0	0	0	0	0
27.49114	-0.04754309	0.00908958	0	0	0	0	0	0
27.50793	-0.04754309	0.00908958	0	0	0	0	0	0
27.52427	-0.04754309	0.00908958	0	0	0	0	0	0
27.54084	-0.04754309	0.00908958	0	0	0	0	0	0
27.55748	-0.04754309	0.00908958	0	0	0	0	0	0
27.57398	-0.04754309	0.00908958	0	0	0	0	0	0
27.59099	-0.04754309	0.00908958	0	0	0	0	0	0
27.60711	-0.04754309	0.00908958	0	0	0	0	0	0
27.62402	-0.04754309	0.00908958	0	0	0	0	0	0
27.64024	-0.04754309	0.00908958	0	0	0	0	0	0
27.65704	-0.04754309	0.00908958	0	0	0	0	0	0
27.67337	-0.04754309	0.00908958	0	0	0	0	0	0
27.68994	-0.04754309	0.00908958	0	0	0	0	0	0
27.70658	-0.04754309	0.00908958	0	0	0	0	0	0
27.72308	-0.04754309	0.00908958	0	0	0	0	0	0
27.73964	-0.04754309	0.00908958	0	0	0	0	0	0
27.75621	-0.04754309	0.00908958	0	0	0	0	0	0
27.77312	-0.04754309	0.00908958	0	0	0	0	0	0
27.78934	-0.04754309	0.00908958	0	0	0	0	0	0
27.80591	-0.04754309	0.00908958	0	0	0	0	0	0
27.82266	-0.04754309	0.00908958	0	0	0	0	0	0
27.83917	-0.04754309	0.00908958	0	0	0	0	0	0
27.85561	-0.04754309	0.00908958	0	0	0	0	0	0
27.87219	-0.04754309	0.00908958	0	0	0	0	0	0
27.88874	-0.04754309	0.00908958	0	0	0	0	0	0
27.90531	-0.04754309	0.00908958	0	0	0	0	0	0
27.95525	-0.04754309	0.00908958	0	0	0	0	0	0
28.03785	-0.04754309	0.00908958	0	0	0	0	0	0
28.05441	-0.04754309	0.00908958	0	0	0	0	0	0
28.07098	-0.04754309	0.00908958	0	0	0	0	0	0
28.08785	-0.04754309	0.00908958	0	0	0	0	0	0
28.10411	-0.04754309	0.00908958	0	0	0	0	0	0
28.12068	-0.04754309	0.00908958	0	0	0	0	0	0
28.13849	-0.04754309	0.00908958	0	0	0	0	0	0
28.15506	-0.04754309	0.00908958	0	0	0	0	0	0
28.17163	-0.04754309	0.00908958	0	0	0	0	0	0
28.18842	-0.04754309	0.00908958	0	0	0	0	0	0
28.20493	-0.04754309	0.00908958	0	0	0	0	0	0
28.22133	-0.04754309	0.00908958	0	0	0	0	0	0
28.23845	-0.04754309	0.00908958	0	0	0	0	0	0
28.25447	-0.04754309	0.00908958	0	0	0	0	0	0
28.27103	-0.04754309	0.00908958	0	0	0	0	0	0
28.28759	-0.04754309	0.00908958	0	0	0	0	0	0
28.30416	-0.04754309	0.00908958	0	0	0	0	0	0
28.32101	-0.04754309	0.00908958	0	0	0	0	0	0
28.33729	-0.04754309	0.00908958	0	0	0	0	0	0
28.35387	-0.04754309	0.00908958	0	0	0	0	0	0
28.37043	-0.04754309	0.00908958	0	0	0	0	0	0
28.387	-0.04754309	0.00908958	0	0	0	0	0	0
28.40356	-0.04754309	0.00908958	0	0	0	0	0	0
28.42013	-0.04754309	0.00908958	0	0	0	0	0	0
28.43669	-0.04754309	0.00908958	0	0	0	0	0	0
28.45326	-0.04754309	0.00908958	0	0	0	0	0	0
28.47012	-0.04754309	0.00908958	0	0	0	0	0	0
28.48663	-0.04754309	0.00908958	0	0	0	0	0	0
28.50314	-0.04754309	0.00908958	0	0	0	0	0	0
28.51953	-0.04754309	0.00908958	0	0	0	0	0	0
28.53617	-0.04754309	0.00908958	0	0	0	0	0	0
28.55268	-0.04754309	0.00908958	0	0	0	0	0	0
28.56923	-0.04754309	0.00908958	0	0	0	0	0	0
28.59596	-0.04754309	0.00908958	0	0	0	0	0	0
28.61253	-0.04754309	0.00908958	0	0	0	0	0	0
28.6291	-0.04754309	0.00908958	0	0	0	0	0	0
28.64567	-0.04754309	0.00908958	0	0	0	0	0	0
28.66224	-0.04754309	0.00908958	0	0	0	0	0	0
28.6788	-0.04754309	0.00908958	0	0	0	0	0	0
28.69537	-0.04754309	0.00908958	0	0	0	0	0	0
28.71193	-0.04754309	0.00908958	0	0	0	0	0	0
28.7285	-0.04754309	0.00908958	0	0	0	0	0	0
28.74507	-0.04754309	0.00908958	0	0	0	0	0	0
28.76164	-0.04754309	0.00908958	0	0	0	0	0	0
28.7782	-0.04754309	0.00908958	0	0	0	0	0	0
28.79669	-0.04754309	0.00908958	0	0	0	0	0	0
28.81326	-0.04754309	0.00908958	0	0	0	0	0	0
28.82983	-0.04754309	0.00908958	0	0	0	0	0	0
28.8464	-0.04754309	0.00908958	0	0	0	0	0	0
28.89642	-0.04754309	0.00908958	0	0	0	0	0	0
28.93245	-0.04754309	0.00908958	0	0	0	0	0	0
28.94899	-0.04754309	0.00908958	0	0	0	0	0	0
28.96556	-0.04754309	0.00908958	0	0	0	0	0	0
28.98212	-0.04754309	0.00908958	0	0	0	0	0	0
28.99869	-0.04754309	0.00908958	0	0	0	0	0	0
29.0155	-0.04754309	0.00908958	0	0	0	0	0	0
29.03182	-0.04754309	0.00908958	0	0	0	0	0	0
29.04839	-0.04754309	0.00908958	0	0	0	0	0	0
29.06554	-0.04754309	0.00908958	0	0	0	0	0	0
29.08152	-0.04754309	0.00908958	0	0	0	0	0	0
29.09809	-0.04754309	0.00908958	0	0	0	0	0	0
29.11465	-0.04754309	0.00908958	0	0	0	0	0	0
29.13122	-0.04754309	0.00908958	0	0	0	0	0	0
29.14779	-0.04754309	0.00908958	0	0	0	0	0	0
29.16436	-0.04754309	0.00908958	0	0	0	0	0	0
29.18112	-0.04754309	0.00908958	0	0	0	0	0	0
29.19749	-0.04754309	0.00908958	0	0	0	0	0	0
29.21406	-0.04754309	0.00908958	0	0	0	0	0	0
29.23062	-0.04754309	0.00908958	0	0	0	0	0	0
29.24719	-0.04754309	0.00908958	0	0	0	0	0	0
29.26376	-0.04754309	0.00908958	0	0	0	0	0	0
29.28032	-0.04754309	0.00908958	0	0	0	0	0	0
29.29689	-0.04754309	0.00908958	0	0	0	0	0	0
29.31372	-0.04754309	0.00908958	0	0	0	0	0	0
29.33002	-0.04754309	0.00908958	0	0	0	0	0	0
29.34659	-0.04754309	0.00908958	0	0	0	0	0	0
29.36326	-0.04754309	0.00908958	0	0	0	0	0	0
29.37973	-0.04754309	0.00908958	0	0	0	0	0	0
29.39629	-0.04754309	0.00908958	0	0	0	0	0	0
29.41286	-0.04754309	0.00908958	0	0	0	0	0	0
29.4298	-0.04754309	0.00908958	0	0	0	0	0	0
29.44599	-0.04754309	0.00908958	0	0	0	0	0	0
29.46256	-0.04754309	0.00908958	0	0	0	0	0	0
29.47913	-0.04754309	0.00908958	0	0	0	0	0	0
29.49569	-0.04754309	0.00908958	0	0	0	0	0	0
29.51226	-0.04754309	0.00908958	0	0	0	0	0	0
29.52887	-0.04754309	0.00908958	0	0	0	0	0	0
29.54539	-0.04754309	0.00908958	0	0	0	0	0	0
29.58443	-0.04754309	0.00908958	0	0	0	0	0	0
29.601	-0.04754309	0.00908958	0	0	0	0	0	0
29.61757	-0.04754309	0.00908958	0	0	0	0	0	0
29.63413	-0.04754309	0.00908958	0	0	0	0	0	0
29.6507	-0.04754309	0.00908958	0	0	0	0	0	0
29.66747	-0.04754309	0.00908958	0	0	0	0	0	0
29.68384	-0.04754309	0.00908958	0	0	0	0	0	0
29.7004	-0.04754309	0.00908958	0	0	0	0	0	0
29.71697	-0.04754309	0.00908958	0	0	0	0	0	0
29.73354	-0.04754309	0.00908958	0	0	0	0	0	0
29.7501	-0.04754309	0.00908958	0	0	0	0	0	0
29.76667	-0.04754309	0.00908958	0	0	0	0	0	0
29.78324	-0.04754309	0.00908958	0	0	0	0	0	0
29.7998	-0.04754309	0.00908958	0	0	0	0	0	0
29.81637	-0.04754309	0.00908958	0	0	0	0	0	0
29.8331	-0.04754309	0.00908958	0	0	0	0	0	0
29.8496	-0.04754309	0.00908958	0	0	0	0	0	0
29.86607	-0.04754309	0.00908958	0	0	0	0	0	0
29.88264	-0.04754309	0.00908958	0	0	0	0	0	0
29.8992	-0.04754309	0.00908958	0	0	0	0	0	0
29.91577	-0.04754309	0.00908958	0	0	0	0	0	0
29.93234	-0.04754309	0.00908958	0	0	0	0	0	0
29.94917	-0.04754309	0.00908958	0	0	0	0	0	0
29.96547	-0.04754309	0.00908958	0	0	0	0	0	0
29.98204	-0.04754309	0.00908958	0	0	0	0	0	0
29.99861	-0.04754309	0.00908958	0	0	0	0	0	0
30.01517	-0.04754309	0.00908958	0	0	0	0	0	0
30.03174	-0.04754309	0.00908958	0	0	0	0	0	0
30.04831	-0.04754309	0.00908958	0	0	0	0	0	0
30.06487	-0.04754309	0.00908958	0	0	0	0	0	0
30.08144	-0.04754309	0.00908958	0	0	0	0	0	0
30.09801	-0.04754309	0.00908958	0	0	0	0	0	0
30.11458	-0.04754309	0.00908958	0	0	0	0	0	0
30.13114	-0.04754309	0.00908958	0	0	0	0	0	0
30.14771	-0.04754309	0.00908958	0	0	0	0	0	0
30.16428	-0.04754309	0.00908958	0	0	0	0	0	0
30.18085	-0.04754309	0.00908958	0	0	0	0	0	0
30.19741	-0.04754309	0.00908958	0	0	0	0	0	0
30.21437	-0.04754309	0.00908958	0	0	0	0	0	0
30.23055	-0.04754309	0.00908958	0	0	0	0	0	0
30.24739	-0.04754309	0.00908958	0	0	0	0	0	0
30.26368	-0.04754309	0.00908958	0	0	0	0	0	0
30.28247	-0.04754309	0.00908958	0	0	0	0	0	0
30.29943	-0.04754309	0.00908958	0	0	0	0	0	0
30.3156	-0.04754309	0.00908958	0	0	0	0	0	0
30.33217	-0.04754309	0.00908958	0	0	0	0	0	0
30.34874	-0.04754309	0.00908958	0	0	0	0	0	0
30.3653	-0.04754309	0.00908958	0	0	0	0	0	0
30.38187	-0.04754309	0.00908958	0	0	0	0	0	0
30.39844	-0.04754309	0.00908958	0	0	0	0	0	0
30.41501	-0.04754309	0.00908958	0	0	0	0	0	0
30.43157	-0.04754309	0.00908958	0	0	0	0	0	0
30.44814	-0.04754309	0.00908958	0	0	0	0	0	0
30.4647	-0.04754309	0.00908958	0	0	0	0	0	0
30.48127	-0.04754309	0.00908958	0	0	0	0	0	0
30.49807	-0.04754309	0.00908958	0	0	0	0	0	0
30.5144	-0.04754309	0.00908958	0	0	0	0	0	0
30.53097	-0.04754309	0.00908958	0	0	0	0	0	0
30.54754	-0.04754309	0.00908958	0	0	0	0	0	0
30.56412	-0.04754309	0.00908958	0	0	0	0	0	0
30.58067	-0.04754309	0.00908958	0	0	0	0	0	0
30.59724	-0.04754309	0.00908958	0	0	0	0	0	0
30.6138	-0.04754309	0.00908958	0	0	0	0	0	0
30.63037	-0.04754309	0.00908958	0	0	0	0	0	0
30.64694	-0.04754309	0.00908958	0	0	0	0	0	0
30.6635	-0.04754309	0.00908958	0	0	0	0	0	0
30.68007	-0.04754309	0.00908958	0	0	0	0	0	0
30.69664	-0.04754309	0.00908958	0	0	0	0	0	0
30.72977	-0.04754309	0.00908958	0	0	0	0	0	0
30.77947	-0.04754309	0.00908958	0	0	0	0	0	0
30.79604	-0.04754309	0.00908958	0	0	0	0	0	0
30.81261	-0.04754309	0.00908958	0	0	0	0	0	0
30.82931	-0.04754309	0.00908958	0	0	0	0	0	0
30.84574	-0.04754309	0.00908958	0	0	0	0	0	0
30.86233	-0.04754309	0.00908958	0	0	0	0	0	0
30.87887	-0.04754309	0.00908958	0	0	0	0	0	0
30.89585	-0.04754309	0.00908958	0	0	0	0	0	0
30.91201	-0.04754309	0.00908958	0	0	0	0	0	0
30.92857	-0.04754309	0.00908958	0	0	0	0	0	0
30.94538	-0.04754309	0.00908958	0	0	0	0	0	0
30.96171	-0.04754309	0.00908958	0	0	0	0	0	0
30.97827	-0.04754309	0.00908958	0	0	0	0	0	0
30.99734	-0.04754309	0.00908958	0	0	0	0	0	0
31.01391	-0.04754309	0.00908958	0	0	0	0	0	0
31.03048	-0.04754309	0.00908958	0	0	0	0	0	0
31.04704	-0.04754309	0.00908958	0	0	0	0	0	0
31.06361	-0.04754309	0.00908958	0	0	0	0	0	0
31.08018	-0.04754309	0.00908958	0	0	0	0	0	0
31.09674	-0.04754309	0.00908958	0	0	0	0	0	0
31.11331	-0.04754309	0.00908958	0	0	0	0	0	0
31.12988	-0.04754309	0.00908958	0	0	0	0	0	0
31.14653	-0.04756935	0.009108352	-0.001576638	0.00112728	-0.04746281	0.03393544	0	0
31.16301	-0.04756935	0.009108352	0	0	0.04758576	-0.03402335	0	0
31.17958	-0.04756935	0.009108352	0	0	0	0	0	0
31.19614	-0.04756935	0.009108352	0	0	0	0	0	0
31.21271	-0.04762186	0.009108352	-0.003169612	0	-0.09566459	0	0	0
31.22959	-0.04772689	0.009070807	-0.006222675	-0.002224497	-0.0912851	-0.06651137	0	0
31.24584	-0.0480157	0.009014489	-0.01776812	-0.00346478	-0.3484623	-0.03743399	0	0
31.26263	-0.05465604	0.005126286	-0.3956642	-0.2316784	-11.43851	-6.907781	0	0
31.27898	-0.06197317	0.0004432347	-0.4475368	-0.2864288	-1.565608	-1.652465	0	0
31.29564	-0.07101198	-0.005377424	-0.542585	-0.3494048	-2.879502	-1.907869	0	0
31.31211	-0.08066668	-0.01105732	-0.5859972	-0.3447442	-1.310181	0.1406565	0	0
31.32868	-0.09521125	-0.01739055	-0.8780134	-0.3823185	-8.837997	-1.137202	0	0
31.34524	-0.1026381	-0.01990842	-0.4482829	-0.1519793	12.97004	6.952053	0	0
31.36181	-0.1158733	-0.02140495	-0.7987911	-0.09032028	-10.57775	1.860764	0	0
31.37838	-0.139896	-0.02170813	-1.450175	-0.01830214	-19.65882	2.173512	0	0
31.39495	-0.1496362	-0.02204925	-0.5879235	-0.02058966	26.02431	-0.06904141	0	0
31.41151	-0.1637059	-0.02292115	-0.8492501	-0.05262813	-7.886853	-0.9669229	0	0
31.42808	-0.1819901	-0.02474155	-1.103637	-0.1098798	-7.677401	-1.727859	0	0
31.44474	-0.1962566	-0.02652506	-0.8561985	-0.1070367	7.446266	0.08556015	0	0
31.46121	-0.2153954	-0.02863244	-1.16204	-0.1279529	-9.230832	-0.631289	0	0
31.4778	-0.2298142	-0.02981016	-0.8692204	-0.07099734	8.857695	1.722888	0	0
31.49435	-0.2496049	-0.03017116	-1.196082	-0.02181781	-9.864693	1.484241	0	0
31.51091	-0.2593162	-0.03005716	-0.5861768	0.006881359	18.41863	0.8666915	0	0
31.52748	-0.2775175	-0.02834758	-1.098506	0.1031787	-15.46123	2.906093	0	0
31.54405	-0.2899593	-0.02612653	-0.7510741	0.1340779	10.48551	0.9325401	0	0
31.56062	-0.2989482	-0.02193554	-0.5425757	0.2529688	6.292855	3.588341	0	0
31.57734	-0.3059746	-0.01570677	-0.4201925	0.3724957	3.67639	3.590587	0	0
31.59385	-0.3090344	-0.01181287	-0.1852892	0.2357962	7.067832	-4.11305	0	0
31.61032	-0.3102041	-0.01088734	-0.07104741	0.05621434	3.464177	-5.445497	0	0
31.66002	-0.3102519	-0.01088734	-0.0009605975	0	1.059258	-0.8495966	0	0
31.67658	-0.3102758	-0.01086846	-0.001440896	0.001139923	-0.007247723	0.01720146	0	0
31.69342	-0.3121597	-0.00937685	-0.1118756	0.08857546	-3.305716	2.617265	0	0
31.70972	-0.3151361	-0.007018106	-0.1826605	0.1447572	-2.136292	1.69557	0	0
31.72629	-0.3161824	-0.006150517	-0.06314752	0.05236177	3.636635	-2.811482	0	0
31.74285	-0.3161349	-0.006188233	0.002869531	-0.002276847	1.992399	-1.648997	0	0
31.77848	-0.3161586	-0.006207092	-0.0006666198	-0.0005292654	-0.06774689	0.03348081	0	0
31.795	-0.3161824	-0.00622595	-0.001440308	-0.001142105	-0.01483779	-0.01175304	0	0
31.81128	-0.3161824	-0.00622595	0	0	0.04391605	0.03482362	0	0
31.82785	-0.3162062	-0.006244809	-0.001435334	-0.001138189	-0.04368816	-0.03464377	0	0
31.84442	-0.3162062	-0.006244809	0	0	0.04331598	0.03434864	0	0
31.86098	-0.3162062	-0.006244809	0	0	0	0	0	0
31.87755	-0.3161824	-0.006263668	0.0014355	-0.00113832	0.04332346	-0.03435458	0	0
31.89412	-0.3161824	-0.006263668	0	0	-0.04332596	0.03435656	0	0
31.91068	-0.3161586	-0.006282527	0.0014355	-0.00113832	0.04332596	-0.03435656	0	0
31.9276	-0.3161349	-0.006301385	0.001404593	-0.00111521	-0.0009231881	0.0006903246	0	0
31.94382	-0.3161111	-0.006320245	0.001465877	-0.001162438	0.001849546	-0.001425339	0	0
31.96039	-0.3160873	-0.006339103	0.0014355	-0.00113832	-0.000926391	0.0007354821	0	0
31.97713	-0.3160636	-0.006357963	0.001418674	-0.001126418	-0.0005051093	0.0003573304	0	0
31.99352	-0.3160398	-0.006339103	0.001450867	0.001150535	0.0009715699	0.06871856	0	0
32.01009	-0.316016	-0.006357963	0.001435665	-0.00113848	-0.000461266	-0.06945441	0	0
32.02665	-0.316016	-0.006357963	0	0	-0.04333095	0.03436136	0	0
32.04322	-0.3159922	-0.006376822	0.0014355	-0.001138377	0.04332346	-0.03435627	0	0
32.05979	-0.3159922	-0.006376822	0	0	-0.04332346	0.03435627	0	0
32.0767	-0.3159685	-0.006395682	0.001404277	-0.001114986	0.04194174	-0.03330145	0	0
32.09292	-0.3159447	-0.006414542	0.001466222	-0.00116274	0.001869509	-0.001441216	0	0
32.10949	-0.3159447	-0.006414542	0	0	-0.04471917	0.03546309	0	0
32.12624	-0.3159447	-0.006414542	0	0	0	0	0	0
32.14262	-0.3159447	-0.006414542	0	0	0	0	0	0
32.15926	-0.3159447	-0.006414542	0	0	0	0	0	0
32.17575	-0.3159447	-0.006414542	0	0	0	0	0	0
32.19232	-0.3159209	-0.006433401	0.0014355	-0.001138377	0.04342345	-0.03443557	0	0
32.20889	-0.3159209	-0.006433401	0	0	-0.04332346	0.03435627	0	0
32.22581	-0.3159209	-0.006433401	0	0	0	0	0	0
32.24202	-0.3158971	-0.006452261	0.001466567	-0.001163013	0.04426107	-0.03509982	0	0
32.25883	-0.3158971	-0.006452261	0	0	-0.04440934	0.03521739	0	0
32.27515	-0.3158971	-0.006452261	0	0	0	0	0	0
32.29185	-0.3158971	-0.006452261	0	0	0	0	0	0
32.30829	-0.3158971	-0.006452261	0	0	0	0	0	0
32.32486	-0.3158971	-0.006452261	0	0	0	0	0	0
32.34142	-0.3158971	-0.006452261	0	0	0	0	0	0
32.35799	-0.3158971	-0.006452261	0	0	0	0	0	0
32.37492	-0.3158971	-0.006452261	0	0	0	0	0	0
32.39112	-0.3158971	-0.006452261	0	0	0	0	0	0
32.40769	-0.3158971	-0.006452261	0	0	0	0	0	0
32.42445	-0.3158734	-0.006471121	0.001417383	-0.00112542	0.04253187	-0.03377084	0	0
32.44448	-0.3158734	-0.006471121	0	0	-0.03853141	0.03059443	0	0
32.46104	-0.3158734	-0.006471121	0	0	0	0	0	0
32.47761	-0.3158496	-0.006489981	0.0014355	-0.001138405	0.04332346	-0.03435712	0	0
32.49418	-0.3158258	-0.006508841	0.0014355	-0.001138405	0	0	0	0
32.51101	-0.315802	-0.006527701	0.001412729	-0.001120347	-0.0006817137	0.000540624	0	0
32.57706	-0.3156118	-0.006640865	0.002880332	-0.001713462	0.01770796	-0.007156468	0	0
32.59358	-0.3155642	-0.006678587	0.002878954	-0.002283231	-1.668851E-05	-0.006900829	0	0
32.61015	-0.3154929	-0.006735171	0.004306499	-0.003415411	0.04314299	-0.03421654	0	0
32.62671	-0.3154691	-0.006754033	0.0014355	-0.001138489	-0.08664693	0.06871763	0	0
32.64361	-0.3154215	-0.006791756	0.002815252	-0.002232793	0.04123275	-0.03270236	0	0
32.66012	-0.3154215	-0.006791756	0	0	-0.08427559	0.06683946	0	0
32.67641	-0.3153977	-0.006810618	0.001459357	-0.001157411	0.04448393	-0.03528003	0	0
32.69314	-0.3153977	-0.006810618	0	0	-0.04419104	0.03504773	0	0
32.70955	-0.315374	-0.00682948	0.001449855	-0.001149902	0.04376174	-0.03470812	0	0
32.72611	-0.3153502	-0.006810618	0.0014355	0.001138517	-0.0004353919	0.06940825	0	0
32.74268	-0.3153026	-0.006810618	0.002870999	0	0.04332346	-0.03436052	0	0
32.75925	-0.3153026	-0.006810618	0	0	-0.08664693	0	0	0
32.77581	-0.3152788	-0.006791756	0.0014355	0.001138489	0.04332346	0.03435967	0	0
32.79271	-0.3152312	-0.006791756	0.00281638	0	0.04126176	-0.03401893	0	0
32.80896	-0.3151837	-0.006791756	0.002926937	0	0.003335076	0	0	0
32.82552	-0.3151123	-0.006772894	0.004310469	0.001139567	0.04217755	0.03474015	0	0
32.84225	-0.3149458	-0.006791756	0.009949009	-0.001126841	0.169372	-0.06807899	0	0
32.85865	-0.3142795	-0.007169015	0.04063845	-0.02300977	0.9262092	-0.6604282	0	0
32.87522	-0.3132319	-0.007848189	0.06323214	-0.04099505	0.6854299	-0.5456235	0	0
32.89179	-0.3119452	-0.008753976	0.07764661	-0.0546608	0.4349796	-0.4123858	0	0
32.90835	-0.3111346	-0.00909371	0.04894238	-0.02051113	-0.8662955	1.030639	0	0
32.92492	-0.3099655	-0.00816896	0.07056434	0.05581804	0.6526273	2.303884	0	0
32.94149	-0.3075052	-0.006263668	0.1485023	0.1150037	2.352171	1.786226	0	0
32.95884	-0.3053284	-0.004510269	0.1254448	0.1010427	-0.6797538	-0.4115829	0	0
32.97462	-0.3001735	-0.0004602755	0.3266464	0.2566307	6.072275	4.695658	0	0
32.99136	-0.2924705	0.005558528	0.4601844	0.35957	4.106298	3.165386	0	0
33.00775	-0.2863549	0.01030957	0.373091	0.2898435	-2.628788	-2.104592	0	0
33.02432	-0.274838	0.01889363	0.6951614	0.518135	9.771856	6.926531	0	0
33.04089	-0.2692712	0.02226152	0.3358548	0.2031927	-10.8414	-9.502789	0	0
33.05746	-0.2566099	0.02480403	0.7644177	0.1535014	12.93257	-1.499514	0	0
33.07442	-0.2338772	0.02443025	1.340057	-0.02203403	17.16924	-5.235584	0	0
33.09059	-0.2143655	0.02323387	1.206623	-0.07398492	-4.027051	-1.567881	0	0
33.10744	-0.1887523	0.02121408	1.519768	-0.1198454	9.482399	-1.388709	0	0
33.12372	-0.1715344	0.01941774	1.057787	-0.1103585	-13.94422	0.2863475	0	0
33.14029	-0.1509225	0.01795754	1.244135	-0.08813786	5.673625	0.6765411	0	0
33.15686	-0.1367206	0.01707738	0.8572271	-0.05312653	-11.6769	1.056644	0	0
33.17349	-0.1324567	0.01675897	0.2563674	-0.01914432	-18.09856	1.023582	0	0
33.18999	-0.1147827	0.01364826	1.071245	-0.1885441	24.59589	-5.113085	0	0
33.21076	-0.1045125	0.006873711	0.494447	-0.3261538	-15.47637	-3.692277	0	0
33.22733	-0.1002418	0.003791623	0.2577806	-0.1860352	-6.338442	3.752682	0	0
33.24389	-0.09038464	-0.003323013	0.5949813	-0.4294403	10.17674	-7.34598	0	0
33.26056	-0.08615462	-0.006414542	0.2538629	-0.185537	-10.26543	7.339889	0	0
33.27703	-0.07802548	-0.01228518	0.4935169	-0.356404	7.232771	-5.156776	0	0
33.29359	-0.07056684	-0.01782583	0.4502045	-0.3344343	-1.310942	0.6649618	0	0
33.31016	-0.06737157	-0.02032511	0.1928669	-0.1508568	-7.766463	5.54038	0	0
33.32673	-0.06126534	-0.025083	0.3685729	-0.287187	5.302815	-4.114453	0	0
33.34361	-0.05649246	-0.02891733	0.2827529	-0.2271519	-2.565829	1.794918	0	0
33.36013	-0.05011589	-0.03357428	0.3860458	-0.2819381	3.092816	-1.640421	0	0
33.37663	-0.04890833	-0.03444944	0.073158	-0.05301987	-9.474605	6.93191	0	0
33.393	-0.04284219	-0.03880995	0.3706767	-0.2664527	9.051033	-6.492994	0	0
33.40956	-0.04131858	-0.03991536	0.0919867	-0.06673799	-8.463499	6.065108	0	0
33.42613	-0.04110841	-0.04006786	0.01268587	-0.009205052	-2.393579	1.736548	0	0
33.4427	-0.03827078	-0.0421274	0.1712796	-0.124314	4.786368	-3.473994	0	0
33.45926	-0.03430233	-0.04500932	0.2395362	-0.1739529	2.059988	-1.498107	0	0
33.47583	-0.03372405	-0.04546763	0.03489682	-0.02765736	-6.175317	4.414701	0	0
33.4924	-0.02783491	-0.04971038	0.3555509	-0.2561518	9.677358	-6.895975	0	0
33.50923	-0.02759825	-0.04988251	0.01405825	-0.01022503	-10.22504	7.363589	0	0
33.52553	-0.02786121	-0.04969125	-0.0161358	0.01173612	-0.9113631	0.6628652	0	0
33.5421	-0.02786121	-0.04969125	0	0	0.4909928	-0.357116	0	0
33.55876	-0.0278875	-0.04967213	-0.001577722	0.001147556	-0.04747364	0.03452995	0	0
33.57523	-0.0279401	-0.04963388	-0.003193565	0.002322757	-0.04876625	0.03546765	0	0
33.5918	-0.0279401	-0.04963388	0	0	0.09667136	-0.07031142	0	0
33.62493	-0.02801898	-0.0495765	-0.002380751	0.001731526	-0.0479008	0.03483838	0	0
33.6415	-0.02807157	-0.04953825	-0.003174334	0.002308627	-0.01596693	0.01161129	0	0
33.65807	-0.02833452	-0.04934702	-0.01587167	0.01154291	-0.3832064	0.2786912	0	0
33.67463	-0.02838711	-0.04930877	-0.003174222	0.002308627	0.3832098	-0.2786912	0	0
33.6912	-0.0284134	-0.04928965	-0.001587533	0.001154467	0.04789189	-0.03483663	0	0
33.70787	-0.0284397	-0.04927053	-0.001577361	0.00114707	0.000306069	-0.0002225765	0	0
33.72433	-0.0284397	-0.04927053	0	0	0.04760484	-0.03461864	0	0
33.7409	-0.0284134	-0.04928965	0.001587167	-0.001154201	0.04805016	-0.03494247	0	0
33.7579	-0.0284134	-0.04928965	0	0	-0.04727489	0.0343787	0	0
33.77403	-0.0284397	-0.04927053	-0.001630337	0.001185595	-0.04920368	0.03578133	0	0
33.7906	-0.02849229	-0.04923229	-0.003174222	0.002308402	-0.04721969	0.03434106	0	0
33.80717	-0.02870264	-0.04907931	-0.012697	0.009233609	-0.287398	0.2090032	0	0
33.82373	-0.02880782	-0.04900283	-0.006348443	0.00461658	0.1915998	-0.1393422	0	0
33.84047	-0.02883411	-0.04898371	-0.00157089	0.001142142	0.1434437	-0.1043183	0	0
33.85687	-0.02883411	-0.04898371	0	0	0.04740956	-0.03446991	0	0
33.87349	-0.02880782	-0.04900283	0.001581704	-0.001150004	0.04790137	-0.03482749	0	0
33.89	-0.02880782	-0.04900283	0	0	-0.04773593	0.0347072	0	0
33.90657	-0.02880782	-0.04900283	0	0	0	0	0	0
33.92313	-0.02880782	-0.04900283	0	0	0	0	0	0
33.9397	-0.02880782	-0.04900283	0	0	0	0	0	0
33.95782	-0.02880782	-0.04900283	0	0	0	0	0	0
33.97438	-0.02883411	-0.04898371	-0.001587167	0.001153976	-0.04576181	0.03327188	0	0
33.99095	-0.02883411	-0.04898371	0	0	0.0479008	-0.03482707	0	0
34.00758	-0.02883411	-0.04898371	0	0	0	0	0	0
34.02409	-0.02883411	-0.04898371	0	0	0	0	0	0
34.09035	-0.02896558	-0.04888811	-0.001984331	0.001442971	-0.02397477	0.01743403	0	0
34.10693	-0.02899187	-0.04886899	-0.00158523	0.001152649	0.004817744	-0.003504613	0	0
34.12348	-0.02896558	-0.04888811	0.00158925	-0.001155573	0.09581701	-0.0696703	0	0
34.14017	-0.02896558	-0.04888811	0	0	-0.04782052	0.03477117	0	0
34.15668	-0.02896558	-0.04888811	0	0	0	0	0	0
34.17319	-0.02896558	-0.04888811	0	0	0	0	0	0
34.18974	-0.02896558	-0.04888811	0	0	0	0	0	0
34.20631	-0.02896558	-0.04888811	0	0	0	0	0	0
34.22287	-0.02896558	-0.04888811	0	0	0	0	0	0
34.25601	-0.02896558	-0.04888811	0	0	0	0	0	0
34.27276	-0.02896558	-0.04888811	0	0	0	0	0	0
34.28928	-0.02896558	-0.04888811	0	0	0	0	0	0
34.30571	-0.02896558	-0.04888811	0	0	0	0	0	0
34.3223	-0.02896558	-0.04888811	0	0	0	0	0	0
34.33884	-0.02896558	-0.04888811	0	0	0	0	0	0
34.35541	-0.02896558	-0.04888811	0	0	0	0	0	0
34.37197	-0.02896558	-0.04888811	0	0	0	0	0	0
34.38854	-0.02896558	-0.04888811	0	0	0	0	0	0
34.40511	-0.02896558	-0.04888811	0	0	0	0	0	0
34.42186	-0.02896558	-0.04888811	0	0	0	0	0	0
34.43837	-0.02896558	-0.04888811	0	0	0	0	0	0
34.4548	-0.02896558	-0.04888811	0	0	0	0	0	0
34.47137	-0.02896558	-0.04888811	0	0	0	0	0	0
34.48841	-0.02896558	-0.04888811	0	0	0	0	0	0
34.50451	-0.02896558	-0.04888811	0	0	0	0	0	0
34.52107	-0.02896558	-0.04888811	0	0	0	0	0	0
34.53764	-0.02896558	-0.04888811	0	0	0	0	0	0
34.57077	-0.02896558	-0.04888811	0	0	0	0	0	0
34.58799	-0.02896558	-0.04888811	0	0	0	0	0	0
34.60391	-0.02896558	-0.04888811	0	0	0	0	0	0
34.62051	-0.02899187	-0.04886899	-0.001584137	0.001151854	-0.04871796	0.03542371	0	0
34.63704	-0.02899187	-0.04886899	0	0	0.04780934	-0.03476303	0	0
34.65403	-0.02899187	-0.04886899	0	0	0	0	0	0
34.68153	-0.02899187	-0.04886899	0	0	0	0	0	0
34.6981	-0.02899187	-0.04886899	0	0	0	0	0	0
34.71466	-0.02899187	-0.04886899	0	0	0	0	0	0
34.73526	-0.02899187	-0.04886899	0	0	0	0	0	0
34.7526	-0.02899187	-0.04886899	0	0	0	0	0	0
34.76839	-0.02901817	-0.04884987	-0.001664472	0.001210504	-0.05023386	0.03653307	0	0
34.78496	-0.02901817	-0.04884987	0	0	0.0514299	-0.03740291	0	0
34.80164	-0.02901817	-0.04884987	0	0	0	0	0	0
34.81809	-0.02901817	-0.04884987	0	0	0	0	0	0
34.83466	-0.02904446	-0.04883075	-0.001586802	0.001153711	-0.04804464	0.03493166	0	0
34.85123	-0.02904446	-0.04883075	0	0	0.04788977	-0.03481905	0	0
34.86779	-0.02904446	-0.04883075	0	0	0	0	0	0
34.88436	-0.02904446	-0.04883075	0	0	0	0	0	0
34.90093	-0.02904446	-0.04883075	0	0	0	0	0	0
34.91751	-0.02904446	-0.04883075	0	0	0	0	0	0
34.93406	-0.02904446	-0.04883075	0	0	0	0	0	0
34.95074	-0.02904446	-0.04883075	0	0	0	0	0	0
34.96725	-0.02904446	-0.04883075	0	0	0	0	0	0
34.98376	-0.02907076	-0.04881163	-0.001592187	0.001157708	-0.04821327	0.03505675	0	0
35.0169	-0.02907076	-0.04881163	0	0	0.03206933	-0.02331819	0	0
35.03346	-0.02904446	-0.04883075	0.00158742	-0.001154242	0.03194141	-0.02322518	0	0
35.05003	-0.02904446	-0.04883075	0	0	-0.04791395	0.0348391	0	0
35.06659	-0.02904446	-0.04883075	0	0	0	0	0	0
35.08316	-0.02904446	-0.04883075	0	0	0	0	0	0
35.09973	-0.02904446	-0.04883075	0	0	0	0	0	0
35.11635	-0.02904446	-0.04883075	0	0	0	0	0	0
35.13286	-0.02904446	-0.04883075	0	0	0	0	0	0
35.14943	-0.02904446	-0.04883075	0	0	0	0	0	0
35.166	-0.02904446	-0.04883075	0	0	0	0	0	0
35.18256	-0.02901817	-0.04884987	0.001587167	-0.001153976	0.0479008	-0.03482707	0	0
35.19913	-0.02901817	-0.04884987	0	0	-0.0479008	0.03482707	0	0
35.21593	-0.02901817	-0.04884987	0	0	0	0	0	0
35.23244	-0.02901817	-0.04884987	0	0	0	0	0	0
35.24883	-0.02901817	-0.04884987	0	0	0	0	0	0
35.26546	-0.02901817	-0.04884987	0	0	0	0	0	0
35.28196	-0.02901817	-0.04884987	0	0	0	0	0	0
35.29853	-0.02901817	-0.04884987	0	0	0	0	0	0
35.3151	-0.02901817	-0.04884987	0	0	0	0	0	0
35.33166	-0.02901817	-0.04884987	0	0	0	0	0	0
35.34823	-0.02901817	-0.04884987	0	0	0	0	0	0
35.3648	-0.02901817	-0.04884987	0	0	0	0	0	0
35.38136	-0.02901817	-0.04884987	0	0	0	0	0	0
35.39793	-0.02901817	-0.04884987	0	0	0	0	0	0
35.41457	-0.02901817	-0.04884987	0	0	0	0	0	0
35.43106	-0.02901817	-0.04884987	0	0	0	0	0	0
35.44809	-0.02901817	-0.04884987	0	0	0	0	0	0
35.46667	-0.02901817	-0.04884987	0	0	0	0	0	0
35.48324	-0.02901817	-0.04884987	0	0	0	0	0	0
35.50013	-0.02901817	-0.04884987	0	0	0	0	0	0
35.51637	-0.02901817	-0.04884987	0	0	0	0	0	0
35.53315	-0.02901817	-0.04884987	0	0	0	0	0	0
35.5495	-0.02901817	-0.04884987	0	0	0	0	0	0
35.56607	-0.02901817	-0.04884987	0	0	0	0	0	0
35.58268	-0.02901817	-0.04884987	0	0	0	0	0	0
35.59921	-0.02901817	-0.04884987	0	0	0	0	0	0
35.61577	-0.02901817	-0.04884987	0	0	0	0	0	0
35.63234	-0.02901817	-0.04884987	0	0	0	0	0	0
35.64891	-0.02901817	-0.04884987	0	0	0	0	0	0
35.66547	-0.02901817	-0.04884987	0	0	0	0	0	0
35.68226	-0.02901817	-0.04884987	0	0	0	0	0	0
35.69861	-0.02901817	-0.04884987	0	0	0	0	0	0
35.71528	-0.02901817	-0.04884987	0	0	0	0	0	0
35.73179	-0.02901817	-0.04884987	0	0	0	0	0	0
35.74831	-0.02901817	-0.04884987	0	0	0	0	0	0
35.76487	-0.02901817	-0.04884987	0	0	0	0	0	0
35.78183	-0.02901817	-0.04884987	0	0	0	0	0	0
35.79801	-0.02901817	-0.04884987	0	0	0	0	0	0
35.81485	-0.02901817	-0.04884987	0	0	0	0	0	0
35.83114	-0.02901817	-0.04884987	0	0	0	0	0	0
35.84771	-0.02901817	-0.04884987	0	0	0	0	0	0
35.86427	-0.02904446	-0.04883075	-0.001587167	0.001153976	-0.04790631	0.03483108	0	0
35.88084	-0.02904446	-0.04883075	0	0	0.0479008	-0.03482707	0	0
35.94744	-0.02907076	-0.04881163	-0.0003947865	0.0002870565	-0.004746854	0.003451524	0	0
36.02994	-0.02909705	-0.04879251	-0.0003187025	0.0002317795	0.0005102846	-0.0003707344	0	0
36.04651	-0.02909705	-0.04879251	0	0	0.003216893	-0.002339517	0	0
36.06308	-0.02909705	-0.04879251	0	0	0	0	0	0
36.08004	-0.02909705	-0.04879251	0	0	0	0	0	0
36.09621	-0.02909705	-0.04879251	0	0	0	0	0	0
36.11277	-0.02909705	-0.04879251	0	0	0	0	0	0
36.12934	-0.02909705	-0.04879251	0	0	0	0	0	0
36.14591	-0.02909705	-0.04879251	0	0	0	0	0	0
36.1626	-0.02909705	-0.04879251	0	0	0	0	0	0
36.17911	-0.02909705	-0.04879251	0	0	0	0	0	0
36.19561	-0.02909705	-0.04879251	0	0	0	0	0	0
36.21218	-0.02909705	-0.04879251	0	0	0	0	0	0
36.22874	-0.02909705	-0.04879251	0	0	0	0	0	0
36.24531	-0.02909705	-0.04879251	0	0	0	0	0	0
36.26188	-0.02909705	-0.04879251	0	0	0	0	0	0
36.28361	-0.02907076	-0.04881163	0.001209861	-0.0008798833	0.03158942	-0.02297372	0	0
36.30018	-0.02907076	-0.04881163	0	0	-0.03158942	0.02297372	0	0
36.31675	-0.02907076	-0.04881163	0	0	0	0	0	0
36.33372	-0.02907076	-0.04881163	0	0	0	0	0	0
36.35023	-0.02907076	-0.04881163	0	0	0	0	0	0
36.36645	-0.02907076	-0.04881163	0	0	0	0	0	0
36.38301	-0.02907076	-0.04881163	0	0	0	0	0	0
36.39977	-0.02907076	-0.04881163	0	0	0	0	0	0
36.41615	-0.02907076	-0.04881163	0	0	0	0	0	0
36.43272	-0.02904446	-0.04883075	0.001587055	-0.001153976	0.04816914	-0.03502465	0	0
36.44928	-0.02904446	-0.04883075	0	0	-0.0478974	0.03482707	0	0
36.46585	-0.02904446	-0.04883075	0	0	0	0	0	0
36.48283	-0.02901817	-0.04884987	0.001548308	-0.001125723	0.0461489	-0.03355333	0	0
36.49899	-0.02901817	-0.04884987	0	0	-0.04672802	0.03397439	0	0
36.51555	-0.02901817	-0.04884987	0	0	0	0	0	0
36.53237	-0.02899187	-0.04886899	0.001563652	-0.001137181	0.04684059	-0.03406528	0	0
36.54888	-0.02899187	-0.04886899	0	0	-0.04692102	0.03412377	0	0
36.56525	-0.02899187	-0.04886899	0	0	0	0	0	0
36.5819	-0.02899187	-0.04886899	0	0	0	0	0	0
36.59841	-0.02899187	-0.04886899	0	0	0	0	0	0
36.61495	-0.02899187	-0.04886899	0	0	0	0	0	0
36.63152	-0.02899187	-0.04886899	0	0	0	0	0	0
36.64809	-0.02899187	-0.04886899	0	0	0	0	0	0
36.66465	-0.02899187	-0.04886899	0	0	0	0	0	0
36.68122	-0.02899187	-0.04886899	0	0	0	0	0	0
36.69799	-0.02899187	-0.04886899	0	0	0	0	0	0
36.71436	-0.02899187	-0.04886899	0	0	0	0	0	0
36.73101	-0.02899187	-0.04886899	0	0	0	0	0	0
36.74749	-0.02896558	-0.04888811	0.001595504	-0.00116012	0.04815241	-0.03501249	0	0
36.76405	-0.02896558	-0.04888811	0	0	-0.04828583	0.03510951	0	0
36.78104	-0.02896558	-0.04888811	0	0	0	0	0	0
36.81376	-0.02896558	-0.04888811	0	0	0	0	0	0
36.83059	-0.02896558	-0.04888811	0	0	0	0	0	0
36.84689	-0.02896558	-0.04888811	0	0	0	0	0	0
