Time	Pos X	Pos Y	Vel X	Vel Y	Acc X	Acc YForce X	Force Y
0.01680477	-0.05872189	0.02052185	0.0008739275	-0.0003054161	-1.300942E-05	4.54647E-06	0	0
0.05345117	-0.05872189	0.02052185	0	0	1.301331E-05	-4.54783E-06	0	0
0.07002146	-0.05872189	0.02052185	0	0	0	0	0	0
0.08685347	-0.05872189	0.02052185	0	0	0	0	0	0
0.1031541	-0.05872189	0.02052185	0	0	0	0	0	0
0.1198827	-0.05872189	0.02052185	0	0	0	0	0	0
0.1362884	-0.05872189	0.02052185	0	0	0	0	0	0
0.1528547	-0.05872189	0.02052185	0	0	0	0	0	0
0.1694199	-0.05872189	0.02052185	0	0	0	0	0	0
0.1859878	-0.05872189	0.02052185	0	0	0	0	0	0
0.202553	-0.05872189	0.02052185	0	0	0	0	0	0
0.2191197	-0.05869566	0.02050314	0.001583054	-0.0011295	0.04778036	-0.03409102	0	0
0.2688203	-0.05874811	0.02050314	-0.001055361	0	-0.03981473	0.0170446	0	0
0.2853878	-0.05874811	0.02050314	0	0	0.01592563	0	0	0
0.301953	-0.05874811	0.02050314	0	0	0	0	0	0
0.3185197	-0.05874811	0.02050314	0	0	0	0	0	0
0.3350892	-0.05874811	0.02050314	0	0	0	0	0	0
0.3516555	-0.05874811	0.02050314	0	0	0	0	0	0
0.3682203	-0.05874811	0.02050314	0	0	0	0	0	0
0.3847882	-0.05874811	0.02050314	0	0	0	0	0	0
0.4013545	-0.05874811	0.02050314	0	0	0	0	0	0
0.4179205	-0.05874811	0.02050314	0	0	0	0	0	0
0.4346001	-0.05874811	0.02050314	0	0	0	0	0	0
0.4510536	-0.05874811	0.02050314	0	0	0	0	0	0
0.4676215	-0.05874811	0.02050314	0	0	0	0	0	0
0.484189	-0.05874811	0.02050314	0	0	0	0	0	0
0.5173205	-0.05874811	0.02050314	0	0	0	0	0	0
0.5506853	-0.05874811	0.02050314	0	0	0	0	0	0
0.5671999	-0.05874811	0.02050314	0	0	0	0	0	0
0.5835882	-0.05874811	0.02050314	0	0	0	0	0	0
0.6001542	-0.05874811	0.02050314	0	0	0	0	0	0
0.6167197	-0.05874811	0.02050314	0	0	0	0	0	0
0.6332861	-0.05874811	0.02050314	0	0	0	0	0	0
0.6498528	-0.05874811	0.02050314	0	0	0	0	0	0
0.6664196	-0.05874811	0.02050314	0	0	0	0	0	0
0.6829863	-0.05874811	0.02050314	0	0	0	0	0	0
0.7186059	-0.05874811	0.02050314	0	0	0	0	0	0
0.7353124	-0.05874811	0.02050314	0	0	0	0	0	0
0.7518314	-0.05874811	0.02050314	0	0	0	0	0	0
0.7683357	-0.05874811	0.02050314	0	0	0	0	0	0
0.7848716	-0.05874811	0.02050314	0	0	0	0	0	0
0.8014387	-0.05874811	0.02050314	0	0	0	0	0	0
0.8180051	-0.05874811	0.02050314	0	0	0	0	0	0
0.8348825	-0.05874811	0.02050314	0	0	0	0	0	0
0.8511389	-0.05874811	0.02050314	0	0	0	0	0	0
0.867907	-0.05874811	0.02050314	0	0	0	0	0	0
0.8844169	-0.05874811	0.02050314	0	0	0	0	0	0
0.9009343	-0.05874811	0.02050314	0	0	0	0	0	0
0.9174082	-0.05874811	0.02050314	0	0	0	0	0	0
0.9339741	-0.05874811	0.02050314	0	0	0	0	0	0
0.9505405	-0.05874811	0.02050314	0	0	0	0	0	0
0.967108	-0.05874811	0.02050314	0	0	0	0	0	0
0.9836739	-0.05874811	0.02050314	0	0	0	0	0	0
1.001002	-0.05874811	0.02050314	0	0	0	0	0	0
1.016807	-0.05874811	0.02050314	0	0	0	0	0	0
1.033522	-0.05874811	0.02050314	0	0	0	0	0	0
1.050036	-0.05874811	0.02050314	0	0	0	0	0	0
1.066505	-0.05874811	0.02050314	0	0	0	0	0	0
1.083072	-0.05874811	0.02050314	0	0	0	0	0	0
1.100073	-0.05874811	0.02050314	0	0	0	0	0	0
1.116206	-0.05874811	0.02050314	0	0	0	0	0	0
1.132772	-0.05874811	0.02050314	0	0	0	0	0	0
1.149339	-0.05874811	0.02050314	0	0	0	0	0	0
1.166116	-0.05874811	0.02050314	0	0	0	0	0	0
1.182629	-0.05874811	0.02050314	0	0	0	0	0	0
1.19914	-0.05874811	0.02050314	0	0	0	0	0	0
1.215654	-0.05874811	0.02050314	0	0	0	0	0	0
1.232173	-0.05874811	0.02050314	0	0	0	0	0	0
1.248738	-0.05874811	0.02050314	0	0	0	0	0	0
1.265305	-0.05874811	0.02050314	0	0	0	0	0	0
1.281873	-0.05874811	0.02050314	0	0	0	0	0	0
1.298439	-0.05877433	0.02048443	-0.001582908	-0.001129444	-0.04777259	-0.03408692	0	0
1.315006	-0.05877433	0.02048443	0	0	0.04777431	0.03408815	0	0
1.397839	-0.05877433	0.02048443	0	0	0	0	0	0
1.430974	-0.05877433	0.02048443	0	0	0	0	0	0
1.447538	-0.05877433	0.02048443	0	0	0	0	0	0
1.464327	-0.05877433	0.02048443	0	0	0	0	0	0
1.480675	-0.05877433	0.02048443	0	0	0	0	0	0
1.50202	-0.05877433	0.02048443	0	0	0	0	0	0
1.518589	-0.05877433	0.02048443	0	0	0	0	0	0
1.535378	-0.05877433	0.02048443	0	0	0	0	0	0
1.551721	-0.05877433	0.02048443	0	0	0	0	0	0
1.5684	-0.05877433	0.02048443	0	0	0	0	0	0
1.584855	-0.05877433	0.02048443	0	0	0	0	0	0
1.601424	-0.05877433	0.02048443	0	0	0	0	0	0
1.617989	-0.05877433	0.02048443	0	0	0	0	0	0
1.634554	-0.05877433	0.02048443	0	0	0	0	0	0
1.651121	-0.05877433	0.02048443	0	0	0	0	0	0
1.667687	-0.05877433	0.02048443	0	0	0	0	0	0
1.684254	-0.05877433	0.02048443	0	0	0	0	0	0
1.700821	-0.05877433	0.02048443	0	0	0	0	0	0
1.717512	-0.05877433	0.02048443	0	0	0	0	0	0
1.733955	-0.05877433	0.02048443	0	0	0	0	0	0
1.750533	-0.05877433	0.02048443	0	0	0	0	0	0
1.767088	-0.05877433	0.02048443	0	0	0	0	0	0
1.783655	-0.05877433	0.02048443	0	0	0	0	0	0
1.800221	-0.05877433	0.02048443	0	0	0	0	0	0
1.816787	-0.05877433	0.02048443	0	0	0	0	0	0
1.833354	-0.05877433	0.02048443	0	0	0	0	0	0
1.8501	-0.05877433	0.02048443	0	0	0	0	0	0
1.866488	-0.05877433	0.02048443	0	0	0	0	0	0
1.883123	-0.05877433	0.02048443	0	0	0	0	0	0
1.899636	-0.05877433	0.02048443	0	0	0	0	0	0
1.916188	-0.05877433	0.02048443	0	0	0	0	0	0
1.933159	-0.05877433	0.02048443	0	0	0	0	0	0
1.949321	-0.05877433	0.02048443	0	0	0	0	0	0
1.965888	-0.05877433	0.02048443	0	0	0	0	0	0
1.982693	-0.05877433	0.02048443	0	0	0	0	0	0
1.999022	-0.05877433	0.02048443	0	0	0	0	0	0
2.01572	-0.05877433	0.02048443	0	0	0	0	0	0
2.032232	-0.05877433	0.02048443	0	0	0	0	0	0
2.048742	-0.05877433	0.02048443	0	0	0	0	0	0
2.081854	-0.05877433	0.02048443	0	0	0	0	0	0
2.098464	-0.05877433	0.02048443	0	0	0	0	0	0
2.115291	-0.05877433	0.02048443	0	0	0	0	0	0
2.131556	-0.05877433	0.02048443	0	0	0	0	0	0
2.148121	-0.05877433	0.02048443	0	0	0	0	0	0
2.164687	-0.05877433	0.02048443	0	0	0	0	0	0
2.181334	-0.05877433	0.02048443	0	0	0	0	0	0
2.197821	-0.05877433	0.02048443	0	0	0	0	0	0
2.214387	-0.05877433	0.02048443	0	0	0	0	0	0
2.247521	-0.05877433	0.02048443	0	0	0	0	0	0
2.264088	-0.05877433	0.02048443	0	0	0	0	0	0
2.283099	-0.05877433	0.02048443	0	0	0	0	0	0
2.299919	-0.05877433	0.02048443	0	0	0	0	0	0
2.316234	-0.05877433	0.02048443	0	0	0	0	0	0
2.332801	-0.05877433	0.02048443	0	0	0	0	0	0
2.349455	-0.05877433	0.02048443	0	0	0	0	0	0
2.365964	-0.05877433	0.02048443	0	0	0	0	0	0
2.382504	-0.05877433	0.02048443	0	0	0	0	0	0
2.399067	-0.05877433	0.02048443	0	0	0	0	0	0
2.415635	-0.05880056	0.02046571	-0.001583007	-0.001129467	-0.04778006	-0.0340908	0	0
2.432201	-0.05880056	0.02046571	0	0	0.04777594	0.03408786	0	0
2.449022	-0.05877433	0.020447	0.001559134	-0.001112322	0.0466979	-0.03331537	0	0
2.465534	-0.05877433	0.020447	0	0	-0.04677439	0.03336994	0	0
2.482054	-0.05877433	0.020447	0	0	0	0	0	0
2.498559	-0.05877433	0.020447	0	0	0	0	0	0
2.51507	-0.05877433	0.020447	0	0	0	0	0	0
2.531601	-0.05877433	0.020447	0	0	0	0	0	0
2.548169	-0.05877433	0.020447	0	0	0	0	0	0
2.564734	-0.05877433	0.020447	0	0	0	0	0	0
2.581301	-0.05877433	0.020447	0	0	0	0	0	0
2.598128	-0.05877433	0.020447	0	0	0	0	0	0
2.614434	-0.05877433	0.020447	0	0	0	0	0	0
2.631002	-0.05877433	0.020447	0	0	0	0	0	0
2.647665	-0.05877433	0.020447	0	0	0	0	0	0
2.664175	-0.05877433	0.020447	0	0	0	0	0	0
2.680701	-0.05877433	0.020447	0	0	0	0	0	0
2.697311	-0.05874811	0.02046571	0.001578648	0.001126404	0.04764059	0.03399274	0	0
2.714211	-0.05874811	0.02046571	0	0	-0.04710845	-0.03361304	0	0
2.730402	-0.05872189	0.020447	0.001619839	-0.001155631	0.04895129	-0.03492299	0	0
2.747238	-0.05869566	0.02042829	0.001557699	-0.001111409	-0.001881496	0.001338953	0	0
2.763534	-0.05859076	0.02035345	0.006437226	-0.004592858	0.147274	-0.1050771	0	0
2.780256	-0.05851208	0.02029731	0.004705077	-0.003357046	-0.05246094	0.03742859	0	0
2.79677	-0.0584334	0.02024117	0.004764517	-0.003399456	0.001788467	-0.001276062	0	0
2.813281	-0.05840718	0.02022246	0.001588402	-0.001133316	-0.09617507	0.06862038	0	0
2.830293	-0.05840718	0.02022246	0	0	-0.04738132	0.0338063	0	0
2.846368	-0.05840718	0.02022246	0	0	0	0	0	0
2.863316	-0.05838095	0.02020375	0.0015474	-0.001104061	0.04685875	-0.03343345	0	0
2.879501	-0.05838095	0.02020375	0	0	-0.04670263	0.03332206	0	0
2.929202	-0.05838095	0.02020375	0	0	0	0	0	0
2.945769	-0.05838095	0.02020375	0	0	0	0	0	0
2.962337	-0.05840718	0.02022246	-0.001582984	0.00112945	-0.04777422	0.03408663	0	0
2.978903	-0.05840718	0.02022246	0	0	0.04777559	-0.03408762	0	0
2.998226	-0.05840718	0.02022246	0	0	0	0	0	0
3.014796	-0.05840718	0.02022246	0	0	0	0	0	0
3.031362	-0.05840718	0.02022246	0	0	0	0	0	0
3.047948	-0.05840718	0.02022246	0	0	0	0	0	0
3.064495	-0.05840718	0.02022246	0	0	0	0	0	0
3.081061	-0.05840718	0.02022246	0	0	0	0	0	0
3.097627	-0.0583285	0.02024117	0.004749295	0.001129532	0.1433453	0.03409203	0	0
3.114194	-0.05822359	0.0202786	0.006332254	0.002258933	0.04777516	0.03408639	0	0
3.131014	-0.05754167	0.0201289	0.04054279	-0.008900206	1.024668	-0.3342366	0	0
3.180461	-0.03884887	0.01278576	0.3780386	-0.1485057	5.093005	-2.106727	0	0
3.197053	-0.005710464	0.01188554	1.997191	-0.05425502	24.51801	1.42719	0	0
3.213594	0.01631434	0.01272951	1.331547	0.05102358	-20.08991	3.177429	0	0
3.230576	0.04888208	0.01372325	1.917825	0.05851889	17.48916	0.2235912	0	0
3.246727	0.07423177	0.01411692	1.569455	0.02437286	-10.51412	-1.030559	0	0
3.263296	0.09135031	0.01421064	1.033188	0.005656738	-16.38931	-0.5719989	0	0
3.280112	0.1317844	0.01555999	2.404481	0.08024111	41.07538	2.234082	0	0
3.296428	0.1459032	0.01606586	0.8653229	0.03100421	-46.45489	-1.486069	0	0
3.312995	0.1710489	0.01726466	1.517889	0.07236423	19.84542	1.257814	0	0
3.329645	0.1852463	0.01743321	0.8526947	0.01012308	-20.02618	-1.873817	0	0
3.346157	0.1964338	0.01730212	0.677546	-0.007939294	-5.281631	-0.5446728	0	0
3.362694	0.2074962	0.01640306	0.6689301	-0.05436492	-0.2606966	-1.404737	0	0
3.379261	0.2125055	0.01541009	0.3023685	-0.05993799	-11.07297	-0.1683495	0	0
3.395827	0.2161989	0.01272951	0.2229452	-0.1618095	-2.397102	-3.074621	0	0
3.412394	0.2209387	0.009183441	0.286097	-0.2140408	1.905981	-1.57639	0	0
3.428969	0.2251184	0.006047084	0.2521766	-0.1892264	-1.023494	0.7487325	0	0
3.44553	0.2307122	0.001835668	0.3377723	-0.2543004	2.58321	-1.963881	0	0
3.462095	0.231909	0.0009325339	0.07224457	-0.05451874	-8.015604	6.030899	0	0
3.479259	0.2359182	-0.002098514	0.2335886	-0.1765983	4.783531	-3.619416	0	0
3.495229	0.2382554	-0.003869474	0.1463537	-0.1108947	-2.632851	1.98301	0	0
3.528363	0.2382306	-0.003850629	-0.0007501349	0.0005687497	-2.995762	2.269948	0	0
3.561497	0.2382306	-0.003850629	0	0	0.01131956	-0.00858245	0	0
3.578064	0.2382306	-0.003850629	0	0	0	0	0	0
3.594628	0.2382306	-0.003850629	0	0	0	0	0	0
3.611195	0.2382057	-0.003831784	-0.001500238	0.001137461	-0.04528182	0.03433209	0	0
3.627762	0.2382057	-0.003831784	0	0	0.04527758	-0.03432888	0	0
3.644328	0.2381809	-0.00381294	-0.001499468	0.001137559	-0.0452563	0.03433333	0	0
3.660894	0.238156	-0.003794095	-0.00150041	0.001137578	-2.845063E-05	5.62196E-07	0	0
3.677462	0.2381063	-0.003756406	-0.003000389	0.002274814	-0.04527074	0.03432285	0	0
3.694027	0.2380815	-0.003737562	-0.001499511	0.001137564	0.04529789	-0.03432327	0	0
3.710593	0.2380566	-0.003718717	-0.001500345	0.001137501	-2.519674E-05	-1.907939E-06	0	0
3.727161	0.2380317	-0.003699873	-0.001500238	0.001137419	3.257012E-06	-2.469989E-06	0	0
3.743727	0.2380069	-0.003681029	-0.001500367	0.001137517	-3.907037E-06	2.965413E-06	0	0
3.763209	0.2380069	-0.003681029	0	0	0.04162171	-0.03155588	0	0
3.779971	0.2379572	-0.003681029	-0.002965607	0	-0.08182359	0	0	0
3.796344	0.2379572	-0.003681029	0	0	0.08950028	0	0	0
3.81291	0.237982	-0.003699873	0.001500345	-0.001137501	0.04554894	-0.03453334	0	0
3.829478	0.237982	-0.003699873	0	0	-0.04528149	0.03433057	0	0
3.846044	0.2379572	-0.003718717	-0.001500367	-0.001137517	-0.04528247	-0.03433132	0	0
3.86261	0.2379572	-0.003718717	0	0	0.04528344	0.03433206	0	0
3.879177	0.2379572	-0.003718717	0	0	0	0	0	0
3.895743	0.2379572	-0.003718717	0	0	0	0	0	0
3.913429	0.2379572	-0.003718717	0	0	0	0	0	0
3.929997	0.2379075	-0.003718717	-0.00299936	0	-0.08756274	0	0	0
3.94658	0.2379075	-0.003718717	0	0	0.09047399	0	0	0
3.96313	0.2378826	-0.003699873	-0.001501837	0.001138631	-0.04532781	0.03436569	0	0
3.979697	0.2378826	-0.003699873	0	0	0.04534934	-0.03438202	0	0
4.045966	0.2376092	-0.003605654	-0.004125967	0.001421779	-0.04980906	0.01716385	0	0
4.062531	0.2375595	-0.003605654	-0.003000864	0	0.01358266	-0.01716425	0	0
4.079186	0.2374849	-0.003624498	-0.004477833	-0.001131369	-0.04445923	-0.03405607	0	0
4.095665	0.2373606	-0.003718717	-0.007543478	-0.005717728	-0.09252266	-0.1384186	0	0
4.11223	0.2372115	-0.003831784	-0.00900439	-0.006825523	-0.0442113	-0.03352496	0	0
4.129211	0.2353708	-0.005226598	-0.108397	-0.08214137	-2.962877	-2.245153	0	0
4.145722	0.2333044	-0.006791756	-0.1251561	-0.09479509	-0.5003985	-0.3778177	0	0
4.162237	0.2273677	-0.01128397	-0.359477	-0.2720115	-7.095097	-5.366008	0	0
4.178754	0.2207383	-0.01633099	-0.4013639	-0.3055623	-1.268073	-1.015707	0	0
4.195068	0.2129078	-0.02216296	-0.4799716	-0.3574716	-2.394267	-1.581077	0	0
4.211631	0.2028551	-0.02954418	-0.6069365	-0.4456469	-3.86176	-2.681939	0	0
4.228197	0.2001016	-0.03150154	-0.1662184	-0.1181566	13.30319	9.885385	0	0
4.280837	0.140799	-0.04374933	-1.12658	-0.232673	-13.877	-1.654735	0	0
4.297408	0.1039919	-0.04241356	-2.221167	0.08060867	-15.81532	4.526503	0	0
4.313971	0.08369873	-0.04142166	-1.225182	0.05988496	30.0589	-0.6254429	0	0
4.330539	0.03235712	-0.03837171	-3.098897	0.1840899	-56.55453	3.748889	0	0
4.347104	0.003315777	-0.03646706	-1.753141	0.114978	40.61674	-2.085891	0	0
4.363877	-0.02252251	-0.03418306	-1.540448	0.1361695	6.379781	0.6356456	0	0
4.380386	-0.0509821	-0.03104535	-1.723878	0.1900602	-5.511318	1.619202	0	0
4.397404	-0.06669043	-0.02836657	-0.9230766	0.1574145	23.88567	-0.9737319	0	0
4.41341	-0.07737155	-0.02586087	-0.6673003	0.1565427	7.745203	-0.02640024	0	0
4.429938	-0.08199993	-0.02481743	-0.2800383	0.06313325	11.90326	-2.871121	0	0
4.446505	-0.08346355	-0.02413464	-0.08834439	0.04121339	5.792251	-0.662334	0	0
4.463072	-0.08343741	-0.0241536	0.001577656	-0.001144678	2.713892	-1.278387	0	0
4.479967	-0.08338515	-0.02411567	0.003093601	0.0022449	0.04530406	0.1012976	0	0
4.500496	-0.08333288	-0.02407774	0.002545917	0.001847559	-0.01463453	-0.01061725	0	0
4.517064	-0.08328062	-0.02403982	0.003154681	0.002289223	0.01641005	0.01190566	0	0
4.533996	-0.08317608	-0.02396396	0.006173877	0.004479812	0.09012474	0.06539033	0	0
4.550507	-0.08307154	-0.02392603	0.006331496	0.002297091	0.004712997	-0.06526604	0	0
4.567022	-0.082967	-0.02392603	0.006329851	0	-4.98144E-05	-0.06955355	0	0
4.583331	-0.08283632	-0.02398293	0.008012598	-0.003488351	0.05126571	-0.1062743	0	0
4.600044	-0.08270565	-0.02392603	0.007818741	0.003403954	-0.005870572	0.2087191	0	0
4.616558	-0.08252269	-0.02390707	0.01107931	0.00114838	0.09813154	-0.06788483	0	0
4.633066	-0.08241814	-0.02398293	0.006333313	-0.004594845	-0.1437225	-0.1739215	0	0
4.649598	-0.08207835	-0.0241536	0.02055361	-0.0103239	0.4303897	-0.1733949	0	0
4.666165	-0.08186923	-0.02419153	0.01262223	-0.002289514	-0.2396247	0.2427368	0	0
4.682731	-0.08090198	-0.02413464	0.05839	0.003434554	1.381353	0.1727626	0	0
4.699297	-0.07915009	-0.02438118	0.1057505	-0.01488247	1.429467	-0.5528567	0	0
4.716124	-0.07671756	-0.02440015	0.1445645	-0.001127109	1.162341	0.4119247	0	0
4.73243	-0.075985	-0.023945	0.04492313	0.02791156	-3.007268	0.876414	0	0
4.749149	-0.07595884	-0.02396396	0.001564639	-0.001134263	-1.31287	-0.8794904	0	0
4.765565	-0.07595884	-0.02396396	0	0	-0.0472209	0.03423212	0	0
4.782172	-0.07593267	-0.02398293	0.001575645	-0.001141917	0.04771443	-0.03458006	0	0
4.798697	-0.07593267	-0.02398293	0	0	-0.04755581	0.0344651	0	0
4.815265	-0.07593267	-0.02398293	0	0	0	0	0	0
4.831831	-0.07593267	-0.02398293	0	0	0	0	0	0
4.864964	-0.07593267	-0.02398293	0	0	0	0	0	0
4.881742	-0.07593267	-0.02398293	0	0	0	0	0	0
4.898097	-0.07590651	-0.02400189	0.001599994	-0.001159563	0.04829	-0.03499719	0	0
4.914768	-0.07590651	-0.02400189	0	0	-0.04844758	0.03511139	0	0
4.93123	-0.07588034	-0.02398293	0.001589474	0.001151939	0.0479718	0.03476658	0	0
4.947796	-0.07585418	-0.02396396	0.001579096	0.001144743	-0.0003142158	-0.0002178532	0	0
4.964364	-0.07582802	-0.023945	0.001579364	0.001144612	8.084616E-06	-3.977308E-06	0	0
4.98131	-0.07574952	-0.02388811	0.004632235	0.003357007	0.09109236	0.06601404	0	0
4.997497	-0.07569719	-0.02385018	0.003232521	0.002342921	-0.04224468	-0.03060606	0	0
5.014065	-0.07556636	-0.02375537	0.00789682	0.005722721	0.1424001	0.1031846	0	0
5.03063	-0.0755402	-0.02373641	0.001579187	0.001144697	-0.1906775	-0.138173	0	0
5.047358	-0.07520003	-0.02352783	0.02033553	0.01246869	0.5633758	0.3401336	0	0
5.063868	-0.07444113	-0.02301594	0.04596435	0.0310044	0.7710604	0.5576593	0	0
5.080382	-0.06828839	-0.01898055	0.372571	0.2443569	9.889741	6.460375	0	0
5.096897	-0.06131777	-0.01553655	0.4220956	0.2085469	1.499448	-1.084213	0	0
5.113463	-0.04696544	-0.01468558	0.8663584	0.05136744	13.42972	-4.751411	0	0
5.13003	-0.03997869	-0.01544198	0.4217333	-0.04565797	-13.41939	-2.928359	0	0
5.146596	-0.02354828	-0.01659585	0.99177	-0.0696492	17.20424	-0.7240776	0	0
5.163439	-0.01447267	-0.0161229	0.5388404	0.02807984	-13.55687	2.925179	0	0
5.182206	-0.004289447	-0.01557437	0.5426169	0.02922854	0.1060539	0.03225817	0	0
5.198774	0.001631577	-0.01714455	0.3573732	-0.09477046	-5.242489	-3.509234	0	0
5.215477	0.002605257	-0.01784476	0.05829326	-0.04192073	-8.989124	1.588447	0	0
5.231908	0.004078925	-0.01901842	0.08968902	-0.07143059	0.9475396	-0.8906222	0	0
5.2485	0.004026294	-0.01898055	-0.003172123	0.002282341	-2.812065	2.23221	0	0
5.265041	0.003921032	-0.01905629	-0.006363505	-0.004578499	-0.09632027	-0.2070695	0	0
5.281609	0.003842086	-0.01915096	-0.00476506	-0.005714064	0.048278	-0.03429759	0	0
5.298174	0.003631563	-0.01926457	-0.01270868	-0.006858201	-0.2397493	-0.03453162	0	0
5.314741	0.003631563	-0.01926457	0	0	0.3835763	0.2069958	0	0
5.331309	0.003578932	-0.01926457	-0.003176625	0	-0.09586934	0	0	0
5.347875	0.003552617	-0.0192835	-0.001588587	-0.00114309	0.04792846	-0.03449951	0	0
5.364441	0.003526301	-0.01926457	-0.001588495	0.001143024	2.758274E-06	0.06900101	0	0
5.381009	0.00347367	-0.01930244	-0.003176625	-0.002285785	-0.04792984	-0.1034817	0	0
5.397574	0.003394724	-0.01935924	-0.004765897	-0.003429368	-0.04796641	-0.0345149	0	0
5.414141	0.003210515	-0.01952967	-0.01111917	-0.01028714	-0.1917589	-0.206986	0	0
5.430709	0.003157884	-0.01956754	-0.003176625	-0.002285897	0.2397032	0.2414747	0	0
5.447274	0.002815782	-0.01981373	-0.02065231	-0.01486217	-0.5274399	-0.379569	0	0
5.48041	0.001526315	-0.02074185	-0.03891452	-0.02800936	-0.3674436	-0.2645271	0	0
5.496975	0.0007105262	-0.02132916	-0.04924534	-0.03545354	-0.2078565	-0.1497772	0	0
5.51369	0.0001842105	-0.02170813	-0.03148933	-0.02267379	0.5335358	0.384008	0	0
5.530109	0.0001842105	-0.02170813	0	0	0.9503772	0.6843161	0	0
5.54671	0.0001842105	-0.02170813	0	0	0	0	0	0
5.563241	0.0001578947	-0.02172708	-0.00159186	-0.001146219	-0.04804589	-0.03459546	0	0
5.596374	0.0001315789	-0.02174603	-0.0007942581	-0.0005719617	0.01605996	0.01156285	0	0
5.61294	0.0001315789	-0.02174603	0	0	0.01598142	0.01150855	0	0
5.629507	0.0001052632	-0.02176498	-0.00158847	-0.001143891	-0.04794218	-0.03452418	0	0
5.646281	0.0001052632	-0.02176498	0	0	0.04764323	0.0343089	0	0
5.662641	0.0001052632	-0.02176498	0	0	0	0	0	0
5.679302	7.894737E-05	-0.02178393	-0.001579468	-0.001137297	-0.04783158	-0.03444115	0	0
5.695774	0.0001052632	-0.02180288	0.001597667	-0.001150514	0.09589165	-0.0003989087	0	0
5.71234	7.894737E-05	-0.02182183	-0.001588515	-0.001143923	-0.0964409	0.000199474	0	0
5.728908	7.894737E-05	-0.02182183	0	0	0.04794218	0.03452417	0	0
5.745473	5.263158E-05	-0.02184078	-0.001588562	-0.001143956	-0.04794426	-0.03452566	0	0
5.762363	5.263158E-05	-0.02184078	0	0	0.047483	0.0341935	0	0
5.828307	2.631579E-05	-0.02189764	-0.0003990615	-0.0008621177	-0.004817619	-0.0104078	0	0
5.844921	0	-0.02191659	-0.001584002	-0.001140785	-0.01435288	-0.003375426	0	0
5.861443	0	-0.02191659	0	0	0.0478039	0.03442797	0	0
5.878055	0	-0.02191659	0	0	0	0	0	0
5.894577	0	-0.02191659	0	0	0	0	0	0
5.91114	0	-0.02191659	0	0	0	0	0	0
5.927707	0	-0.02191659	0	0	0	0	0	0
5.944279	0	-0.02191659	0	0	0	0	0	0
5.961006	0	-0.02191659	0	0	0	0	0	0
5.977407	-2.631579E-05	-0.02193554	-0.001604495	-0.00115543	-0.04843351	-0.03487799	0	0
6.013697	-2.631579E-05	-0.02193554	0	0	0.03045076	0.02192823	0	0
6.030262	-5.263158E-05	-0.02195449	-0.001588698	-0.001144055	-0.03005794	-0.02164535	0	0
6.04683	-5.263158E-05	-0.02195449	0	0	0.04794909	0.03452915	0	0
6.063396	-5.263158E-05	-0.02195449	0	0	0	0	0	0
6.079962	-5.263158E-05	-0.02195449	0	0	0	0	0	0
6.09653	-5.263158E-05	-0.02195449	0	0	0	0	0	0
6.11311	-5.263158E-05	-0.02195449	0	0	0	0	0	0
6.129662	-7.894737E-05	-0.02197344	-0.001589935	-0.001144945	-0.04798846	-0.0345575	0	0
6.14623	-7.894737E-05	-0.02197344	0	0	0.04800504	0.03456943	0	0
6.162795	-7.894737E-05	-0.02197344	0	0	0	0	0	0
6.179362	-0.0001052632	-0.02199239	-0.00158847	-0.001144003	-0.04794425	-0.03452906	0	0
6.19593	-0.0001052632	-0.02199239	0	0	0.04793942	0.03452558	0	0
6.229063	-0.0001052632	-0.02199239	0	0	0	0	0	0
6.245704	-0.0001052632	-0.02199239	0	0	0	0	0	0
6.262196	-0.0001052632	-0.02199239	0	0	0	0	0	0
6.279228	-0.0001052632	-0.02199239	0	0	0	0	0	0
6.295329	-0.0001052632	-0.02199239	0	0	0	0	0	0
6.311895	-0.0001052632	-0.02199239	0	0	0	0	0	0
6.354784	-0.0001052632	-0.02199239	0	0	0	0	0	0
6.370915	-0.0001052632	-0.02199239	0	0	0	0	0	0
6.387482	-0.0001052632	-0.02199239	0	0	0	0	0	0
6.40405	-0.0001052632	-0.02199239	0	0	0	0	0	0
6.420616	-0.0001052632	-0.02199239	0	0	0	0	0	0
6.437182	-0.0001052632	-0.02199239	0	0	0	0	0	0
6.453749	-0.0001052632	-0.02199239	0	0	0	0	0	0
6.470362	-0.0001052632	-0.02199239	0	0	0	0	0	0
6.486927	-0.0001052632	-0.02199239	0	0	0	0	0	0
6.503891	-0.0001052632	-0.02199239	0	0	0	0	0	0
6.520016	-0.0001052632	-0.02199239	0	0	0	0	0	0
6.536582	-0.0001052632	-0.02199239	0	0	0	0	0	0
6.553149	-0.0001052632	-0.02199239	0	0	0	0	0	0
6.569716	-0.0001052632	-0.02199239	0	0	0	0	0	0
6.586444	-0.0001052632	-0.02199239	0	0	0	0	0	0
6.602849	-0.0001052632	-0.02199239	0	0	0	0	0	0
6.619415	-0.0001052632	-0.02199239	0	0	0	0	0	0
6.635982	-0.0001052632	-0.02199239	0	0	0	0	0	0
6.652548	-0.0001315789	-0.02201134	-0.001588515	-0.001143923	-0.04794356	-0.03452517	0	0
6.718815	-0.0001315789	-0.02201134	0	0	0.01917726	0.01380995	0	0
6.735548	-0.0001315789	-0.02201134	0	0	0	0	0	0
6.751948	-0.0001052632	-0.0220303	0.001604588	-0.001155611	0.04842865	-0.03487792	0	0
6.768516	-0.0001052632	-0.0220303	0	0	-0.04867101	0.03505247	0	0
6.787586	-0.0001052632	-0.0220303	0	0	0	0	0	0
6.804153	-0.0001052632	-0.0220303	0	0	0	0	0	0
6.82072	-0.0001052632	-0.0220303	0	0	0	0	0	0
6.837287	-0.0001052632	-0.0220303	0	0	0	0	0	0
6.853853	-0.0001052632	-0.0220303	0	0	0	0	0	0
6.870421	-0.0001052632	-0.0220303	0	0	0	0	0	0
6.886987	-0.0001052632	-0.0220303	0	0	0	0	0	0
6.903667	-0.0001052632	-0.0220303	0	0	0	0	0	0
6.92012	-0.0001052632	-0.0220303	0	0	0	0	0	0
6.936692	-0.0001052632	-0.0220303	0	0	0	0	0	0
6.953254	-0.0001052632	-0.0220303	0	0	0	0	0	0
6.96982	-0.0001052632	-0.0220303	0	0	0	0	0	0
6.986388	-0.0001052632	-0.0220303	0	0	0	0	0	0
7.002954	-0.0001052632	-0.0220303	0	0	0	0	0	0
7.019522	-0.0001052632	-0.0220303	0	0	0	0	0	0
7.036087	-0.0001052632	-0.0220303	0	0	0	0	0	0
7.052653	-0.0001052632	-0.0220303	0	0	0	0	0	0
7.069286	-0.0001052632	-0.0220303	0	0	0	0	0	0
7.085787	-0.0001052632	-0.0220303	0	0	0	0	0	0
7.102354	-0.0001052632	-0.0220303	0	0	0	0	0	0
7.118924	-0.0001052632	-0.0220303	0	0	0	0	0	0
7.135487	-0.0001052632	-0.0220303	0	0	0	0	0	0
7.152053	-0.0001052632	-0.0220303	0	0	0	0	0	0
7.168855	-0.0001315789	-0.02204925	-0.001566289	-0.001128029	-0.0469397	-0.03380559	0	0
7.201756	-0.0001315789	-0.02204925	0	0	0.0315135	0.02269576	0	0
7.218391	-0.0001315789	-0.02204925	0	0	0	0	0	0
7.234887	-0.0001315789	-0.02204925	0	0	0	0	0	0
7.251454	-0.0001315789	-0.02204925	0	0	0	0	0	0
7.268022	-0.0001315789	-0.02204925	0	0	0	0	0	0
7.284588	-0.0001315789	-0.02204925	0	0	0	0	0	0
7.301153	-0.0001315789	-0.02204925	0	0	0	0	0	0
7.317963	-0.0001578947	-0.0220682	-0.00156549	-0.001127342	-0.04690571	-0.03377777	0	0
7.334287	-0.0001578947	-0.0220682	0	0	0.04724795	0.03402423	0	0
7.350983	-0.0001842105	-0.02204925	-0.00157613	0.001135005	-0.04773257	0.03437323	0	0
7.367496	-0.0001842105	-0.02204925	0	0	0.04746116	-0.03417778	0	0
7.384009	-0.0002105263	-0.0220682	-0.001593607	-0.00114759	-0.04825348	-0.03474835	0	0
7.400554	-0.0002105263	-0.0220682	0	0	0.04820545	0.03471376	0	0
7.41712	-0.0002105263	-0.0220682	0	0	0	0	0	0
7.433687	-0.0002105263	-0.0220682	0	0	0	0	0	0
7.450253	-0.0002105263	-0.0220682	0	0	0	0	0	0
7.46682	-0.0002105263	-0.0220682	0	0	0	0	0	0
7.483389	-0.0002105263	-0.0220682	0	0	0	0	0	0
7.537151	-0.0002105263	-0.0220682	0	0	0	0	0	0
7.553719	-0.0002105263	-0.0220682	0	0	0	0	0	0
7.570286	-0.0002105263	-0.0220682	0	0	0	0	0	0
7.586853	-0.0002105263	-0.0220682	0	0	0	0	0	0
7.603662	-0.0002105263	-0.0220682	0	0	0	0	0	0
7.620173	-0.0002105263	-0.0220682	0	0	0	0	0	0
7.636552	-0.0002105263	-0.0220682	0	0	0	0	0	0
7.669686	-0.0002105263	-0.0220682	0	0	0	0	0	0
7.686253	-0.0002105263	-0.0220682	0	0	0	0	0	0
7.702821	-0.0002105263	-0.0220682	0	0	0	0	0	0
7.719386	-0.0002105263	-0.0220682	0	0	0	0	0	0
7.735952	-0.0002105263	-0.0220682	0	0	0	0	0	0
7.752519	-0.0002105263	-0.0220682	0	0	0	0	0	0
7.769279	-0.0002105263	-0.0220682	0	0	0	0	0	0
7.785653	-0.0002105263	-0.0220682	0	0	0	0	0	0
7.802221	-0.0002105263	-0.0220682	0	0	0	0	0	0
7.818786	-0.0002105263	-0.0220682	0	0	0	0	0	0
7.835827	-0.0002105263	-0.0220682	0	0	0	0	0	0
7.851919	-0.0002105263	-0.0220682	0	0	0	0	0	0
7.868849	-0.0002105263	-0.0220682	0	0	0	0	0	0
7.885052	-0.0002105263	-0.0220682	0	0	0	0	0	0
7.90162	-0.0002105263	-0.0220682	0	0	0	0	0	0
7.918186	-0.0002105263	-0.0220682	0	0	0	0	0	0
7.934753	-0.0002105263	-0.0220682	0	0	0	0	0	0
7.951407	-0.0002105263	-0.0220682	0	0	0	0	0	0
7.967919	-0.0002105263	-0.0220682	0	0	0	0	0	0
7.984452	-0.0002105263	-0.0220682	0	0	0	0	0	0
8.001019	-0.0002105263	-0.0220682	0	0	0	0	0	0
8.017586	-0.0002105263	-0.0220682	0	0	0	0	0	0
8.034153	-0.0002105263	-0.0220682	0	0	0	0	0	0
8.050977	-0.0002105263	-0.0220682	0	0	0	0	0	0
8.067492	-0.0001842105	-0.02208715	0.001593469	-0.001147603	0.04779659	-0.03442272	0	0
8.083852	-0.0001842105	-0.02208715	0	0	-0.04847045	0.03490802	0	0
8.100512	-0.0001842105	-0.02208715	0	0	0	0	0	0
8.117023	-0.0001842105	-0.02208715	0	0	0	0	0	0
8.133553	-0.0001842105	-0.02208715	0	0	0	0	0	0
8.150119	-0.0002105263	-0.0221061	-0.001588515	-0.001144036	-0.04799813	-0.03456786	0	0
8.166685	-0.0002105263	-0.0221061	0	0	0.04794425	0.03452906	0	0
8.249518	-0.0002368421	-0.02208715	-0.0003176958	0.0002288019	-0.003196148	0.00230184	0	0
8.266129	-0.0002368421	-0.02208715	0	0	0.003194738	-0.002300825	0	0
8.282652	-0.0002368421	-0.02208715	0	0	0	0	0	0
8.299218	-0.0002368421	-0.02208715	0	0	0	0	0	0
8.315786	-0.0002368421	-0.02208715	0	0	0	0	0	0
8.332352	-0.0002368421	-0.02208715	0	0	0	0	0	0
8.348918	-0.0002105263	-0.0221061	0.001588515	-0.001144036	0.04794563	-0.03453005	0	0
8.365484	-0.0002368421	-0.02208715	-0.001588515	0.001144036	-0.0958885	0.06905811	0	0
8.384955	-0.0002368421	-0.02208715	0	0	0.04407958	-0.03174575	0	0
8.401523	-0.0002368421	-0.02208715	0	0	0	0	0	0
8.418238	-0.0002368421	-0.02208715	0	0	0	0	0	0
8.434747	-0.0002368421	-0.02208715	0	0	0	0	0	0
8.484359	-0.0002368421	-0.02208715	0	0	0	0	0	0
8.500923	-0.0002368421	-0.02208715	0	0	0	0	0	0
8.517489	-0.0002368421	-0.02208715	0	0	0	0	0	0
8.534056	-0.0002368421	-0.02208715	0	0	0	0	0	0
8.550622	-0.0002368421	-0.02208715	0	0	0	0	0	0
8.567339	-0.0002368421	-0.02208715	0	0	0	0	0	0
8.583755	-0.0002368421	-0.02208715	0	0	0	0	0	0
8.600364	-0.0002368421	-0.02208715	0	0	0	0	0	0
8.616889	-0.0002368421	-0.02208715	0	0	0	0	0	0
8.633455	-0.0002368421	-0.02208715	0	0	0	0	0	0
8.650023	-0.0002368421	-0.02208715	0	0	0	0	0	0
8.666909	-0.0002368421	-0.02208715	0	0	0	0	0	0
8.683155	-0.0002368421	-0.02208715	0	0	0	0	0	0
8.699721	-0.0002368421	-0.02208715	0	0	0	0	0	0
8.716288	-0.0002368421	-0.02208715	0	0	0	0	0	0
8.73296	-0.0002105263	-0.0221061	0.001578429	-0.001136772	0.04748811	-0.03420055	0	0
8.749423	-0.0002105263	-0.0221061	0	0	-0.04763572	0.03430686	0	0
8.765989	-0.0002105263	-0.0221061	0	0	0	0	0	0
8.782555	-0.0002105263	-0.0221061	0	0	0	0	0	0
8.799504	-0.0002105263	-0.0221061	0	0	0	0	0	0
8.815689	-0.0002105263	-0.0221061	0	0	0	0	0	0
8.832531	-0.0002105263	-0.0221061	0	0	0	0	0	0
8.848824	-0.0002105263	-0.0221061	0	0	0	0	0	0
8.865389	-0.0002105263	-0.0221061	0	0	0	0	0	0
8.881955	-0.0002105263	-0.0221061	0	0	0	0	0	0
8.898574	-0.0002105263	-0.0221061	0	0	0	0	0	0
8.915089	-0.0002105263	-0.0221061	0	0	0	0	0	0
8.964788	-0.0002105263	-0.0221061	0	0	0	0	0	0
8.981355	-0.0002105263	-0.0221061	0	0	0	0	0	0
8.998144	-0.0002105263	-0.0221061	0	0	0	0	0	0
9.014489	-0.0002105263	-0.0221061	0	0	0	0	0	0
9.031166	-0.0002368421	-0.02212506	-0.001577978	-0.001136447	-0.04778576	-0.03441492	0	0
9.04818	-0.0002368421	-0.02212506	0	0	0.04683754	0.03373202	0	0
9.064188	-0.0002368421	-0.02212506	0	0	0	0	0	0
9.080757	-0.0002368421	-0.02212506	0	0	0	0	0	0
9.097323	-0.0002368421	-0.02212506	0	0	0	0	0	0
9.113891	-0.0002368421	-0.02212506	0	0	0	0	0	0
9.130458	-0.0002368421	-0.02212506	0	0	0	0	0	0
9.147024	-0.0002368421	-0.02212506	0	0	0	0	0	0
9.167188	-0.0002368421	-0.02212506	0	0	0	0	0	0
9.183756	-0.0002368421	-0.02212506	0	0	0	0	0	0
9.200322	-0.0002368421	-0.02212506	0	0	0	0	0	0
9.216889	-0.0002368421	-0.02212506	0	0	0	0	0	0
9.233456	-0.0002368421	-0.02208715	0	0.002288072	0	0.06905613	0	0
9.250023	-0.0002105263	-0.0221061	0.001588424	-0.00114397	0.04794011	-0.1035822	0	0
9.26659	-0.0002105263	-0.0221061	0	0	-0.04793873	0.03452508	0	0
9.283155	-0.0002105263	-0.0221061	0	0	0	0	0	0
9.299856	-0.0001842105	-0.02212506	0.001575725	-0.001134824	0.04736735	-0.03411357	0	0
9.316289	-0.0001842105	-0.02212506	0	0	-0.04755685	0.03425005	0	0
9.399122	0.02512629	-0.04060168	0.3055595	-0.223058	3.078187	-2.247072	0	0
9.415689	0.04381405	-0.05591354	1.127995	-0.9242254	8.273959	-7.053962	0	0
9.432449	0.05767281	-0.07804035	0.8269016	-1.320225	-9.034501	-11.88222	0	0
9.448822	0.06291685	-0.09886685	0.320292	-1.272028	-15.29039	1.454691	0	0
9.46539	0.06697861	-0.1281762	0.2451541	-1.769014	-2.280994	-15.08722	0	0
9.481958	0.0677907	-0.1353352	0.04901509	-0.4320956	-5.919147	40.34595	0	0
9.498523	0.07475517	-0.1727202	0.4204487	-2.256948	11.21053	-55.07734	0	0
9.515091	0.07640362	-0.177763	0.09949481	-0.3043669	-9.686965	58.93242	0	0
9.531659	0.08510969	-0.1945	0.5254692	-1.010193	12.85519	-21.30064	0	0
9.548533	0.0981051	-0.2042908	0.7701295	-0.5802152	7.315851	12.85722	0	0
9.56479	0.1069066	-0.2110608	0.5414224	-0.4164549	-6.90319	4.942865	0	0
9.581357	0.1151982	-0.2175863	0.5004812	-0.3938791	-1.247311	0.6877915	0	0
9.598072	0.1251063	-0.2254276	0.5927658	-0.4691146	2.772785	-2.260526	0	0
9.614489	0.1322757	-0.2311323	0.4367176	-0.3474979	-4.709952	3.670718	0	0
9.631093	0.1369789	-0.2348892	0.2832485	-0.2262614	-4.647623	3.671498	0	0
9.647624	0.1466759	-0.2426731	0.5865919	-0.4708656	9.154657	-7.381957	0	0
9.66419	0.1503309	-0.2456207	0.2206308	-0.1779259	-11.05714	8.850874	0	0
9.680758	0.1558058	-0.2500502	0.330468	-0.2673708	3.314989	-2.699531	0	0
9.73809	0.1588862	-0.2525085	0.0537283	-0.04287733	-3.744823	3.037831	0	0
9.754659	0.1588862	-0.2525085	0	0	-0.727029	0.5801982	0	0
9.771227	0.1588862	-0.2525085	0	0	0	0	0	0
9.787794	0.1588862	-0.2525085	0	0	0	0	0	0
9.804358	0.1588862	-0.2525085	0	0	0	0	0	0
9.820925	0.1588862	-0.2525085	0	0	0	0	0	0
9.837491	0.1588862	-0.2525085	0	0	0	0	0	0
9.854058	0.1588862	-0.2525085	0	0	0	0	0	0
9.870625	0.1588605	-0.2524876	-0.001548918	0.001259283	-0.04674777	0.03800632	0	0
9.887194	0.1588349	-0.2524668	-0.001547751	0.001257267	3.521401E-05	-6.084368E-05	0	0
9.903784	0.1588349	-0.2524668	0	0	0.04667629	-0.03791601	0	0
9.920325	0.1588092	-0.252446	-0.00155124	0.001259369	-0.04682054	0.0380111	0	0
9.936892	0.1587836	-0.2524251	-0.001548918	0.001259283	7.012819E-05	-2.598513E-06	0	0
9.953458	0.1587579	-0.2524043	-0.001548918	0.001257484	0	-5.429603E-05	0	0
9.99085	0.1587066	-0.2523626	-0.001372453	0.001115018	0.00327036	-0.002640259	0	0
10.00738	0.1586809	-0.2523417	-0.001552672	0.001262335	-0.003342414	0.00273219	0	0
10.02394	0.1586553	-0.2523209	-0.001548918	0.001257484	0.000113441	-0.0001465899	0	0
10.04051	0.1586553	-0.2523209	0	0	0.04674777	-0.03795203	0	0
10.05708	0.1586553	-0.2523209	0	0	0	0	0	0
10.07364	0.1586553	-0.2523209	0	0	0	0	0	0
10.09021	0.1586553	-0.2523209	0	0	0	0	0	0
10.10678	0.1586553	-0.2523209	0	0	0	0	0	0
10.12334	0.1586553	-0.2523209	0	0	0	0	0	0
10.13991	0.1586553	-0.2523209	0	0	0	0	0	0
10.15647	0.1586553	-0.2523209	0	0	0	0	0	0
10.17304	0.1586553	-0.2523209	0	0	0	0	0	0
10.18961	0.1586553	-0.2523209	0	0	0	0	0	0
10.20617	0.1586553	-0.2523209	0	0	0	0	0	0
10.22274	0.1586296	-0.2523001	-0.001548918	0.001257484	-0.04674777	0.03795203	0	0
10.23931	0.1586296	-0.2523001	0	0	0.04674912	-0.03795312	0	0
10.25587	0.1586296	-0.2523001	0	0	0	0	0	0
10.27244	0.158604	-0.2522792	-0.001547929	0.00125921	-0.04671794	0.03800413	0	0
10.28901	0.158604	-0.2522792	0	0	0.04671794	-0.03800413	0	0
10.30558	0.1585783	-0.2522584	-0.001548739	0.001257339	-0.04674105	0.03794657	0	0
10.32214	0.1585526	-0.2522375	-0.001549007	0.001257556	-8.074075E-06	6.55272E-06	0	0
10.33871	0.158527	-0.2522167	-0.001548918	0.001259283	2.691513E-06	5.211205E-05	0	0
10.3556	0.158527	-0.2522167	0	0	0.04628945	-0.0376337	0	0
10.37184	0.158527	-0.2522167	0	0	0	0	0	0
10.38841	0.1585013	-0.2521958	-0.001548918	0.001257484	-0.04721664	0.03833267	0	0
10.40498	0.1585013	-0.2521958	0	0	0.04674508	-0.03794984	0	0
10.42165	0.1585013	-0.2521958	0	0	0	0	0	0
10.43816	0.1585013	-0.2521958	0	0	0	0	0	0
10.45467	0.1585013	-0.2521958	0	0	0	0	0	0
10.47124	0.1584756	-0.2522167	-0.001549639	-0.001257339	-0.04684369	-0.03800783	0	0
10.48781	0.1584243	-0.252175	-0.003097657	0.002516621	-0.04671794	0.1138951	0	0
10.50437	0.158373	-0.2521333	-0.003098192	0.002515257	-1.614908E-05	-4.118085E-05	0	0
10.52094	0.1570383	-0.2510082	-0.08056531	0.06791671	-2.338232	1.974047	0	0
10.53751	0.1542645	-0.2487599	-0.167436	0.1357174	-2.621915	2.046346	0	0
10.55424	0.1432231	-0.2397713	-0.6597769	0.5371081	-14.78441	12.05328	0	0
10.57075	0.130905	-0.2296273	-0.7460139	0.6143439	-2.593827	2.323092	0	0
10.58726	0.1113792	-0.2134313	-1.182525	0.9808654	-13.21807	11.0987	0	0
10.60378	0.09440278	-0.199979	-1.027897	0.8145183	4.681787	-5.036599	0	0
10.62034	0.06907415	-0.1802181	-1.529367	1.193178	-15.16059	11.44775	0	0
10.63691	0.04948588	-0.165187	-1.182554	0.9074411	10.46955	-8.625801	0	0
10.67254	0.01202574	-0.136817	-1.051218	0.7961265	2.516052	-2.132489	0	0
10.68934	-0.005631519	-0.123592	-1.05133	0.7874318	-0.002139531	-0.1658341	0	0
10.70585	-0.02723011	-0.1075443	-1.308061	0.9718824	-7.707992	5.537881	0	0
10.72236	-0.04139739	-0.09703754	-0.8578051	0.6361675	13.63269	-10.16466	0	0
10.73881	-0.05769904	-0.08498399	-0.9913312	0.7329967	-4.051163	2.937786	0	0
10.75537	-0.06784309	-0.07749952	-0.6123309	0.4517893	11.48121	-8.518731	0	0
10.7724	-0.07896703	-0.06930352	-0.6531693	0.4812483	-1.215536	0.8768371	0	0
10.78851	-0.08555381	-0.0644551	-0.4090218	0.3010741	7.368385	-5.437669	0	0
10.80542	-0.09135031	-0.06019073	-0.3427934	0.2521863	2.006109	-1.480849	0	0
10.82164	-0.09179394	-0.05986444	-0.0273426	0.02011054	9.520326	-7.004061	0	0
10.83821	-0.09171566	-0.05992202	0.004726002	-0.00347602	0.9780225	-0.7193387	0	0
10.85495	-0.09163737	-0.05994121	0.004675309	-0.001146136	-0.001521867	0.06994563	0	0
10.87146	-0.09150689	-0.05984525	0.007902299	0.005811881	0.09703327	0.2092226	0	0
10.88791	-0.0914286	-0.05978767	0.00476099	0.003501421	-0.09532068	-0.07010918	0	0
10.90449	-0.09124592	-0.05965333	0.01101775	0.00810211	0.1894566	0.1393102	0	0
10.92104	-0.09114153	-0.05961495	0.00630608	0.00231859	-0.1421986	-0.174547	0	0
10.93801	-0.09108934	-0.05961495	0.003075563	0	-0.09636559	-0.06916302	0	0
10.97074	-0.09093274	-0.0597301	0.004784613	-0.003518118	0.03438814	-0.07078874	0	0
10.98731	-0.09088055	-0.05969172	0.003150274	0.002316722	-0.03315333	0.1183624	0	0
11.00388	-0.09046295	-0.05938467	0.02520669	0.0185331	0.665664	0.4894113	0	0
11.02044	-0.08941881	-0.05865558	0.06303526	0.04401587	1.141767	0.769138	0	0
11.03708	-0.08905331	-0.05838701	0.02196275	0.0161383	-1.236901	-0.8395347	0	0
11.05359	-0.08746052	-0.05740887	0.09646878	0.05924175	2.247367	1.300154	0	0
11.07014	-0.0872516	-0.05760064	0.01262508	-0.01158841	-2.536175	-2.14253	0	0
11.08671	-0.08722548	-0.05761982	0.001576352	-0.001157641	-0.3336528	0.3149915	0	0
11.11984	-0.08714713	-0.05748558	0.002364753	0.00405163	0.01586357	0.1048168	0	0
11.13641	-0.08672925	-0.05717877	0.02522043	0.0185168	0.459857	0.2910399	0	0
11.15297	-0.08521419	-0.05606687	0.09146504	0.06712592	1.999324	1.467068	0	0
11.16968	-0.0772146	-0.05020767	0.4789414	0.3507944	11.64746	8.527017	0	0
11.18611	-0.0671096	-0.04290963	0.6150014	0.4441669	4.106418	2.818069	0	0
11.2027	-0.06472525	-0.04117373	0.1437128	0.1046285	-14.27199	-10.28221	0	0
11.21924	-0.0562039	-0.03502033	0.5151206	0.371977	11.20943	8.068824	0	0
11.23581	-0.04843577	-0.02935421	0.4688314	0.341968	-1.397976	-0.9062995	0	0
11.25237	-0.0394532	-0.02282637	0.5422826	0.3940898	2.216825	1.573085	0	0
11.26925	-0.03301432	-0.01818545	0.3816438	0.275075	-4.804392	-3.5595	0	0
11.28551	-0.0248107	-0.01228518	0.5044342	0.3628033	3.705823	2.647644	0	0
11.30207	-0.02275923	-0.01084957	0.1238341	0.08665833	-11.59331	-8.411543	0	0
11.31864	-0.01484102	-0.005245451	0.4779717	0.338285	10.68851	7.594544	0	0
11.33521	-0.01463053	-0.005207745	0.01270318	0.002275676	-14.04143	-10.14049	0	0
11.35178	-0.01449898	-0.005302011	0.007941359	-0.005690515	-0.1437121	-0.2404201	0	0
11.36834	-0.01365705	-0.006056228	0.05082533	-0.04552988	1.29439	-1.202493	0	0
11.38491	-0.01220992	-0.007131287	0.08734871	-0.0648907	1.102341	-0.5843443	0	0
11.42065	-0.01071012	-0.008395405	0.04196326	-0.03536901	-0.8676565	0.5643809	0	0
11.43737	-0.01084168	-0.008489762	-0.007868758	-0.005643419	-0.949893	0.5666263	0	0
11.45378	-0.01102587	-0.008659611	-0.01122165	-0.01034801	-0.1011932	-0.1419889	0	0
11.47039	-0.01149949	-0.008999337	-0.02852233	-0.02045874	-0.5239605	-0.3062087	0	0
11.48692	-0.01165737	-0.009112585	-0.009550132	-0.006850698	0.5725492	0.4106678	0	0
11.50348	-0.0119468	-0.00932022	-0.01747327	-0.01253502	-0.2394032	-0.1717558	0	0
11.52005	-0.01244673	-0.009678893	-0.0301773	-0.02165078	-0.3834528	-0.2751459	0	0
11.53662	-0.01278878	-0.009924323	-0.02064502	-0.01481336	0.2876848	0.2063537	0	0
11.55346	-0.0128414	-0.009924323	-0.003125265	0	0.5244454	0.4434308	0	0
11.56975	-0.0128414	-0.009962083	0	-0.002317457	0.09432884	-0.06994703	0	0
11.58647	-0.01292033	-0.01001872	-0.00472073	-0.003387474	-0.1429905	-0.03241071	0	0
11.60298	-0.01305189	-0.01011313	-0.007966463	-0.005716692	-0.09766126	-0.07008414	0	0
11.61945	-0.01349918	-0.01043412	-0.02716417	-0.01949415	-0.5821022	-0.4177522	0	0
11.63602	-0.01476209	-0.01134063	-0.07623354	-0.05472011	-1.485491	-1.066406	0	0
11.65303	-0.0147884	-0.01135952	-0.001546666	-0.00111037	2.224349	1.596622	0	0
11.66915	-0.0147884	-0.01135952	0	0	0.04667849	0.03351102	0	0
11.68604	-0.0147884	-0.01135952	0	0	0	0	0	0
11.70228	-0.0147884	-0.01135952	0	0	0	0	0	0
11.73558	-0.0147884	-0.0113973	0	-0.001134698	0	-0.02290665	0	0
11.75199	-0.0147884	-0.0113973	0	0	0	0.02282973	0	0
11.76855	-0.0147884	-0.0113973	0	0	0	0	0	0
11.78512	-0.0147884	-0.0113973	0	0	0	0	0	0
11.80168	-0.01476209	-0.01141618	0.001588066	-0.001140091	0.04792932	-0.03440901	0	0
11.81825	-0.0147884	-0.0113973	-0.001588249	0.001140222	-0.09586692	0.06882396	0	0
11.83482	-0.0147884	-0.0113973	0	0	0.0479376	-0.03441495	0	0
11.85166	-0.0147884	-0.0113973	0	0	0	0	0	0
11.86817	-0.0147884	-0.0113973	0	0	0	0	0	0
11.88452	-0.01476209	-0.01141618	0.001609468	-0.001155456	0.04898695	-0.0351683	0	0
11.90108	-0.01476209	-0.01141618	0	0	-0.04890037	0.03510614	0	0
11.91771	-0.01476209	-0.01141618	0	0	0	0	0	0
11.93422	-0.01476209	-0.01141618	0	0	0	0	0	0
11.95078	-0.01476209	-0.01141618	0	0	0	0	0	0
12.03379	-0.01476209	-0.01141618	0	0	0	0	0	0
12.0503	-0.01476209	-0.01141618	0	0	0	0	0	0
12.06675	-0.01476209	-0.01141618	0	0	0	0	0	0
12.08332	-0.01476209	-0.01141618	0	0	0	0	0	0
12.09988	-0.01476209	-0.01141618	0	0	0	0	0	0
12.11645	-0.01476209	-0.01141618	0	0	0	0	0	0
12.13302	-0.01476209	-0.01141618	0	0	0	0	0	0
12.14987	-0.01476209	-0.01141618	0	0	0	0	0	0
12.16615	-0.01476209	-0.01141618	0	0	0	0	0	0
12.18589	-0.01476209	-0.01141618	0	0	0	0	0	0
12.20245	-0.01476209	-0.01141618	0	0	0	0	0	0
12.21902	-0.01476209	-0.01141618	0	0	0	0	0	0
12.23559	-0.01476209	-0.01141618	0	0	0	0	0	0
12.25216	-0.01476209	-0.01141618	0	0	0	0	0	0
12.26872	-0.01476209	-0.01141618	0	0	0	0	0	0
12.28529	-0.01476209	-0.01141618	0	0	0	0	0	0
12.30197	-0.01476209	-0.01141618	0	0	0	0	0	0
12.31842	-0.01476209	-0.01141618	0	0	0	0	0	0
12.33499	-0.01476209	-0.01141618	0	0	0	0	0	0
12.35201	-0.01476209	-0.01141618	0	0	0	0	0	0
12.36812	-0.01476209	-0.01141618	0	0	0	0	0	0
12.38469	-0.01476209	-0.01141618	0	0	0	0	0	0
12.40155	-0.01476209	-0.01141618	0	0	0	0	0	0
12.41782	-0.01476209	-0.01141618	0	0	0	0	0	0
12.43458	-0.01476209	-0.01141618	0	0	0	0	0	0
12.45096	-0.01476209	-0.01141618	0	0	0	0	0	0
12.4676	-0.01476209	-0.01141618	0	0	0	0	0	0
12.48461	-0.01476209	-0.01141618	0	0	0	0	0	0
12.50065	-0.01476209	-0.01141618	0	0	0	0	0	0
12.52895	-0.01476209	-0.01141618	0	0	0	0	0	0
12.54565	-0.01476209	-0.01141618	0	0	0	0	0	0
12.56216	-0.01476209	-0.01141618	0	0	0	0	0	0
12.57867	-0.01476209	-0.01141618	0	0	0	0	0	0
12.59522	-0.01476209	-0.01141618	0	0	0	0	0	0
12.61179	-0.01476209	-0.01141618	0	0	0	0	0	0
12.64492	-0.01476209	-0.01141618	0	0	0	0	0	0
12.66149	-0.01476209	-0.01141618	0	0	0	0	0	0
12.67806	-0.01476209	-0.01141618	0	0	0	0	0	0
12.69462	-0.01476209	-0.01141618	0	0	0	0	0	0
12.71119	-0.01476209	-0.01141618	0	0	0	0	0	0
12.72775	-0.01476209	-0.01141618	0	0	0	0	0	0
12.74432	-0.01473578	-0.01143507	0.001588214	-0.001140213	0.04793515	-0.03441368	0	0
12.76089	-0.01473578	-0.01143507	0	0	-0.04793378	0.03441269	0	0
12.77746	-0.01473578	-0.01143507	0	0	0	0	0	0
12.79402	-0.01473578	-0.01143507	0	0	0	0	0	0
12.81083	-0.01473578	-0.01143507	0	0	0	0	0	0
12.82716	-0.01473578	-0.01143507	0	0	0	0	0	0
12.87688	-0.01473578	-0.01143507	0	0	0	0	0	0
12.89708	-0.01473578	-0.01143507	0	0	0	0	0	0
12.91364	-0.01473578	-0.01143507	0	0	0	0	0	0
12.93021	-0.01473578	-0.01143507	0	0	0	0	0	0
12.94678	-0.01473578	-0.01143507	0	0	0	0	0	0
12.96344	-0.01473578	-0.01143507	0	0	0	0	0	0
12.98046	-0.01473578	-0.01143507	0	0	0	0	0	0
12.99648	-0.01473578	-0.01143507	0	0	0	0	0	0
13.01304	-0.01473578	-0.01143507	0	0	0	0	0	0
13.02961	-0.01473578	-0.01143507	0	0	0	0	0	0
13.04618	-0.01473578	-0.01143507	0	0	0	0	0	0
13.06274	-0.01473578	-0.01143507	0	0	0	0	0	0
13.07931	-0.01470947	-0.01145396	0.001587975	-0.001140026	0.04792518	-0.03440604	0	0
13.09603	-0.01470947	-0.01145396	0	0	-0.04770003	0.0342444	0	0
13.11255	-0.01470947	-0.01145396	0	0	0	0	0	0
13.12906	-0.01470947	-0.01145396	0	0	0	0	0	0
13.14558	-0.01470947	-0.01145396	0	0	0	0	0	0
13.16214	-0.01470947	-0.01145396	0	0	0	0	0	0
13.17871	-0.01470947	-0.01145396	0	0	0	0	0	0
13.19528	-0.01470947	-0.01145396	0	0	0	0	0	0
13.21184	-0.01470947	-0.01145396	0	0	0	0	0	0
13.22841	-0.01470947	-0.01145396	0	0	0	0	0	0
13.24498	-0.01470947	-0.01145396	0	0	0	0	0	0
13.26165	-0.01470947	-0.01145396	0	0	0	0	0	0
13.27817	-0.01470947	-0.01145396	0	0	0	0	0	0
13.29468	-0.01470947	-0.01145396	0	0	0	0	0	0
13.31124	-0.01470947	-0.01145396	0	0	0	0	0	0
13.32781	-0.01470947	-0.01145396	0	0	0	0	0	0
13.34471	-0.01470947	-0.01145396	0	0	0	0	0	0
13.36094	-0.01470947	-0.01145396	0	0	0	0	0	0
13.37751	-0.01470947	-0.01145396	0	0	0	0	0	0
13.39408	-0.01470947	-0.01145396	0	0	0	0	0	0
13.41064	-0.01470947	-0.01145396	0	0	0	0	0	0
13.42721	-0.01470947	-0.01145396	0	0	0	0	0	0
13.44378	-0.01470947	-0.01145396	0	0	0	0	0	0
13.46034	-0.01470947	-0.01145396	0	0	0	0	0	0
13.47691	-0.01470947	-0.01145396	0	0	0	0	0	0
13.49348	-0.01470947	-0.01145396	0	0	0	0	0	0
13.51004	-0.01468316	-0.01147285	0.001588158	-0.001140213	0.04793346	-0.03441368	0	0
13.52661	-0.01468316	-0.01147285	0	0	-0.04793484	0.03441467	0	0
13.54661	-0.01468316	-0.01147285	0	0	0	0	0	0
13.56318	-0.01468316	-0.01147285	0	0	0	0	0	0
13.57988	-0.01468316	-0.01147285	0	0	0	0	0	0
13.59639	-0.01468316	-0.01147285	0	0	0	0	0	0
13.61288	-0.01468316	-0.01147285	0	0	0	0	0	0
13.62945	-0.01468316	-0.01147285	0	0	0	0	0	0
13.64602	-0.01468316	-0.01147285	0	0	0	0	0	0
13.66258	-0.01468316	-0.01147285	0	0	0	0	0	0
13.67915	-0.01468316	-0.01147285	0	0	0	0	0	0
13.69571	-0.01465685	-0.01149174	0.001588066	-0.001140147	0.04793208	-0.03441269	0	0
13.71228	-0.01465685	-0.01149174	0	0	-0.04792794	0.03440972	0	0
13.72899	-0.01465685	-0.01149174	0	0	0	0	0	0
13.74541	-0.01465685	-0.01149174	0	0	0	0	0	0
13.76201	-0.01465685	-0.01149174	0	0	0	0	0	0
13.81823	-0.01465685	-0.01149174	0	0	0	0	0	0
13.8348	-0.01465685	-0.01149174	0	0	0	0	0	0
13.85136	-0.01465685	-0.01149174	0	0	0	0	0	0
13.86808	-0.01463053	-0.01151063	0.001574078	-0.001130064	0.04729614	-0.03395491	0	0
13.8845	-0.01463053	-0.01151063	0	0	-0.04750714	0.0341064	0	0
13.90107	-0.01463053	-0.01151063	0	0	0	0	0	0
13.91763	-0.01463053	-0.01151063	0	0	0	0	0	0
13.9342	-0.01463053	-0.01151063	0	0	0	0	0	0
13.95114	-0.01463053	-0.01151063	0	0	0	0	0	0
13.96733	-0.01463053	-0.01151063	0	0	0	0	0	0
13.9839	-0.01460422	-0.01152952	0.001588341	-0.001140344	0.04848464	-0.0348094	0	0
14.00047	-0.01460422	-0.01152952	0	0	-0.0479376	0.03441665	0	0
14.01703	-0.0145516	-0.0115673	0.003176372	-0.002280482	0.09586034	-0.06882311	0	0
14.0336	-0.01452529	-0.01158619	0.001588341	-0.001140401	-0.0479324	0.0344117	0	0
14.05016	-0.01444636	-0.01164286	0.004764256	-0.003420555	0.09585758	-0.06882112	0	0
14.06673	-0.01392015	-0.01202068	0.03176029	-0.02280405	0.8147184	-0.5849783	0	0
14.0833	-0.01073643	-0.01430745	0.1921921	-0.1380455	4.841981	-3.478095	0	0
14.09986	-0.005842039	-0.01782583	0.295426	-0.21237	3.115784	-2.243247	0	0
14.11643	-0.0004736842	-0.02168918	0.3240159	-0.2331792	0.8628202	-0.6280027	0	0
14.13326	0.00210526	-0.02354679	0.1532222	-0.1103658	-5.113647	3.677093	0	0
14.1828	0.007473545	-0.0274172	0.108374	-0.07813512	-0.6757688	0.4856489	0	0
14.19931	0.007473545	-0.0274172	0	0	-1.640845	1.183011	0	0
14.21583	0.007473545	-0.0274172	0	0	0	0	0	0
14.2324	0.007473545	-0.0274172	0	0	0	0	0	0
14.24896	0.007473545	-0.0274172	0	0	0	0	0	0
14.26553	0.007447231	-0.02739822	-0.001588347	0.001145881	-0.0479378	0.03458376	0	0
14.28237	0.007394602	-0.02736025	-0.003125393	0.002254772	-0.0460107	0.03319409	0	0
14.29867	0.007368288	-0.02734127	-0.001614935	0.001165062	0.04558702	-0.03288844	0	0
14.3154	0.007236716	-0.02724635	-0.007863821	0.005673124	-0.1892126	0.1365015	0	0
14.35147	0.007078829	-0.02713245	-0.004376203	0.003156926	0.06604122	-0.0476465	0	0
14.36804	0.0070262	-0.02709448	-0.003176512	0.002291518	0.02278761	-0.01643805	0	0
14.38494	0.006973571	-0.02705652	-0.003113781	0.002246154	0.001874233	-0.001355351	0	0
14.40147	0.006973571	-0.02705652	0	0	0.09313773	-0.06718575	0	0
14.41797	0.006973571	-0.02705652	0	0	0	0	0	0
14.43431	0.006947257	-0.02703754	-0.001611069	0.001162159	-0.04907128	0.03539801	0	0
14.45087	0.006947257	-0.02703754	0	0	0.04896745	-0.03532311	0	0
14.46744	0.006920942	-0.02701856	-0.001588347	0.001145656	-0.04793642	0.03457598	0	0
14.48401	0.006894628	-0.02699957	-0.001588073	0.001145571	8.273393E-06	-2.578629E-06	0	0
14.50057	0.006894628	-0.02699957	0	0	0.04793091	-0.03457539	0	0
14.51714	0.006894628	-0.02699957	0	0	0	0	0	0
14.53371	0.006894628	-0.02699957	0	0	0	0	0	0
14.55027	0.006894628	-0.02699957	0	0	0	0	0	0
14.56684	0.006894628	-0.02699957	0	0	0	0	0	0
14.58345	0.006894628	-0.02699957	0	0	0	0	0	0
14.59997	0.006868313	-0.02698059	-0.001592565	0.001148811	-0.04806646	0.03467318	0	0
14.64967	0.006841999	-0.02696161	-0.0005294695	0.0003819376	0.01605322	-0.01158014	0	0
14.66624	0.006815684	-0.02694263	-0.001588347	0.001145656	-0.01597896	0.01152487	0	0
14.68281	0.006815684	-0.02694263	0	0	0.0479378	-0.03457697	0	0
14.69937	0.006815684	-0.02694263	0	0	0	0	0	0
14.71594	0.006815684	-0.02694263	0	0	0	0	0	0
14.7325	0.006815684	-0.02694263	0	0	0	0	0	0
14.74907	0.006815684	-0.02694263	0	0	0	0	0	0
14.76571	0.006763055	-0.0268667	-0.003163039	0.00456315	-0.09525783	0.1374234	0	0
14.78222	0.006710425	-0.02682874	-0.003187549	0.002299234	-0.0007393682	-0.06829367	0	0
14.79877	0.00639465	-0.02648711	-0.01907893	0.02064134	-0.4806541	0.5547794	0	0
14.81534	0.006052558	-0.02608858	-0.0206499	0.02405657	-0.04743676	0.1031253	0	0
14.8319	0.006105187	-0.02586087	0.003176906	0.01374518	0.7191359	-0.3112163	0	0
14.84847	0.006184132	-0.0256901	0.004765099	0.01030765	0.04793313	-0.103748	0	0
14.86504	0.006368335	-0.02532962	0.01111852	0.0217587	0.1917465	0.3455936	0	0
14.88179	0.006894628	-0.02449498	0.03141625	0.0498227	0.6091854	0.8422701	0	0
14.89817	0.008184028	-0.02307281	0.07871647	0.08682184	1.427606	1.116701	0	0
14.93133	0.01502519	-0.01118953	0.20633	0.3584009	2.57614	5.482381	0	0
14.94787	0.01760344	-0.0008932944	0.1558483	0.6223775	-1.015732	5.311423	0	0
14.96444	0.01941861	0.01092879	0.1095701	0.7136233	-1.397725	2.755867	0	0
14.981	0.02231209	0.02964103	0.1746504	1.129473	1.964185	12.55074	0	0
14.99757	0.0247055	0.03912828	0.1444667	0.5726518	-0.9109464	-16.8049	0	0
15.01414	0.02667788	0.04483879	0.1190532	0.3446865	-0.7669827	-6.880005	0	0
15.03071	0.03459146	0.05295268	0.4776645	0.4897554	10.82291	4.378188	0	0
15.04727	0.04121349	0.05754983	0.3997757	0.2775327	-2.350894	-6.405448	0	0
15.06384	0.04699169	0.06158647	0.3487932	0.243666	-1.53883	-1.022215	0	0
15.08043	0.05127082	0.06460204	0.2578579	0.1817168	-2.742224	-1.868125	0	0
15.09978	0.05680723	0.0685023	0.2862178	0.2016328	0.7891288	0.5541721	0	0
15.11634	0.05869566	0.06983235	0.1139855	0.08028185	-4.796139	-3.379252	0	0
15.13291	0.06116047	0.07156815	0.148759	0.104761	1.049406	0.738739	0	0
15.14948	0.06194695	0.07212198	0.04747245	0.03342933	-3.056659	-2.152669	0	0
15.16604	0.06194695	0.07212198	0	0	-1.432845	-1.008986	0	0
15.18261	0.06192074	0.07217735	-0.001582333	0.003342304	-0.04775902	0.1008796	0	0
15.19918	0.06189452	0.07223273	-0.001582424	0.003342946	-2.751088E-06	1.938059E-05	0	0
15.21574	0.06176345	0.07232503	-0.007912343	0.005571426	-0.1910484	0.06725955	0	0
15.23231	0.06042635	0.07326631	-0.08069821	0.05680947	-2.196619	1.546323	0	0
15.24888	0.05830227	0.07476087	-0.1282242	0.09022201	-1.434336	1.008392	0	0
15.26556	0.05502335	0.07706624	-0.1965134	0.1381664	-2.053762	1.441901	0	0
15.28201	0.05504959	0.0770478	0.001595252	-0.001121184	5.979277	-4.203949	0	0
15.29858	0.05504959	0.0770478	0	0	-0.04830888	0.03395271	0	0
15.31514	0.05499712	0.07708468	-0.00316878	0.002226808	-0.09563673	0.06720712	0	0
15.33171	0.0544199	0.07749029	-0.03483899	0.02448169	-0.9560291	0.6718082	0	0
15.34828	0.05371145	0.07798804	-0.04276703	0.03004732	-0.2392755	0.1679759	0	0
15.36484	0.04047788	0.08723189	-0.7988257	0.5579922	-22.81987	15.93478	0	0
15.38166	0.03467031	0.09129519	-0.345298	0.2415899	13.58466	-9.477301	0	0
15.39816	0.02865005	0.09550168	-0.3650225	0.2550492	-0.5921164	0.404038	0	0
15.41467	0.01328869	0.1062116	-0.930266	0.6485806	-17.12563	11.92313	0	0
15.43118	0.001210526	0.1146121	-0.731355	0.5086647	6.022559	-4.236324	0	0
15.44769	-0.00449997	0.1185785	-0.3459607	0.2402985	11.6712	-8.127146	0	0
15.46424	-0.01531459	0.1260823	-0.6532607	0.4532686	-9.294931	6.441726	0	0
15.48122	-0.0244162	0.1323908	-0.5360439	0.3715448	3.495455	-2.437037	0	0
15.51425	-0.0314633	0.137272	-0.2133697	0.1477905	6.452598	-4.474472	0	0
15.53051	-0.0395583	0.1428763	-0.497843	0.3446628	-5.771677	3.99434	0	0
15.54726	-0.04289472	0.1451855	-0.1991516	0.1378357	9.047596	-6.264954	0	0
15.56364	-0.04693918	0.1479843	-0.2469095	0.1708661	-1.441379	0.9968901	0	0
15.58029	-0.05305542	0.1522526	-0.367485	0.2564543	-3.651164	2.591709	0	0
15.59678	-0.05465604	0.15336	-0.09707133	0.06716129	8.16157	-5.713204	0	0
15.61334	-0.0626023	0.1588577	-0.4796653	0.3318624	-11.57436	8.007824	0	0
15.62991	-0.06692621	0.1618494	-0.2609915	0.1805779	6.599776	-4.565904	0	0
15.64648	-0.0702788	0.1642417	-0.2023511	0.1443898	1.769722	-1.092128	0	0
15.66304	-0.0731325	0.1663251	-0.1722694	0.1257709	0.9078915	-0.561936	0	0
15.67986	-0.07493835	0.1679008	-0.1074183	0.09372784	1.943006	-0.9600433	0	0
15.69618	-0.07551403	0.1690959	-0.0352722	0.07322313	2.1775	-0.6188691	0	0
15.71274	-0.07561869	0.1700736	-0.006317552	0.05901359	0.8804161	-0.4320657	0	0
15.72939	-0.0762728	0.173675	-0.03929209	0.2163386	-0.9928019	4.736762	0	0
15.74588	-0.07347277	0.1797694	0.1698217	0.3696263	6.310884	4.626099	0	0
15.76244	-0.06951937	0.1867252	0.238655	0.4198969	2.082489	1.520891	0	0
15.77901	-0.06873366	0.19196	0.04742818	0.3159918	-5.771736	-3.136132	0	0
15.79594	-0.06831458	0.1981286	0.02475983	0.3644495	-0.676827	1.44684	0	0
15.81214	-0.06773831	0.20213	0.03555759	0.2469015	0.3258956	-3.547811	0	0
15.82871	-0.06716199	0.207138	0.03478859	0.3022971	-0.02346444	1.690282	0	0
15.86598	-0.06747635	0.2136184	-0.00843331	0.1738494	-0.8027462	-2.385618	0	0
15.8825	-0.06750255	0.2136364	-0.001586505	0.001090158	0.127292	-3.211843	0	0
15.89901	-0.06750255	0.2136364	0	0	0.04804121	-0.03301126	0	0
15.91558	-0.06752875	0.2136544	-0.001581299	0.001086581	-0.04780488	0.03284886	0	0
15.93214	-0.06758114	0.2136904	-0.003162598	0.002172263	-0.04772645	0.03276782	0	0
15.94871	-0.0677907	0.2138344	-0.01264922	0.00868855	-0.286315	0.1966676	0	0
15.96527	-0.06862889	0.2144461	-0.05059909	0.03693059	-1.145396	0.8523955	0	0
15.98184	-0.07577568	0.2194286	-0.4313563	0.3007253	-11.49161	7.961568	0	0
15.99858	-0.0826011	0.2241926	-0.4078277	0.2846539	0.7064744	-0.4825629	0	0
16.01497	-0.08926217	0.2288463	-0.4062491	0.2838237	0.04764586	-0.02505523	0	0
16.0316	-0.09719279	0.2344493	-0.4769909	0.3369951	-2.142206	1.610136	0	0
16.04812	-0.1007629	0.2369804	-0.2161361	0.1532351	7.870349	-5.544292	0	0
16.06468	-0.1066465	0.2411795	-0.3553405	0.253607	-4.208709	3.034647	0	0
16.08124	-0.1081292	0.242238	-0.08950017	0.06389052	8.025388	-5.727304	0	0
16.09815	-0.1092215	0.2429915	-0.06460472	0.04456492	0.7437255	-0.5773324	0	0
16.11438	-0.1092215	0.2429915	0	0	1.949774	-1.344972	0	0
16.13095	-0.1091695	0.2429556	0.003139031	-0.002165842	0.0957169	-0.06604192	0	0
16.14751	-0.1091695	0.2429556	0	0	-0.09473614	0.06536523	0	0
16.16408	-0.1091695	0.2429556	0	0	0	0	0	0
16.18064	-0.1091695	0.2429556	0	0	0	0	0	0
16.19721	-0.1091695	0.2429556	0	0	0	0	0	0
16.21378	-0.1091435	0.2429377	0.001569696	-0.001083045	0.04737626	-0.03268826	0	0
16.23034	-0.1091175	0.2429197	0.001569516	-0.001082921	-5.456658E-06	3.763091E-06	0	0
16.24726	-0.1090915	0.2429018	0.001537651	-0.001060935	-0.0009518174	0.000656726	0	0
16.26348	-0.1090915	0.2429018	0	0	-0.04640907	0.03202093	0	0
16.28004	-0.1090915	0.2429018	0	0	0	0	0	0
16.29729	-0.1090915	0.2429018	0	0	0	0	0	0
16.31318	-0.1090915	0.2429018	0	0	0	0	0	0
16.32974	-0.1090915	0.2429018	0	0	0	0	0	0
16.34631	-0.1090915	0.2429018	0	0	0	0	0	0
16.36341	-0.1090915	0.2429018	0	0	0	0	0	0
16.37998	-0.1090915	0.2429018	0	0	0	0	0	0
16.39654	-0.1090915	0.2429018	0	0	0	0	0	0
16.41311	-0.1090655	0.2428838	0.001569696	-0.001082146	0.04737626	-0.03266111	0	0
16.42989	-0.1090395	0.2428659	0.001550332	-0.001069378	-0.0005807785	0.0003829318	0	0
16.4464	-0.1090395	0.2428659	0	0	-0.04657196	0.03212411	0	0
16.46281	-0.1090135	0.242848	0.00158429	-0.001093114	0.04811865	-0.03320049	0	0
16.47938	-0.1089875	0.24283	0.001569335	-0.001082796	-0.0004534257	0.0003128493	0	0
16.49594	-0.1089875	0.2427941	0	-0.002166091	-0.04736262	-0.0326939	0	0
16.53614	-0.1089355	0.2427583	0.001294112	-0.0008924017	0.02280094	0.02244111	0	0
16.5527	-0.1089095	0.2427403	0.001569696	-0.001083045	0.004855512	-0.00335895	0	0
16.56948	-0.1089095	0.2427403	0	0	-0.04707006	0.032477	0	0
16.586	-0.1089095	0.2427403	0	0	0	0	0	0
16.60251	-0.1088834	0.2427224	0.001574955	-0.001086674	0.04769422	-0.03290765	0	0
16.61902	-0.1088834	0.2427224	0	0	-0.04769422	0.03290765	0	0
16.63553	-0.1088574	0.2427045	0.001574861	-0.001086297	0.0476831	-0.03289055	0	0
16.6521	-0.1088574	0.2427045	0	0	-0.04760338	0.03283555	0	0
16.66867	-0.1088574	0.2427045	0	0	0	0	0	0
16.68524	-0.1088574	0.2427045	0	0	0	0	0	0
16.70208	-0.1088574	0.2427045	0	0	0	0	0	0
16.71837	-0.1088574	0.2427045	0	0	0	0	0	0
16.73494	-0.1088574	0.2427045	0	0	0	0	0	0
16.75161	-0.1088574	0.2427045	0	0	0	0	0	0
16.76813	-0.1088574	0.2427045	0	0	0	0	0	0
16.78464	-0.1088574	0.2427045	0	0	0	0	0	0
16.8012	-0.1088574	0.2427045	0	0	0	0	0	0
16.81777	-0.1088574	0.2427045	0	0	0	0	0	0
16.83434	-0.1088574	0.2427045	0	0	0	0	0	0
16.85091	-0.1088574	0.2427045	0	0	0	0	0	0
16.86747	-0.1088574	0.2427045	0	0	0	0	0	0
16.88404	-0.1088314	0.2426506	0.001569696	-0.003248237	0.04737898	-0.09804327	0	0
16.90073	-0.1085454	0.2423098	0.01714063	-0.02042321	0.4682335	-0.5164689	0	0
16.91717	-0.107609	0.2414487	0.05694398	-0.0523703	1.201337	-0.9642205	0	0
16.93374	-0.101987	0.2350956	0.3393446	-0.3834709	8.554875	-10.03016	0	0
16.9503	-0.09594138	0.2255404	0.364916	-0.5767516	0.7717466	-5.833223	0	0
16.96687	-0.08670314	0.2076242	0.5576215	-1.081426	5.815864	-15.2311	0	0
16.98344	-0.08189537	0.1901011	0.2901976	-1.057693	-8.070869	0.7162496	0	0
17.00001	-0.07813011	0.1602178	0.2272713	-1.803763	-1.89912	-22.51642	0	0
17.01657	-0.07792086	0.1545943	0.01263033	-0.3394354	-6.477876	44.19349	0	0
17.03314	-0.07658675	0.1296569	0.08053666	-1.5054	2.049535	-35.19091	0	0
17.04971	-0.07640362	0.1205879	0.01105362	-0.5474025	-2.097123	28.91409	0	0
17.06627	-0.07590651	0.09728228	0.03000563	-1.406731	0.5719728	-25.93458	0	0
17.08284	-0.07564486	0.08728707	0.01579319	-0.6033119	-0.4289321	24.24723	0	0
17.09941	-0.07483368	0.06635854	0.04896304	-1.263248	1.001068	-19.91692	0	0
17.11597	-0.07446731	0.05562264	0.02211653	-0.6480948	-0.810276	18.56644	0	0
17.13254	-0.07373451	0.02928641	0.04423201	-1.589658	0.6674849	-28.41808	0	0
17.14911	-0.0732372	0.01509152	0.03001086	-0.8566079	-0.4291456	22.12095	0	0
17.16591	-0.07247809	-0.002098514	0.04517505	-1.022989	0.4543606	-4.985223	0	0
17.18683	-0.07098579	-0.0168418	0.0713408	-0.7048172	0.6936536	8.434721	0	0
17.20344	-0.06970268	-0.02682874	0.07727025	-0.6014279	0.1580207	2.755339	0	0
17.21997	-0.06902176	-0.03321288	0.04119548	-0.3862365	-1.088739	6.494488	0	0
17.23653	-0.06718819	-0.04537214	0.1106747	-0.7339347	2.099304	-10.50565	0	0
17.2531	-0.06511833	-0.05311665	0.124937	-0.4674593	0.4304388	8.042243	0	0
17.26967	-0.0616848	-0.06241816	0.207248	-0.5614402	2.48415	-2.836349	0	0
17.28624	-0.0558891	-0.06662816	0.349829	-0.254116	4.303104	9.275063	0	0
17.3028	-0.04917086	-0.07155742	0.4055607	-0.2975654	1.682082	-1.31138	0	0
17.32003	-0.04746433	-0.07281038	0.09907152	-0.07273947	-9.070254	6.653508	0	0
17.3525	-0.03535368	-0.08171305	0.3729276	-0.2741432	5.510206	-4.052407	0	0
17.36907	-0.02941257	-0.0860881	0.3586064	-0.2640784	-0.2920195	0.2052294	0	0
17.38564	-0.0264675	-0.08825889	0.177744	-0.1310143	-5.458123	4.015652	0	0
17.40258	-0.02367978	-0.0902762	0.1645353	-0.1190643	-0.3941475	0.3565862	0	0
17.41877	-0.0224173	-0.09120777	0.07799061	-0.05754849	-2.612226	1.856765	0	0
17.43534	-0.0224173	-0.09116895	0	0.00234303	-2.381037	1.828475	0	0
17.4519	-0.0224436	-0.09114954	-0.0015878	0.0011721	-0.04792264	-0.03534079	0	0
17.46847	-0.0224436	-0.09114954	0	0	0.04792264	-0.03537608	0	0
17.48515	-0.0224436	-0.09114954	0	0	0	0	0	0
17.5016	-0.0224436	-0.09114954	0	0	0	0	0	0
17.51817	-0.0224699	-0.09116895	-0.001587617	-0.001171965	-0.04807765	-0.03549051	0	0
17.53474	-0.0224699	-0.09116895	0	0	0.04791437	0.03536997	0	0
17.5513	-0.0224699	-0.09116895	0	0	0	0	0	0
17.56787	-0.0224699	-0.09116895	0	0	0	0	0	0
17.58444	-0.0224699	-0.09116895	0	0	0	0	0	0
17.601	-0.0224699	-0.09116895	0	0	0	0	0	0
17.61757	-0.0224699	-0.09113013	0	0.00234348	0	0.07073045	0	0
17.63424	-0.0224962	-0.09111072	-0.001577447	0.001164011	-0.04745446	-0.03548209	0	0
17.6507	-0.0224962	-0.09111072	0	0	0.04761017	-0.03513193	0	0
17.66727	-0.0224962	-0.09111072	0	0	0	0	0	0
17.68384	-0.0224962	-0.09111072	0	0	0	0	0	0
17.7004	-0.0224962	-0.09111072	0	0	0	0	0	0
17.71697	-0.0224962	-0.09111072	0	0	0	0	0	0
17.73354	-0.0224962	-0.09111072	0	0	0	0	0	0
17.7501	-0.0224962	-0.09111072	0	0	0	0	0	0
17.76667	-0.0224962	-0.09111072	0	0	0	0	0	0
17.78385	-0.02252251	-0.09113013	-0.001530866	-0.001129638	-0.04536083	-0.03347212	0	0
17.79986	-0.0224962	-0.09114954	0.001642845	-0.001212268	0.09561765	-0.002489485	0	0
17.81637	-0.0224962	-0.09114954	0	0	-0.05051753	0.03727729	0	0
17.83294	-0.0224962	-0.09114954	0	0	0	0	0	0
17.8499	-0.0224962	-0.09114954	0	0	0	0	0	0
17.90719	-0.0224962	-0.09111072	0	0.0006775497	0	0.009125105	0	0
17.92397	-0.02252251	-0.09113013	-0.001567406	-0.001156602	-0.02116061	-0.02476178	0	0
17.94033	-0.02252251	-0.09113013	0	0	0.04730169	0.0349043	0	0
17.95698	-0.02252251	-0.09113013	0	0	0	0	0	0
18.03973	-0.02252251	-0.09113013	0	0	0	0	0	0
18.0595	-0.02252251	-0.09113013	0	0	0	0	0	0
18.07606	-0.02252251	-0.09113013	0	0	0	0	0	0
18.09307	-0.02252251	-0.09113013	0	0	0	0	0	0
18.1092	-0.0224962	-0.09114954	0.001630992	-0.001203522	0.04922344	-0.03632237	0	0
18.1261	-0.0224962	-0.09114954	0	0	-0.04938263	0.03643984	0	0
18.14233	-0.0224962	-0.09114954	0	0	0	0	0	0
18.1589	-0.0224962	-0.09114954	0	0	0	0	0	0
18.17563	-0.0224962	-0.09114954	0	0	0	0	0	0
18.19203	-0.0224962	-0.09114954	0	0	0	0	0	0
18.20866	-0.0224962	-0.09114954	0	0	0	0	0	0
18.22517	-0.0224962	-0.09114954	0	0	0	0	0	0
18.24173	-0.0224962	-0.09114954	0	0	0	0	0	0
18.2583	-0.0224962	-0.09114954	0	0	0	0	0	0
18.27486	-0.0224962	-0.09114954	0	0	0	0	0	0
18.29171	-0.0224962	-0.09114954	0	0	0	0	0	0
18.308	-0.0224962	-0.09114954	0	0	0	0	0	0
18.32474	-0.0224962	-0.09114954	0	0	0	0	0	0
18.34125	-0.0224962	-0.09114954	0	0	0	0	0	0
18.35778	-0.0224962	-0.09114954	0	0	0	0	0	0
18.37427	-0.0224962	-0.09114954	0	0	0	0	0	0
18.39083	-0.0224962	-0.09114954	0	0	0	0	0	0
18.4074	-0.0224962	-0.09114954	0	0	0	0	0	0
18.42397	-0.0224962	-0.09114954	0	0	0	0	0	0
18.44082	-0.0224962	-0.09114954	0	0	0	0	0	0
18.45733	-0.0224962	-0.09114954	0	0	0	0	0	0
18.47384	-0.0224962	-0.09114954	0	0	0	0	0	0
18.49036	-0.02252251	-0.09113013	-0.001592199	0.001174897	-0.04820251	0.03556902	0	0
18.50681	-0.0224962	-0.09114954	0.001599772	-0.001180485	0.09684119	-0.0714599	0	0
18.52337	-0.0224962	-0.09114954	0	0	-0.04847376	0.03576918	0	0
18.53993	-0.0224962	-0.09114954	0	0	0	0	0	0
18.5565	-0.0224962	-0.09114954	0	0	0	0	0	0
18.57307	-0.0224962	-0.09114954	0	0	0	0	0	0
18.58993	-0.0224962	-0.09114954	0	0	0	0	0	0
18.6062	-0.0224962	-0.09114954	0	0	0	0	0	0
18.62277	-0.0224962	-0.09114954	0	0	0	0	0	0
18.63934	-0.0224962	-0.09114954	0	0	0	0	0	0
18.65597	-0.0224962	-0.09114954	0	0	0	0	0	0
18.67248	-0.0224962	-0.09114954	0	0	0	0	0	0
18.68903	-0.0224962	-0.09114954	0	0	0	0	0	0
18.7056	-0.0224962	-0.09114954	0	0	0	0	0	0
18.72217	-0.0224962	-0.09114954	0	0	0	0	0	0
18.75756	-0.0224962	-0.09114954	0	0	0	0	0	0
18.77413	-0.0224962	-0.09114954	0	0	0	0	0	0
18.79107	-0.0224962	-0.09114954	0	0	0	0	0	0
18.80726	-0.0224962	-0.09114954	0	0	0	0	0	0
18.82383	-0.0224962	-0.09114954	0	0	0	0	0	0
18.8406	-0.0224962	-0.09114954	0	0	0	0	0	0
18.85711	-0.0224962	-0.09114954	0	0	0	0	0	0
18.87353	-0.0224962	-0.09114954	0	0	0	0	0	0
18.89863	-0.0224962	-0.09114954	0	0	0	0	0	0
18.9152	-0.0224962	-0.09114954	0	0	0	0	0	0
18.93176	-0.0224962	-0.09114954	0	0	0	0	0	0
18.94833	-0.0224962	-0.09114954	0	0	0	0	0	0
18.9649	-0.0224962	-0.09114954	0	0	0	0	0	0
18.98147	-0.0224962	-0.09114954	0	0	0	0	0	0
19.01473	-0.0224962	-0.09114954	0	0	0	0	0	0
19.03117	-0.0224962	-0.09114954	0	0	0	0	0	0
19.04775	-0.0224962	-0.09114954	0	0	0	0	0	0
19.0643	-0.0224962	-0.09114954	0	0	0	0	0	0
19.08087	-0.0224962	-0.09114954	0	0	0	0	0	0
19.09743	-0.0224962	-0.09114954	0	0	0	0	0	0
19.114	-0.0224962	-0.09114954	0	0	0	0	0	0
19.13057	-0.0224962	-0.09114954	0	0	0	0	0	0
19.14713	-0.0224962	-0.09114954	0	0	0	0	0	0
19.1637	-0.0224962	-0.09114954	0	0	0	0	0	0
19.18027	-0.0224962	-0.09114954	0	0	0	0	0	0
19.19686	-0.0224962	-0.09114954	0	0	0	0	0	0
19.2134	-0.0224962	-0.09114954	0	0	0	0	0	0
19.22997	-0.0224962	-0.09114954	0	0	0	0	0	0
19.24653	-0.0224962	-0.09114954	0	0	0	0	0	0
19.2631	-0.0224962	-0.09114954	0	0	0	0	0	0
19.27992	-0.0224962	-0.09114954	0	0	0	0	0	0
19.29624	-0.0224962	-0.09114954	0	0	0	0	0	0
19.31294	-0.0224962	-0.09114954	0	0	0	0	0	0
19.32937	-0.0224962	-0.09114954	0	0	0	0	0	0
19.34594	-0.0224962	-0.09114954	0	0	0	0	0	0
19.3625	-0.0224962	-0.09114954	0	0	0	0	0	0
19.37907	-0.0224962	-0.09114954	0	0	0	0	0	0
19.39564	-0.0224962	-0.09114954	0	0	0	0	0	0
19.4122	-0.0224962	-0.09114954	0	0	0	0	0	0
19.42902	-0.0224962	-0.09114954	0	0	0	0	0	0
19.44942	-0.0224962	-0.09114954	0	0	0	0	0	0
19.46599	-0.0224962	-0.09114954	0	0	0	0	0	0
19.48256	-0.0224962	-0.09114954	0	0	0	0	0	0
19.49912	-0.0224962	-0.09114954	0	0	0	0	0	0
19.51569	-0.0224962	-0.09114954	0	0	0	0	0	0
19.53225	-0.0224962	-0.09114954	0	0	0	0	0	0
19.54882	-0.0224962	-0.09114954	0	0	0	0	0	0
19.56539	-0.0224962	-0.09114954	0	0	0	0	0	0
19.58213	-0.0224962	-0.09114954	0	0	0	0	0	0
19.59853	-0.0224962	-0.09114954	0	0	0	0	0	0
19.61509	-0.0224962	-0.09114954	0	0	0	0	0	0
19.63165	-0.0224962	-0.09114954	0	0	0	0	0	0
19.64822	-0.0224962	-0.09114954	0	0	0	0	0	0
19.66479	-0.0224962	-0.09114954	0	0	0	0	0	0
19.68135	-0.0224962	-0.09114954	0	0	0	0	0	0
19.69821	-0.0224962	-0.09114954	0	0	0	0	0	0
19.71449	-0.0224962	-0.09114954	0	0	0	0	0	0
19.73105	-0.0224962	-0.09114954	0	0	0	0	0	0
19.74775	-0.0224962	-0.09114954	0	0	0	0	0	0
19.76426	-0.0224962	-0.09114954	0	0	0	0	0	0
19.78077	-0.0224962	-0.09114954	0	0	0	0	0	0
19.79732	-0.0224962	-0.09114954	0	0	0	0	0	0
19.81389	-0.0224962	-0.09114954	0	0	0	0	0	0
19.83046	-0.0224962	-0.09114954	0	0	0	0	0	0
19.84702	-0.0224962	-0.09114954	0	0	0	0	0	0
19.86383	-0.0224962	-0.09114954	0	0	0	0	0	0
19.88016	-0.0224962	-0.09114954	0	0	0	0	0	0
19.89672	-0.0224962	-0.09114954	0	0	0	0	0	0
19.91329	-0.0224962	-0.09114954	0	0	0	0	0	0
19.92986	-0.0224962	-0.09114954	0	0	0	0	0	0
19.94642	-0.0224962	-0.09114954	0	0	0	0	0	0
19.96299	-0.0224962	-0.09114954	0	0	0	0	0	0
19.97956	-0.0224962	-0.09114954	0	0	0	0	0	0
19.99643	-0.0224962	-0.09114954	0	0	0	0	0	0
20.01269	-0.0224962	-0.09114954	0	0	0	0	0	0
20.02945	-0.0224962	-0.09114954	0	0	0	0	0	0
20.04597	-0.0224962	-0.09114954	0	0	0	0	0	0
20.06248	-0.0224962	-0.09114954	0	0	0	0	0	0
20.07896	-0.0224962	-0.09114954	0	0	0	0	0	0
20.09553	-0.0224962	-0.09114954	0	0	0	0	0	0
20.13159	-0.0224962	-0.09114954	0	0	0	0	0	0
20.14816	-0.0224962	-0.09114954	0	0	0	0	0	0
20.16472	-0.0224962	-0.09114954	0	0	0	0	0	0
20.18129	-0.0224962	-0.09114954	0	0	0	0	0	0
20.19785	-0.0224962	-0.09114954	0	0	0	0	0	0
20.21442	-0.0224962	-0.09114954	0	0	0	0	0	0
20.23099	-0.0224962	-0.09114954	0	0	0	0	0	0
20.24756	-0.0224962	-0.09114954	0	0	0	0	0	0
20.26412	-0.0224962	-0.09114954	0	0	0	0	0	0
20.28069	-0.0224962	-0.09114954	0	0	0	0	0	0
20.29726	-0.0224962	-0.09114954	0	0	0	0	0	0
20.31383	-0.0224962	-0.09114954	0	0	0	0	0	0
20.33039	-0.0224962	-0.09114954	0	0	0	0	0	0
20.34696	-0.0224962	-0.09114954	0	0	0	0	0	0
20.3637	-0.0224962	-0.09114954	0	0	0	0	0	0
20.38009	-0.0224962	-0.09114954	0	0	0	0	0	0
20.39666	-0.0224962	-0.09114954	0	0	0	0	0	0
20.42979	-0.0224962	-0.09114954	0	0	0	0	0	0
20.44636	-0.0224962	-0.09114954	0	0	0	0	0	0
20.46293	-0.0224962	-0.09114954	0	0	0	0	0	0
20.4795	-0.0224962	-0.09114954	0	0	0	0	0	0
20.49606	-0.0224962	-0.09114954	0	0	0	0	0	0
20.51263	-0.0224962	-0.09114954	0	0	0	0	0	0
20.52919	-0.0224962	-0.09114954	0	0	0	0	0	0
20.54583	-0.0224962	-0.09114954	0	0	0	0	0	0
20.56233	-0.0224962	-0.09114954	0	0	0	0	0	0
20.57889	-0.0224962	-0.09114954	0	0	0	0	0	0
20.59546	-0.0224962	-0.09114954	0	0	0	0	0	0
20.61202	-0.0224962	-0.09114954	0	0	0	0	0	0
20.62859	-0.0224962	-0.09114954	0	0	0	0	0	0
20.64516	-0.0224962	-0.09114954	0	0	0	0	0	0
20.66173	-0.0224962	-0.09114954	0	0	0	0	0	0
20.69486	-0.0224962	-0.09114954	0	0	0	0	0	0
20.71143	-0.0224962	-0.09114954	0	0	0	0	0	0
20.72799	-0.0224962	-0.09114954	0	0	0	0	0	0
20.74456	-0.0224962	-0.09114954	0	0	0	0	0	0
20.76148	-0.0224962	-0.09114954	0	0	0	0	0	0
20.77799	-0.0224962	-0.09114954	0	0	0	0	0	0
20.79426	-0.0224962	-0.09114954	0	0	0	0	0	0
20.81083	-0.0224962	-0.09114954	0	0	0	0	0	0
20.82752	-0.0224962	-0.09114954	0	0	0	0	0	0
20.84403	-0.0224962	-0.09114954	0	0	0	0	0	0
20.86275	-0.0224962	-0.09114954	0	0	0	0	0	0
20.87956	-0.0224962	-0.09114954	0	0	0	0	0	0
20.89607	-0.0224962	-0.09114954	0	0	0	0	0	0
20.94558	-0.0224962	-0.09114954	0	0	0	0	0	0
20.96215	-0.0224962	-0.09114954	0	0	0	0	0	0
20.97872	-0.0224962	-0.09114954	0	0	0	0	0	0
20.99528	-0.0224962	-0.09114954	0	0	0	0	0	0
21.01185	-0.0224962	-0.09114954	0	0	0	0	0	0
21.02841	-0.0224962	-0.09114954	0	0	0	0	0	0
21.04498	-0.0224962	-0.09114954	0	0	0	0	0	0
21.06155	-0.0224962	-0.09114954	0	0	0	0	0	0
21.0782	-0.0224962	-0.09114954	0	0	0	0	0	0
21.09471	-0.0224962	-0.09114954	0	0	0	0	0	0
21.11125	-0.0224962	-0.09114954	0	0	0	0	0	0
21.12781	-0.0224962	-0.09114954	0	0	0	0	0	0
21.14438	-0.0224962	-0.09114954	0	0	0	0	0	0
21.16095	-0.0224962	-0.09114954	0	0	0	0	0	0
21.17752	-0.0224962	-0.09114954	0	0	0	0	0	0
21.19428	-0.0224962	-0.09114954	0	0	0	0	0	0
21.21079	-0.0224962	-0.09114954	0	0	0	0	0	0
21.22731	-0.0224962	-0.09114954	0	0	0	0	0	0
21.24382	-0.0224962	-0.09114954	0	0	0	0	0	0
21.26035	-0.0224962	-0.09114954	0	0	0	0	0	0
21.27692	-0.0224962	-0.09114954	0	0	0	0	0	0
21.29348	-0.0224962	-0.09114954	0	0	0	0	0	0
21.31005	-0.0224962	-0.09114954	0	0	0	0	0	0
21.32688	-0.02254881	-0.09111072	-0.003126284	0.00230691	-0.09361853	0.06908187	0	0
21.34339	-0.02268032	-0.09101367	-0.007963755	0.005876971	-0.1450931	0.1070789	0	0
21.40945	-0.04032024	-0.07678502	-0.2670246	0.2153865	-3.137285	2.537207	0	0
21.42602	-0.05447238	-0.06635884	-0.8542246	0.6293254	-7.106529	5.009654	0	0
21.44259	-0.06228774	-0.06059384	-0.4717363	0.347976	11.54352	-8.491141	0	0
21.45915	-0.07509536	-0.05106858	-0.7730696	0.5749459	-9.094256	6.849966	0	0
21.47572	-0.09463751	-0.03663843	-1.179566	0.8710056	-12.26809	8.935099	0	0
21.49251	-0.1104435	-0.0248364	-0.9416912	0.7031438	7.132272	-5.033051	0	0
21.50901	-0.1317585	-0.00815009	-1.291485	1.011029	-10.50781	9.248856	0	0
21.52552	-0.1465471	0.004975928	-0.89563	0.7949421	11.98973	-6.544858	0	0
21.54199	-0.1633217	0.02220542	-1.018731	1.046359	-3.732808	7.623749	0	0
21.55856	-0.1689272	0.03133898	-0.3383525	0.5513031	20.5967	-14.98652	0	0
21.57512	-0.1758234	0.04422537	-0.4162544	0.7778238	-2.351086	6.836407	0	0
21.59169	-0.1812264	0.05992046	-0.3260889	0.9472488	2.721044	5.112961	0	0
21.60858	-0.1825755	0.07147583	-0.07987719	0.6841719	7.358673	-7.862733	0	0
21.62482	-0.1814301	0.08561288	0.07052536	0.8704501	4.53968	5.622537	0	0
21.64139	-0.1796983	0.09531806	0.1045297	0.5858062	1.036456	-8.675973	0	0
21.65812	-0.1767671	0.1050941	0.1752125	0.5843632	2.122824	-0.04333863	0	0
21.67452	-0.1724285	0.1183775	0.2644705	0.8097132	2.693811	6.801079	0	0
21.6939	-0.1673413	0.1318624	0.2625131	0.6958604	-0.05470207	-3.18169	0	0
21.71047	-0.1634498	0.1416577	0.2348949	0.5912451	-0.768327	-2.910356	0	0
21.72704	-0.1624248	0.1448946	0.061865	0.1953818	-5.222052	-11.94718	0	0
21.80987	-0.1488899	0.1941971	0.1633973	0.5951952	1.021436	4.022209	0	0
21.82674	-0.1477316	0.1980384	0.06867632	0.2277446	-0.9500509	-3.685529	0	0
21.84325	-0.1476544	0.1980204	0.004678295	-0.001091963	-1.917337	-6.855786	0	0
21.85957	-0.1476544	0.1980204	0	0	-0.1424789	0.03325607	0	0
21.87616	-0.1476286	0.1980024	0.001552259	-0.001086941	0.04716494	-0.03302637	0	0
21.89271	-0.1476286	0.1980024	0	0	-0.04684728	0.03280394	0	0
21.90927	-0.1476029	0.1979843	0.001553505	-0.001088443	0.04691727	-0.03287197	0	0
21.92584	-0.1476029	0.1979843	0	0	-0.04688756	0.03285116	0	0
21.94241	-0.1476029	0.1979843	0	0	0	0	0	0
22.02138	-0.1476544	0.1980204	-0.000651938	0.0004566396	-0.006823918	0.004779706	0	0
22.03793	-0.1476801	0.1980384	-0.001556017	0.001089572	-0.009464997	0.006626306	0	0
22.05449	-0.1476801	0.1980384	0	0	0.04698772	-0.03290229	0	0
22.07106	-0.1476801	0.1980384	0	0	0	0	0	0
22.08763	-0.1477059	0.1980565	-0.001554404	0.001088443	-0.04691471	0.03285116	0	0
22.10443	-0.1477059	0.1980565	0	0	0.04657687	-0.03261459	0	0
22.12076	-0.1477573	0.1980925	-0.003153661	0.002208932	-0.09518316	0.06666954	0	0
22.13745	-0.1487355	0.1988137	-0.05858482	0.04319008	-1.678617	1.241028	0	0
22.15389	-0.1532366	0.202076	-0.27386	0.1984912	-6.497392	4.687266	0	0
22.17046	-0.1605278	0.2074441	-0.4400985	0.3240209	-5.037094	3.803601	0	0
22.18749	-0.1647817	0.2104689	-0.2497201	0.1775653	5.665726	-4.358567	0	0
22.20359	-0.1684413	0.2130786	-0.2272816	0.1620774	0.6771571	-0.4673982	0	0
22.22051	-0.1681855	0.2128986	0.01511685	-0.01063596	7.340529	-5.230264	0	0
22.23703	-0.16816	0.2128807	0.001548423	-0.00108913	-0.4058282	0.2855432	0	0
22.25354	-0.16816	0.2128807	0	0	-0.04688806	0.03298012	0	0
22.26986	-0.16816	0.2128807	0	0	0	0	0	0
22.28642	-0.1681088	0.2128447	0.00308883	-0.002173788	0.09392394	-0.0660997	0	0
22.30299	-0.1680832	0.2128267	0.001544154	-0.001085494	-0.0466238	0.03284855	0	0
22.31956	-0.1680065	0.2127727	0.004632628	-0.003259031	0.09321034	-0.06559748	0	0
22.33613	-0.1679042	0.2127007	0.006175527	-0.004345175	0.04656746	-0.03278176	0	0
22.35269	-0.1678274	0.2126467	0.004632994	-0.003258656	-0.04655373	0.0327912	0	0
22.36926	-0.1677763	0.2126107	0.003088119	-0.002173287	-0.04662711	0.03275838	0	0
22.38583	-0.1677251	0.2125747	0.003088663	-0.002172138	1.641565E-05	3.470055E-05	0	0
22.40239	-0.1677251	0.2125747	0	0	-0.09321603	0.06555524	0	0
22.41896	-0.1676995	0.2125567	0.001544509	-0.001086644	0.04661606	-0.03279686	0	0
22.43567	-0.1676739	0.2125387	0.001530394	-0.00107734	-0.0004242197	0.0002796036	0	0
22.45218	-0.1675972	0.2124847	0.004649051	-0.00326995	0.09388348	-0.06600592	0	0
22.46869	-0.1675204	0.2124307	0.004648514	-0.003269572	-1.627322E-05	1.143638E-05	0	0
22.48523	-0.1674692	0.2123947	0.003094006	-0.002176796	-0.04703428	0.03306379	0	0
22.50179	-0.1674181	0.2123588	0.003088119	-0.002172388	-0.0001778305	0.0001331759	0	0
22.51836	-0.1674181	0.2123588	0	0	-0.09321571	0.06557412	0	0
22.60633	-0.1673157	0.2122868	0.001163423	-0.0008182411	0.01112879	-0.007826929	0	0
22.6228	-0.1672902	0.2122688	0.001553992	-0.001093316	0.003739557	-0.002633738	0	0
22.63904	-0.1671366	0.2121608	0.00945318	-0.006649893	0.2415403	-0.1699083	0	0
22.65582	-0.1670343	0.2120888	0.006098189	-0.004288885	-0.101593	0.07149406	0	0
22.67238	-0.1669063	0.2119988	0.007727894	-0.005435448	0.04888072	-0.03438954	0	0
22.68874	-0.1664713	0.2116928	0.02658745	-0.01869846	0.5729092	-0.4028992	0	0
22.70536	-0.1655498	0.2110449	0.05544329	-0.0389854	0.8748492	-0.6150581	0	0
22.72188	-0.1632192	0.2094067	0.1411303	-0.09919836	2.58604	-1.817231	0	0
22.73938	-0.1630654	0.2092987	0.008781083	-0.006170675	-3.890178	2.734389	0	0
22.75501	-0.1630654	0.2092987	0	0	-0.2650441	0.1862528	0	0
22.77157	-0.1630654	0.2092627	0	-0.002173037	0	-0.06750591	0	0
22.82145	-0.150511	0.2001656	0.2517273	-0.1824037	3.788758	-2.71266	0	0
22.83784	-0.140928	0.1928802	0.584623	-0.4444571	5.023695	-3.954621	0	0
22.85441	-0.1307757	0.1830765	0.6127946	-0.5917488	0.854749	-4.468939	0	0
22.87098	-0.1177423	0.1663795	0.7866019	-1.007722	5.245212	-12.55336	0	0
22.88754	-0.1103915	0.1503277	0.4438007	-0.9691089	-10.34636	1.165401	0	0
22.9045	-0.1043824	0.1247503	0.3543068	-1.508089	-2.66958	-16.07764	0	0
22.92067	-0.1016224	0.1036464	0.17064	-1.304778	-5.543075	6.135926	0	0
22.93724	-0.09912147	0.0819679	0.1509746	-1.308668	-0.6006595	-0.118821	0	0
22.95403	-0.09607175	0.05452892	0.1815934	-1.633836	0.9178405	-9.74737	0	0
22.97037	-0.0945071	0.03653989	0.0957656	-1.101031	-2.590436	16.081	0	0
22.98694	-0.09275936	0.02170043	0.1054939	-0.8957114	0.2956439	6.239672	0	0
23.00351	-0.09061955	0.006779786	0.1291441	-0.9005081	0.7137229	-0.1447559	0	0
23.02007	-0.0884528	-0.001514681	0.1307852	-0.500655	0.04952414	12.0669	0	0
23.03664	-0.08124184	-0.008074612	0.4353548	-0.3960494	9.192988	3.157365	0	0
23.0536	-0.07852243	-0.01132174	0.1602871	-0.1913919	-8.203805	6.103844	0	0
23.06977	-0.07564486	-0.01642558	0.1779728	-0.3156635	0.5337563	-3.750525	0	0
23.08634	-0.07124762	-0.02301594	0.2654177	-0.3977948	2.671227	-2.508912	0	0
23.10314	-0.0656948	-0.02696161	0.3305265	-0.2348625	1.951285	4.883015	0	0
23.11947	-0.0610556	-0.03028517	0.284012	-0.2034686	-1.403809	0.9474707	0	0
23.13604	-0.05607274	-0.03389768	0.3008006	-0.2180766	0.5102923	-0.4440144	0	0
23.15261	-0.05145454	-0.03720973	0.278755	-0.1999158	-0.6653762	0.5481248	0	0
23.16919	-0.05045713	-0.03789544	0.06015504	-0.04135579	-6.594702	4.783423	0	0
23.18574	-0.05056213	-0.03781924	-0.006343492	0.004603505	-2.007045	1.387134	0	0
23.20231	-0.05056213	-0.03781924	0	0	0.1915352	-0.1389981	0	0
23.21923	-0.05056213	-0.03781924	0	0	0	0	0	0
23.23544	-0.05056213	-0.03778115	0	0.002349448	0	0.07090648	0	0
23.25225	-0.05056213	-0.03778115	0	0	0	-0.07115223	0	0
23.26876	-0.05061463	-0.03774305	-0.003179327	0.002307336	-0.09542496	0.06925284	0	0
23.28527	-0.05061463	-0.03774305	0	0	0.09627372	-0.06986881	0	0
23.30171	-0.05061463	-0.03774305	0	0	0	0	0	0
23.31829	-0.05061463	-0.03774305	0	0	0	0	0	0
23.33484	-0.05061463	-0.03774305	0	0	0	0	0	0
23.35182	-0.05061463	-0.03774305	0	0	0	0	0	0
23.38454	-0.05061463	-0.03774305	0	0	0	0	0	0
23.47641	-0.05058838	-0.03776209	0.0002857144	-0.0002073315	0.002293168	-0.00166406	0	0
23.49292	-0.05058838	-0.03776209	0	0	-0.002636336	0.001913084	0	0
23.5092	-0.05058838	-0.03776209	0	0	0	0	0	0
23.52577	-0.05058838	-0.03776209	0	0	0	0	0	0
23.54245	-0.05058838	-0.03776209	0	0	0	0	0	0
23.55897	-0.05058838	-0.03776209	0	0	0	0	0	0
23.57547	-0.05058838	-0.03776209	0	0	0	0	0	0
23.59204	-0.05058838	-0.03776209	0	0	0	0	0	0
23.6086	-0.05058838	-0.03776209	0	0	0	0	0	0
23.62517	-0.05058838	-0.03776209	0	0	0	0	0	0
23.64174	-0.05058838	-0.03776209	0	0	0	0	0	0
23.65854	-0.05058838	-0.03776209	0	0	0	0	0	0
23.67505	-0.05056213	-0.03778115	0.00158893	-0.001153248	0.04769044	-0.03461381	0	0
23.69156	-0.05056213	-0.03778115	0	0	-0.04811741	0.03492371	0	0
23.72458	-0.05056213	-0.03778115	0	0	0	0	0	0
23.74114	-0.05056213	-0.03778115	0	0	0	0	0	0
23.7577	-0.05056213	-0.03778115	0	0	0	0	0	0
23.77427	-0.05056213	-0.03778115	0	0	0	0	0	0
23.79084	-0.05056213	-0.03778115	0	0	0	0	0	0
23.8074	-0.05056213	-0.03778115	0	0	0	0	0	0
23.82415	-0.05056213	-0.03778115	0	0	0	0	0	0
23.84066	-0.05056213	-0.03778115	0	0	0	0	0	0
23.85717	-0.05056213	-0.03778115	0	0	0	0	0	0
23.87368	-0.05056213	-0.03778115	0	0	0	0	0	0
23.89023	-0.05056213	-0.03778115	0	0	0	0	0	0
23.9068	-0.05056213	-0.03778115	0	0	0	0	0	0
23.92337	-0.05056213	-0.03778115	0	0	0	0	0	0
23.93994	-0.05056213	-0.03778115	0	0	0	0	0	0
23.9565	-0.05053588	-0.03780019	0.001584539	-0.001149836	0.04782423	-0.03470412	0	0
23.97307	-0.05053588	-0.03780019	0	0	-0.04782423	0.03470412	0	0
23.98964	-0.05053588	-0.03780019	0	0	0	0	0	0
24.0062	-0.05053588	-0.03780019	0	0	0	0	0	0
24.02278	-0.05053588	-0.03780019	0	0	0	0	0	0
24.03934	-0.05053588	-0.03780019	0	0	0	0	0	0
24.0559	-0.05053588	-0.03780019	0	0	0	0	0	0
24.07247	-0.05053588	-0.03780019	0	0	0	0	0	0
24.08904	-0.05053588	-0.03780019	0	0	0	0	0	0
24.10821	-0.05053588	-0.03780019	0	0	0	0	0	0
24.12486	-0.05050964	-0.03781924	0.001575829	-0.001143516	0.04398363	-0.03191715	0	0
24.14138	-0.05050964	-0.03781924	0	0	-0.04750121	0.03446972	0	0
24.15791	-0.05053588	-0.03780019	-0.001588013	0.001152357	-0.04805356	0.03487055	0	0
24.17448	-0.05053588	-0.03780019	0	0	0.04798433	-0.0348203	0	0
24.19104	-0.05053588	-0.03780019	0	0	0	0	0	0
24.20761	-0.05053588	-0.03780019	0	0	0	0	0	0
24.22418	-0.05053588	-0.03780019	0	0	0	0	0	0
24.24075	-0.05053588	-0.03780019	0	0	0	0	0	0
24.25731	-0.05050964	-0.03781924	0.001584356	-0.001149704	0.04781597	-0.03469813	0	0
24.27388	-0.05050964	-0.03781924	0	0	-0.04781872	0.03470013	0	0
24.29049	-0.05053588	-0.03780019	-0.001580535	0.001146931	-0.04764579	0.03457464	0	0
24.30701	-0.05053588	-0.03780019	0	0	0.04770064	-0.03461444	0	0
24.32358	-0.05053588	-0.03780019	0	0	0	0	0	0
24.34015	-0.05053588	-0.03780019	0	0	0	0	0	0
24.35704	-0.05053588	-0.03780019	0	0	0	0	0	0
24.37355	-0.05053588	-0.03780019	0	0	0	0	0	0
24.38985	-0.05053588	-0.03780019	0	0	0	0	0	0
24.40657	-0.05053588	-0.03780019	0	0	0	0	0	0
24.42298	-0.05053588	-0.03780019	0	0	0	0	0	0
24.43959	-0.05053588	-0.03780019	0	0	0	0	0	0
24.45611	-0.05053588	-0.03780019	0	0	0	0	0	0
24.47268	-0.05053588	-0.03780019	0	0	0	0	0	0
24.48925	-0.05053588	-0.03780019	0	0	0	0	0	0
24.50614	-0.05053588	-0.03780019	0	0	0	0	0	0
24.52238	-0.05053588	-0.03780019	0	0	0	0	0	0
24.53916	-0.05053588	-0.03780019	0	0	0	0	0	0
24.55551	-0.05053588	-0.03780019	0	0	0	0	0	0
24.57218	-0.05053588	-0.03780019	0	0	0	0	0	0
24.58865	-0.05053588	-0.03780019	0	0	0	0	0	0
24.60521	-0.05053588	-0.03780019	0	0	0	0	0	0
24.62178	-0.05053588	-0.03780019	0	0	0	0	0	0
24.63835	-0.05053588	-0.03780019	0	0	0	0	0	0
24.65492	-0.05053588	-0.03780019	0	0	0	0	0	0
24.67148	-0.05053588	-0.03780019	0	0	0	0	0	0
24.68805	-0.05053588	-0.03780019	0	0	0	0	0	0
24.70461	-0.05053588	-0.03780019	0	0	0	0	0	0
24.72118	-0.05053588	-0.03780019	0	0	0	0	0	0
24.73775	-0.05053588	-0.03780019	0	0	0	0	0	0
24.75432	-0.05053588	-0.03780019	0	0	0	0	0	0
24.77563	-0.05053588	-0.03780019	0	0	0	0	0	0
24.79234	-0.05053588	-0.03780019	0	0	0	0	0	0
24.80876	-0.05053588	-0.03780019	0	0	0	0	0	0
24.82533	-0.05053588	-0.03780019	0	0	0	0	0	0
24.85148	-0.05053588	-0.03780019	0	0	0	0	0	0
24.86805	-0.05053588	-0.03780019	0	0	0	0	0	0
24.88461	-0.05053588	-0.03780019	0	0	0	0	0	0
24.90118	-0.05053588	-0.03780019	0	0	0	0	0	0
24.91775	-0.05053588	-0.03780019	0	0	0	0	0	0
24.93445	-0.05053588	-0.03780019	0	0	0	0	0	0
24.95095	-0.05053588	-0.03780019	0	0	0	0	0	0
24.96745	-0.05053588	-0.03780019	0	0	0	0	0	0
24.98401	-0.05053588	-0.03780019	0	0	0	0	0	0
25.00058	-0.05053588	-0.03780019	0	0	0	0	0	0
25.01715	-0.05053588	-0.03780019	0	0	0	0	0	0
25.03372	-0.05053588	-0.03780019	0	0	0	0	0	0
25.05028	-0.05053588	-0.03780019	0	0	0	0	0	0
25.06685	-0.05053588	-0.03780019	0	0	0	0	0	0
25.08342	-0.05053588	-0.03780019	0	0	0	0	0	0
25.10006	-0.05053588	-0.03780019	0	0	0	0	0	0
25.11657	-0.05053588	-0.03780019	0	0	0	0	0	0
25.13312	-0.05053588	-0.03780019	0	0	0	0	0	0
25.15009	-0.05053588	-0.03780019	0	0	0	0	0	0
25.16625	-0.05053588	-0.03780019	0	0	0	0	0	0
25.18282	-0.05053588	-0.03780019	0	0	0	0	0	0
25.19938	-0.05053588	-0.03780019	0	0	0	0	0	0
25.21595	-0.05053588	-0.03780019	0	0	0	0	0	0
25.23252	-0.05053588	-0.03780019	0	0	0	0	0	0
25.24908	-0.05053588	-0.03780019	0	0	0	0	0	0
25.26565	-0.05053588	-0.03780019	0	0	0	0	0	0
25.28222	-0.05053588	-0.03780019	0	0	0	0	0	0
25.29879	-0.05053588	-0.03780019	0	0	0	0	0	0
25.31535	-0.05053588	-0.03780019	0	0	0	0	0	0
25.33192	-0.05053588	-0.03780019	0	0	0	0	0	0
25.34874	-0.05053588	-0.03780019	0	0	0	0	0	0
25.36525	-0.05053588	-0.03780019	0	0	0	0	0	0
25.38162	-0.05053588	-0.03780019	0	0	0	0	0	0
25.39827	-0.05053588	-0.03780019	0	0	0	0	0	0
25.41475	-0.05053588	-0.03780019	0	0	0	0	0	0
25.43132	-0.05053588	-0.03780019	0	0	0	0	0	0
25.44831	-0.05053588	-0.03780019	0	0	0	0	0	0
25.46445	-0.05053588	-0.03780019	0	0	0	0	0	0
25.48447	-0.05053588	-0.03780019	0	0	0	0	0	0
25.50104	-0.05053588	-0.03780019	0	0	0	0	0	0
25.51786	-0.05053588	-0.03780019	0	0	0	0	0	0
25.53417	-0.05053588	-0.03780019	0	0	0	0	0	0
25.55074	-0.05053588	-0.03780019	0	0	0	0	0	0
25.56731	-0.05053588	-0.03780019	0	0	0	0	0	0
25.58388	-0.05053588	-0.03780019	0	0	0	0	0	0
25.60044	-0.05053588	-0.03780019	0	0	0	0	0	0
25.61701	-0.05053588	-0.03780019	0	0	0	0	0	0
25.63357	-0.05053588	-0.03780019	0	0	0	0	0	0
25.65014	-0.05053588	-0.03780019	0	0	0	0	0	0
25.66696	-0.05053588	-0.03780019	0	0	0	0	0	0
25.68348	-0.05053588	-0.03780019	0	0	0	0	0	0
25.69984	-0.05053588	-0.03780019	0	0	0	0	0	0
25.7165	-0.05053588	-0.03780019	0	0	0	0	0	0
25.73297	-0.05053588	-0.03780019	0	0	0	0	0	0
25.74954	-0.05053588	-0.03780019	0	0	0	0	0	0
25.76653	-0.05053588	-0.03780019	0	0	0	0	0	0
25.78267	-0.05053588	-0.03780019	0	0	0	0	0	0
25.79956	-0.05053588	-0.03780019	0	0	0	0	0	0
25.81581	-0.05053588	-0.03780019	0	0	0	0	0	0
25.83237	-0.05053588	-0.03780019	0	0	0	0	0	0
25.84909	-0.05053588	-0.03780019	0	0	0	0	0	0
25.8656	-0.05053588	-0.03780019	0	0	0	0	0	0
25.88212	-0.05053588	-0.03780019	0	0	0	0	0	0
25.89864	-0.05053588	-0.03780019	0	0	0	0	0	0
25.91564	-0.05053588	-0.03780019	0	0	0	0	0	0
25.93177	-0.05053588	-0.03780019	0	0	0	0	0	0
25.94834	-0.05053588	-0.03780019	0	0	0	0	0	0
25.96491	-0.05053588	-0.03780019	0	0	0	0	0	0
25.98148	-0.05053588	-0.03780019	0	0	0	0	0	0
25.99804	-0.05053588	-0.03780019	0	0	0	0	0	0
26.01471	-0.05053588	-0.03780019	0	0	0	0	0	0
26.03122	-0.05053588	-0.03780019	0	0	0	0	0	0
26.08858	-0.05053588	-0.03780019	0	0	0	0	0	0
26.10528	-0.05053588	-0.03780019	0	0	0	0	0	0
26.12179	-0.05053588	-0.03780019	0	0	0	0	0	0
26.13828	-0.05053588	-0.03780019	0	0	0	0	0	0
26.15485	-0.05053588	-0.03780019	0	0	0	0	0	0
26.17141	-0.05053588	-0.03780019	0	0	0	0	0	0
26.18834	-0.05053588	-0.03780019	0	0	0	0	0	0
26.21013	-0.05053588	-0.03780019	0	0	0	0	0	0
26.23521	-0.05053588	-0.03780019	0	0	0	0	0	0
26.25178	-0.05053588	-0.03780019	0	0	0	0	0	0
26.26839	-0.05053588	-0.03780019	0	0	0	0	0	0
26.28491	-0.05053588	-0.03780019	0	0	0	0	0	0
26.30634	-0.05053588	-0.03780019	0	0	0	0	0	0
26.32294	-0.05056213	-0.03778115	-0.001580898	0.001147195	-0.04156492	0.03016199	0	0
26.33948	-0.05056213	-0.03778115	0	0	0.04770336	-0.03461642	0	0
26.35605	-0.05056213	-0.03778115	0	0	0	0	0	0
26.37261	-0.05056213	-0.03778115	0	0	0	0	0	0
26.38918	-0.05056213	-0.03778115	0	0	0	0	0	0
26.40574	-0.05056213	-0.03778115	0	0	0	0	0	0
26.42231	-0.05056213	-0.03778115	0	0	0	0	0	0
26.43888	-0.05056213	-0.03778115	0	0	0	0	0	0
26.45544	-0.05056213	-0.03778115	0	0	0	0	0	0
26.47201	-0.05053588	-0.03780019	0.001584539	-0.001149836	0.04782423	-0.03470412	0	0
26.48858	-0.05053588	-0.03780019	0	0	-0.04781872	0.03470013	0	0
26.50514	-0.05053588	-0.03780019	0	0	0	0	0	0
26.52455	-0.05053588	-0.03780019	0	0	0	0	0	0
26.54112	-0.05053588	-0.03780019	0	0	0	0	0	0
26.55811	-0.05056213	-0.03778115	-0.001545392	0.001121429	-0.04605415	0.03341965	0	0
26.60742	-0.05056213	-0.03778115	0	0	0.02330928	-0.01691461	0	0
26.62396	-0.05056213	-0.03778115	0	0	0	0	0	0
26.64053	-0.05056213	-0.03778115	0	0	0	0	0	0
26.66529	-0.05056213	-0.03778115	0	0	0	0	0	0
26.68186	-0.05056213	-0.03778115	0	0	0	0	0	0
26.69869	-0.05056213	-0.03778115	0	0	0	0	0	0
26.71499	-0.05053588	-0.03780019	0.001610311	-0.001168538	0.04860208	-0.03526858	0	0
26.73171	-0.05053588	-0.03780019	0	0	-0.0487649	0.03538674	0	0
26.74823	-0.05053588	-0.03780019	0	0	0	0	0	0
26.76469	-0.05053588	-0.03780019	0	0	0	0	0	0
26.78126	-0.05053588	-0.03780019	0	0	0	0	0	0
26.79783	-0.05053588	-0.03780019	0	0	0	0	0	0
26.81439	-0.05053588	-0.03780019	0	0	0	0	0	0
26.83096	-0.05053588	-0.03780019	0	0	0	0	0	0
26.8478	-0.05053588	-0.03780019	0	0	0	0	0	0
26.86431	-0.05053588	-0.03780019	0	0	0	0	0	0
26.88066	-0.05053588	-0.03780019	0	0	0	0	0	0
26.89723	-0.05053588	-0.03780019	0	0	0	0	0	0
26.91385	-0.05053588	-0.03780019	0	0	0	0	0	0
26.98006	-0.05053588	-0.03780019	0	0	0	0	0	0
27.01342	-0.05053588	-0.03780019	0	0	0	0	0	0
27.02976	-0.05053588	-0.03780019	0	0	0	0	0	0
27.05419	-0.05053588	-0.03780019	0	0	0	0	0	0
27.07077	-0.05053588	-0.03780019	0	0	0	0	0	0
27.08734	-0.05053588	-0.03780019	0	0	0	0	0	0
27.1039	-0.05053588	-0.03780019	0	0	0	0	0	0
27.12046	-0.05053588	-0.03780019	0	0	0	0	0	0
27.13703	-0.05053588	-0.03780019	0	0	0	0	0	0
27.15404	-0.05053588	-0.03780019	0	0	0	0	0	0
27.17017	-0.05053588	-0.03780019	0	0	0	0	0	0
27.18673	-0.05053588	-0.03780019	0	0	0	0	0	0
27.2033	-0.05053588	-0.03780019	0	0	0	0	0	0
27.21987	-0.05053588	-0.03780019	0	0	0	0	0	0
27.23658	-0.05053588	-0.03780019	0	0	0	0	0	0
27.25309	-0.05053588	-0.03780019	0	0	0	0	0	0
27.26956	-0.05053588	-0.03780019	0	0	0	0	0	0
27.28613	-0.05053588	-0.03780019	0	0	0	0	0	0
27.3027	-0.05053588	-0.03780019	0	0	0	0	0	0
27.31926	-0.05053588	-0.03780019	0	0	0	0	0	0
27.33585	-0.05053588	-0.03780019	0	0	0	0	0	0
27.3524	-0.05053588	-0.03780019	0	0	0	0	0	0
27.36896	-0.05053588	-0.03780019	0	0	0	0	0	0
27.38553	-0.05053588	-0.03780019	0	0	0	0	0	0
27.40219	-0.05053588	-0.03780019	0	0	0	0	0	0
27.41866	-0.05053588	-0.03780019	0	0	0	0	0	0
27.43523	-0.05053588	-0.03780019	0	0	0	0	0	0
27.4518	-0.05053588	-0.03780019	0	0	0	0	0	0
27.46836	-0.05053588	-0.03780019	0	0	0	0	0	0
27.48497	-0.05053588	-0.03780019	0	0	0	0	0	0
27.5015	-0.05053588	-0.03780019	0	0	0	0	0	0
27.51828	-0.05053588	-0.03780019	0	0	0	0	0	0
27.53478	-0.05053588	-0.03780019	0	0	0	0	0	0
27.5513	-0.05053588	-0.03780019	0	0	0	0	0	0
27.56781	-0.05053588	-0.03780019	0	0	0	0	0	0
27.58433	-0.05053588	-0.03780019	0	0	0	0	0	0
27.60089	-0.05053588	-0.03780019	0	0	0	0	0	0
27.61784	-0.05053588	-0.03780019	0	0	0	0	0	0
27.63435	-0.05053588	-0.03780019	0	0	0	0	0	0
27.65405	-0.05053588	-0.03780019	0	0	0	0	0	0
27.67089	-0.05053588	-0.03780019	0	0	0	0	0	0
27.6874	-0.05053588	-0.03780019	0	0	0	0	0	0
27.70391	-0.05053588	-0.03780019	0	0	0	0	0	0
27.72092	-0.05053588	-0.03780019	0	0	0	0	0	0
27.73694	-0.05053588	-0.03780019	0	0	0	0	0	0
27.75345	-0.05053588	-0.03780019	0	0	0	0	0	0
27.77045	-0.05053588	-0.03780019	0	0	0	0	0	0
27.78747	-0.05053588	-0.03780019	0	0	0	0	0	0
27.80315	-0.05053588	-0.03780019	0	0	0	0	0	0
27.82	-0.05053588	-0.03780019	0	0	0	0	0	0
27.83629	-0.05053588	-0.03780019	0	0	0	0	0	0
27.85301	-0.05056213	-0.03778115	-0.001569181	0.001138692	-0.0475331	0.03449287	0	0
27.86942	-0.05056213	-0.03778115	0	0	0.04735798	-0.03436579	0	0
27.88604	-0.05056213	-0.03778115	0	0	0	0	0	0
27.90255	-0.05056213	-0.03778115	0	0	0	0	0	0
27.91912	-0.05056213	-0.03778115	0	0	0	0	0	0
27.93607	-0.05058838	-0.03776209	-0.001548348	0.001123794	-0.04619212	0.03352633	0	0
27.96882	-0.05058838	-0.03776209	0	0	0.03115402	-0.02261165	0	0
27.98563	-0.05058838	-0.03776209	0	0	0	0	0	0
28.00212	-0.05058838	-0.03776209	0	0	0	0	0	0
28.01852	-0.05058838	-0.03776209	0	0	0	0	0	0
28.03514	-0.05058838	-0.03776209	0	0	0	0	0	0
28.05165	-0.05058838	-0.03776209	0	0	0	0	0	0
28.06822	-0.05058838	-0.03776209	0	0	0	0	0	0
28.08479	-0.05058838	-0.03776209	0	0	0	0	0	0
28.10169	-0.05058838	-0.03776209	0	0	0	0	0	0
28.11792	-0.05058838	-0.03776209	0	0	0	0	0	0
28.13448	-0.05058838	-0.03776209	0	0	0	0	0	0
28.15122	-0.05056213	-0.03778115	0.001568108	-0.001138136	0.04708438	-0.03417394	0	0
28.16762	-0.05056213	-0.03778115	0	0	-0.0473256	0.03434901	0	0
28.18424	-0.05056213	-0.03778115	0	0	0	0	0	0
28.20076	-0.05053588	-0.03780019	0.001589664	-0.001153555	0.04797062	-0.03481036	0	0
28.21732	-0.05050964	-0.03781924	0.001584904	-0.001150101	-0.0001439219	0.0001044391	0	0
28.23388	-0.05045713	-0.03785734	0.003168938	-0.002299633	0.04781449	-0.03469892	0	0
28.25045	-0.05045713	-0.03785734	0	0	-0.09563872	0.06940305	0	0
28.26702	-0.0502209	-0.03802879	0.01425943	-0.01034868	0.4303505	-0.3123239	0	0
28.28367	-0.04856704	-0.0392292	0.0993123	-0.07208353	2.560268	-1.858348	0	0
28.30015	-0.04355139	-0.04287147	0.304357	-0.2210185	6.188617	-4.495124	0	0
28.31672	-0.03724593	-0.04745447	0.3806426	-0.2766619	2.30855	-1.683878	0	0
28.33328	-0.02828193	-0.05397842	0.5410678	-0.3937865	4.84192	-3.535032	0	0
28.36642	-0.01105218	-0.06658968	0.5200248	-0.3806307	-0.4234023	0.2647063	0	0
28.38298	-0.005605204	-0.07057473	0.3287802	-0.2405379	-3.847996	2.818779	0	0
28.39955	0.002631573	-0.07661126	0.4971729	-0.3643655	5.0821	-3.737124	0	0
28.41933	0.01760344	-0.0876191	0.7570961	-0.5566437	7.152023	-5.290707	0	0
28.43593	0.02707233	-0.09460691	0.5704267	-0.4209612	-5.131799	3.730098	0	0
28.45246	0.03674661	-0.1017691	0.5850857	-0.4331594	0.4424109	-0.3681427	0	0
28.46903	0.04948588	-0.1111995	0.7689439	-0.5692192	5.554286	-4.110317	0	0
28.4856	0.05864321	-0.1180353	0.5526737	-0.4125606	-6.526672	4.727695	0	0
28.50216	0.06747635	-0.1246536	0.5331699	-0.3994853	-0.5885929	0.3945895	0	0
28.51873	0.07818242	-0.1327098	0.6462939	-0.4863265	3.414286	-2.621023	0	0
28.53529	0.08286246	-0.1362439	0.2825527	-0.2133701	-10.97963	8.239264	0	0
28.55186	0.09200269	-0.1431692	0.5517054	-0.4180092	8.123981	-6.176731	0	0
28.56843	0.09849603	-0.1481082	0.3919386	-0.2981207	-4.821772	3.618243	0	0
28.585	0.1068806	-0.1545106	0.5060951	-0.3864462	3.445248	-2.665669	0	0
28.60156	0.1131463	-0.1593537	0.3781948	-0.2923346	-3.860037	2.840292	0	0
28.61813	0.1211148	-0.165487	0.481039	-0.3702477	3.104024	-2.351557	0	0
28.6347	0.1244586	-0.1680691	0.2018325	-0.1558533	-8.426954	6.470808	0	0
28.65126	0.1288609	-0.1714763	0.2657226	-0.2056578	1.928207	-1.503102	0	0
28.66783	0.132948	-0.1746476	0.2466946	-0.1914197	-0.5742669	0.4297059	0	0
28.6844	0.1377019	-0.1783463	0.2869497	-0.223258	1.214903	-0.9608799	0	0
28.71762	0.1411859	-0.181064	0.1048575	-0.08179355	-3.656967	2.841036	0	0
28.73409	0.1453622	-0.1843296	0.2535381	-0.1982526	2.991689	-2.34334	0	0
28.75066	0.1457744	-0.1846524	0.0248802	-0.01948358	-6.920828	5.410833	0	0
28.76723	0.146135	-0.1849349	0.02176725	-0.01705061	-0.09394895	0.0734273	0	0
28.7838	0.1488385	-0.1870546	0.1631829	-0.1279483	4.267931	-3.3469	0	0
28.80036	0.1542131	-0.19128	0.3244531	-0.2550752	4.867425	-3.836917	0	0
28.81693	0.1594249	-0.195392	0.314584	-0.2481975	-0.2978671	0.2075811	0	0
28.86663	0.1729648	-0.206185	0.2724328	-0.2171651	-0.6360809	0.4682933	0	0
28.88324	0.1730669	-0.2063073	0.00614935	-0.007360382	-4.015683	3.163956	0	0
28.89976	0.1730158	-0.2062665	-0.003091452	0.002466488	-0.278888	0.2965755	0	0
28.91633	0.1729903	-0.2062461	-0.001540734	0.001230428	0.04686283	-0.03735382	0	0
28.9329	0.1729392	-0.2062054	-0.003083621	0.00246024	-0.04656712	0.03711794	0	0
28.94946	0.1728882	-0.2061646	-0.003082367	0.002459957	3.786281E-05	-8.55216E-06	0	0
28.96603	0.1728626	-0.2061443	-0.001541633	0.001229529	0.04649943	-0.0371344	0	0
28.98281	0.1728116	-0.2061035	-0.003044016	0.002428642	-0.04505154	0.03595747	0	0
28.99916	0.172786	-0.2060831	-0.00156086	0.001246501	0.04476173	-0.03567707	0	0
29.01573	0.1727094	-0.206022	-0.004624899	0.003689486	-0.09307296	0.07420786	0	0
29.0323	0.1726583	-0.2059812	-0.003083621	0.00246024	0.04651855	-0.03710084	0	0
29.04886	0.1726328	-0.2059609	-0.001541633	0.001229529	0.04653997	-0.03714509	0	0
29.06543	0.1726328	-0.2059609	0	0	0.04652658	-0.03710725	0	0
29.082	0.1726328	-0.2059609	0	0	0	0	0	0
29.09856	0.1726328	-0.2059609	0	0	0	0	0	0
29.11541	0.1726072	-0.2059405	-0.001516492	0.001209478	-0.04539416	0.03620409	0	0
29.1317	0.1726072	-0.2059405	0	0	0.04576782	-0.03650211	0	0
29.14827	0.1726072	-0.2059405	0	0	0	0	0	0
29.16908	0.1726072	-0.2059405	0	0	0	0	0	0
29.18565	0.1726072	-0.2059405	0	0	0	0	0	0
29.20222	0.1726072	-0.2059405	0	0	0	0	0	0
29.21878	0.1726072	-0.2059405	0	0	0	0	0	0
29.23535	0.1726072	-0.2059405	0	0	0	0	0	0
29.25202	0.1726072	-0.2059405	0	0	0	0	0	0
29.26848	0.1725562	-0.2059405	-0.00310129	0	-0.09360252	0	0	0
29.28505	0.1725562	-0.2059405	0	0	0.09388355	0	0	0
29.30162	0.1725562	-0.2059405	0	0	0	0	0	0
29.31818	0.1725562	-0.2059405	0	0	0	0	0	0
29.33475	0.1725562	-0.2059405	0	0	0	0	0	0
29.35132	0.1725562	-0.2059405	0	0	0	0	0	0
29.36788	0.1725562	-0.2059405	0	0	0	0	0	0
29.3846	0.1725562	-0.2059405	0	0	0	0	0	0
29.40102	0.1725562	-0.2059405	0	0	0	0	0	0
29.41759	0.1725306	-0.2059609	-0.001541633	-0.001229529	-0.04673642	-0.03727461	0	0
29.43415	0.1725306	-0.2059609	0	0	0.04652658	0.03710725	0	0
29.45072	0.1725306	-0.2059609	0	0	0	0	0	0
29.46729	0.1725306	-0.2059609	0	0	0	0	0	0
29.48385	0.1725306	-0.2059609	0	0	0	0	0	0
29.50042	0.1725306	-0.2059609	0	0	0	0	0	0
29.51698	0.1725306	-0.2059609	0	0	0	0	0	0
29.53371	0.1725306	-0.2059609	0	0	0	0	0	0
29.55012	0.1725306	-0.2059609	0	0	0	0	0	0
29.56673	0.1725306	-0.2059609	0	0	0	0	0	0
29.58325	0.1725306	-0.2059609	0	0	0	0	0	0
29.68265	0.1724796	-0.2059609	-0.0005138876	0	-0.004432938	0	0	0
29.69922	0.1724796	-0.2059609	0	0	0.004431261	0	0	0
29.71579	0.1724796	-0.2059609	0	0	0	0	0	0
29.73235	0.1724796	-0.2059609	0	0	0	0	0	0
29.74892	0.1724796	-0.2059609	0	0	0	0	0	0
29.76549	0.1724796	-0.2059609	0	0	0	0	0	0
29.78205	0.1724796	-0.2059609	0	0	0	0	0	0
29.79862	0.172454	-0.2059405	-0.001541633	0.001229529	-0.04652658	0.03710725	0	0
29.81519	0.172454	-0.2059405	0	0	0.04652658	-0.03710725	0	0
29.84832	0.1724029	-0.2058997	-0.001541633	0.001229979	-0.03101772	0.02474722	0	0
29.86489	0.1723008	-0.2058183	-0.006168142	0.004919581	-0.09308911	0.0742378	0	0
29.88145	0.1717643	-0.2053904	-0.03237879	0.0258228	-0.7910845	0.6308968	0	0
29.89802	0.1701544	-0.2041075	-0.09717505	0.07743603	-1.955555	1.55769	0	0
29.91459	0.1635779	-0.1988415	-0.3969615	0.3178615	-9.047574	7.256056	0	0
29.93116	0.158219	-0.1946014	-0.3234596	0.2559327	2.218292	-1.869016	0	0
29.94772	0.1408764	-0.1809431	-1.046804	0.8244112	-21.83058	17.15672	0	0
29.96451	0.1328446	-0.1746877	-0.4783588	0.3725594	17.04094	-13.54568	0	0
29.98103	0.1152761	-0.1610702	-1.063985	0.8247074	-17.58514	13.57708	0	0
30.00016	0.0967757	-0.1468775	-0.9668615	0.741735	2.724621	-2.327649	0	0
30.01673	0.08756498	-0.1398822	-0.5559598	0.4222384	11.50929	-8.949047	0	0
30.03329	0.06493489	-0.1228255	-1.365955	1.029545	-24.4457	18.32854	0	0
30.05008	0.05583664	-0.1159767	-0.5420576	0.4080349	24.70316	-18.63491	0	0
30.06659	0.04205414	-0.1057089	-0.8349894	0.6220588	-8.799163	6.428909	0	0
30.0831	0.01973428	-0.08918977	-1.351586	1.000322	-15.64496	11.45556	0	0
30.09956	0.01149949	-0.08312546	-0.5002201	0.3683751	25.81763	-19.16375	0	0
30.11613	-0.003447355	-0.07215492	-0.9021935	0.6621831	-12.17011	8.895306	0	0
30.1327	-0.01363073	-0.06470501	-0.61467	0.4496775	8.677477	-6.413433	0	0
30.15139	-0.02533668	-0.05616271	-0.6260622	0.4568627	-0.3230451	0.2037495	0	0
30.16816	-0.03025392	-0.05258057	-0.2932936	0.2136601	9.383456	-6.857861	0	0
30.18467	-0.03871748	-0.04642267	-0.5125135	0.3728935	-6.587252	4.784741	0	0
30.2011	-0.04318366	-0.04317679	-0.2719271	0.1976285	7.304219	-5.321056	0	0
30.2177	-0.04415549	-0.04247079	-0.05854505	0.04253046	6.461456	-4.696549	0	0
30.23423	-0.04410296	-0.04250895	0.003177095	-0.002308013	1.862885	-1.353306	0	0
30.2508	-0.0440767	-0.04252803	0.001585481	-0.001151503	-0.04808485	0.03493976	0	0
30.26736	-0.04405043	-0.04254711	0.001585256	-0.001151728	-6.78793E-06	-6.784417E-06	0	0
30.28393	-0.04397164	-0.04260435	0.004755992	-0.003454733	0.09569301	-0.06950485	0	0
30.30076	-0.04394537	-0.04262343	0.001561039	-0.001133973	-0.09567487	0.06949662	0	0
30.31727	-0.04391911	-0.0426425	0.001590566	-0.00115536	0.0008856819	-0.0006415274	0	0
30.33378	-0.04391911	-0.0426425	0	0	-0.04816419	0.03498565	0	0
30.35022	-0.04389284	-0.04266158	0.001597805	-0.001160681	0.04848982	-0.03522407	0	0
30.36681	-0.04386658	-0.04268067	0.001583433	-0.001150403	-0.0004351949	0.0003111965	0	0
30.38334	-0.04384031	-0.04269975	0.001589323	-0.001154519	0.0001778812	-0.0001242922	0	0
30.43303	-0.04378778	-0.0427379	0.001056953	-0.000767773	-0.008038576	0.005839706	0	0
30.4496	-0.04378778	-0.0427379	0	0	-0.01594991	0.01158605	0	0
30.46617	-0.04376152	-0.04275699	0.001585256	-0.001151728	0.04784311	-0.03475921	0	0
30.4829	-0.04376152	-0.04275699	0	0	-0.04761289	0.03459194	0	0
30.4993	-0.04365645	-0.04283331	0.006403625	-0.004651898	0.1932618	-0.1403946	0	0
30.51587	-0.04363019	-0.04285239	0.001585256	-0.001151728	-0.1461253	0.1061486	0	0
30.53244	-0.04363019	-0.04285239	0	0	-0.04784587	0.03476121	0	0
30.549	-0.04363019	-0.04285239	0	0	0	0	0	0
30.56557	-0.04363019	-0.04285239	0	0	0	0	0	0
30.58214	-0.04363019	-0.04285239	0	0	0	0	0	0
30.59897	-0.04363019	-0.04285239	0	0	0	0	0	0
30.61527	-0.04363019	-0.04285239	0	0	0	0	0	0
30.632	-0.04363019	-0.04285239	0	0	0	0	0	0
30.64841	-0.04363019	-0.04285239	0	0	0	0	0	0
30.66502	-0.04360392	-0.04287147	0.001580749	-0.00114829	0.04786967	-0.03477358	0	0
30.68154	-0.04360392	-0.04287147	0	0	-0.0477071	0.03465547	0	0
30.69811	-0.04360392	-0.04287147	0	0	0	0	0	0
30.71467	-0.04360392	-0.04287147	0	0	0	0	0	0
30.73533	-0.04357766	-0.04289055	0.00127184	-0.0009238924	0.03417088	-0.02482247	0	0
30.7519	-0.04355139	-0.04290963	0.001585073	-0.001151595	0.008415289	-0.006117437	0	0
30.76846	-0.04352513	-0.04292871	0.001585663	-0.00115186	1.780602E-05	-8.003574E-06	0	0
30.78503	-0.04352513	-0.04292871	0	0	-0.04785816	0.03476521	0	0
30.8016	-0.04352513	-0.04292871	0	0	0	0	0	0
30.81816	-0.04349886	-0.0429478	0.001585481	-0.001151728	0.0478499	-0.03475921	0	0
30.83473	-0.04349886	-0.0429478	0	0	-0.0478499	0.03475921	0	0
30.8513	-0.04349886	-0.0429478	0	0	0	0	0	0
30.86786	-0.04349886	-0.0429478	0	0	0	0	0	0
30.88443	-0.04349886	-0.0429478	0	0	0	0	0	0
30.90119	-0.04349886	-0.0429478	0	0	0	0	0	0
30.91756	-0.04349886	-0.0429478	0	0	0	0	0	0
30.93413	-0.04349886	-0.0429478	0	0	0	0	0	0
30.9507	-0.04349886	-0.0429478	0	0	0	0	0	0
30.96726	-0.04347259	-0.04296688	0.001585481	-0.001151728	0.04785265	-0.03476121	0	0
30.98383	-0.04347259	-0.04296688	0	0	-0.0478499	0.03475921	0	0
31.0004	-0.04344633	-0.04298596	0.001585256	-0.001151728	0.04784311	-0.03475921	0	0
31.01727	-0.04344633	-0.04298596	0	0	-0.04740108	0.03443806	0	0
31.03353	-0.04342006	-0.04300504	0.001615802	-0.001173983	0.04876782	-0.03543292	0	0
31.0501	-0.04339379	-0.04302412	0.001585481	-0.001151728	-0.0009237805	0.0006780368	0	0
31.06667	-0.04339379	-0.04302412	0	0	-0.0478499	0.03475921	0	0
31.08323	-0.04339379	-0.04302412	0	0	0	0	0	0
31.0998	-0.04339379	-0.04302412	0	0	0	0	0	0
31.11637	-0.04336753	-0.0430432	0.001585481	-0.001151728	0.04785265	-0.03476121	0	0
31.13293	-0.04336753	-0.0430432	0	0	-0.0478499	0.03475921	0	0
31.1495	-0.04336753	-0.0430432	0	0	0	0	0	0
31.16638	-0.04334126	-0.04306229	0.001555528	-0.00113035	0.04650422	-0.03379307	0	0
31.18263	-0.043315	-0.04308137	0.001616371	-0.001174167	0.001836269	-0.001322406	0	0
31.1992	-0.043315	-0.04308137	0	0	-0.04925283	0.03577833	0	0
31.21577	-0.043315	-0.04308137	0	0	0	0	0	0
31.23233	-0.043315	-0.04308137	0	0	0	0	0	0
31.24894	-0.04328873	-0.04310045	0.001581838	-0.001149306	0.04768508	-0.03464624	0	0
31.26547	-0.04328873	-0.04310045	0	0	-0.04774272	0.03468813	0	0
31.28203	-0.04326246	-0.04311953	0.001585663	-0.00115186	0.04791609	-0.03480729	0	0
31.2986	-0.04326246	-0.04311953	0	0	-0.04785541	0.03476321	0	0
31.31517	-0.0432362	-0.04313862	0.001585481	-0.001151728	0.04784715	-0.03475721	0	0
31.332	-0.04320993	-0.0431577	0.001560155	-0.001133552	-0.0007581875	0.0005441375	0	0
31.3483	-0.04318366	-0.04317679	0.00161202	-0.001171235	0.001565473	-0.001137415	0	0
31.36487	-0.04302606	-0.04329129	0.009512884	-0.006911265	0.2404277	-0.1746723	0	0
31.38153	-0.04197533	-0.04405473	0.06303751	-0.04580222	1.610463	-1.170161	0	0
31.39801	-0.03929555	-0.04600241	0.1626507	-0.1182156	3.005466	-2.184811	0	0
31.41844	-0.03093749	-0.05208287	0.4090384	-0.2975738	6.675527	-4.859457	0	0
31.43501	-0.02633601	-0.05547275	0.2777139	-0.2045905	-3.549064	2.512889	0	0
31.45159	-0.02023408	-0.05988363	0.3681439	-0.2661186	2.728398	-1.856387	0	0
31.47747	-0.01576185	-0.06314822	0.1728009	-0.1261391	-4.601106	3.297072	0	0
31.50273	-0.01063118	-0.0668975	0.2030765	-0.1484001	0.5919489	-0.4352461	0	0
31.52968	-0.01052593	-0.06697447	0.003905593	-0.002855939	-3.814535	2.787472	0	0
31.5549	-0.01055224	-0.06695522	-0.001043368	0.0007631102	-0.09486604	0.06937312	0	0
31.5814	-0.01057855	-0.06693599	-0.0009930822	0.0007260249	0.0009723463	-0.0007170989	0	0
31.60774	-0.01060487	-0.06691675	-0.0009988712	0.0007302829	-0.0001095584	8.058523E-05	0	0
31.63248	-0.01060487	-0.06691675	0	0	0.01955477	-0.01429665	0	0
31.65883	-0.01071012	-0.06683978	-0.003994617	0.002921063	-0.07819332	0.05717885	0	0
31.68406	-0.01081537	-0.06672435	-0.0041713	0.004574762	-0.00342539	0.03206059	0	0
31.70944	-0.01094693	-0.06662816	-0.005184296	0.003790575	-0.02001588	-0.01549484	0	0
31.73641	-0.01099956	-0.06655121	-0.001950984	0.002852761	0.06176217	-0.01791395	0	0
31.76169	-0.01099956	-0.06655121	0	0	0.03733675	-0.05459441	0	0
31.78638	-0.01099956	-0.06655121	0	0	0	0	0	0
31.82853	-0.01099956	-0.06655121	0	0	0	0	0	0
31.85554	-0.01099956	-0.06655121	0	0	0	0	0	0
31.8837	-0.01099956	-0.06655121	0	0	0	0	0	0
31.90708	-0.01099956	-0.06655121	0	0	0	0	0	0
31.93218	-0.01099956	-0.06655121	0	0	0	0	0	0
31.95552	-0.01099956	-0.06655121	0	0	0	0	0	0
31.97814	-0.01099956	-0.06655121	0	0	0	0	0	0
31.99997	-0.01099956	-0.06655121	0	0	0	0	0	0
32.0253	-0.01099956	-0.06655121	0	0	0	0	0	0
32.04872	-0.01097324	-0.06657045	0.001123588	-0.0008214642	0.02304709	-0.01684991	0	0
32.07019	-0.01097324	-0.06657045	0	0	-0.02502904	0.01829894	0	0
32.09229	-0.01097324	-0.06657045	0	0	0	0	0	0
32.11394	-0.01099956	-0.06655121	-0.00121524	0.0008884723	-0.02777886	0.02030936	0	0
32.13614	-0.01099956	-0.06655121	0	0	0.0277112	-0.02025989	0	0
32.159	-0.01097324	-0.06657045	0.001151345	-0.0008417574	0.02555398	-0.01868272	0	0
32.18141	-0.01097324	-0.06657045	0	0	-0.02543339	0.01859456	0	0
32.20289	-0.01097324	-0.06657045	0	0	0	0	0	0
32.22545	-0.01097324	-0.06657045	0	0	0	0	0	0
32.33438	-0.01097324	-0.06657045	0	0	0	0	0	0
32.35695	-0.01097324	-0.06657045	0	0	0	0	0	0
32.37917	-0.01097324	-0.06657045	0	0	0	0	0	0
32.40083	-0.01097324	-0.06657045	0	0	0	0	0	0
32.42246	-0.01097324	-0.06657045	0	0	0	0	0	0
32.44423	-0.01097324	-0.06657045	0	0	0	0	0	0
32.4662	-0.01097324	-0.06657045	0	0	0	0	0	0
32.48924	-0.01097324	-0.06657045	0	0	0	0	0	0
32.51278	-0.01097324	-0.06657045	0	0	0	0	0	0
32.53224	-0.01097324	-0.06657045	0	0	0	0	0	0
32.55348	-0.01097324	-0.06657045	0	0	0	0	0	0
32.58653	-0.01097324	-0.06657045	0	0	0	0	0	0
32.60769	-0.01097324	-0.06657045	0	0	0	0	0	0
32.63059	-0.01097324	-0.06657045	0	0	0	0	0	0
32.65424	-0.01097324	-0.06657045	0	0	0	0	0	0
32.67814	-0.01097324	-0.06657045	0	0	0	0	0	0
32.69932	-0.01097324	-0.06657045	0	0	0	0	0	0
32.7206	-0.01097324	-0.06657045	0	0	0	0	0	0
32.74439	-0.01097324	-0.06657045	0	0	0	0	0	0
32.76864	-0.01097324	-0.06657045	0	0	0	0	0	0
32.78923	-0.01097324	-0.06657045	0	0	0	0	0	0
32.80915	-0.01097324	-0.06657045	0	0	0	0	0	0
32.83059	-0.01097324	-0.06657045	0	0	0	0	0	0
32.85369	-0.01097324	-0.06657045	0	0	0	0	0	0
32.87547	-0.01097324	-0.06657045	0	0	0	0	0	0
32.89964	-0.01097324	-0.06657045	0	0	0	0	0	0
32.91948	-0.01097324	-0.06657045	0	0	0	0	0	0
32.94502	-0.01097324	-0.06657045	0	0	0	0	0	0
32.96908	-0.01097324	-0.06657045	0	0	0	0	0	0
32.99095	-0.01097324	-0.06657045	0	0	0	0	0	0
33.01461	-0.01094693	-0.06658968	0.001112354	-0.0008132509	0.02443412	-0.01786399	0	0
33.03601	-0.01094693	-0.06658968	0	0	-0.02468858	0.01805002	0	0
33.05967	-0.01094693	-0.06658968	0	0	0	0	0	0
33.08344	-0.01094693	-0.06658968	0	0	0	0	0	0
33.10545	-0.01094693	-0.06658968	0	0	0	0	0	0
33.12754	-0.01094693	-0.06658968	0	0	0	0	0	0
33.15203	-0.01094693	-0.06658968	0	0	0	0	0	0
33.17444	-0.01094693	-0.06658968	0	0	0	0	0	0
33.19647	-0.01094693	-0.06658968	0	0	0	0	0	0
33.21841	-0.01094693	-0.06658968	0	0	0	0	0	0
33.24086	-0.01094693	-0.06658968	0	0	0	0	0	0
33.26387	-0.01094693	-0.06658968	0	0	0	0	0	0
33.28657	-0.01094693	-0.06658968	0	0	0	0	0	0
33.30952	-0.01094693	-0.06658968	0	0	0	0	0	0
33.33148	-0.01094693	-0.06658968	0	0	0	0	0	0
33.35316	-0.01094693	-0.06658968	0	0	0	0	0	0
33.37461	-0.01094693	-0.06658968	0	0	0	0	0	0
33.39672	-0.01094693	-0.06658968	0	0	0	0	0	0
33.41871	-0.01094693	-0.06658968	0	0	0	0	0	0
33.44287	-0.01094693	-0.06658968	0	0	0	0	0	0
33.46506	-0.01094693	-0.06658968	0	0	0	0	0	0
33.48775	-0.01094693	-0.06658968	0	0	0	0	0	0
33.51075	-0.01094693	-0.06658968	0	0	0	0	0	0
33.54555	-0.01094693	-0.06658968	0	0	0	0	0	0
33.56706	-0.01094693	-0.06658968	0	0	0	0	0	0
33.58902	-0.01094693	-0.06658968	0	0	0	0	0	0
33.61079	-0.01094693	-0.06658968	0	0	0	0	0	0
33.64697	-0.01094693	-0.06658968	0	0	0	0	0	0
33.66935	-0.01094693	-0.06658968	0	0	0	0	0	0
33.6913	-0.01094693	-0.06658968	0	0	0	0	0	0
33.71447	-0.01094693	-0.06658968	0	0	0	0	0	0
33.75014	-0.01094693	-0.06658968	0	0	0	0	0	0
33.77423	-0.01094693	-0.06658968	0	0	0	0	0	0
33.80105	-0.01094693	-0.06658968	0	0	0	0	0	0
33.82319	-0.01094693	-0.06658968	0	0	0	0	0	0
33.84684	-0.01094693	-0.06658968	0	0	0	0	0	0
33.86926	-0.01094693	-0.06658968	0	0	0	0	0	0
33.89064	-0.01094693	-0.06658968	0	0	0	0	0	0
33.91288	-0.01094693	-0.06658968	0	0	0	0	0	0
33.93527	-0.01094693	-0.06658968	0	0	0	0	0	0
33.95755	-0.01094693	-0.06658968	0	0	0	0	0	0
33.97881	-0.01094693	-0.06658968	0	0	0	0	0	0
34.00224	-0.01094693	-0.06658968	0	0	0	0	0	0
34.02642	-0.01097324	-0.06657045	-0.001088138	0.0007955464	-0.02285464	0.01670922	0	0
34.05008	-0.01097324	-0.06657045	0	0	0.02274167	-0.01662662	0	0
34.07245	-0.01094693	-0.06658968	0.00117648	-0.0008601345	0.02555791	-0.0186856	0	0
34.09497	-0.01094693	-0.06658968	0	0	-0.02620728	0.01916036	0	0
34.11889	-0.01094693	-0.06658968	0	0	0	0	0	0
34.14082	-0.01094693	-0.06658968	0	0	0	0	0	0
34.16172	-0.01094693	-0.06658968	0	0	0	0	0	0
34.18333	-0.01094693	-0.06658968	0	0	0	0	0	0
34.20594	-0.01094693	-0.06658968	0	0	0	0	0	0
34.22717	-0.01094693	-0.06658968	0	0	0	0	0	0
34.24937	-0.01094693	-0.06658968	0	0	0	0	0	0
34.27133	-0.01094693	-0.06658968	0	0	0	0	0	0
34.29444	-0.01094693	-0.06658968	0	0	0	0	0	0
34.31761	-0.01094693	-0.06658968	0	0	0	0	0	0
34.33945	-0.01094693	-0.06658968	0	0	0	0	0	0
34.3614	-0.01094693	-0.06658968	0	0	0	0	0	0
34.38411	-0.01094693	-0.06658968	0	0	0	0	0	0
34.4074	-0.01094693	-0.06658968	0	0	0	0	0	0
34.42904	-0.01094693	-0.06658968	0	0	0	0	0	0
34.45095	-0.01092062	-0.06660892	0.001200854	-0.0008779542	0.02757262	-0.02015857	0	0
34.47467	-0.01092062	-0.06660892	0	0	-0.02631859	0.01924174	0	0
34.49951	-0.01089431	-0.06662816	0.001059393	-0.0007745306	0.02181909	-0.01595212	0	0
34.52291	-0.01089431	-0.06662816	0	0	-0.02195884	0.01605429	0	0
34.54591	-0.01089431	-0.06662816	0	0	0	0	0	0
34.56861	-0.01089431	-0.06662816	0	0	0	0	0	0
34.59045	-0.01089431	-0.06662816	0	0	0	0	0	0
34.6127	-0.01089431	-0.06662816	0	0	0	0	0	0
34.63504	-0.01089431	-0.06662816	0	0	0	0	0	0
34.6565	-0.01089431	-0.06662816	0	0	0	0	0	0
34.6931	-0.01089431	-0.06662816	0	0	0	0	0	0
34.71479	-0.01089431	-0.06662816	0	0	0	0	0	0
34.73735	-0.01089431	-0.06662816	0	0	0	0	0	0
34.75897	-0.01089431	-0.06662816	0	0	0	0	0	0
34.7793	-0.01089431	-0.06662816	0	0	0	0	0	0
34.80103	-0.01092062	-0.06660892	-0.001210761	0.0008851973	-0.02878332	0.02104372	0	0
34.82442	-0.01092062	-0.06660892	0	0	0.02683637	-0.01962029	0	0
34.84753	-0.01094693	-0.06658968	-0.001138235	0.000832173	-0.02447757	0.01789575	0	0
34.86975	-0.01094693	-0.06658968	0	0	0.02510784	-0.01835654	0	0
34.89111	-0.01094693	-0.06658968	0	0	0	0	0	0
34.91331	-0.01094693	-0.06658968	0	0	0	0	0	0
34.93555	-0.01094693	-0.06658968	0	0	0	0	0	0
34.95827	-0.01094693	-0.06658968	0	0	0	0	0	0
34.97937	-0.01092062	-0.06660892	0.001246874	-0.0009115995	0.02845729	-0.02080536	0	0
35.00052	-0.01089431	-0.06662816	0.00124395	-0.0009094623	-6.917906E-05	5.05784E-05	0	0
35.02625	-0.01089431	-0.06662816	0	0	-0.02653545	0.01940028	0	0
35.06188	-0.01092062	-0.0666474	-0.0007385123	-0.0005399324	-0.01203659	-0.008800052	0	0
35.08504	-0.01089431	-0.06666664	0.001135799	-0.0008307133	0.03187824	-0.004945596	0	0
35.10781	-0.01086799	-0.06668588	0.001155975	-0.0008451431	0.0004393036	-0.0003141764	0	0
35.13115	-0.01078906	-0.06674359	0.003381781	-0.002472447	0.04827746	-0.03529605	0	0
35.15377	-0.0106838	-0.06682055	0.004652009	-0.003401421	0.02763342	-0.02020953	0	0
35.17729	-0.01057855	-0.0668975	0.004475397	-0.003272316	-0.003827534	0.002797959	0	0
35.19857	-0.0102628	-0.0671284	0.01483661	-0.01084914	0.231278	-0.1691262	0	0
35.22029	-0.009526027	-0.06766721	0.03392585	-0.02481049	0.4439435	-0.324688	0	0
35.24615	-0.007236716	-0.06934203	0.08854076	-0.064775	1.148021	-0.8400655	0	0
35.28172	-0.00726303	-0.06936129	-0.0007397527	-0.0005414293	-1.453416	1.045671	0	0
35.30146	-0.00726303	-0.06936129	0	0	0.01337299	0.009787769	0	0
35.32322	-0.00726303	-0.06936129	0	0	0	0	0	0
35.34497	-0.007210401	-0.06943832	0.002419146	-0.003540489	0.0555992	-0.08137102	0	0
35.36701	-0.0070262	-0.06957312	0.008358531	-0.006116997	0.1356249	-0.05883417	0	0
35.38867	-0.006841999	-0.06974645	0.008504289	-0.008002378	0.003335637	-0.04314634	0	0
35.41147	-0.004447339	-0.07149961	0.1050444	-0.0769043	2.171566	-1.549873	0	0
35.43479	0.004394709	-0.07802103	0.3791738	-0.2796582	5.944361	-4.396619	0	0
35.45582	0.01281509	-0.08420945	0.4003904	-0.2942604	0.4783916	-0.3292519	0	0
35.4799	0.03456518	-0.1003078	0.9030179	-0.6683715	11.14068	-8.292126	0	0
35.50422	0.04557369	-0.108482	0.4526768	-0.3361284	-9.303667	6.863862	0	0
35.52697	0.05127082	-0.1127257	0.2504979	-0.1865886	-4.296018	3.177511	0	0
35.54863	0.05866943	-0.118251	0.3415821	-0.2550968	2.051302	-1.542869	0	0
35.57033	0.06375558	-0.1220592	0.234365	-0.1754771	-2.472622	1.836177	0	0
35.59325	0.0656948	-0.1235133	0.08459901	-0.06343642	-3.356152	2.510753	0	0
35.63738	0.06564239	-0.1235526	-0.001187611	-0.0008909613	-1.279425	0.9328051	0	0
35.66032	0.06527555	-0.1239065	-0.01599036	-0.01542365	-0.2207059	-0.2166794	0	0
35.68501	0.06467284	-0.1244373	-0.02441602	-0.0215052	-0.1769113	-0.1276927	0	0
35.75309	0.02315376	-0.164587	-0.6097809	-0.5896681	-6.309617	-6.124198	0	0
35.77486	0.0145516	-0.181064	-0.3952677	-0.7571169	2.387422	-1.863619	0	0
35.7971	0.007552488	-0.1917657	-0.3147129	-0.4812004	1.830685	6.270467	0	0
35.81978	0.002157891	-0.2009545	-0.237834	-0.4051076	1.711392	1.693893	0	0
35.85268	-0.006894628	-0.2116327	-0.2751378	-0.3245503	-0.6711246	1.44929	0	0
35.87467	-0.01289402	-0.2163369	-0.2728023	-0.2139053	0.04254528	2.01563	0	0
35.89594	-0.01397278	-0.2171766	-0.05072441	-0.0394822	5.13372	4.032096	0	0
35.91856	-0.01394646	-0.2171561	0.001163106	0.0009050907	1.182269	0.9202335	0	0
35.94106	-0.01389384	-0.2171151	0.002338832	0.001820665	0.02605764	0.02029187	0	0
35.96285	-0.01384122	-0.2170741	0.002414992	0.001880635	0.001719614	0.001354076	0	0
35.98474	-0.0137886	-0.2170741	0.002404049	0	-0.000250532	-0.04305652	0	0
36.00683	-0.01373598	-0.2171151	0.002381636	-0.001854659	-0.000509588	-0.0421672	0	0
36.03032	-0.01344656	-0.2172995	0.0123225	-0.007849297	0.2180884	-0.1315138	0	0
36.0518	-0.01007861	-0.2198822	0.1568186	-0.1202577	3.213606	-2.499973	0	0
36.07435	-0.001131578	-0.2267853	0.3966531	-0.3060398	5.446693	-4.219151	0	0
36.09631	0.006841999	-0.2330305	0.3632016	-0.2844714	-0.7515514	0.4845752	0	0
36.1183	0.02260141	-0.2454337	0.7164822	-0.5638956	8.038399	-6.357901	0	0
36.14005	0.03141072	-0.2524043	0.4050703	-0.3205215	-7.119105	5.56371	0	0
36.16221	0.04179144	-0.2606553	0.4684533	-0.3723465	1.443569	-1.180332	0	0
36.18407	0.04848828	-0.2660007	0.3063761	-0.2445476	-3.682083	2.903347	0	0
36.20718	0.05384265	-0.2702457	0.2316579	-0.1836601	-1.661458	1.353913	0	0
36.23018	0.05714823	-0.2728562	0.1437047	-0.1134885	-1.907223	1.521637	0	0
36.25235	0.06257609	-0.2772222	0.2448597	-0.1969554	2.239439	-1.847845	0	0
36.2751	0.06737157	-0.2810481	0.2108179	-0.1681934	-0.7579283	0.6403748	0	0
36.29741	0.07357746	-0.2860272	0.2780919	-0.2231183	1.492887	-1.218846	0	0
36.32046	0.0753047	-0.2874279	0.07493962	-0.06077509	-4.478234	3.57865	0	0
36.34382	0.08249655	-0.2929779	0.3078545	-0.2375707	5.018678	-3.809461	0	0
36.36642	0.08887056	-0.2980534	0.2820095	-0.2245622	-0.5622964	0.2830178	0	0
36.3885	0.09330722	-0.3016875	0.2010102	-0.1646485	-1.813123	1.341135	0	0
36.41285	0.0964107	-0.3042358	0.1274172	-0.1046214	-1.585077	1.292888	0	0
36.43758	0.09638463	-0.3042144	-0.001054464	0.0008667161	-2.617602	2.149315	0	0
36.46143	0.09628034	-0.3041715	-0.004372276	0.001796638	-0.06830097	0.0191435	0	0
36.48415	0.09625427	-0.3041501	-0.001147604	0.0009432724	0.0692438	-0.01832443	0	0
36.50727	0.0961239	-0.3040429	-0.005637707	0.004633114	-0.09794903	0.0804918	0	0
36.52965	0.09575886	-0.303743	-0.01631044	0.01340123	-0.2345371	0.1926824	0	0
36.55219	0.09562848	-0.3036359	-0.005784992	0.00475256	0.2343256	-0.1925432	0	0
36.57528	0.09557633	-0.3036359	-0.002258371	0	0.07729141	-0.1041598	0	0
36.59728	0.09552418	-0.303593	-0.002370297	0.001947707	-0.002482088	0.0431926	0	0
36.61911	0.0954981	-0.3035716	-0.001194676	0.0009816826	0.02682176	-0.02203982	0	0
36.64074	0.0954981	-0.3035716	0	0	0.02748857	-0.02258775	0	0
36.66479	0.0954981	-0.3035716	0	0	0	0	0	0
36.68792	0.0954981	-0.3035716	0	0	0	0	0	0
36.71413	0.0954981	-0.3035716	0	0	0	0	0	0
36.75821	0.0954981	-0.3035716	0	0	0	0	0	0
36.78206	0.0954981	-0.3035716	0	0	0	0	0	0
36.8052	0.0954981	-0.3035716	0	0	0	0	0	0
36.82692	0.0954981	-0.3035716	0	0	0	0	0	0
36.84952	0.09547202	-0.3035502	-0.001153745	0.0009480485	-0.02603489	0.02139324	0	0
36.87028	0.09547202	-0.3035502	0	0	0.02660748	-0.02186375	0	0
36.90285	0.09547202	-0.3035502	0	0	0	0	0	0
36.92432	0.09544595	-0.3035288	-0.00121463	0.0009966907	-0.02247691	0.01844391	0	0
36.94675	0.09539379	-0.3034859	-0.002325149	0.001910608	-0.02529682	0.02081838	0	0
36.96968	0.09536771	-0.3034645	-0.001137238	0.0009344847	0.02618818	-0.0215192	0	0
36.99139	0.09528948	-0.3034002	-0.003602918	0.002959197	-0.05523057	0.04535301	0	0
37.01249	0.09528948	-0.3034002	0	0	0.08415606	-0.06912018	0	0
37.03613	0.09528948	-0.3034002	0	0	0	0	0	0
37.05888	0.09528948	-0.3034002	0	0	0	0	0	0
37.0835	0.09528948	-0.3034002	0	0	0	0	0	0
37.10586	0.09528948	-0.3034002	0	0	0	0	0	0
37.12767	0.09521125	-0.303336	-0.003586536	0.002945741	-0.08119776	0.06669042	0	0
37.14948	0.09411586	-0.3023939	-0.05023625	0.04320794	-1.069524	0.9230797	0	0
37.17274	0.08419522	-0.2941495	-0.4264737	0.3544105	-8.348433	6.905356	0	0
37.19464	0.06834078	-0.2808153	-0.7238151	0.6087573	-6.5833	5.631376	0	0
37.21563	0.0540788	-0.2692151	-0.6795152	0.5526968	1.032815	-1.307003	0	0
37.23752	0.03004359	-0.2500294	-1.098063	0.8765086	-9.761551	7.552075	0	0
37.25916	0.008394539	-0.2329686	-1.000559	0.7885039	2.24016	-2.021901	0	0
37.28035	-0.006078872	-0.2216469	-0.6827638	0.5340857	7.419006	-5.939462	0	0
37.30498	-0.02078648	-0.2102031	-0.5972906	0.4647421	1.865325	-1.513321	0	0
37.32826	-0.03314575	-0.1998164	-0.5307846	0.4460702	1.388179	-0.3897386	0	0
37.34974	-0.04208041	-0.1871758	-0.4160892	0.5886779	2.562577	3.186206	0	0
37.37445	-0.04575751	-0.1746074	-0.1488008	0.5086036	5.7874	-1.733789	0	0
37.39655	-0.04935462	-0.1571003	-0.1627197	0.7919536	-0.2973002	6.052188	0	0
37.41948	-0.0513758	-0.1326901	-0.08817438	1.064903	1.655508	6.06167	0	0
37.45461	-0.05313415	-0.1227076	-0.05005325	0.2841628	0.6566713	-13.44896	0	0
37.47646	-0.0534228	-0.1160551	-0.01320575	0.3043449	0.6465862	0.354148	0	0
37.50069	-0.05617767	-0.1120407	-0.1136919	0.1656716	-2.180255	-3.008806	0	0
37.52328	-0.057122	-0.1113364	-0.04181601	0.03118765	1.535351	-2.87273	0	0
37.54502	-0.05730561	-0.1111995	-0.008442701	0.006296182	0.7528279	-0.5614963	0	0
37.56678	-0.05733184	-0.1111799	-0.001205466	0.0008988347	0.1663479	-0.1240581	0	0
37.58937	-0.05741053	-0.1110821	-0.003483271	0.004329394	-0.05136013	0.07735253	0	0
37.63125	-0.05727938	-0.1107497	0.003131993	0.007940253	0.1026186	0.05601308	0	0
37.66064	-0.05717446	-0.1106323	0.003569028	0.003991664	0.006132107	-0.05540325	0	0
37.69701	-0.05612521	-0.1098111	0.0288531	0.02258253	0.384481	0.2827012	0	0
37.71925	-0.04940713	-0.1047722	0.3021279	0.2266121	4.663282	3.481651	0	0
37.74119	-0.04176517	-0.09906153	0.3482776	0.260259	1.044631	0.7616213	0	0
37.76268	-0.038008	-0.09627894	0.174817	0.129471	-3.993647	-3.01118	0	0
37.78467	-0.02754566	-0.08851097	0.4758224	0.3532839	6.922859	5.1475	0	0
37.80641	-0.02128626	-0.08386098	0.2878711	0.2138538	-4.297828	-3.188307	0	0
37.8297	-0.01757714	-0.08113282	0.1592929	0.1171641	-2.855473	-2.147291	0	0
37.85276	-0.01410433	-0.07858128	0.1505501	0.1106121	-0.1886162	-0.1413538	0	0
37.87273	-0.01407802	-0.0786006	0.001317772	-0.0009676066	-3.467809	-2.59285	0	0
37.89432	-0.01410433	-0.07858128	-0.001218589	0.0008947797	-0.06103285	0.04481489	0	0
37.918	-0.01418326	-0.07852332	-0.00333356	0.002448093	-0.04672005	0.03431295	0	0
37.93914	-0.01426219	-0.07846536	-0.003732889	0.002740999	-0.008909091	0.006534782	0	0
37.96084	-0.0142885	-0.07844604	-0.001212548	0.000890375	0.05882756	-0.04319563	0	0
37.99321	-0.01426219	-0.07846536	0.000812843	-0.0005968713	0.03746166	-0.02750813	0	0
38.01698	-0.01426219	-0.07846536	0	0	-0.01447862	0.01063167	0	0
38.04102	-0.01426219	-0.07846536	0	0	0	0	0	0
38.06349	-0.01423588	-0.07848468	0.001170806	-0.0008596933	0.02517386	-0.01848453	0	0
38.0863	-0.01423588	-0.07848468	0	0	-0.02585676	0.01898597	0	0
38.1077	-0.01420957	-0.078504	0.00122945	-0.0009027545	0.02781026	-0.02042037	0	0
38.13013	-0.01420957	-0.07854263	0	-0.001722896	-0.02805232	-0.01871313	0	0
38.15372	-0.01423588	-0.07856196	-0.001115152	-0.0008191441	-0.02423164	0.01963803	0	0
38.17591	-0.01423588	-0.07856196	0	0	0.02435681	0.01789149	0	0
38.19811	-0.01420957	-0.07858128	0.001185292	-0.0008703305	0.0267031	-0.01960742	0	0
38.21994	-0.01423588	-0.0786006	-0.001205386	-0.0008850844	-0.05430222	-0.0003351235	0	0
38.24173	-0.01423588	-0.0786006	0	0	0.02763311	0.0202903	0	0
38.31216	-0.01434112	-0.07863924	-0.001494265	-0.0005486056	-0.01620254	-0.005948613	0	0
38.33529	-0.01431481	-0.07865857	0.001137404	-0.0008354891	0.02812722	-0.003066204	0	0
38.35706	-0.01431481	-0.07865857	0	0	-0.02533035	0.01860661	0	0
