Time	Pos X	Pos Y	Vel X	Vel Y	Acc X	Acc YForce X	Force Y
0.01656752	-0.04533733	-0.1386161	0.0006867251	0.002099619	-1.040444E-05	-3.181094E-05	0	0
0.05371645	-0.04531107	-0.1386358	0.0007068729	-0.0005322856	-3.053512E-07	3.988794E-05	0	0
0.07028635	-0.04531107	-0.1386358	0	0	-0.01315876	0.009908735	0	0
0.08704809	-0.04531107	-0.1386358	0	0	0	0	0	0
0.103569	-0.04531107	-0.1386358	0	0	0	0	0	0
0.1199854	-0.04531107	-0.1386754	0	-0.002409952	0	-0.07316794	0	0
0.1365762	-0.04531107	-0.1386754	0	0	0	0.07301305	0	0
0.1677118	-0.04531107	-0.1386754	0	0	0	0	0	0
0.1842793	-0.04531107	-0.1386754	0	0	0	0	0	0
0.200846	-0.04528481	-0.1386952	0.001585303	-0.001193587	0.04784481	-0.03602273	0	0
0.217414	-0.04528481	-0.1386952	0	0	-0.04784425	0.03602231	0	0
0.2339795	-0.04528481	-0.1386952	0	0	0	0	0	0
0.2506959	-0.04528481	-0.1386952	0	0	0	0	0	0
0.2671126	-0.04528481	-0.1386952	0	0	0	0	0	0
0.2836793	-0.04528481	-0.1386952	0	0	0	0	0	0
0.3002464	-0.04528481	-0.1386952	0	0	0	0	0	0
0.3172079	-0.04528481	-0.1386952	0	0	0	0	0	0
0.333389	-0.04528481	-0.1386952	0	0	0	0	0	0
0.3499462	-0.04528481	-0.1386952	0	0	0	0	0	0
0.3665126	-0.04528481	-0.1386952	0	0	0	0	0	0
0.3830793	-0.04528481	-0.1386952	0	0	0	0	0	0
0.399646	-0.04528481	-0.1386952	0	0	0	0	0	0
0.4162132	-0.04528481	-0.1386952	0	0	0	0	0	0
0.4327842	-0.04528481	-0.1386952	0	0	0	0	0	0
0.4493474	-0.04528481	-0.1386952	0	0	0	0	0	0
0.4663085	-0.04528481	-0.1386952	0	0	0	0	0	0
0.4824793	-0.04525855	-0.138715	0.001623888	-0.001222812	0.04901284	-0.03690738	0	0
0.4990468	-0.04525855	-0.138715	0	0	-0.04960205	0.03735107	0	0
0.5156132	-0.04525855	-0.138715	0	0	0	0	0	0
0.53218	-0.04525855	-0.138715	0	0	0	0	0	0
0.5487467	-0.04525855	-0.138715	0	0	0	0	0	0
0.5653794	-0.04525855	-0.138715	0	0	0	0	0	0
0.5818802	-0.04525855	-0.138715	0	0	0	0	0	0
0.5984465	-0.04525855	-0.138715	0	0	0	0	0	0
0.6154147	-0.04525855	-0.138715	0	0	0	0	0	0
0.6315812	-0.04525855	-0.138715	0	0	0	0	0	0
0.6481471	-0.04525855	-0.138715	0	0	0	0	0	0
0.664713	-0.04525855	-0.138715	0	0	0	0	0	0
0.6812798	-0.04525855	-0.138715	0	0	0	0	0	0
0.7144129	-0.04525855	-0.138715	0	0	0	0	0	0
0.7309989	-0.04525855	-0.138715	0	0	0	0	0	0
0.7489319	-0.04528481	-0.1386952	-0.001464315	0.00110265	-0.04242045	0.03194322	0	0
0.7655208	-0.04528481	-0.1386952	0	0	0.042417	-0.03194062	0	0
0.7820658	-0.04525855	-0.1386754	0.001587161	0.001195155	0.04790147	0.0360705	0	0
0.819407	-0.04525855	-0.1386754	0	0	-0.02945395	-0.02217926	0	0
0.8360716	-0.04525855	-0.1386754	0	0	0	0	0	0
0.8525815	-0.04525855	-0.1386754	0	0	0	0	0	0
0.8691076	-0.04525855	-0.1386754	0	0	0	0	0	0
0.8856744	-0.04525855	-0.1386754	0	0	0	0	0	0
0.9022403	-0.04525855	-0.1386754	0	0	0	0	0	0
0.918807	-0.04525855	-0.1386754	0	0	0	0	0	0
0.9353753	-0.04525855	-0.1386754	0	0	0	0	0	0
0.9519405	-0.04525855	-0.1386754	0	0	0	0	0	0
0.9685076	-0.04525855	-0.1386754	0	0	0	0	0	0
0.9850739	-0.04525855	-0.1386754	0	0	0	0	0	0
1.001686	-0.04525855	-0.1386754	0	0	0	0	0	0
1.018207	-0.04525855	-0.1386754	0	0	0	0	0	0
1.034775	-0.04525855	-0.1386754	0	0	0	0	0	0
1.051343	-0.04525855	-0.1386754	0	0	0	0	0	0
1.068235	-0.04525855	-0.1386754	0	0	0	0	0	0
1.084474	-0.04525855	-0.1386754	0	0	0	0	0	0
1.101043	-0.04528481	-0.1386556	-0.001584894	0.001193448	-0.04830788	0.03637654	0	0
1.11777	-0.04528481	-0.1386556	0	0	0.04760066	-0.03584399	0	0
1.134287	-0.04528481	-0.1386556	0	0	0	0	0	0
1.150793	-0.04528481	-0.1386556	0	0	0	0	0	0
1.167318	-0.04528481	-0.1386556	0	0	0	0	0	0
1.183874	-0.04528481	-0.1386556	0	0	0	0	0	0
1.200441	-0.04528481	-0.1386556	0	0	0	0	0	0
1.283389	-0.04528481	-0.1386556	0	0	0	0	0	0
1.29984	-0.04528481	-0.1386556	0	0	0	0	0	0
1.31641	-0.04531107	-0.1386358	-0.001585073	0.001194313	-0.04800201	0.03616833	0	0
1.332974	-0.04533733	-0.1386161	-0.00158527	0.001193732	-5.951843E-06	-1.754986E-05	0	0
1.349542	-0.04536359	-0.1385963	-0.001585187	0.0011935	2.508718E-06	-6.999113E-06	0	0
1.366446	-0.04536359	-0.1385567	0	0.002340494	0.04735936	0.03426781	0	0
1.382676	-0.04536359	-0.1385567	0	0	0	-0.07063751	0	0
1.399241	-0.04536359	-0.1385567	0	0	0	0	0	0
1.415807	-0.04536359	-0.1385567	0	0	0	0	0	0
1.432374	-0.04536359	-0.1385567	0	0	0	0	0	0
1.449009	-0.04536359	-0.1385567	0	0	0	0	0	0
1.465516	-0.04536359	-0.1385567	0	0	0	0	0	0
1.515208	-0.04536359	-0.1385963	0	-0.000796165	0	-0.01202692	0	0
1.531774	-0.04533733	-0.1386161	0.001585301	-0.001193586	0.02392612	-0.005998063	0	0
1.548578	-0.04533733	-0.1386161	0	0	-0.04750574	0.03576744	0	0
1.56491	-0.04531107	-0.1385963	0.001607916	0.001210784	0.0485256	0.03654049	0	0
1.581598	-0.04536359	-0.1385567	-0.003147278	0.002370671	-0.1440105	0.03512704	0	0
1.598042	-0.04536359	-0.1385567	0	0	0.09499119	-0.07155163	0	0
1.614608	-0.04533733	-0.138537	0.001585381	0.001193646	0.04802747	0.03616025	0	0
1.631174	-0.04533733	-0.1384974	0	0.002387223	-0.04785	0.03602456	0	0
1.647743	-0.04533733	-0.1384974	0	0	0	-0.07204602	0	0
1.664657	-0.04533733	-0.1384974	0	0	0	0	0	0
1.682603	-0.04533733	-0.1384974	0	0	0	0	0	0
1.699171	-0.04533733	-0.1384974	0	0	0	0	0	0
1.715738	-0.04531107	-0.1385172	0.001585111	-0.001193612	0.04783839	-0.03602301	0	0
1.732305	-0.04531107	-0.1385172	0	0	-0.0478396	0.03602391	0	0
1.748873	-0.04531107	-0.1385172	0	0	0	0	0	0
1.765437	-0.04531107	-0.1385172	0	0	0	0	0	0
1.78224	-0.04531107	-0.1385172	0	0	0	0	0	0
1.798571	-0.04528481	-0.1384974	0.001608179	0.001210811	0.04853634	0.03654339	0	0
1.815263	-0.04528481	-0.1384974	0	0	-0.04869876	-0.03666568	0	0
1.831704	-0.04523228	-0.1384579	0.003194514	0.002405345	0.0964134	0.07259554	0	0
1.848287	-0.04520602	-0.1384381	0.001583831	0.001193377	-0.04877352	-0.03669992	0	0
1.864838	-0.04517976	-0.1384183	0.001586515	0.001194669	8.099636E-05	3.89786E-05	0	0
1.881404	-0.04512724	-0.1383788	0.003170762	0.002387292	0.04783695	0.0360117	0	0
1.897971	-0.0451535	-0.138359	-0.001585301	0.001193586	-0.143546	-0.03602806	0	0
1.914538	-0.0451535	-0.138359	0	0	0.04784535	-0.03602314	0	0
1.931345	-0.0451535	-0.138359	0	0	0	0	0	0
1.947856	-0.0451535	-0.138359	0	0	0	0	0	0
1.964372	-0.0451535	-0.138359	0	0	0	0	0	0
1.980804	-0.0451535	-0.138359	0	0	0	0	0	0
1.997392	-0.0451535	-0.138359	0	0	0	0	0	0
2.013938	-0.0451535	-0.138359	0	0	0	0	0	0
2.030504	-0.0451535	-0.138359	0	0	0	0	0	0
2.047074	-0.0451535	-0.138359	0	0	0	0	0	0
2.063639	-0.0451535	-0.138359	0	0	0	0	0	0
2.080449	-0.0451535	-0.138359	0	0	0	0	0	0
2.096771	-0.0451535	-0.138359	0	0	0	0	0	0
2.113477	-0.0451535	-0.138359	0	0	0	0	0	0
2.129904	-0.04517976	-0.1383392	-0.001598761	0.00120372	-0.04825245	0.03632965	0	0
2.146496	-0.04517976	-0.1383392	0	0	0.04841899	-0.03645504	0	0
2.16304	-0.04517976	-0.1383392	0	0	0	0	0	0
2.179604	-0.0451535	-0.1383194	0.001585575	0.001193792	0.04789135	0.03605777	0	0
2.196171	-0.0451535	-0.1383194	0	0	-0.04785826	-0.03603286	0	0
2.212738	-0.0451535	-0.1383194	0	0	0	0	0	0
2.229304	-0.0451535	-0.1383194	0	0	0	0	0	0
2.246067	-0.0451535	-0.1383194	0	0	0	0	0	0
2.262439	-0.0451535	-0.138359	0	-0.002415433	0	-0.07289632	0	0
2.279091	-0.0451535	-0.138359	0	0	0	0.07314157	0	0
2.295601	-0.0451535	-0.138359	0	0	0	0	0	0
2.362149	-0.0451535	-0.1383194	0	0.0005942742	0	0.00715492	0	0
2.378405	-0.0451535	-0.1383194	0	0	0	-0.007176881	0	0
2.395172	-0.0451535	-0.1383194	0	0	0	0	0	0
2.429268	-0.0451535	-0.1383194	0	0	0	0	0	0
2.446208	-0.04517976	-0.1383392	-0.001550383	-0.001167295	-0.03037829	-0.02287205	0	0
2.4624	-0.04517976	-0.1383392	0	0	0.04679401	0.03523158	0	0
2.479234	-0.04517976	-0.1383392	0	0	0	0	0	0
2.495533	-0.04517976	-0.1383392	0	0	0	0	0	0
2.512255	-0.04517976	-0.1383392	0	0	0	0	0	0
2.528666	-0.04517976	-0.1383392	0	0	0	0	0	0
2.545234	-0.04517976	-0.1383392	0	0	0	0	0	0
2.561801	-0.04517976	-0.1383392	0	0	0	0	0	0
2.578805	-0.04517976	-0.1383392	0	0	0	0	0	0
2.594933	-0.04517976	-0.1383392	0	0	0	0	0	0
2.611501	-0.04517976	-0.1383392	0	0	0	0	0	0
2.628067	-0.04517976	-0.1383392	0	0	0	0	0	0
2.644848	-0.04517976	-0.1383392	0	0	0	0	0	0
2.661199	-0.0451535	-0.138359	0.001606198	-0.001209319	0.04847898	-0.0365002	0	0
2.677874	-0.0451535	-0.138359	0	0	-0.04863402	0.03661693	0	0
2.694388	-0.0451535	-0.138359	0	0	0	0	0	0
2.7109	-0.0451535	-0.138359	0	0	0	0	0	0
2.727466	-0.0451535	-0.138359	0	0	0	0	0	0
2.744033	-0.0451535	-0.138359	0	0	0	0	0	0
2.760599	-0.0451535	-0.138359	0	0	0	0	0	0
2.777169	-0.0451535	-0.138359	0	0	0	0	0	0
2.793954	-0.0451535	-0.138359	0	0	0	0	0	0
2.8103	-0.0451535	-0.138359	0	0	0	0	0	0
2.826866	-0.0451535	-0.138359	0	0	0	0	0	0
2.843434	-0.0451535	-0.138359	0	0	0	0	0	0
2.86	-0.0451535	-0.138359	0	0	0	0	0	0
2.876568	-0.0451535	-0.138359	0	0	0	0	0	0
2.893133	-0.0451535	-0.138359	0	0	0	0	0	0
2.9097	-0.0451535	-0.138359	0	0	0	0	0	0
2.926266	-0.0451535	-0.138359	0	0	0	0	0	0
2.942833	-0.04512724	-0.1383788	0.001585301	-0.001193586	0.04784656	-0.03602405	0	0
2.9594	-0.0451535	-0.1383985	-0.001585256	-0.001193551	-0.09568898	1.039988E-06	0	0
2.976084	-0.0451535	-0.1383985	0	0	0.0476757	0.03589541	0	0
2.992533	-0.04512724	-0.1384183	0.00159656	-0.001202062	0.04818567	-0.03627936	0	0
3.009101	-0.04512724	-0.1384183	0	0	-0.04835511	0.03640694	0	0
3.025666	-0.04512724	-0.1384183	0	0	0	0	0	0
3.042236	-0.04512724	-0.1384183	0	0	0	0	0	0
3.058801	-0.04512724	-0.1383788	0	0.002387446	0	0.07205328	0	0
3.091934	-0.0451535	-0.138359	-0.0007926678	0.0005968058	-0.01594981	-0.0360307	0	0
3.127074	-0.04523228	-0.1382205	-0.002242017	0.003939352	-0.02122856	0.04895815	0	0
3.143703	-0.04528481	-0.1381019	-0.003158559	0.007134818	-0.01770429	0.06172488	0	0
3.160217	-0.04541612	-0.1380031	-0.007951461	0.005986155	-0.1446147	-0.03465824	0	0
3.176774	-0.04544238	-0.1379833	-0.001586215	0.001194273	0.1924719	-0.1448966	0	0
3.193343	-0.0454949	-0.1379437	-0.003170013	0.002386897	-0.04781152	0.03600277	0	0
3.209908	-0.04552116	-0.1379635	-0.001585259	-0.001193723	0.04782934	-0.1080664	0	0
3.226759	-0.04552116	-0.1379635	0	0	0.04743973	0.03572281	0	0
3.243041	-0.04552116	-0.1379635	0	0	0	0	0	0
3.276175	-0.04559994	-0.1380624	-0.002377727	-0.002983964	-0.04811694	-0.06038508	0	0
3.292808	-0.04562621	-0.1380821	-0.001578939	-0.001187899	0.01605055	0.03608946	0	0
3.309324	-0.04562621	-0.1381217	0	-0.002394581	0.04763157	-0.03640173	0	0
3.325874	-0.04562621	-0.1381217	0	0	0	0.07241814	0	0
3.342441	-0.04562621	-0.1381217	0	0	0	0	0	0
3.359008	-0.04557369	-0.1381217	0.003170378	0	0.09568495	0	0	0
3.375575	-0.04557369	-0.1381217	0	0	-0.09568357	0	0	0
3.392143	-0.04554743	-0.1381019	0.001584917	0.001193466	0.04783116	0.03601757	0	0
3.408889	-0.04554743	-0.1381019	0	0	-0.04757511	-0.03582476	0	0
3.4254	-0.04552116	-0.1380821	0.001590612	0.001197584	0.04782788	0.03600998	0	0
3.441913	-0.04544238	-0.1380228	0.004771041	0.003591591	0.09630638	0.07249278	0	0
3.458408	-0.04536359	-0.1379635	0.0047763	0.003596284	0.0001593452	0.0001421763	0	0
3.474975	-0.04510098	-0.1377658	0.01585257	0.0119344	0.3350201	0.2522002	0	0
3.491543	-0.04462824	-0.1373704	0.02853169	0.02386357	0.3826511	0.3600178	0	0
3.508108	-0.04315739	-0.1362637	0.0887934	0.06681072	1.818754	1.296185	0	0
3.524675	-0.04215921	-0.1354735	0.06025202	0.04769846	-0.8614548	-0.5768591	0	0
3.541483	-0.04213295	-0.1354537	0.001562744	0.001175549	-1.758479	-1.393944	0	0
3.557809	-0.04215921	-0.1354735	-0.001608912	-0.001210278	-0.09572146	-0.07200491	0	0
3.574377	-0.04218549	-0.1354537	-0.001585637	0.0011926	0.0007075861	0.07304937	0	0
3.59102	-0.04223802	-0.1354142	-0.00315683	0.00237361	-0.04731011	0.03556132	0	0
3.60752	-0.04231683	-0.135355	-0.004775911	0.003590625	-0.04885131	0.03672007	0	0
3.624076	-0.04268458	-0.1350785	-0.02221288	0.01670033	-0.5274898	0.3965848	0	0
3.640642	-0.043315	-0.1346046	-0.03805395	0.0286082	-0.47826	0.3595123	0	0
3.65721	-0.04360392	-0.1343874	-0.01743936	0.01310909	0.6221629	-0.4677743	0	0
3.673777	-0.04360392	-0.1343874	0	0	0.5263247	-0.3956359	0	0
3.690344	-0.04363019	-0.1343676	-0.001585481	0.001191752	-0.04785059	0.03596768	0	0
3.707102	-0.04370899	-0.1343084	-0.00470215	0.003533726	-0.09352358	0.07027687	0	0
3.723614	-0.04384031	-0.1342097	-0.007953282	0.005978724	-0.09772069	0.07349035	0	0
3.740044	-0.04405043	-0.1340518	-0.01278821	0.009611338	-0.1467676	0.1102705	0	0
3.75664	-0.04420802	-0.1338938	-0.009495586	0.009515788	0.09969592	-0.002893113	0	0
3.773175	-0.04433934	-0.1337952	-0.007941933	0.00596856	0.0468944	-0.1070671	0	0
3.807634	-0.05313415	-0.1271917	-0.2552263	0.1916319	-4.849291	3.640892	0	0
3.8242	-0.05717446	-0.1241621	-0.2438913	0.1828847	0.2221467	-0.1714307	0	0
3.840773	-0.06469905	-0.1185257	-0.4540345	0.3401017	-6.341313	4.744206	0	0
3.857333	-0.06930985	-0.1150754	-0.2784291	0.2083467	5.300049	-3.976576	0	0
3.873899	-0.07266133	-0.1125691	-0.2023098	0.151292	2.297862	-1.722349	0	0
3.890468	-0.07268751	-0.1125495	-0.001580127	0.001181273	6.057904	-4.530252	0	0
3.907036	-0.07266133	-0.1125691	0.001580241	-0.001181358	0.09537253	-0.0712987	0	0
3.923599	-0.07263515	-0.1126278	0.001580246	-0.003544644	1.546061E-07	-0.07133131	0	0
3.940267	-0.0725828	-0.112667	0.003141092	-0.002348555	0.04696956	0.03599316	0	0
3.956778	-0.07255661	-0.1126865	0.001585717	-0.001185452	-0.0468789	0.03505585	0	0
3.973301	-0.07253044	-0.1127061	0.001584099	-0.001184129	-4.897861E-05	4.005899E-05	0	0
3.990302	-0.07250426	-0.1127257	0.001539996	-0.001151272	-0.001315577	0.000980108	0	0
4.006441	-0.07250426	-0.1127257	0	0	-0.04646948	0.03473971	0	0
4.022998	-0.07250426	-0.1127257	0	0	0	0	0	0
4.039568	-0.07247809	-0.1127061	0.001579586	0.001181205	0.04768161	0.03565602	0	0
4.056133	-0.07250426	-0.1126865	-0.001580087	0.001181129	-0.09535775	-2.287204E-06	0	0
4.072699	-0.0724519	-0.1125691	0.003160532	0.00708882	0.1430907	0.1783176	0	0
4.138965	-0.05373769	-0.09855539	0.2824103	0.2114766	3.371304	2.467516	0	0
4.155531	-0.04846203	-0.09464578	0.3184488	0.2359909	0.4350757	0.2959486	0	0
4.172098	-0.04391911	-0.09132425	0.2742189	0.2004941	-1.334899	-1.071326	0	0
4.188665	-0.04334126	-0.09089721	0.03487978	0.02577678	-7.223477	-5.27313	0	0
4.205232	-0.04336753	-0.09095544	-0.001585301	-0.003514647	-1.10055	-0.8840423	0	0
4.221798	-0.04339379	-0.09101367	-0.001585572	-0.003515198	-8.165543E-06	-1.662623E-05	0	0
4.238476	-0.04349886	-0.09116895	-0.006299632	-0.009310849	-0.1418013	-0.1743361	0	0
4.254931	-0.04363019	-0.09134366	-0.00798093	-0.01061649	-0.05074312	-0.03940539	0	0
4.271498	-0.04365645	-0.0914019	-0.001585301	-0.003515546	0.1936754	0.2150341	0	0
4.288064	-0.04368272	-0.09138248	-0.001585572	0.001172032	-8.165543E-06	0.1414775	0	0
4.304631	-0.04368272	-0.09134366	0	0.002343548	0.04785472	0.03535792	0	0
4.321199	-0.04370899	-0.09132425	-0.001585435	0.001171482	-0.04784852	-0.03537302	0	0
4.337765	-0.04373525	-0.09130483	-0.001585393	0.001172066	1.278922E-06	1.764491E-05	0	0
4.354557	-0.04378778	-0.09126601	-0.003128239	0.00231207	-0.04625103	0.03417474	0	0
4.370898	-0.04381405	-0.0912466	-0.00160741	0.001187719	0.04590003	-0.03393397	0	0
4.38758	-0.04381405	-0.09120777	0	0.002327337	0.04867494	0.03450945	0	0
4.404031	-0.04381405	-0.09120777	0	0	0	-0.0702422	0	0
4.420604	-0.04373525	-0.0910719	0.004754575	0.008198675	0.1439741	0.2482654	0	0
4.437165	-0.04336753	-0.09076136	0.02220478	0.0187518	0.5266632	0.3185031	0	0
4.453732	-0.04244817	-0.09008216	0.05549409	0.04099747	1.004891	0.6715205	0	0
4.470298	-0.03774522	-0.08661126	0.2838868	0.2095163	6.893205	5.086128	0	0
4.48715	-0.03198908	-0.0823321	0.3415624	0.2539202	1.72585	1.328714	0	0
4.503662	-0.02381129	-0.07636027	0.4952662	0.3616677	4.606833	3.229425	0	0
4.553197	-0.007447231	-0.06441665	0.3303548	0.2411158	-2.496891	-1.825251	0	0
4.56971	-0.005131534	-0.06272553	0.1402318	0.1024091	-2.878551	-2.100085	0	0
4.586265	2.631579E-05	-0.05903929	0.3115706	0.2226748	5.181453	3.636953	0	0
4.602831	0.003789456	-0.0564119	0.2271567	0.158599	-2.54868	-1.934619	0	0
4.619399	0.006947257	-0.0541508	0.1905998	0.136476	-1.103305	-0.6676829	0	0
4.635964	0.0081314	-0.05332728	0.07148325	0.0497135	-3.595098	-2.618612	0	0
4.652767	0.01170999	-0.05114512	0.212976	0.1298689	4.240359	2.402156	0	0
4.670985	0.01407802	-0.04995902	0.1299791	0.06510444	-2.369899	-1.849287	0	0
4.687553	0.0150778	-0.04930877	0.06034378	0.03924643	-2.001779	-0.7433305	0	0
4.704306	0.01539352	-0.0491558	0.01884568	0.009131372	-1.245407	-0.9037886	0	0
4.721317	0.01776129	-0.04816164	0.1391891	0.05844144	3.564265	1.460438	0	0
4.737326	0.02254881	-0.04628895	0.2990545	0.1169785	4.841467	1.772776	0	0
4.753838	0.03892769	-0.04298596	0.9919718	0.2000426	21.30723	2.554222	0	0
4.770386	0.04720176	-0.04269975	0.4999991	0.0172956	-14.88139	-5.527804	0	0
4.786952	0.05822359	-0.04407382	0.6652983	-0.08294161	4.991686	-3.026951	0	0
4.803519	0.06902176	-0.04911755	0.6517977	-0.3044491	-0.4074634	-6.685303	0	0
4.820087	0.07527854	-0.05372944	0.3776488	-0.2783658	-8.273829	0.7871962	0	0
4.836653	0.07700533	-0.05499372	0.1042383	-0.07631855	-8.251781	6.097974	0	0
4.853409	0.08437813	-0.06070903	0.4399957	-0.3410797	10.07605	-7.945457	0	0
4.869787	0.08628523	-0.06226449	0.1164464	-0.09497558	-9.764878	7.427546	0	0
4.886433	0.08555381	-0.0628408	-0.04393843	-0.03462117	-4.856639	1.827601	0	0
4.936054	0.08320221	-0.06387845	-0.04739152	-0.02091166	-0.05210869	0.2068828	0	0
4.985754	0.0796731	-0.06159227	-0.07100869	0.04599981	-0.2377877	0.6736931	0	0
5.00232	0.07297544	-0.05721712	-0.4042829	0.2640923	-5.029298	3.291141	0	0
5.019026	0.05525947	-0.04592601	-1.060486	0.6758912	-19.72223	12.37664	0	0
5.035456	0.04328873	-0.04233725	-0.728595	0.2184289	10.01621	-13.80584	0	0
5.052554	0.01063118	-0.03860035	-1.909974	0.2185519	-35.23525	0.003668811	0	0
5.068587	-0.008289284	-0.03789544	-1.180117	0.0439673	22.02934	-5.269506	0	0
5.085153	-0.05675477	-0.03640994	-2.925551	0.0896697	-53.54259	1.401958	0	0
5.10172	-0.07512153	-0.0358959	-1.108652	0.03102851	54.8365	-1.769871	0	0
5.118597	-0.1004763	-0.03511549	-1.502354	0.04624215	-11.77218	0.4549065	0	0
5.134855	-0.1369531	-0.03431625	-2.243587	0.04915899	-22.37015	0.08802922	0	0
5.15142	-0.1493532	-0.03395475	-0.7485572	0.02182238	45.54747	-0.8328352	0	0
5.167987	-0.1662409	-0.03380256	-1.019377	0.009186652	-8.173951	-0.3813743	0	0
5.184554	-0.1845852	-0.03416403	-1.107292	-0.02181914	-2.653362	-0.9357837	0	0
5.247871	-0.1961047	-0.03195781	-0.1819337	0.03484401	11.58377	0.7093175	0	0
5.264701	-0.1962313	-0.03186275	-0.007521427	0.005648153	2.176148	-0.3642777	0	0
5.281005	-0.1986604	-0.03007616	-0.1489877	0.1095796	-4.269522	3.136703	0	0
5.297722	-0.2025269	-0.02717041	-0.2312833	0.1738153	-2.492188	1.94527	0	0
5.314235	-0.2042433	-0.0259937	-0.1039501	0.07126252	3.831896	-3.086165	0	0
5.33075	-0.2082017	-0.02411567	-0.239685	0.113718	-4.109795	1.28547	0	0
5.347272	-0.216977	-0.02398293	-0.5310994	0.00803413	-8.820672	-3.198889	0	0
5.363839	-0.2248684	-0.02449498	-0.4763516	-0.03090943	1.654554	-1.176928	0	0
5.380405	-0.2531599	-0.02550037	-1.707727	-0.06068725	-37.16459	-0.898735	0	0
5.396972	-0.2727647	-0.02601268	-1.183382	-0.03092372	15.82521	0.8982909	0	0
5.413539	-0.2858705	-0.02641119	-0.7910928	-0.02405521	11.83966	0.2072982	0	0
5.430317	-0.3158734	-0.02698059	-1.788176	-0.03393632	-29.90184	-0.2963277	0	0
5.446673	-0.3230605	-0.02673384	-0.4394205	0.01508634	40.70554	1.479507	0	0
5.463341	-0.3237939	-0.02789185	-0.04400069	-0.06947759	11.97394	-2.560731	0	0
5.479852	-0.3232498	-0.02832859	0.03295116	-0.02645064	2.319307	1.29682	0	0
5.496372	-0.3232262	-0.0283096	0.001432386	0.001149494	-0.9542047	0.835571	0	0
5.516042	-0.3227529	-0.0279678	0.02406212	0.01737708	0.6253113	0.4484053	0	0
5.532609	-0.3225635	-0.02785387	0.0114297	0.006876214	-0.3486032	-0.2897812	0	0
5.549402	-0.3216164	-0.02766401	0.05640369	0.01130667	1.348141	0.1328075	0	0
5.565745	-0.3210241	-0.02775894	0.03624103	-0.005808544	-0.6084929	-0.5165234	0	0
5.58231	-0.3197677	-0.02853748	0.07584557	-0.04699846	1.203477	-1.251652	0	0
5.598877	-0.3180117	-0.02994316	0.1059926	-0.08484904	0.9099038	-1.142415	0	0
5.615445	-0.3180117	-0.02990516	0	0.002293608	-3.198862	2.62997	0	0
5.63201	-0.3173468	-0.0294112	0.04014105	0.0298185	1.211511	0.8307387	0	0
5.648578	-0.3130414	-0.02597472	0.2598665	0.2074204	6.631615	5.360267	0	0
5.665143	-0.3077443	-0.02172708	0.3197609	0.2564103	1.807666	1.478561	0	0
5.681994	-0.3011818	-0.01650125	0.389444	0.3101209	2.085277	1.607297	0	0
5.698278	-0.2987079	-0.01455323	0.1519261	0.1196316	-7.168305	-5.748977	0	0
5.714843	-0.2939416	-0.01111398	0.2877314	0.2076234	4.134309	2.678726	0	0
5.814242	-0.2003543	-0.0108118	0.9415265	0.003040013	5.637895	-1.764191	0	0
5.83081	-0.1841783	-0.009188088	0.976388	0.09800765	0.3006168	0.8189209	0	0
5.847376	-0.1684413	-0.00731993	0.9499399	0.1127687	-0.7982292	0.4455025	0	0
5.863944	-0.1486583	-0.004585665	1.19407	0.1650358	7.367973	1.577448	0	0
5.880511	-0.1397927	-0.003379539	0.5351266	0.07280189	-19.88667	-2.783586	0	0
5.897152	-0.1180278	-0.002042009	1.307899	0.08037491	23.2704	0.2280456	0	0
5.913642	-0.1074529	-0.001985506	0.641272	0.003426426	-20.12057	-2.32251	0	0
5.93021	-0.1001897	-0.003624498	0.4384084	-0.09892976	-6.136653	-3.09629	0	0
5.947183	-0.09716673	-0.005471694	0.1781061	-0.1088314	-7.760894	-0.2952154	0	0
5.963345	-0.09588923	-0.006433401	0.07904377	-0.05950451	-2.989665	1.488666	0	0
5.97991	-0.09463751	-0.007376525	0.07556311	-0.05693362	-0.1063535	0.07855482	0	0
5.996476	-0.09468967	-0.007376525	-0.003148657	0	-2.375731	1.718408	0	0
6.01323	-0.09479399	-0.007301065	-0.006226875	0.004504084	-0.09238364	0.1351768	0	0
6.02961	-0.09489831	-0.007225607	-0.006368537	0.004606768	-0.004275507	0.003099096	0	0
6.046256	-0.09497654	-0.007169015	-0.004700032	0.003399674	0.05052063	-0.03654956	0	0
6.062745	-0.0950287	-0.007131287	-0.003163047	0.002288125	0.04638564	-0.03354611	0	0
6.079777	-0.09508086	-0.007093559	-0.003062448	0.002215009	0.003001069	-0.002181204	0	0
6.095876	-0.09510694	-0.007074696	-0.001619794	0.001171719	0.04354312	-0.03148928	0	0
6.129009	-0.09515909	-0.007150151	-0.001574103	-0.002277362	0.0009280848	-0.07005838	0	0
6.145823	-0.09523733	-0.007244471	-0.004653247	-0.00560973	-0.06164907	-0.066719	0	0
6.162334	-0.09531556	-0.007301065	-0.004737994	-0.003427543	-0.002543034	0.06548158	0	0
6.17871	-0.09536771	-0.007338795	-0.003184876	-0.00230403	0.04722592	0.03416286	0	0
6.19536	-0.09536771	-0.007338795	0	0	0.09643616	0.06976467	0	0
6.211843	-0.09536771	-0.007338795	0	0	0	0	0	0
6.228409	-0.09536771	-0.007338795	0	0	0	0	0	0
6.244976	-0.09536771	-0.007338795	0	0	0	0	0	0
6.261543	-0.09536771	-0.007338795	0	0	0	0	0	0
6.278418	-0.09536771	-0.007338795	0	0	0	0	0	0
6.294676	-0.09536771	-0.007338795	0	0	0	0	0	0
6.311243	-0.09536771	-0.007338795	0	0	0	0	0	0
6.327809	-0.09552418	-0.007451987	-0.009444349	-0.00683248	-0.2850392	-0.2062106	0	0
6.344463	-0.09586316	-0.007659515	-0.02035419	-0.01246117	-0.3284044	-0.1694328	0	0
6.360974	-0.09638463	-0.008036874	-0.03158347	-0.02285505	-0.3385884	-0.3133993	0	0
6.377512	-0.1017005	-0.01188844	-0.3214521	-0.232903	-8.7711	-6.355815	0	0
6.412148	-0.1179759	-0.02366056	-0.4698972	-0.3398811	-2.900835	-2.090509	0	0
6.428715	-0.1288609	-0.03155857	-0.6570204	-0.4767249	-3.654518	-2.672561	0	0
6.445281	-0.1363849	-0.0369812	-0.4541729	-0.3273294	6.122125	4.508894	0	0
6.461848	-0.1406442	-0.03997255	-0.257093	-0.1805579	5.948056	4.429699	0	0
6.56125	-0.1645512	-0.05185319	-0.2405083	-0.1195212	0.1430094	0.5263187	0	0
6.577816	-0.1645512	-0.05185319	0	0	2.073932	1.030646	0	0
6.594381	-0.1645512	-0.05185319	0	0	0	0	0	0
6.610948	-0.1645512	-0.05185319	0	0	0	0	0	0
6.627663	-0.1645512	-0.05185319	0	0	0	0	0	0
6.644082	-0.1645256	-0.05183405	0.00156014	0.001165794	0.04708648	0.03518475	0	0
6.660688	-0.1644744	-0.05183405	0.003084082	0	0.0461454	-0.03530058	0	0
6.677215	-0.1644231	-0.05179577	0.003099755	0.002316025	0.0004730044	0.0698998	0	0
6.693783	-0.1643719	-0.05175749	0.003091272	0.002310359	-0.0002563081	-0.0001712027	0	0
6.710349	-0.164167	-0.05160439	0.01236831	0.009242277	0.2799897	0.2092117	0	0
6.726915	-0.1639877	-0.0515087	0.01082322	0.005775669	-0.04663352	-0.1046285	0	0
6.743746	-0.1639621	-0.05148957	0.001521907	0.001137004	-0.2785019	-0.1388919	0	0
6.760257	-0.1639109	-0.05148957	0.003102798	0	0.04741458	-0.03410136	0	0
6.776615	-0.1639109	-0.05148957	0	0	-0.09439933	0	0	0
6.793184	-0.1638853	-0.05147043	0.001545997	0.001155001	0.04695288	0.03507809	0	0
6.809749	-0.1638853	-0.05147043	0	0	-0.04665962	-0.03485899	0	0
6.826315	-0.1638853	-0.05143216	0	0.002310268	0	0.06973004	0	0
6.842882	-0.1638596	-0.05141302	0.001546219	0.001155167	0.046667	-0.03486251	0	0
6.859448	-0.1638596	-0.05141302	0	0	-0.046667	-0.03486452	0	0
6.876016	-0.163834	-0.05139388	0.00154613	0.001155101	0.04666298	0.03486151	0	0
6.892583	-0.163834	-0.05139388	0	0	-0.04666163	-0.0348605	0	0
6.925882	-0.1638084	-0.05141302	0.0007692569	-0.0005747052	0.01542642	-0.01152494	0	0
6.942385	-0.1638084	-0.05141302	0	0	-0.01544636	0.01153984	0	0
6.958899	-0.1637828	-0.05139388	0.001551175	0.00115887	0.04698156	0.03509952	0	0
6.975415	-0.1637828	-0.05139388	0	0	-0.04696257	-0.03508533	0	0
6.992421	-0.1637828	-0.05139388	0	0	0	0	0	0
7.008548	-0.1637828	-0.05139388	0	0	0	0	0	0
7.025115	-0.1637828	-0.05139388	0	0	0	0	0	0
7.041685	-0.1637572	-0.05137474	0.001545908	0.001154934	0.04665291	0.03485398	0	0
7.058251	-0.1637572	-0.05137474	0	0	-0.04665291	-0.03485398	0	0
7.074817	-0.1637572	-0.05137474	0	0	0	0	0	0
7.091382	-0.1637572	-0.05137474	0	0	0	0	0	0
7.108005	-0.1637316	-0.05139388	0.001540941	-0.001151224	0.04643019	-0.03468759	0	0
7.124516	-0.1637316	-0.05139388	0	0	-0.04650703	0.034745	0	0
7.162221	-0.1637316	-0.05139388	0	0	0	0	0	0
7.178787	-0.1637316	-0.05139388	0	0	0	0	0	0
7.211923	-0.1637316	-0.05139388	0	0	0	0	0	0
7.228488	-0.1637059	-0.05141302	0.001546308	-0.001155233	0.03111208	-0.02324357	0	0
7.245108	-0.1637059	-0.05141302	0	0	-0.0465966	0.03481191	0	0
7.261621	-0.1637059	-0.05141302	0	0	0	0	0	0
7.278188	-0.1636803	-0.05139388	0.001546175	0.001155134	0.046741	0.0349198	0	0
7.294755	-0.1636547	-0.05137474	0.001546175	0.001155134	0	0	0	0
7.311323	-0.1636547	-0.05137474	0	0	-0.04666298	-0.03486151	0	0
7.328158	-0.1636547	-0.05137474	0	0	0	0	0	0
7.344674	-0.1636291	-0.05135561	0.001551854	0.001158702	0.04653103	0.03474271	0	0
7.361184	-0.1636291	-0.05135561	0	0	-0.04698854	-0.03508432	0	0
7.377588	-0.1635522	-0.0512982	0.004684639	0.003499626	0.142329	0.1063258	0	0
7.394206	-0.163296	-0.05110685	0.01541652	0.01151442	0.3249927	0.2427113	0	0
7.410722	-0.162758	-0.05070506	0.032579	0.02432801	0.5179721	0.3867205	0	0
7.427287	-0.1625273	-0.05049461	0.01392307	0.01270375	-0.563946	-0.3513874	0	0
7.443854	-0.1622454	-0.05028419	0.01701602	0.01270175	0.09335203	-6.026654E-05	0	0
7.460421	-0.1611688	-0.04951913	0.06498514	0.04617906	1.447732	1.010362	0	0
7.476987	-0.1598354	-0.04852485	0.08049245	0.06001831	0.468025	0.4176815	0	0
7.493775	-0.1552151	-0.04516208	0.2752125	0.2003077	5.837933	4.206039	0	0
7.510289	-0.1498163	-0.04134537	0.3269325	0.2311287	1.553091	0.9255178	0	0
7.526798	-0.1408506	-0.03502033	0.5430648	0.3831146	6.544924	4.602443	0	0
7.54331	-0.1326377	-0.02939221	0.4973901	0.340852	-1.383181	-1.279853	0	0
7.559826	-0.1211926	-0.02115864	0.692962	0.4985145	5.921373	4.773582	0	0
7.592954	-0.1114312	-0.01423182	0.2946588	0.2090938	-8.02319	-5.829923	0	0
7.675903	-0.0540788	0.02577569	0.6914166	0.4823137	3.418059	2.353782	0	0
7.692415	-0.04882957	0.02951039	0.3179052	0.226182	-3.755352	-2.575195	0	0
7.708927	-0.04347259	0.03312937	0.3244407	0.2191805	0.1979036	-0.2120172	0	0
7.725489	-0.04068806	0.03488161	0.1681233	0.105796	-4.726306	-3.428216	0	0
7.742054	-0.03319832	0.03843946	0.4521333	0.214777	8.573166	3.289714	0	0
7.758621	-0.02307485	0.04132423	0.6110892	0.1741347	4.797713	-1.226691	0	0
7.775187	-0.01413064	0.04225432	0.5398893	0.05614216	-2.14891	-3.561177	0	0
7.791986	-0.005289424	0.03901659	0.5263098	-0.1927392	-0.4069932	-7.459297	0	0
7.808321	-0.001789472	0.03653989	0.2142608	-0.1516196	-9.41793	1.241028	0	0
7.824889	0.005394685	0.03145091	0.4336241	-0.3071625	6.667025	-4.727357	0	0
7.841541	0.01078906	0.02762485	0.323936	-0.2297578	-3.301841	2.330041	0	0
7.858033	0.01747191	0.02284122	0.4052204	-0.2900591	2.452429	-1.819347	0	0
7.874587	0.02123365	0.0201289	0.2272425	-0.1638484	-5.385802	3.819271	0	0
7.891563	0.02599414	0.01666531	0.280427	-0.2040299	1.586189	-1.198384	0	0
7.90772	0.02707233	0.01578483	0.06673123	-0.05449498	-6.449629	4.513167	0	0
7.924584	0.02633601	0.01544756	-0.0436625	-0.01999935	-3.34314	1.044658	0	0
7.958849	0.02523149	0.01469797	-0.03223439	-0.02187611	0.2235137	-0.03670628	0	0
7.975416	0.02504739	0.01479167	-0.01111261	0.005656597	0.415523	0.5416435	0	0
7.992126	0.02502109	0.01481042	-0.001573758	0.001121493	0.2866496	-0.1362833	0	0
8.008638	0.02491589	0.01488538	-0.006371064	0.004540051	-0.1443985	0.1028983	0	0
8.025118	0.0248107	0.01492286	-0.006383486	0.002274407	-0.0003765358	-0.06867376	0	0
8.041685	0.0247844	0.01490412	-0.001587504	-0.001131209	0.1451273	-0.1030546	0	0
8.05825	0.0246266	0.01482916	-0.009525785	-0.004525358	-0.2395916	-0.1024415	0	0
8.074817	0.024574	0.01479167	-0.003175079	-0.002262549	0.1916813	0.06829761	0	0
8.091383	0.0245214	0.01482916	-0.003175191	0.002262549	-3.39416E-06	0.1365756	0	0
8.108209	0.0244425	0.01488538	-0.004689249	0.003341556	-0.045342	0.0323134	0	0
8.124721	0.0242847	0.01499782	-0.009556821	0.006809823	-0.1460085	0.1040347	0	0
8.141232	0.0242584	0.01501656	-0.001592822	0.001134942	0.2411591	-0.171842	0	0
8.15765	0.0241269	0.0150353	-0.008009798	0.001141469	-0.1948706	0.0001982065	0	0
8.174216	0.02370608	0.01518522	-0.02540176	0.009049577	-0.5272882	0.2397575	0	0
8.190784	0.02281183	0.01533513	-0.05397717	0.009048662	-0.8624325	-2.760223E-05	0	0
8.207779	0.02175972	0.01488538	-0.06190544	-0.02646314	-0.2362228	-1.058075	0	0
8.223918	0.01847158	0.01381698	-0.2037383	-0.0661996	-4.280524	-1.199249	0	0
8.240806	0.01665635	0.01511026	-0.1074885	0.0765814	2.914304	4.3232	0	0
8.25705	0.01544614	0.01597218	-0.07450255	0.053061	0.9956036	-0.7099084	0	0
8.273616	0.01547245	0.01595345	0.001588158	-0.001130881	2.319117	-1.651677	0	0
8.290182	0.01547245	0.01595345	0	0	-0.04793346	0.03413202	0	0
8.306848	0.01547245	0.01595345	0	0	0	0	0	0
8.323361	0.01555138	0.01593471	0.00477955	-0.001134586	0.1440523	-0.0341956	0	0
8.339892	0.01563031	0.01587851	0.004774587	-0.003399997	-0.0001501905	-0.06855573	0	0
8.373015	0.01586709	0.01570988	0.007148599	-0.005090879	0.04781109	-0.03405328	0	0
8.389582	0.01605125	0.01554125	0.01111677	-0.01017922	0.07985964	-0.1024032	0	0
8.406149	0.01602494	0.01555999	-0.001588066	0.001130984	-0.3834437	0.3413525	0	0
8.422715	0.01597233	0.01555999	-0.003176203	0	-0.04793144	-0.03413416	0	0
8.439282	0.01591971	0.01555999	-0.00317602	0	5.51623E-06	0	0	0
8.455864	0.01591971	0.01555999	0	0	0.09581112	0	0	0
8.472463	0.01586709	0.01559746	-0.003169999	0.00225768	-0.09553877	0.06804292	0	0
8.488981	0.01584078	0.0156162	-0.001592742	0.001134258	0.04762636	-0.03392252	0	0
8.505548	0.01584078	0.0156162	0	0	0.04813972	-0.0342823	0	0
8.522115	0.01586709	0.01563494	0.001588158	0.001130993	0.04793208	0.03413443	0	0
8.538681	0.01586709	0.01563494	0	0	-0.04793346	-0.03413541	0	0
8.571815	0.0158934	0.0156162	0.000793977	-0.0005654641	0.01597515	-0.01137738	0	0
8.588382	0.01591971	0.01559746	0.001588158	-0.001130993	0.01597926	-0.01137869	0	0
8.605059	0.01591971	0.01559746	0	0	-0.04777395	0.03402181	0	0
8.62286	0.0158934	0.01557873	-0.001477976	-0.00105258	-0.04286697	-0.03052887	0	0
8.639428	0.01584078	0.01554125	-0.003175838	-0.002261839	-0.0494003	-0.03518409	0	0
8.655994	0.015604	0.01537261	-0.01429308	-0.01017978	-0.3355191	-0.238964	0	0
8.672561	0.01536721	0.01524144	-0.01429325	-0.007917909	-5.087727E-06	0.06826743	0	0
8.689127	0.01484102	0.01486664	-0.03176305	-0.02262425	-0.5272698	-0.4438638	0	0
8.705696	0.007947201	0.009953004	-0.4160636	-0.2965535	-11.59788	-8.266963	0	0
8.72226	0.0005263158	0.004693988	-0.4480029	-0.3174897	-0.9639586	-0.6318728	0	0
8.73883	-0.0098681	-0.002738964	-0.627336	-0.4486023	-5.412438	-3.9571	0	0
8.755397	-0.01676159	-0.007678383	-0.4160917	-0.2981439	6.374996	4.540581	0	0
8.771964	-0.02220687	-0.01158619	-0.3286782	-0.2358755	2.638147	1.879263	0	0
8.788527	-0.02386389	-0.01277645	-0.1000464	-0.07186537	6.901114	4.950548	0	0
8.82166	-0.03438118	-0.02034405	-0.3174217	-0.228397	-4.374104	-3.149786	0	0
8.838226	-0.03472288	-0.0205903	-0.02062593	-0.01486448	5.971773	4.296448	0	0
8.855238	-0.03472288	-0.0205903	0	0	0.6142706	0.4426863	0	0
8.871747	-0.0346966	-0.02060924	0.00159197	-0.001147437	0.04749215	-0.0342307	0	0
8.887926	-0.0346966	-0.02060924	0	0	-0.04870176	0.03510254	0	0
8.904769	-0.0346966	-0.02060924	0	0	0	0	0	0
8.921059	-0.0346966	-0.02060924	0	0	0	0	0	0
8.93779	-0.0346966	-0.02060924	0	0	0	0	0	0
8.954193	-0.03472288	-0.02062818	-0.001602244	-0.001154842	-0.04835581	-0.0348532	0	0
8.970813	-0.03474917	-0.02060924	-0.001581597	0.001139799	0.0006252142	0.0694864	0	0
8.987325	-0.03474917	-0.02060924	0	0	0.04773683	-0.03440218	0	0
9.003891	-0.03474917	-0.02060924	0	0	0	0	0	0
9.020457	-0.03474917	-0.02060924	0	0	0	0	0	0
9.037369	-0.03474917	-0.02060924	0	0	0	0	0	0
9.053594	-0.03472288	-0.0205903	0.001620085	0.001167535	0.04889144	0.03523426	0	0
9.070158	-0.03472288	-0.0205903	0	0	-0.04940905	-0.03560728	0	0
9.086724	-0.03472288	-0.0205903	0	0	0	0	0	0
9.103291	-0.03472288	-0.0205903	0	0	0	0	0	0
9.119857	-0.0346966	-0.02060924	0.001586471	-0.001143474	0.04788256	-0.03451209	0	0
9.136428	-0.0346966	-0.02060924	0	0	-0.04787567	0.03450713	0	0
9.152992	-0.0346966	-0.02060924	0	0	0	0	0	0
9.169559	-0.0346966	-0.02060924	0	0	0	0	0	0
9.186125	-0.03472288	-0.0205903	-0.001586471	0.001143474	-0.04788256	0.03451209	0	0
9.202691	-0.03472288	-0.0205903	0	0	0.04788256	-0.03451209	0	0
9.219487	-0.03472288	-0.0205903	0	0	0	0	0	0
9.235825	-0.0346966	-0.02057135	0.001608697	0.001159493	0.04855198	0.03499459	0	0
9.252392	-0.03467031	-0.0205903	0.001586605	-0.001143408	-0.0006714097	-0.06998716	0	0
9.269023	-0.03467031	-0.0205903	0	0	-0.04779167	0.0344417	0	0
9.285536	-0.03467031	-0.0205903	0	0	0	0	0	0
9.302092	-0.03467031	-0.0205903	0	0	0	0	0	0
9.318659	-0.03467031	-0.0205903	0	0	0	0	0	0
9.335225	-0.03467031	-0.0205903	0	0	0	0	0	0
9.351792	-0.03467031	-0.0205903	0	0	0	0	0	0
9.368359	-0.03467031	-0.0205903	0	0	0	0	0	0
9.40246	-0.03467031	-0.0205903	0	0	0	0	0	0
9.419026	-0.03467031	-0.0205903	0	0	0	0	0	0
9.435593	-0.03467031	-0.0205903	0	0	0	0	0	0
9.468727	-0.0346966	-0.02060924	-0.0007933024	-0.0005717039	-0.01596158	-0.01150293	0	0
9.502187	-0.0346966	-0.02060924	0	0	0.0119125	0.008584901	0	0
9.518699	-0.0346966	-0.02060924	0	0	0	0	0	0
9.534993	-0.0346966	-0.02060924	0	0	0	0	0	0
9.551724	-0.0346966	-0.02060924	0	0	0	0	0	0
9.56813	-0.0346966	-0.02060924	0	0	0	0	0	0
9.584693	-0.0346966	-0.02060924	0	0	0	0	0	0
9.601259	-0.0346966	-0.02060924	0	0	0	0	0	0
9.617826	-0.0346966	-0.02060924	0	0	0	0	0	0
9.634393	-0.03467031	-0.02062818	0.001586605	-0.001143408	0.04788521	-0.03450911	0	0
9.651292	-0.03467031	-0.02062818	0	0	-0.04740898	0.03416591	0	0
9.667526	-0.03467031	-0.02062818	0	0	0	0	0	0
9.684314	-0.03467031	-0.02062818	0	0	0	0	0	0
9.700825	-0.03467031	-0.02062818	0	0	0	0	0	0
9.717225	-0.03467031	-0.02062818	0	0	0	0	0	0
9.733791	-0.03467031	-0.02062818	0	0	0	0	0	0
9.750365	-0.03467031	-0.02062818	0	0	0	0	0	0
9.766927	-0.03467031	-0.02062818	0	0	0	0	0	0
9.783492	-0.03467031	-0.02062818	0	0	0	0	0	0
9.800058	-0.03467031	-0.02062818	0	0	0	0	0	0
9.816625	-0.03467031	-0.02062818	0	0	0	0	0	0
9.833191	-0.03467031	-0.02062818	0	0	0	0	0	0
9.849757	-0.03467031	-0.02062818	0	0	0	0	0	0
9.866443	-0.03467031	-0.02062818	0	0	0	0	0	0
9.88289	-0.03467031	-0.02062818	0	0	0	0	0	0
9.899456	-0.03467031	-0.02062818	0	0	0	0	0	0
9.916022	-0.03467031	-0.02062818	0	0	0	0	0	0
9.93259	-0.03467031	-0.02062818	0	0	0	0	0	0
9.949156	-0.03467031	-0.02062818	0	0	0	0	0	0
9.965723	-0.03467031	-0.02062818	0	0	0	0	0	0
9.982289	-0.03467031	-0.02062818	0	0	0	0	0	0
9.998856	-0.03467031	-0.02062818	0	0	0	0	0	0
10.01554	-0.03467031	-0.02062818	0	0	0	0	0	0
10.03199	-0.03467031	-0.02062818	0	0	0	0	0	0
10.04856	-0.03467031	-0.02062818	0	0	0	0	0	0
10.06512	-0.03467031	-0.02062818	0	0	0	0	0	0
10.08169	-0.03467031	-0.02062818	0	0	0	0	0	0
10.09825	-0.03467031	-0.02062818	0	0	0	0	0	0
10.11512	-0.03467031	-0.02062818	0	0	0	0	0	0
10.13139	-0.03467031	-0.02062818	0	0	0	0	0	0
10.14795	-0.03467031	-0.02062818	0	0	0	0	0	0
10.26572	-0.03464403	-0.02060924	0.0002231998	0.0001608519	0.001661534	0.001197406	0	0
10.28215	-0.03464403	-0.02060924	0	0	-0.001663199	-0.001198606	0	0
10.29872	-0.03459146	-0.02060924	0.003173168	0	0.09616217	0	0	0
10.31529	-0.03459146	-0.02060924	0	0	-0.0957719	0	0	0
10.33185	-0.03453889	-0.02064713	0.003173168	-0.00228706	0.0957719	-0.06902757	0	0
10.34842	-0.03446004	-0.02070396	0.004759864	-0.003430421	0.04788935	-0.0345087	0	0
10.36498	-0.03406576	-0.02049558	0.02379977	0.01257821	0.5746586	0.4831693	0	0
10.38155	-0.03361891	-0.02017358	0.02697073	0.01943513	0.09569981	0.2069422	0	0
10.39812	-0.0332509	-0.01987055	0.0222157	0.01829326	-0.1435113	-0.03446265	0	0
10.41469	-0.03311946	-0.0197001	0.007933474	0.01028797	-0.4310632	-0.241614	0	0
10.44785	-0.03293546	-0.0192267	0.005548551	0.0142751	-0.04795714	0.08017502	0	0
10.46439	-0.0330406	-0.01899949	-0.00635799	0.01373889	-0.2395647	-0.01078877	0	0
10.48095	-0.03645752	-0.01646341	-0.2062577	0.1530865	-6.038547	4.209396	0	0
10.49752	-0.03884887	-0.01478012	-0.14435	0.1016096	1.868485	-1.553667	0	0
10.5144	-0.05056213	-0.006357963	-0.69403	0.4990266	-16.4361	11.88325	0	0
10.53091	-0.06362453	0.003058273	-0.7910892	0.570269	-2.906911	2.133704	0	0
10.54742	-0.07315867	0.009971772	-0.5774432	0.4187217	6.469635	-4.589162	0	0
10.56379	-0.08176467	0.01632813	-0.5257845	0.3883427	1.571182	-0.9239671	0	0
10.58035	-0.09176784	0.023533	-0.6038274	0.4349119	-2.369663	1.414009	0	0
10.59695	-0.09763593	0.02773689	-0.3534866	0.2532366	7.547915	-5.477612	0	0
10.61348	-0.1022735	0.03105916	-0.2805374	0.2009722	2.2018	-1.577479	0	0
10.63005	-0.104903	0.03294291	-0.1587154	0.1137039	3.680623	-2.636648	0	0
10.70003	-0.1079992	0.03508661	-0.04424822	0.03063563	1.32269	-0.9598695	0	0
10.71636	-0.1167301	0.04100794	-0.534348	0.362398	-5.678153	3.843702	0	0
10.73305	-0.1209074	0.0434817	-0.2503841	0.1482749	8.599006	-6.484082	0	0
10.74956	-0.1227482	0.04454138	-0.1114785	0.06417327	4.18435	-2.533454	0	0
10.76607	-0.127722	0.04729147	-0.3012239	0.1665517	-5.745546	3.100048	0	0
10.78263	-0.1283433	0.04736577	-0.03752052	0.004487137	7.97396	-4.900568	0	0
10.7992	-0.1283433	0.04732862	0	-0.002242777	1.13273	-0.2031735	0	0
10.81576	-0.1283433	0.04732862	0	0	0	0.06769298	0	0
10.83262	-0.1283692	0.0473472	-0.001535711	0.001102273	-0.04595109	0.03298188	0	0
10.84913	-0.1283692	0.0473472	0	0	0.04602595	-0.03303561	0	0
10.86546	-0.1283692	0.0473472	0	0	0	0	0	0
10.88203	-0.1283692	0.0473472	0	0	0	0	0	0
10.8986	-0.1283433	0.04732862	0.00156241	-0.001121436	0.04715634	-0.03384696	0	0
10.91516	-0.1282915	0.04729147	0.00312482	-0.002242423	0.04715634	-0.03383338	0	0
10.93173	-0.1281103	0.04716144	0.01093714	-0.007848477	0.2357831	-0.1691959	0	0
10.9483	-0.1280585	0.04712429	0.003125719	-0.002242648	-0.2357559	0.1691891	0	0
10.96521	-0.127955	0.04704999	0.006121561	-0.004392521	0.08947726	-0.06421061	0	0
10.99824	-0.1273336	0.04660413	0.01881461	-0.01350058	0.2541655	-0.1823797	0	0
11.01456	-0.1271783	0.04649266	0.009515195	-0.006827894	-0.1884353	0.1352095	0	0
11.03126	-0.1271265	0.04656698	0.003101084	0.004450613	-0.1942267	0.3415262	0	0
11.05072	-0.1268417	0.04677133	0.01463647	0.01050089	0.3190224	0.1673264	0	0
11.06729	-0.1264532	0.04704999	0.02344649	0.01681968	0.2445332	0.1753858	0	0
11.08386	-0.1257021	0.04755151	0.04533255	0.03027012	0.6605036	0.4059235	0	0
11.10042	-0.1236035	0.04883288	0.1266738	0.07734384	2.454814	1.420647	0	0
11.11732	-0.1201034	0.05015095	0.2071783	0.07801828	2.405879	0.0201557	0	0
11.13356	-0.1122628	0.05219214	0.4828727	0.1257105	8.321191	1.43948	0	0
11.15034	-0.1022735	0.054566	0.5950117	0.1413979	3.395503	0.4750027	0	0
11.16685	-0.08866169	0.05645664	0.8245056	0.1145214	6.892217	-0.8071598	0	0
11.18338	-0.06881224	0.05806853	1.201296	0.09755209	11.40669	-0.5137177	0	0
11.19982	-0.063808	0.05842046	0.304263	0.02139785	-27.2072	-2.309774	0	0
11.21639	-0.03708825	0.06241921	1.6129	0.2413791	39.63965	6.663404	0	0
11.23296	-0.02696715	0.06569301	0.6109462	0.1976179	-30.24078	-1.320791	0	0
11.24952	-0.02128626	0.06927821	0.3429188	0.2164158	-8.089549	0.5673555	0	0
11.26609	-0.01089431	0.0769003	0.6272956	0.4600965	8.583005	7.35472	0	0
11.28294	-0.003236831	0.08226256	0.4544626	0.3182444	-5.172195	-4.245061	0	0
11.29922	0.00639465	0.0889974	0.5914348	0.4135624	4.133829	2.876704	0	0
11.31579	0.01420957	0.09445501	0.4717366	0.329441	-3.643644	-2.560681	0	0
11.33236	0.01731406	0.09673165	0.1873874	0.1374181	-8.581923	-5.795429	0	0
11.34898	0.02302225	0.1009331	0.3433216	0.2526981	4.69772	3.472962	0	0
11.36549	0.02988584	0.1058636	0.4158189	0.2987036	2.1881	1.388526	0	0
11.38206	0.03327718	0.1082628	0.2047022	0.1448159	-6.383275	-4.652909	0	0
11.39862	0.0351697	0.1095809	0.1142392	0.07956733	-2.730256	-1.969263	0	0
11.41519	0.03527484	0.1096541	0.006346335	0.004419633	-3.256401	-2.268093	0	0
11.43176	0.03540625	0.109709	0.007932582	0.003314612	0.04787578	-0.03335151	0	0
11.44855	0.03569536	0.1098005	0.01721087	0.005448436	0.2780905	0.06395531	0	0
11.46489	0.03601074	0.1099104	0.01930662	0.006722882	0.06325161	0.03846398	0	0
11.48145	0.03666777	0.1100385	0.03966044	0.007734245	0.6186237	0.03073885	0	0
11.49802	0.03764011	0.109947	0.05869404	-0.005524653	0.5744685	-0.4001774	0	0
11.51459	0.04415549	0.110313	0.3932691	0.02209554	10.09779	0.8336031	0	0
11.53161	0.05386889	0.1119233	0.5706334	0.09460089	5.280369	2.15858	0	0
11.54772	0.06883842	0.1137709	0.9291837	0.1146795	10.82169	0.6060095	0	0
11.56429	0.07271368	0.1140269	0.2338974	0.01545322	-21.2765	-3.036431	0	0
11.58085	0.09014972	0.1168242	1.052563	0.1688624	24.70808	4.630033	0	0
11.59742	0.09325504	0.1193641	0.1874483	0.153319	-26.11146	-0.4691422	0	0
11.61399	0.09729706	0.1237648	0.2439629	0.2656115	1.705614	3.388994	0	0
11.63056	0.1006326	0.126137	0.2013449	0.1431962	-1.286213	-3.694502	0	0
11.64712	0.1052413	0.1294381	0.278198	0.1992635	2.319566	1.692212	0	0
11.66369	0.1079732	0.1315708	0.1649058	0.1287374	-3.419364	-2.128605	0	0
11.68025	0.1084934	0.1319717	0.03139931	0.02420161	-4.029465	-3.155077	0	0
11.72996	0.1191436	0.1391104	0.2142825	0.1436309	2.759753	1.802218	0	0
11.74652	0.1253913	0.14324	0.377115	0.2492625	2.457148	1.593983	0	0
11.76309	0.1290162	0.1456036	0.2188247	0.1426813	-4.777487	-3.21681	0	0
11.77965	0.1342663	0.1491107	0.316912	0.2117052	2.960537	2.083324	0	0
11.7963	0.1413407	0.1537594	0.4250073	0.2792752	3.254736	2.034523	0	0
11.81279	0.1424754	0.1544854	0.0688138	0.0440276	-10.74963	-7.099582	0	0
11.83173	0.144048	0.1554835	0.08303643	0.05270467	0.4014511	0.244921	0	0
11.8483	0.144048	0.1554835	0	0	-2.338706	-1.484417	0	0
11.86486	0.144048	0.1554835	0	0	0	0	0	0
11.88143	0.144048	0.1554835	0	0	0	0	0	0
11.898	0.144048	0.1554835	0	0	0	0	0	0
11.91456	0.1440222	0.1555017	-0.001556024	0.001095513	-0.04695955	0.03306169	0	0
11.93139	0.1440222	0.1555017	0	0	0.04659212	-0.03280301	0	0
11.94769	0.1440222	0.1555017	0	0	0	0	0	0
11.96426	0.1439707	0.1555017	-0.003111328	0	-0.09466019	0	0	0
11.98083	0.1439707	0.1555017	0	0	0.09390546	0	0	0
11.99739	0.1439707	0.1555017	0	0	0	0	0	0
12.01446	0.1439449	0.1555198	-0.001510717	0.001063614	-0.04491992	0.0316257	0	0
12.0471	0.1439191	0.155538	-0.0007898562	0.0005560953	0.01450374	-0.0102113	0	0
12.0968	0.1439191	0.155538	0	0	0.009593035	-0.006753941	0	0
12.11336	0.1438676	0.1555017	-0.003111328	-0.002191152	-0.04695273	-0.03306645	0	0
12.12993	0.1438676	0.1555017	0	0	0.09389736	0.0661272	0	0
12.14649	0.1438418	0.1554835	-0.001556293	-0.001095702	-0.04697036	-0.03306931	0	0
12.16306	0.1437902	0.1554472	-0.00311097	-0.00219	-0.04692294	-0.03302789	0	0
12.17963	0.1437387	0.1554109	-0.003112406	-0.002191278	-4.33639E-05	-3.856442E-05	0	0
12.19619	0.1437129	0.1554291	-0.001556114	0.001095576	0.04697307	0.09920602	0	0
12.21276	0.1437129	0.1554291	0	0	0.0469636	-0.03306455	0	0
12.22933	0.1436871	0.1554109	-0.001556114	-0.001095576	-0.0469636	-0.03306455	0	0
12.24611	0.1436871	0.1554109	0	0	0.04665742	0.03284898	0	0
12.26246	0.1436356	0.1554109	-0.003153076	0	-0.0951655	0	0	0
12.27903	0.1436356	0.1554109	0	0	0.09579971	0	0	0
12.2956	0.1436356	0.1554109	0	0	0	0	0	0
12.31216	0.1436098	0.1553928	-0.001556114	-0.001095576	-0.04696495	-0.0330655	0	0
12.32918	0.1436098	0.1553928	0	0	0.04633678	0.03262324	0	0
12.34569	0.1436098	0.1553928	0	0	0	0	0	0
12.36186	0.143584	0.1553746	-0.00159373	-0.001121138	-0.04876271	-0.03430302	0	0
12.37843	0.1435582	0.1553565	-0.001556114	-0.001095576	0.00114888	0.0007807281	0	0
12.39499	0.1434809	0.1553383	-0.004667441	-0.001095576	-0.09390546	0	0	0
12.41156	0.1434809	0.1553383	0	0	0.1408677	0.0330655	0	0
12.42824	0.1434294	0.155302	-0.003090875	-0.002176119	-0.09296439	-0.06545123	0	0
12.44475	0.1433778	0.1552658	-0.003122473	-0.002197463	-0.0009519556	-0.0006430288	0	0
12.46126	0.1433262	0.1552295	-0.003123556	-0.002199128	-3.278291E-05	-5.041192E-05	0	0
12.47783	0.1433262	0.1552295	0	0	0.09444579	0.0664942	0	0
12.49439	0.1433262	0.1552295	0	0	0	0	0	0
12.51096	0.1433262	0.1552295	0	0	0	0	0	0
12.52752	0.1432747	0.1552295	-0.003112406	0	-0.09393802	0	0	0
12.54409	0.1432747	0.1551932	0	-0.002191026	0.09393802	-0.0661291	0	0
12.56066	0.1432489	0.155175	-0.001556114	-0.001094676	-0.04696495	0.03308884	0	0
12.59783	0.1429653	0.1549754	-0.007629294	-0.005370693	-0.1130174	-0.0795735	0	0
12.6144	0.1429137	0.1549754	-0.003113127	0	0.08404254	0.09994462	0	0
12.63096	0.1429137	0.1549391	0	-0.002191152	0.09395976	-0.0661329	0	0
12.64753	0.1429137	0.1549391	0	0	0	0.066131	0	0
12.66409	0.1428364	0.1548847	-0.004668341	-0.003285828	-0.1408949	-0.09916935	0	0
12.68066	0.1426817	0.1547758	-0.009337943	-0.006573077	-0.1409329	-0.09921223	0	0
12.69723	0.1420113	0.1543039	-0.04046975	-0.02848408	-0.9395868	-0.6612943	0	0
12.7138	0.1405926	0.1533056	-0.08563079	-0.0602586	-1.363002	-0.9589848	0	0
12.73045	0.137831	0.1513266	-0.1657917	-0.1188112	-2.412735	-1.762352	0	0
12.74697	0.1319137	0.1471666	-0.3583472	-0.2519221	-5.805152	-4.013021	0	0
12.7635	0.1284727	0.1447128	-0.2081669	-0.1484452	4.545009	3.131593	0	0
12.78006	0.1203368	0.1390376	-0.4911108	-0.3425744	-8.549108	-5.865584	0	0
12.79663	0.1135359	0.1342673	-0.4105007	-0.2879346	2.432887	1.649079	0	0
12.8132	0.1043564	0.1278334	-0.5540808	-0.388353	-4.333256	-3.030634	0	0
12.83002	0.09797478	0.1233632	-0.3792337	-0.2656454	5.235759	3.674453	0	0
12.84633	0.09132421	0.1187064	-0.4078382	-0.2855745	-0.8632857	-0.6014636	0	0
12.86305	0.08181695	0.1120514	-0.5687196	-0.3980983	-4.871677	-3.407351	0	0
12.87946	0.07475517	0.1071091	-0.4302122	-0.3010917	4.180523	2.927917	0	0
12.89607	0.06545898	0.100603	-0.5597339	-0.3917393	-3.92218	-2.744994	0	0
12.9126	0.06040013	0.09706204	-0.306128	-0.2142752	7.654061	5.356032	0	0
12.92916	0.05292422	0.09182811	-0.451247	-0.3159206	-4.385253	-3.071553	0	0
12.94573	0.04320993	0.085024	-0.5863555	-0.4106968	-4.077583	-2.860353	0	0
13.012	0.01481471	0.06506435	-0.4284971	-0.3012004	1.905714	1.321874	0	0
13.02867	0.006315705	0.05897608	-0.5098603	-0.3652387	-0.9810323	-0.772139	0	0
13.04513	-0.0005263158	0.05412101	-0.4155206	-0.2948518	2.847095	2.124222	0	0
13.0617	-0.007315659	0.0493713	-0.4098528	-0.2867262	0.171589	0.245995	0	0
13.07826	-0.01447267	0.04431831	-0.432048	-0.305034	-0.6699302	-0.5525961	0	0
13.09483	-0.0246266	0.03713594	-0.6129275	-0.4335542	-5.459425	-3.87908	0	0
13.1114	-0.03230455	0.0317307	-0.4634419	-0.3262605	4.511615	3.238223	0	0
13.12824	-0.04376152	0.02366387	-0.6802664	-0.4789747	-6.48998	-4.571034	0	0
13.14453	-0.05289797	0.01715229	-0.5608072	-0.3996885	3.605388	2.392931	0	0
13.1611	-0.06503972	0.008470032	-0.7328348	-0.5240321	-5.235198	-3.784064	0	0
13.17766	-0.07423177	0.001835668	-0.5548975	-0.4004972	5.370312	3.7284	0	0
13.19423	-0.08019605	-0.002456397	-0.3600253	-0.2590845	5.881763	4.268212	0	0
13.2108	-0.09414195	-0.01253081	-0.8418242	-0.6081277	-14.54156	-10.53475	0	0
13.22737	-0.1014401	-0.01782583	-0.4404664	-0.3195713	12.11265	8.708396	0	0
13.24393	-0.1056837	-0.02087446	-0.2561606	-0.1840261	5.562201	4.090647	0	0
13.2605	-0.1112753	-0.02495021	-0.3375459	-0.2460415	-2.456425	-1.87179	0	0
13.27706	-0.1122888	-0.0256901	-0.06118135	-0.04466249	8.341417	6.078154	0	0
13.29363	-0.1122368	-0.02565216	0.003137413	0.002290658	1.941256	1.41713	0	0
13.3102	-0.1122109	-0.02563318	0.001568257	0.001145273	-0.04735995	-0.03456978	0	0
13.32676	-0.1121849	-0.02565216	0.001568526	-0.001145141	8.12303E-06	-0.06912482	0	0
13.34339	-0.1121589	-0.02567113	0.001563396	-0.001141508	-0.0001545459	0.000109454	0	0
13.37899	-0.1121069	-0.02563318	0.001459874	0.001065869	-0.001982244	0.04226658	0	0
13.41212	-0.112003	-0.02555729	0.003137007	0.00229047	0.02439928	0.01781574	0	0
13.42869	-0.111977	-0.02553832	0.001568616	0.001145207	-0.03155609	-0.02304273	0	0
13.44526	-0.111951	-0.02551934	0.001568616	0.001145207	0	0	0	0
13.46183	-0.111899	-0.02551934	0.003137232	0	0.04734093	-0.03456241	0	0
13.47849	-0.111873	-0.02550037	0.001559371	0.001138457	-0.04747921	0.03425714	0	0
13.495	-0.1118471	-0.0254814	0.001574598	0.001149574	0.0004590877	0.0003351678	0	0
13.51152	-0.1117951	-0.0254814	0.003144654	0	0.04753075	-0.03480139	0	0
13.52852	-0.1117691	-0.02546242	0.001529009	0.001116291	-0.04819294	0.03329774	0	0
13.54466	-0.1117431	-0.02544345	0.00161033	0.001175545	0.002454262	0.001788314	0	0
13.56123	-0.1115612	-0.02534859	0.01097932	0.00572482	0.2864418	0.1390868	0	0
13.57779	-0.1114312	-0.02525374	0.007845788	0.005727232	-0.0945755	7.280228E-05	0	0
13.59457	-0.1111713	-0.02506403	0.01549398	0.01130881	0.2294164	0.1674258	0	0
13.61108	-0.1108594	-0.02487434	0.01889115	0.01148895	0.1020599	0.005412042	0	0
13.62759	-0.1103395	-0.02457085	0.03148871	0.01838101	0.3814908	0.2087117	0	0
13.6441	-0.1094815	-0.02398293	0.05195475	0.03560178	0.6197174	0.5214499	0	0
13.69376	-0.1012317	-0.01816652	0.1661456	0.1171386	1.725777	1.232273	0	0
13.71032	-0.09714066	-0.01519613	0.2469512	0.1793034	1.220254	0.9387577	0	0
13.72689	-0.09309851	-0.01234186	0.2439986	0.1722941	-0.08911404	-0.2115536	0	0
13.74346	-0.09309851	-0.01237965	0	-0.002280726	-7.363893	-5.268679	0	0
13.76002	-0.09309851	-0.01237965	0	0	0	0.0688364	0	0
13.77669	-0.09309851	-0.01237965	0	0	0	0	0	0
13.80972	-0.09307242	-0.01236076	0.0007899115	0.0005719922	0.01589305	0.01150851	0	0
13.82674	-0.09304634	-0.01237965	0.001533159	-0.001110511	0.01485159	-0.03361981	0	0
13.84324	-0.09299416	-0.01237965	0.003161568	0	0.04858473	0.0331329	0	0
13.85976	-0.0928898	-0.01241744	0.006316288	-0.002287157	0.09552305	-0.06925378	0	0
13.87599	-0.09275936	-0.01239854	0.00803839	0.001164345	0.05258308	0.105389	0	0
13.89278	-0.09202878	-0.01202068	0.04352133	0.02251004	1.074775	0.646559	0	0
13.90928	-0.08795668	-0.009339097	0.2466728	0.1624403	6.10162	4.20278	0	0
13.9258	-0.07915009	-0.004604514	0.5333169	0.2867208	8.680668	3.763685	0	0
13.94231	-0.07433645	-0.003096917	0.2914575	0.09128244	-7.322726	-5.917245	0	0
13.95882	-0.06991219	-0.001269878	0.2679903	0.1106689	-0.7105939	0.5870274	0	0
13.97539	-0.06671663	0.0001985582	0.1928734	0.0886299	-2.270955	-0.6662889	0	0
13.99195	-0.0632576	-0.002286869	0.2088114	-0.1500379	0.4810254	-7.203217	0	0
14.00852	-0.05935127	-0.005094631	0.2358002	-0.1694866	0.8145941	-0.587014	0	0
14.02509	-0.05644	-0.007187879	0.1757347	-0.1263559	-1.812886	1.301762	0	0
14.04166	-0.0520057	-0.01037747	0.2676086	-0.1924911	2.7726	-1.995848	0	0
14.05839	-0.04557369	-0.01500703	0.384365	-0.2766536	3.505756	-2.527084	0	0
14.0749	-0.04131858	-0.01807188	0.2577141	-0.1856253	-3.809613	2.7381	0	0
14.09141	-0.03553766	-0.02223877	0.3501055	-0.2523564	2.797799	-2.020754	0	0
14.10792	-0.03322461	-0.02390707	0.1401161	-0.1010595	-6.359456	4.581975	0	0
14.12449	-0.03009617	-0.02616449	0.1888547	-0.1362735	1.473648	-1.064721	0	0
14.14105	-0.0279401	-0.02772097	0.1301486	-0.09395486	-1.771908	1.277289	0	0
14.15762	-0.02549447	-0.02948719	0.1476265	-0.1066157	0.5275158	-0.3821271	0	0
14.17419	-0.02391649	-0.03062723	0.09523626	-0.06880477	-1.581095	1.141104	0	0
14.19075	-0.02394279	-0.03060823	-0.001587779	0.001147204	-2.922239	2.111216	0	0
14.23314	-0.02396909	-0.03062723	-0.0006204721	-0.0004483043	0.01640828	-0.02706438	0	0
14.24971	-0.02402169	-0.03062723	-0.003173912	0	-0.04330734	0.007603415	0	0
14.26628	-0.0240743	-0.03066524	-0.003176288	-0.002295161	-7.171099E-05	-0.06927009	0	0
14.29941	-0.0247055	-0.03112138	-0.01905032	-0.01376671	-0.3194351	-0.2308435	0	0
14.31607	-0.02554707	-0.03172966	-0.05050959	-0.03650827	-0.6317739	-0.4567022	0	0
14.33254	-0.02557337	-0.03171065	-0.001596582	0.001154099	1.47624	1.136685	0	0
14.34911	-0.02559967	-0.03169164	-0.001587483	0.001147521	0.0002754167	-0.0001990835	0	0
14.36567	-0.02559967	-0.03169164	0	0	0.0479131	-0.03463426	0	0
14.38262	-0.02562597	-0.03167263	-0.001551926	0.001121819	-0.0463094	0.03347502	0	0
14.39881	-0.02570486	-0.0316156	-0.004873435	0.003522874	-0.1002433	0.07246399	0	0
14.41537	-0.02570486	-0.0316156	0	0	0.1487893	-0.1075557	0	0
14.43194	-0.02570486	-0.0316156	0	0	0	0	0	0
14.44866	-0.02570486	-0.0316156	0	0	0	0	0	0
14.46507	-0.02573116	-0.03159659	-0.00160252	0.001158391	-0.04836556	0.03496132	0	0
14.48169	-0.02573116	-0.03159659	0	0	0.04852057	-0.03507337	0	0
14.49821	-0.02573116	-0.03159659	0	0	0	0	0	0
14.51477	-0.02570486	-0.03157758	0.001587575	0.001147587	0.04798907	0.03468917	0	0
14.53134	-0.02570486	-0.03157758	0	0	-0.04791586	-0.03463625	0	0
14.54791	-0.02570486	-0.03157758	0	0	0	0	0	0
14.56447	-0.02570486	-0.03157758	0	0	0	0	0	0
14.58104	-0.02573116	-0.03155857	-0.001587483	0.001147521	-0.04791172	0.03463326	0	0
14.59761	-0.02570486	-0.03157758	0.001587392	-0.001147455	0.09582067	-0.06926453	0	0
14.61417	-0.02573116	-0.03155857	-0.001587483	0.001147521	-0.09582067	0.06926453	0	0
14.63079	-0.02573116	-0.03155857	0	0	0.04783874	-0.03458051	0	0
14.64731	-0.02573116	-0.03155857	0	0	0	0	0	0
14.66387	-0.02573116	-0.03155857	0	0	0	0	0	0
14.68083	-0.02573116	-0.03155857	0	0	0	0	0	0
14.69734	-0.02573116	-0.03155857	0	0	0	0	0	0
14.71357	-0.02575746	-0.03153956	-0.001619841	0.001170911	-0.04946924	0.03575912	0	0
14.73014	-0.02575746	-0.03153956	0	0	0.04938294	-0.03569674	0	0
14.74671	-0.02578376	-0.03152055	-0.001587483	0.001147521	-0.0479131	0.03463426	0	0
14.76327	-0.02578376	-0.03152055	0	0	0.04791034	-0.03463227	0	0
14.77984	-0.02578376	-0.03152055	0	0	0	0	0	0
14.79641	-0.02578376	-0.03152055	0	0	0	0	0	0
14.81297	-0.02581006	-0.03150154	-0.001587666	0.001147654	-0.04791862	0.03463825	0	0
14.82954	-0.02581006	-0.03150154	0	0	0.04792	-0.03463924	0	0
14.84611	-0.02581006	-0.03150154	0	0	0	0	0	0
14.86267	-0.02581006	-0.03150154	0	0	0	0	0	0
14.87924	-0.02581006	-0.03150154	0	0	0	0	0	0
14.89779	-0.02581006	-0.03150154	0	0	0	0	0	0
14.91436	-0.02581006	-0.03150154	0	0	0	0	0	0
14.94749	-0.02578376	-0.03152055	0.0007937416	-0.0005737607	0.01597011	-0.01154409	0	0
14.96406	-0.02578376	-0.03152055	0	0	-0.01597103	0.01154475	0	0
14.98062	-0.02578376	-0.03152055	0	0	0	0	0	0
14.99719	-0.02578376	-0.03152055	0	0	0	0	0	0
15.01376	-0.02578376	-0.03152055	0	0	0	0	0	0
15.03057	-0.02578376	-0.03152055	0	0	0	0	0	0
15.04689	-0.02578376	-0.03152055	0	0	0	0	0	0
15.06346	-0.02578376	-0.03152055	0	0	0	0	0	0
15.08002	-0.02581006	-0.03150154	-0.001587483	0.001147521	-0.04791585	0.03463625	0	0
15.09659	-0.02581006	-0.03150154	0	0	0.04791172	-0.03463326	0	0
15.11316	-0.02578376	-0.03152055	0.001587483	-0.001147521	0.04791172	-0.03463326	0	0
15.12972	-0.02578376	-0.03152055	0	0	-0.0479131	0.03463426	0	0
15.14629	-0.02578376	-0.03152055	0	0	0	0	0	0
15.16286	-0.02578376	-0.03152055	0	0	0	0	0	0
15.17943	-0.02578376	-0.03152055	0	0	0	0	0	0
15.19599	-0.02578376	-0.03152055	0	0	0	0	0	0
15.21256	-0.02581006	-0.03150154	-0.001587575	0.001147587	-0.04791724	0.03463725	0	0
15.22921	-0.02581006	-0.03150154	0	0	0.04778793	-0.03454378	0	0
15.24573	-0.02581006	-0.03150154	0	0	0	0	0	0
15.26226	-0.02581006	-0.03150154	0	0	0	0	0	0
15.27883	-0.02581006	-0.03150154	0	0	0	0	0	0
15.29539	-0.02581006	-0.03150154	0	0	0	0	0	0
15.31196	-0.02581006	-0.03150154	0	0	0	0	0	0
15.32853	-0.02581006	-0.03150154	0	0	0	0	0	0
15.34509	-0.02581006	-0.03150154	0	0	0	0	0	0
15.36166	-0.02581006	-0.03150154	0	0	0	0	0	0
15.37823	-0.02581006	-0.03150154	0	0	0	0	0	0
15.39479	-0.02581006	-0.03150154	0	0	0	0	0	0
15.41136	-0.02581006	-0.03150154	0	0	0	0	0	0
15.42793	-0.02581006	-0.03150154	0	0	0	0	0	0
15.49419	-0.02581006	-0.03150154	0	0	0	0	0	0
15.52733	-0.02581006	-0.03150154	0	0	0	0	0	0
15.54389	-0.02581006	-0.03150154	0	0	0	0	0	0
15.56046	-0.02583635	-0.03148253	-0.001587097	0.001147323	-0.04790281	0.03462927	0	0
15.57703	-0.02583635	-0.03148253	0	0	0.04789867	-0.03462628	0	0
15.59359	-0.02583635	-0.03148253	0	0	0	0	0	0
15.61016	-0.02583635	-0.03148253	0	0	0	0	0	0
15.62673	-0.02583635	-0.03148253	0	0	0	0	0	0
15.64329	-0.02583635	-0.03148253	0	0	0	0	0	0
15.65986	-0.02583635	-0.03148253	0	0	0	0	0	0
15.67643	-0.02583635	-0.03148253	0	0	0	0	0	0
15.693	-0.02583635	-0.03148253	0	0	0	0	0	0
15.72751	-0.02583635	-0.03148253	0	0	0	0	0	0
15.74408	-0.02583635	-0.03148253	0	0	0	0	0	0
15.76065	-0.02583635	-0.03148253	0	0	0	0	0	0
15.77721	-0.02583635	-0.03148253	0	0	0	0	0	0
15.79378	-0.02583635	-0.03148253	0	0	0	0	0	0
15.81034	-0.02583635	-0.03148253	0	0	0	0	0	0
15.82691	-0.02583635	-0.03148253	0	0	0	0	0	0
15.84348	-0.02583635	-0.03148253	0	0	0	0	0	0
15.86004	-0.02583635	-0.03148253	0	0	0	0	0	0
15.87661	-0.02583635	-0.03148253	0	0	0	0	0	0
15.89318	-0.02583635	-0.03148253	0	0	0	0	0	0
15.90974	-0.02583635	-0.03148253	0	0	0	0	0	0
15.92631	-0.02583635	-0.03148253	0	0	0	0	0	0
15.94288	-0.02583635	-0.03148253	0	0	0	0	0	0
15.95974	-0.02583635	-0.03148253	0	0	0	0	0	0
15.97624	-0.02583635	-0.03148253	0	0	0	0	0	0
15.99258	-0.02583635	-0.03148253	0	0	0	0	0	0
16.00914	-0.02583635	-0.03148253	0	0	0	0	0	0
16.02571	-0.02583635	-0.03148253	0	0	0	0	0	0
16.04229	-0.02583635	-0.03148253	0	0	0	0	0	0
16.05885	-0.02583635	-0.03148253	0	0	0	0	0	0
16.07541	-0.02583635	-0.03148253	0	0	0	0	0	0
16.12838	-0.02583635	-0.03148253	0	0	0	0	0	0
16.14494	-0.02583635	-0.03148253	0	0	0	0	0	0
16.16151	-0.02583635	-0.03148253	0	0	0	0	0	0
16.17808	-0.02583635	-0.03148253	0	0	0	0	0	0
16.19464	-0.02583635	-0.03148253	0	0	0	0	0	0
16.21121	-0.02583635	-0.03148253	0	0	0	0	0	0
16.31062	-0.02583635	-0.03148253	0	0	0	0	0	0
16.32718	-0.02583635	-0.03148253	0	0	0	0	0	0
16.34375	-0.02581006	-0.03150154	0.001587279	-0.001147455	0.04790419	-0.03463027	0	0
16.36032	-0.02581006	-0.03150154	0	0	-0.04790419	0.03463027	0	0
16.37688	-0.02581006	-0.03150154	0	0	0	0	0	0
16.39345	-0.02581006	-0.03150154	0	0	0	0	0	0
16.41002	-0.02581006	-0.03150154	0	0	0	0	0	0
16.42658	-0.02581006	-0.03150154	0	0	0	0	0	0
16.44315	-0.02581006	-0.03150154	0	0	0	0	0	0
16.45972	-0.02581006	-0.03150154	0	0	0	0	0	0
16.47628	-0.02583635	-0.03148253	-0.001587279	0.001147455	-0.04790695	0.03463226	0	0
16.49285	-0.02583635	-0.03148253	0	0	0.04790419	-0.03463027	0	0
16.50942	-0.02586265	-0.03146353	-0.001587392	0.001147231	-0.04790758	0.03462349	0	0
16.52614	-0.02586265	-0.03146353	0	0	0.04768797	-0.03446477	0	0
16.54265	-0.02586265	-0.03146353	0	0	0	0	0	0
16.55916	-0.02586265	-0.03146353	0	0	0	0	0	0
16.59319	-0.02620453	-0.03121641	-0.01004822	0.007263067	-0.1988286	0.1437175	0	0
16.60931	-0.02628342	-0.03115939	-0.004892631	0.003536372	0.1028075	-0.07431393	0	0
16.62588	-0.02633601	-0.03112138	-0.003174671	0.002294461	0.05254993	-0.03798826	0	0
16.64245	-0.02636231	-0.03114038	-0.001587392	-0.001147231	0.04790419	-0.1038705	0	0
16.65901	-0.02636231	-0.03114038	0	0	0.04790758	0.03462349	0	0
16.67558	-0.02638861	-0.03115939	-0.001587279	-0.001147231	-0.04790419	-0.03462349	0	0
16.69215	-0.02654639	-0.03112138	-0.009523901	0.002294461	-0.2395277	0.1038705	0	0
16.70872	-0.02673047	-0.03102634	-0.01111107	0.005736377	-0.04790081	0.1038772	0	0
16.72528	-0.02683566	-0.03095032	-0.006349118	0.004588922	0.1437159	-0.03463026	0	0
16.74185	-0.02704603	-0.03083628	-0.01269812	0.006883046	-0.1916134	0.06923679	0	0
16.77498	-0.02725641	-0.03087429	-0.006349427	-0.00114724	0.1277409	-0.1615759	0	0
16.79155	-0.02754566	-0.03108336	-0.01746152	-0.01262088	-0.2235929	-0.2308677	0	0
16.80812	-0.02799269	-0.0314065	-0.0269824	-0.01950438	-0.2873573	-0.2077565	0	0
16.82468	-0.02917593	-0.03226202	-0.07142071	-0.05163954	-1.341151	-0.969841	0	0
16.84137	-0.03043796	-0.0331368	-0.07564536	-0.0524336	-0.1270538	-0.02388105	0	0
16.85788	-0.03046426	-0.03311778	-0.001592074	0.001151843	2.230695	1.614146	0	0
16.87438	-0.03046426	-0.03311778	0	0	0.04822378	-0.03488922	0	0
16.89095	-0.03051684	-0.03307974	-0.003173519	0.002295771	-0.09596481	0.06942237	0	0
16.90751	-0.03056942	-0.0330417	-0.003174615	0.002296339	-3.309131E-05	1.714648E-05	0	0
16.92408	-0.030622	-0.03300367	-0.003173519	0.002295771	3.309131E-05	-1.714648E-05	0	0
16.94065	-0.03070088	-0.03294661	-0.004761375	0.003444337	-0.04792158	0.03466379	0	0
16.95721	-0.03080604	-0.03287053	-0.006348387	0.004592374	-0.04790166	0.03465181	0	0
16.97378	-0.03340862	-0.03098833	-0.1571098	0.1136233	-4.550514	3.290939	0	0
16.99035	-0.0395583	-0.02661996	-0.3711956	0.2636752	-6.461493	4.528838	0	0
17.00698	-0.05161202	-0.01860191	-0.7246441	0.4820282	-10.64565	6.576654	0	0
17.02348	-0.06113425	-0.01234186	-0.5770885	0.3793859	4.453237	-3.097748	0	0
17.04005	-0.07182361	-0.007659515	-0.6451367	0.2825944	-2.057727	-2.926902	0	0
17.05661	-0.08751275	-0.007282201	-0.9471076	0.02277738	-9.113498	-7.841295	0	0
17.07318	-0.1103655	-0.009792166	-1.379553	-0.1515192	-13.05273	-5.260888	0	0
17.08975	-0.1271783	-0.01186954	-1.014822	-0.1253908	11.00824	0.7886047	0	0
17.10631	-0.1377794	-0.01315441	-0.6398848	-0.07755464	11.31562	1.443697	0	0
17.12288	-0.1477831	-0.0147423	-0.6038237	-0.09584557	1.088326	-0.5520213	0	0
17.15602	-0.1844072	-0.01907522	-1.105317	-0.1307677	-10.09007	-0.7026349	0	0
17.17258	-0.1926086	-0.01909416	-0.4950405	-0.001142846	12.27879	2.608058	0	0
17.18915	-0.1953705	-0.01687965	-0.1667041	0.1336681	9.909211	4.068602	0	0
17.20572	-0.1968135	-0.01565003	-0.08710317	0.07421999	2.402362	-1.794147	0	0
17.22228	-0.1967629	-0.01568785	0.003055384	-0.00228333	2.72099	-2.308875	0	0
17.23915	-0.196687	-0.01566894	0.004502658	0.001121578	0.04329007	0.1018458	0	0
17.25566	-0.196687	-0.01566894	0	0	-0.1349043	-0.03360363	0	0
17.27198	-0.196687	-0.01566894	0	0	0	0	0	0
17.28868	-0.1966617	-0.01568785	0.001515033	-0.001132594	0.04587694	-0.03429626	0	0
17.30512	-0.1966363	-0.01570677	0.001540736	-0.001151017	0.0007757624	-0.0005560555	0	0
17.32171	-0.196611	-0.01572568	0.001526033	-0.001140034	-0.0004452291	0.0003326139	0	0
17.33825	-0.196611	-0.01572568	0	0	-0.04605312	0.03440431	0	0
17.40661	-0.1961301	-0.01608507	0.00703622	-0.0052576	0.0828748	-0.06192565	0	0
17.42328	-0.1960288	-0.01604724	0.006075495	0.002269594	-0.01129948	0.08853035	0	0
17.43974	-0.1959275	-0.01604724	0.00614938	0	0.002229742	-0.06849255	0	0
17.45631	-0.1957503	-0.01614182	0.01069789	-0.005708832	0.1376864	-0.1728102	0	0
17.47288	-0.195573	-0.01627424	0.01069879	-0.007992837	2.715172E-05	-0.0689314	0	0
17.48944	-0.1952945	-0.01648233	0.01681509	-0.01256218	0.1846009	-0.137911	0	0
17.50601	-0.1947626	-0.01691749	0.03210446	-0.026266	0.4614607	-0.4136059	0	0
17.52258	-0.194408	-0.01722024	0.02140657	-0.01827406	-0.3228629	0.2411972	0	0
17.53915	-0.194408	-0.01725809	0	-0.002284192	-0.6460145	0.4825475	0	0
17.55588	-0.1944333	-0.01727701	-0.001514223	-0.001131102	-0.04547422	0.03462888	0	0
17.57228	-0.1944333	-0.01727701	0	0	0.04570197	0.0341387	0	0
17.5889	-0.1945599	-0.01733378	-0.007622389	-0.003416399	-0.2308414	-0.1034645	0	0
17.60541	-0.1946359	-0.01739055	-0.004601958	-0.00343782	0.09116728	-0.000646558	0	0
17.62198	-0.1949146	-0.01744732	-0.01681662	-0.003426344	-0.369213	0.0003469063	0	0
17.65512	-0.1956743	-0.01767442	-0.02292887	-0.00685387	-0.1229741	-0.06895933	0	0
17.67168	-0.2004049	-0.01958648	-0.2855696	-0.1154254	-5.284544	-2.184548	0	0
17.68825	-0.2064628	-0.02144285	-0.3657024	-0.1120636	-2.418691	0.1014712	0	0
17.70481	-0.2178803	-0.02402085	-0.6892361	-0.1556265	-9.765392	-1.314882	0	0
17.72138	-0.2390256	-0.02479846	-1.276335	-0.0469365	-17.71972	3.28046	0	0
17.73795	-0.2562651	-0.02424842	-1.04058	0.0332002	7.11512	2.41853	0	0
17.75452	-0.2793177	-0.02284532	-1.391138	0.08467194	-10.57864	1.553241	0	0
17.77108	-0.2956524	-0.02214401	-0.9861869	0.04234114	12.22144	-1.277546	0	0
17.78765	-0.3117068	-0.02028723	-0.9690504	0.1120757	0.5172388	2.104835	0	0
17.80421	-0.3132081	-0.01939712	-0.09061456	0.05372713	26.51125	-1.760963	0	0
17.82106	-0.3127793	-0.01882909	0.02544678	0.03371163	3.473149	-0.5989659	0	0
17.83735	-0.3128508	-0.01888589	-0.004388469	-0.003487739	-0.9004297	-1.122679	0	0
17.85409	-0.3129222	-0.01890482	-0.004267998	-0.001130628	0.003647391	0.07136371	0	0
17.87048	-0.3129937	-0.01896162	-0.004360381	-0.00346553	-0.002788125	-0.07046749	0	0
17.88705	-0.3130652	-0.01901842	-0.004314191	-0.003428932	0.001401583	0.001110537	0	0
17.90361	-0.3131366	-0.01907522	-0.004314191	-0.003428932	0	0	0	0
17.92063	-0.3131604	-0.01909416	-0.001399123	-0.001112491	0.08679777	0.06897331	0	0
17.93675	-0.3132319	-0.01915096	-0.004434696	-0.00352471	-0.09161378	-0.0728009	0	0
17.95366	-0.3133034	-0.01920776	-0.004222925	-0.003358014	0.006411194	0.005046569	0	0
17.97017	-0.3134224	-0.01926457	-0.007214038	-0.00344093	-0.08948896	-0.002480701	0	0
17.98645	-0.3134701	-0.01930244	-0.002925111	-0.002326086	0.1308029	0.03400031	0	0
20.69065	-0.03895397	0.03599963	0.101515	0.0204505	0.03839045	0.008372292	0	0
20.75522	-0.03895397	0.03599963	0	0	-0.03666439	-0.007386148	0	0
20.77179	-0.03895397	0.03599963	0	0	0	0	0	0
20.82149	-0.03895397	0.03599963	0	0	0	0	0	0
20.8382	-0.03895397	0.03599963	0	0	0	0	0	0
20.85462	-0.03895397	0.03599963	0	0	0	0	0	0
20.87122	-0.03895397	0.03599963	0	0	0	0	0	0
20.88775	-0.03895397	0.03599963	0	0	0	0	0	0
20.90432	-0.03895397	0.03599963	0	0	0	0	0	0
20.92089	-0.03895397	0.03599963	0	0	0	0	0	0
20.93745	-0.03895397	0.03599963	0	0	0	0	0	0
20.95522	-0.03895397	0.03599963	0	0	0	0	0	0
20.97179	-0.03895397	0.03599963	0	0	0	0	0	0
20.98835	-0.03895397	0.03599963	0	0	0	0	0	0
21.00492	-0.03895397	0.03599963	0	0	0	0	0	0
21.02149	-0.03895397	0.03599963	0	0	0	0	0	0
21.03834	-0.03895397	0.03599963	0	0	0	0	0	0
21.05462	-0.03895397	0.03599963	0	0	0	0	0	0
21.07136	-0.03895397	0.03599963	0	0	0	0	0	0
21.08787	-0.03895397	0.03599963	0	0	0	0	0	0
21.10439	-0.03895397	0.03599963	0	0	0	0	0	0
21.1209	-0.03895397	0.03599963	0	0	0	0	0	0
21.13791	-0.03895397	0.03599963	0	0	0	0	0	0
21.15402	-0.03895397	0.03599963	0	0	0	0	0	0
21.17059	-0.03895397	0.03599963	0	0	0	0	0	0
21.18716	-0.03895397	0.03599963	0	0	0	0	0	0
21.20372	-0.03895397	0.03599963	0	0	0	0	0	0
21.22047	-0.03895397	0.03599963	0	0	0	0	0	0
21.23686	-0.03895397	0.03599963	0	0	0	0	0	0
21.25349	-0.03895397	0.03599963	0	0	0	0	0	0
21.27001	-0.03892769	0.035981	0.001590875	-0.001128252	0.04799062	-0.03403503	0	0
21.28655	-0.03892769	0.035981	0	0	-0.04811519	0.03412338	0	0
21.30312	-0.03892769	0.035981	0	0	0	0	0	0
21.31969	-0.03892769	0.035981	0	0	0	0	0	0
21.33625	-0.03892769	0.035981	0	0	0	0	0	0
21.35282	-0.03892769	0.035981	0	0	0	0	0	0
21.36939	-0.03892769	0.035981	0	0	0	0	0	0
21.38595	-0.03892769	0.035981	0	0	0	0	0	0
21.40252	-0.03895397	0.03599963	-0.00158593	0.001124745	-0.04786347	0.03394486	0	0
21.41911	-0.03895397	0.03599963	0	0	0.04783869	-0.03392728	0	0
21.43565	-0.03895397	0.03599963	0	0	0	0	0	0
21.45222	-0.03895397	0.03599963	0	0	0	0	0	0
21.46914	-0.03895397	0.03599963	0	0	0	0	0	0
21.48535	-0.03895397	0.03599963	0	0	0	0	0	0
21.50192	-0.03895397	0.03599963	0	0	0	0	0	0
21.51869	-0.03895397	0.03599963	0	0	0	0	0	0
21.5517	-0.03895397	0.03599963	0	0	0	0	0	0
21.58476	-0.03895397	0.03599963	0	0	0	0	0	0
21.60132	-0.03895397	0.03599963	0	0	0	0	0	0
21.61789	-0.03895397	0.03599963	0	0	0	0	0	0
21.63446	-0.03892769	0.035981	0.001585748	-0.001124615	0.04785245	-0.03393704	0	0
21.65102	-0.03892769	0.035981	0	0	-0.04786347	0.03394486	0	0
21.66781	-0.03892769	0.035981	0	0	0	0	0	0
21.68416	-0.03892769	0.035981	0	0	0	0	0	0
21.70689	-0.03890142	0.03592511	0.001155654	-0.002458283	0.02956597	-0.06289212	0	0
21.72346	-0.03887514	0.03590648	0.00158579	-0.001124486	0.0109431	0.03393313	0	0
21.74003	-0.03890142	0.03588784	-0.001586338	-0.001124649	-0.0957295	-4.936073E-06	0	0
21.75685	-0.03887514	0.03586921	0.001562411	-0.001107686	0.0943182	0.000508109	0	0
21.77336	-0.03890142	0.03585058	-0.001591653	-0.001128643	-0.0946342	-0.0006287732	0	0
21.78973	-0.03887514	0.03583195	0.001605003	-0.001137882	0.09721392	-0.0002809741	0	0
21.8063	-0.03887514	0.03579469	0	-0.002249264	-0.04872517	-0.03373969	0	0
21.82286	-0.03882259	0.03575742	0.003172451	-0.002249523	0.09575026	-7.821326E-06	0	0
21.83943	-0.03866493	0.03560837	0.009516257	-0.008997057	0.1914675	-0.2036527	0	0
21.856	-0.03819195	0.03523569	0.02854922	-0.02249467	0.5744159	-0.4073587	0	0
21.87256	-0.03637868	0.03391239	0.1094616	-0.07988382	2.442081	-1.732108	0	0
21.88944	-0.03637868	0.03387511	0	-0.002209435	-3.273408	2.322824	0	0
21.90569	-0.03640496	0.03389375	-0.00161649	0.001146713	-0.04879138	0.1013004	0	0
21.92226	-0.03640496	0.03389375	0	0	0.04924785	-0.03493567	0	0
21.93883	-0.03640496	0.03389375	0	0	0	0	0	0
21.95549	-0.03640496	0.03389375	0	0	0	0	0	0
21.97196	-0.03640496	0.03389375	0	0	0	0	0	0
21.98853	-0.03640496	0.03389375	0	0	0	0	0	0
22.0051	-0.03640496	0.03389375	0	0	0	0	0	0
22.02167	-0.03640496	0.03389375	0	0	0	0	0	0
22.03823	-0.03640496	0.03389375	0	0	0	0	0	0
22.0548	-0.03640496	0.03389375	0	0	0	0	0	0
22.07157	-0.03640496	0.03389375	0	0	0	0	0	0
22.08808	-0.03640496	0.03389375	0	0	0	0	0	0
22.10459	-0.03637868	0.03387511	0.001591469	-0.001128964	0.0481943	-0.0341883	0	0
22.1211	-0.03637868	0.03387511	0	0	-0.0481943	0.0341883	0	0
22.13763	-0.03637868	0.03387511	0	0	0	0	0	0
22.1542	-0.03637868	0.03387511	0	0	0	0	0	0
22.18733	-0.03643124	0.03383783	-0.001586268	-0.001125194	-0.03191577	-0.02263895	0	0
22.2039	-0.03645752	0.03381918	-0.001586563	-0.001125324	-5.93791E-06	-2.607059E-06	0	0
22.22067	-0.03645752	0.03381918	0	0	0.04758399	0.03375058	0	0
22.23719	-0.03645752	0.03381918	0	0	0	0	0	0
22.2536	-0.03645752	0.03381918	0	0	0	0	0	0
22.27017	-0.03645752	0.03381918	0	0	0	0	0	0
22.31986	-0.03648381	0.03380054	-0.0005288542	-0.0003751079	-0.007981574	-0.005661205	0	0
22.33643	-0.03648381	0.03380054	0	0	0.007981115	0.005660879	0	0
22.353	-0.03648381	0.03380054	0	0	0	0	0	0
22.36978	-0.03648381	0.03380054	0	0	0	0	0	0
22.38613	-0.03648381	0.03380054	0	0	0	0	0	0
22.40269	-0.03648381	0.03380054	0	0	0	0	0	0
22.41932	-0.03648381	0.03380054	0	0	0	0	0	0
22.43583	-0.03648381	0.03380054	0	0	0	0	0	0
22.45239	-0.03648381	0.03380054	0	0	0	0	0	0
22.46896	-0.03651008	0.0337819	-0.001586155	-0.001125194	-0.04787026	-0.03395843	0	0
22.48553	-0.03651008	0.0337819	0	0	0.04787026	0.03395843	0	0
22.50209	-0.03658893	0.03383783	-0.004759463	0.003375971	-0.1436491	0.1018929	0	0
22.52008	-0.03677289	0.03396831	-0.01022574	0.007253399	-0.1581887	0.1122089	0	0
22.53689	-0.03685173	0.03402424	-0.004690337	0.003326939	0.1590654	-0.1128307	0	0
22.5534	-0.03685173	0.03402424	0	0	0.1407686	-0.09984969	0	0
22.60292	-0.03829706	0.03329718	-0.02918869	-0.01468316	-0.4420741	-0.2223822	0	0
22.61949	-0.03908535	0.03281239	-0.04758128	-0.02926202	-0.2783218	-0.2206114	0	0
22.63605	-0.05295046	0.02325257	-0.836996	-0.5770983	-23.82596	-16.53469	0	0
22.65262	-0.06870747	0.01274826	-0.9512045	-0.6341144	-3.447215	-1.720948	0	0
22.66919	-0.07792086	0.007643795	-0.5561216	-0.308106	11.92431	9.839521	0	0
22.68575	-0.09956443	-0.0009874364	-1.306258	-0.5209222	-22.63786	-6.422436	0	0
22.70232	-0.1183652	-0.005113483	-1.134945	-0.2490773	5.170245	8.204293	0	0
22.71889	-0.1382183	-0.007508584	-1.198338	-0.1445686	-1.913311	3.154263	0	0
22.73553	-0.1643719	-0.009943203	-1.571038	-0.1462467	-11.221	-0.05052463	0	0
22.75205	-0.1827537	-0.01168064	-1.113241	-0.1052229	13.80602	1.237174	0	0
22.76859	-0.2059586	-0.01459104	-1.402914	-0.1759561	-8.764041	-2.140029	0	0
22.78515	-0.2212643	-0.01722024	-0.9238573	-0.1586985	14.46962	0.5212551	0	0
22.80172	-0.2309117	-0.01903735	-0.5823164	-0.1096814	10.30773	1.479341	0	0
22.81829	-0.248814	-0.02292115	-1.080582	-0.2344264	-15.03769	-3.764812	0	0
22.83486	-0.2618959	-0.02529168	-0.7896264	-0.1430853	8.781065	2.756679	0	0
22.85162	-0.2795609	-0.02842354	-1.053764	-0.1868241	-7.924701	-1.312259	0	0
22.86813	-0.2840285	-0.02933522	-0.2705722	-0.05521351	23.53652	3.955168	0	0
22.90116	-0.3028129	-0.03509646	-0.5687478	-0.1744368	-6.018939	-2.406627	0	0
22.91769	-0.3035081	-0.03564843	-0.04205067	-0.03339039	10.62776	2.84605	0	0
22.93426	-0.3042987	-0.03623858	-0.04772407	-0.03562171	-0.1714111	-0.06741495	0	0
22.95082	-0.3044664	-0.03637186	-0.01012045	-0.008044779	1.134879	0.8322733	0	0
22.96739	-0.3045143	-0.03640994	-0.002892586	-0.002298508	0.2181375	0.1734228	0	0
22.98422	-0.3045622	-0.03640994	-0.002846545	0	0.001378794	0.0688342	0	0
23.00053	-0.3045382	-0.03642898	0.001469126	-0.001167398	0.1302472	-0.03523215	0	0
23.01724	-0.3045382	-0.03642898	0	0	-0.04448942	0.03535221	0	0
23.03376	-0.3045143	-0.03640994	0.001448664	0.001152572	0.04359277	0.03468286	0	0
23.05023	-0.3044664	-0.03640994	0.002909333	0	0.04427424	-0.0349355	0	0
23.06679	-0.3044664	-0.03640994	0	0	-0.08807255	0	0	0
23.08336	-0.3044185	-0.03640994	0.002890787	0	0.08725919	0	0	0
23.09993	-0.3044185	-0.03640994	0	0	-0.08724412	0	0	0
23.11681	-0.3044185	-0.03640994	0	0	0	0	0	0
23.13306	-0.3044185	-0.03640994	0	0	0	0	0	0
23.14963	-0.3044425	-0.03642898	-0.001446293	-0.001149254	-0.04407545	-0.03502326	0	0
23.16619	-0.3044425	-0.03642898	0	0	0.0436492	0.03468456	0	0
23.18276	-0.3044425	-0.03642898	0	0	0	0	0	0
23.19937	-0.3044425	-0.03642898	0	0	0	0	0	0
23.21589	-0.3044185	-0.03644802	0.001449965	-0.001152172	0.04376508	-0.03477664	0	0
23.24974	-0.3043706	-0.03644802	0.001415091	0	-0.0006923751	0.02287452	0	0
23.2663	-0.3043467	-0.03646706	0.001446293	-0.001149254	0.0006189469	-0.02279758	0	0
23.28287	-0.3043467	-0.03646706	0	0	-0.0436492	0.03468456	0	0
23.29944	-0.3043467	-0.03646706	0	0	0	0	0	0
23.316	-0.3043467	-0.03646706	0	0	0	0	0	0
23.33257	-0.3043467	-0.03646706	0	0	0	0	0	0
23.34948	-0.3043467	-0.03646706	0	0	0	0	0	0
23.3657	-0.3043227	-0.03644802	0.001476552	0.001173298	0.04456241	0.03541021	0	0
23.38227	-0.3042987	-0.03646706	0.001446293	-0.001149254	-0.0009226624	-0.07082043	0	0
23.39884	-0.3042748	-0.03644802	0.001444494	0.001149254	-5.428939E-05	0.06936911	0	0
23.49858	-0.304179	-0.0364861	0.0009606329	-0.0003817881	-0.004160163	-0.01316366	0	0
23.5148	-0.304179	-0.0364861	0	0	-0.008283689	0.003292219	0	0
23.53137	-0.304155	-0.03650514	0.001446626	-0.001149519	0.04411894	-0.03505782	0	0
23.54794	-0.304155	-0.03650514	0	0	-0.04366429	0.03469654	0	0
23.56463	-0.304155	-0.03650514	0	0	0	0	0	0
23.58114	-0.3040831	-0.03652418	0.004355426	-0.001153637	0.1311827	-0.03474683	0	0
23.59764	-0.3040352	-0.03656227	0.002902818	-0.0023083	-0.04401462	-0.03498677	0	0
23.6142	-0.3039394	-0.03660035	0.005784506	-0.002298469	0.08714508	0.0002973145	0	0
23.63077	-0.3038196	-0.03661939	0.007232297	-0.001149387	0.04369444	0.03467937	0	0
23.64734	-0.3036279	-0.03669556	0.01156901	-0.004596937	0.1308823	-0.1040473	0	0
23.66391	-0.3034362	-0.03673364	0.01157214	-0.002298733	9.449154E-05	0.06935595	0	0
23.68047	-0.3028129	-0.03692407	0.0376198	-0.01149434	0.78612	-0.277524	0	0
23.69704	-0.3014218	-0.03726687	0.08397134	-0.0206913	1.398892	-0.2775647	0	0
23.71373	-0.299645	-0.03597205	0.1064346	0.07756598	0.6753767	2.954187	0	0
23.73025	-0.2975297	-0.03444944	0.1280968	0.09220225	0.6523411	0.4407596	0	0
23.74674	-0.2940863	-0.03176769	0.208805	0.1626197	2.445349	2.133554	0	0
23.76331	-0.2900801	-0.02861345	0.2418151	0.1903902	0.9985468	0.8400511	0	0
23.77987	-0.2840285	-0.02402085	0.3652717	0.2772097	3.725926	2.620218	0	0
23.79644	-0.2791232	-0.02076079	0.2960871	0.1967778	-2.087995	-2.427441	0	0
23.81301	-0.2723985	-0.01947286	0.4059477	0.07774854	3.315792	-3.592517	0	0
23.82957	-0.2616749	-0.02102602	0.6472045	-0.09373797	7.281144	-5.175474	0	0
23.84614	-0.2451025	-0.02470362	1.000543	-0.2220317	10.6644	-3.872134	0	0
23.86271	-0.2328808	-0.02701856	0.7377002	-0.1397298	-7.933535	2.48416	0	0
23.87935	-0.2206381	-0.0279678	0.7355047	-0.05702713	-0.06610363	2.490096	0	0
23.89584	-0.2087307	-0.02762604	0.7221407	0.02072651	-0.4033286	2.34661	0	0
23.91241	-0.1938505	-0.02453291	0.8982684	0.1867228	5.328428	5.02192	0	0
23.9294	-0.1834915	-0.02066607	0.6096907	0.2275863	-8.599887	1.217771	0	0
23.94554	-0.1758999	-0.01502594	0.4702462	0.3493683	-4.208443	3.675388	0	0
23.96211	-0.165345	-0.007225607	0.6370992	0.4708291	5.100817	3.713144	0	0
23.97867	-0.1570127	-0.001138069	0.5029393	0.3674445	-4.048953	-3.120152	0	0
24.01243	-0.1382441	0.01256073	0.5560649	0.4058609	1.055761	0.7634467	0	0
24.02899	-0.1299995	0.01853795	0.4976435	0.3607856	-1.161006	-0.8957788	0	0
24.04556	-0.1189879	0.02648558	0.6645877	0.4796647	5.038098	3.587573	0	0
24.06213	-0.1139516	0.0301449	0.3040627	0.2209281	-10.88129	-7.809136	0	0
24.07869	-0.1030026	0.03799259	0.6608812	0.4736876	10.77004	7.629172	0	0
24.0955	-0.09750561	0.04188231	0.3269807	0.2313742	-10.00343	-7.259543	0	0
24.11202	-0.09273326	0.04528484	0.2889574	0.2060178	-1.140912	-0.7608332	0	0
24.12853	-0.09116763	0.04639976	0.09484041	0.06753773	-5.878087	-4.193337	0	0
24.14504	-0.09056735	0.04682707	0.03635005	0.02587541	-1.771258	-1.261656	0	0
24.16155	-0.09056735	0.04682707	0	0	-1.100722	-0.7835374	0	0
24.17809	-0.09054125	0.04680849	0.001577723	-0.001123053	0.04773394	-0.0339779	0	0
24.19466	-0.09059345	0.04677133	-0.003151087	-0.002243001	-0.1428309	-0.03382739	0	0
24.21123	-0.09056735	0.04675276	0.001575362	-0.001121147	0.1426527	0.03385959	0	0
24.24436	-0.09056735	0.04675276	0	0	-0.03169513	0.02255665	0	0
24.26093	-0.09054125	0.04677133	0.001575725	0.001121405	0.03170486	0.02256358	0	0
24.27749	-0.09054125	0.04677133	0	0	-0.04756095	-0.03384797	0	0
24.29406	-0.09051515	0.04675276	0.001575362	-0.001121147	0.04754452	-0.03383628	0	0
24.31063	-0.09048904	0.04669702	0.001575812	-0.003364115	1.357235E-05	-0.06769291	0	0
24.34377	-0.09033244	0.04658556	0.004725494	-0.003363534	0.06336445	1.168664E-05	0	0
24.36033	-0.09014972	0.04649266	0.01103269	-0.005609021	0.1269011	-0.04517928	0	0
24.3769	-0.09007142	0.04643692	0.004725991	-0.003363953	-0.1903585	0.06776409	0	0
24.39347	-0.08986259	0.04628829	0.01260615	-0.008972681	0.2378235	-0.1692718	0	0
24.41003	-0.08967986	0.04615823	0.01103105	-0.007851405	-0.0475419	0.03384408	0	0
24.42675	-0.08636358	0.04379778	0.1983893	-0.1412091	5.62953	-4.006983	0	0
24.44316	-0.08066668	0.03974254	0.3470222	-0.2470214	4.48601	-3.193605	0	0
24.45973	-0.07386537	0.03490025	0.4105277	-0.2922809	1.925355	-1.372175	0	0
24.4763	-0.06477766	0.02842772	0.5485349	-0.3906827	4.165066	-2.969771	0	0
24.49286	-0.0584334	0.02390688	0.3829404	-0.2728785	-4.997652	3.555337	0	0
24.50943	-0.05032589	0.01808861	0.4893703	-0.3511918	3.212058	-2.363501	0	0
24.526	-0.04662408	0.01544756	0.2234674	-0.159432	-8.025426	5.787656	0	0
24.54333	-0.03884887	0.0098967	0.4486521	-0.3203005	6.6435	-4.746015	0	0
24.55934	-0.03601074	0.007831594	0.1772477	-0.1289709	-8.139929	5.738335	0	0
24.5757	-0.03177877	0.004769174	0.2586885	-0.1871971	2.515819	-1.798688	0	0
24.59227	-0.02686196	0.001252422	0.2967453	-0.2122472	1.15574	-0.7607413	0	0
24.6254	-0.0244425	-0.0005167531	0.07302782	-0.05339995	-4.501377	3.196135	0	0
24.64197	-0.0244688	-0.0005355791	-0.001587504	-0.001136342	-1.501379	1.051626	0	0
24.65853	-0.0244951	-0.0005544053	-0.001587504	-0.001136349	0	-2.108053E-07	0	0
24.6751	-0.0246529	-0.0005920579	-0.009524689	-0.002272716	-0.2395447	-0.03429562	0	0
24.69193	-0.0248107	-0.0006673645	-0.009373716	-0.004473411	0.004519947	-0.06588614	0	0
24.70823	-0.02512629	-0.0008556384	-0.01936121	-0.0115504	-0.3014233	-0.213584	0	0
24.72496	-0.02525778	-0.000799155	-0.007862843	0.003377455	0.348184	0.4520329	0	0
24.74147	-0.02541558	-0.0006861914	-0.00955637	0.006841341	-0.0509553	0.1042223	0	0
24.75798	-0.02562597	-0.0005355791	-0.01274168	0.009121428	-0.09645475	0.06904367	0	0
24.7745	-0.02570486	-0.0004791013	-0.00477636	0.003419244	0.2411572	-0.1726388	0	0
24.79107	-0.02570486	-0.0004791013	0	0	0.1443669	-0.1033477	0	0
24.80763	-0.02573116	-0.0004602755	-0.001587392	0.001136323	-0.04790758	0.0342943	0	0
24.82516	-0.02573116	-0.0004602755	0	0	0.04656728	-0.03333485	0	0
24.84172	-0.02573116	-0.0004602755	0	0	0	0	0	0
24.85829	-0.02573116	-0.0004602755	0	0	0	0	0	0
24.92455	-0.02573116	-0.0004602755	0	0	0	0	0	0
24.94112	-0.02573116	-0.0004602755	0	0	0	0	0	0
24.95769	-0.02573116	-0.0004602755	0	0	0	0	0	0
24.97426	-0.02573116	-0.0004602755	0	0	0	0	0	0
24.99082	-0.02573116	-0.0004602755	0	0	0	0	0	0
25.00765	-0.02575746	-0.0004791013	-0.001562566	-0.001118552	-0.04678668	-0.03349191	0	0
25.02417	-0.02575746	-0.0004791013	0	0	0.0468643	0.03354747	0	0
25.04069	-0.02575746	-0.0004791013	0	0	0	0	0	0
25.05709	-0.02575746	-0.0004791013	0	0	0	0	0	0
25.0737	-0.02578376	-0.0004602755	-0.001583018	0.001133192	-0.04794392	0.03432031	0	0
25.09022	-0.02578376	-0.0004602755	0	0	0.04778108	-0.03420374	0	0
25.10679	-0.02581006	-0.0004414499	-0.001587392	0.001136318	-0.04797939	0.03434554	0	0
25.12336	-0.02581006	-0.0004414499	0	0	0.04790758	-0.03429414	0	0
25.13992	-0.02583635	-0.0004226244	-0.001587462	0.001136442	-0.04791246	0.03429985	0	0
25.17306	-0.02588895	-0.0003849737	-0.001587301	0.001136236	3.253428E-06	-4.143495E-06	0	0
25.18978	-0.02588895	-0.0003849737	0	0	0.03183393	-0.02278765	0	0
25.20619	-0.02591525	-0.0003661485	-0.001602893	0.001147388	-0.04837819	0.03463022	0	0
25.22276	-0.02599414	-0.0003096735	-0.004762063	0.003408836	-0.09580721	0.06858225	0	0
25.23932	-0.02604674	-0.000234375	-0.003175037	0.004545548	0.04789931	0.03430804	0	0
25.25589	-0.02609934	-0.0001967264	-0.003174671	0.002272474	1.103278E-05	-0.06860548	0	0
25.27246	-0.02612563	-0.0001779023	-0.001587209	0.001136097	0.04790695	-0.03429396	0	0
25.28902	-0.02615193	-0.0001590782	-0.001587462	0.001136352	-7.638178E-06	7.708447E-06	0	0
25.30559	-0.02615193	-0.0001590782	0	0	0.04791246	-0.03429715	0	0
25.32216	-0.02617823	-0.0001402543	-0.001587392	0.001136215	-0.04790758	0.03429104	0	0
25.33872	-0.02617823	-0.0001402543	0	0	0.04791034	-0.03429301	0	0
25.35529	-0.02617823	-0.0001402543	0	0	0	0	0	0
25.37186	-0.02617823	-0.0001402543	0	0	0	0	0	0
25.38842	-0.02617823	-0.0001402543	0	0	0	0	0	0
25.40499	-0.02620453	-0.0001590782	-0.001587279	-0.001136215	-0.04790695	-0.03429301	0	0
25.42156	-0.02620453	-0.0001590782	0	0	0.04790419	0.03429104	0	0
25.43813	-0.02620453	-0.0001590782	0	0	0	0	0	0
25.45469	-0.02620453	-0.0001590782	0	0	0	0	0	0
25.47126	-0.02620453	-0.0001590782	0	0	0	0	0	0
25.48783	-0.02620453	-0.0001590782	0	0	0	0	0	0
25.52096	-0.02620453	-0.0001590782	0	0	0	0	0	0
25.55805	-0.02620453	-0.0001590782	0	0	0	0	0	0
25.5746	-0.02620453	-0.0001590782	0	0	0	0	0	0
25.59117	-0.02620453	-0.0001590782	0	0	0	0	0	0
25.60773	-0.02620453	-0.0001590782	0	0	0	0	0	0
25.6243	-0.02620453	-0.0001590782	0	0	0	0	0	0
25.64086	-0.02620453	-0.0001590782	0	0	0	0	0	0
25.65762	-0.02620453	-0.0001590782	0	0	0	0	0	0
25.674	-0.02620453	-0.0001590782	0	0	0	0	0	0
25.69057	-0.02620453	-0.0001590782	0	0	0	0	0	0
25.70716	-0.02620453	-0.0001590782	0	0	0	0	0	0
25.7237	-0.02617823	-0.0001779023	0.001589659	-0.001137924	0.04797876	-0.0343446	0	0
25.74026	-0.02617823	-0.0001779023	0	0	-0.04801192	0.03436834	0	0
25.75683	-0.02617823	-0.0001779023	0	0	0	0	0	0
25.7737	-0.02617823	-0.0001779023	0	0	0	0	0	0
25.78997	-0.02617823	-0.0001779023	0	0	0	0	0	0
25.80653	-0.02620453	-0.0001590782	-0.001587279	0.001136221	-0.0483495	0.03460999	0	0
25.82324	-0.02620453	-0.0001590782	0	0	0.04770373	-0.03414773	0	0
25.83967	-0.02620453	-0.0001590782	0	0	0	0	0	0
25.85626	-0.02620453	-0.0001590782	0	0	0	0	0	0
25.8728	-0.02620453	-0.0001590782	0	0	0	0	0	0
25.88937	-0.02620453	-0.0001590782	0	0	0	0	0	0
25.90593	-0.02620453	-0.0001590782	0	0	0	0	0	0
25.92281	-0.02620453	-0.0001590782	0	0	0	0	0	0
25.93906	-0.02620453	-0.0001590782	0	0	0	0	0	0
25.95583	-0.02620453	-0.0001590782	0	0	0	0	0	0
25.97234	-0.02620453	-0.0001590782	0	0	0	0	0	0
26.07191	-0.02617823	-0.0001779023	0.0002640956	-0.0001890474	0.002275018	-0.001628525	0	0
26.08843	-0.02617823	-0.0001779023	0	0	-0.002274981	0.001628498	0	0
26.10494	-0.02617823	-0.0001779023	0	0	0	0	0	0
26.1213	-0.02617823	-0.0001779023	0	0	0	0	0	0
26.13787	-0.02617823	-0.0001779023	0	0	0	0	0	0
26.15447	-0.02617823	-0.0001779023	0	0	0	0	0	0
26.171	-0.02620453	-0.0001590782	-0.001591126	0.001138975	-0.04802305	0.0343763	0	0
26.18757	-0.02620453	-0.0001590782	0	0	0.04807563	-0.03441395	0	0
26.20413	-0.02620453	-0.0001590782	0	0	0	0	0	0
26.2207	-0.02620453	-0.0001590782	0	0	0	0	0	0
26.23727	-0.02620453	-0.0001590782	0	0	0	0	0	0
26.25383	-0.02620453	-0.0001590782	0	0	0	0	0	0
26.2704	-0.02620453	-0.0001590782	0	0	0	0	0	0
26.28697	-0.02620453	-0.0001590782	0	0	0	0	0	0
26.30358	-0.02620453	-0.0001590782	0	0	0	0	0	0
26.3201	-0.02620453	-0.0001590782	0	0	0	0	0	0
26.33667	-0.02620453	-0.0001590782	0	0	0	0	0	0
26.35324	-0.02620453	-0.0001590782	0	0	0	0	0	0
26.3698	-0.02620453	-0.0001590782	0	0	0	0	0	0
26.40315	-0.02620453	-0.0001590782	0	0	0	0	0	0
26.4195	-0.02620453	-0.0001590782	0	0	0	0	0	0
26.43931	-0.02620453	-0.0001590782	0	0	0	0	0	0
26.45587	-0.02620453	-0.0001590782	0	0	0	0	0	0
26.47244	-0.02620453	-0.0001590782	0	0	0	0	0	0
26.48901	-0.02620453	-0.0001590782	0	0	0	0	0	0
26.50558	-0.02620453	-0.0001590782	0	0	0	0	0	0
26.52214	-0.02620453	-0.0001590782	0	0	0	0	0	0
26.53871	-0.02620453	-0.0001590782	0	0	0	0	0	0
26.55527	-0.02620453	-0.0001590782	0	0	0	0	0	0
26.57184	-0.02620453	-0.0001590782	0	0	0	0	0	0
26.58841	-0.02620453	-0.0001590782	0	0	0	0	0	0
26.60497	-0.02620453	-0.0001590782	0	0	0	0	0	0
26.62181	-0.02620453	-0.0001590782	0	0	0	0	0	0
26.63832	-0.02620453	-0.0001590782	0	0	0	0	0	0
26.65467	-0.02620453	-0.0001590782	0	0	0	0	0	0
26.67124	-0.02620453	-0.0001590782	0	0	0	0	0	0
26.68781	-0.02620453	-0.0001590782	0	0	0	0	0	0
26.70438	-0.02620453	-0.0001590782	0	0	0	0	0	0
26.72094	-0.02620453	-0.0001590782	0	0	0	0	0	0
26.73751	-0.02620453	-0.0001590782	0	0	0	0	0	0
26.75408	-0.02620453	-0.0001590782	0	0	0	0	0	0
26.77064	-0.02620453	-0.0001590782	0	0	0	0	0	0
26.78742	-0.02620453	-0.0001590782	0	0	0	0	0	0
26.80394	-0.02620453	-0.0001590782	0	0	0	0	0	0
26.82034	-0.02620453	-0.0001590782	0	0	0	0	0	0
26.87004	-0.02620453	-0.0001590782	0	0	0	0	0	0
26.95288	-0.02620453	-0.0001590782	0	0	0	0	0	0
26.96944	-0.02620453	-0.0001590782	0	0	0	0	0	0
26.98601	-0.02620453	-0.0001590782	0	0	0	0	0	0
27.00258	-0.02620453	-0.0001590782	0	0	0	0	0	0
27.01914	-0.02620453	-0.0001590782	0	0	0	0	0	0
27.03571	-0.02620453	-0.0001590782	0	0	0	0	0	0
27.05228	-0.02620453	-0.0001590782	0	0	0	0	0	0
27.06884	-0.02620453	-0.0001590782	0	0	0	0	0	0
27.08541	-0.02620453	-0.0001590782	0	0	0	0	0	0
27.10198	-0.02620453	-0.0001590782	0	0	0	0	0	0
27.11866	-0.02620453	-0.0001590782	0	0	0	0	0	0
27.13511	-0.02620453	-0.0001590782	0	0	0	0	0	0
27.15168	-0.02620453	-0.0001590782	0	0	0	0	0	0
27.16824	-0.02620453	-0.0001590782	0	0	0	0	0	0
27.18481	-0.02620453	-0.0001590782	0	0	0	0	0	0
27.21823	-0.02623083	-0.0001402543	-0.0007869014	0.0005632441	-0.01574187	0.01126763	0	0
27.25125	-0.02623083	-0.0001402543	0	0	0.01184335	-0.008477167	0	0
27.26775	-0.02623083	-0.0001402543	0	0	0	0	0	0
27.28432	-0.02623083	-0.0001402543	0	0	0	0	0	0
27.30088	-0.02623083	-0.0001402543	0	0	0	0	0	0
27.31745	-0.02623083	-0.0001402543	0	0	0	0	0	0
27.33401	-0.02623083	-0.0001402543	0	0	0	0	0	0
27.35058	-0.02623083	-0.0001402543	0	0	0	0	0	0
27.36715	-0.02623083	-0.0001402543	0	0	0	0	0	0
27.38371	-0.02623083	-0.0001402543	0	0	0	0	0	0
27.40036	-0.02623083	-0.0001402543	0	0	0	0	0	0
27.41687	-0.02623083	-0.0001402543	0	0	0	0	0	0
27.43341	-0.02623083	-0.0001402543	0	0	0	0	0	0
27.44998	-0.02623083	-0.0001402543	0	0	0	0	0	0
27.46655	-0.02623083	-0.0001402543	0	0	0	0	0	0
27.48311	-0.02623083	-0.0001402543	0	0	0	0	0	0
27.49968	-0.02623083	-0.0001402543	0	0	0	0	0	0
27.51625	-0.02623083	-0.0001402543	0	0	0	0	0	0
27.53282	-0.02623083	-0.0001402543	0	0	0	0	0	0
27.54938	-0.02620453	-0.0001590782	0.001587392	-0.001136215	0.04791034	-0.03429301	0	0
27.56601	-0.02620453	-0.0001590782	0	0	-0.04782499	0.03423192	0	0
27.58252	-0.02620453	-0.0001590782	0	0	0	0	0	0
27.59908	-0.02620453	-0.0001590782	0	0	0	0	0	0
27.61565	-0.02620453	-0.0001590782	0	0	0	0	0	0
27.63222	-0.02623083	-0.0001779023	-0.001587575	-0.001136352	-0.0479131	-0.03429517	0	0
27.64879	-0.02623083	-0.0001779023	0	0	0.04791586	0.03429715	0	0
27.66536	-0.02623083	-0.0001779023	0	0	0	0	0	0
27.68192	-0.02623083	-0.0001779023	0	0	0	0	0	0
27.69849	-0.02623083	-0.0001779023	0	0	0	0	0	0
27.71505	-0.02623083	-0.0001779023	0	0	0	0	0	0
27.73162	-0.02623083	-0.0001779023	0	0	0	0	0	0
27.74818	-0.02625712	-0.0001590782	-0.001587279	0.001136221	-0.04790695	0.03429319	0	0
27.76475	-0.02625712	-0.0001590782	0	0	0.04790419	-0.03429122	0	0
27.78132	-0.02625712	-0.0001590782	0	0	0	0	0	0
27.79789	-0.02623083	-0.0001402543	0.001587279	0.001136215	0.04790419	0.03429104	0	0
27.81445	-0.02623083	-0.0001402543	0	0	-0.04790419	-0.03429104	0	0
27.83102	-0.02623083	-0.0001402543	0	0	0	0	0	0
27.84759	-0.02625712	-0.0001590782	-0.001587462	-0.001136346	-0.04791246	-0.03429696	0	0
27.86415	-0.02625712	-0.0001590782	0	0	0.04791246	0.03429696	0	0
27.88072	-0.02625712	-0.0001590782	0	0	0	0	0	0
27.91402	-0.02659899	0.0001232695	-0.0102673	0.008479781	-0.2059069	0.1700588	0	0
27.93074	-0.02665158	0.0001609141	-0.003145587	0.002251493	0.1423876	-0.1245249	0	0
27.94725	-0.02665158	0.0001609141	0	0	0.09466156	-0.06775519	0	0
27.96372	-0.02662528	0.0001420918	0.001596654	-0.001142822	0.04841286	-0.03465199	0	0
27.98028	-0.02657269	0.0001420918	0.003174559	0	0.04776147	0.03459198	0	0
27.99685	-0.02654639	0.0001232695	0.001587462	-0.001136249	-0.04790143	-0.03429404	0	0
28.01342	-0.02638861	4.797911E-05	0.009523901	-0.004544537	0.239536	-0.1028683	0	0
28.03031	-0.02628342	-2.731298E-05	0.006226758	-0.004456897	-0.09853804	0.002619192	0	0
28.04655	-0.02609934	-8.378316E-05	0.0113331	-0.00347659	0.1541009	0.02958403	0	0
28.06312	-0.02602044	-0.0001026068	0.00476316	-0.001136457	-0.200264	0.07133161	0	0
28.07985	-0.02538928	-0.0003661485	0.03772346	-0.01575145	0.9899569	-0.4389589	0	0
28.09635	-0.02496849	-0.0004791013	0.02549558	-0.006843846	-0.3679155	0.2680144	0	0
28.11286	-0.02278553	-0.00132637	0.1322054	-0.05131254	3.232043	-1.346875	0	0
28.12938	-0.01218361	-0.007225607	0.6417804	-0.3571065	15.42696	-9.257657	0	0
28.14595	-0.008499796	-0.008999337	0.2223809	-0.1070748	-12.67647	7.557281	0	0
28.16252	0.01218361	-0.01273866	1.248453	-0.2257061	30.96869	-3.580503	0	0
28.17908	0.03601074	-0.01462886	1.438209	-0.1140925	5.726845	3.368505	0	0
28.19592	0.05473475	-0.01604724	1.112004	-0.08423648	-9.765056	0.8937504	0	0
28.21222	0.07360364	-0.01706886	1.157993	-0.06269742	1.388025	0.6500876	0	0
28.22895	0.0967757	-0.01818545	1.384482	-0.06671408	6.856778	-0.121601	0	0
28.24545	0.1123668	-0.01850726	0.944778	-0.01950044	-13.22842	1.420413	0	0
28.26192	0.1277996	-0.01913202	0.9375742	-0.03795581	-0.2185421	-0.5598848	0	0
28.27848	0.1335426	-0.01962435	0.3466426	-0.02971702	-17.89203	0.249451	0	0
28.29505	0.1413665	-0.01839367	0.4722533	0.07428396	3.790939	3.138756	0	0
28.31162	0.1468304	-0.0186587	0.3298016	-0.01599725	-4.299202	-2.724692	0	0
28.32818	0.1500222	-0.01979479	0.1926786	-0.06858235	-4.138616	-1.587113	0	0
28.34503	0.1591941	-0.02136706	0.5444645	-0.09333337	10.52904	-0.740804	0	0
28.36154	0.166804	-0.02411567	0.4609285	-0.1664817	-2.5044	-2.192977	0	0
28.37788	0.1751345	-0.02950619	0.5096989	-0.3298149	1.484455	-4.971474	0	0
28.39445	0.1807172	-0.03340309	0.3370062	-0.2352443	-5.24752	2.873666	0	0
28.41101	0.1910364	-0.03827645	0.6228684	-0.2941569	8.627835	-1.778089	0	0
28.42759	0.2037891	-0.03907674	0.7695807	-0.04829421	4.427278	7.419297	0	0
28.44415	0.2225164	-0.03901957	1.130642	0.003451481	10.89684	1.561688	0	0
28.46071	0.2312109	-0.03924825	0.5248642	-0.01380501	-18.28556	-0.5208918	0	0
28.47728	0.2457958	-0.04056355	0.8803453	-0.0793914	10.72906	-1.979515	0	0
28.49413	0.2539243	-0.04142166	0.4824161	-0.05092783	-11.90808	0.8517756	0	0
28.51064	0.2631476	-0.04128816	0.5585852	0.008085039	2.283147	1.768895	0	0
28.52698	0.2692468	-0.03993442	0.3733018	0.08285642	-5.64024	2.276127	0	0
28.54367	0.2723985	-0.04018224	0.18885	-0.01484911	-5.584768	-2.958295	0	0
28.56019	0.2729843	-0.04063981	0.03546298	-0.0277019	-4.619125	-0.3870513	0	0
28.59325	0.2729843	-0.04063981	0	0	-0.7153007	0.5587571	0	0
28.60982	0.2729599	-0.04062075	-0.001473276	0.001150828	-0.0296868	0.02318942	0	0
28.62673	0.2728867	-0.04056355	-0.004328333	0.003382391	-0.08528214	0.06665803	0	0
28.64503	0.2728379	-0.04056355	-0.002667405	0	0.04716996	-0.09605911	0	0
28.67826	0.272667	-0.04069702	-0.005140487	-0.004015529	-0.04798517	-0.07791324	0	0
28.69473	0.2725938	-0.04075422	-0.004447477	-0.003474309	0.01394338	0.01088937	0	0
28.7113	0.2723253	-0.04092583	-0.01620604	-0.01035858	-0.3559805	-0.2084155	0	0
28.72786	0.2710799	-0.0418222	-0.07517485	-0.05410467	-1.779683	-1.32026	0	0
28.74443	0.2697847	-0.04256619	-0.07817896	-0.04490748	-0.09066426	0.2775715	0	0
28.76132	0.268513	-0.0435203	-0.07527591	-0.05647833	0.08676025	-0.3458048	0	0
28.79413	0.2681705	-0.04382568	-0.01043937	-0.009307489	1.304464	0.9490427	0	0
28.8107	0.2681705	-0.04382568	0	0	0.2114281	0.1885041	0	0
28.82726	0.268146	-0.04380659	-0.001477044	0.00115231	-0.0445824	0.03478079	0	0
28.84383	0.268146	-0.04380659	0	0	0.04457983	-0.03477879	0	0
28.8604	0.268146	-0.04380659	0	0	0	0	0	0
28.87697	0.268146	-0.04380659	0	0	0	0	0	0
28.89354	0.268146	-0.04380659	0	0	0	0	0	0
28.9101	0.268146	-0.04380659	0	0	0	0	0	0
28.92667	0.268146	-0.04380659	0	0	0	0	0	0
28.94324	0.2681705	-0.04382568	0.001477044	-0.00115231	0.04457727	-0.03477679	0	0
28.95997	0.2681705	-0.04382568	0	0	-0.04435514	0.03460349	0	0
28.97648	0.268146	-0.04380659	-0.00148165	0.001155903	-0.04456237	0.03476516	0	0
29.0095	0.2681705	-0.04382568	0.0007410389	-0.0005781187	0.04487385	-0.03500816	0	0
29.02607	0.2681705	-0.04382568	0	0	-0.01494472	0.01165906	0	0
29.04264	0.2681705	-0.04382568	0	0	0	0	0	0
29.0592	0.268146	-0.04380659	-0.001477044	0.00115231	-0.04457727	0.03477679	0	0
29.07605	0.268146	-0.04380659	0	0	0.04420575	-0.03448695	0	0
29.09234	0.268146	-0.04380659	0	0	0	0	0	0
29.10908	0.268146	-0.04380659	0	0	0	0	0	0
29.1256	0.2681215	-0.0437875	-0.001481137	0.001155503	-0.04453416	0.03474316	0	0
29.1421	0.2680726	-0.04374933	-0.002965012	0.002312917	-0.04493347	0.03504784	0	0
29.15861	0.2680481	-0.04369207	-0.001481821	0.00346766	0.04492312	0.03497503	0	0
29.17517	0.2680237	-0.04367298	-0.001477895	0.001152974	0.0001187399	-0.0699984	0	0
29.19173	0.2679502	-0.04361572	-0.00443242	0.003456082	-0.08919855	0.06953197	0	0
29.2083	0.2678768	-0.04355847	-0.004430621	0.003456082	5.428939E-05	0	0	0
29.22515	0.2678279	-0.0435203	-0.002903605	0.002264794	0.04569092	-0.03564537	0	0
29.24168	0.2677789	-0.04348213	-0.002963735	0.002310288	-0.001801678	0.001363137	0	0
29.25818	0.2677545	-0.04346304	-0.001482506	0.001156346	0.04485075	-0.0349407	0	0
29.27469	0.26773	-0.04344396	-0.001481821	0.001155811	2.074702E-05	-1.618437E-05	0	0
29.29122	0.2677055	-0.04342487	-0.001480624	0.001154878	3.623841E-05	-2.826413E-05	0	0
29.3077	0.267681	-0.04344396	-0.001486029	-0.001157684	-0.0001637443	-0.07005535	0	0
29.32427	0.267681	-0.04344396	0	0	0.04495974	0.03502566	0	0
29.34084	0.2676566	-0.04342487	-0.001476874	0.001151953	-0.04457214	0.034766	0	0
29.36112	0.2676566	-0.04342487	0	0	0.04007594	-0.03125899	0	0
29.37769	0.2676566	-0.04342487	0	0	0	0	0	0
29.41082	0.2676566	-0.04342487	0	0	0	0	0	0
29.42739	0.2676566	-0.04342487	0	0	0	0	0	0
29.44396	0.2676321	-0.04340579	-0.001476874	0.001151953	-0.04457214	0.034766	0	0
29.46053	0.2675097	-0.04331037	-0.007386168	0.005759763	-0.1783428	0.139064	0	0
29.47713	0.267167	-0.0430432	-0.02063713	0.01608709	-0.399432	0.3113031	0	0
29.49366	0.2649378	-0.04130723	-0.1348955	0.1050497	-3.448522	2.685051	0	0
29.51023	0.2631967	-0.03995349	-0.1050955	0.08171217	0.9005059	-0.7052204	0	0
29.52679	0.2577175	-0.03574361	-0.3307642	0.2541379	-6.811089	5.204118	0	0
29.54338	0.2469096	-0.0274172	-0.6513129	0.5017742	-9.666944	7.468091	0	0
29.55992	0.2446071	-0.0256901	-0.1392204	0.1044282	15.45587	-11.99261	0	0
29.57649	0.2345494	-0.01824224	-0.6070116	0.4495023	-14.12935	10.42276	0	0
29.59306	0.2291903	-0.01436416	-0.3235512	0.234135	8.555343	-6.500172	0	0
29.60962	0.2238178	-0.01037747	-0.3242871	0.240637	-0.02221233	0.1962557	0	0
29.62619	0.2184823	-0.006471121	-0.3220909	0.2358151	0.06628595	-0.1455344	0	0
29.64295	0.2148679	-0.003869474	-0.2155806	0.1551777	3.195541	-2.419298	0	0
29.69249	0.1882699	0.01411692	-0.5369672	0.3631132	-4.847502	3.136309	0	0
29.70902	0.1698732	0.01674024	-1.112601	0.1586543	-8.712666	-3.094642	0	0
29.72559	0.1452076	0.016197	-1.488992	-0.03279372	-11.37129	-5.783907	0	0
29.74216	0.1262978	0.01574736	-1.141394	-0.02714048	10.49114	0.1706251	0	0
29.75872	0.1017005	0.01572862	-1.484696	-0.001130928	-10.36088	0.7849698	0	0
29.77529	0.09061955	0.01589724	-0.6688502	0.01017813	24.62228	0.341308	0	0
29.79185	0.07559253	0.01595345	-0.9071374	0.003393063	-7.191936	-0.2047855	0	0
29.80857	0.05971838	0.01599092	-0.9496375	0.002241503	-1.276995	-0.03460078	0	0
29.82508	0.052793	0.01733958	-0.4194654	0.08168726	15.95654	2.391071	0	0
29.84159	0.04885583	0.01820095	-0.2384168	0.05216048	5.482362	-0.8941052	0	0
29.85812	0.04898709	0.01810733	0.007942333	-0.005664401	7.456165	-1.750095	0	0
29.87469	0.0490921	0.01803243	0.006339055	-0.004521198	-0.04844839	0.03454569	0	0
29.89163	0.04917086	0.01797626	0.004648842	-0.003315827	-0.05044448	0.03597436	0	0
29.90782	0.04917086	0.01797626	0	0	-0.1403023	0.1000718	0	0
29.92439	0.04919711	0.01795754	0.001584581	-0.001130141	0.04836847	-0.03449694	0	0
29.94096	0.04924962	0.01792009	0.003169162	-0.002260507	0.04782275	-0.03411452	0	0
29.95752	0.04924962	0.01792009	0	0	-0.0956455	0.06822225	0	0
29.99066	0.04930212	0.01784519	0.001584581	-0.002260451	0.03188184	-0.04548036	0	0
30.00722	0.04935462	0.01780774	0.003169527	-0.002260767	0.0318904	-6.366564E-06	0	0
30.02379	0.04935462	0.01780774	0	0	-0.09566203	0.06823403	0	0
30.04036	0.04938088	0.01778901	0.001584216	-0.001129993	0.04780624	-0.03409934	0	0
30.05693	0.04940713	0.01777029	0.001584764	-0.001130384	1.651564E-05	-1.177631E-05	0	0
30.07408	0.04940713	0.01777029	0	0	-0.04699505	0.03352074	0	0
30.09065	0.04940713	0.01777029	0	0	0	0	0	0
30.10729	0.04940713	0.01777029	0	0	0	0	0	0
30.1238	0.04940713	0.01777029	0	0	0	0	0	0
30.14035	0.04935462	0.01777029	-0.003171718	0	-0.09592143	0	0	0
30.15692	0.04935462	0.01777029	0	0	0.09576124	0	0	0
30.17348	0.04935462	0.01777029	0	0	0	0	0	0
30.19005	0.04930212	0.01777029	-0.003169162	0	-0.09565101	0	0	0
30.20662	0.04927587	0.01775156	-0.001584764	-0.001130384	0.04781999	-0.03411701	0	0
30.22318	0.04922336	0.01775156	-0.003169162	0	-0.04781999	0.03411701	0	0
30.23988	0.04919711	0.01773284	-0.001572452	-0.001121602	0.04800367	-0.03371996	0	0
30.25632	0.04914461	0.01773284	-0.003194168	0	-0.04894632	0.03385197	0	0
30.2729	0.0490396	0.01769538	-0.006331036	-0.00225802	-0.09498798	-0.06837546	0	0
30.28945	0.04890833	0.01763921	-0.007932262	-0.003394782	-0.04832511	-0.03430754	0	0
30.30602	0.04854079	0.01741449	-0.02218781	-0.01356573	-0.430506	-0.3071543	0	0
30.32258	0.04788442	0.01698373	-0.03961835	-0.02600044	-0.5260849	-0.375302	0	0
30.33915	0.04672911	0.016197	-0.06973439	-0.04748729	-0.9089038	-0.6484745	0	0
30.35572	0.0465453	0.01614079	-0.01109477	-0.003392447	1.769747	1.330785	0	0
30.37229	0.04651904	0.01615953	-0.001585031	0.001130816	0.2870044	0.1365123	0	0
30.38885	0.04649279	0.01617826	-0.001584988	0.001130946	1.278959E-06	3.931745E-06	0	0
30.4055	0.04649279	0.01617826	0	0	0.04772516	-0.03405361	0	0
30.42199	0.04649279	0.01617826	0	0	0	0	0	0
30.43855	0.04646653	0.016197	-0.001585213	0.001130946	-0.04795778	0.03421474	0	0
30.45512	0.04646653	0.016197	0	0	0.04784459	-0.03413398	0	0
30.47169	0.04646653	0.016197	0	0	0	0	0	0
30.55452	0.04646653	0.01615953	0	-0.0004523367	0	-0.004550516	0	0
30.57109	0.04646653	0.01615953	0	0	0	0.004550516	0	0
30.58766	0.04644027	0.01614079	-0.001585213	-0.001130946	-0.04784183	-0.03413202	0	0
30.60423	0.04644027	0.01614079	0	0	0.04784183	0.03413202	0	0
30.62079	0.04644027	0.01614079	0	0	0	0	0	0
30.63736	0.04641401	0.01612206	-0.001585031	-0.001130703	-0.04783908	-0.03412666	0	0
30.65392	0.04641401	0.01612206	0	0	0.04783633	0.03412469	0	0
30.67069	0.04641401	0.01612206	0	0	0	0	0	0
30.6872	0.04638775	0.01610333	-0.001590524	-0.001134735	-0.04779577	-0.03409915	0	0
30.70363	0.04633523	0.01606586	-0.003197672	-0.00228133	-0.04879878	-0.03481473	0	0
30.72023	0.04628271	0.01602839	-0.003163506	-0.002256954	0.001034534	0.0007380759	0	0
30.73676	0.04623019	0.01602839	-0.003177011	0	-0.0004076085	0.06811894	0	0
30.75333	0.04617767	0.01599092	-0.003170062	-0.002261744	0.0002099668	-0.0683343	0	0
30.76989	0.0460989	0.01597218	-0.004755093	-0.001130816	-0.04783633	0.03413148	0	0
30.81959	0.04581003	0.01595345	-0.005812376	-0.0003769675	-0.01595535	0.01137625	0	0
30.83631	0.04581003	0.01595345	0	0	0.08751749	0.005676035	0	0
30.85272	0.04578377	0.01593471	-0.001599579	-0.001141308	-0.04827818	-0.03444674	0	0
30.86929	0.04578377	0.01593471	0	0	0.04849593	0.03460211	0	0
30.88586	0.04575751	0.01595345	-0.001585031	0.001130928	-0.04783633	0.03413148	0	0
30.91899	0.04570499	0.01599092	-0.001585235	0.001130881	-4.099149E-06	-9.510026E-07	0	0
30.93556	0.04559994	0.01606586	-0.006340573	0.004523376	-0.09568127	0.06825975	0	0
30.95212	0.04462824	0.01668404	-0.05865874	0.03731807	-1.579056	0.9898028	0	0
30.96869	0.04179144	0.01848178	-0.1712297	0.1085117	-3.397593	2.148751	0	0
30.98541	0.03198908	0.02508434	-0.5862051	0.3948493	-12.46586	8.60158	0	0
31.00192	0.02370608	0.0303315	-0.5016376	0.3177801	2.544635	-2.31901	0	0
31.01839	0.01705098	0.03262591	-0.4041691	0.1393412	2.955557	-5.410837	0	0
31.03496	-0.002736835	0.03135764	-1.194257	-0.07654443	-23.9165	-6.535003	0	0
31.05153	-0.01836636	0.02859574	-0.9433997	-0.1667084	7.570463	-2.720998	0	0
31.06809	-0.0692051	0.006573142	-3.069339	-1.329593	-64.16837	-35.09996	0	0
31.13128	-0.07077632	0.005445775	-0.02486563	-0.01784132	38.17427	16.44789	0	0
31.14785	-0.07446731	0.002531667	-0.2227628	-0.1758757	-2.48123	-1.981431	0	0
31.16456	-0.07619431	0.001177157	-0.1033377	-0.08104923	3.588351	2.849239	0	0
31.18106	-0.07616815	0.001007804	0.001585531	-0.01026467	3.159316	2.131375	0	0
31.20551	-0.07606349	0.0009325339	0.004280784	-0.003078749	0.06582303	0.1754933	0	0
31.22208	-0.07590651	0.000781988	0.009472285	-0.009083835	0.1265561	-0.1463893	0	0
31.23864	-0.07580185	0.0007067124	0.006318643	-0.004544687	-0.09517165	0.1369839	0	0
31.25521	-0.07577568	0.0006878933	0.001579591	-0.001136055	-0.1430496	0.1028905	0	0
31.27178	-0.07577568	0.0006878933	0	0	-0.04767491	0.03428818	0	0
31.28834	-0.07577568	0.0006878933	0	0	0	0	0	0
31.30491	-0.07577568	0.0006878933	0	0	0	0	0	0
31.38774	-0.07574952	0.000669074	0.0003158892	-0.0002271922	0.003177912	-0.002285602	0	0
31.40431	-0.07567102	0.0006502547	0.004738324	-0.001136069	0.04449149	-0.00914367	0	0
31.42088	-0.07561869	0.0006126156	0.003158819	-0.002271898	-0.04767231	-0.03428135	0	0
31.43775	-0.0755402	0.0005561563	0.004652611	-0.003346631	0.04467386	-0.03214134	0	0
31.45401	-0.07543553	0.0004808757	0.006436195	-0.004629219	0.05383178	-0.03871081	0	0
31.47076	-0.07540937	0.0004620552	0.0015625	-0.001123841	-0.1476494	0.106196	0	0
31.48728	-0.0753832	0.0004432347	0.001583968	-0.001139288	0.0006453537	-0.000464334	0	0
31.50378	-0.07533087	0.0004055933	0.003170866	-0.002280703	0.04805309	-0.03456338	0	0
31.52029	-0.07533087	0.0004055933	0	0	-0.09603968	0.06907829	0	0
31.53684	-0.07527854	0.0003679516	0.003162095	-0.002274419	0.09564143	-0.0687926	0	0
31.55341	-0.0752262	0.0003303093	0.003159269	-0.002272089	-8.535009E-05	7.036109E-05	0	0
31.57033	-0.07509536	0.0002362019	0.007731487	-0.005561248	0.136528	-0.09821542	0	0
31.58684	-0.07485985	6.680187E-05	0.01426485	-0.01026044	0.1954225	-0.1405598	0	0
31.60335	-0.07451965	-0.0001779023	0.02060574	-0.01482156	0.1920316	-0.1381319	0	0
31.61987	-0.07425794	-0.0003284984	0.01584788	-0.009119395	-0.1440735	0.1726682	0	0
31.63637	-0.07425794	-0.0003284984	0	0	-0.4799199	0.2761618	0	0
31.65289	-0.0738392	-0.000629711	0.02536017	-0.01824213	0.768024	-0.5524568	0	0
31.66938	-0.07239955	-0.001627673	0.08729922	-0.06051577	1.876779	-1.280909	0	0
31.68594	-0.07101198	-0.002588259	0.08375412	-0.05798109	-0.1072382	0.07667334	0	0
31.70251	-0.07098579	-0.002607097	0.001580941	-0.001137187	-2.480134	1.715651	0	0
31.71908	-0.07095961	-0.002588259	0.001580309	0.001137056	-1.906843E-05	0.06864072	0	0
31.73564	-0.07090724	-0.002625935	0.003160618	-0.002274111	0.04769382	-0.1029492	0	0
31.75221	-0.07077632	-0.002720126	0.007903353	-0.005686045	0.1431443	-0.1029783	0	0
31.76878	-0.07056684	-0.002870837	0.01264427	-0.009096964	0.1430894	-0.1029477	0	0
31.80205	-0.06378179	-0.007753851	0.203928	-0.1467614	3.838032	-2.762182	0	0
31.81861	-0.06110803	-0.009678893	0.1613882	-0.1161957	-0.8535433	0.6132877	0	0
31.83518	-0.05591534	-0.0133812	0.3134318	-0.2234719	4.588685	-3.237602	0	0
31.85203	-0.05163826	-0.01634991	0.253897	-0.1762291	-1.781791	1.41391	0	0
31.86854	-0.04932837	-0.01790154	0.1399086	-0.09398117	-3.417356	2.465781	0	0
31.88505	-0.04938088	-0.01778798	-0.003180146	0.006878245	-4.333394	3.054493	0	0
31.90156	-0.04924962	-0.01769335	0.007949446	0.005731001	0.3370364	-0.03474186	0	0
31.91807	-0.04924962	-0.01769335	0	0	-0.2407185	-0.1735414	0	0
31.93459	-0.04922336	-0.01771227	0.001589339	-0.001145713	0.04811868	-0.03468751	0	0
31.95115	-0.04922336	-0.01771227	0	0	-0.04804931	0.0346375	0	0
31.96771	-0.04922336	-0.01771227	0	0	0	0	0	0
31.98428	-0.04922336	-0.01771227	0	0	0	0	0	0
32.00085	-0.04922336	-0.01771227	0	0	0	0	0	0
32.01741	-0.04922336	-0.01771227	0	0	0	0	0	0
32.03398	-0.04924962	-0.0177312	-0.001584581	-0.001142396	-0.04782275	-0.03447758	0	0
32.13338	-0.04927587	-0.01771227	-0.0002640969	0.0001903993	0.01138637	0.01149253	0	0
32.14995	-0.04927587	-0.01771227	0	0	0.002277274	-0.001641789	0	0
32.16652	-0.04927587	-0.01771227	0	0	0	0	0	0
32.18309	-0.04927587	-0.01771227	0	0	0	0	0	0
32.19965	-0.04927587	-0.01771227	0	0	0	0	0	0
32.21622	-0.04927587	-0.01771227	0	0	0	0	0	0
32.23279	-0.04927587	-0.01771227	0	0	0	0	0	0
32.24936	-0.04927587	-0.01771227	0	0	0	0	0	0
32.26592	-0.04927587	-0.01771227	0	0	0	0	0	0
32.28249	-0.04924962	-0.0177312	0.001584581	-0.001142396	0.04782275	-0.03447758	0	0
32.29906	-0.04924962	-0.0177312	0	0	-0.04782275	0.03447758	0	0
32.31586	-0.04924962	-0.0177312	0	0	0	0	0	0
32.33219	-0.04924962	-0.0177312	0	0	0	0	0	0
32.34875	-0.04924962	-0.0177312	0	0	0	0	0	0
32.36532	-0.04924962	-0.0177312	0	0	0	0	0	0
32.38189	-0.04924962	-0.0177312	0	0	0	0	0	0
32.39846	-0.04922336	-0.01771227	0.001584581	0.001142396	0.04782275	0.03447758	0	0
32.41502	-0.04922336	-0.01771227	0	0	-0.04782826	-0.03448155	0	0
32.43159	-0.04922336	-0.01771227	0	0	0	0	0	0
32.44815	-0.04924962	-0.01769335	-0.001584581	0.001142284	-0.04782275	0.03447419	0	0
32.46472	-0.04924962	-0.01769335	0	0	0.04782275	-0.03447419	0	0
32.48129	-0.04924962	-0.01769335	0	0	0	0	0	0
32.49786	-0.04924962	-0.01769335	0	0	0	0	0	0
32.51442	-0.04922336	-0.01771227	0.001584581	-0.001142284	0.04782275	-0.03447419	0	0
32.53099	-0.04922336	-0.01771227	0	0	-0.04782275	0.03447419	0	0
32.54756	-0.04922336	-0.01771227	0	0	0	0	0	0
32.56413	-0.04922336	-0.01771227	0	0	0	0	0	0
32.59766	-0.04922336	-0.01771227	0	0	0	0	0	0
32.6142	-0.04922336	-0.01771227	0	0	0	0	0	0
32.63077	-0.04922336	-0.01771227	0	0	0	0	0	0
32.64735	-0.04922336	-0.01771227	0	0	0	0	0	0
32.66412	-0.04922336	-0.01771227	0	0	0	0	0	0
32.68063	-0.04922336	-0.01771227	0	0	0	0	0	0
32.69704	-0.04922336	-0.01771227	0	0	0	0	0	0
32.71365	-0.04922336	-0.01771227	0	0	0	0	0	0
32.73066	-0.04922336	-0.01771227	0	0	0	0	0	0
32.74674	-0.04924962	-0.0177312	-0.001632701	-0.001177088	-0.04934319	-0.03557373	0	0
32.76331	-0.04924962	-0.0177312	0	0	0.05000617	0.03605171	0	0
32.77987	-0.04924962	-0.0177312	0	0	0	0	0	0
32.79671	-0.04924962	-0.0177312	0	0	0	0	0	0
32.81322	-0.04924962	-0.0177312	0	0	0	0	0	0
32.82957	-0.04924962	-0.0177312	0	0	0	0	0	0
32.86271	-0.04924962	-0.0177312	0	0	0	0	0	0
32.87927	-0.04924962	-0.0177312	0	0	0	0	0	0
32.89584	-0.04924962	-0.0177312	0	0	0	0	0	0
32.9124	-0.04924962	-0.0177312	0	0	0	0	0	0
32.92897	-0.04924962	-0.0177312	0	0	0	0	0	0
32.94581	-0.04924962	-0.0177312	0	0	0	0	0	0
32.9621	-0.04924962	-0.0177312	0	0	0	0	0	0
32.97884	-0.04924962	-0.0177312	0	0	0	0	0	0
32.99538	-0.04924962	-0.0177312	0	0	0	0	0	0
33.01186	-0.04924962	-0.0177312	0	0	0	0	0	0
33.02837	-0.04924962	-0.0177312	0	0	0	0	0	0
33.04494	-0.04924962	-0.0177312	0	0	0	0	0	0
33.06151	-0.04924962	-0.0177312	0	0	0	0	0	0
33.09492	-0.04924962	-0.0177312	0	0	0	0	0	0
33.12777	-0.04924962	-0.0177312	0	0	0	0	0	0
33.14434	-0.04924962	-0.0177312	0	0	0	0	0	0
33.16091	-0.04924962	-0.0177312	0	0	0	0	0	0
33.17747	-0.04924962	-0.0177312	0	0	0	0	0	0
33.19404	-0.04924962	-0.0177312	0	0	0	0	0	0
33.21061	-0.04924962	-0.0177312	0	0	0	0	0	0
33.22717	-0.04924962	-0.0177312	0	0	0	0	0	0
33.24403	-0.04924962	-0.0177312	0	0	0	0	0	0
33.26054	-0.04924962	-0.0177312	0	0	0	0	0	0
33.27705	-0.04924962	-0.0177312	0	0	0	0	0	0
33.29344	-0.04924962	-0.0177312	0	0	0	0	0	0
33.31001	-0.04924962	-0.0177312	0	0	0	0	0	0
33.34375	-0.04924962	-0.0177312	0	0	0	0	0	0
33.36032	-0.04924962	-0.0177312	0	0	0	0	0	0
33.37689	-0.04924962	-0.0177312	0	0	0	0	0	0
33.41002	-0.04924962	-0.0177312	0	0	0	0	0	0
33.42665	-0.04924962	-0.0177312	0	0	0	0	0	0
33.44316	-0.04924962	-0.0177312	0	0	0	0	0	0
33.45972	-0.04924962	-0.0177312	0	0	0	0	0	0
33.47629	-0.04924962	-0.0177312	0	0	0	0	0	0
33.49286	-0.04924962	-0.0177312	0	0	0	0	0	0
33.50943	-0.04924962	-0.0177312	0	0	0	0	0	0
33.52599	-0.04924962	-0.0177312	0	0	0	0	0	0
33.54256	-0.04924962	-0.0177312	0	0	0	0	0	0
33.55925	-0.04924962	-0.0177312	0	0	0	0	0	0
33.5757	-0.04924962	-0.0177312	0	0	0	0	0	0
33.59226	-0.04924962	-0.0177312	0	0	0	0	0	0
33.60883	-0.04922336	-0.01775012	0.001584581	-0.001142396	0.04782275	-0.03447758	0	0
33.6254	-0.04914461	-0.01784476	0.004753743	-0.00571198	0.0956455	-0.1379103	0	0
33.64196	-0.0490921	-0.01788261	0.003169162	-0.002284792	-0.04782275	0.1034327	0	0
33.65853	-0.04867205	-0.01818545	0.02536004	-0.01828389	0.669799	-0.4829095	0	0
33.67534	-0.03256743	-0.03019016	0.957743	-0.7139209	27.93356	-20.84081	0	0
33.69167	-0.02086539	-0.03888617	0.7169007	-0.5327429	-7.267799	5.467333	0	0
33.70836	-0.008447167	-0.0482381	0.743743	-0.5600986	0.8129098	-0.828459	0	0
33.72487	0.008315598	-0.06070903	1.015309	-0.7553555	8.177996	-5.880002	0	0
33.74138	0.01620911	-0.06655121	0.4781044	-0.3538568	-16.26906	12.15925	0	0
33.75793	0.02736159	-0.07479699	0.6740965	-0.4984049	5.929388	-4.373043	0	0
33.77449	0.04050415	-0.0845386	0.7932865	-0.5880048	3.599647	-2.706001	0	0
33.79142	0.0490396	-0.09095544	0.5042859	-0.3791153	-8.628675	6.236803	0	0
33.80763	0.05924637	-0.09894472	0.6297116	-0.4929028	3.785353	-3.434111	0	0
33.8242	0.06163237	-0.1008728	0.144019	-0.1163771	-14.8186	11.48789	0	0
33.85747	0.07195451	-0.1245553	0.3102371	-0.7117907	3.335099	-11.94674	0	0
33.8739	0.06907415	-0.1440214	-0.1753124	-1.184795	-9.769275	-9.516876	0	0
33.89049	0.06506592	-0.1636273	-0.2415477	-1.181512	-2.005683	0.09942099	0	0
33.90703	0.06050501	-0.177944	-0.2757418	-0.8655506	-1.031979	9.535742	0	0
33.9236	0.0546298	-0.1910574	-0.3546282	-0.7915279	-2.382719	2.235812	0	0
33.94017	0.04953839	-0.1993289	-0.3073184	-0.499267	1.427815	8.820452	0	0
33.9733	0.02068126	-0.2264355	-0.87101	-0.8181743	-11.34237	-6.416921	0	0
33.98986	0.008973443	-0.2356952	-0.7066854	-0.5589139	3.306472	5.216729	0	0
34.00657	-0.005999928	-0.2476574	-0.8961596	-0.7159443	-5.69409	-4.719083	0	0
34.02308	-0.01605125	-0.2560346	-0.6088019	-0.5073974	8.650564	6.278058	0	0
34.0396	-0.02212797	-0.2614509	-0.3678074	-0.3278364	7.295906	5.436058	0	0
34.05613	-0.03028022	-0.2773911	-0.4933202	-0.9645949	-3.798038	-19.26843	0	0
34.0727	-0.03104266	-0.2841823	-0.04602098	-0.4099161	13.51663	16.76147	0	0
34.08985	-0.03093749	-0.3003613	0.006130172	-0.943127	1.546506	-15.812	0	0
34.10664	-0.03204166	-0.3082475	-0.0657693	-0.4697352	-2.118231	13.9466	0	0
34.12299	-0.0316999	-0.310332	0.02090778	-0.1275233	2.61592	10.32797	0	0
34.13955	-0.03251485	-0.3164707	-0.04919037	-0.3705334	-2.129788	-7.38336	0	0
34.15612	-0.03367148	-0.3172476	-0.06981421	-0.04689659	-0.6224287	9.767379	0	0
34.17269	-0.03364519	-0.3172261	0.001586605	0.001302383	2.154881	1.454648	0	0
34.18925	-0.03361891	-0.3172476	0.001586605	-0.001302383	0	-0.078612	0	0
34.20582	-0.03361891	-0.3172476	0	0	-0.04788934	0.03931053	0	0
34.22239	-0.03361891	-0.3172476	0	0	0	0	0	0
34.23895	-0.03361891	-0.3172908	0	-0.002606565	0	-0.07866629	0	0
34.25552	-0.03343491	-0.3174419	0.01110646	-0.00912028	0.3351936	-0.1965843	0	0
34.27226	-0.03085862	-0.3195589	0.15391	-0.1264706	4.287605	-3.523387	0	0
34.28865	-0.02591525	-0.3236272	0.3015066	-0.248135	4.454476	-3.671839	0	0
34.30529	-0.01910294	-0.329291	0.4095887	-0.3405372	3.272471	-2.797721	0	0
34.3218	-0.01442005	-0.3332951	0.2836392	-0.2425251	-3.800288	2.957331	0	0
34.35492	-0.008657678	-0.3386412	0.1739489	-0.1613825	-2.209857	1.634725	0	0
34.37149	-0.007605116	-0.3396468	0.06353275	-0.06069933	-2.221918	2.02606	0	0
34.38806	-0.007841945	-0.3397999	-0.01429499	-0.009240804	-2.348846	1.553021	0	0
34.40462	-0.007894573	-0.3398437	-0.003176639	-0.002640744	0.3355524	0.1991902	0	0
34.42137	-0.007894573	-0.3398874	0	-0.002611287	0.09536611	0.0008843318	0	0
34.43788	-0.007894573	-0.3398874	0	0	0	0.07851952	0	0
34.45439	-0.007894573	-0.3398874	0	0	0	0	0	0
34.4709	-0.007894573	-0.3398874	0	0	0	0	0	0
34.48745	-0.007920887	-0.3399093	-0.001589812	-0.001321589	-0.0480858	-0.03997308	0	0
34.50402	-0.007973515	-0.3399093	-0.003176639	0	-0.0479126	0.03990401	0	0
34.52094	-0.007999829	-0.3399312	-0.001555694	-0.001293274	0.04841299	-0.0386264	0	0
34.53715	-0.007973515	-0.3399093	0.001622665	0.001348947	0.09593412	0.07975157	0	0
34.55372	-0.007973515	-0.3399093	0	0	-0.04949638	-0.04114713	0	0
34.57047	-0.007973515	-0.3399093	0	0	0	0	0	0
34.58685	-0.007973515	-0.3399093	0	0	0	0	0	0
34.60349	-0.007973515	-0.3399093	0	0	0	0	0	0
34.61998	-0.007973515	-0.3399093	0	0	0	0	0	0
34.63655	-0.007973515	-0.3399093	0	0	0	0	0	0
34.65312	-0.007973515	-0.3399093	0	0	0	0	0	0
34.66969	-0.007973515	-0.3399093	0	0	0	0	0	0
34.68655	-0.007973515	-0.3399093	0	0	0	0	0	0
34.70282	-0.007973515	-0.3399093	0	0	0	0	0	0
34.71939	-0.007973515	-0.3399093	0	0	0	0	0	0
34.73595	-0.007999829	-0.3398874	-0.001588291	0.001320372	-0.04793473	0.0398489	0	0
34.75252	-0.007999829	-0.3398874	0	0	0.04793473	-0.0398489	0	0
34.81879	-0.007999829	-0.3398437	0	0.0006597362	0	0.007964351	0	0
34.8556	-0.008052457	-0.3397999	-0.0014298	0.001188595	-0.0138712	0.005130715	0	0
34.87217	-0.008052457	-0.3397562	0	0.002640744	0.02678771	0.02720642	0	0
34.88873	-0.008078772	-0.3397343	-0.001588347	0.001320372	-0.04793642	-0.0398489	0	0
34.9053	-0.008105085	-0.3396687	-0.001588291	0.003959317	1.693469E-06	0.07964352	0	0
34.92187	-0.008105085	-0.339625	0	0.002638945	0.04793473	-0.0398489	0	0
34.93843	-0.008105085	-0.3395375	0	0.005279689	0	0.0796978	0	0
34.955	-0.0081314	-0.3394719	-0.001588347	0.003961116	-0.04793642	-0.03979461	0	0
34.97175	-0.008184028	-0.3393845	-0.003141914	0.005220195	-0.04662904	0.03779025	0	0
34.98827	-0.008184028	-0.3393407	0	0.002647479	0.09445342	-0.07734197	0	0
35.00478	-0.008184028	-0.3393407	0	0	0	-0.08015949	0	0
35.02127	-0.008184028	-0.339297	0	0.002652961	0	0.08038116	0	0
35.03784	-0.008184028	-0.339297	0	0	0	-0.0802513	0	0
35.05441	-0.008184028	-0.339297	0	0	0	0	0	0
35.07097	-0.008184028	-0.339297	0	0	0	0	0	0
35.08754	-0.008184028	-0.339297	0	0	0	0	0	0
35.10411	-0.008184028	-0.339297	0	0	0	0	0	0
35.12067	-0.008157713	-0.3392752	0.001588347	0.001318573	0.04793642	0.03979461	0	0
35.13737	-0.008157713	-0.3392752	0	0	-0.04774404	-0.03963491	0	0
35.15389	-0.008157713	-0.3392752	0	0	0	0	0	0
35.17037	-0.008157713	-0.3392752	0	0	0	0	0	0
35.18694	-0.0081314	-0.3392096	0.001588291	0.003959317	0.04805645	0.1197958	0	0
35.20351	-0.007947201	-0.3388816	0.01111826	0.01979299	0.2876152	0.477861	0	0
35.22007	-0.007763002	-0.3381168	0.01111826	0.04616624	0	0.7959465	0	0
35.23664	-0.007763002	-0.3373741	0	0.04482968	-0.3355499	-0.04033756	0	0
35.28648	-0.003315777	-0.3322061	0.08923178	0.1036931	1.343726	0.8864135	0	0
35.30299	0.003052622	-0.3268583	0.3856405	0.3238389	4.467159	3.317805	0	0
35.31947	0.008526109	-0.3223061	0.3321393	0.2762334	-1.621577	-1.442883	0	0
35.33604	0.01691944	-0.3153706	0.5066223	0.418628	5.279888	4.308889	0	0
35.35261	0.02191754	-0.3112353	0.3016862	0.2496096	-6.184984	-5.100985	0	0
35.36917	0.03209424	-0.3028006	0.6142667	0.5091167	9.433698	7.831939	0	0
35.38574	0.03987359	-0.2963031	0.4695626	0.39219	-4.367177	-3.528855	0	0
35.40231	0.05029964	-0.2875978	0.6293175	0.525454	4.821412	4.021916	0	0
35.41888	0.0548397	-0.2835042	0.2740383	0.247093	-10.72235	-8.400952	0	0
35.43544	0.06005926	-0.2723717	0.3150535	0.6719559	1.237841	12.82239	0	0
35.45201	0.05937749	-0.2572253	-0.04116137	0.9144493	-10.75182	7.319308	0	0
35.46861	0.0584334	-0.2448107	-0.05686726	0.7477992	-0.4735688	-5.024884	0	0
35.48514	0.05746298	-0.2327828	-0.05870982	0.7276786	-0.05561481	-0.6073096	0	0
35.50171	0.05659739	-0.2249752	-0.05224755	0.4712711	0.1952563	-7.747312	0	0
35.56797	0.05313415	-0.1741455	-0.05226032	0.7670214	-0.0001540734	3.570304	0	0
35.58454	0.05289797	-0.1631077	-0.01425889	0.6663952	0.4587753	-1.214817	0	0
35.6011	0.05211068	-0.1587553	-0.04752147	0.2627117	-1.003982	-12.1846	0	0
35.61767	0.05064088	-0.1500351	-0.08871721	0.5263544	-1.24329	7.95675	0	0
35.63486	0.0459676	-0.1448739	-0.2719361	0.300326	-5.428316	-6.696652	0	0
35.65142	0.04420802	-0.1427135	-0.1062083	0.1304011	4.910099	-5.034448	0	0
35.66799	0.04307859	-0.1373506	-0.06817229	0.3237025	1.147929	5.833847	0	0
35.68456	0.04215921	-0.1329071	-0.05549384	0.2682136	0.3826363	-1.674659	0	0
35.70113	0.03942693	-0.1307771	-0.1649212	0.128569	-3.302525	-4.214483	0	0
35.71778	0.03679917	-0.1288065	-0.15774	0.1182922	0.2161331	-0.3092988	0	0
35.73426	0.03682545	-0.1287868	0.001594969	0.001194757	4.808739	-3.534008	0	0
35.75083	0.03682545	-0.1287868	0	0	-0.04826964	-0.03615775	0	0
35.7674	0.03687801	-0.1287474	0.003172535	0.002378108	0.0957473	0.07177146	0	0
35.8171	0.03703569	-0.1286292	0.003172535	0.002377809	0	-4.525287E-06	0	0
35.85023	0.03737732	-0.1283731	0.01031046	0.007727503	0.08616918	0.06458164	0	0
35.8668	0.03745616	-0.1283141	0.00475869	0.003566263	-0.1117018	-0.08372432	0	0
35.88336	0.04439187	-0.1229237	0.4187368	0.3254369	12.49532	9.715193	0	0
35.89993	0.05190072	-0.1166431	0.453235	0.3790974	1.041276	1.619664	0	0
35.9165	0.05696462	-0.1117277	0.3056578	0.296696	-4.453888	-2.486878	0	0
35.93306	0.06178967	-0.09873058	0.2912402	0.7845073	-0.4351219	14.72217	0	0
35.94963	0.06283821	-0.08847219	0.06329038	0.6191977	-6.87954	-4.989054	0	0
35.96646	0.06299549	-0.07574257	0.009342514	0.7561732	-1.615134	4.100879	0	0
35.98298	0.06275958	-0.06720536	-0.01428877	0.517093	-0.708706	-7.170053	0	0
35.99949	0.06273337	-0.0599604	-0.001587224	0.4387209	0.3846175	-2.373199	0	0
36.0159	0.0641225	-0.05162352	0.0846669	0.508129	2.620047	2.108334	0	0
36.03246	0.06441078	-0.04758824	0.01740049	0.2435702	-2.039968	-8.023197	0	0
36.04903	0.06650703	-0.04170775	0.1265013	0.3548654	3.292289	3.358509	0	0
36.0656	0.06868128	-0.04016318	0.1312678	0.09325182	0.1438549	-7.895513	0	0
36.08216	0.07103816	-0.03840982	0.1422615	0.1058332	0.3318289	0.3797518	0	0
36.09873	0.07216395	-0.03755257	0.06795283	0.05174387	-2.242641	-1.632421	0	0
36.1153	0.07216395	-0.03755257	0	0	-2.05082	-1.561633	0	0
36.14843	0.07200687	-0.03743828	-0.004740702	0.003448999	-0.0953831	0.069394	0	0
36.18162	0.05609897	-0.02112075	-0.4793286	0.4916718	-7.155779	7.361364	0	0
36.19814	0.05460356	-0.01440198	-0.09055502	0.4068575	7.822141	-1.706467	0	0
36.2147	0.05376393	-0.003794095	-0.05068051	0.6402929	1.205358	7.056468	0	0
36.23127	0.05237311	0.01074116	-0.08394952	0.8773497	-1.004061	7.154388	0	0
36.24784	0.05300294	0.01748939	0.03801646	0.4073243	3.68094	-14.18539	0	0
