Time	Pos X	Pos Y	Vel X	Vel Y	Acc X	Acc YForce X	Force Y
0.01621145	-0.02044452	-0.01602832	0.0003001732	0.0002353331	-4.408339E-06	-3.456098E-06	0	0
0.04329094	-0.02044452	-0.01602832	0	0	4.408996E-06	3.456613E-06	0	0
0.05986083	-0.02044452	-0.01602832	0	0	0	0	0	0
0.07642519	-0.02044452	-0.01602832	0	0	0	0	0	0
0.09299469	-0.02044452	-0.01602832	0	0	0	0	0	0
0.1095614	-0.02044452	-0.01602832	0	0	0	0	0	0
0.1261286	-0.02044452	-0.01602832	0	0	0	0	0	0
0.1426941	-0.02044452	-0.01602832	0	0	0	0	0	0
0.1596145	-0.02044452	-0.01602832	0	0	0	0	0	0
0.1758272	-0.02044452	-0.01602832	0	0	0	0	0	0
0.2123378	-0.02041822	-0.01604724	0.0007204558	-0.0005181241	0.01366486	-0.009827243	0	0
0.2289045	-0.02041822	-0.01604724	0	0	-0.0135737	0.009761683	0	0
0.2454701	-0.02041822	-0.01604724	0	0	0	0	0	0
0.262038	-0.02041822	-0.01604724	0	0	0	0	0	0
0.2786931	-0.02041822	-0.01604724	0	0	0	0	0	0
0.2952082	-0.02041822	-0.01604724	0	0	0	0	0	0
0.3117362	-0.02041822	-0.01604724	0	0	0	0	0	0
0.3283029	-0.02041822	-0.01604724	0	0	0	0	0	0
0.3452443	-0.02041822	-0.01604724	0	0	0	0	0	0
0.3614356	-0.02041822	-0.01604724	0	0	0	0	0	0
0.3780028	-0.02041822	-0.01604724	0	0	0	0	0	0
0.3945691	-0.02041822	-0.01604724	0	0	0	0	0	0
0.4111358	-0.02041822	-0.01604724	0	0	0	0	0	0
0.4277057	-0.02041822	-0.01604724	0	0	0	0	0	0
0.4442713	-0.02041822	-0.01604724	0	0	0	0	0	0
0.4608368	-0.02041822	-0.01604724	0	0	0	0	0	0
0.4774036	-0.02041822	-0.01604724	0	0	0	0	0	0
0.4939703	-0.02041822	-0.01604724	0	0	0	0	0	0
0.5108572	-0.02041822	-0.01604724	0	0	0	0	0	0
0.5271026	-0.02041822	-0.01604724	0	0	0	0	0	0
0.5438797	-0.02041822	-0.01604724	0	0	0	0	0	0
0.5603948	-0.02041822	-0.01604724	0	0	0	0	0	0
0.5769062	-0.02041822	-0.01604724	0	0	0	0	0	0
0.5933691	-0.02041822	-0.01604724	0	0	0	0	0	0
0.6099367	-0.02041822	-0.01604724	0	0	0	0	0	0
0.6269392	-0.02041822	-0.01604724	0	0	0	0	0	0
0.6434506	-0.02041822	-0.01604724	0	0	0	0	0	0
0.6599727	-0.02041822	-0.01604724	0	0	0	0	0	0
0.6762035	-0.02041822	-0.01604724	0	0	0	0	0	0
0.6927687	-0.02041822	-0.01604724	0	0	0	0	0	0
0.7093366	-0.02041822	-0.01604724	0	0	0	0	0	0
0.7260092	-0.02041822	-0.01604724	0	0	0	0	0	0
0.7425218	-0.02041822	-0.01604724	0	0	0	0	0	0
0.7756048	-0.02041822	-0.01604724	0	0	0	0	0	0
0.7921707	-0.02041822	-0.01604724	0	0	0	0	0	0
0.809071	-0.02041822	-0.01604724	0	0	0	0	0	0
0.8253026	-0.02041822	-0.01604724	0	0	0	0	0	0
0.8418717	-0.02041822	-0.01604724	0	0	0	0	0	0
0.8584368	-0.02041822	-0.01604724	0	0	0	0	0	0
0.8750044	-0.02041822	-0.01604724	0	0	0	0	0	0
0.8915691	-0.02041822	-0.01604724	0	0	0	0	0	0
0.9081442	-0.02041822	-0.01604724	0	0	0	0	0	0
0.9247022	-0.02041822	-0.01604724	0	0	0	0	0	0
0.941269	-0.02041822	-0.01604724	0	0	0	0	0	0
0.9590014	-0.02041822	-0.01604724	0	0	0	0	0	0
0.9755697	-0.02041822	-0.01604724	0	0	0	0	0	0
0.9921361	-0.02041822	-0.01604724	0	0	0	0	0	0
1.008715	-0.02041822	-0.01604724	0	0	0	0	0	0
1.02527	-0.02041822	-0.01604724	0	0	0	0	0	0
1.041836	-0.02041822	-0.01604724	0	0	0	0	0	0
1.058744	-0.02041822	-0.01604724	0	0	0	0	0	0
1.074969	-0.02039191	-0.01606615	0.001621312	-0.001165788	0.0489334	-0.03518507	0	0
1.091768	-0.02039191	-0.01606615	0	0	-0.04909538	0.03530153	0	0
1.157803	-0.02036561	-0.01608507	0.0003983396	-0.0002864423	0.004808932	-0.003458058	0	0
1.174371	-0.02036561	-0.01608507	0	0	-0.004822333	0.003467695	0	0
1.190937	-0.02036561	-0.01608507	0	0	0	0	0	0
1.207503	-0.02036561	-0.01608507	0	0	0	0	0	0
1.224363	-0.02036561	-0.01608507	0	0	0	0	0	0
1.240637	-0.02036561	-0.01608507	0	0	0	0	0	0
1.257386	-0.02036561	-0.01608507	0	0	0	0	0	0
1.273769	-0.02036561	-0.01608507	0	0	0	0	0	0
1.290409	-0.02036561	-0.01608507	0	0	0	0	0	0
1.306919	-0.02036561	-0.01608507	0	0	0	0	0	0
1.323471	-0.02036561	-0.01608507	0	0	0	0	0	0
1.340039	-0.02036561	-0.01608507	0	0	0	0	0	0
1.356603	-0.02036561	-0.01608507	0	0	0	0	0	0
1.373169	-0.0203393	-0.01610398	0.001587809	-0.001141891	0.04792604	-0.03446656	0	0
1.38998	-0.02031299	-0.0161229	0.001564882	-0.001125324	-0.000686915	0.0004963872	0	0
1.406303	-0.02031299	-0.0161229	0	0	-0.0472296	0.03396331	0	0
1.423005	-0.02031299	-0.0161229	0	0	0	0	0	0
1.439436	-0.02028669	-0.01614182	0.001600896	-0.001151189	0.04831652	-0.03474396	0	0
1.456529	-0.02026039	-0.01616073	0.001538929	-0.001106739	-0.001848453	0.001325955	0	0
1.47257	-0.02023408	-0.01617965	0.001639903	-0.001179272	0.003047449	-0.002189091	0	0
1.489137	-0.01994472	-0.01638774	0.01746646	-0.01256103	0.4853631	-0.3490515	0	0
1.505703	-0.01812959	-0.01769335	0.109567	-0.0788104	2.779741	-1.999511	0	0
1.522271	-0.0158934	-0.01930244	0.1349712	-0.09712072	0.766701	-0.5526084	0	0
1.538838	-0.01431481	-0.02043876	0.09528639	-0.06859048	-1.19768	0.8610381	0	0
1.5556	-0.0142885	-0.0204577	0.001569656	-0.001130001	-2.811877	2.024084	0	0
1.571971	-0.0142885	-0.0204577	0	0	-0.04737437	0.03410498	0	0
1.588537	-0.0142885	-0.0204577	0	0	0	0	0	0
1.605106	-0.0142885	-0.0204577	0	0	0	0	0	0
1.62167	-0.0142885	-0.0204577	0	0	0	0	0	0
1.638236	-0.0142885	-0.0204577	0	0	0	0	0	0
1.654803	-0.0142885	-0.0204577	0	0	0	0	0	0
1.67137	-0.01431481	-0.02043876	-0.001588168	0.001143328	-0.0479324	0.03450671	0	0
1.687936	-0.01431481	-0.02043876	0	0	0.04793292	-0.03450708	0	0
1.704704	-0.01431481	-0.02043876	0	0	0	0	0	0
1.721212	-0.01431481	-0.02043876	0	0	0	0	0	0
1.737636	-0.01431481	-0.02043876	0	0	0	0	0	0
1.754203	-0.01431481	-0.02043876	0	0	0	0	0	0
1.77274	-0.01431481	-0.02043876	0	0	0	0	0	0
1.855812	-0.01434112	-0.02041982	-0.0003167253	0.0002280341	-0.003117106	0.002244237	0	0
1.872147	-0.01434112	-0.02041982	0	0	0.003186155	-0.002293951	0	0
1.888831	-0.01434112	-0.02041982	0	0	0	0	0	0
1.905277	-0.01434112	-0.02041982	0	0	0	0	0	0
1.921841	-0.01434112	-0.02041982	0	0	0	0	0	0
1.938412	-0.01434112	-0.02041982	0	0	0	0	0	0
1.971541	-0.01434112	-0.02041982	0	0	0	0	0	0
1.988108	-0.01434112	-0.02041982	0	0	0	0	0	0
2.004674	-0.01434112	-0.02041982	0	0	0	0	0	0
2.021241	-0.01436743	-0.02040087	-0.001588112	0.001143328	-0.04793122	0.03450708	0	0
2.037942	-0.01436743	-0.02040087	0	0	0.04773731	-0.03436748	0	0
2.054375	-0.01436743	-0.02040087	0	0	0	0	0	0
2.070952	-0.01436743	-0.02040087	0	0	0	0	0	0
2.087508	-0.01436743	-0.02040087	0	0	0	0	0	0
2.104075	-0.01436743	-0.02040087	0	0	0	0	0	0
2.120996	-0.01436743	-0.02040087	0	0	0	0	0	0
2.13721	-0.01436743	-0.02040087	0	0	0	0	0	0
2.153775	-0.01436743	-0.02040087	0	0	0	0	0	0
2.170532	-0.01434112	-0.02041982	0.001570148	-0.001130395	0.04712066	-0.03392354	0	0
2.186908	-0.01434112	-0.02041982	0	0	-0.04738954	0.03411712	0	0
2.203554	-0.01434112	-0.02041982	0	0	0	0	0	0
2.220042	-0.01431481	-0.02043876	0.001595747	-0.001148897	0.04816008	-0.03467403	0	0
2.236609	-0.01431481	-0.02047664	0	-0.002286835	-0.04827645	-0.03442626	0	0
2.253175	-0.01431481	-0.02047664	0	0	0	0.06902079	0	0
2.269741	-0.0142885	-0.02049558	0.001588214	-0.001143361	0.04793515	-0.0345087	0	0
2.286309	-0.0142885	-0.02049558	0	0	-0.04793378	0.0345077	0	0
2.303123	-0.0142885	-0.02053347	0	-0.002253158	0	-0.06749634	0	0
2.319443	-0.01426219	-0.02055241	0.001612172	-0.001160764	0.0486558	0.03296877	0	0
2.336011	-0.01426219	-0.02055241	0	0	-0.04901981	0.03529426	0	0
2.352575	-0.01423588	-0.02057135	0.001588443	-0.001143526	0.04794206	-0.03451366	0	0
2.369141	-0.01423588	-0.02057135	0	0	-0.04794585	0.0345164	0	0
2.385709	-0.01420957	-0.02062818	0.001588123	-0.003430224	0.04793136	-0.1035281	0	0
2.402694	-0.01418326	-0.02068502	0.001548924	-0.003345786	-0.00116825	0.00251653	0	0
2.418842	-0.01399909	-0.02085551	0.01140563	-0.01055866	0.2974845	-0.2176913	0	0
2.435409	-0.0137886	-0.02104496	0.01270535	-0.01143564	0.03972929	-0.02680721	0	0
2.451976	-0.0119468	-0.02244726	0.1111744	-0.0846452	2.971888	-2.209532	0	0
2.468542	-0.004131556	-0.02815768	0.4717562	-0.3447016	10.88285	-7.848856	0	0
2.485109	0.0031842	-0.03347917	0.4415926	-0.3212151	-0.9103808	0.7088526	0	0
2.501764	0.01055224	-0.03884806	0.4423866	-0.3223552	0.02389966	-0.0343164	0	0
2.518278	0.0153409	-0.04239448	0.2899706	-0.2147482	-4.595062	3.244153	0	0
2.601075	0.01960275	-0.09495679	0.05147345	-0.634833	-2.40151	-4.229978	0	0
2.617642	0.01463053	-0.1086579	-0.3001322	-0.8270254	-3.538569	-1.934229	0	0
2.652624	0.002763151	-0.1259322	-0.3392452	-0.493809	-0.7587606	6.464137	0	0
2.669383	-0.006447279	-0.1325914	-0.5495682	-0.3973428	-4.064909	1.864401	0	0
2.685755	-0.01844528	-0.1416439	-0.7328166	-0.5529108	-5.530886	-4.695424	0	0
2.702322	-0.02780862	-0.148704	-0.5652051	-0.4261709	5.088585	3.847747	0	0
2.718889	-0.04000496	-0.1579376	-0.7361938	-0.5573596	-5.160673	-3.959452	0	0
2.735456	-0.04875081	-0.164587	-0.5278931	-0.4013495	6.286573	4.708428	0	0
2.752022	-0.05714823	-0.1709949	-0.5069054	-0.3868131	0.633428	0.4387206	0	0
2.768589	-0.06695241	-0.1785073	-0.5917984	-0.4534591	-2.562203	-2.011482	0	0
2.785467	-0.07386537	-0.1838253	-0.4095695	-0.3150761	5.448555	4.137585	0	0
2.801722	-0.07844397	-0.1873576	-0.2816749	-0.2173043	3.859978	2.950844	0	0
2.818488	-0.08701655	-0.1939934	-0.5113052	-0.3957892	-6.954073	-5.405197	0	0
2.867988	-0.09286372	-0.1985369	-0.1181247	-0.09178666	5.933361	4.587605	0	0
2.884556	-0.09286372	-0.1985369	0	0	1.787928	1.389277	0	0
2.901547	-0.09286372	-0.1985369	0	0	0	0	0	0
2.917689	-0.09283762	-0.1985166	0.001616411	0.001257311	0.04878549	0.03794736	0	0
2.934256	-0.09283762	-0.1985166	0	0	-0.04941919	-0.03844028	0	0
2.951082	-0.09286372	-0.1984963	-0.001550655	0.001207049	-0.046437	0.03614713	0	0
2.967389	-0.09283762	-0.1985166	0.00160008	-0.001245522	0.0950935	-0.07402195	0	0
2.983956	-0.09283762	-0.1985166	0	0	-0.04867332	0.03788791	0	0
3.000522	-0.09283762	-0.1985166	0	0	0	0	0	0
3.017089	-0.09286372	-0.1984963	-0.001574958	0.001225966	-0.04753471	0.0370016	0	0
3.033656	-0.09286372	-0.1984963	0	0	0.04753299	-0.03700027	0	0
3.050222	-0.09286372	-0.1984963	0	0	0	0	0	0
3.066789	-0.09286372	-0.1984963	0	0	0	0	0	0
3.083676	-0.09283762	-0.198476	0.001545138	0.001201872	0.04618703	0.03592617	0	0
3.099922	-0.09283762	-0.198476	0	0	-0.04663505	-0.03627466	0	0
3.11649	-0.09283762	-0.198476	0	0	0	0	0	0
3.133055	-0.09283762	-0.198476	0	0	0	0	0	0
3.149623	-0.09283762	-0.198476	0	0	0	0	0	0
3.16619	-0.09283762	-0.198476	0	0	0	0	0	0
3.182755	-0.09283762	-0.198476	0	0	0	0	0	0
3.199322	-0.09283762	-0.198476	0	0	0	0	0	0
3.215889	-0.09281153	-0.1984963	0.00157489	-0.001225014	0.0475306	-0.03697126	0	0
3.232455	-0.09283762	-0.198476	-0.001575071	0.001225155	-0.0950701	0.07394944	0	0
3.249023	-0.09283762	-0.198476	0	0	0.0475371	-0.03697632	0	0
3.33236	-0.09281153	-0.1984556	0.0003130892	0.0002437125	0.003133868	0.002439442	0	0
3.348423	-0.09281153	-0.1984556	0	0	-0.003149774	-0.002451823	0	0
3.364989	-0.09281153	-0.1984556	0	0	0	0	0	0
3.381555	-0.09281153	-0.1984556	0	0	0	0	0	0
3.398122	-0.09281153	-0.1984556	0	0	0	0	0	0
3.414689	-0.09281153	-0.1984556	0	0	0	0	0	0
3.431255	-0.09281153	-0.1984556	0	0	0	0	0	0
3.447822	-0.09281153	-0.1984556	0	0	0	0	0	0
3.464389	-0.09281153	-0.1984556	0	0	0	0	0	0
3.480957	-0.09281153	-0.1984556	0	0	0	0	0	0
3.516623	-0.09281153	-0.1984556	0	0	0	0	0	0
3.53319	-0.09281153	-0.1984556	0	0	0	0	0	0
3.549757	-0.09281153	-0.1984556	0	0	0	0	0	0
3.566323	-0.09281153	-0.1984556	0	0	0	0	0	0
3.58289	-0.09281153	-0.1984556	0	0	0	0	0	0
3.599456	-0.09281153	-0.1984556	0	0	0	0	0	0
3.616023	-0.09278544	-0.1984353	0.001574958	0.001225966	0.04753437	0.03700134	0	0
3.63259	-0.09268108	-0.1983541	0.006299381	0.004902067	0.1425875	0.1109481	0	0
3.649156	-0.09213316	-0.1978872	0.03307366	0.02818373	0.8080726	0.7026623	0	0
3.665725	-0.09189831	-0.1975828	0.01417409	0.01837505	-0.5703779	-0.2960202	0	0
3.682291	-0.09067175	-0.1965074	0.07403997	0.06491513	1.806743	1.404572	0	0
3.732134	-0.07690068	-0.1854394	0.2762884	0.2220567	3.045482	2.366256	0	0
3.765161	-0.06372937	-0.1750292	0.398811	0.3152071	1.4785	1.124062	0	0
3.781691	-0.05203194	-0.165527	0.7076263	0.5748262	6.23152	5.2388	0	0
3.798256	-0.04977464	-0.1636473	0.1362685	0.113474	-17.26386	-13.93999	0	0
3.814823	-0.04344633	-0.1583564	0.3819888	0.319371	7.416442	6.214474	0	0
3.83139	-0.03114782	-0.1485253	0.742361	0.5934253	10.87637	8.271213	0	0
3.847956	-0.0272827	-0.1452903	0.2333055	0.1952651	-15.36377	-12.01684	0	0
3.864736	-0.02257511	-0.140753	0.2805573	0.2704121	1.417007	2.253543	0	0
3.881092	-0.01786652	-0.134802	0.2878818	0.3638405	0.2210462	2.819595	0	0
3.897752	-0.01334131	-0.1309348	0.2716215	0.2321266	-0.492498	-3.9894	0	0
3.914264	-0.008026144	-0.1269555	0.321899	0.2409927	1.515667	0.2672753	0	0
3.93079	-0.004657861	-0.1243194	0.2038174	0.1595172	-3.574126	-2.466119	0	0
3.947356	-0.0003947368	-0.1211361	0.2573301	0.1921493	1.617053	0.9860795	0	0
3.963924	0.001868419	-0.1192908	0.1366044	0.1113785	-3.643562	-2.437703	0	0
3.980492	0.008289284	-0.1142332	0.3875363	0.3052587	7.57287	5.851107	0	0
3.997056	0.01289402	-0.1105345	0.2779905	0.2232889	-3.306264	-2.473979	0	0
4.013623	0.01949753	-0.1048502	0.3985999	0.3431159	3.640365	3.61675	0	0
4.03019	0.02223318	-0.09935358	0.1651289	0.3317876	-7.046371	-0.3418971	0	0
4.046757	0.02175972	-0.0916931	-0.02857871	0.4624012	-5.846277	3.942038	0	0
4.063369	0.02039191	-0.08622372	-0.08233859	0.3292413	-1.620308	-4.0134	0	0
4.079891	0.01860312	-0.07477769	-0.1082678	0.6927779	-0.7825565	10.97171	0	0
4.096457	0.01760344	-0.06587797	-0.06034555	0.5372345	1.448339	-4.70094	0	0
4.129591	0.01231517	-0.04902195	-0.1596028	0.5087232	-1.997137	-0.5736702	0	0
4.146428	0.01010492	-0.04478019	-0.1312686	0.2519218	0.5670057	-5.138949	0	0
4.162724	0.00552626	-0.04138352	-0.2809699	0.2084373	-4.518122	-1.312403	0	0
4.17929	0.00536837	-0.04130723	-0.009531077	0.00460506	8.260032	-6.202727	0	0
4.195961	0.00536837	-0.04138352	0	-0.004575819	0.2867571	-0.2762209	0	0
4.212423	0.005394685	-0.04140259	0.001598544	-0.001158422	0.04824553	0.1031402	0	0
4.228991	0.005342055	-0.04140259	-0.00317666	0	-0.1445737	0.03507227	0	0
4.245559	0.00536837	-0.04142166	0.00158833	-0.001151245	0.1438035	-0.03474364	0	0
4.280698	0.00536837	-0.04153609	0	-0.003256587	-0.03071801	-0.04071693	0	0
4.297265	0.005342055	-0.04163146	-0.001588421	-0.00575633	-0.03072035	-0.04834548	0	0
4.31383	0.005289424	-0.0416696	-0.003177145	-0.002302821	-0.04795123	0.1042346	0	0
4.330399	0.005263109	-0.04165053	-0.001588239	0.001151178	0.04795399	0.1042434	0	0
4.346966	0.005263109	-0.04165053	0	0	0.04793106	-0.03474114	0	0
4.363581	0.005263109	-0.04165053	0	0	0	0	0	0
4.380097	0.005236794	-0.04163146	-0.001593236	0.001154801	-0.04808812	0.03485497	0	0
4.396665	0.005236794	-0.04163146	0	0	0.04815743	-0.03490521	0	0
4.41323	0.005236794	-0.04163146	0	0	0	0	0	0
4.430127	0.005236794	-0.04163146	0	0	0	0	0	0
4.446641	0.005236794	-0.04163146	0	0	0	0	0	0
4.46293	0.005210479	-0.04161238	-0.001615578	0.001170994	-0.04925083	0.03569772	0	0
4.479497	0.005210479	-0.04161238	0	0	0.0491722	-0.03564073	0	0
4.496066	0.005210479	-0.04161238	0	0	0	0	0	0
4.512685	0.005184164	-0.04159331	-0.001583363	0.001147644	-0.0477084	0.03457975	0	0
4.529198	0.005184164	-0.04159331	0	0	0.04778873	-0.03463797	0	0
4.545763	0.005157849	-0.04157424	-0.001588587	0.001151411	-0.04802519	0.03480875	0	0
4.612256	0.004868383	-0.04128816	-0.004353363	0.00430238	-0.03328735	0.03793703	0	0
4.628597	0.004342078	-0.04086863	-0.03220815	0.02567417	-0.3362753	0.2580097	0	0
4.645164	-0.0003157895	-0.03749543	-0.2811575	0.2036125	-7.565129	5.40723	0	0
4.66173	-0.005657834	-0.03363135	-0.322465	0.2332495	-1.246717	0.8944853	0	0
4.678304	-0.01073643	-0.03000016	-0.3064123	0.2190848	0.4843815	-0.4274125	0	0
4.694865	-0.01499888	-0.02692365	-0.2573855	0.1857733	1.479611	-1.005329	0	0
4.71143	-0.01707729	-0.02542448	-0.1254676	0.0905003	3.98232	-2.876089	0	0
4.727997	-0.01705098	-0.02544345	0.001588	-0.00114524	3.834823	-2.766067	0	0
4.744564	-0.01707729	-0.02542448	-0.001587954	0.001145207	-0.09585186	0.0691268	0	0
4.76113	-0.01707729	-0.02542448	0	0	0.04792662	-0.0345639	0	0
4.777697	-0.01705098	-0.02544345	0.001588	-0.00114524	0.04792869	-0.03456539	0	0
4.794265	-0.01702467	-0.02546242	0.001587863	-0.001145028	-4.138751E-06	6.376768E-06	0	0
4.8109	-0.01702467	-0.02546242	0	0	-0.04782268	0.03448556	0	0
4.827396	-0.01699836	-0.0254814	0.00159486	-0.001150106	0.04813713	-0.03471326	0	0
4.843963	-0.01697205	-0.02553832	0.001588	-0.003435719	-0.0002074908	-0.06912817	0	0
4.860531	-0.01694575	-0.02555729	0.001587908	-0.001145174	-2.758036E-06	0.0691288	0	0
4.877098	-0.01686682	-0.02561421	0.004763862	-0.003435733	0.0958491	-0.06912821	0	0
4.893959	-0.01686682	-0.02561421	0	0	-0.1425103	0.1027795	0	0
4.91047	-0.01686682	-0.02561421	0	0	0	0	0	0
4.926987	-0.01689313	-0.02559523	-0.001592814	0.001148824	-0.04822597	0.03478321	0	0
4.943491	-0.01689313	-0.02559523	0	0	0.04823712	-0.03479124	0	0
4.960002	-0.01689313	-0.02559523	0	0	0	0	0	0
4.976496	-0.01689313	-0.02559523	0	0	0	0	0	0
4.993064	-0.01689313	-0.02559523	0	0	0	0	0	0
5.009632	-0.01689313	-0.02559523	0	0	0	0	0	0
5.026197	-0.01691944	-0.02557626	-0.001588137	0.001145339	-0.04793214	0.03456788	0	0
5.042764	-0.01691944	-0.02557626	0	0	0.04793352	-0.03456888	0	0
5.059331	-0.01691944	-0.02557626	0	0	0	0	0	0
5.075897	-0.01691944	-0.02557626	0	0	0	0	0	0
5.109111	-0.01689313	-0.02559523	0.0007920734	-0.0005712305	0.01591136	-0.01147502	0	0
5.125619	-0.01689313	-0.02559523	0	0	-0.01592998	0.01148844	0	0
5.142164	-0.01686682	-0.02561421	0.001590151	-0.001146904	0.04810993	-0.03469951	0	0
5.158731	-0.01684051	-0.02563318	0.001588	-0.00114524	-6.496681E-05	5.025277E-05	0	0
5.175297	-0.01684051	-0.02563318	0	0	-0.04792731	0.0345644	0	0
5.191864	-0.01673528	-0.02570908	0.006351929	-0.004581052	0.1917043	-0.1382584	0	0
5.208432	-0.01665635	-0.025766	0.004763837	-0.003435746	-0.047928	0.0345649	0	0
5.224998	-0.01663005	-0.02578497	0.001588137	-0.001145339	-0.09584697	0.06912762	0	0
5.307833	-0.01657743	-0.02582292	0.0006352114	-0.0004581329	-0.009586725	0.006913502	0	0
5.324397	-0.01660374	-0.02580395	-0.001588341	0.001145517	-0.02236984	0.01613337	0	0
5.340967	-0.01660374	-0.02580395	0	0	0.04793691	-0.03457227	0	0
5.357531	-0.01660374	-0.02580395	0	0	0	0	0	0
5.374097	-0.01663005	-0.02578497	-0.001588046	0.001145385	-0.04793352	0.03457227	0	0
5.390664	-0.01663005	-0.02578497	0	0	0.04792869	-0.03456879	0	0
5.407232	-0.01663005	-0.02578497	0	0	0	0	0	0
5.423831	-0.01663005	-0.02578497	0	0	0	0	0	0
5.440363	-0.01663005	-0.02578497	0	0	0	0	0	0
5.45693	-0.01663005	-0.02578497	0	0	0	0	0	0
5.473497	-0.01663005	-0.02578497	0	0	0	0	0	0
5.490064	-0.01663005	-0.02578497	0	0	0	0	0	0
5.50663	-0.01663005	-0.02578497	0	0	0	0	0	0
5.523197	-0.01663005	-0.02578497	0	0	0	0	0	0
5.539763	-0.01663005	-0.02578497	0	0	0	0	0	0
5.55633	-0.01660374	-0.02580395	0.001588	-0.001145352	0.047928	-0.03456829	0	0
5.572897	-0.01660374	-0.02580395	0	0	-0.04792662	0.03456729	0	0
5.589464	-0.01660374	-0.02580395	0	0	0	0	0	0
5.60603	-0.01660374	-0.02580395	0	0	0	0	0	0
5.622598	-0.01660374	-0.02580395	0	0	0	0	0	0
5.639163	-0.01660374	-0.02580395	0	0	0	0	0	0
5.65573	-0.01657743	-0.02582292	0.001588158	-0.001145385	0.04793484	-0.03457078	0	0
5.672297	-0.01660374	-0.02580395	-0.001588112	0.001145352	-0.09586416	0.06913757	0	0
5.688863	-0.01660374	-0.02580395	0	0	0.04793139	-0.03456829	0	0
5.705431	-0.01660374	-0.02580395	0	0	0	0	0	0
5.722044	-0.01660374	-0.02580395	0	0	0	0	0	0
5.738564	-0.01660374	-0.02580395	0	0	0	0	0	0
5.755131	-0.01657743	-0.02582292	0.001588066	-0.001145319	0.04799632	-0.03461512	0	0
5.771697	-0.01660374	-0.02580395	-0.001588158	0.001145385	-0.09586141	0.06913558	0	0
5.788263	-0.01660374	-0.02580395	0	0	0.04793346	-0.03456978	0	0
5.80483	-0.01660374	-0.02580395	0	0	0	0	0	0
5.821398	-0.01660374	-0.02580395	0	0	0	0	0	0
5.838123	-0.01660374	-0.02580395	0	0	0	0	0	0
5.854639	-0.01660374	-0.02580395	0	0	0	0	0	0
5.87115	-0.01660374	-0.02580395	0	0	0	0	0	0
5.887663	-0.01657743	-0.02582292	0.001593202	-0.001149023	0.04824262	-0.03479275	0	0
5.90423	-0.01657743	-0.02582292	0	0	-0.04816126	0.03473407	0	0
5.93741	-0.01660374	-0.02580395	-0.0007929492	0.0005718778	-0.01593979	0.01149584	0	0
5.953978	-0.01660374	-0.02580395	0	0	0.01593949	-0.01149562	0	0
5.970544	-0.01660374	-0.02580395	0	0	0	0	0	0
6.070288	-0.01660374	-0.02580395	0	0	0	0	0	0
6.08651	-0.01660374	-0.02580395	0	0	0	0	0	0
6.103077	-0.01660374	-0.02580395	0	0	0	0	0	0
6.119643	-0.01660374	-0.02580395	0	0	0	0	0	0
6.136335	-0.01660374	-0.02580395	0	0	0	0	0	0
6.152844	-0.01660374	-0.02580395	0	0	0	0	0	0
6.169361	-0.01660374	-0.02580395	0	0	0	0	0	0
6.18591	-0.01660374	-0.02580395	0	0	0	0	0	0
6.202477	-0.01660374	-0.02580395	0	0	0	0	0	0
6.219044	-0.01660374	-0.02580395	0	0	0	0	0	0
6.235611	-0.01660374	-0.02580395	0	0	0	0	0	0
6.268928	-0.01660374	-0.02580395	0	0	0	0	0	0
6.28531	-0.01660374	-0.02580395	0	0	0	0	0	0
6.301877	-0.01660374	-0.02580395	0	0	0	0	0	0
6.318443	-0.01663005	-0.02582292	-0.001588046	-0.001145385	-0.04793007	-0.03456978	0	0
6.335013	-0.01660374	-0.0258419	0.00158768	-0.001145121	0.09583806	7.957441E-06	0	0
6.351577	-0.01660374	-0.0258419	0	0	-0.04791627	0.03455983	0	0
6.368143	-0.01663005	-0.02586087	-0.001588091	-0.001145418	-0.04793489	-0.03457326	0	0
6.38471	-0.01665635	-0.02595575	-0.001588	-0.005726873	2.758195E-06	-0.1382765	0	0
6.401519	-0.01668266	-0.02605063	-0.001565071	-0.005644405	0.000686984	0.002470866	0	0
6.418033	-0.01673528	-0.02627835	-0.003186292	-0.01378963	-0.04865129	-0.2444305	0	0
6.434546	-0.0168142	-0.02641119	-0.004779545	-0.00804498	-0.04824137	0.1739396	0	0
6.450977	-0.01702467	-0.02656302	-0.0128093	-0.009240529	-0.2437415	-0.03629067	0	0
6.467567	-0.01702467	-0.02656302	0	0	0.3879084	0.2798342	0	0
6.48411	-0.01705098	-0.026582	-0.001590334	-0.001147261	-0.04799845	-0.0346259	0	0
6.500677	-0.01705098	-0.026582	0	0	0.04803302	0.03465084	0	0
6.517242	-0.01705098	-0.026582	0	0	0	0	0	0
6.533813	-0.01707729	-0.02660098	-0.00158768	-0.001145459	-0.0479142	-0.03456852	0	0
6.550377	-0.0171299	-0.0266769	-0.003176365	-0.00458306	-0.04794593	-0.1037455	0	0
6.566943	-0.01739298	-0.02698059	-0.01588091	-0.01833254	-0.3834681	-0.4150077	0	0
6.583649	-0.01749821	-0.02709448	-0.006299126	-0.006817596	0.2879893	0.3460921	0	0
6.600161	-0.01739298	-0.02720838	0.006372981	-0.006897868	0.3814897	-0.002416565	0	0
6.616671	-0.01731406	-0.0274172	0.004780235	-0.01264779	-0.0482323	-0.1741218	0	0
6.633209	-0.01705098	-0.02779691	0.01590747	-0.02295974	0.3366927	-0.3120234	0	0
6.649777	-0.01676159	-0.0281197	0.01746671	-0.01948257	0.04709814	0.1050302	0	0
6.666343	-0.01539352	-0.02933522	0.08258621	-0.07337712	1.965367	-1.626587	0	0
6.682909	-0.01247304	-0.03159659	0.1762858	-0.1365007	2.828063	-1.905212	0	0
6.699476	-0.01028911	-0.03328896	0.1318297	-0.1021573	-1.341745	1.036532	0	0
6.716241	-0.004578915	-0.03753352	0.3405901	-0.2531708	6.263086	-4.530602	0	0
6.732752	-0.002894729	-0.03882901	0.1020041	-0.07846253	-7.16979	5.250189	0	0
6.807806	0.02175972	-0.06191876	0.3284888	-0.3076411	2.473481	-2.502902	0	0
6.824319	0.02020778	-0.06697447	-0.09398406	-0.3061679	-4.613809	0.01608928	0	0
6.840835	0.01394646	-0.07622514	-0.379112	-0.5601127	-8.632757	-7.688632	0	0
6.857403	0.006578852	-0.08577813	-0.4446971	-0.5766032	-1.982417	-0.4984524	0	0
6.873968	0.00271052	-0.09037322	-0.2335199	-0.2773919	6.373617	9.030604	0	0
6.890535	-0.003263146	-0.0967263	-0.3605816	-0.3834837	-3.835005	-3.202089	0	0
6.907101	-0.01263091	-0.1036993	-0.5654717	-0.4209125	-6.183864	-1.129652	0	0
6.923669	-0.01876096	-0.1082085	-0.3699892	-0.2721635	5.899673	4.489254	0	0
6.940235	-0.02367978	-0.1117864	-0.2969352	-0.2159862	2.20484	1.695485	0	0
6.956802	-0.02943886	-0.1160355	-0.3476086	-0.2564708	-1.529393	-1.221882	0	0
6.973423	-0.03051684	-0.1168392	-0.06485967	-0.048353	8.519648	6.2709	0	0
6.989936	-0.03527484	-0.12039	-0.2881305	-0.2150264	-6.73852	-5.030357	0	0
7.006501	-0.03585305	-0.1209004	-0.03490505	-0.03081552	7.655248	5.568871	0	0
7.023068	-0.03585305	-0.1209004	0	0	1.053512	0.9300812	0	0
7.039635	-0.03580049	-0.1209397	0.003172851	-0.002370531	0.0957596	-0.07154484	0	0
7.056202	-0.03580049	-0.1209397	0	0	-0.09575684	0.07154278	0	0
7.122468	-0.0356428	-0.1210968	0.002379707	-0.002370712	0.02872904	-0.02862045	0	0
7.139036	-0.03561651	-0.1211164	0.001586514	-0.001185388	-0.009575781	0.01430975	0	0
7.155602	-0.03561651	-0.1211164	0	0	-0.04788107	0.03577509	0	0
7.172564	-0.03561651	-0.1211164	0	0	0	0	0	0
7.188734	-0.03559023	-0.1211361	0.001625348	-0.001214116	0.04905664	-0.03664472	0	0
7.205301	-0.03559023	-0.1211361	0	0	-0.049649	0.03708721	0	0
7.238611	-0.03561651	-0.1211164	-0.0007890115	0.0005893821	-0.01581924	0.01181678	0	0
7.255123	-0.03561651	-0.1211164	0	0	0.0158365	-0.01182968	0	0
7.271634	-0.03561651	-0.1211164	0	0	0	0	0	0
7.288149	-0.03559023	-0.1211361	0.001591373	-0.001188736	0.04818582	-0.03599423	0	0
7.304701	-0.03559023	-0.1211361	0	0	-0.04812537	0.03594907	0	0
7.321268	-0.03559023	-0.1211361	0	0	0	0	0	0
7.337837	-0.03559023	-0.1211361	0	0	0	0	0	0
7.354402	-0.03559023	-0.1211361	0	0	0	0	0	0
7.370971	-0.03559023	-0.1211361	0	0	0	0	0	0
7.387719	-0.03556395	-0.1211557	0.001569262	-0.001172665	0.04710081	-0.03519709	0	0
7.404101	-0.03556395	-0.1211557	0	0	-0.04736656	0.03539567	0	0
7.420739	-0.03556395	-0.1211557	0	0	0	0	0	0
7.437252	-0.03556395	-0.1211557	0	0	0	0	0	0
7.453801	-0.03556395	-0.1211557	0	0	0	0	0	0
7.470373	-0.03556395	-0.1211557	0	0	0	0	0	0
7.486936	-0.03556395	-0.1211557	0	0	0	0	0	0
7.503803	-0.03556395	-0.1211557	0	0	0	0	0	0
7.520068	-0.03556395	-0.1211557	0	0	0	0	0	0
7.536634	-0.03556395	-0.1211557	0	0	0	0	0	0
7.553346	-0.03556395	-0.1211557	0	0	0	0	0	0
7.569852	-0.03556395	-0.1211557	0	0	0	0	0	0
7.586334	-0.03556395	-0.1211557	0	0	0	0	0	0
7.619487	-0.03556395	-0.1211557	0	0	0	0	0	0
7.636054	-0.03556395	-0.1211557	0	0	0	0	0	0
7.652621	-0.03556395	-0.1211557	0	0	0	0	0	0
7.669189	-0.03556395	-0.1211557	0	0	0	0	0	0
7.685754	-0.03556395	-0.1211557	0	0	0	0	0	0
7.702438	-0.03556395	-0.1211557	0	0	0	0	0	0
7.718951	-0.03556395	-0.1211557	0	0	0	0	0	0
7.735461	-0.03556395	-0.1211557	0	0	0	0	0	0
7.752021	-0.03556395	-0.1211557	0	0	0	0	0	0
7.768589	-0.03556395	-0.1211557	0	0	0	0	0	0
7.785154	-0.03553766	-0.1211753	0.001586563	-0.001185593	0.04788394	-0.0357823	0	0
7.802009	-0.03553766	-0.1211753	0	0	-0.04747333	0.03547546	0	0
7.818287	-0.03553766	-0.1211753	0	0	0	0	0	0
7.835031	-0.03556395	-0.121195	-0.001569664	-0.00117252	-0.047534	-0.03550732	0	0
7.851545	-0.03556395	-0.121195	0	0	0.04719665	0.03525532	0	0
7.868062	-0.03556395	-0.121195	0	0	0	0	0	0
7.884557	-0.03553766	-0.1212146	0.001593259	-0.001190597	0.04826314	-0.03606566	0	0
7.901121	-0.03553766	-0.1212146	0	0	-0.04819422	0.03601417	0	0
7.917687	-0.03553766	-0.1212146	0	0	0	0	0	0
7.934254	-0.03553766	-0.1212146	0	0	0	0	0	0
7.95082	-0.03553766	-0.1212146	0	0	0	0	0	0
8.033654	-0.03553766	-0.1212146	0	0	0	0	0	0
8.050223	-0.03553766	-0.1212146	0	0	0	0	0	0
8.06679	-0.03553766	-0.1212146	0	0	0	0	0	0
8.083712	-0.03553766	-0.1212146	0	0	0	0	0	0
8.09992	-0.03553766	-0.1212146	0	0	0	0	0	0
8.116488	-0.03553766	-0.1212146	0	0	0	0	0	0
8.133054	-0.03553766	-0.1212146	0	0	0	0	0	0
8.14962	-0.03553766	-0.1212146	0	0	0	0	0	0
8.166186	-0.03553766	-0.1212146	0	0	0	0	0	0
8.182779	-0.03553766	-0.1212146	0	0	0	0	0	0
8.19932	-0.03553766	-0.1212146	0	0	0	0	0	0
8.215886	-0.03553766	-0.1212146	0	0	0	0	0	0
8.232452	-0.03553766	-0.1212146	0	0	0	0	0	0
8.24902	-0.03553766	-0.1212146	0	0	0	0	0	0
8.265586	-0.03553766	-0.1212146	0	0	0	0	0	0
8.282351	-0.03553766	-0.1212146	0	0	0	0	0	0
8.315371	-0.03553766	-0.1212146	0	0	0	0	0	0
8.331888	-0.03553766	-0.1212146	0	0	0	0	0	0
8.34842	-0.03553766	-0.1212146	0	0	0	0	0	0
8.364985	-0.03553766	-0.1212146	0	0	0	0	0	0
8.381552	-0.03553766	-0.1212146	0	0	0	0	0	0
8.398428	-0.03553766	-0.1212146	0	0	0	0	0	0
8.431451	-0.03553766	-0.1212146	0	0	0	0	0	0
8.447821	-0.03553766	-0.1212146	0	0	0	0	0	0
8.464386	-0.03553766	-0.1212146	0	0	0	0	0	0
8.480952	-0.03553766	-0.1212146	0	0	0	0	0	0
8.497521	-0.03553766	-0.1212146	0	0	0	0	0	0
8.514087	-0.03553766	-0.1212146	0	0	0	0	0	0
8.530653	-0.03553766	-0.1212146	0	0	0	0	0	0
8.54722	-0.03553766	-0.1212146	0	0	0	0	0	0
8.563787	-0.03553766	-0.1212146	0	0	0	0	0	0
8.580559	-0.03553766	-0.1212146	0	0	0	0	0	0
8.596924	-0.03553766	-0.1212146	0	0	0	0	0	0
8.613583	-0.03553766	-0.1212146	0	0	0	0	0	0
8.630055	-0.03553766	-0.1212146	0	0	0	0	0	0
8.646622	-0.03553766	-0.1212146	0	0	0	0	0	0
8.663188	-0.03553766	-0.1212146	0	0	0	0	0	0
8.679754	-0.03553766	-0.1212146	0	0	0	0	0	0
8.696323	-0.03553766	-0.1212146	0	0	0	0	0	0
8.712888	-0.03553766	-0.1212146	0	0	0	0	0	0
8.729454	-0.03553766	-0.1212146	0	0	0	0	0	0
8.746178	-0.03553766	-0.1212146	0	0	0	0	0	0
8.762588	-0.03553766	-0.1212146	0	0	0	0	0	0
8.779154	-0.03556395	-0.121195	-0.001586471	0.001185525	-0.04810966	0.03595097	0	0
8.795722	-0.03553766	-0.1211753	0.001586289	0.001184939	0.09575409	-1.769008E-05	0	0
8.812287	-0.03556395	-0.1211557	-0.001586563	0.001185593	-0.0957596	1.974951E-05	0	0
8.828854	-0.03559023	-0.1210575	-0.001586471	0.005926724	2.758274E-06	0.1431	0	0
8.84542	-0.03561651	-0.1209593	-0.001586471	0.005926724	0	0	0	0
8.861989	-0.03561651	-0.1208808	0	0.004740381	0.04787842	-0.03580288	0	0
8.878553	-0.03574792	-0.1206648	-0.007933495	0.01303868	-0.2394402	0.2504502	0	0
8.895122	-0.03574792	-0.1206255	0	0.002370327	0.2394471	-0.3219899	0	0
8.911795	-0.03587933	-0.1202133	-0.00788154	0.02472625	-0.237101	0.6725352	0	0
8.928254	-0.03614215	-0.119075	-0.01596744	0.0691573	-0.244047	1.341009	0	0
8.944822	-0.03806056	-0.1174077	-0.1157887	0.1006303	-3.022356	0.9529285	0	0
8.961388	-0.03968967	-0.1159571	-0.09834485	0.08756837	0.5264727	-0.394221	0	0
8.977954	-0.04510098	-0.1109061	-0.3266458	0.3048975	-6.890731	6.559573	0	0
8.994522	-0.04788442	-0.1078569	-0.1679993	0.1840432	4.78796	-3.64739	0	0
9.027875	-0.05814491	-0.09715427	-0.3076347	0.3208897	-2.797124	2.74126	0	0
9.044386	-0.06131777	-0.09480128	-0.1921668	0.1425103	2.315664	-3.577332	0	0
9.060898	-0.06404387	-0.09278055	-0.165099	0.1223802	0.8196701	-0.6095815	0	0
9.077409	-0.06446319	-0.0924698	-0.02539638	0.01882076	4.230479	-3.13599	0	0
9.093921	-0.06443699	-0.09248923	0.001586956	-0.001176342	0.8171103	-0.6055528	0	0
9.110489	-0.06441078	-0.09250864	0.001582017	-0.001171898	-0.0001493265	0.0001343593	0	0
9.127054	-0.06438457	-0.09252807	0.00158184	-0.00117255	-5.3265E-06	-1.968275E-05	0	0
9.143621	-0.06438457	-0.09252807	0	0	-0.04774278	0.03538966	0	0
9.176979	-0.06441078	-0.09250864	-0.0007855384	0.0005822856	-0.01573442	0.01166324	0	0
9.19332	-0.06441078	-0.09239212	0	0.007130417	0.01580597	0.1317562	0	0
9.209888	-0.06435836	-0.09231444	0.003163584	0.004688489	0.09613011	-0.07420153	0	0
9.226454	-0.06435836	-0.09231444	0	0	-0.09547989	-0.141503	0	0
9.243026	-0.06435836	-0.09231444	0	0	0	0	0	0
9.259586	-0.06433216	-0.09233387	0.001582296	-0.001172887	0.04775652	-0.03539985	0	0
9.276154	-0.06435836	-0.09235328	-0.001581658	-0.001171965	-0.09550755	2.784245E-05	0	0
9.29272	-0.06433216	-0.09245038	0.001581749	-0.005861062	0.09547456	-0.1415213	0	0
9.309289	-0.06427974	-0.09260575	0.003163402	-0.009376888	0.04773299	-0.1061048	0	0
9.325853	-0.06430595	-0.09281939	-0.001581931	-0.01289789	-0.1432185	-0.1062671	0	0
9.342423	-0.06420112	-0.09293593	0.006325989	-0.007033274	0.2386615	0.1769944	0	0
9.358988	-0.06420112	-0.09313018	0	-0.01172662	-0.1909187	-0.1416455	0	0
9.375623	-0.06420112	-0.09313018	0	0	0	0.3532188	0	0
9.392137	-0.06420112	-0.09313018	0	0	0	0	0	0
9.408686	-0.06420112	-0.09313018	0	0	0	0	0	0
9.425253	-0.06420112	-0.09313018	0	0	0	0	0	0
9.441819	-0.06420112	-0.09313018	0	0	0	0	0	0
9.458385	-0.06420112	-0.09313018	0	0	0	0	0	0
9.474953	-0.06420112	-0.09313018	0	0	0	0	0	0
9.508216	-0.06420112	-0.09313018	0	0	0	0	0	0
9.524653	-0.06420112	-0.09313018	0	0	0	0	0	0
9.541236	-0.0641487	-0.09320788	0.003161304	-0.004685793	0.095739	-0.1419076	0	0
9.557786	-0.06401767	-0.09330501	0.007917393	-0.005869054	0.1435473	-0.03571295	0	0
9.574352	-0.063808	-0.09349929	0.01265624	-0.01172707	0.143097	-0.176892	0	0
9.590919	-0.06378179	-0.09351871	0.001582199	-0.001172482	-0.3342345	0.3185565	0	0
9.607485	-0.06367695	-0.09359643	0.006328345	-0.004691278	0.1432472	-0.1062036	0	0
9.624054	-0.06359833	-0.09365471	0.004745327	-0.003517739	-0.04777421	0.03541646	0	0
9.657186	-0.06286442	-0.09423766	0.0221512	-0.01759471	0.3502135	-0.2832347	0	0
9.673752	-0.062812	-0.09427652	0.003164398	-0.002345864	-0.3820445	0.3068309	0	0
9.690319	-0.06278579	-0.09429596	0.001582108	-0.001173314	-0.04775498	0.03538864	0	0
9.706886	-0.062812	-0.09427652	-0.001582108	0.001173314	-0.09549621	0.07082137	0	0
9.723455	-0.062812	-0.09427652	0	0	0.04774536	-0.03540865	0	0
9.74002	-0.06283821	-0.09429596	-0.001582381	-0.001173517	-0.04775773	-0.03541782	0	0
9.756586	-0.06283821	-0.09429596	0	0	0.04776185	0.03542088	0	0
9.773152	-0.06286442	-0.09427652	-0.001582199	0.001173382	-0.0477536	0.03541477	0	0
9.789719	-0.06289063	-0.09429596	-0.001582199	-0.001173382	0	-0.07082953	0	0
9.806422	-0.06296927	-0.09431539	-0.004708018	-0.001163289	-0.09395342	0.0003033702	0	0
9.822854	-0.06310033	-0.09433482	-0.007975733	-0.00118253	-0.09861699	-0.0005807027	0	0
9.839446	-0.06323139	-0.09431539	-0.007898717	0.001171112	0.002332125	0.07127102	0	0
9.855989	-0.06336243	-0.09425709	-0.007921945	0.003524318	-0.0007010259	0.0710199	0	0
9.889118	-0.06456801	-0.09386844	-0.03638967	0.01173101	-0.5731126	0.1652172	0	0
9.905685	-0.06598302	-0.09386844	-0.08540998	0	-0.9863853	-0.236051	0	0
9.922255	-0.06941461	-0.09594835	-0.2071072	-0.1255288	-3.672619	-3.788249	0	0
9.939016	-0.07106434	-0.09573445	-0.09842212	0.0127611	3.26079	4.148998	0	0
9.955386	-0.07959464	-0.08940314	-0.5210994	0.3867672	-12.75753	11.2885	0	0
9.971952	-0.0890272	-0.08264168	-0.5693833	0.4081461	-1.465987	0.6491026	0	0
9.988519	-0.1050331	-0.07587768	-0.9661734	0.408299	-11.97584	0.004615271	0	0
10.00509	-0.1156137	-0.07462335	-0.6386458	0.07571182	9.885088	-10.03779	0	0
10.02165	-0.1390443	-0.07549167	-1.414357	-0.05241539	-23.41167	-3.866998	0	0
10.03822	-0.1558572	-0.07690088	-1.014769	-0.08505476	12.05958	-0.9850579	0	0
10.05478	-0.1757214	-0.08026271	-1.199211	-0.2029559	-5.566792	-3.558468	0	0
10.07135	-0.1873047	-0.08353191	-0.6991729	-0.197329	15.09248	0.1698331	0	0
10.08792	-0.2016177	-0.08653374	-0.8639812	-0.1812013	-4.974071	0.4867487	0	0
10.10448	-0.2053281	-0.08713451	-0.2239769	-0.03626464	19.31648	4.37445	0	0
10.12105	-0.2210138	-0.08651437	-0.9468457	0.03743398	-21.81748	2.224357	0	0
10.13762	-0.2355201	-0.08308675	-0.8755486	0.2068795	2.151749	5.113875	0	0
10.15418	-0.2458453	-0.08010805	-0.6233053	0.1798152	7.612938	-0.8168241	0	0
10.17075	-0.2530119	-0.07493205	-0.432596	0.312442	5.756114	4.003029	0	0
10.18732	-0.2611838	-0.06853337	-0.4932862	0.3862476	-1.83174	2.227587	0	0
10.20388	-0.2666773	-0.06426287	-0.3316087	0.2577828	4.879718	-3.877299	0	0
10.22045	-0.2739114	-0.05857884	-0.436624	0.3430687	-3.169367	2.573934	0	0
10.23723	-0.279804	-0.05394011	-0.3512303	0.2764929	2.560897	-1.996564	0	0
10.25358	-0.2850225	-0.04982513	-0.3190857	0.2516104	0.9702117	-0.7510182	0	0
10.27025	-0.2906599	-0.04537214	-0.3382883	0.267214	-0.5815625	0.4725616	0	0
10.28672	-0.2938693	-0.04283331	-0.1948795	0.1541583	4.328209	-3.412124	0	0
10.30328	-0.2944719	-0.04235632	-0.03637348	0.0287926	4.798085	-3.794904	0	0
10.32028	-0.2944719	-0.04239448	0	-0.002244571	1.083625	-0.9246479	0	0
10.33642	-0.2945201	-0.04243264	-0.002985422	-0.00236369	-0.09007946	-0.003594189	0	0
10.35298	-0.2963987	-0.04395929	-0.113459	-0.09220208	-3.378439	-2.747386	0	0
10.36955	-0.3024293	-0.04886899	-0.3639634	-0.2963158	-7.561979	-6.161584	0	0
10.38636	-0.3076248	-0.0530975	-0.3091501	-0.2516126	1.642356	1.339431	0	0
10.40268	-0.3135891	-0.05804175	-0.3653092	-0.3028282	-1.694982	-1.545777	0	0
10.41925	-0.3168716	-0.06095861	-0.1981427	-0.1760725	5.082101	3.853555	0	0
10.43582	-0.3189374	-0.06324429	-0.1246762	-0.1379479	2.21716	1.150568	0	0
10.45238	-0.3186764	-0.06341723	0.01575995	-0.01044126	4.238616	3.84838	0	0
10.46895	-0.3186764	-0.06341723	0	0	-0.4757046	0.3151631	0	0
10.48552	-0.3186526	-0.06343645	0.001431984	-0.001159889	0.04321986	-0.03500754	0	0
10.50209	-0.3186526	-0.06343645	0	0	-0.04321489	0.03500351	0	0
10.51865	-0.3185577	-0.06351332	0.005731056	-0.004641076	0.1729736	-0.140076	0	0
10.53521	-0.318534	-0.06353253	0.001433783	-0.001159889	-0.1297144	0.1050806	0	0
10.55178	-0.3182729	-0.06370549	0.01576082	-0.01044035	0.4324158	-0.2801011	0	0
10.56835	-0.3180829	-0.0638208	0.01146487	-0.006960685	-0.1296596	0.1050226	0	0
10.58497	-0.3180355	-0.0638208	0.002856395	0	-0.2593937	0.2097419	0	0
10.61805	-0.3179642	-0.06380158	0.002153246	0.0005811062	-0.01414792	0.01169233	0	0
10.63461	-0.317893	-0.0638208	0.004299551	-0.001160339	0.04323268	-0.03507766	0	0
10.65118	-0.3178455	-0.06385924	0.002867071	-0.002319828	-0.04323107	-0.03499243	0	0
10.66775	-0.3178217	-0.06387845	0.001433948	-0.001160023	-0.04325298	0.03500399	0	0
10.68431	-0.3178217	-0.06387845	0	0	-0.04328163	0.03501359	0	0
10.70105	-0.3178217	-0.06387845	0	0	0	0	0	0
10.71745	-0.3178217	-0.06387845	0	0	0	0	0	0
10.73401	-0.317798	-0.06385924	0.001431984	0.001159889	0.04344244	0.03518783	0	0
10.75059	-0.3177743	-0.06384002	0.001433123	0.001159805	3.436587E-05	-2.543278E-06	0	0
10.76715	-0.3177743	-0.06384002	0	0	-0.04325175	-0.03500298	0	0
10.78411	-0.3177505	-0.0638208	0.001400486	0.001132953	0.04177975	0.03379861	0	0
10.80028	-0.3177505	-0.0638208	0	0	-0.0422692	-0.03419456	0	0
10.81684	-0.3177505	-0.0638208	0	0	0	0	0	0
10.83364	-0.3177505	-0.0638208	0	0	0	0	0	0
10.84998	-0.3177505	-0.0638208	0	0	0	0	0	0
10.86655	-0.3177505	-0.0638208	0	0	0	0	0	0
10.88318	-0.3177268	-0.06384002	0.001428193	-0.001155367	0.04302369	-0.03480492	0	0
10.89969	-0.3177268	-0.06384002	0	0	-0.04309301	0.03486101	0	0
10.91625	-0.3177268	-0.06384002	0	0	0	0	0	0
10.93321	-0.3177268	-0.06384002	0	0	0	0	0	0
10.94973	-0.3177268	-0.06384002	0	0	0	0	0	0
10.96595	-0.3177268	-0.06384002	0	0	0	0	0	0
10.98275	-0.3177268	-0.06384002	0	0	0	0	0	0
10.99926	-0.3177268	-0.06384002	0	0	0	0	0	0
11.01577	-0.3177268	-0.06384002	0	0	0	0	0	0
11.03228	-0.3177268	-0.06384002	0	0	0	0	0	0
11.04881	-0.3177268	-0.06384002	0	0	0	0	0	0
11.06581	-0.3177268	-0.06384002	0	0	0	0	0	0
11.08191	-0.317703	-0.0638208	0.00147479	0.001193062	0.04455156	0.03604093	0	0
11.09848	-0.317703	-0.0638208	0	0	-0.04513936	-0.03651644	0	0
11.11505	-0.3176793	-0.06380158	0.001433783	0.001160339	0.04327416	0.03502112	0	0
11.13161	-0.3176793	-0.06380158	0	0	-0.04327291	-0.03502011	0	0
11.14836	-0.3176793	-0.06380158	0	0	0	0	0	0
11.16475	-0.3176793	-0.06380158	0	0	0	0	0	0
11.18131	-0.3176555	-0.0638208	0.00143182	-0.001160205	0.04345252	-0.03520964	0	0
11.21491	-0.317608	-0.0638208	0.001414043	0	-0.0003543683	0.02312859	0	0
11.23101	-0.3175843	-0.06384002	0.001475227	-0.001193416	0.001231153	-0.02401434	0	0
11.24758	-0.3174893	-0.06380158	0.005735133	0.002320228	0.1304033	0.1075589	0	0
11.26415	-0.3174655	-0.06378236	0.001433536	0.001159689	-0.1298187	-0.03502414	0	0
11.28071	-0.3172992	-0.06368627	0.01003764	0.005801464	0.2596798	0.1400931	0	0
11.29747	-0.3168479	-0.06351332	0.02693714	0.01032107	0.5071669	0.1356369	0	0
11.31384	-0.3152788	-0.06301372	0.09581004	0.03050706	2.078648	0.6092318	0	0
11.34701	-0.3042748	-0.0588858	0.3318253	0.124477	4.76427	1.896902	0	0
11.36355	-0.2990444	-0.05466802	0.3162189	0.2549968	-0.3139972	2.626013	0	0
11.38011	-0.290684	-0.04806606	0.5047175	0.3985634	5.69398	4.33672	0	0
11.39668	-0.283689	-0.04262343	0.4222204	0.3285183	-2.489982	-2.11415	0	0
11.41324	-0.2756666	-0.03675269	0.4842905	0.3543994	1.873386	0.7811394	0	0
11.42981	-0.260889	-0.03146353	0.8919777	0.3192543	12.30474	-1.060742	0	0
11.44638	-0.2464642	-0.03000016	0.8707337	0.0883343	-0.6411633	-6.96938	0	0
11.46309	-0.2250934	-0.02880337	1.278971	0.07162365	12.26838	-0.5021891	0	0
11.4796	-0.2148177	-0.0281197	0.6223943	0.04140936	-19.76491	-0.9095392	0	0
11.49608	-0.1992168	-0.02665792	0.946633	0.08869816	9.828259	1.433409	0	0
11.51264	-0.17952	-0.02422946	1.188966	0.1465905	7.333045	1.751833	0	0
11.52921	-0.1658314	-0.02100707	0.8262945	0.1945149	-10.94608	1.446444	0	0
11.54578	-0.1524654	-0.01727701	0.8068179	0.2251601	-0.5878386	0.9249274	0	0
11.56234	-0.1385023	-0.01394826	0.8427688	0.2009121	1.084998	-0.7318053	0	0
11.57891	-0.1118211	-0.01028306	1.610574	0.2212445	23.17239	0.6136311	0	0
11.59548	-0.1000334	-0.009622257	0.7115451	0.03988857	-27.13429	-5.473647	0	0
11.61204	-0.08236586	-0.009037086	1.066477	0.03532305	10.71247	-0.1377956	0	0
11.62861	-0.0544199	-0.009244715	1.686919	-0.01253324	18.72607	-1.444389	0	0
11.74478	-0.007789316	-0.02878438	0.4013899	-0.1681949	-9.684633	-1.172689	0	0
11.76114	-0.006105187	-0.03000016	0.1029401	-0.07431268	-2.251889	0.7083679	0	0
11.77771	-0.005736779	-0.03030417	0.02223717	-0.01835063	-2.450926	1.699553	0	0
11.79428	-0.005736779	-0.03030417	0	0	-0.6711386	0.553839	0	0
11.81084	-0.005842039	-0.03038019	-0.006353868	-0.004588286	-0.1917712	-0.1384827	0	0
11.82741	-0.005947298	-0.0304562	-0.006353475	-0.004588022	1.187571E-05	7.968669E-06	0	0
11.84398	-0.006184132	-0.03062723	-0.01429612	-0.01032409	-0.2397164	-0.17312	0	0
11.86054	-0.006657796	-0.03093131	-0.02858716	-0.01835234	-0.4312921	-0.2422859	0	0
11.87711	-0.007236716	-0.03127344	-0.03494767	-0.02065309	-0.1919606	-0.06943679	0	0
11.89367	-0.007657745	-0.03150154	-0.02541629	-0.01377015	0.2876908	0.2077514	0	0
11.91024	-0.007710373	-0.03146353	-0.003176667	0.002294686	0.6712318	0.4848656	0	0
11.92681	-0.007763002	-0.03146353	-0.003176484	0	5.522939E-06	-0.06925176	0	0
11.94342	-0.007763002	-0.03146353	0	0	0.09573147	0	0	0
11.95994	-0.007841945	-0.03155857	-0.00477874	-0.005753612	-0.144231	-0.1736543	0	0
11.97651	-0.0081314	-0.03176769	-0.01747054	-0.01262151	-0.3835801	-0.2075662	0	0
11.99308	-0.00939446	-0.03268036	-0.07624727	-0.05509544	-1.773936	-1.281903	0	0
12.00964	-0.009473401	-0.03273741	-0.004765148	-0.003443688	2.157521	1.558988	0	0
12.02621	-0.009473401	-0.03273741	0	0	0.1438207	0.1039367	0	0
12.04278	-0.009473401	-0.03273741	0	0	0	0	0	0
12.05934	-0.009473401	-0.03273741	0	0	0	0	0	0
12.07591	-0.009473401	-0.03273741	0	0	0	0	0	0
12.09253	-0.009473401	-0.03273741	0	0	0	0	0	0
12.10904	-0.009473401	-0.03273741	0	0	0	0	0	0
12.12561	-0.009473401	-0.03273741	0	0	0	0	0	0
12.14217	-0.009473401	-0.03273741	0	0	0	0	0	0
12.15874	-0.009473401	-0.03273741	0	0	0	0	0	0
12.17531	-0.009473401	-0.03273741	0	0	0	0	0	0
12.20861	-0.009447088	-0.03275643	0.000790211	-0.0005711088	0.01584617	-0.0114525	0	0
12.22501	-0.009447088	-0.03275643	0	0	-0.01589969	0.01149117	0	0
12.24158	-0.009447088	-0.03275643	0	0	0	0	0	0
12.25814	-0.009473401	-0.03277545	-0.001588383	-0.001147971	-0.04793886	-0.03464684	0	0
12.27471	-0.009473401	-0.03277545	0	0	0.04794025	0.03464783	0	0
12.29128	-0.009473401	-0.03277545	0	0	0	0	0	0
12.30784	-0.009499714	-0.03279446	-0.001588509	-0.001148103	-0.04794269	-0.03465082	0	0
12.32441	-0.009499714	-0.03279446	0	0	0.04794683	0.03465382	0	0
12.34098	-0.009526027	-0.03281348	-0.001588108	-0.001147773	-0.04792783	-0.03463886	0	0
12.35754	-0.009526027	-0.03281348	0	0	0.04793059	0.03464085	0	0
12.37411	-0.009552341	-0.0328325	-0.0015882	-0.001147839	-0.04793473	-0.03464384	0	0
12.39074	-0.009578655	-0.03285152	-0.00158228	-0.00114356	0.0001783206	0.0001288802	0	0
12.40725	-0.009578655	-0.03285152	0	0	0.04774643	0.03450776	0	0
12.42381	-0.009631281	-0.03285152	-0.003178173	0	-0.09611109	0	0	0
12.44038	-0.009631281	-0.03285152	0	0	0.0959423	0	0	0
12.49008	-0.009657594	-0.0328325	-0.0005294406	0.0003826423	-0.007989389	0.005774167	0	0
12.50664	-0.009683908	-0.03285152	-0.001588474	-0.001148037	-0.01598154	-0.023099	0	0
12.52333	-0.009683908	-0.03285152	0	0	0.04776702	0.03452263	0	0
12.53984	-0.009710222	-0.0328325	-0.00159352	0.001151684	-0.04799445	0.034687	0	0
12.57291	-0.0098681	-0.03271839	-0.00477496	0.003451065	-0.064172	0.04638023	0	0
12.58947	-0.00994704	-0.03266134	-0.004764818	0.00344349	0.0002043497	-0.0001526289	0	0
12.60604	-0.009973354	-0.03264233	-0.001588383	0.001147971	0.09586775	-0.0692809	0	0
12.62261	-0.009973354	-0.03264233	0	0	0.04794025	-0.03464783	0	0
12.63917	-0.009973354	-0.03264233	0	0	0	0	0	0
12.65574	-0.009999666	-0.03266134	-0.001588327	-0.001147971	-0.04793855	-0.03464783	0	0
12.67231	-0.009999666	-0.03266134	0	0	0.04793855	0.03464783	0	0
12.68887	-0.01002598	-0.03264233	-0.0015882	0.001147839	-0.04793197	0.03464185	0	0
12.70544	-0.01005229	-0.03262331	-0.001588235	0.001147905	-1.064536E-06	1.992053E-06	0	0
12.72201	-0.01013123	-0.0326043	-0.004765366	0.001147812	-0.09589153	-2.796844E-06	0	0
12.73857	-0.01023648	-0.03252823	-0.006353419	0.00459166	-0.04793166	0.1039445	0	0
12.75514	-0.01042068	-0.03239512	-0.0111184	0.008034898	-0.1438156	0.1039231	0	0
12.77171	-0.01044699	-0.03237611	-0.001588235	0.00114768	0.2876292	-0.2078626	0	0
12.78827	-0.01049961	-0.03233808	-0.003176709	0.002295717	-0.04794163	0.03464883	0	0
12.80484	-0.01052593	-0.03231906	-0.001588327	0.001147746	0.04794025	-0.03464783	0	0
12.82154	-0.01055224	-0.03230005	-0.001575448	0.00113844	0.0003871159	-0.0002797357	0	0
12.83797	-0.01057855	-0.03228103	-0.001601381	0.001157139	-0.0007826863	0.0005643455	0	0
12.87111	-0.01065749	-0.03222399	-0.002382353	0.00172152	-0.01575611	0.0113864	0	0
12.88767	-0.01071012	-0.03218596	-0.003176653	0.002295492	-0.01598166	0.01154857	0	0
12.90424	-0.01076274	-0.03218596	-0.003176161	0	1.485432E-05	-0.06927611	0	0
12.92081	-0.01078906	-0.03216695	-0.001588509	0.001147878	0.0479168	0.03464403	0	0
12.95424	-0.01092062	-0.03214794	-0.003934688	0.0005686518	-0.0469225	-0.01158427	0	0
12.97081	-0.01094693	-0.03216695	-0.001588144	-0.001147614	0.04692623	-0.03432192	0	0
12.98738	-0.01105218	-0.03216695	-0.006353306	0	-0.1438129	0.03463506	0	0
13.00418	-0.01110481	-0.03216695	-0.003132773	0	0.09652633	0	0	0
13.02051	-0.01115743	-0.03212892	-0.003221533	0.002327923	-0.002678857	0.07025889	0	0
13.0372	-0.01123637	-0.03207188	-0.004731477	0.003419029	-0.04572947	0.03304472	0	0
13.0537	-0.01131531	-0.03201484	-0.004781439	0.003454947	-0.001505191	0.00108211	0	0
13.07022	-0.01147318	-0.03190077	-0.00956122	0.006908472	-0.1447499	0.1045858	0	0
13.08678	-0.01155212	-0.03184373	-0.004765472	0.00344341	0.1449905	-0.1047597	0	0
13.10335	-0.01270984	-0.03100733	-0.06988842	0.05049092	-1.965697	1.420101	0	0
13.12025	-0.0171299	-0.0278159	-0.2614231	0.1887563	-5.722063	4.130653	0	0
13.20275	-0.03051684	-0.01831795	-0.1622819	0.115138	0.9974013	-0.7406307	0	0
13.21932	-0.03054313	-0.01829903	-0.001586029	0.001141851	1.622065	-1.150678	0	0
13.23588	-0.03054313	-0.01833688	0	-0.002286841	0.04787059	-0.1034871	0	0
13.25244	-0.03054313	-0.01833688	0	0	0	0.06904481	0	0
13.26901	-0.03054313	-0.01833688	0	0	0	0	0	0
13.28558	-0.03054313	-0.01833688	0	0	0	0	0	0
13.30238	-0.03051684	-0.01835581	0.001564517	-0.001126475	0.04688258	-0.03375612	0	0
13.31889	-0.03051684	-0.01835581	0	0	-0.04695908	0.0338112	0	0
13.33528	-0.03051684	-0.01835581	0	0	0	0	0	0
13.35192	-0.03051684	-0.01835581	0	0	0	0	0	0
13.36843	-0.03051684	-0.01835581	0	0	0	0	0	0
13.40195	-0.03051684	-0.01835581	0	0	0	0	0	0
13.41896	-0.03051684	-0.01835581	0	0	0	0	0	0
13.43498	-0.03049055	-0.01837474	0.001641853	-0.001182041	0.04971148	-0.03578945	0	0
13.45148	-0.03049055	-0.01837474	0	0	-0.05048408	0.03634568	0	0
13.468	-0.03049055	-0.01837474	0	0	0	0	0	0
13.48451	-0.03049055	-0.01837474	0	0	0	0	0	0
13.50102	-0.03051684	-0.01839367	-0.001592718	-0.00114678	-0.04823074	-0.03472682	0	0
13.51751	-0.03051684	-0.01839367	0	0	0.04826838	0.03475392	0	0
13.53407	-0.03051684	-0.01839367	0	0	0	0	0	0
13.55064	-0.03051684	-0.01839367	0	0	0	0	0	0
13.56721	-0.03051684	-0.01839367	0	0	0	0	0	0
13.58377	-0.03051684	-0.01839367	0	0	0	0	0	0
13.60059	-0.03054313	-0.01837474	-0.001563807	0.001125963	-0.04684926	0.03373213	0	0
13.6171	-0.03054313	-0.01837474	0	0	0.04692299	-0.03378522	0	0
13.63361	-0.03054313	-0.01837474	0	0	0	0	0	0
13.65012	-0.03054313	-0.01837474	0	0	0	0	0	0
13.66663	-0.03054313	-0.01837474	0	0	0	0	0	0
13.68318	-0.03056942	-0.01835581	-0.001589412	0.001144287	-0.04808759	0.03462034	0	0
13.69974	-0.03059571	-0.01837474	-0.001586942	-0.001142508	7.461278E-05	-0.0690693	0	0
13.71631	-0.03059571	-0.01837474	0	0	0.04789401	0.03448097	0	0
13.73318	-0.03059571	-0.01837474	0	0	0	0	0	0
13.74969	-0.03059571	-0.01837474	0	0	0	0	0	0
13.76621	-0.03059571	-0.01837474	0	0	0	0	0	0
13.78272	-0.03059571	-0.01837474	0	0	0	0	0	0
13.81571	-0.03059571	-0.01837474	0	0	0	0	0	0
13.83228	-0.030622	-0.01839367	-0.001586942	-0.001142621	-0.0320215	-0.02305594	0	0
13.84884	-0.030622	-0.01839367	0	0	0.04789677	0.03448635	0	0
13.93168	-0.03064829	-0.0184126	-0.0003173958	-0.0002285294	-0.00319313	-0.002299099	0	0
13.94834	-0.03064829	-0.0184126	0	0	0.003190008	0.002296851	0	0
13.96481	-0.03064829	-0.0184126	0	0	0	0	0	0
13.98137	-0.03064829	-0.0184126	0	0	0	0	0	0
13.99794	-0.03064829	-0.0184126	0	0	0	0	0	0
14.01451	-0.03064829	-0.0184126	0	0	0	0	0	0
14.03139	-0.03064829	-0.0184126	0	0	0	0	0	0
14.0479	-0.03064829	-0.0184126	0	0	0	0	0	0
14.06421	-0.030622	-0.01843153	0.001612656	-0.001161135	0.04914533	-0.03538534	0	0
14.08092	-0.030622	-0.01843153	0	0	-0.04883733	0.03516357	0	0
14.09744	-0.03064829	-0.01845046	-0.001592258	-0.001146449	-0.04791654	-0.03450059	0	0
14.11391	-0.03064829	-0.01845046	0	0	0.04827677	0.03475996	0	0
14.13048	-0.03064829	-0.01845046	0	0	0	0	0	0
14.14747	-0.03064829	-0.01845046	0	0	0	0	0	0
14.16398	-0.03064829	-0.01845046	0	0	0	0	0	0
14.21352	-0.03064829	-0.01845046	0	0	0	0	0	0
14.22987	-0.03064829	-0.01845046	0	0	0	0	0	0
14.24654	-0.03064829	-0.01845046	0	0	0	0	0	0
14.26301	-0.03064829	-0.01845046	0	0	0	0	0	0
14.27957	-0.03064829	-0.01845046	0	0	0	0	0	0
14.29614	-0.03064829	-0.01845046	0	0	0	0	0	0
14.31271	-0.03064829	-0.01845046	0	0	0	0	0	0
14.32928	-0.03064829	-0.01845046	0	0	0	0	0	0
14.34584	-0.03064829	-0.01845046	0	0	0	0	0	0
14.37914	-0.030622	-0.01846939	0.0007896528	-0.0005685612	0.0158368	-0.01140272	0	0
14.39565	-0.03059571	-0.01852619	0.00159235	-0.003439657	0.01611659	-0.057646	0	0
14.41216	-0.03056942	-0.01858298	0.001592258	-0.003439458	-2.784981E-06	6.01415E-06	0	0
14.42867	-0.03056942	-0.01869657	0	-0.00687795	-0.04821125	-0.1041125	0	0
14.44524	-0.03075346	-0.01913202	-0.01110796	-0.02628281	-0.3357606	-0.5865515	0	0
14.46181	-0.03254114	-0.02060924	-0.1079233	-0.08918042	-2.92206	-1.898363	0	0
14.47837	-0.04168636	-0.02751213	-0.5520385	-0.4166829	-13.40497	-9.885183	0	0
14.49522	-0.04919711	-0.03416403	-0.4458302	-0.3948503	3.178659	0.6534172	0	0
14.51151	-0.06032147	-0.04262343	-0.6830267	-0.5194002	-7.158813	-3.75903	0	0
14.52807	-0.06896938	-0.04904107	-0.5220194	-0.387392	4.900821	4.018131	0	0
14.54464	-0.07760698	-0.05554941	-0.5213061	-0.3927987	0.02152828	-0.1631692	0	0
14.56127	-0.0890011	-0.06414754	-0.6854226	-0.5172278	-4.944365	-3.748695	0	0
14.57778	-0.1006326	-0.07281038	-0.7044715	-0.5246722	-0.5748978	-0.2246719	0	0
14.59434	-0.106022	-0.07684295	-0.3253802	-0.2434623	11.46178	8.502347	0	0
14.62747	-0.1195068	-0.08688256	-0.4069939	-0.3030136	-1.64226	-1.198312	0	0
14.64404	-0.1317585	-0.09606502	-0.7395184	-0.5542544	-6.690664	-5.05517	0	0
14.66084	-0.1341112	-0.09783527	-0.1400802	-0.1054024	17.96748	13.45383	0	0
14.67717	-0.146135	-0.1069584	-0.7359245	-0.5583876	-17.98313	-13.67151	0	0
14.69374	-0.1508711	-0.110515	-0.2858713	-0.2146756	13.67711	10.44541	0	0
14.71037	-0.1531081	-0.1122169	-0.1345063	-0.1023304	4.559411	3.384059	0	0
14.72688	-0.1536735	-0.1126865	-0.03424738	-0.02844848	3.025212	2.229311	0	0
14.74344	-0.1536735	-0.1126865	0	0	1.035645	0.8602852	0	0
14.76001	-0.1536735	-0.1126474	0	0.002362818	0	0.07132847	0	0
14.77657	-0.1536735	-0.1126474	0	0	0	-0.07131615	0	0
14.79314	-0.1536735	-0.1126474	0	0	0	0	0	0
14.80971	-0.1536735	-0.1126474	0	0	0	0	0	0
14.82627	-0.1536478	-0.112667	0.001550717	-0.001181477	0.04680342	-0.0356591	0	0
14.84284	-0.1536478	-0.112667	0	0	-0.04680072	0.03565704	0	0
14.85948	-0.1536478	-0.112667	0	0	0	0	0	0
14.87599	-0.1536478	-0.112667	0	0	0	0	0	0
14.89254	-0.1535707	-0.1127257	0.004657703	-0.00354684	0.1408779	-0.1072785	0	0
14.90911	-0.153545	-0.1127452	0.001551616	-0.001181477	-0.09378507	0.07141968	0	0
14.92602	-0.1535193	-0.112804	0.001519685	-0.003471488	-0.0009537354	-0.06839806	0	0
14.94253	-0.1533651	-0.1129214	0.009337462	-0.007111829	0.2338678	-0.1089003	0	0
14.95905	-0.1531338	-0.1130976	0.014008	-0.01066797	0.1414129	-0.1076716	0	0
14.97556	-0.1519512	-0.1139982	0.07164083	-0.05455841	1.74534	-1.329169	0	0
14.99194	-0.1454395	-0.1189965	0.3974879	-0.3051068	9.907368	-7.617916	0	0
15.0085	-0.1391476	-0.1237885	0.3797796	-0.2892469	-0.5374376	0.4813414	0	0
15.02509	-0.1308274	-0.1301266	0.5016577	-0.3821485	3.676277	-2.802245	0	0
15.0582	-0.1248214	-0.1347033	0.181372	-0.1382086	-6.444407	4.90827	0	0
15.14117	-0.09823541	-0.1549885	0.3204298	-0.244489	1.197905	-0.9155474	0	0
15.15769	-0.09599353	-0.1567017	0.1357499	-0.1037402	-1.856369	1.414783	0	0
15.1742	-0.09607175	-0.1566021	-0.004738596	0.006036768	-4.254523	3.324461	0	0
15.19074	-0.0961239	-0.1565622	-0.003152475	0.002409736	0.04799493	-0.1097515	0	0
15.22387	-0.09614997	-0.1565024	-0.000787029	0.00180432	0.04761846	-0.01218754	0	0
15.24044	-0.09614997	-0.1565024	0	0	0.01583566	-0.03630439	0	0
15.25701	-0.09614997	-0.1565024	0	0	0	0	0	0
15.27357	-0.09614997	-0.1565024	0	0	0	0	0	0
15.29028	-0.0961239	-0.1565224	0.001560984	-0.001193483	0.04691613	-0.03587073	0	0
15.30679	-0.0961239	-0.1565224	0	0	-0.04699291	0.03592943	0	0
15.32331	-0.0961239	-0.1565224	0	0	0	0	0	0
15.33984	-0.09609783	-0.1565024	0.00157674	0.001205875	0.04770831	0.03648683	0	0
15.35641	-0.09609783	-0.1565024	0	0	-0.04763546	-0.03643112	0	0
15.37297	-0.09607175	-0.1564825	0.001574194	0.001202684	0.04751337	0.03630022	0	0
15.38985	-0.09607175	-0.1564825	0	0	-0.04707301	-0.03596378	0	0
15.42267	-0.09604568	-0.1564227	0.0007942569	0.001821411	0.0159814	0.03664897	0	0
15.43924	-0.09594138	-0.156343	0.006295964	0.00481136	0.1113956	0.0605389	0	0
15.4559	-0.09583709	-0.1562633	0.006260197	0.004783473	-0.001076475	-0.000839286	0	0
15.47237	-0.09568063	-0.1561438	0.009496653	0.007256693	0.09767646	0.07464192	0	0
15.48894	-0.09562848	-0.1561039	0.003148388	0.002405368	-0.1921385	-0.1468316	0	0
15.5055	-0.09557633	-0.1561039	0.003147576	0	-2.451807E-05	-0.07259835	0	0
15.52207	-0.09555025	-0.1561238	0.001574013	-0.001202546	-0.04749022	-0.0362929	0	0
15.53864	-0.09555025	-0.1561238	0	0	-0.04750517	0.03629395	0	0
15.57177	-0.09552418	-0.1561438	0.0007870064	-0.0006012729	0.0158349	-0.01209787	0	0
15.58849	-0.09552418	-0.1561438	0	0	-0.01578674	0.01206107	0	0
15.605	-0.09555025	-0.1561238	-0.001579286	0.001206574	-0.04752614	0.03630997	0	0
15.62151	-0.09555025	-0.1561238	0	0	0.04782398	-0.03653752	0	0
15.63804	-0.09555025	-0.1561238	0	0	0	0	0	0
15.6546	-0.09555025	-0.1561238	0	0	0	0	0	0
15.67117	-0.09555025	-0.1561238	0	0	0	0	0	0
15.68774	-0.09555025	-0.1561238	0	0	0	0	0	0
15.7043	-0.09555025	-0.1561238	0	0	0	0	0	0
15.72087	-0.09555025	-0.1561238	0	0	0	0	0	0
15.73759	-0.09555025	-0.1561238	0	0	0	0	0	0
15.754	-0.09555025	-0.1561238	0	0	0	0	0	0
15.77062	-0.09555025	-0.1561238	0	0	0	0	0	0
15.78714	-0.09555025	-0.1561238	0	0	0	0	0	0
15.8037	-0.09555025	-0.1561238	0	0	0	0	0	0
15.82027	-0.09555025	-0.1561238	0	0	0	0	0	0
15.83684	-0.09557633	-0.1561039	-0.001574013	0.001202546	-0.0475038	0.0362929	0	0
15.8534	-0.09557633	-0.1561039	0	0	0.0475038	-0.0362929	0	0
15.9031	-0.09557633	-0.1561039	0	0	0	0	0	0
15.91972	-0.09557633	-0.1561039	0	0	0	0	0	0
15.93624	-0.09560241	-0.156084	-0.001579012	0.001206365	-0.04765604	0.03640922	0	0
15.96937	-0.0954981	-0.1559645	0.003148026	0.003607637	0.09520866	0.04836473	0	0
15.98594	-0.09523733	-0.1556457	0.01574013	0.01923893	0.2533536	0.3145023	0	0
16.00278	-0.09510694	-0.1554665	0.007742161	0.01064464	-0.2393947	-0.2572439	0	0
16.01907	-0.09463751	-0.1549885	0.02881597	0.02934101	0.6360454	0.56429	0	0
16.03581	-0.09166346	-0.1526398	0.177632	0.1402823	4.505022	3.358462	0	0
16.05232	-0.08247042	-0.145568	0.5569453	0.42843	11.4083	8.666381	0	0
16.06883	-0.0751477	-0.1400207	0.443481	0.3359592	-3.436428	-2.800608	0	0
16.08534	-0.068236	-0.1348415	0.418685	0.3137348	-0.7509369	-0.6730564	0	0
16.1019	-0.0597446	-0.1284125	0.5126598	0.3881438	2.841562	2.249941	0	0
16.11847	-0.05623014	-0.1257748	0.2121338	0.1592127	-9.070938	-6.909948	0	0
16.13504	-0.04707047	-0.1189573	0.5528785	0.4115081	10.2837	7.614289	0	0
16.1516	-0.04347259	-0.1162707	0.2171683	0.1621611	-10.13175	-7.525308	0	0
16.1684	-0.03590561	-0.1106323	0.4504173	0.33562	6.990375	5.198491	0	0
16.18491	-0.03030651	-0.1064702	0.3392125	0.2521522	-3.338869	-2.506079	0	0
16.20142	-0.02386389	-0.1016912	0.3901348	0.2893986	1.542165	1.127996	0	0
16.23444	-0.01791913	-0.09725154	0.1800765	0.1344835	-4.241356	-3.127941	0	0
16.251	-0.0167879	-0.0962984	0.06828169	0.05753197	-2.254854	-1.55208	0	0
16.26757	-0.01697205	-0.09604558	-0.01111579	0.01526028	-2.396221	-1.275762	0	0
16.28448	-0.01741929	-0.09567612	-0.02645014	0.02185033	-0.4580716	0.1968596	0	0
16.30099	-0.01923447	-0.09425709	-0.1099188	0.08592983	-2.497381	1.917258	0	0
16.3175	-0.02147038	-0.09248923	-0.1354122	0.1070656	-0.7719269	0.6399795	0	0
16.33384	-0.02383759	-0.09066431	-0.1449033	0.1117083	-0.2889355	0.1413352	0	0
16.35053	-0.02725641	-0.08814255	-0.2048041	0.1510659	-1.813551	1.191589	0	0
16.36697	-0.02904446	-0.08682442	-0.1087915	0.08019939	2.898167	-2.139125	0	0
16.38354	-0.03393434	-0.08318352	-0.2951874	0.2197908	-5.648198	4.22992	0	0
16.4001	-0.03603702	-0.08163568	-0.1269185	0.09342755	5.078657	-3.813869	0	0
16.41667	-0.03947948	-0.07910299	-0.2078107	0.1528911	-2.441472	1.794717	0	0
16.43323	-0.04292099	-0.07653403	-0.2077543	0.155081	0.001703728	0.06609996	0	0
16.4498	-0.04581003	-0.07437254	-0.1743829	0.1304672	1.007209	-0.7428895	0	0
16.46637	-0.04754309	-0.0730996	-0.1046078	0.07683521	2.105816	-1.618617	0	0
16.48293	-0.04974839	-0.07148033	-0.133112	0.097739	-0.8602598	0.6308776	0	0
16.4995	-0.04969589	-0.07151888	0.003168938	-0.002326841	4.112967	-3.019993	0	0
16.51607	-0.04969589	-0.07148033	0	0.002327109	-0.09564423	0.1404646	0	0
16.5989	-0.04956464	-0.07157669	0.001584564	-0.001163294	0.01594166	-0.03511554	0	0
16.61571	-0.04953839	-0.07159597	0.001561392	-0.001146395	-0.0002325441	0.0001695942	0	0
16.63222	-0.04951213	-0.07161524	0.001590073	-0.001167453	0.0008606827	-0.0006319275	0	0
16.64873	-0.04948588	-0.07163451	0.001590073	-0.001167001	0	1.366874E-05	0	0
16.66517	-0.04945963	-0.07165378	0.001597455	-0.001172872	0.0002240795	-0.0001782183	0	0
16.68174	-0.04948588	-0.07167306	-0.001584399	-0.001163286	-0.09641147	0.0002904593	0	0
16.6983	-0.04948588	-0.07167306	0	0	0.04781725	0.03510805	0	0
16.71487	-0.04951213	-0.07165378	-0.001584581	0.00116342	-0.0478255	0.03511411	0	0
16.73143	-0.04951213	-0.07165378	0	0	0.0478255	-0.03511411	0	0
16.748	-0.04951213	-0.07161524	0	0.002326391	0	0.07021466	0	0
16.76457	-0.04951213	-0.07161524	0	0	0	-0.07021062	0	0
16.78114	-0.04953839	-0.07159597	-0.001584399	0.001163286	-0.0478145	0.03510603	0	0
16.79784	-0.04953839	-0.07159597	0	0	0.04761989	-0.03496315	0	0
16.83083	-0.04956464	-0.07157669	-0.00079568	0.0005841987	-0.01601096	0.01175545	0	0
16.8474	-0.04956464	-0.07157669	0	0	0.01605409	-0.01178712	0	0
16.86397	-0.04956464	-0.07157669	0	0	0	0	0	0
16.88054	-0.04951213	-0.07153815	0.003169162	0.002326391	0.0956455	0.07021062	0	0
16.8971	-0.04948588	-0.07151888	0.001584946	0.001163238	-0.04781724	-0.03510806	0	0
16.91367	-0.04922336	-0.07132617	0.01584376	0.01163107	0.4303567	0.3159378	0	0
16.93043	-0.0490396	-0.07119128	0.01096208	0.00804628	-0.1464527	-0.1075452	0	0
16.94695	-0.04890833	-0.07109494	0.007949673	0.005834783	-0.09052896	-0.06645998	0	0
16.96337	-0.04875081	-0.07097933	0.009590749	0.007039052	0.04982606	0.03656381	0	0
16.97993	-0.04840952	-0.07072885	0.02060305	0.01512036	0.3338123	0.244966	0	0
17.01307	-0.03995241	-0.06457044	0.2552506	0.1858719	4.721481	3.435792	0	0
17.02963	-0.03422347	-0.06038268	0.3458392	0.252803	1.822785	1.346758	0	0
17.0462	-0.02859746	-0.05627771	0.3395866	0.2477762	-0.1887134	-0.1517184	0	0
17.06277	-0.02186494	-0.05137474	0.4063763	0.2959439	2.015716	1.453704	0	0
17.07954	-0.01686682	-0.04774114	0.2980495	0.2166807	-3.24948	-2.377659	0	0
17.09605	-0.01202574	-0.04422653	0.2931535	0.2128279	-0.1471015	-0.1157575	0	0
17.11246	-0.006763055	-0.04037289	0.3206089	0.2347688	0.8337907	0.6663188	0	0
17.12907	-0.005763094	-0.0396485	0.06021911	0.0436236	-7.885817	-5.788765	0	0
17.1456	-0.005736779	-0.03966756	0.001592225	-0.001153167	-1.769465	-1.351443	0	0
17.16216	-0.005736779	-0.03966756	0	0	-0.04811161	0.03484476	0	0
17.17911	-0.005736779	-0.03966756	0	0	0	0	0	0
17.1953	-0.005736779	-0.03966756	0	0	0	0	0	0
17.21186	-0.005763094	-0.03968662	-0.001588559	-0.001150736	-0.04849553	-0.03512967	0	0
17.22843	-0.005763094	-0.03968662	0	0	0.04794279	0.03472928	0	0
17.245	-0.005763094	-0.03968662	0	0	0	0	0	0
17.26156	-0.005763094	-0.03968662	0	0	0	0	0	0
17.27818	-0.005789409	-0.03966756	-0.001584181	0.001147565	-0.04774746	0.03458777	0	0
17.2947	-0.005789409	-0.03966756	0	0	0.04781067	-0.03463357	0	0
17.31126	-0.005789409	-0.03966756	0	0	0	0	0	0
17.32783	-0.005789409	-0.03966756	0	0	0	0	0	0
17.373	-0.005789409	-0.03966756	0	0	0	0	0	0
17.38957	-0.005815724	-0.0396485	-0.001588376	0.001150378	-0.02572887	0.01863409	0	0
17.40614	-0.005815724	-0.0396485	0	0	0.04793451	-0.03471649	0	0
17.43927	-0.005868354	-0.03957226	-0.001588467	0.002301114	-0.03196002	0.04629851	0	0
17.45584	-0.005894668	-0.0395532	-0.001588347	0.001150603	2.405615E-06	-0.02314922	0	0
17.4724	-0.005920983	-0.03953414	-0.001588376	0.001150378	-8.50248E-07	-6.784417E-06	0	0
17.48897	-0.005920983	-0.03953414	0	0	0.04793727	-0.03471849	0	0
17.50554	-0.005920983	-0.03953414	0	0	0	0	0	0
17.52211	-0.005920983	-0.03953414	0	0	0	0	0	0
17.53867	-0.005920983	-0.03953414	0	0	0	0	0	0
17.55524	-0.005920983	-0.03953414	0	0	0	0	0	0
17.57181	-0.005894668	-0.0395532	0.001588376	-0.001150378	0.04794003	-0.03472049	0	0
17.58837	-0.005894668	-0.0395532	0	0	-0.04793727	0.03471849	0	0
17.60494	-0.005920983	-0.03957226	-0.001588376	-0.001150603	-0.04793727	-0.03472527	0	0
17.62151	-0.005894668	-0.03959132	0.001588559	-0.001150511	0.09588558	2.786304E-06	0	0
17.63844	-0.005894668	-0.03959132	0	0	-0.04742411	0.03434683	0	0
17.65495	-0.005894668	-0.03959132	0	0	0	0	0	0
17.67121	-0.005894668	-0.03959132	0	0	0	0	0	0
17.68797	-0.005920983	-0.03957226	-0.001569583	0.001136768	-0.04752878	0.03442264	0	0
17.77103	-0.005920983	-0.03957226	0	0	0.01572306	-0.0113874	0	0
17.78717	-0.005920983	-0.03957226	0	0	0	0	0	0
17.82031	-0.005947298	-0.03959132	-0.0007942335	-0.0005752224	-0.01611857	-0.01167385	0	0
17.83688	-0.005947298	-0.03959132	0	0	0.01598001	0.0115735	0	0
17.85359	-0.005947298	-0.03962944	0	-0.002280503	0	-0.06851415	0	0
17.91963	-0.006131502	-0.03983911	-0.002789197	-0.003174865	-0.03370307	-0.01080696	0	0
17.93615	-0.00639465	-0.04014412	-0.01592946	-0.01846302	-0.1591573	-0.1851729	0	0
17.95272	-0.006605167	-0.04052542	-0.0127083	-0.02301809	0.09736066	-0.1376784	0	0
17.96929	-0.007078829	-0.04125002	-0.02859031	-0.04373687	-0.4793476	-0.62533	0	0
17.98585	-0.009341833	-0.04350121	-0.1365952	-0.1358825	-3.259594	-2.780961	0	0
18.00242	-0.01015755	-0.0445129	-0.04923647	-0.0610654	2.636491	2.257984	0	0
18.01899	-0.009710222	-0.04502841	0.02699739	-0.03111308	2.30061	0.9039108	0	0
18.03556	-0.009341833	-0.04529576	0.02223597	-0.01613678	-0.143692	0.4519596	0	0
18.05223	-0.008920816	-0.04567771	0.02524698	-0.02290471	0.09057552	-0.2035885	0	0
18.06874	-0.008289284	-0.04701495	0.03825586	-0.08100493	0.392022	-1.750848	0	0
18.08526	-0.01426219	-0.0516618	-0.3616495	-0.281359	-12.1096	-6.066953	0	0
18.10182	-0.02336417	-0.05859803	-0.5494598	-0.4187196	-5.677274	-4.152246	0	0
18.11839	-0.03482801	-0.06739779	-0.6919591	-0.5311546	-4.300886	-3.39349	0	0
18.13495	-0.03769267	-0.06961164	-0.1729306	-0.1336437	15.66521	11.99759	0	0
18.15152	-0.0524256	-0.08240949	-0.8892817	-0.7724801	-21.62076	-19.28123	0	0
18.16809	-0.05678101	-0.09381016	-0.262923	-0.6882246	18.90463	2.542983	0	0
18.18465	-0.05748921	-0.1125104	-0.04274749	-1.128748	6.645292	-13.2958	0	0
18.20122	-0.05706954	-0.1281368	0.0253344	-0.9433213	2.054834	5.596522	0	0
18.21779	-0.05696462	-0.1386754	0.006332928	-0.6361107	-0.5734987	9.272169	0	0
18.23436	-0.05664985	-0.1490218	0.01899531	-0.6243652	0.3821074	0.3544413	0	0
18.25092	-0.05609897	-0.16867	0.03325485	-1.186103	0.4303289	-16.9523	0	0
18.26749	-0.055653	-0.1865093	0.02692519	-1.077035	-0.1910624	3.292259	0	0
18.28439	-0.05523324	-0.1990242	0.02482809	-0.7402309	-0.06265593	10.06281	0	0
18.30062	-0.05552182	-0.2145358	-0.01778567	-0.9559802	-1.28616	-6.511703	0	0
18.31719	-0.05549559	-0.2177912	0.001583457	-0.1964953	0.5906475	23.15994	0	0
18.33394	-0.05567923	-0.2391914	-0.01096348	-1.277603	-0.3765861	-32.44857	0	0
18.35033	-0.05683346	-0.2445408	-0.07042365	-0.3263794	-1.794202	28.70302	0	0
18.36695	-0.06108182	-0.2544898	-0.2554897	-0.5983239	-5.604986	-8.236221	0	0
18.38347	-0.06716199	-0.2603413	-0.3681445	-0.3542972	-3.398951	7.362621	0	0
18.40002	-0.07085487	-0.2651402	-0.2231082	-0.2899286	4.386043	1.946571	0	0
18.41659	-0.0766914	-0.2776234	-0.3523744	-0.7536616	-3.90351	-14.00355	0	0
18.43316	-0.08061439	-0.2875341	-0.2367377	-0.5980717	3.489923	4.695712	0	0
18.44972	-0.0847178	-0.3010243	-0.2476822	-0.8142719	-0.3302654	-6.524183	0	0
18.46653	-0.089967	-0.3141419	-0.3124188	-0.7807249	-1.940021	1.00533	0	0
18.48285	-0.0937246	-0.3232156	-0.2301206	-0.5556849	2.484052	6.792503	0	0
18.49942	-0.09724493	-0.3310526	-0.2124877	-0.4730403	0.5360194	2.512296	0	0
18.51599	-0.1012317	-0.3380512	-0.2406432	-0.4224398	-0.8497344	1.527125	0	0
18.53256	-0.1039659	-0.3482849	-0.1650348	-0.6177056	2.281866	-5.893132	0	0
18.54912	-0.1058659	-0.3575644	-0.1146962	-0.5601756	1.519308	1.736358	0	0
18.58225	-0.105996	-0.3618359	-0.003926938	-0.1289209	2.228853	8.677528	0	0
18.59882	-0.1060741	-0.3617694	-0.004712144	0.004013283	-0.01579898	2.674743	0	0
18.61539	-0.1061001	-0.3617916	-0.001570415	-0.001338361	0.09481758	-0.1615129	0	0
18.63196	-0.1061001	-0.3617916	0	0	0.04739522	0.0403918	0	0
18.64852	-0.1061001	-0.3617916	0	0	0	0	0	0
18.66516	-0.1061001	-0.3617916	0	0	0	0	0	0
18.68166	-0.1061781	-0.361858	-0.004733493	-0.00403185	-0.1428571	-0.1216815	0	0
18.69822	-0.1063082	-0.3619688	-0.007852974	-0.006688205	-0.09436341	-0.08035398	0	0
18.71479	-0.1088054	-0.3640535	-0.1507315	-0.1258275	-4.312083	-3.59563	0	0
18.73136	-0.1105735	-0.3655631	-0.1067181	-0.09112365	1.328328	1.047364	0	0
18.74792	-0.1177942	-0.3716605	-0.4358477	-0.3680366	-9.933153	-8.357248	0	0
18.76449	-0.1232148	-0.3761927	-0.3271447	-0.2735373	3.280474	2.851828	0	0
18.78125	-0.1252359	-0.3778929	-0.1206339	-0.1014736	6.197192	5.163469	0	0
18.79776	-0.1256762	-0.3782734	-0.02666917	-0.02304493	2.824643	2.357616	0	0
18.81419	-0.1256762	-0.3782734	0	0	0.8095371	0.6995242	0	0
18.83076	-0.1256762	-0.3782734	0	0	0	0	0	0
18.84733	-0.1256762	-0.3782734	0	0	0	0	0	0
18.8639	-0.1256762	-0.3782734	0	0	0	0	0	0
18.88046	-0.1256762	-0.3782734	0	0	0	0	0	0
18.89703	-0.1256762	-0.3782734	0	0	0	0	0	0
18.9136	-0.1256762	-0.3782734	0	0	0	0	0	0
18.93036	-0.1256762	-0.3782734	0	0	0	0	0	0
18.94673	-0.1256762	-0.3782734	0	0	0	0	0	0
18.96329	-0.1256762	-0.3782734	0	0	0	0	0	0
18.97989	-0.1256762	-0.3782734	0	0	0	0	0	0
18.99643	-0.1257021	-0.378251	-0.001567006	0.001353446	-0.04729504	0.04084943	0	0
19.01299	-0.1256762	-0.3782286	0.001564119	0.001350953	0.09458464	-7.53128E-05	0	0
19.02956	-0.1257021	-0.3782062	-0.001564119	0.001350953	-0.09441041	0	0	0
19.04644	-0.125728	-0.3781838	-0.001534251	0.001325918	0.0008929768	-0.0007484777	0	0
19.07926	-0.1257539	-0.3781614	-0.0007890589	0.000682822	0.0149933	-0.01293912	0	0
19.1124	-0.1257798	-0.3780943	-0.0007816548	0.002026546	0.0001122608	0.02037358	0	0
19.129	-0.1257798	-0.3780943	0	0	0.01571486	-0.04074291	0	0
19.14553	-0.1258057	-0.3780719	-0.001567008	0.001354227	-0.0472924	0.04087064	0	0
19.1621	-0.1257798	-0.3780495	0.0015634	0.001351108	0.09459569	-9.423687E-05	0	0
19.17866	-0.1257798	-0.3780495	0	0	-0.04718621	-0.04077888	0	0
19.19555	-0.1257798	-0.3780495	0	0	0	0	0	0
19.21206	-0.1257798	-0.3780495	0	0	0	0	0	0
19.22857	-0.1257798	-0.3780495	0	0	0	0	0	0
19.24493	-0.1257798	-0.3780495	0	0	0	0	0	0
19.26159	-0.1257798	-0.3780495	0	0	0	0	0	0
19.27811	-0.1257798	-0.3780495	0	0	0	0	0	0
19.3112	-0.1257798	-0.3780495	0	0	0	0	0	0
19.32776	-0.1257798	-0.3780495	0	0	0	0	0	0
19.34433	-0.1257798	-0.3780495	0	0	0	0	0	0
19.3609	-0.1257798	-0.3780495	0	0	0	0	0	0
19.37768	-0.1257798	-0.3780495	0	0	0	0	0	0
19.39403	-0.1257798	-0.3780495	0	0	0	0	0	0
19.4106	-0.1257798	-0.3780495	0	0	0	0	0	0
19.42721	-0.1258057	-0.3779824	-0.001558912	0.00404169	-0.04698316	0.1218102	0	0
19.44373	-0.1258057	-0.3777586	0	0.01354696	0.04704807	0.2868695	0	0
19.4603	-0.1257021	-0.3775348	0.006252878	0.01350773	0.1889733	-0.001185605	0	0
19.47687	-0.1247436	-0.3765281	0.05786198	0.06076749	1.557655	1.426384	0	0
19.49343	-0.1229296	-0.3748295	0.1094933	0.1025321	1.558326	1.260531	0	0
19.51	-0.1209592	-0.3723741	0.1189338	0.1482072	0.2849141	1.378479	0	0
19.52657	-0.1178981	-0.3688092	0.1847946	0.2152004	1.9878	2.021975	0	0
19.5433	-0.1124447	-0.3598426	0.3259359	0.5359204	4.23891	9.632217	0	0
19.55981	-0.1069327	-0.3533039	0.333863	0.3960421	0.2384722	-4.207969	0	0
19.57627	-0.09917358	-0.3468348	0.4714326	0.3930568	4.172757	-0.09054997	0	0
19.59283	-0.0965932	-0.344662	0.1557517	0.1311485	-9.558632	-7.930429	0	0
19.6094	-0.08267951	-0.3330119	0.8399287	0.7032833	20.64969	17.26805	0	0
19.62597	-0.0706454	-0.3230207	0.7263803	0.6030735	-3.427095	-3.024511	0	0
19.64253	-0.05906281	-0.3134741	0.6991268	0.5762344	-0.8225143	-0.8100067	0	0
19.69223	-0.03156846	-0.2910622	0.5532086	0.4509447	-2.201972	-1.89068	0	0
19.7088	-0.02302225	-0.2841611	0.5159096	0.4166001	-0.562876	-0.5182906	0	0
19.72536	-0.01444636	-0.2772644	0.5176414	0.4162859	0.05226743	-0.009483298	0	0
19.74193	-0.003526301	-0.2686054	0.6591363	0.5226586	4.270326	3.210334	0	0
19.7585	0.004657861	-0.2620793	0.4939401	0.3938716	-4.985343	-3.886576	0	0
19.77507	0.01555138	-0.2534676	0.6576097	0.51986	4.939557	3.802339	0	0
19.79164	0.02020778	-0.2497796	0.2810284	0.222583	-11.36525	-8.971841	0	0
19.8082	0.02696715	-0.2443954	0.4080434	0.325027	3.83332	3.091767	0	0
19.82477	0.03393434	-0.238736	0.4205405	0.3416058	0.3771849	0.5003769	0	0
19.84134	0.04155501	-0.2258183	0.4599848	0.7797102	1.190432	13.22202	0	0
19.8579	0.04134485	-0.2141267	-0.01268396	0.7056288	-14.26435	-2.235653	0	0
19.87447	0.04037279	-0.2052886	-0.05868033	0.5335295	-1.388173	-5.193967	0	0
19.89104	0.03813939	-0.1870142	-0.1348081	1.103044	-2.297674	17.18897	0	0
19.9076	0.03693057	-0.1732821	-0.07298151	0.8290597	1.866146	-8.269812	0	0
19.92417	0.03556395	-0.1599524	-0.08248951	0.8045868	-0.286985	-0.7386802	0	0
19.94073	0.03527484	-0.1557055	-0.01745063	0.2563428	1.962877	-16.54604	0	0
19.9573	0.03164732	-0.1295945	-0.2189823	1.576242	-6.082588	39.83693	0	0
19.97387	0.03059571	-0.1232578	-0.06347544	0.3824842	4.693477	-36.02976	0	0
19.99061	0.02899187	-0.1092833	-0.09577142	0.8344724	-0.9694489	13.56762	0	0
20.00712	0.02830823	-0.1049478	-0.04140812	0.2625996	1.634665	-17.1958	0	0
20.04265	0.02278553	-0.09116895	-0.1554622	0.3878697	-2.191898	2.407449	0	0
20.05919	0.01576185	-0.08599123	-0.4244876	0.3129246	-5.166549	-1.439298	0	0
20.07576	0.0137886	-0.08449987	-0.1190921	0.09000788	9.222162	-6.731516	0	0
20.09233	0.0102628	-0.08190649	-0.2128423	0.1565549	-2.829389	2.008394	0	0
20.1089	0.006210446	-0.07892907	-0.2446004	0.1797172	-0.9585156	0.6990782	0	0
20.12571	0.00228947	-0.07593559	-0.2331807	0.1780228	0.3420868	-0.05075581	0	0
20.14222	-0.0005	-0.07223202	-0.1689562	0.2243224	1.927204	1.389325	0	0
20.15873	-0.0003421053	-0.06768645	0.00956247	0.2752902	5.406066	1.543455	0	0
20.17525	0.002499995	-0.05459138	0.1721043	0.7929762	4.921671	15.67523	0	0
20.19173	0.004210501	-0.04680477	0.1037721	0.4723936	-2.070854	-9.715467	0	0
20.2083	0.005157849	-0.0376859	0.057182	0.5504163	-1.409661	2.360708	0	0
20.22486	0.005157849	-0.03125443	0	0.3882491	-1.725856	-4.894497	0	0
20.24143	0.00673674	-0.02468465	0.09530206	0.3965526	2.876387	0.2506152	0	0
20.258	0.007184087	-0.02314864	0.02700191	0.09271362	-2.061303	-9.169879	0	0
20.27456	0.008236656	-0.01905629	0.0635332	0.247015	1.102517	4.656825	0	0
20.29113	0.008289284	-0.01901842	0.003177005	0.002285955	-1.821658	-7.386363	0	0
20.30784	0.00826297	-0.01899949	-0.001574571	0.001132933	-0.1427864	-0.03464868	0	0
20.32426	0.00826297	-0.01899949	0	0	0.04752337	-0.03419395	0	0
20.34086	0.00826297	-0.01899949	0	0	0	0	0	0
20.3574	0.00826297	-0.01899949	0	0	0	0	0	0
20.37396	0.008236656	-0.01901842	-0.001588291	-0.001142846	-0.04798445	-0.03452693	0	0
20.39053	0.008184028	-0.01905629	-0.003177005	-0.002285955	-0.04795022	-0.03450108	0	0
20.4071	0.0081314	-0.01909416	-0.003176273	-0.002285428	2.207834E-05	1.588067E-05	0	0
20.42366	0.008052457	-0.01915096	-0.004766084	-0.003429327	-0.04798334	-0.03452491	0	0
20.44023	0.007894573	-0.01907522	-0.009529917	0.004571383	-0.1437893	0.2414897	0	0
20.4568	0.007736688	-0.01896162	-0.009529972	0.006857074	-1.686442E-06	0.0689823	0	0
20.47336	0.007552488	-0.01879122	-0.01111832	0.01028505	-0.04793645	0.1034565	0	0
20.48997	0.007473545	-0.01873443	-0.004754586	0.003420717	0.1918481	-0.2069396	0	0
20.5065	0.007420917	-0.01873443	-0.003183998	0	0.04740316	-0.1032434	0	0
20.58954	0.007394602	-0.01875336	-0.0003168669	-0.0002279693	0.02879368	-0.002289422	0	0
20.60605	0.007289344	-0.0187155	-0.006374645	0.002293123	-0.0608468	0.02532288	0	0
20.62247	0.007105144	-0.0186587	-0.01122173	0.003459954	-0.147209	0.0354374	0	0
20.63907	0.006552538	-0.0184126	-0.03327873	0.01482051	-0.6679887	0.3440505	0	0
20.6556	0.00155263	-0.01515831	-0.3025264	0.1969054	-8.12638	5.49565	0	0
20.67217	-0.002368417	-0.01237965	-0.2366476	0.1677011	1.990519	-0.8824033	0	0
20.68874	-0.01094693	-0.006263668	-0.5178002	0.3691614	-8.484713	6.079732	0	0
20.7053	-0.01620911	-0.002569421	-0.3176621	0.2230108	6.040525	-4.411086	0	0
20.72187	-0.02010255	0.0001797362	-0.2349819	0.1659204	2.495293	-1.722994	0	0
20.73844	-0.02175972	0.001365316	-0.1000499	0.07157821	4.072493	-2.847416	0	0
20.755	-0.02183863	0.001308869	-0.004763075	-0.003407126	2.876092	-2.263323	0	0
20.77157	-0.02215427	0.001045439	-0.01905185	-0.01590068	-0.4312361	-0.3770563	0	0
20.78814	-0.02318006	0.0002738452	-0.06190959	-0.04656813	-1.293375	-0.925492	0	0
20.8047	-0.0247844	-0.0008744663	-0.0968604	-0.06932818	-1.054878	-0.6869393	0	0
20.83784	-0.0248107	-0.0008932944	-0.0007937978	-0.0005682654	1.933086	1.383612	0	0
20.87097	-0.0247581	-0.0009309509	0.001587448	-0.001136474	0.03593411	-0.008574533	0	0
20.88754	-0.0247581	-0.0009309509	0	0	-0.03193952	0.0228659	0	0
20.9041	-0.0247581	-0.0009309509	0	0	0	0	0	0
20.92067	-0.0247581	-0.0009686078	0	-0.002272715	0	-0.06859066	0	0
20.93729	-0.0247055	-0.001006265	0.003165058	-0.002265954	0.09536792	0.0002037101	0	0
20.9538	-0.0247055	-0.001043923	0	-0.00228038	-0.09552713	-0.0004354082	0	0
20.97037	-0.0247318	-0.001175728	-0.001587392	-0.007955798	-0.04798492	-0.171561	0	0
20.98694	-0.0248633	-0.0013452	-0.007937296	-0.01022934	-0.1916405	-0.06861566	0	0
21.00384	-0.02491589	-0.001420524	-0.003112084	-0.004456758	0.1441729	0.1724794	0	0
21.02035	-0.02496849	-0.001458186	-0.003185532	-0.002280925	-0.002198199	0.06511948	0	0
21.03664	-0.02496849	-0.001458186	0	0	0.09712917	0.06954706	0	0
21.05337	-0.02496849	-0.001458186	0	0	0	0	0	0
21.06988	-0.02496849	-0.001458186	0	0	0	0	0	0
21.0864	-0.02496849	-0.001458186	0	0	0	0	0	0
21.10291	-0.02496849	-0.001458186	0	0	0	0	0	0
21.11947	-0.02496849	-0.001458186	0	0	0	0	0	0
21.13604	-0.02499479	-0.001477018	-0.001587322	-0.001136531	-0.04790822	-0.03430256	0	0
21.1526	-0.02499479	-0.001477018	0	0	0.04790546	0.03430058	0	0
21.16945	-0.02499479	-0.001477018	0	0	0	0	0	0
21.18574	-0.02499479	-0.001477018	0	0	0	0	0	0
21.20248	-0.02502109	-0.001458186	-0.001570934	0.001124877	-0.0475697	0.03406258	0	0
21.21887	-0.02502109	-0.001458186	0	0	0.04741634	-0.03395277	0	0
21.2355	-0.02502109	-0.001458186	0	0	0	0	0	0
21.25201	-0.02502109	-0.001458186	0	0	0	0	0	0
21.26857	-0.02502109	-0.001458186	0	0	0	0	0	0
21.28514	-0.02502109	-0.001458186	0	0	0	0	0	0
21.3017	-0.02504739	-0.001439355	-0.001587392	0.001136662	-0.04790758	0.03430453	0	0
21.31856	-0.02504739	-0.001439355	0	0	0.04749746	-0.03401086	0	0
21.33508	-0.02504739	-0.001439355	0	0	0	0	0	0
21.35141	-0.02504739	-0.001439355	0	0	0	0	0	0
21.46737	-0.02504739	-0.001439355	0	0	0	0	0	0
21.48394	-0.02504739	-0.001439355	0	0	0	0	0	0
21.50051	-0.02504739	-0.001439355	0	0	0	0	0	0
21.5172	-0.02504739	-0.001439355	0	0	0	0	0	0
21.53371	-0.02504739	-0.001439355	0	0	0	0	0	0
21.55022	-0.02504739	-0.001439355	0	0	0	0	0	0
21.58334	-0.02504739	-0.001439355	0	0	0	0	0	0
21.5999	-0.02504739	-0.001439355	0	0	0	0	0	0
21.61647	-0.02504739	-0.001439355	0	0	0	0	0	0
21.63304	-0.02504739	-0.001439355	0	0	0	0	0	0
21.6496	-0.02504739	-0.001439355	0	0	0	0	0	0
21.6663	-0.02504739	-0.001439355	0	0	0	0	0	0
21.68274	-0.02504739	-0.001439355	0	0	0	0	0	0
21.71634	-0.02504739	-0.001439355	0	0	0	0	0	0
21.73285	-0.02504739	-0.001439355	0	0	0	0	0	0
21.749	-0.02504739	-0.001439355	0	0	0	0	0	0
21.76557	-0.02504739	-0.001439355	0	0	0	0	0	0
21.78214	-0.02504739	-0.001439355	0	0	0	0	0	0
21.7987	-0.02504739	-0.001439355	0	0	0	0	0	0
21.81527	-0.02504739	-0.001439355	0	0	0	0	0	0
21.83192	-0.02504739	-0.001439355	0	0	0	0	0	0
21.84844	-0.02504739	-0.001439355	0	0	0	0	0	0
21.86497	-0.02504739	-0.001439355	0	0	0	0	0	0
21.88153	-0.02504739	-0.001439355	0	0	0	0	0	0
21.8981	-0.02504739	-0.001439355	0	0	0	0	0	0
21.91467	-0.02504739	-0.001439355	0	0	0	0	0	0
21.93123	-0.02504739	-0.001439355	0	0	0	0	0	0
21.9478	-0.02504739	-0.001439355	0	0	0	0	0	0
21.96437	-0.02504739	-0.001439355	0	0	0	0	0	0
21.98093	-0.02504739	-0.001439355	0	0	0	0	0	0
21.99754	-0.02504739	-0.001439355	0	0	0	0	0	0
22.01407	-0.02504739	-0.001439355	0	0	0	0	0	0
22.03106	-0.02504739	-0.001439355	0	0	0	0	0	0
22.0472	-0.02504739	-0.001439355	0	0	0	0	0	0
22.06377	-0.02504739	-0.001439355	0	0	0	0	0	0
22.0806	-0.02504739	-0.001439355	0	0	0	0	0	0
22.0969	-0.02504739	-0.001439355	0	0	0	0	0	0
22.11347	-0.02504739	-0.001439355	0	0	0	0	0	0
22.13013	-0.02504739	-0.001439355	0	0	0	0	0	0
22.14664	-0.02504739	-0.001439355	0	0	0	0	0	0
22.27924	-0.0249422	-0.001627673	0.0007933674	-0.001420246	0.005320861	-0.009525136	0	0
22.2957	-0.0249422	-0.001627673	0	0	-0.005322427	0.009527939	0	0
22.31227	-0.02491589	-0.001646505	0.001587504	-0.001136725	0.04805759	-0.03441142	0	0
22.32884	-0.02491589	-0.001646505	0	0	-0.04790546	0.03430249	0	0
22.34541	-0.02491589	-0.001646505	0	0	0	0	0	0
22.36197	-0.0249422	-0.001665337	-0.001587687	-0.001136856	-0.04792201	-0.03431434	0	0
22.37854	-0.0249422	-0.001665337	0	0	0.04792201	0.03431434	0	0
22.3951	-0.0249422	-0.001703003	0	-0.002273479	0	-0.06861768	0	0
22.41167	-0.0249422	-0.001740668	0	-0.002273507	0	-8.50248E-07	0	0
22.42824	-0.02502109	-0.001910169	-0.00476174	-0.01022991	-0.1437013	-0.2401108	0	0
22.44486	-0.02570486	-0.00243756	-0.04114924	-0.03173839	-1.096473	-0.6481202	0	0
22.46137	-0.03212053	-0.007112423	-0.3885028	-0.2830878	-10.48436	-7.586614	0	0
22.47794	-0.03653637	-0.01039636	-0.2665404	-0.1982186	3.686775	2.565492	0	0
22.4945	-0.04696544	-0.01793939	-0.6295726	-0.4553507	-10.95696	-7.760709	0	0
22.51107	-0.05654492	-0.02496918	-0.5782188	-0.4243191	1.54995	0.9365897	0	0
22.52764	-0.0630217	-0.02984816	-0.3909389	-0.2944956	5.652117	3.91808	0	0
22.56094	-0.07692684	-0.04075422	-0.4175669	-0.3275054	-0.533974	-0.6619466	0	0
22.57734	-0.08160783	-0.04600241	-0.2854366	-0.320024	2.65857	0.1505306	0	0
22.59396	-0.08544932	-0.05168094	-0.2311012	-0.3416158	1.645434	-0.653862	0	0
22.61047	-0.09182003	-0.0560477	-0.3858253	-0.2644615	-4.669584	2.328521	0	0
22.62704	-0.09307242	-0.05692951	-0.07559444	-0.05322614	9.378444	6.385756	0	0
22.644	-0.09283762	-0.05664194	0.01384719	0.01695989	2.668023	2.093633	0	0
22.66017	-0.09273326	-0.05652691	0.006452222	0.007111402	-0.2232064	-0.2972623	0	0
22.67674	-0.09273326	-0.05652691	0	0	-0.1970538	-0.2171855	0	0
22.69353	-0.09273326	-0.05652691	0	0	0	0	0	0
22.71004	-0.09270717	-0.05654608	0.001580188	-0.001161	0.04744709	-0.03486047	0	0
22.72655	-0.09268108	-0.05656525	0.001580188	-0.001161	0	0	0	0
22.74307	-0.092655	-0.05658443	0.001579737	-0.001161	-1.366364E-05	0	0	0
22.75958	-0.0926289	-0.0566036	0.001580371	-0.001161135	1.919225E-05	-4.061254E-06	0	0
22.77614	-0.09255063	-0.05666111	0.004725825	-0.003472172	0.09510518	-0.06987597	0	0
22.83068	-0.09228972	-0.05689117	0.004783974	-0.004218338	0.0008178364	-0.01049427	0	0
22.84725	-0.09205488	-0.05706373	0.01417466	-0.01041569	0.1320661	-0.08715661	0	0
22.86416	-0.08918385	-0.0591736	0.1697774	-0.1247665	4.647939	-3.415722	0	0
22.88038	-0.083751	-0.06316743	0.334867	-0.2461695	4.982416	-3.663951	0	0
22.89695	-0.07742387	-0.06782117	0.3819503	-0.2809329	1.435937	-1.060207	0	0
22.91351	-0.06910034	-0.07394817	0.5024096	-0.369826	3.635678	-2.682953	0	0
22.9302	-0.06262852	-0.07871653	0.3878712	-0.2857791	-3.444481	2.527518	0	0
22.94671	-0.05494464	-0.0843837	0.4653532	-0.3432171	2.333977	-1.730194	0	0
22.96322	-0.05140205	-0.08699884	0.2145227	-0.1583606	-7.594999	5.597346	0	0
23.01291	-0.03882259	-0.0962984	0.2531576	-0.1871505	0.5835721	-0.4348661	0	0
23.09575	-0.03556395	-0.09871112	0.03933931	-0.0291271	-1.613425	1.192409	0	0
23.11233	-0.03551138	-0.09875005	0.003169476	-0.002347344	-0.3638134	0.2693636	0	0
23.12888	-0.0354851	-0.09876952	0.001588208	-0.001176467	-0.0477255	0.03533916	0	0
23.14545	-0.03530112	-0.09890579	0.01110511	-0.008225341	0.2873861	-0.212858	0	0
23.16202	-0.03524855	-0.09898366	0.003172985	-0.004700452	-0.239392	0.1063814	0	0
23.17858	-0.03509085	-0.09913941	0.00951873	-0.009400904	0.191515	-0.1418599	0	0
23.19515	-0.03511713	-0.09911994	-0.00158638	0.001175113	-0.3351529	0.3191848	0	0
23.21172	-0.03511713	-0.09911994	0	0	0.04787704	-0.03546498	0	0
23.22842	-0.03514342	-0.09910047	-0.0015741	0.001165852	-0.0473185	0.03504627	0	0
23.24493	-0.03511713	-0.099081	0.00159192	0.001179049	0.09533118	0.000397398	0	0
23.26144	-0.03514342	-0.09906153	-0.001592104	0.001179186	-0.0964215	4.124712E-06	0	0
23.27798	-0.03514342	-0.09906153	0	0	0.04816346	-0.03567208	0	0
23.29455	-0.03514342	-0.09910047	0	-0.002350226	0	-0.0709749	0	0
23.31147	-0.03514342	-0.09910047	0	0	0	0.07018257	0	0
23.32768	-0.03514342	-0.09910047	0	0	0	0	0	0
23.34425	-0.03511713	-0.09911994	0.00158624	-0.001174842	0.04838811	-0.03583847	0	0
23.36082	-0.03511713	-0.09915888	0	-0.002350767	-0.04787281	-0.03548948	0	0
23.37752	-0.03506457	-0.09919782	0.003147036	-0.002331617	0.09460198	0.0005756713	0	0
23.41104	-0.035012	-0.09923676	0.001568078	-0.001161474	-0.03143692	0.02329746	0	0
23.42756	-0.03498572	-0.09925623	0.001591736	-0.001179365	0.000472798	-0.0003575491	0	0
23.44407	-0.03495944	-0.0992757	0.001591694	-0.001179049	-1.26547E-06	9.538616E-06	0	0
23.4606	-0.03490687	-0.09931464	0.003179941	-0.002355378	0.04806619	-0.03560003	0	0
23.47717	-0.03490687	-0.09935358	0	-0.002350676	-0.09607588	0.0001420765	0	0
23.49373	-0.03488058	-0.09941199	0.001586605	-0.003525789	0.04788383	-0.03546498	0	0
23.5103	-0.03482801	-0.09948988	0.00317335	-0.004701893	0.04789083	-0.03549694	0	0
23.52687	-0.03477545	-0.09952883	0.003172985	-0.002350676	-1.103278E-05	0.07096396	0	0
23.54343	-0.03477545	-0.09956777	0	-0.002350676	-0.09576087	0	0	0
23.56015	-0.03474917	-0.09958725	0.001572261	-0.0011651	0.04723883	0.0356208	0	0
23.57666	-0.03474917	-0.09958725	0	0	-0.04731747	0.03506389	0	0
23.61019	-0.03477545	-0.09964567	-0.0007839391	-0.001742556	-0.01566707	-0.03482508	0	0
23.62627	-0.03477545	-0.09968461	0	-0.002421773	0.01580321	-0.01369215	0	0
23.64284	-0.03477545	-0.09972356	0	-0.002351125	0	0.002163911	0	0
23.6594	-0.03477545	-0.09976251	0	-0.002350405	0	2.17398E-05	0	0
23.67597	-0.03482801	-0.09980146	-0.00317335	-0.002351396	-0.0957719	-2.990624E-05	0	0
23.69254	-0.03482801	-0.09980146	0	0	0.09577741	0.07096936	0	0
23.7091	-0.0348543	-0.09985988	-0.001586605	-0.003526238	-0.04788383	-0.1064221	0	0
23.72567	-0.03490687	-0.09989883	-0.003172985	-0.002351125	-0.04787704	0.03546498	0	0
23.74224	-0.035012	-0.09997673	-0.00634597	-0.004702251	-0.09576087	-0.07095711	0	0
23.75881	-0.03524855	-0.100152	-0.01427645	-0.0105793	-0.2393286	-0.1773594	0	0
23.77537	-0.0374036	-0.1017496	-0.1300939	-0.09644277	-3.495377	-2.591365	0	0
23.79194	-0.0465453	-0.1085797	-0.5517945	-0.4122668	-12.72768	-9.532137	0	0
23.80851	-0.05465604	-0.1146249	-0.4895084	-0.364843	1.879689	1.431172	0	0
23.82508	-0.06304791	-0.1209004	-0.5065928	-0.3788365	-0.515607	-0.4223274	0	0
23.84164	-0.06582581	-0.1229827	-0.1676746	-0.1256845	10.22916	7.640584	0	0
23.85838	-0.07972539	-0.1334004	-0.8306603	-0.6225809	-19.90924	-14.92164	0	0
23.87488	-0.09007142	-0.1412281	-0.6267965	-0.474227	6.133204	4.463197	0	0
23.89139	-0.09711459	-0.1465798	-0.4266003	-0.3241484	6.063573	4.545607	0	0
23.90791	-0.1007368	-0.1492999	-0.2192935	-0.1646787	6.276764	4.82837	0	0
23.92448	-0.1062562	-0.1534755	-0.3331506	-0.2520381	-3.441364	-2.640465	0	0
23.94104	-0.106048	-0.1532765	0.01256612	0.01201335	10.43435	7.969548	0	0
23.95761	-0.106048	-0.1532367	0	0.002402393	-0.379268	-0.2900759	0	0
23.97418	-0.106048	-0.1532367	0	0	0	-0.07250437	0	0
23.99096	-0.106022	-0.1532168	0.001549719	0.00118581	0.04646037	0.03555043	0	0
24.00731	-0.106022	-0.1532168	0	0	-0.04677061	-0.03578782	0	0
24.02388	-0.106022	-0.1532168	0	0	0	0	0	0
24.04044	-0.10597	-0.153177	0.00314128	0.002401494	0.09480947	0.07248139	0	0
24.05701	-0.1058138	-0.1530576	0.009424289	0.007207179	0.1896216	0.1450359	0	0
24.07358	-0.1057618	-0.1530178	0.003141641	0.00240177	-0.1896216	-0.1450359	0	0
24.09014	-0.1056837	-0.1529581	0.004712144	0.00360314	0.0474006	0.0362595	0	0
24.12356	-0.1056317	-0.1529183	0.001557684	0.001191117	-0.06311184	-0.04825776	0	0
24.13984	-0.1056317	-0.1529183	0	0	-0.03134066	-0.02396533	0	0
24.15641	-0.1056317	-0.1529581	0	-0.00240267	0	-0.07313579	0	0
24.17298	-0.1056317	-0.1529581	0	0	0	0.07251689	0	0
24.1896	-0.1056317	-0.1529581	0	0	0	0	0	0
24.20611	-0.1056317	-0.1529581	0	0	0	0	0	0
24.22268	-0.1056317	-0.1529581	0	0	0	0	0	0
24.23924	-0.1056317	-0.1529581	0	0	0	0	0	0
24.25581	-0.1056317	-0.1529581	0	0	0	0	0	0
24.27238	-0.1056577	-0.152978	-0.001570865	-0.001200747	-0.04740879	-0.03623861	0	0
24.28894	-0.1056577	-0.152978	0	0	0.04741152	0.0362407	0	0
24.30551	-0.1056577	-0.152978	0	0	0	0	0	0
24.32208	-0.1056577	-0.152978	0	0	0	0	0	0
24.33864	-0.1056317	-0.1529979	0.001570865	-0.001200747	0.04740879	-0.03623861	0	0
24.35521	-0.1056317	-0.1529979	0	0	-0.04741152	0.0362407	0	0
24.38834	-0.1056317	-0.1529581	0	0.001200816	0	0.02416232	0	0
24.40491	-0.1055536	-0.1528984	0.004712144	0.00360314	0.09481217	0.04833671	0	0
24.42148	-0.1051632	-0.1526	0.02356026	0.01801093	0.5688045	0.4348029	0	0
24.43804	-0.1050331	-0.1525005	0.007855678	0.006004426	-0.4739652	-0.362357	0	0
24.45461	-0.1050331	-0.1525005	0	0	-0.2370985	-0.1812244	0	0
24.47118	-0.104981	-0.1524607	0.003141729	0.002401494	0.09481758	0.07247722	0	0
24.48774	-0.104955	-0.1524806	0.001571495	-0.001200885	-0.04739248	-0.1087263	0	0
24.50431	-0.104955	-0.1524806	0	0	-0.04743056	0.03624487	0	0
24.53785	-0.1047208	-0.1523016	0.006983538	0.005337609	0.1393645	0.1065181	0	0
24.55401	-0.1042522	-0.1519436	0.02899829	0.02215832	0.4429547	0.3384463	0	0
24.57088	-0.1005545	-0.1491211	0.2192116	0.1673204	5.759546	4.395421	0	0
24.58739	-0.09760987	-0.1468775	0.1783513	0.1358947	-1.224146	-0.9414907	0	0
24.6039	-0.09041075	-0.1414063	0.4360964	0.3314233	7.806173	5.921859	0	0
24.62028	-0.08636358	-0.1383392	0.2470749	0.1872435	-5.747359	-4.38391	0	0
24.63692	-0.08341128	-0.1361056	0.177364	0.1341857	-2.110804	-1.606556	0	0
24.65343	-0.0795685	-0.1332031	0.232728	0.1757844	1.669737	1.254583	0	0
24.66998	-0.075985	-0.1305011	0.2165996	0.1633185	-0.4879078	-0.3771106	0	0
24.68655	-0.06865509	-0.124988	0.4424343	0.3327724	6.820415	5.117662	0	0
24.70311	-0.06328381	-0.1209986	0.3242111	0.2407983	-3.567984	-2.775782	0	0
24.71968	-0.06003304	-0.1186041	0.1962169	0.1445317	-3.862873	-2.905333	0	0
24.73625	-0.05801377	-0.117094	0.121883	0.09115018	-2.243401	-1.611057	0	0
24.78595	-0.05827605	-0.1173293	-0.005277118	-0.004734063	-1.918905	-1.446938	0	0
24.83565	-0.05956105	-0.1183295	-0.02585528	-0.0201246	-0.2070246	-0.1548351	0	0
24.85221	-0.05956105	-0.1183295	0	0	0.3901794	0.3036983	0	0
24.88609	-0.05956105	-0.1183295	0	0	0	0	0	0
24.90266	-0.05958727	-0.1183491	-0.001582965	-0.001184244	-0.03138085	-0.02347657	0	0
24.91922	-0.05958727	-0.1183883	0	-0.002368215	0.04777671	-0.03573437	0	0
24.93579	-0.05971838	-0.1184864	-0.007913912	-0.005920087	-0.2388423	-0.1071957	0	0
24.95236	-0.05995438	-0.118663	-0.01424623	-0.01065819	-0.1911208	-0.1430046	0	0
24.96892	-0.06060988	-0.1191535	-0.03956663	-0.02960673	-0.7642152	-0.5719009	0	0
24.98549	-0.06155372	-0.11986	-0.05697004	-0.0426436	-0.525236	-0.3934536	0	0
25.00206	-0.06247124	-0.1205078	-0.05538779	-0.03910523	0.04775526	0.1067945	0	0
25.01869	-0.06244502	-0.1204881	0.001575802	0.001180116	1.715708	1.213369	0	0
25.03521	-0.06244502	-0.1204881	0	0	-0.04753316	-0.03559752	0	0
25.05175	-0.06244502	-0.1204881	0	0	0	0	0	0
25.06832	-0.06244502	-0.1204881	0	0	0	0	0	0
25.08489	-0.06244502	-0.1204881	0	0	0	0	0	0
25.10175	-0.06244502	-0.1204881	0	0	0	0	0	0
25.11802	-0.06244502	-0.1204881	0	0	0	0	0	0
25.13477	-0.06244502	-0.1204881	0	0	0	0	0	0
25.15128	-0.06244502	-0.1204881	0	0	0	0	0	0
25.16779	-0.06244502	-0.1204881	0	0	0	0	0	0
25.18428	-0.06244502	-0.1204881	0	0	0	0	0	0
25.20085	-0.06244502	-0.1204881	0	0	0	0	0	0
25.21742	-0.06244502	-0.1204881	0	0	0	0	0	0
25.23399	-0.06244502	-0.1204881	0	0	0	0	0	0
25.25056	-0.06244502	-0.1204881	0	0	0	0	0	0
25.26712	-0.06244502	-0.1204881	0	0	0	0	0	0
25.28369	-0.06244502	-0.1204881	0	0	0	0	0	0
25.30039	-0.06244502	-0.1204881	0	0	0	0	0	0
25.3169	-0.06244502	-0.1204881	0	0	0	0	0	0
25.33339	-0.06241881	-0.1204685	0.001589611	0.001190627	0.04817143	0.03608065	0	0
25.34996	-0.06241881	-0.1204685	0	0	-0.04808805	-0.03601819	0	0
25.36652	-0.06241881	-0.1204685	0	0	0	0	0	0
25.38309	-0.06241881	-0.1204685	0	0	0	0	0	0
25.39965	-0.06241881	-0.1204685	0	0	0	0	0	0
25.41647	-0.06241881	-0.1204685	0	0	0	0	0	0
25.43298	-0.0623926	-0.1204489	0.001587633	0.001188976	0.0476379	0.03567596	0	0
25.44935	-0.06241881	-0.1204292	-0.001601135	0.001199088	-0.09696843	0.0003074768	0	0
25.46601	-0.0623926	-0.1204096	0.001574358	0.001179034	0.0961576	-0.0006072423	0	0
25.48248	-0.0623926	-0.1204096	0	0	-0.04751968	-0.03558742	0	0
25.49905	-0.0623926	-0.1204096	0	0	0	0	0	0
25.51562	-0.0623926	-0.1204096	0	0	0	0	0	0
25.53218	-0.06236638	-0.12039	0.001582333	0.001185007	0.04776039	0.03576769	0	0
25.54906	-0.06236638	-0.12039	0	0	-0.04730828	-0.03542911	0	0
25.66515	-0.06228774	-0.1203311	0.0006774642	0.000507376	0.005095199	0.003815969	0	0
25.68166	-0.06226153	-0.1203114	0.001587591	0.001188662	0.006864155	0.005138246	0	0
25.71533	-0.06213046	-0.1202133	0.003892752	0.002915138	0.04593744	0.03440536	0	0
25.73189	-0.0620256	-0.1201348	0.00632933	0.004739577	0.04850103	0.03631617	0	0
25.74846	-0.06197317	-0.1200955	0.003164665	0.002369564	-0.09550978	-0.07152715	0	0
25.76503	-0.06192074	-0.1200562	0.003164301	0.002369291	-1.098935E-05	-8.227959E-06	0	0
25.78159	-0.0618421	-0.1199974	0.004748091	0.003555389	0.04780163	0.03579857	0	0
25.79816	-0.0618421	-0.1199974	0	0	-0.1433142	-0.1073142	0	0
25.81475	-0.0618421	-0.1199974	0	0	0	0	0	0
25.83129	-0.0618421	-0.1199581	0	0.002372842	0	0.07161663	0	0
25.84786	-0.06173723	-0.1198403	0.006329555	0.007108242	0.1911584	0.1430134	0	0
25.86443	-0.06150129	-0.1195852	0.01423653	0.01539527	0.2385916	0.2500599	0	0
25.881	-0.06110803	-0.1192516	0.02374248	0.02014121	0.2868737	0.1432244	0	0
25.89756	-0.05908903	-0.1177019	0.1218815	0.09355165	2.962354	2.215914	0	0
25.91413	-0.05672854	-0.1158592	0.1424464	0.1112013	0.620613	0.5326378	0	0
25.9307	-0.05134956	-0.1118451	0.3247509	0.2423454	5.501961	3.957936	0	0
25.94735	-0.04299979	-0.1056308	0.5015101	0.3732453	5.322042	3.941266	0	0
25.96387	-0.03703569	-0.101204	0.3609915	0.2679448	-4.236227	-3.174506	0	0
25.9804	-0.03191022	-0.09740719	0.310088	0.2297043	-1.540171	-1.157031	0	0
25.99696	-0.02607304	-0.09305248	0.352333	0.2628507	1.276425	1.001515	0	0
26.01353	-0.02349568	-0.09111072	0.1555519	0.1171915	-5.938523	-4.395749	0	0
26.0301	-0.02199645	-0.08992694	0.09050379	0.07146166	-1.963156	-1.380131	0	0
26.04666	-0.02204906	-0.08988813	-0.003175711	0.002342401	-2.827579	-2.086264	0	0
26.06344	-0.02212797	-0.08982993	-0.004702864	0.003468867	-0.04579954	0.03378291	0	0
26.0798	-0.02218057	-0.08979113	-0.003216711	0.002372726	0.04485476	-0.03308352	0	0
26.09636	-0.02228578	-0.08971353	-0.006351311	0.004684351	-0.0952218	0.07022177	0	0
26.11296	-0.02270662	-0.08940314	-0.02534934	0.0186965	-0.572801	0.4224742	0	0
26.1295	-0.02304855	-0.08907339	-0.02068165	0.01994495	0.140871	0.03767816	0	0
26.14607	-0.02362718	-0.08787112	-0.03491416	0.07254413	-0.4299092	1.588818	0	0
26.16263	-0.0224436	-0.08347384	0.07147398	0.2655427	3.210985	5.825042	0	0
26.17951	-0.01847158	-0.07923827	0.2353085	0.2509221	4.899412	-0.4372237	0	0
26.19576	-0.01292033	-0.07462335	0.3414823	0.2838844	3.204146	0.9947485	0	0
26.21253	-0.009026071	-0.06895693	0.2322242	0.3379022	-3.30827	1.635627	0	0
26.2289	-0.005552575	-0.06168829	0.2123004	0.4442594	-0.6013727	3.210238	0	0
26.24546	-0.0006842104	-0.05694869	0.293855	0.2860831	2.476723	-4.803634	0	0
26.26207	0.001999997	-0.0549554	0.1616655	0.1200527	-3.985131	-5.005334	0	0
26.39456	0.007736688	-0.05078159	0.04329712	0.03150144	-0.7938891	-0.5939076	0	0
26.41117	0.007736688	-0.05078159	0	0	-0.2903725	-0.2112647	0	0
26.4277	0.007763002	-0.05080072	0.001592565	-0.001157942	0.04806093	-0.03494474	0	0
26.44426	0.007736688	-0.05081985	-0.001588713	-0.001155142	-0.09614952	8.463363E-05	0	0
26.46083	0.007763002	-0.05087725	0.001588347	-0.003464402	0.09589493	-0.06970164	0	0
26.4774	0.007789316	-0.05093465	0.001588137	-0.003464228	-6.365953E-06	5.248749E-06	0	0
26.49397	0.00781563	-0.05110685	0.001588319	-0.01039433	5.519267E-06	-0.2091389	0	0
26.51053	0.007868258	-0.05122166	0.003176639	-0.006929928	0.04793558	0.1045559	0	0
26.52726	0.007868258	-0.05137474	0	-0.009150583	-0.09540434	-0.06669317	0	0
26.54367	0.007894573	-0.05154698	0.001604044	-0.01049864	0.04841016	-0.04068452	0	0
26.57708	0.007289344	-0.05206373	-0.01811463	-0.01546645	-0.3958291	-0.09972284	0	0
26.59365	0.006131502	-0.05290604	-0.06987944	-0.05083611	-1.035707	-0.707674	0	0
26.61032	0.00536837	-0.05346133	-0.04577818	-0.03331039	0.7250819	0.5272579	0	0
26.62683	0.005315739	-0.05346133	-0.003187053	0	1.283482	1.003807	0	0
26.64335	0.00536837	-0.05338473	0.003186685	0.004637967	0.1929707	0.1404187	0	0
26.65991	0.00536837	-0.05323154	0	0.00924665	-0.09632406	0.1393069	0	0
26.67648	0.005552575	-0.05279116	0.01111863	0.02658125	0.3355609	0.5231593	0	0
26.69338	0.00557889	-0.05246571	0.001557358	0.01926074	-0.2857145	-0.2187552	0	0
26.70961	0.005763094	-0.05175749	0.01134588	0.04362178	0.2954353	0.7352601	0	0
26.72618	0.006131502	-0.05087725	0.02223461	0.05312559	0.331928	0.2897106	0	0
26.74275	0.005789409	-0.0478367	-0.02065118	0.183549	-1.294296	3.936186	0	0
26.75931	0.001131578	-0.04136444	-0.2811796	0.3907111	-7.863667	6.252885	0	0
26.77593	-0.00173684	-0.0309123	-0.1725818	0.6288651	3.272402	7.176348	0	0
26.79245	-0.002526311	-0.01835581	-0.04780662	0.7603623	3.765722	3.968594	0	0
26.80902	-0.002789466	0.0002550236	-0.01588412	1.123352	0.9649782	10.97275	0	0
26.82558	-0.003315777	0.0141919	-0.03177185	0.8413282	-0.4795201	-8.511997	0	0
26.84215	-0.003289462	0.03133898	0.001588404	1.035	1.006872	5.845366	0	0
26.859	-0.003578932	0.04294245	-0.01718168	0.6887305	-0.5617288	-10.36275	0	0
26.87528	-0.002605257	0.05376869	0.05978988	0.6648012	2.32314	-0.722231	0	0
26.89207	-0.0006315788	0.0671903	0.1175347	0.7992718	1.745758	4.065352	0	0
26.90853	2.631579E-05	0.07404134	0.03997755	0.416309	-2.332624	-11.51806	0	0
26.92504	0.0008684208	0.08925481	0.05100572	0.9214697	0.3345256	15.3234	0	0
26.94155	0.001815788	0.1010064	0.05737472	0.7117064	0.1928718	-6.352244	0	0
26.95811	0.00155263	0.1162027	-0.01588786	0.9174582	-2.215022	6.220702	0	0
26.97468	0.00155263	0.1269397	0	0.6480862	0.4795517	-8.130597	0	0
26.99125	0.001578946	0.130459	0.001588418	0.2124243	0.04793854	-13.1483	0	0
27.00782	0.001684209	0.1407299	0.006353685	0.6199524	0.1438161	12.29922	0	0
27.02462	0.001605262	0.1571346	-0.004697657	0.976144	-0.3311474	10.67309	0	0
27.04112	0.002421048	0.1662527	0.04943446	0.5525312	1.625197	-12.71804	0	0
27.05763	0.003421039	0.1774011	0.06056879	0.6752496	0.3372774	3.717345	0	0
27.07415	0.004289447	0.1878988	0.0525928	0.6357689	-0.2415361	-1.19559	0	0
27.09065	0.004763122	0.1951171	0.02870008	0.4373564	-0.7236665	-6.009549	0	0
27.10722	0.004868383	0.203049	0.006353559	0.4787724	-0.6757029	1.252315	0	0
27.12378	0.006078872	0.2056431	0.07307372	0.1565999	2.013735	-9.723744	0	0
27.14035	0.006473594	0.2093707	0.02382544	0.2249975	-1.486402	2.064361	0	0
27.15692	0.00781563	0.2162992	0.0810148	0.4182498	1.726078	5.832704	0	0
27.17348	0.008605051	0.2228446	0.04764953	0.3950808	-1.007024	-0.6992833	0	0
27.19023	0.007999829	0.2326359	-0.03613604	0.5846109	-2.5149	5.68892	0	0
27.20662	0.007526174	0.2396723	-0.02890604	0.4294192	0.2182018	-4.683695	0	0
27.22318	0.007157772	0.2484613	-0.02223931	0.5305654	0.2023202	3.069562	0	0
27.23977	0.006552538	0.2557206	-0.03649421	0.4377156	-0.4300155	-2.800922	0	0
27.25632	0.005026273	0.2657512	-0.09222106	0.6060743	-1.68184	5.081073	0	0
27.27288	0.003947348	0.2704952	-0.06512408	0.2863498	0.8182123	-9.654305	0	0
27.30602	0.002868413	0.2851121	-0.03256231	0.44114	0.6551441	3.114385	0	0
27.32259	5.263158E-05	0.2907446	-0.1699609	0.339976	-2.764465	-2.035425	0	0
27.33934	-0.003447355	0.301737	-0.2088789	0.6560295	-1.167891	9.484464	0	0
27.35572	-0.00536837	0.3080444	-0.1172895	0.3851043	2.764172	-8.176538	0	0
27.37236	-0.006684111	0.3122963	-0.07906331	0.2554961	1.157668	-3.925141	0	0
27.38887	-0.013315	0.3184053	-0.4016286	0.3700161	-9.729998	3.454432	0	0
27.40542	-0.0189188	0.3222096	-0.3386355	0.2298924	1.905522	-4.2387	0	0
27.4224	-0.02531038	0.3265494	-0.3764783	0.2556226	-1.128778	0.7674816	0	0
27.43855	-0.02893929	0.3290138	-0.2246269	0.1525494	4.583148	-3.110934	0	0
27.47169	-0.02993842	0.3296924	-0.03015392	0.02048015	3.945509	-2.67945	0	0
27.48825	-0.02993842	0.3296924	0	0	0.6066982	-0.4120615	0	0
27.50496	-0.02991213	0.3296746	0.001574076	-0.001068788	0.04731233	-0.03212479	0	0
27.52139	-0.02988584	0.3296567	0.001600134	-0.001086405	0.0007864513	-0.000531672	0	0
27.53798	-0.02983325	0.329621	0.003169253	-0.002153624	0.04751475	-0.03231664	0	0
27.55452	-0.02954403	0.3294246	0.01748545	-0.0118755	0.4320884	-0.2934238	0	0
27.57109	-0.02938627	0.3292817	0.009523424	-0.008624784	-0.2405019	0.09819174	0	0
27.58765	-0.02859746	0.328746	0.04761265	-0.03233652	1.149601	-0.7156627	0	0
27.60422	-0.02854488	0.3287102	0.003174222	-0.002156847	-1.341154	0.9108243	0	0
27.62079	-0.02849229	0.3286745	0.003174334	-0.002155048	3.393965E-06	5.428939E-05	0	0
27.63736	-0.02838711	0.3286031	0.006345633	-0.004309911	0.09568797	-0.06501891	0	0
27.65406	-0.02838711	0.3285674	0	-0.002139849	-0.1907102	0.06521855	0	0
27.67049	-0.02825564	0.3284424	0.008004841	-0.007610179	0.2416701	-0.1651519	0	0
27.68705	-0.02820305	0.3282995	0.003174334	-0.008623791	-0.1464171	-0.03072351	0	0
27.70362	-0.02825564	0.3282281	-0.003174334	-0.004311895	-0.1916032	0.1301333	0	0
27.72019	-0.02838711	0.3281388	-0.007935722	-0.00538942	-0.143699	-0.03251975	0	0
27.73675	-0.02854488	0.3279602	-0.009523986	-0.01078008	-0.04793665	-0.1626998	0	0
27.75364	-0.02862376	0.3278709	-0.004672099	-0.005288353	0.1450525	0.1641813	0	0
27.76989	-0.02865005	0.3278173	-0.001617976	-0.003297389	0.09217363	0.06008742	0	0
27.78646	-0.02865005	0.3277459	0	-0.004311895	0.04930172	-0.03091327	0	0
27.80317	-0.02857117	0.3275852	0.004719551	-0.00961607	0.1418078	-0.1593739	0	0
27.81968	-0.02820305	0.327228	0.02229444	-0.0216317	0.5289495	-0.3616332	0	0
27.83616	-0.02688826	0.3261207	0.07980193	-0.06720486	1.743307	-1.381524	0	0
27.85273	-0.02520519	0.324692	0.1015785	-0.08622619	0.659	-0.5756221	0	0
27.86929	-0.02507369	0.3242098	0.007937072	-0.02910575	-2.82594	1.723799	0	0
27.88586	-0.02599414	0.323549	-0.0555714	-0.03989557	-1.91691	-0.325675	0	0
27.90242	-0.02786121	0.3221024	-0.1126963	-0.08731903	-1.724231	-1.431408	0	0
27.91899	-0.02783491	0.3210844	0.00158735	-0.06145474	3.449285	0.7806309	0	0
27.93576	-0.02504739	0.3191912	0.1661889	-0.1128717	4.937274	-1.542268	0	0
27.95228	-0.02141778	0.3167263	0.219767	-0.149245	1.609488	-1.092654	0	0
27.96869	-0.02110213	0.3165119	0.01923187	-0.01305927	-6.090025	4.135806	0	0
27.98526	-0.02107583	0.3164941	0.001587729	-0.001077524	-0.5349957	0.3633037	0	0
28.00182	-0.02102322	0.3164583	0.003175824	-0.002157096	0.04793155	-0.0325834	0	0
28.03496	-0.01802436	0.314422	0.09050556	-0.06145576	1.757145	-1.193137	0	0
28.05153	-0.01494626	0.312332	0.185795	-0.1261531	1.917228	-1.301713	0	0
28.06809	-0.01497257	0.3123499	-0.001588066	0.001077524	-5.655232	3.839827	0	0
28.08466	-0.01497257	0.3123499	0	0	0.0479307	-0.03252162	0	0
28.10122	-0.01497257	0.3123499	0	0	0	0	0	0
28.1179	-0.01497257	0.3123499	0	0	0	0	0	0
28.13436	-0.01494626	0.312332	0.001598186	-0.001084391	0.04823336	-0.03272697	0	0
28.15092	-0.01491995	0.3122784	0.001588306	-0.003236543	-0.0002991625	-0.06516214	0	0
28.16749	-0.01484102	0.3122248	0.004763651	-0.003233999	0.09583212	7.677529E-05	0	0
28.18406	-0.01473578	0.3121177	0.006353053	-0.006469488	0.04796825	-0.09764724	0	0
28.20063	-0.01465685	0.3120283	0.004764199	-0.005393018	-0.04795447	0.0324898	0	0
28.21719	-0.01463053	0.3119747	0.001588123	-0.003234371	-0.09585418	0.06514807	0	0
28.23376	-0.01463053	0.311939	0	-0.002156847	-0.04792964	0.03251974	0	0
28.32678	-0.01368336	0.290673	0.010183	-0.2286277	0.09292506	-2.066662	0	0
28.34335	-0.01420957	0.2748262	-0.03175863	-0.9564093	-0.3827321	-6.641264	0	0
28.35991	-0.0150778	0.2641754	-0.05241882	-0.6430289	-0.6235619	9.458386	0	0
28.37648	-0.01549876	0.2579065	-0.0254089	-0.3783945	0.8152551	7.987601	0	0
28.39304	-0.01697205	0.2458254	-0.08893847	-0.7292998	-1.917437	-10.59095	0	0
28.40961	-0.01905033	0.2384521	-0.1254448	-0.4450535	-1.101826	8.579065	0	0
28.42618	-0.02175972	0.2297085	-0.1635395	-0.527762	-1.149701	-2.496149	0	0
28.44274	-0.02318006	0.2223772	-0.08573164	-0.4425206	2.348245	2.572589	0	0
28.45931	-0.02370608	0.2089206	-0.03175464	-0.8123327	1.629123	-11.16159	0	0
28.47588	-0.02312746	0.1964877	0.03492611	-0.7504515	2.012545	1.867685	0	0
28.49244	-0.0224436	0.1770213	0.04127759	-1.174995	0.1916881	-12.81275	0	0
28.50901	-0.02223318	0.1718112	0.01270105	-0.3144833	-0.8624417	25.9703	0	0
28.52568	-0.02002364	0.1447128	0.1325138	-1.625185	3.604337	-39.42995	0	0
28.54214	-0.01828744	0.1279975	0.1054775	-1.015482	-0.8159581	18.40088	0	0
28.55871	-0.01570923	0.1060651	0.1556384	-1.323999	1.518844	-9.341723	0	0
28.57528	-0.01360442	0.08999019	0.1270466	-0.9702808	-0.8629523	10.67586	0	0
28.59184	-0.01186786	0.0737092	0.104831	-0.9828354	-0.6705062	-0.37892	0	0
28.60841	-0.01065749	0.05221069	0.07305826	-1.297653	-0.9589595	-9.501756	0	0
28.62498	-0.009815474	0.03611141	0.05082425	-0.9717543	-0.6710235	9.835637	0	0
28.64154	-0.009631281	0.01505404	0.01111793	-1.271025	-1.198339	-9.03202	0	0
28.65828	-0.009473401	-0.0001214305	0.009436208	-0.9070132	-0.05050436	10.93179	0	0
28.67468	-0.009473401	-0.0192267	0	-1.164864	-0.2848017	-7.782389	0	0
28.6913	-0.009368147	-0.02810072	0.006332024	-0.5338545	0.191741	19.10769	0	0
28.70781	-0.009447088	-0.04083049	-0.004780836	-0.7709446	-0.3353868	-7.155394	0	0
28.72438	-0.009710222	-0.05271458	-0.01588463	-0.7174076	-0.3356929	1.618544	0	0
28.74094	-0.009289207	-0.06668588	0.02541542	-0.8434064	1.246582	-3.803087	0	0
28.77436	-0.008526109	-0.0877548	0.02283579	-0.6304899	-0.05161113	4.259856	0	0
28.79087	-0.008499796	-0.09760176	0.001593796	-0.5964238	-0.4254631	0.6823223	0	0
28.80738	-0.00826297	-0.1038943	0.01434439	-0.3811347	0.3861474	6.519958	0	0
28.82378	-0.007841945	-0.1098306	0.0256762	-0.3620276	0.3443535	0.5806282	0	0
28.84034	-0.006868313	-0.1128627	0.05877529	-0.1830356	1.004135	5.430123	0	0
28.85692	-0.007710373	-0.117643	-0.05079763	-0.2883771	-3.306156	-3.178481	0	0
28.87348	-0.007578802	-0.1200955	0.007945312	-0.1480992	1.772763	4.233352	0	0
28.89004	-0.005736779	-0.1215878	0.1111976	-0.09008393	3.117056	1.751407	0	0
28.90661	-0.005763094	-0.1215681	-0.001588376	0.001185906	-3.404082	2.754688	0	0
28.92318	-0.005789409	-0.1215485	-0.001588376	0.001185457	0	-1.357235E-05	0	0
28.93974	-0.005789409	-0.1215092	0	0.002371186	0.04794003	0.03578744	0	0
28.95631	-0.005815724	-0.1214896	-0.001588376	0.001185457	-0.04794003	-0.03578744	0	0
28.97288	-0.005815724	-0.1214503	0	0.002371186	0.04794003	0.03578744	0	0
28.98944	-0.005815724	-0.1214503	0	0	0	-0.07156666	0	0
29.00602	-0.005815724	-0.1214503	0	0	0	0	0	0
29.02258	-0.005815724	-0.1214503	0	0	0	0	0	0
29.03914	-0.005815724	-0.1214503	0	0	0	0	0	0
29.05606	-0.005815724	-0.1214503	0	0	0	0	0	0
29.07228	-0.005815724	-0.1214503	0	0	0	0	0	0
29.08884	-0.005815724	-0.1214503	0	0	0	0	0	0
29.10541	-0.005842039	-0.1214307	-0.001588376	0.001185457	-0.04793727	0.03577715	0	0
29.12211	-0.005868354	-0.121411	-0.001575857	0.001176114	0.0003763105	-0.0002808541	0	0
29.13854	-0.005894668	-0.1213914	-0.001601066	0.001194949	-0.0007608033	0.0005684505	0	0
29.15511	-0.005999928	-0.1212735	-0.006352743	0.00711147	-0.1439694	0.1792627	0	0
29.17168	-0.006157817	-0.1208023	-0.009531295	0.02844973	-0.09592889	0.64399	0	0
29.18825	-0.005736779	-0.1201348	0.02541097	0.04028559	1.05456	0.3572069	0	0
29.22138	-0.01181524	-0.1144682	-0.1834589	0.1710272	-4.20247	2.630527	0	0
29.23795	-0.02147038	-0.106275	-0.5827857	0.4945418	-8.034781	6.509375	0	0
29.25451	-0.02717752	-0.1016912	-0.3444832	0.2766813	7.191986	-6.575042	0	0
29.28773	-0.04924962	-0.08092011	-0.664607	0.6254317	-6.431032	7.006116	0	0
29.30421	-0.05659739	-0.07350457	-0.4456672	0.4497778	4.405415	-3.534435	0	0
29.32078	-0.05953483	-0.06741703	-0.1773042	0.3674443	8.11884	-2.490851	0	0
29.33735	-0.06207803	-0.05852129	-0.1534904	0.5368861	0.7186614	5.11347	0	0
29.35391	-0.06304791	-0.04705317	-0.05854877	0.692297	2.865344	4.690311	0	0
29.37048	-0.062812	-0.0382955	0.0142427	0.5287355	2.19723	-4.937149	0	0
29.3873	-0.0618421	-0.02785387	0.05766071	0.620753	1.300551	2.75631	0	0
29.40381	-0.05861698	-0.01926457	0.1953653	0.5203087	4.131674	-3.013722	0	0
29.42018	-0.05583664	-0.01234186	0.1698163	0.4228204	-0.7770195	-2.9649	0	0
29.43675	-0.05347528	-0.005094631	0.1425316	0.4374437	-0.8283182	0.4439373	0	0
29.45331	-0.05323911	0.006704644	0.0142568	0.7122877	-3.871563	8.295286	0	0
29.46988	-0.05310791	0.01647799	0.007919533	0.5899206	-0.1912701	-3.69326	0	0
29.48644	-0.05295046	0.0279983	0.009504983	0.695447	0.04785173	3.184976	0	0
29.51958	-0.05405256	0.03776914	-0.03326159	0.2948844	-0.8604981	-8.059644	0	0
29.5364	-0.05567923	0.03873735	-0.09669431	0.05755363	-1.269739	-4.750676	0	0
29.55271	-0.05583664	0.03802983	-0.009649836	-0.04337481	2.627007	-3.046027	0	0
29.56928	-0.0562826	0.03711731	-0.02691234	-0.05506742	-0.5249725	-0.3555855	0	0
29.58594	-0.05651869	0.03583195	-0.01417839	-0.07719341	0.3832966	-0.6660001	0	0
29.60242	-0.05649246	0.03312937	0.001591661	-0.1639965	0.4759959	-2.620024	0	0
29.61898	-0.05649246	0.03286833	0	-0.01575836	-0.04816675	4.485973	0	0
29.63555	-0.05659739	0.0330175	-0.006334107	0.00900484	-0.1911857	0.7474408	0	0
29.65211	-0.05659739	0.03305479	0	0.002251063	0.1911747	-0.2038411	0	0
29.66868	-0.05662362	0.03307344	-0.001583232	0.001125419	-0.04778203	-0.03397201	0	0
29.68525	-0.05664985	0.03309208	-0.001583639	0.001125549	-1.229066E-05	3.910663E-06	0	0
29.70181	-0.05662362	0.03307344	0.001583457	-0.001125419	0.09558865	-0.06793826	0	0
29.71838	-0.05662362	0.03303614	0	-0.002251322	-0.04779157	-0.03398178	0	0
29.73495	-0.05657115	0.03299885	0.003166689	-0.002250838	0.09557636	1.460965E-05	0	0
29.75155	-0.05654492	0.03298021	0.001579595	-0.001122834	-0.04784351	0.0340041	0	0
29.76808	-0.05654492	0.03298021	0	0	-0.04767227	0.03388719	0	0
29.78465	-0.05654492	0.03294291	0	-0.002251322	0	-0.06802728	0	0
29.80121	-0.05651869	0.03292427	0.001583457	-0.001125419	0.04779157	0.03398178	0	0
29.81778	-0.05646623	0.03284968	0.003167053	-0.004502645	0.04779579	-0.1019307	0	0
29.83434	-0.05641376	0.03281239	0.003167053	-0.002251322	0	0.06795286	0	0
29.85112	-0.05641376	0.03277509	0	-0.002222659	-0.09498044	0.0008596104	0	0
29.86748	-0.05641376	0.03277509	0	0	0	0.06707999	0	0
29.88404	-0.05641376	0.03277509	0	0	0	0	0	0
29.90066	-0.05641376	0.03277509	0	0	0	0	0	0
29.91767	-0.05641376	0.03277509	0	0	0	0	0	0
29.93374	-0.05641376	0.03277509	0	0	0	0	0	0
29.95069	-0.05641376	0.03277509	0	0	0	0	0	0
29.96688	-0.05641376	0.03277509	0	0	0	0	0	0
29.98371	-0.05638753	0.03275645	0.001558163	-0.001107442	0.04718572	-0.03353656	0	0
30.00001	-0.05638753	0.03275645	0	0	-0.04702546	0.03342266	0	0
30.01657	-0.05638753	0.03275645	0	0	0	0	0	0
30.03314	-0.05638753	0.03271915	0	-0.002251288	0	-0.06794792	0	0
30.04976	-0.05638753	0.03268186	0	-0.002244345	0	0.0002092203	0	0
30.06627	-0.05641376	0.03262591	-0.001588394	-0.003387236	-0.04794059	-0.03449451	0	0
30.08284	-0.05638753	0.03260726	0.001583457	-0.001125644	0.09587567	0.06836124	0	0
30.16584	-0.05586287	0.03197318	0.006321466	-0.007639917	0.04758776	-0.06542826	0	0
30.18224	-0.05586287	0.03197318	0	0	-0.06359652	0.07686067	0	0
30.19886	-0.05586287	0.03197318	0	0	0	0	0	0
30.23194	-0.0558104	0.03193588	0.001586105	-0.001127639	0.03191494	-0.02268988	0	0
30.24851	-0.05578417	0.03187992	0.001583457	-0.003377607	-5.333219E-05	-0.04531988	0	0
30.26507	-0.05575794	0.03186127	0.001583457	-0.001125644	0	0.06796437	0	0
30.28164	-0.05525947	0.03143225	0.03008379	-0.02589268	0.8600923	-0.7474275	0	0
30.29821	-0.05239936	0.02936107	0.1726567	-0.125031	4.302859	-2.992002	0	0
30.31478	-0.04691292	0.02545806	0.3311619	-0.2355864	4.783973	-3.336761	0	0
30.33146	-0.03645752	0.01801371	0.6264732	-0.4460552	8.879797	-6.328646	0	0
30.34791	-0.03306689	0.01559746	0.2061781	-0.1469275	-12.68453	9.027694	0	0
30.36448	-0.0279138	0.01192305	0.3109696	-0.221737	3.173941	-2.265842	0	0
30.38104	-0.02680936	0.01113517	0.06667918	-0.04756761	-7.3727	5.256441	0	0
30.39761	-0.02683566	0.01115393	-0.001587645	0.001132651	-2.060771	1.470115	0	0
30.41418	-0.02683566	0.01115393	0	0	0.04791798	-0.03418543	0	0
30.43074	-0.02683566	0.01115393	0	0	0	0	0	0
30.44731	-0.02683566	0.01115393	0	0	0	0	0	0
30.46388	-0.02683566	0.01115393	0	0	0	0	0	0
30.48056	-0.02683566	0.01115393	0	0	0	0	0	0
30.49707	-0.02683566	0.01115393	0	0	0	0	0	0
30.51358	-0.02683566	0.01115393	0	0	0	0	0	0
30.53014	-0.02683566	0.01115393	0	0	0	0	0	0
30.54671	-0.02683566	0.01115393	0	0	0	0	0	0
30.56328	-0.02683566	0.01115393	0	0	0	0	0	0
30.57984	-0.02683566	0.01115393	0	0	0	0	0	0
30.59641	-0.02686196	0.01117269	-0.001587279	0.001132446	-0.04790695	0.03417926	0	0
30.61297	-0.02686196	0.01117269	0	0	0.04790695	-0.03417926	0	0
30.62967	-0.02686196	0.01117269	0	0	0	0	0	0
30.64618	-0.02686196	0.01117269	0	0	0	0	0	0
30.66268	-0.02686196	0.01117269	0	0	0	0	0	0
30.67924	-0.02686196	0.01117269	0	0	0	0	0	0
30.69581	-0.02686196	0.01117269	0	0	0	0	0	0
30.72894	-0.02686196	0.01117269	0	0	0	0	0	0
30.74575	-0.02686196	0.01117269	0	0	0	0	0	0
30.76208	-0.02683566	0.01115393	0.001610832	-0.001149249	0.048615	-0.03468442	0	0
30.77864	-0.02686196	0.01113517	-0.001587645	-0.001132651	-0.0972524	0.0005047019	0	0
30.81177	-0.02683566	0.01111641	0.0007936854	-0.0005662556	0.04791798	0.0113972	0	0
30.82834	-0.02683566	0.01111641	0	0	-0.01596959	0.01139352	0	0
30.8449	-0.02683566	0.01107888	0	-0.002265153	0	-0.06836638	0	0
30.86147	-0.02683566	0.01104136	0	-0.002264631	0	1.574013E-05	0	0
30.89461	-0.02723011	0.0104597	-0.01190517	-0.01755569	-0.2395325	-0.3076568	0	0
30.91117	-0.02865005	0.008094495	-0.08572766	-0.1427966	-1.485482	-2.520143	0	0
30.92774	-0.03056942	0.003077079	-0.11584	-0.302817	-0.9088435	-4.829702	0	0
30.9443	-0.03214682	-0.01135952	-0.09522266	-0.8714951	0.6222315	-17.16274	0	0
30.97744	-0.03422347	-0.04044915	-0.06267731	-0.8779775	0.654864	-0.1304366	0	0
30.994	-0.03472288	-0.05085811	-0.03014414	-0.6282861	0.6545937	5.023994	0	0
31.02714	-0.03645752	-0.06751325	-0.05234865	-0.5026241	-0.4467384	2.528227	0	0
31.04371	-0.03845472	-0.07290678	-0.1205509	-0.3255544	-1.37218	3.562513	0	0
31.06027	-0.04026769	-0.08030137	-0.1094314	-0.4463383	0.3355872	-3.645265	0	0
31.07684	-0.04152874	-0.08339642	-0.07612577	-0.1868388	1.005225	7.83216	0	0
31.09349	-0.04389284	-0.08556505	-0.1419618	-0.1302238	-1.981916	1.704327	0	0
31.10997	-0.04917086	-0.08938374	-0.3202409	-0.231697	-5.380472	-3.062466	0	0
31.12654	-0.05132331	-0.09101367	-0.1299222	-0.09838299	5.758747	4.033874	0	0
31.14311	-0.05612521	-0.09456804	-0.2898764	-0.2145671	-4.827705	-3.506646	0	0
31.15967	-0.05720069	-0.09536503	-0.06491656	-0.04810588	6.789692	5.0241	0	0
31.17624	-0.06118669	-0.09836075	-0.240595	-0.1808221	-5.301987	-4.005384	0	0
31.19306	-0.06336243	-0.09997673	-0.1293479	-0.0960701	3.331937	2.538388	0	0
31.20958	-0.06333622	-0.1000352	0.001587041	-0.003537685	3.927658	2.775697	0	0
31.22609	-0.06331001	-0.1000936	0.001587774	-0.00353932	2.22087E-05	-4.951483E-05	0	0
31.2426	-0.0632576	-0.1001325	0.003174364	-0.002359453	0.04804932	0.03573187	0	0
31.25911	-0.06323139	-0.100152	0.001587408	-0.001179501	-0.04805488	0.03573031	0	0
31.27564	-0.06323139	-0.100152	0	0	-0.0480408	0.03569603	0	0
31.29221	-0.06323139	-0.100152	0	0	0	0	0	0
31.30877	-0.06323139	-0.100152	0	0	0	0	0	0
31.32566	-0.06323139	-0.100152	0	0	0	0	0	0
31.34191	-0.06323139	-0.100152	0	0	0	0	0	0
31.35868	-0.06323139	-0.100152	0	0	0	0	0	0
31.37519	-0.06323139	-0.100152	0	0	0	0	0	0
31.3917	-0.06323139	-0.100152	0	0	0	0	0	0
31.40823	-0.06323139	-0.100152	0	0	0	0	0	0
31.42523	-0.06323139	-0.100152	0	0	0	0	0	0
31.45788	-0.06320518	-0.1001715	0.0008028385	-0.0005965378	0.0161699	-0.01201481	0	0
31.47477	-0.06320518	-0.1001715	0	0	-0.01620663	0.01204211	0	0
31.49128	-0.06320518	-0.1001715	0	0	0	0	0	0
31.50779	-0.06320518	-0.1001715	0	0	0	0	0	0
31.5243	-0.06317896	-0.100191	0.001587591	-0.001179637	0.04807688	-0.03572284	0	0
31.57384	-0.05927259	-0.1033677	0.07885049	-0.06412287	1.169737	-0.952942	0	0
31.59041	-0.05048339	-0.1109257	0.5305176	-0.4561993	6.832189	-5.930783	0	0
31.60736	-0.04722801	-0.1165647	0.1920506	-0.3326747	-10.09812	3.685337	0	0
31.62354	-0.04486461	-0.1266603	0.1460518	-0.6238798	-1.388327	-8.789092	0	0
31.64011	-0.04447066	-0.145449	0.02377884	-1.134089	-3.73362	-15.57929	0	0
31.65689	-0.04431308	-0.1525204	0.009388539	-0.4213006	-0.4314686	21.37174	0	0
31.67324	-0.04449692	-0.1618291	-0.01124591	-0.569411	-0.6227847	-4.47024	0	0
31.68991	-0.04594133	-0.1710952	-0.0866263	-0.5557224	-2.282737	0.4145332	0	0
31.70643	-0.04827825	-0.1753707	-0.1415288	-0.258936	-1.65439	8.943129	0	0
31.72294	-0.04859329	-0.1752502	-0.01907782	0.007299066	3.707743	8.061442	0	0
31.73951	-0.04861955	-0.1752301	-0.001584806	0.001213339	0.5287926	-0.1839641	0	0
31.77264	-0.0486458	-0.17521	-0.0007923362	0.0006062547	0.01594514	-0.01221503	0	0
31.78921	-0.0486458	-0.17521	0	0	0.01594184	-0.01219787	0	0
31.80577	-0.0486458	-0.17521	0	0	0	0	0	0
31.82251	-0.0486458	-0.17521	0	0	0	0	0	0
31.83902	-0.04861955	-0.1751899	0.001590073	0.001216642	0.04782607	0.03659403	0	0
31.87205	-0.04848828	-0.1749288	0.003974832	0.007907703	0.04814218	0.1350754	0	0
31.90517	-0.04843577	-0.1748082	0.001585059	0.003638606	-0.03612518	-0.06453409	0	0
31.92174	-0.04843577	-0.1748082	0	0	-0.03189511	-0.07321733	0	0
31.93859	-0.04843577	-0.1748082	0	0	0	0	0	0
31.95511	-0.04840952	-0.1748283	0.001589706	-0.001216361	0.04764827	-0.036458	0	0
31.98801	-0.04846203	-0.1748283	-0.001595901	0	-0.06446563	0.02461492	0	0
32.00467	-0.04846203	-0.1747881	0	0.002410725	0.03219733	0.04863639	0	0
32.02115	-0.04854079	-0.1747279	-0.004779279	0.003656684	-0.1441974	0.03759231	0	0
32.03771	-0.04867205	-0.1746275	-0.007928832	0.006065488	-0.0953391	0.07291612	0	0
32.05428	-0.04885583	-0.1744869	-0.01109274	0.008486178	-0.09552	0.07308179	0	0
32.07084	-0.04888208	-0.1744668	-0.001584946	0.001212719	0.2869789	-0.2195387	0	0
32.08741	-0.04890833	-0.1744869	-0.001584581	-0.001212439	1.101584E-05	-0.07319985	0	0
32.10397	-0.04896084	-0.1744467	-0.003169162	0.002424879	-0.04782275	0.1097745	0	0
32.12054	-0.04906585	-0.1743262	-0.006338549	0.007272839	-0.09565229	0.1463117	0	0
32.13711	-0.04927587	-0.1741655	-0.01267665	0.009697718	-0.1912842	0.07318299	0	0
32.15368	-0.04932837	-0.1741254	-0.003169162	0.00242398	0.2869365	-0.2195219	0	0
32.17025	-0.04945963	-0.174025	-0.007917212	0.006056216	-0.143247	0.1095833	0	0
32.18681	-0.04953839	-0.1739647	-0.004758126	0.003639772	0.0953524	-0.07293683	0	0
32.20337	-0.0502209	-0.1734427	-0.0412059	0.03151539	-1.100629	0.8417724	0	0
32.22029	-0.05085086	-0.172961	-0.03723599	0.02847467	0.11857	-0.09081781	0	0
32.2365	-0.05205819	-0.1720379	-0.07445146	0.05692135	-1.123165	0.8585225	0	0
32.25307	-0.05205819	-0.1720379	0	0	2.271003	-1.73628	0	0
32.26963	-0.05205819	-0.1720379	0	0	0	0	0	0
32.2862	-0.05208443	-0.1719778	-0.001584131	0.003632822	-0.04781469	0.1096514	0	0
32.30277	-0.05216316	-0.1715966	-0.004752169	0.02300577	-0.09561158	0.5846767	0	0
32.31934	-0.05260931	-0.1707744	-0.02692934	0.04963087	-0.6693082	0.8035472	0	0
32.3359	-0.05591534	-0.1677286	-0.1995524	0.1838411	-5.209776	4.050473	0	0
32.35247	-0.06755494	-0.1587353	-0.702568	0.5428365	-15.18104	10.8345	0	0
32.36903	-0.0725828	-0.154869	-0.3035517	0.2334277	12.04372	-9.339053	0	0
32.3856	-0.08129413	-0.1482472	-0.525817	0.3996895	-6.708752	5.018371	0	0
32.40217	-0.08691208	-0.1439818	-0.3391004	0.2574644	5.635118	-4.292363	0	0
32.41893	-0.09385502	-0.1382008	-0.414307	0.3449691	-2.256751	2.625782	0	0
32.43544	-0.09896511	-0.1308165	-0.3094428	0.4471578	3.151745	3.071332	0	0
32.45195	-0.1015182	-0.1178784	-0.1546407	0.7836526	4.687587	10.18945	0	0
32.46896	-0.101987	-0.09367415	-0.02756057	1.422964	3.791203	19.07267	0	0
32.485	-0.1020652	-0.07398674	-0.004870504	1.227333	0.6865264	-5.91913	0	0
32.50157	-0.1019349	-0.04976775	0.007859721	1.461861	0.3904015	7.192337	0	0
32.51814	-0.1017005	-0.03460167	0.01414813	0.9154267	0.1897845	-16.49142	0	0
32.55127	-0.1001116	-0.01682288	0.04796074	0.5366265	0.6803634	-7.62206	0	0
32.56803	-0.09317677	-0.009452358	0.4136328	0.4396221	7.32865	-1.944123	0	0
32.5844	-0.09174175	-0.008753976	0.08766805	0.04266527	-9.837636	-11.98018	0	0
32.60097	-0.09171566	-0.008848343	0.001574912	-0.005696015	-2.613945	-1.468337	0	0
32.61756	-0.09148079	-0.009055961	0.01415365	-0.01251167	0.3793212	-0.2055314	0	0
32.63457	-0.0914025	-0.009112585	0.004601668	-0.003328195	-0.2842218	0.273257	0	0
32.65067	-0.09137641	-0.009131461	0.001621585	-0.001173125	-0.09002201	0.06510009	0	0
32.66723	-0.09137641	-0.009131461	0	0	-0.04965409	0.03592194	0	0
32.68411	-0.09137641	-0.009131461	0	0	0	0	0	0
32.70062	-0.09137641	-0.009131461	0	0	0	0	0	0
32.71713	-0.09137641	-0.009131461	0	0	0	0	0	0
32.73365	-0.09135031	-0.009150336	0.001580092	-0.001142725	0.04784148	-0.03459904	0	0
32.75007	-0.09127202	-0.009244715	0.004768457	-0.005748309	0.09680459	-0.1398339	0	0
32.76667	-0.09121983	-0.009282468	0.003143037	-0.002273542	-0.04921959	0.10522	0	0
32.79977	-0.09001921	-0.01033971	0.03627644	-0.03194438	0.6666453	-0.5969784	0	0
32.81634	-0.08811336	-0.01171842	0.1150374	-0.08321895	1.585891	-1.032439	0	0
32.8329	-0.08816558	-0.01164286	-0.003152073	0.004560871	-3.566965	2.6492	0	0
32.84973	-0.08816558	-0.01164286	0	0	0.0943908	-0.1365781	0	0
32.86604	-0.08816558	-0.01164286	0	0	0	0	0	0
32.88276	-0.08813947	-0.01166175	0.001561876	-0.001129798	0.04728996	-0.03420764	0	0
32.89917	-0.08813947	-0.01166175	0	0	-0.04713752	0.03409737	0	0
32.91574	-0.08811336	-0.01168064	0.001576175	-0.001140466	0.04779464	-0.03458258	0	0
32.9323	-0.08811336	-0.01168064	0	0	-0.04757452	0.0344233	0	0
32.94887	-0.08811336	-0.01168064	0	0	0	0	0	0
32.96544	-0.08808725	-0.01169953	0.001576261	-0.00114026	0.04757166	-0.03441311	0	0
32.98201	-0.08808725	-0.01169953	0	0	-0.04757166	0.03441311	0	0
32.99857	-0.08806113	-0.01168064	0.001576261	0.00114026	0.04757166	0.03441311	0	0
33.01514	-0.08806113	-0.01168064	0	0	-0.04757166	-0.03441311	0	0
33.04827	-0.08800891	-0.01168064	0.001576037	0	0.03170992	0	0	0
