Time	Pos X	Pos Y	Vel X	Vel Y	Acc X	Acc YForce X	Force Y
0.01656516	0.004710491	-0.04800872	-7.260603E-05	0.0007399913	1.119411E-06	-1.14089E-05	0	0
0.1271348	0.01213098	-0.04266158	0.06711149	0.0483599	-0.001037322	-0.0007352515	0	0
0.1439869	0.01599864	-0.03993442	0.229505	0.1618288	1.274457	0.8904988	0	0
0.1602694	0.02133887	-0.03633378	0.3279733	0.2211353	2.971761	1.789862	0	0
0.1768634	0.02139147	-0.03660035	0.00317034	-0.01606407	-9.87949	-7.214862	0	0
0.1934033	0.02197015	-0.03747638	0.03498666	-0.05296458	0.9602358	-1.113679	0	0
0.210036	0.02202275	-0.03762876	0.003162743	-0.009161449	-0.9593451	1.320463	0	0
0.226547	0.02197015	-0.03762876	-0.003186034	0	-0.1915529	0.2764158	0	0
0.2431051	0.02197015	-0.03762876	0	0	0.09634469	0	0	0
0.2596718	0.02191754	-0.03759066	-0.003175443	0.002299703	-0.09586308	0.06942546	0	0
0.2762385	0.02189124	-0.03757161	-0.001587665	0.001149739	0.04792069	-0.03470704	0	0
0.2928053	0.02186494	-0.03755257	-0.001587778	0.001149739	-3.394069E-06	0	0	0
0.3093712	0.02183863	-0.03753352	-0.00158774	0.001149793	1.152464E-06	1.623288E-06	0	0
0.3261274	0.02183863	-0.03753352	0	0	0.04764817	-0.03450536	0	0
0.3426322	0.02183863	-0.03753352	0	0	0	0	0	0
0.3590718	0.02173342	-0.03745733	-0.00639999	0.004634288	-0.1942665	0.14067	0	0
0.3756555	0.02152299	-0.03726687	-0.01268887	0.01148494	-0.1904376	0.2074489	0	0
0.3922053	0.02147038	-0.03722878	-0.003178697	0.002301609	0.2870262	-0.2771617	0	0
0.408772	0.02139147	-0.03717164	-0.004763221	0.003448767	-0.04784699	0.03464009	0	0
0.4253383	0.02139147	-0.03717164	0	0	0.1437604	-0.1040884	0	0
0.4419043	0.02139147	-0.03717164	0	0	0	0	0	0
0.4584694	0.02139147	-0.03720973	0	-0.002299472	0	-0.06940527	0	0
0.4750377	0.02141778	-0.03722878	0.001587626	-0.001149405	0.04791613	0.03471018	0	0
0.4916033	0.02139147	-0.03732401	-0.001587889	-0.005748649	-0.09583898	-0.138808	0	0
0.5276185	0.02128626	-0.03747638	-0.002921409	-0.00423076	-0.02536133	0.02886775	0	0
0.5442705	0.02102322	-0.03778115	-0.01579637	-0.01830208	-0.2444586	-0.2671741	0	0
0.5607804	0.02049713	-0.03827645	-0.03186509	-0.03000063	-0.4845542	-0.3527711	0	0
0.5773195	0.0189188	-0.0394579	-0.09543041	-0.07143375	-1.923366	-1.253688	0	0
0.5943043	0.01736668	-0.04073515	-0.09138308	-0.07519972	0.1207297	-0.112337	0	0
0.6104514	0.01739298	-0.04075422	0.001629267	-0.001180769	2.807336	2.234069	0	0
0.6270182	0.01739298	-0.04075422	0	0	-0.04980353	0.0360938	0	0
0.6435857	0.01739298	-0.04075422	0	0	0	0	0	0
0.660152	0.01736668	-0.04073515	-0.00158804	0.00115089	-0.04792799	0.03473456	0	0
0.6767184	0.01736668	-0.04073515	0	0	0.04792972	-0.03473581	0	0
0.6933747	0.01734037	-0.04071608	-0.001579459	0.001144895	-0.04754159	0.03446126	0	0
0.7098858	0.01731406	-0.04069702	-0.001593354	0.001154742	-0.0004189452	0.0002968769	0	0
0.7264181	0.01723514	-0.04071608	-0.00477391	-0.001153255	-0.09625375	-0.06984735	0	0
0.7434128	0.01623541	-0.0413263	-0.0588256	-0.03590643	-1.612183	-1.036572	0	0
0.7595512	0.01060487	-0.04502841	-0.3488907	-0.2293974	-8.754542	-5.839811	0	0
0.7761183	0.005710464	-0.04839103	-0.2954288	-0.2029693	1.634643	0.8080627	0	0
0.7926851	-0.002552626	-0.05428489	-0.4987755	-0.3557641	-6.137126	-4.61144	0	0
0.8092514	-0.013315	-0.06178432	-0.6496534	-0.4526912	-4.553694	-2.925385	0	0
0.8258182	-0.02026039	-0.06674359	-0.4192363	-0.2993508	6.954291	4.628014	0	0
0.8423901	-0.02817675	-0.07250191	-0.4776987	-0.3474751	-1.764177	-1.452212	0	0
0.8589923	-0.03543253	-0.07790513	-0.4370353	-0.325451	1.225755	0.6638922	0	0
0.875518	-0.04013633	-0.0813649	-0.2846355	-0.2093569	4.600336	3.504414	0	0
0.8920863	-0.04131858	-0.08227406	-0.07135595	-0.05487328	6.444663	4.668027	0	0
0.9090297	-0.0407406	-0.08184846	0.03411224	0.02511899	3.147211	2.387	0	0
0.941785	-0.04066179	-0.08179042	0.002406204	0.001771699	-0.6379657	-0.4697772	0	0
0.9583513	-0.04063552	-0.08177108	0.001585791	0.001167531	-0.01663393	-0.01224956	0	0
0.9749181	-0.04063552	-0.08177108	0	0	-0.04786125	-0.03523761	0	0
0.9915886	-0.04060924	-0.08175174	0.001576104	0.001160234	0.04741975	0.03490761	0	0
1.008052	-0.04053042	-0.08169371	0.004787379	0.00352497	0.09691842	0.07136931	0	0
1.024621	-0.04037279	-0.08153898	0.009514086	0.009338936	0.143095	0.1760104	0	0
1.041186	-0.04018888	-0.08140358	0.01110242	0.008173274	0.04793689	-0.03518038	0	0
1.057754	-0.04011006	-0.08134556	0.004757361	0.003502252	-0.1915019	-0.1409773	0	0
1.074319	-0.03997869	-0.08121018	0.007930226	0.008172198	0.09576002	0.1409433	0	0
1.090887	-0.03989987	-0.08119084	0.004757497	0.001167451	-0.09575726	-0.2114128	0	0
1.107454	-0.03987359	-0.08117151	0.001585908	0.001167001	-0.09571739	-1.357215E-05	0	0
1.124019	-0.03979477	-0.08111349	0.00475851	0.003502483	0.09575588	0.07048979	0	0
1.140695	-0.0396634	-0.08101679	0.007877897	0.005798347	0.09384215	0.06906768	0	0
1.157153	-0.03947948	-0.08088143	0.01117533	0.008224804	0.09951852	0.07323193	0	0
1.173718	-0.03837589	-0.08006939	0.06662082	0.04902076	1.678996	1.23538	0	0
1.190285	-0.03519599	-0.07773129	0.1919447	0.1411323	3.782568	2.780142	0	0
1.223418	-0.02344307	-0.06911097	0.3547139	0.2601693	3.275017	2.395099	0	0
1.240261	-0.01834005	-0.06537797	0.3029809	0.2216388	-1.035151	-0.7709762	0	0
1.256554	-0.01315714	-0.06159227	0.3181105	0.2323535	0.4565955	0.3233597	0	0
1.273285	-0.006815684	-0.05700621	0.3790262	0.2741075	1.844607	1.264364	0	0
1.289796	-0.005920983	-0.05635439	0.05418671	0.03947674	-9.77186	-7.058191	0	0
1.306308	-0.0005526315	-0.05240828	0.3251292	0.2389925	8.204691	6.041744	0	0
1.32282	-0.0003421053	-0.05225514	0.01274968	0.009274267	-9.459249	-6.95616	0	0
1.339388	-0.0003421053	-0.05225514	0	0	-0.3854129	-0.2803538	0	0
1.355954	-0.0003157895	-0.05227428	0.001588551	-0.001155417	0.0479429	-0.0348708	0	0
1.372519	-0.0003157895	-0.05227428	0	0	-0.04794807	0.03487457	0	0
1.389085	-0.0003157895	-0.05227428	0	0	0	0	0	0
1.405653	-0.0003157895	-0.05231256	0	-0.002310676	0	-0.06973609	0	0
1.422389	-0.0002894737	-0.05236999	0.001572436	-0.003431537	0.04721415	-0.0336551	0	0
1.438785	-0.0003421053	-0.05240828	-0.003210063	-0.002335036	-0.1443491	0.03309542	0	0
1.455416	-0.0003421053	-0.05244656	0	-0.002301948	0.09719425	0.001001853	0	0
1.471918	-0.0003421053	-0.05244656	0	0	0	0.06947593	0	0
1.488485	-0.000368421	-0.05250399	-0.001588435	-0.003466451	-0.04803444	-0.1048259	0	0
1.505053	-0.000368421	-0.05258057	0	-0.004621902	0.04793767	-0.03487057	0	0
1.521618	-0.0003947368	-0.052638	-0.001588619	-0.003467075	-0.047946	0.03485374	0	0
1.538473	-0.0005	-0.05279116	-0.006245526	-0.00908724	-0.1393475	-0.1681709	0	0
1.554984	-0.000736842	-0.05296347	-0.01434443	-0.01043622	-0.2427347	-0.04043071	0	0
1.571496	-0.0008947366	-0.05307836	-0.009562464	-0.006957655	0.1448071	0.1053377	0	0
1.588016	-0.0009736839	-0.0530975	-0.004778747	-0.001158819	0.1448189	0.1755499	0	0
1.604522	-0.001131578	-0.05325069	-0.009565914	-0.009280524	-0.1449495	-0.2459151	0	0
1.62103	-0.001342105	-0.05336558	-0.01275308	-0.00696004	-0.09654023	0.07028826	0	0
1.637585	-0.001447367	-0.05340388	-0.006358391	-0.002313265	0.1934102	0.1405439	0	0
1.654152	-0.001578946	-0.05349963	-0.007942332	-0.005779716	-0.04782185	-0.104658	0	0
1.67072	-0.001710525	-0.05359538	-0.007941417	-0.005779051	2.760064E-05	2.006809E-05	0	0
1.687285	-0.002157891	-0.05392096	-0.02700719	-0.01965497	-0.5754248	-0.4187896	0	0
1.703852	-0.003526301	-0.05491708	-0.08259975	-0.06012767	-1.677938	-1.221578	0	0
1.720419	-0.0045526	-0.05566439	-0.06194931	-0.04510913	0.6232497	0.4532734	0	0
1.737112	-0.004578915	-0.05568355	-0.001576392	-0.001147927	1.815168	1.321735	0	0
1.753552	-0.004578915	-0.05568355	0	0	0.04757748	0.03464589	0	0
1.786685	-0.004578915	-0.05568355	0	0	0	0	0	0
1.886219	-0.004763122	-0.05581771	-0.001850684	-0.00134783	-0.01394983	-0.01015949	0	0
1.902651	-0.004868383	-0.05589437	-0.006405642	-0.004665306	-0.03927816	-0.02860714	0	0
1.919243	-0.005210479	-0.05614354	-0.02061917	-0.01501797	-0.4304038	-0.3134919	0	0
1.936253	-0.008973443	-0.0588858	-0.2212148	-0.1612104	-5.969817	-4.350751	0	0
1.969281	-0.0242584	-0.07013167	-0.462791	-0.3404974	-4.827834	-3.583002	0	0
1.985788	-0.03582677	-0.07861992	-0.7007946	-0.5142056	-4.804729	-3.506758	0	0
2.002301	-0.04402417	-0.08469351	-0.4964178	-0.3678044	6.18937	4.433632	0	0
2.018814	-0.05431494	-0.09233387	-0.6232243	-0.4627109	-3.839681	-2.873755	0	0
2.035185	-0.06131777	-0.09752394	-0.4277391	-0.317014	5.944712	4.430647	0	0
2.051839	-0.0694408	-0.1036407	-0.4877732	-0.367303	-1.817837	-1.522755	0	0
2.068345	-0.07281839	-0.1061969	-0.2046195	-0.1548571	8.539021	6.406699	0	0
2.084885	-0.07784239	-0.1099479	-0.3037564	-0.2267913	-2.999944	-2.176775	0	0
2.101452	-0.08380327	-0.1145269	-0.3597991	-0.276389	-1.692785	-1.498111	0	0
2.118019	-0.08644194	-0.1167411	-0.1592753	-0.1336524	6.051906	4.307862	0	0
2.134586	-0.09088055	-0.1201937	-0.2679227	-0.2084003	-3.279077	-2.255963	0	0
2.151405	-0.09067175	-0.1204685	0.01241415	-0.01634017	8.39672	5.752635	0	0
2.167718	-0.09054125	-0.1204881	0.007999646	-0.001203486	-0.1332378	0.4568523	0	0
2.184287	-0.09046295	-0.1204292	0.004725991	0.003554611	-0.09955771	0.1447023	0	0
2.200939	-0.09017583	-0.120174	0.017242	0.01532567	0.376747	0.3543233	0	0
2.217453	-0.09014972	-0.1201544	0.001580976	0.001188439	-0.4722122	-0.4262668	0	0
2.233986	-0.09007142	-0.1200955	0.004736146	0.003561798	0.09547602	0.07181828	0	0
2.250552	-0.08999311	-0.1200366	0.004726808	0.003554775	-0.000282127	-0.000212172	0	0
2.267118	-0.089967	-0.120017	0.001575925	0.001185092	-0.09509999	-0.07152181	0	0
2.283687	-0.0899409	-0.1199974	0.001575676	0.001184455	-7.529208E-06	-1.923233E-05	0	0
2.300252	-0.0899148	-0.1199777	0.001575589	0.001185177	-2.621088E-06	2.180843E-05	0	0
2.316819	-0.08981039	-0.1199385	0.006302529	0.002369182	0.1426716	0.03573642	0	0
2.333389	-0.08975817	-0.1198992	0.003151034	0.00236912	-0.09510478	-1.861966E-06	0	0
2.349955	-0.08970597	-0.11986	0.0031514	0.002369734	1.105961E-05	1.852169E-05	0	0
2.366559	-0.08962765	-0.1198011	0.004716668	0.003546363	0.04718995	0.03547322	0	0
2.383087	-0.08957544	-0.1197618	0.003158942	0.002374616	-0.04701529	-0.0353657	0	0
2.399652	-0.08957544	-0.1197618	0	0	-0.09545452	-0.07175434	0	0
2.41622	-0.08952323	-0.1197618	0.003151128	0	0.0951074	0	0	0
2.432787	-0.08952323	-0.1197618	0	0	-0.09510056	0	0	0
2.548754	-0.0810327	-0.1133521	0.07321475	0.05527213	0.5524194	0.4170388	0	0
2.566198	-0.07700533	-0.110339	0.2308822	0.1727337	1.181818	0.8804497	0	0
2.582711	-0.07488602	-0.1087556	0.1283392	0.09588456	-3.019809	-2.263148	0	0
2.598453	-0.07187597	-0.1065093	0.1912193	0.1427024	1.949486	1.451504	0	0
2.61502	-0.07116907	-0.1059822	0.04266772	0.03181619	-4.597864	-3.432072	0	0
2.631746	-0.07116907	-0.1059822	0	0	-1.281573	-0.9556349	0	0
2.648258	-0.07116907	-0.1059822	0	0	0	0	0	0
2.664773	-0.07116907	-0.1059822	0	0	0	0	0	0
2.681285	-0.07116907	-0.1059822	0	0	0	0	0	0
2.714418	-0.07116907	-0.1059822	0	0	0	0	0	0
2.730986	-0.07116907	-0.1059822	0	0	0	0	0	0
2.74783	-0.07116907	-0.1059822	0	0	0	0	0	0
2.764119	-0.07116907	-0.1059822	0	0	0	0	0	0
2.780852	-0.07116907	-0.1059822	0	0	0	0	0	0
2.797363	-0.07116907	-0.1059822	0	0	0	0	0	0
2.813872	-0.07119525	-0.1060017	-0.001585809	-0.001182362	-0.04802568	-0.03580742	0	0
2.849902	-0.07119525	-0.1060017	0	0	0.03018326	0.02250431	0	0
2.866414	-0.07119525	-0.1060017	0	0	0	0	0	0
2.882923	-0.07119525	-0.1060017	0	0	0	0	0	0
2.899437	-0.07119525	-0.1060017	0	0	0	0	0	0
2.915863	-0.07119525	-0.1060017	0	0	0	0	0	0
2.93243	-0.07116907	-0.1059822	0.001580309	0.001178261	0.04789785	0.03571211	0	0
2.948998	-0.07119525	-0.1060017	-0.001580241	-0.00117821	-0.09538351	-0.0711169	0	0
2.965563	-0.07119525	-0.1060017	0	0	0.04769382	0.03555999	0	0
2.982131	-0.07119525	-0.1060017	0	0	0	0	0	0
2.998709	-0.07119525	-0.1060017	0	0	0	0	0	0
3.015264	-0.07119525	-0.1060017	0	0	0	0	0	0
3.03183	-0.07119525	-0.1060017	0	0	0	0	0	0
3.048398	-0.07119525	-0.1060017	0	0	0	0	0	0
3.064965	-0.07116907	-0.1060212	0.0015804	-0.001178329	0.04769588	-0.03556152	0	0
3.081563	-0.07116907	-0.1060212	0	0	-0.04765267	0.03552931	0	0
3.098101	-0.07116907	-0.1060212	0	0	0	0	0	0
3.114664	-0.07119525	-0.1060407	-0.001580741	-0.001179033	-0.04775565	-0.03561968	0	0
3.1316	-0.07119525	-0.1060407	0	0	0.0471877	0.03519607	0	0
3.1478	-0.07119525	-0.1060407	0	0	0	0	0	0
3.18093	-0.07114289	-0.1060798	0.001580536	-0.001178431	0.03204022	-0.02388884	0	0
3.197496	-0.07109052	-0.1061188	0.003161249	-0.002356658	0.03180768	-0.02370871	0	0
3.214063	-0.07101198	-0.1061774	0.004741063	-0.003535334	0.04768092	-0.03557407	0	0
3.230667	-0.07069777	-0.1064507	0.01892357	-0.01646142	0.4275611	-0.3896839	0	0
3.247196	-0.06938842	-0.1074271	0.07921607	-0.05907241	1.819723	-1.286067	0	0
3.263763	-0.06729298	-0.1090292	0.1264846	-0.09670563	1.428241	-1.137107	0	0
3.28033	-0.06286442	-0.1124517	0.2673083	-0.2065802	4.25013	-3.316068	0	0
3.296897	-0.05767281	-0.1163687	0.3133752	-0.2364388	1.390321	-0.9011483	0	0
3.313726	-0.0502209	-0.1219806	0.442783	-0.3334527	3.874894	-2.904913	0	0
3.33003	-0.04496966	-0.1259125	0.3220916	-0.2411691	-3.642605	2.785225	0	0
3.3466	-0.03989987	-0.1297127	0.3059651	-0.229345	-0.4905643	0.3596852	0	0
3.363165	-0.03708825	-0.1318221	0.1697316	-0.1273388	-4.111475	3.078508	0	0
3.379773	-0.03020134	-0.137153	0.4146682	-0.3209769	7.383543	-5.837162	0	0
3.396297	-0.02701974	-0.1397437	0.1925517	-0.1567884	-6.70407	4.955647	0	0
3.412865	-0.0246529	-0.1419212	0.1428525	-0.131426	-1.501858	0.7664255	0	0
3.429809	-0.02520519	-0.1422579	-0.03259419	-0.01987125	-5.23521	3.328718	0	0
3.445996	-0.02565227	-0.142555	-0.02761975	-0.01835609	0.1501429	0.04573199	0	0
3.462565	-0.02662528	-0.1432485	-0.05872725	-0.04185314	-0.9496915	-0.7173494	0	0
3.479131	-0.02696715	-0.1434268	-0.02063623	-0.01076612	1.149589	0.938208	0	0
3.495697	-0.02720381	-0.1432881	-0.01428611	0.00837333	0.1916593	0.5776673	0	0
3.512264	-0.02738789	-0.1431494	-0.01111073	0.008372849	0.09583596	-1.453193E-05	0	0
3.528831	-0.02744048	-0.1430701	-0.003174629	0.004783475	0.2395189	-0.1083306	0	0
3.595118	-0.02754566	-0.1430305	-0.001586784	0.0005979592	0.01916448	-0.05051703	0	0
3.611664	-0.02754566	-0.1430305	0	0	0.01915624	-0.007218786	0	0
3.644797	-0.02786121	-0.1427531	-0.009523843	0.008371592	-0.1917084	0.1685144	0	0
3.661365	-0.02799269	-0.1426541	-0.007935605	0.005979192	0.03195634	-0.04813657	0	0
3.67793	-0.02812416	-0.142555	-0.007936635	0.005979152	-3.108765E-05	-1.180544E-06	0	0
3.694497	-0.02815046	-0.1425352	-0.001587213	0.001196284	0.1916384	-0.1443566	0	0
3.711064	-0.02815046	-0.1425352	0	0	0.04790355	-0.03610497	0	0
3.72763	-0.02815046	-0.1425352	0	0	0	0	0	0
3.744197	-0.02815046	-0.1425352	0	0	0	0	0	0
3.760763	-0.02815046	-0.1425352	0	0	0	0	0	0
3.77733	-0.02815046	-0.1425352	0	0	0	0	0	0
3.794066	-0.02815046	-0.1425352	0	0	0	0	0	0
3.810464	-0.02815046	-0.1425352	0	0	0	0	0	0
3.82703	-0.02815046	-0.1425352	0	0	0	0	0	0
3.843601	-0.02812416	-0.142555	0.001586847	-0.001196009	0.04788701	-0.0360925	0	0
3.860617	-0.02815046	-0.1425352	-0.001545314	0.001164705	-0.09325655	0.07028757	0	0
3.876732	-0.02812416	-0.142555	0.001631664	-0.001229787	0.09589035	-0.07227268	0	0
3.893297	-0.02812416	-0.142555	0	0	-0.04992883	0.03763142	0	0
3.910151	-0.02812416	-0.142555	0	0	0	0	0	0
3.92643	-0.02812416	-0.142555	0	0	0	0	0	0
3.942997	-0.02815046	-0.1425748	-0.001587281	-0.001195436	-0.04832534	-0.03639548	0	0
3.959684	-0.02815046	-0.1425748	0	0	0.0477332	0.03594952	0	0
3.976197	-0.02815046	-0.1425748	0	0	0	0	0	0
3.992697	-0.02812416	-0.1425946	0.001593588	-0.001201089	0.04827069	-0.03638168	0	0
4.009264	-0.02812416	-0.1425946	0	0	-0.04819238	0.03632266	0	0
4.025831	-0.02812416	-0.1425946	0	0	0	0	0	0
4.042397	-0.02812416	-0.1425946	0	0	0	0	0	0
4.058963	-0.02812416	-0.1425946	0	0	0	0	0	0
4.075768	-0.02812416	-0.1425946	0	0	0	0	0	0
4.092097	-0.02812416	-0.1425946	0	0	0	0	0	0
4.108663	-0.02815046	-0.1425748	-0.001587258	0.001196319	-0.04825144	0.03636717	0	0
4.125302	-0.02815046	-0.1425748	0	0	0.04780106	-0.03602771	0	0
4.209445	-0.02812416	-0.1425946	0.0003125027	-0.0002355336	0.003100767	-0.002337051	0	0
4.242579	-0.02812416	-0.1425946	0	0	-0.002664662	0.002008359	0	0
4.259145	-0.02812416	-0.1425946	0	0	0	0	0	0
4.275908	-0.02812416	-0.1425946	0	0	0	0	0	0
4.292279	-0.02812416	-0.1425946	0	0	0	0	0	0
4.308928	-0.02812416	-0.1425946	0	0	0	0	0	0
4.325412	-0.02812416	-0.1425946	0	0	0	0	0	0
4.341981	-0.02812416	-0.1425946	0	0	0	0	0	0
4.358547	-0.02812416	-0.1425946	0	0	0	0	0	0
4.375112	-0.02812416	-0.1425946	0	0	0	0	0	0
4.4085	-0.02812416	-0.1425946	0	0	0	0	0	0
4.424812	-0.02812416	-0.1425946	0	0	0	0	0	0
4.441379	-0.02812416	-0.1425946	0	0	0	0	0	0
4.49108	-0.02812416	-0.1426343	0	-0.0007972076	0	-0.01202997	0	0
4.507645	-0.02812416	-0.1426343	0	0	0	0.01203041	0	0
4.524213	-0.02812416	-0.1426343	0	0	0	0	0	0
4.541095	-0.02812416	-0.1426343	0	0	0	0	0	0
4.557345	-0.02812416	-0.1426343	0	0	0	0	0	0
4.574117	-0.02812416	-0.1426343	0	0	0	0	0	0
4.590631	-0.02812416	-0.1426343	0	0	0	0	0	0
4.607139	-0.02812416	-0.1426343	0	0	0	0	0	0
4.623651	-0.02812416	-0.1426343	0	0	0	0	0	0
4.640179	-0.02812416	-0.1426343	0	0	0	0	0	0
4.656745	-0.02815046	-0.1426541	-0.001587258	-0.001195419	-0.04796222	-0.03612201	0	0
4.673312	-0.02815046	-0.1426541	0	0	0.04790562	0.03607938	0	0
4.689878	-0.02815046	-0.1426541	0	0	0	0	0	0
4.706446	-0.02815046	-0.1426541	0	0	0	0	0	0
4.723011	-0.02815046	-0.1426541	0	0	0	0	0	0
4.73958	-0.02815046	-0.1426541	0	0	0	0	0	0
4.756145	-0.02815046	-0.1426541	0	0	0	0	0	0
4.772712	-0.02815046	-0.1426541	0	0	0	0	0	0
4.789278	-0.02815046	-0.1426541	0	0	0	0	0	0
4.805847	-0.02815046	-0.1426541	0	0	0	0	0	0
4.822412	-0.02815046	-0.1426541	0	0	0	0	0	0
4.839306	-0.02815046	-0.1426541	0	0	0	0	0	0
4.855819	-0.02817675	-0.1426739	-0.001592392	-0.001200188	-0.04766611	-0.03592601	0	0
4.872326	-0.02817675	-0.1426739	0	0	0.04822504	0.03634727	0	0
4.888845	-0.02817675	-0.1426739	0	0	0	0	0	0
4.905355	-0.02817675	-0.1426739	0	0	0	0	0	0
4.921863	-0.02817675	-0.1426739	0	0	0	0	0	0
4.938379	-0.02817675	-0.1426739	0	0	0	0	0	0
4.954946	-0.02817675	-0.1426739	0	0	0	0	0	0
4.971512	-0.02820305	-0.1426937	-0.001587304	-0.001195453	-0.047907	-0.03608042	0	0
4.988079	-0.02820305	-0.1426937	0	0	0.04790769	0.03608093	0	0
5.004927	-0.02820305	-0.1426937	0	0	0	0	0	0
5.021435	-0.02817675	-0.1427135	0.001592852	-0.001200534	0.04775213	-0.03599084	0	0
5.037946	-0.02817675	-0.1427135	0	0	-0.04824106	0.03635935	0	0
5.054347	-0.02820305	-0.1427333	-0.001603225	-0.001207444	-0.04871281	-0.0366873	0	0
5.07097	-0.02822934	-0.1427531	-0.00158184	-0.001192235	0.0006475506	0.000460549	0	0
5.087479	-0.02822934	-0.1427531	0	0	0.04774347	0.03598431	0	0
5.104047	-0.02822934	-0.1427531	0	0	0	0	0	0
5.120613	-0.02825564	-0.1427729	-0.001587258	-0.001195419	-0.04790424	-0.03607834	0	0
5.137178	-0.02825564	-0.1427729	0	0	0.04790769	0.03608093	0	0
5.153746	-0.02825564	-0.1427729	0	0	0	0	0	0
5.170311	-0.02825564	-0.1427729	0	0	0	0	0	0
5.203446	-0.02825564	-0.1427729	0	0	0	0	0	0
5.220075	-0.02825564	-0.1427729	0	0	0	0	0	0
5.236581	-0.02828193	-0.1427927	-0.001593082	-0.001200708	-0.04807862	-0.03623691	0	0
5.253146	-0.02830823	-0.1428522	-0.00158735	-0.003587363	0.0001733291	-0.07216754	0	0
5.270112	-0.02830823	-0.1428522	0	0	0.0473395	0.1069859	0	0
5.286619	-0.02833452	-0.142872	-0.001592944	-0.001200604	-0.0475889	-0.03586781	0	0
5.303131	-0.02833452	-0.142872	0	0	0.04824385	0.03636145	0	0
5.319413	-0.02833452	-0.142872	0	0	0	0	0	0
5.336162	-0.02833452	-0.142872	0	0	0	0	0	0
5.352671	-0.02833452	-0.142872	0	0	0	0	0	0
5.369112	-0.02836081	-0.1428522	-0.001599252	0.001205444	-0.04853655	0.03658465	0	0
5.385689	-0.02836081	-0.1428522	0	0	0.04843491	-0.03650804	0	0
5.402245	-0.02833452	-0.142872	0.001588197	-0.001197111	0.04793396	-0.03613044	0	0
5.418814	-0.02833452	-0.142872	0	0	-0.04794638	0.0361398	0	0
5.435379	-0.02833452	-0.142872	0	0	0	0	0	0
5.451945	-0.02836081	-0.1428918	-0.0015871	-0.001196284	-0.04790292	-0.03610704	0	0
5.468512	-0.02836081	-0.1428918	0	0	0.04790016	0.03610497	0	0
5.485262	-0.02836081	-0.1428918	0	0	0	0	0	0
5.501772	-0.02836081	-0.1428918	0	0	0	0	0	0
5.518214	-0.02838711	-0.142872	-0.001599319	0.001205409	-0.04853507	0.03658094	0	0
5.53478	-0.02838711	-0.142872	0	0	0.04845373	-0.03651964	0	0
5.551345	-0.02836081	-0.1428918	0.00158735	-0.001196387	0.04791114	-0.03611068	0	0
5.584478	-0.02838711	-0.142872	-0.0007936063	0.0005981421	-0.04790769	0.03610809	0	0
5.601045	-0.02838711	-0.142872	0	0	0.01596785	-0.01203499	0	0
5.617612	-0.02838711	-0.142872	0	0	0	0	0	0
5.634179	-0.02838711	-0.142872	0	0	0	0	0	0
5.650744	-0.02838711	-0.142872	0	0	0	0	0	0
5.667394	-0.02838711	-0.142872	0	0	0	0	0	0
5.683908	-0.02838711	-0.142872	0	0	0	0	0	0
5.700445	-0.02838711	-0.142872	0	0	0	0	0	0
5.717012	-0.02838711	-0.142872	0	0	0	0	0	0
5.733581	-0.0284134	-0.1428522	-0.001587076	0.001196181	-0.04789666	0.03609977	0	0
5.750144	-0.0284134	-0.1428522	0	0	0.04790149	-0.03610341	0	0
5.766713	-0.0284397	-0.1428324	-0.00158703	0.001195247	-0.04789942	0.03607471	0	0
5.783278	-0.0284397	-0.1427927	0	0.002391875	0.04789735	0.03611483	0	0
5.816494	-0.02846599	-0.1427333	-0.0007916354	0.001789521	-0.01590226	-0.0121	0	0
5.833007	-0.02846599	-0.1427333	0	0	0.01591903	-0.03598556	0	0
5.849545	-0.02846599	-0.1427333	0	0	0	0	0	0
5.866536	-0.0284397	-0.1427135	0.001547569	0.001165528	0.04615641	0.03476198	0	0
5.882679	-0.02836081	-0.1426541	0.004886822	0.003682281	0.1007818	0.07595795	0	0
5.899246	-0.02817675	-0.1424758	0.01111006	0.01076175	0.1902571	0.216434	0	0
5.915812	-0.02709863	-0.1416637	0.06507939	0.04901758	1.628845	1.154596	0	0
5.93238	-0.02520519	-0.1402384	0.1142817	0.08602969	1.484929	1.117028	0	0
5.948945	-0.02389019	-0.1392095	0.07938473	0.06211409	-1.053238	-0.7218054	0	0
5.965602	-0.02026039	-0.136481	0.2179101	0.1637966	4.169663	3.060679	0	0
5.999125	-0.01584078	-0.1330847	0.1318415	0.101317	-1.715216	-1.245122	0	0
6.015214	-0.0098681	-0.1283337	0.3712174	0.295283	4.825003	3.909692	0	0
6.03178	-0.008447167	-0.1267193	0.08577261	0.09745139	-8.741036	-6.058099	0	0
6.048345	-0.004789437	-0.1210379	0.2208128	0.3429827	4.075932	7.410896	0	0
6.064913	-0.002552626	-0.1160747	0.1350103	0.2995687	-2.589674	-1.310311	0	0
6.081681	-0.001973682	-0.1125495	0.03452678	0.210233	-3.014293	-2.679883	0	0
6.098194	-0.0004736842	-0.1040894	0.09083808	0.5123385	1.692003	9.077456	0	0
6.114704	0.001815788	-0.09857485	0.1386677	0.334	1.448358	-5.400373	0	0
6.131178	0.005552575	-0.09122719	0.226826	0.4460092	2.672698	3.395789	0	0
6.147745	0.009578655	-0.08740587	0.2430287	0.2306687	0.4903884	-6.517467	0	0
6.164311	0.01673528	-0.08217733	0.4319872	0.3156045	5.703026	2.563479	0	0
6.180884	0.02265402	-0.07778924	0.3571427	0.2647816	-2.258485	-1.533617	0	0
6.197764	0.03099008	-0.07159597	0.4938272	0.3668889	4.085866	3.052263	0	0
6.214014	0.03332976	-0.06984275	0.1439878	0.1078958	-10.55969	-7.817552	0	0
6.230788	0.04197533	-0.06339801	0.5154096	0.3842058	11.24725	8.367109	0	0
6.247303	0.04982714	-0.05750475	0.4754279	0.3568372	-1.201033	-0.8221436	0	0
6.263812	0.05536442	-0.05342303	0.3354178	0.2472488	-4.239668	-3.318463	0	0
6.280282	0.06116047	-0.04919404	0.3519167	0.2567698	0.5002919	0.2887027	0	0
6.296845	0.06323139	-0.0476838	0.1250297	0.0911795	-6.868419	-5.012818	0	0
6.313415	0.06401767	-0.04718693	0.04745325	0.02998692	-2.341362	-1.846875	0	0
6.32998	0.06401767	-0.04718693	0	0	-1.432101	-0.9049811	0	0
6.346883	0.06404387	-0.04720604	0.00155029	-0.001130649	0.04632122	-0.03378275	0	0
6.363111	0.06409629	-0.04732069	0.003229861	-0.007065293	0.0506954	-0.1791285	0	0
6.379679	0.0641225	-0.04737802	0.001582062	-0.003460255	-0.05024405	0.1099234	0	0
6.396244	0.06409629	-0.04735891	-0.00158229	0.001153659	-0.09550446	0.1392542	0	0
6.412913	0.06401767	-0.04730158	-0.004716374	0.003439172	-0.09430186	0.06876907	0	0
6.429426	0.06393904	-0.04724425	-0.004761634	0.003471846	-0.001364005	0.0009847161	0	0
6.445961	0.06357212	-0.04697674	-0.0221905	0.01617855	-0.5273855	0.384496	0	0
6.479078	0.05092961	-0.03789544	-0.3817495	0.2742163	-7.241497	5.196865	0	0
6.495645	0.04221175	-0.03176769	-0.526241	0.3698929	-2.908236	1.92572	0	0
6.51221	0.03348748	-0.02561421	-0.526659	0.3714675	-0.01261478	0.0475249	0	0
6.528777	0.02504739	-0.01971904	-0.5094592	0.3558434	0.519127	-0.4715713	0	0
6.54551	0.01718252	-0.01432635	-0.4700035	0.3222662	1.184842	-1.008311	0	0
6.562019	0.01242041	-0.01113287	-0.2884541	0.1934384	5.461329	-3.87537	0	0
6.578531	0.001763156	-0.005226598	-0.6454469	0.3577076	-10.81125	4.974765	0	0
6.595078	-0.005973613	-0.001495849	-0.4675575	0.225461	5.381024	-4.000365	0	0
6.611609	-0.01494626	0.004656394	-0.5427614	0.3721535	-2.273486	4.434656	0	0
6.628565	-0.02110213	0.009052035	-0.3630531	0.2592403	5.36646	-3.371819	0	0
6.645076	-0.02872894	0.0144918	-0.4619237	0.3294638	-2.954289	2.0983	0	0
6.661309	-0.0343549	0.0185005	-0.3465764	0.2469483	3.522709	-2.520022	0	0
6.677876	-0.03582677	0.01954875	-0.08884734	0.06327603	7.857774	-5.599894	0	0
6.694612	-0.04231683	0.02416857	-0.3877896	0.2760405	-8.976624	6.38888	0	0
6.711122	-0.05111334	0.0304248	-0.5327832	0.3789244	-4.361164	3.094578	0	0
6.727635	-0.05769904	0.03510525	-0.3988226	0.2834424	4.056539	-2.891348	0	0
6.744147	-0.06627123	0.041194	-0.5191516	0.3687487	-3.643595	2.583101	0	0
6.777276	-0.07535703	0.04760723	-0.2742535	0.1935825	4.93337	-3.528651	0	0
6.794183	-0.07969924	0.05065207	-0.2568256	0.1800912	0.3483047	-0.2696305	0	0
6.810409	-0.08158168	0.05191386	-0.1160152	0.07776431	4.249849	-3.088364	0	0
6.827206	-0.08155555	0.05189531	0.001556024	-0.001104475	3.560296	-2.388307	0	0
6.843543	-0.08155555	0.05189531	0	0	-0.04696225	0.03333409	0	0
6.860233	-0.08158168	0.05191386	-0.001565982	0.001111544	-0.04741564	0.03365592	0	0
6.876741	-0.08155555	0.05189531	0.001583215	-0.001123776	0.09485868	-0.06733127	0	0
6.893254	-0.08155555	0.05189531	0	0	-0.04794575	0.03403219	0	0
6.909809	-0.08155555	0.05189531	0	0	0	0	0	0
6.926376	-0.0815294	0.05191386	0.001578106	0.00111983	0.04764515	0.03380919	0	0
6.942943	-0.0815294	0.05191386	0	0	-0.04762869	-0.03379751	0	0
6.95951	-0.08158168	0.05195097	-0.00315558	0.002239531	-0.09523559	0.06758918	0	0
6.976311	-0.08184309	0.05217359	-0.01555892	0.01325092	-0.3717072	0.3299926	0	0
6.992643	-0.08202606	0.05230345	-0.0112036	0.007950954	0.1314497	-0.1599601	0	0
7.009336	-0.08414296	0.05380578	-0.1268125	0.08999706	-3.500621	2.484344	0	0
7.025848	-0.08714713	0.0559748	-0.1819396	0.1313607	-1.660201	1.245703	0	0
7.058912	-0.0950287	0.06156796	-0.2383773	0.1691648	-1.138424	0.7625593	0	0
7.075476	-0.09846997	0.0640102	-0.2077512	0.1474394	0.617117	-0.4377669	0	0
7.092395	-0.09914752	0.06449108	-0.04004784	0.02842278	5.008606	-3.554536	0	0
7.10861	-0.09914752	0.06449108	0	0	1.208681	-0.8578259	0	0
7.141743	-0.09912147	0.06450957	0.0007863658	0.000558124	0.01593515	0.01130999	0	0
7.158439	-0.09912147	0.06454656	0	0.002215185	-0.01578129	0.03325495	0	0
7.174876	-0.09912147	0.06454656	0	0	0	-0.06685732	0	0
7.191443	-0.09914752	0.06456505	-0.001572618	0.001116168	-0.04764823	0.03381839	0	0
7.20801	-0.09917358	0.06462053	-0.001572754	0.003349242	-4.096708E-06	0.06739529	0	0
7.224576	-0.09927781	0.0646945	-0.006291916	0.004465057	-0.1424328	0.03367728	0	0
7.241142	-0.09935598	0.06478697	-0.004718712	0.005581771	0.04748213	0.03370443	0	0
7.257709	-0.09948626	0.0649534	-0.007863994	0.01004609	-0.09492889	0.1347392	0	0
7.274278	-0.09969471	0.06510133	-0.01258067	0.008928379	-0.1423455	-0.03373156	0	0
7.291033	-0.1028203	0.06735664	-0.1865475	0.1346041	-5.220503	3.771354	0	0
7.323976	-0.1137697	0.07512981	-0.3323719	0.2359566	-2.93419	2.039353	0	0
7.340546	-0.1237331	0.08220731	-0.6013019	0.4271368	-5.431518	3.861224	0	0
7.357111	-0.127256	0.08471112	-0.2126721	0.1511522	11.72887	-8.329234	0	0
7.373677	-0.1330255	0.0888503	-0.3482617	0.2498489	-4.092456	2.97893	0	0
7.390243	-0.1370564	0.09171785	-0.2433308	0.1731056	3.167048	-2.316285	0	0
7.423376	-0.1404636	0.0941428	-0.1028332	0.07318718	2.82698	-2.010478	0	0
7.439944	-0.1417018	0.09509773	-0.07473467	0.05763779	0.5653492	-0.3128574	0	0
7.456653	-0.1418823	0.09526298	-0.010804	0.009889917	1.921165	-1.43486	0	0
7.473079	-0.1418565	0.09528135	0.001570347	0.001118113	0.3734532	-0.2647298	0	0
7.489643	-0.1418307	0.09529971	0.001556293	0.001108296	-0.000426019	-0.0002975527	0	0
7.506211	-0.1417792	0.09533643	0.003113757	0.002216596	0.04700775	0.03345095	0	0
7.522777	-0.1417534	0.09535479	0.001557058	0.001108201	-0.04698263	-0.0334524	0	0
7.539343	-0.141676	0.09540987	0.00467014	0.003324956	0.09395976	0.06690662	0	0
7.589043	-0.1394057	0.09706204	0.0456811	0.03324293	0.6188834	0.4514826	0	0
7.60576	-0.1373146	0.09858517	0.1250847	0.09111285	1.195536	0.8713154	0	0
7.622176	-0.1358166	0.09964922	0.09125113	0.06481598	-1.021128	-0.7936642	0	0
7.638779	-0.1298184	0.1039396	0.3612813	0.2584201	8.178008	5.863405	0	0
7.65531	-0.1227741	0.1089585	0.4261265	0.3036017	1.957087	1.363624	0	0
7.671876	-0.1177942	0.1124722	0.3006029	0.2120996	-3.792566	-2.764642	0	0
7.688815	-0.1127306	0.1160382	0.2989339	0.2105175	-0.04981339	-0.0472219	0	0
7.705326	-0.1102875	0.1177562	0.1479655	0.1040557	-4.513238	-3.182702	0	0
7.721575	-0.1077911	0.1195468	0.1536323	0.1101925	0.1729792	0.1873278	0	0
7.738142	-0.1033931	0.122633	0.265469	0.186292	3.407998	2.31898	0	0
7.754709	-0.1023516	0.1233632	0.06286878	0.04407632	-6.114662	-4.292202	0	0
7.771276	-0.1023256	0.1233815	0.001571764	0.001101809	-1.849974	-1.296992	0	0
7.787886	-0.1023777	0.123418	-0.003135497	0.002197988	-0.1418837	0.03304042	0	0
7.804409	-0.1023777	0.123418	0	0	0.09463356	-0.06633826	0	0
7.837919	-0.1039138	0.1244948	-0.04584202	0.03213446	-0.9162252	0.642258	0	0
7.854433	-0.1065944	0.1263742	-0.1623297	0.1138088	-2.328657	1.632718	0	0
7.870677	-0.1149905	0.1322633	-0.5168418	0.3625194	-10.82207	7.592309	0	0
7.887243	-0.1219964	0.137181	-0.4229279	0.2968678	2.862336	-2.000951	0	0
7.903808	-0.1285503	0.141785	-0.3956413	0.2779298	0.8236075	-0.5716159	0	0
7.920376	-0.1352999	0.1464942	-0.4073805	0.2842315	-0.3543016	0.1901894	0	0
7.936988	-0.1390701	0.149147	-0.226965	0.1597	5.437516	-3.753236	0	0
7.953508	-0.1428106	0.1517805	-0.2264141	0.159406	0.01662772	-0.008872674	0	0
7.970075	-0.1447438	0.1531422	-0.1166899	0.08219282	3.316209	-2.333624	0	0
7.986643	-0.1459547	0.1539953	-0.07308575	0.05149334	1.315956	-0.9264988	0	0
8.019776	-0.1459804	0.1540498	-0.0007771461	0.00164379	1.454866	-1.002984	0	0
8.036558	-0.1459804	0.1540498	0	0	0.01556944	-0.03293189	0	0
8.052909	-0.1459547	0.1540679	0.001574803	0.001110018	0.04753039	0.03350233	0	0
8.069475	-0.1458001	0.1541768	0.009330385	0.006573456	0.2356101	0.1659761	0	0
8.086043	-0.1453622	0.1545217	0.0264329	0.02081355	0.5161549	0.4297668	0	0
8.10261	-0.1436356	0.155919	0.1042236	0.08434766	2.347729	1.917463	0	0
8.119177	-0.1385797	0.1623026	0.3051723	0.3853129	6.064817	9.083411	0	0
8.136129	-0.1373404	0.1696572	0.07310243	0.4338346	-6.923378	1.447554	0	0
8.152641	-0.1359716	0.1742359	0.08290076	0.2772964	0.2927984	-4.677749	0	0
8.168875	-0.1336718	0.1821008	0.1416705	0.4844925	1.794751	6.327495	0	0
8.185441	-0.1297408	0.1849914	0.2372893	0.1744844	2.915233	-9.451546	0	0
8.202007	-0.1247436	0.1884765	0.3016459	0.2103758	1.942396	1.083266	0	0
8.218575	-0.1230852	0.1896319	0.1001006	0.06973105	-6.08265	-4.244667	0	0
8.265915	-0.1172752	0.193674	0.1227303	0.08538618	0.3541013	0.244965	0	0
8.282483	-0.1173011	0.193692	-0.001566277	0.001088255	-1.944942	-1.319059	0	0
8.299051	-0.1173271	0.1937101	-0.001566727	0.001089154	-1.356805E-05	2.714313E-05	0	0
8.315756	-0.117379	0.1937461	-0.003107427	0.002159633	-0.04630516	0.03217283	0	0
8.332277	-0.1176126	0.1939085	-0.01413862	0.009827407	-0.3320048	0.2307762	0	0
8.348752	-0.1205184	0.1959647	-0.176378	0.124811	-4.916914	3.484754	0	0
8.382414	-0.1325343	0.2043282	-0.3569602	0.2484542	-3.601807	2.466129	0	0
8.398983	-0.1399734	0.2095148	-0.4489719	0.313027	-1.831771	1.285518	0	0
8.415827	-0.1426559	0.2113869	-0.1592605	0.1111452	8.670635	-6.042025	0	0
8.432117	-0.1444861	0.2126647	-0.1123507	0.07844425	1.415782	-0.9869457	0	0
8.448682	-0.1452076	0.2132046	-0.0435548	0.03259121	2.093923	-1.395617	0	0
8.465363	-0.1452076	0.2132046	0	0	1.310075	-0.9803036	0	0
8.481875	-0.1452333	0.2131866	-0.001560244	-0.001090095	-0.04700438	-0.03284054	0	0
8.498384	-0.1452076	0.2132046	0.001560695	0.00109041	0.09451383	0.06603396	0	0
8.514948	-0.1452333	0.2131866	-0.001555393	-0.001086706	-0.09421999	-0.06582866	0	0
8.531516	-0.1452591	0.2132046	-0.001555035	0.001086456	1.080791E-05	0.06558993	0	0
8.548081	-0.1452591	0.2132046	0	0	0.0469324	-0.03279025	0	0
8.564648	-0.1453879	0.2133305	-0.007776071	0.007603369	-0.2347025	0.22949	0	0
8.581214	-0.1455167	0.2134925	-0.007775171	0.009775632	2.715328E-05	0.0655628	0	0
8.597956	-0.1454652	0.2135645	0.003076937	0.004299879	0.3258106	-0.1643974	0	0
8.614476	-0.1453106	0.2137084	0.00935714	0.008713127	0.1888087	0.1326804	0	0
8.630916	-0.1452333	0.2137984	0.00470164	0.00547301	-0.1412472	-0.0983047	0	0
8.64749	-0.1444861	0.2143562	0.04508674	0.03365502	1.223296	0.8536552	0	0
8.664047	-0.1405668	0.2170906	0.236705	0.165146	5.783549	3.96875	0	0
8.680614	-0.1343955	0.2214963	0.3725228	0.2659434	4.100288	3.043034	0	0
8.69718	-0.13031	0.2244802	0.2466143	0.1801152	-3.800144	-2.590449	0	0
8.714038	-0.1257798	0.2276966	0.2687231	0.1907935	0.6614576	0.3194753	0	0
8.730315	-0.1220223	0.2304449	0.2308427	0.1688458	-1.143201	-0.6623642	0	0
8.746881	-0.1181576	0.2331566	0.233305	0.1636955	0.07497215	-0.1568167	0	0
8.763447	-0.1172492	0.2338209	0.05483142	0.04010186	-5.386808	-3.730385	0	0
8.780013	-0.1172492	0.2338209	0	0	-1.654911	-1.210346	0	0
8.796597	-0.1172233	0.233803	0.001565285	-0.001082761	0.04721867	-0.03266274	0	0
8.813149	-0.1171973	0.233785	0.001568171	-0.001084757	8.708919E-05	-6.024468E-05	0	0
8.830119	-0.1171973	0.233785	0	0	-0.04677952	0.03235897	0	0
8.846633	-0.1171713	0.2337671	0.001571433	-0.001087325	0.04693156	-0.03247346	0	0
8.86285	-0.1171713	0.2337671	0	0	-0.04801046	0.03321999	0	0
8.879416	-0.1171713	0.2337671	0	0	0	0	0	0
8.896168	-0.1171454	0.2337491	0.001549513	-0.00107185	0.0465074	-0.03217073	0	0
8.912687	-0.1171194	0.2337312	0.00157134	-0.001086949	0.000656009	-0.0004537854	0	0
8.929116	-0.1171194	0.2337312	0	0	-0.0476908	0.03298933	0	0
8.945683	-0.1171194	0.2337312	0	0	0	0	0	0
8.962248	-0.1171194	0.2336952	0	-0.00216789	0	-0.0654327	0	0
8.978814	-0.1171194	0.2336952	0	0	0	0.0654327	0	0
9.045081	-0.1171194	0.2335516	0	-0.002167478	0	-0.02616675	0	0
9.078213	-0.1172233	0.2333721	-0.00313368	-0.005419119	-0.0315264	-0.03271315	0	0
9.094805	-0.1172492	0.2333182	-0.001564476	-0.003246602	0.03155853	0.04369186	0	0
9.111346	-0.1172492	0.2332823	0	-0.002171015	0.04721733	0.03246221	0	0
9.127913	-0.1172233	0.2331925	0.001566817	-0.005419101	0.04732342	-0.09810368	0	0
9.144845	-0.1172752	0.2330489	-0.003066211	-0.008484004	-0.1383044	-0.09149302	0	0
9.161357	-0.1174569	0.2328873	-0.01100311	-0.009787058	-0.2373229	-0.03896292	0	0
9.177614	-0.1182095	0.2323306	-0.04629388	-0.0342399	-1.076949	-0.746214	0	0
9.194375	-0.1182873	0.2322408	-0.004644381	-0.005357397	1.261414	0.8747472	0	0
9.210747	-0.1182614	0.2321869	0.001585072	-0.003290288	0.1880161	0.06238905	0	0
9.227314	-0.1182614	0.232151	0	-0.00216764	-0.04812151	0.03408267	0	0
9.243913	-0.1183133	0.2320433	-0.003126795	-0.00649149	-0.09427733	-0.1303702	0	0
9.260446	-0.1183392	0.2316303	-0.00156962	-0.02498234	0.0469997	-0.558103	0	0
9.277013	-0.11795	0.2310376	0.02349551	-0.03577236	0.7572519	-0.3259815	0	0
9.29358	-0.1177942	0.2302474	0.009398655	-0.04769888	-0.425444	-0.359943	0	0
9.310146	-0.118936	0.2293852	-0.06892009	-0.05204346	-2.363732	-0.1311233	0	0
9.326974	-0.1196883	0.2288283	-0.04470902	-0.03309188	0.7250156	0.5675168	0	0
9.343283	-0.1196624	0.2288104	0.001590733	-0.001100996	1.397249	0.9654313	0	0
9.359996	-0.119403	0.2285948	0.01552158	-0.01289854	0.4218665	-0.3572639	0	0
9.376412	-0.1184949	0.2279661	0.05531517	-0.03830004	1.201146	-0.7667291	0	0
9.392979	-0.1177164	0.2274271	0.04699373	-0.03253447	-0.2522961	0.1748052	0	0
9.409545	-0.1171194	0.2270138	0.03603438	-0.02494459	-0.3307731	0.2290761	0	0
9.426114	-0.1170935	0.2269959	0.001566637	-0.001083695	-1.040208	0.7201025	0	0
9.459247	-0.116756	0.2267623	0.01018467	-0.007049734	0.1733952	-0.1200369	0	0
9.475813	-0.1144711	0.225181	0.1379292	-0.09545183	2.570374	-1.778756	0	0
9.492585	-0.1106254	0.222521	0.2292838	-0.1585973	2.740208	-1.894067	0	0
9.509097	-0.103289	0.2174504	0.4443121	-0.3070889	6.460375	-4.461327	0	0
9.525513	-0.09153298	0.2092987	0.7161493	-0.4965805	8.255625	-5.754811	0	0
9.542123	-0.08100656	0.2019679	0.6337347	-0.4413468	-2.495466	1.672444	0	0
9.558647	-0.06304791	0.1894875	1.086801	-0.7552754	13.67358	-9.474382	0	0
9.575213	-0.05922015	0.1868155	0.2310575	-0.1612916	-25.86064	17.95023	0	0
9.59178	-0.04050415	0.1736388	1.129765	-0.7953891	27.1246	-19.1382	0	0
9.608667	-0.02925481	0.1656368	0.6661277	-0.4738395	-13.85897	9.611709	0	0
9.625186	-0.01573554	0.1551206	0.8184273	-0.6366279	4.559013	-4.872989	0	0
9.641481	-0.01052593	0.1454581	0.3196979	-0.5929545	-15.19866	1.330937	0	0
9.658208	-0.01063118	0.1312974	-0.006292506	-0.8466043	-9.871937	-7.681256	0	0
9.674614	-0.01263091	0.1221401	-0.1218896	-0.5581671	-3.488929	8.705555	0	0
9.691226	-0.01510411	0.1148315	-0.1488803	-0.439956	-0.8174503	3.580189	0	0
9.708237	-0.01699836	0.1084275	-0.1113563	-0.3764677	1.11603	1.888255	0	0
9.724313	-0.02044452	0.1002729	-0.2143655	-0.507255	-3.113303	-3.952856	0	0
9.741263	-0.02178603	0.09327953	-0.07914211	-0.4125715	4.094366	2.866875	0	0
9.757448	-0.02310115	0.08614648	-0.08125684	-0.4407247	-0.06382079	-0.8496394	0	0
9.774284	-0.02389019	0.07793273	-0.04686571	-0.4878635	1.041494	-1.427541	0	0
9.790581	-0.024574	0.06863163	-0.04196076	-0.5707464	0.1480401	-2.501553	0	0
9.807308	-0.02625712	0.05727193	-0.1006203	-0.6791053	-1.77628	-3.281235	0	0
9.82382	-0.03088491	0.04885145	-0.2802697	-0.5099637	-5.404717	5.088594	0	0
9.856848	-0.0391379	0.04204972	-0.2498812	-0.2059404	0.6134195	6.136979	0	0
9.873415	-0.04310486	0.03920275	-0.2394462	-0.1718437	0.2104036	0.6875042	0	0
9.89037	-0.04927587	0.03463933	-0.3639558	-0.2691426	-3.714196	-2.902484	0	0
9.906547	-0.05363273	0.03154417	-0.2693374	-0.1913399	2.855836	2.348291	0	0
9.923113	-0.05552182	0.0302382	-0.1140325	-0.07883312	4.743218	3.436109	0	0
9.939679	-0.05822359	0.0283157	-0.1630884	-0.1160491	-1.480592	-1.123245	0	0
9.956415	-0.06074098	0.02648558	-0.1504172	-0.1093524	0.380488	0.2010875	0	0
9.972924	-0.0606361	0.0265603	0.006352536	0.004525889	4.715577	3.425417	0	0
9.989436	-0.06058366	0.02652294	0.003175943	-0.002262552	-0.09619924	-0.2055797	0	0
10.00595	-0.06045257	0.02642954	0.007939519	-0.005656324	0.1442466	-0.1027673	0	0
10.02251	-0.06037391	0.0263735	0.004748717	-0.003383138	-0.09646798	0.06872556	0	0
10.03908	-0.06037391	0.0263735	0	0	-0.1433289	0.1021121	0	0
10.05565	-0.06037391	0.0263735	0	0	0	0	0	0
10.07222	-0.06037391	0.0263735	0	0	0	0	0	0
10.08901	-0.06037391	0.0263735	0	0	0	0	0	0
10.10552	-0.06037391	0.0263735	0	0	0	0	0	0
10.12203	-0.06037391	0.0263735	0	0	0	0	0	0
10.13848	-0.06034769	0.02635482	0.001594027	-0.001135727	0.04836117	-0.03445682	0	0
10.15505	-0.06029525	0.02631746	0.003163883	-0.002254073	0.04753842	-0.03386577	0	0
10.18818	-0.05835472	0.02493485	0.05858025	-0.04173817	1.115001	-0.7944369	0	0
10.20475	-0.05830227	0.02489747	0.003166197	-0.00225614	-1.115147	0.7945325	0	0
10.22131	-0.05824982	0.0248601	0.003166197	-0.002256027	0	3.39416E-06	0	0
10.23811	-0.05819736	0.02482272	0.003122561	-0.002224999	-0.001307826	0.0009299619	0	0
10.25463	-0.05811869	0.02476665	0.004763554	-0.003394371	0.04925593	-0.03509977	0	0
10.27114	-0.05801377	0.0246919	0.006354793	-0.004528145	0.04818175	-0.03433001	0	0
10.28765	-0.05788264	0.02459845	0.007942919	-0.005659911	0.04809725	-0.03427614	0	0
10.30416	-0.05772527	0.02444893	0.009531087	-0.009055695	0.04809575	-0.1028372	0	0
10.32071	-0.0575679	0.02433679	0.009506604	-0.006774389	-0.0007404705	0.06899492	0	0
10.33728	-0.05554806	0.02293472	0.1218966	-0.08461488	3.39301	-2.349975	0	0
10.35385	-0.04872456	0.01806988	0.4119146	-0.2936759	8.752509	-6.309293	0	0
10.37041	-0.04231683	0.01349828	0.3867716	-0.2759426	-0.7588618	0.535223	0	0
10.38722	-0.03608959	0.009052035	0.3705865	-0.2645982	-0.4850046	0.3399473	0	0
10.40373	-0.03041167	0.004994723	0.3439074	-0.2457486	-0.8008443	0.5658199	0	0
10.42024	-0.02862376	0.003716415	0.1082677	-0.07740837	-7.135443	5.097538	0	0
10.48638	-0.008605051	-0.01062296	0.302684	-0.2168121	2.352252	-1.686653	0	0
10.50295	-0.008710306	-0.01054742	-0.006353587	0.004559559	-3.736689	2.676688	0	0
10.51951	-0.00873662	-0.01052854	-0.001588383	0.001139876	0.1438224	-0.1032122	0	0
10.53608	-0.008789247	-0.01045301	-0.003176766	0.004559447	-0.04794025	0.1032088	0	0
10.55265	-0.008841875	-0.01041524	-0.003176639	0.002279564	3.822713E-06	-0.06880897	0	0
10.56935	-0.008841875	-0.01041524	0	0	0.09548092	-0.06851735	0	0
10.58578	-0.008815561	-0.01043412	0.001601381	-0.001149147	0.04832978	-0.03468133	0	0
10.61891	-0.008815561	-0.01047189	0	-0.00113988	-0.03230974	0.0001869681	0	0
10.63548	-0.008789247	-0.01045301	0.001588439	0.00113982	0.03196191	0.04587117	0	0
10.65205	-0.008789247	-0.01045301	0	0	-0.04794056	-0.03440081	0	0
10.66861	-0.008789247	-0.01045301	0	0	0	0	0	0
10.68518	-0.008789247	-0.01045301	0	0	0	0	0	0
10.71845	-0.008789247	-0.01045301	0	0	0	0	0	0
10.73488	-0.008789247	-0.01045301	0	0	0	0	0	0
10.75144	-0.008815561	-0.01043412	-0.001588439	0.001139876	-0.04814287	0.03454769	0	0
10.76801	-0.008841875	-0.01041524	-0.0015882	0.001139688	7.216568E-06	-5.656608E-06	0	0
10.78458	-0.009026071	-0.01028306	-0.01111874	0.007978681	-0.2876321	0.2064012	0	0
10.80114	-0.00939446	-0.01001872	-0.02223858	0.01595732	-0.3356266	0.2408167	0	0
10.81771	-0.009631281	-0.009848804	-0.01429533	0.01025697	0.2397485	-0.1720519	0	0
10.83428	-0.01160474	-0.008433147	-0.1191252	0.08545414	-3.163954	2.269586	0	0
10.85084	-0.01234148	-0.007904794	-0.04447208	0.0318933	2.253166	-1.616562	0	0
10.86756	-0.01234148	-0.00794253	0	-0.002257751	1.336285	-1.026162	0	0
10.88407	-0.01234148	-0.00794253	0	0	0	0.06795324	0	0
10.90058	-0.01231517	-0.007961399	0.001593775	-0.001142924	0.04826694	-0.03461306	0	0
10.91711	-0.01226254	-0.007999136	0.003183137	-0.002282683	0.04810273	-0.03449529	0	0
10.93368	-0.01220992	-0.008074612	0.003176597	-0.004556017	-0.0001976072	-0.06868449	0	0
10.95024	-0.01213098	-0.00816896	0.004764811	-0.005695162	0.04793516	-0.03438144	0	0
10.96681	-0.01202574	-0.00824444	0.006352772	-0.00455598	0.04792614	0.03438158	0	0
10.98364	-0.01205205	-0.00826331	-0.001563164	-0.001121083	-0.2370071	0.1028425	0	0
10.99994	-0.01202574	-0.00824444	0.001614102	0.001157615	0.09589283	0.0687732	0	0
11.01651	-0.01202574	-0.00824444	0	0	-0.04910946	-0.03522072	0	0
11.03317	-0.01199942	-0.00822557	0.001579235	0.001132569	0.04752736	0.03408485	0	0
11.04964	-0.01197311	-0.00824444	0.001597374	-0.001145618	0.0005474419	-0.06875778	0	0
11.06621	-0.01197311	-0.00824444	0	0	-0.048348	0.03467461	0	0
11.08278	-0.0119468	-0.00826331	0.001588179	-0.001139023	0.04793134	-0.03437579	0	0
11.09934	-0.01184155	-0.008338792	0.006353559	-0.004556617	0.1438278	-0.1031491	0	0
11.11591	-0.01184155	-0.008376534	0	-0.002278234	-0.1917674	0.06876769	0	0
11.13274	-0.01178893	-0.008414276	0.003126505	-0.002242348	0.09361445	0.001074505	0	0
11.14925	-0.01176262	-0.008433147	0.001593556	-0.001142895	-0.04597472	0.0329737	0	0
11.16576	-0.01176262	-0.00847089	0	-0.00228579	-0.04825471	-0.03460819	0	0
11.18228	-0.01176262	-0.00847089	0	0	0	0.06921238	0	0
11.19879	-0.0117363	-0.008489762	0.001593499	-0.001142952	0.04825021	-0.0346079	0	0
11.21531	-0.0117363	-0.008489762	0	0	-0.04824046	0.03460091	0	0
11.23188	-0.01170999	-0.008508634	0.001588327	-0.001139145	0.04800487	-0.03442901	0	0
11.24844	-0.01168368	-0.008527505	0.00158827	-0.001139145	-1.69708E-06	0	0	0
11.26501	-0.01163105	-0.00856525	0.003176597	-0.002278402	0.04793855	-0.03438484	0	0
11.28158	-0.01149949	-0.008659611	0.007941063	-0.005695678	0.143796	-0.1031366	0	0
11.31471	-0.01105218	-0.009018211	0.01350105	-0.01082348	0.1118736	-0.1031775	0	0
11.33127	-0.01081537	-0.009188088	0.01429412	-0.01025379	0.0159574	0.01146279	0	0
11.34784	-0.01073643	-0.009282468	0.004764213	-0.005696146	-0.2875965	0.1375421	0	0
11.36441	-0.01073643	-0.009282468	0	0	-0.1437884	0.171915	0	0
11.38097	-0.01076274	-0.009263591	-0.001588383	0.001139482	-0.04794301	0.0343936	0	0
11.39754	-0.01076274	-0.009263591	0	0	0.04793749	-0.03438964	0	0
11.41411	-0.01076274	-0.009263591	0	0	0	0	0	0
11.43067	-0.01076274	-0.009263591	0	0	0	0	0	0
11.44746	-0.01076274	-0.009263591	0	0	0	0	0	0
11.46381	-0.01073643	-0.009282468	0.001609696	-0.001154772	0.04858211	-0.03485209	0	0
11.48048	-0.01073643	-0.00932022	0	-0.002263735	-0.04874346	-0.0335807	0	0
11.497	-0.0106838	-0.009357973	0.003186191	-0.002285751	0.09598815	-0.0006632396	0	0
11.51351	-0.01065749	-0.009414604	0.001594108	-0.003430889	-0.04821151	-0.03467713	0	0
11.58006	-0.007736688	-0.01162397	0.04388995	-0.03319935	0.5092538	-0.3584206	0	0
11.61308	-0.007763002	-0.01164286	-0.0007968802	-0.0005720446	-0.4487969	0.3276812	0	0
11.62947	-0.007789316	-0.01166175	-0.001604856	-0.001152075	-0.01634968	-0.01173711	0	0
11.64604	-0.007789316	-0.01166175	0	0	0.04868547	0.03494974	0	0
11.66261	-0.007789316	-0.01166175	0	0	0	0	0	0
11.67918	-0.007789316	-0.01166175	0	0	0	0	0	0
11.69574	-0.00781563	-0.01164286	-0.001588228	0.001140138	-0.04793834	0.0344134	0	0
11.71266	-0.00781563	-0.01164286	0	0	0.04743315	-0.03405074	0	0
11.72888	-0.007841945	-0.01166175	-0.001622341	-0.001164606	-0.04896094	-0.03514687	0	0
11.74568	-0.007841945	-0.01166175	0	0	0.04913772	0.03527377	0	0
11.76219	-0.007868258	-0.01164286	-0.001593612	0.001144023	-0.04784468	0.03434677	0	0
11.7787	-0.007868258	-0.01164286	0	0	0.04825642	-0.03464235	0	0
11.79515	-0.007894573	-0.01162397	-0.001599952	0.001148534	-0.04854373	0.03484737	0	0
11.81172	-0.007920887	-0.01164286	-0.001588165	-0.001140072	0.0003570186	-0.06931768	0	0
11.82828	-0.007973515	-0.01164286	-0.003177553	0	-0.04797199	0.03441042	0	0
11.84484	-0.008052457	-0.01166175	-0.004765205	-0.001140269	-0.04792368	-0.03441934	0	0
11.86141	-0.008157713	-0.01173731	-0.006352912	-0.004560664	-0.04791711	-0.1032277	0	0
11.87798	-0.008315598	-0.01185065	-0.009531014	-0.006842291	-0.09591805	-0.0688616	0	0
11.89454	-0.01234148	-0.01470449	-0.2430167	-0.1722679	-7.047219	-4.992985	0	0
11.91129	-0.01741929	-0.01831795	-0.3031468	-0.215725	-1.80481	-1.304368	0	0
11.92768	-0.03296174	-0.0294112	-0.9487944	-0.6771913	-19.48737	-13.92829	0	0
11.94431	-0.04229056	-0.03608628	-0.5607002	-0.4011991	11.75364	8.35857	0	0
11.97738	-0.05106084	-0.04241356	-0.2652678	-0.1913764	5.94434	4.221804	0	0
11.99394	-0.0738392	-0.05896254	-1.374904	-0.9988986	-22.35853	-16.27111	0	0
12.02782	-0.08019605	-0.06351332	-0.1876643	-0.1343459	23.5373	17.13995	0	0
12.04438	-0.08827003	-0.06918798	-0.4873463	-0.3425236	-5.941263	-4.12717	0	0
12.06095	-0.08941881	-0.06999683	-0.0693442	-0.04882509	12.61569	8.864094	0	0
12.07752	-0.09103714	-0.07061326	-0.09768841	-0.03720956	-0.8554791	0.3505777	0	0
12.09408	-0.09124592	-0.07042062	-0.012602	0.01162791	2.567987	1.47396	0	0
12.11066	-0.09119373	-0.07042062	0.0031481	0	0.4751747	-0.3508098	0	0
12.12722	-0.09119373	-0.07042062	0	0	-0.0950153	0	0	0
12.14395	-0.09114153	-0.07038209	0.00311859	0.002301774	0.09367438	0.06913934	0	0
12.16047	-0.09114153	-0.07038209	0	0	-0.09378991	-0.06922461	0	0
12.17698	-0.09108934	-0.07034356	0.003161375	0.002333686	0.09573563	0.0706708	0	0
12.19349	-0.09106324	-0.07032429	0.001580457	0.001166732	-0.04787342	-0.03533775	0	0
12.21005	-0.09101104	-0.07032429	0.003151994	0	0.04751525	-0.03527599	0	0
12.22662	-0.09095884	-0.07028577	0.003150905	0.002325625	-3.286509E-05	0.07020368	0	0
12.24318	-0.09093274	-0.07026651	0.001575453	0.001162588	-0.04754999	-0.03510256	0	0
12.26004	-0.09085445	-0.07020871	0.004645414	0.003429242	0.09186107	0.06782408	0	0
12.27632	-0.09082835	-0.07018945	0.001603139	0.001183019	-0.09181868	-0.06779311	0	0
12.29288	-0.09077615	-0.07015093	0.003150905	0.002325625	0.04712126	0.03478631	0	0
12.30945	-0.09033244	-0.06978497	0.02678096	0.02208797	0.7131565	0.5964289	0	0
12.36861	-0.08461329	-0.06557027	0.09666917	0.07123988	0.9228564	0.6490386	0	0
12.38515	-0.07724076	-0.06011395	0.4459051	0.3300086	4.613664	3.418526	0	0
12.40171	-0.06600922	-0.05185319	0.6779758	0.4986494	7.011173	5.094868	0	0
12.41828	-0.05746298	-0.04523847	0.5158224	0.3992425	-4.893798	-3.000108	0	0
12.43484	-0.05460356	-0.04296688	0.1726248	0.1371371	-10.35832	-7.910812	0	0
12.46798	-0.02857117	-0.02221982	0.7857044	0.6261835	12.33637	9.840578	0	0
12.48454	-0.0216019	-0.01572568	0.4206658	0.3919868	-7.344872	-4.712227	0	0
12.50111	-0.01731406	-0.01226629	0.2588296	0.2088216	-4.884368	-5.528098	0	0
12.51768	-0.0070262	-0.005000372	0.6209407	0.4385462	10.92853	6.933103	0	0
12.53424	-0.006657796	-0.004736461	0.02223945	0.01593152	-18.06936	-12.7549	0	0
12.55081	-0.006947257	-0.005056927	-0.01747286	-0.01934447	-1.198623	-1.064723	0	0
12.56738	-0.007131458	-0.005264304	-0.01111907	-0.01251803	0.1917686	0.2060341	0	0
12.58394	-0.007052515	-0.005547112	0.004765043	-0.01707031	0.4793974	-0.137392	0	0
12.6062	-0.0070262	-0.005603677	0.001182159	-0.002541129	-0.09227829	0.3742035	0	0
12.62279	-0.0070262	-0.005641387	0	-0.002273312	-0.03043043	0.00689399	0	0
12.63934	-0.0070262	-0.005716809	0	-0.004558239	0	-0.06895924	0	0
12.6559	-0.0070262	-0.005829944	0	-0.006829276	0	-0.06858543	0	0
12.67247	-0.007078829	-0.005980798	-0.003176878	-0.009106075	-0.09588388	-0.0687179	0	0
12.68904	-0.007499859	-0.006546562	-0.02541488	-0.03415152	-0.6711829	-0.7559165	0	0
12.70561	-0.008184028	-0.007376525	-0.04129412	-0.05009381	-0.4792365	-0.4811393	0	0
12.72236	-0.009289207	-0.00824444	-0.06596074	-0.05180003	-0.7402216	-0.05120192	0	0
12.73874	-0.01057855	-0.00932022	-0.07873151	-0.06569049	-0.3854559	-0.4192511	0	0
12.77189	-0.009473401	-0.01011313	0.03333053	-0.02391351	2.262333	0.8434027	0	0
12.78891	-0.007789316	-0.01132174	0.09899603	-0.07104626	1.308886	-0.9394798	0	0
12.805	-0.00781563	-0.01130285	-0.001634711	0.001173391	-3.039404	2.181289	0	0
12.82157	-0.007789316	-0.01128397	0.001588319	0.001140091	0.09867135	-0.001019452	0	0
12.83844	-0.007789316	-0.01128397	0	0	-0.04749811	-0.03409401	0	0
12.85471	-0.007789316	-0.01128397	0	0	0	0	0	0
12.87146	-0.007789316	-0.01128397	0	0	0	0	0	0
12.88798	-0.00781563	-0.01130285	-0.00159364	-0.00114391	-0.04789901	-0.03438177	0	0
12.90449	-0.00781563	-0.01130285	0	0	0.04825866	0.03463993	0	0
12.92097	-0.00781563	-0.01130285	0	0	0	0	0	0
12.93801	-0.007841945	-0.01128397	-0.001543911	0.001108195	-0.04604926	0.03305344	0	0
12.95411	-0.00781563	-0.01130285	0.001635418	-0.001173878	0.09595234	-0.06887309	0	0
12.97067	-0.00781563	-0.01130285	0	0	-0.05007914	0.03594603	0	0
12.98724	-0.00781563	-0.01130285	0	0	0	0	0	0
13.00406	-0.00781563	-0.01130285	0	0	0	0	0	0
13.02037	-0.007841945	-0.01132174	-0.001613329	-0.001158023	-0.04869318	-0.03495121	0	0
13.03709	-0.007841945	-0.01132174	0	0	0.04885207	0.03506526	0	0
13.0535	-0.00781563	-0.01134063	0.001602647	-0.001150355	0.04836937	-0.03471879	0	0
13.07007	-0.00781563	-0.01134063	0	0	-0.04858613	0.03487437	0	0
13.08664	-0.00781563	-0.01134063	0	0	0	0	0	0
13.1032	-0.00781563	-0.01134063	0	0	0	0	0	0
13.11977	-0.00781563	-0.01134063	0	0	0	0	0	0
13.16947	-0.00781563	-0.01134063	0	0	0	0	0	0
13.18604	-0.00781563	-0.01134063	0	0	0	0	0	0
13.2027	-0.00781563	-0.01134063	0	0	0	0	0	0
13.21917	-0.007841945	-0.01135952	-0.001597451	-0.001146626	-0.04821533	-0.03460822	0	0
13.23574	-0.007841945	-0.01135952	0	0	0.04834615	0.03470211	0	0
13.2523	-0.007841945	-0.01135952	0	0	0	0	0	0
13.26887	-0.007841945	-0.01135952	0	0	0	0	0	0
13.28544	-0.00781563	-0.01137841	0.001588439	-0.001140157	0.04794056	-0.03441099	0	0
13.30227	-0.00781563	-0.01137841	0	0	-0.04756137	0.03413881	0	0
13.31857	-0.007841945	-0.0113973	-0.001614179	-0.00115869	-0.04871742	-0.03497033	0	0
13.3353	-0.007841945	-0.0113973	0	0	0.04886651	0.03507735	0	0
13.36827	-0.007841945	-0.01143507	0	-0.001145791	0	-0.02305381	0	0
13.38484	-0.007841945	-0.01143507	0	0	0	0.02313015	0	0
13.4014	-0.007868258	-0.01145396	-0.001588383	-0.001140157	-0.04794025	-0.03441198	0	0
13.41797	-0.007868258	-0.01149174	0	-0.002280426	0.04794025	-0.03441538	0	0
13.43454	-0.007894573	-0.01151063	-0.001588347	-0.001140147	-0.0479378	0.03441466	0	0
13.45111	-0.007920887	-0.01152952	-0.001588165	-0.001140016	5.515754E-06	3.962911E-06	0	0
13.46789	-0.007920887	-0.01152952	0	0	0.04762251	0.03418438	0	0
13.48424	-0.007947201	-0.01158619	-0.00160932	-0.003465843	-0.04857498	-0.1046114	0	0
13.50091	-0.007999829	-0.01162397	-0.003156651	-0.002266003	-0.04685632	0.03633361	0	0
13.51742	-0.008052457	-0.01169953	-0.00318728	-0.004576149	-0.0009230138	-0.06961616	0	0
13.53394	-0.01160474	-0.01436416	-0.2150725	-0.16133	-6.415204	-4.746003	0	0
13.56722	-0.03004359	-0.02775894	-0.5540615	-0.4024943	-6.807541	-4.843035	0	0
13.58397	-0.04003124	-0.03502033	-0.5962315	-0.4334824	-0.8428821	-0.6193827	0	0
13.60048	-0.05266179	-0.04418836	-0.7649357	-0.5552371	-5.071796	-3.660341	0	0
13.61699	-0.06139642	-0.05055201	-0.5290201	-0.3854196	7.144004	5.142419	0	0
13.6335	-0.06980744	-0.05673779	-0.5093907	-0.3746255	0.5944206	0.3268683	0	0
13.65052	-0.07972539	-0.06397456	-0.5829116	-0.4253293	-2.192926	-1.512355	0	0
13.66662	-0.08594565	-0.06855262	-0.3863532	-0.2843529	5.935733	4.257251	0	0
13.68318	-0.09148079	-0.07263686	-0.334121	-0.2465392	1.598967	1.157577	0	0
13.69975	-0.0933333	-0.07400603	-0.1118243	-0.08264808	6.709313	4.946529	0	0
13.71632	-0.09364634	-0.07419892	-0.01889599	-0.01164387	2.804744	2.143035	0	0
13.73288	-0.09364634	-0.07419892	0	0	0.5703149	0.3514329	0	0
13.74945	-0.09362026	-0.07417963	0.001574372	0.001164253	0.04751464	0.03513722	0	0
13.76602	-0.09356809	-0.07414106	0.003149288	0.002328908	0.04753242	0.03515036	0	0
13.78261	-0.09354199	-0.07412177	0.001572197	0.001162313	-0.04755836	-0.03517956	0	0
13.79915	-0.09338548	-0.07396746	0.009464113	0.009330759	0.2381853	0.2465313	0	0
13.81572	-0.09299416	-0.07367814	0.02362145	0.01746445	0.427663	0.2457016	0	0
13.83228	-0.09281153	-0.07354314	0.01102349	0.008148439	-0.3802181	-0.2811659	0	0
13.93171	-0.09176784	-0.07277182	0.01049674	0.007757424	-0.004540977	-0.003370896	0	0
13.94825	-0.09082835	-0.07211637	0.05680901	0.03963376	0.3993547	0.2748724	0	0
13.96482	-0.08957544	-0.07119128	0.07562592	0.05583833	0.5684026	0.4894915	0	0
13.98138	-0.08954933	-0.07121055	0.001575993	-0.001163104	-2.23496	-1.720406	0	0
13.99795	-0.08954933	-0.07124909	0	-0.002326525	-0.04756767	-0.03511513	0	0
14.01452	-0.08954933	-0.07132617	0	-0.004651797	0	-0.07017482	0	0
14.03108	-0.08936659	-0.07153815	0.01103214	-0.01279758	0.3329601	-0.2458475	0	0
14.0478	-0.08894888	-0.07196216	0.02499572	-0.0253729	0.4196343	-0.377914	0	0
14.06431	-0.08348968	-0.0760321	0.3305648	-0.2464423	9.196682	-6.653502	0	0
14.08082	-0.07875781	-0.07952817	0.2866062	-0.2117543	-1.331079	1.050361	0	0
14.09735	-0.07056684	-0.08562316	0.4955202	-0.3687222	6.323054	-4.750838	0	0
14.13048	-0.04854079	-0.1021394	0.6647859	-0.4984909	3.408314	-2.613006	0	0
14.14705	-0.04307859	-0.106236	0.3297175	-0.2472809	-6.741977	5.054647	0	0
14.19675	-0.01547245	-0.1270539	0.5554581	-0.4188748	3.406578	-2.58947	0	0
14.21332	-0.009262893	-0.1317038	0.3748311	-0.2806815	-2.725784	2.085431	0	0
14.22988	-0.002789466	-0.1365601	0.3907593	-0.293143	0.480742	-0.3761109	0	0
14.24645	-0.0002894737	-0.1384381	0.1508999	-0.1133559	-7.239181	5.426143	0	0
14.26302	0.00192105	-0.1400998	0.1334275	-0.1003042	-0.5273172	0.3939016	0	0
14.27958	0.00228947	-0.1403769	0.02223784	-0.01672411	-3.35571	2.522452	0	0
14.29615	0.002657888	-0.1407332	0.02223909	-0.02150675	3.777739E-05	-0.1443444	0	0
14.31298	0.002605257	-0.1407728	-0.003127139	-0.002352427	-0.7595424	0.573539	0	0
14.32928	0.002526311	-0.1408322	-0.004843303	-0.003642969	-0.0517999	-0.03895313	0	0
14.34585	0.002421048	-0.1409509	-0.00635256	-0.007168165	-0.04591554	-0.1072457	0	0
14.36242	0.002263154	-0.1411093	-0.00953159	-0.009561204	-0.09594055	-0.07221998	0	0
14.37903	0.001131578	-0.1420004	-0.06811384	-0.05363626	-1.765678	-1.328429	0	0
14.39555	-0.001526315	-0.1440809	-0.1609031	-0.1259472	-2.800628	-2.182537	0	0
14.41255	-0.001289473	-0.1441007	0.01392936	-0.001165587	5.215509	3.722418	0	0
14.42868	-0.001289473	-0.1441007	0	0	-0.420401	0.0351785	0	0
14.44525	-0.001315789	-0.1441205	-0.001588425	-0.00119625	-0.04857913	-0.03658516	0	0
14.46209	-0.001289473	-0.1441403	0.001562521	-0.001177626	0.09431393	0.0005574458	0	0
14.49561	-0.001315789	-0.1441205	-0.0007850165	0.0005916439	-0.04661096	0.03512931	0	0
14.51213	-0.001289473	-0.1441007	0.001593286	0.001199911	0.0475287	0.01215578	0	0
14.5287	-0.001315789	-0.1440809	-0.001588516	0.001196319	-0.09617646	-0.0001085754	0	0
14.54526	-0.001315789	-0.1440809	0	0	0.0479429	-0.03610601	0	0
14.56216	-0.001315789	-0.1440809	0	0	0	0	0	0
14.5784	-0.001315789	-0.1440809	0	0	0	0	0	0
14.59518	-0.001289473	-0.1441007	0.001567669	-0.001180619	0.04747359	-0.03575257	0	0
14.61153	-0.001289473	-0.1441007	0	0	-0.04731372	0.03563217	0	0
14.62821	-0.001289473	-0.1441007	0	0	0	0	0	0
14.64467	-0.001289473	-0.1441007	0	0	0	0	0	0
14.66124	-0.001289473	-0.1441007	0	0	0	0	0	0
14.6778	-0.001315789	-0.1440809	-0.001588699	0.001196456	-0.04794566	0.03610808	0	0
14.71093	-0.001315789	-0.1440412	0	0.001196768	0.03196776	6.277915E-06	0	0
14.72778	-0.001315789	-0.1440016	0	0.00235255	0	0.02312437	0	0
14.74407	-0.001315789	-0.1440016	0	0	0	-0.07100418	0	0
14.76064	-0.001315789	-0.1440016	0	0	0	0	0	0
14.7772	-0.001342105	-0.1439818	-0.001588425	0.00119625	-0.047936	0.03610081	0	0
14.79383	-0.00136842	-0.1439223	-0.001582951	0.003577293	0.0001649268	0.07173616	0	0
14.81033	-0.00136842	-0.143843	0	0.004803873	0.04778042	0.03702357	0	0
14.8269	-0.001394736	-0.1438232	-0.001588692	0.001196456	-0.04804085	-0.1090855	0	0
14.84346	-0.001473683	-0.1436448	-0.004765542	0.01076687	-0.09588855	0.2888688	0	0
14.86003	-0.001631577	-0.1434863	-0.009530521	0.009569998	-0.1438115	-0.03612264	0	0
14.8766	-0.001657893	-0.1434268	-0.001588509	0.003588956	0.2396973	-0.1805134	0	0
14.89316	-0.001763156	-0.1433079	-0.006354044	0.007177012	-0.1438324	0.108294	0	0
14.90973	-0.002763151	-0.1424362	-0.06036329	0.05262183	-1.630096	1.371606	0	0
14.9263	-0.004657861	-0.1409311	-0.1143715	0.09084825	-1.630065	1.153742	0	0
14.94286	-0.005131534	-0.1404561	-0.02859261	0.02867657	2.588961	-1.876453	0	0
14.95943	-0.008947129	-0.1374692	-0.2302833	0.1802649	-6.086862	4.574812	0	0
14.976	-0.01620911	-0.1318616	-0.4384095	0.3385387	-6.281444	4.77685	0	0
14.99256	-0.0224436	-0.1271524	-0.3763364	0.2842642	1.873586	-1.638196	0	0
15.00913	-0.03014876	-0.1213914	-0.4650842	0.3477345	-2.678491	1.915594	0	0
15.0257	-0.03451261	-0.1181333	-0.2633418	0.1966096	6.087899	-4.560433	0	0
15.0425	-0.03898025	-0.1148012	-0.2659925	0.1983897	-0.07944242	0.05334731	0	0
15.05883	-0.03984732	-0.1141548	-0.05309457	0.03957713	6.426753	-4.794076	0	0
15.07539	-0.04047788	-0.1136849	-0.03806295	0.02836804	0.45693	-0.3407329	0	0
15.09196	-0.04047788	-0.1136849	0	0	1.148709	-0.8561245	0	0
15.10854	-0.04047788	-0.1136849	0	0	0	0	0	0
15.12509	-0.04047788	-0.1136849	0	0	0	0	0	0
15.14166	-0.04047788	-0.1136849	0	0	0	0	0	0
15.15823	-0.0404516	-0.1137045	0.001586204	-0.001182063	0.04787312	-0.03567576	0	0
15.17479	-0.0404516	-0.1137045	0	0	-0.04787725	0.03567884	0	0
15.19136	-0.04042533	-0.1137241	0.001585614	-0.001181791	0.04785393	-0.03566651	0	0
15.20793	-0.04037279	-0.1137632	0.003172001	-0.00236399	0.04787862	-0.03567986	0	0
15.22449	-0.04026769	-0.1138415	0.006343862	-0.004727707	0.09573521	-0.0713433	0	0
15.25763	-0.04003124	-0.1140178	0.00713676	-0.00531912	0.01595406	-0.01189994	0	0
15.27419	-0.03984732	-0.114194	0.01110129	-0.01063808	0.07976951	-0.1070217	0	0
15.29076	-0.03974222	-0.1142723	0.006343721	-0.004728334	-0.1435836	0.1783564	0	0
15.30733	-0.03968967	-0.1143115	0.003172226	-0.002364439	-0.09572144	0.0713466	0	0
15.32389	-0.0396634	-0.1143311	0.001586022	-0.001181927	-0.04787587	0.03569138	0	0
15.34046	-0.0396634	-0.1143311	0	0	-0.04786347	0.03566857	0	0
15.35722	-0.0396634	-0.1143311	0	0	0	0	0	0
15.37373	-0.0396634	-0.1143311	0	0	0	0	0	0
15.39016	-0.0396634	-0.1143311	0	0	0	0	0	0
15.40673	-0.0396634	-0.1143311	0	0	0	0	0	0
15.42329	-0.0396634	-0.1143311	0	0	0	0	0	0
15.43986	-0.03968967	-0.1143507	-0.001586022	-0.001182377	-0.04786898	-0.03568625	0	0
15.45642	-0.0396634	-0.1143703	0.001586022	-0.001182377	0.09573796	0	0	0
15.48956	-0.0396634	-0.1143703	0	0	-0.03191265	0.02379083	0	0
15.50632	-0.03963712	-0.1143899	0.001567523	-0.001168141	0.03141685	-0.0234123	0	0
15.52269	-0.03963712	-0.1143899	0	0	-0.04730929	0.03525559	0	0
15.53926	-0.03961085	-0.1144094	0.001586022	-0.001182377	0.04815172	-0.03589703	0	0
15.55582	-0.03961085	-0.1144094	0	0	-0.04786898	0.03568625	0	0
15.57239	-0.03958457	-0.114429	0.001586022	-0.001182377	0.04786898	-0.03568625	0	0
15.58896	-0.03958457	-0.114429	0	0	-0.04786898	0.03568625	0	0
15.60552	-0.03958457	-0.114429	0	0	0	0	0	0
15.62209	-0.03958457	-0.114429	0	0	0	0	0	0
15.63866	-0.03958457	-0.114429	0	0	0	0	0	0
15.65522	-0.03958457	-0.114429	0	0	0	0	0	0
15.67179	-0.03958457	-0.114429	0	0	0	0	0	0
15.68836	-0.03958457	-0.114429	0	0	0	0	0	0
15.70493	-0.03958457	-0.114429	0	0	0	0	0	0
15.72149	-0.03958457	-0.114429	0	0	0	0	0	0
15.73806	-0.03958457	-0.114429	0	0	0	0	0	0
15.75462	-0.03958457	-0.114429	0	0	0	0	0	0
15.77119	-0.03961085	-0.1143703	-0.001586022	0.00354668	-0.04786898	0.1070452	0	0
15.78776	-0.03968967	-0.1142332	-0.004757791	0.00827481	-0.09572694	0.1426994	0	0
15.80432	-0.0396634	-0.1141353	0.001585839	0.005909853	0.1914456	-0.07137249	0	0
15.82089	-0.03961085	-0.1138611	0.003172226	0.01654973	0.04787863	0.3211213	0	0
15.85402	-0.03850727	-0.1122951	0.03330791	0.04726425	0.6063778	0.6180249	0	0
15.87059	-0.03748244	-0.1114538	0.06185203	0.0507763	0.5743088	0.0706626	0	0
15.88759	-0.03409205	-0.1088142	0.1994993	0.1553188	4.101087	3.114757	0	0
15.90372	-0.03269887	-0.1077787	0.08632901	0.06416712	-3.415684	-2.751122	0	0
15.92061	-0.02704603	-0.1035432	0.3347125	0.2507892	7.520689	5.650644	0	0
15.93686	-0.02318006	-0.100639	0.238009	0.1787995	-2.918769	-2.172843	0	0
15.95342	-0.01986581	-0.09779636	0.2000486	0.1715818	-1.15697	-0.2199826	0	0
15.97014	-0.01605125	-0.09478185	0.2281196	0.1802752	0.8432536	0.26115	0	0
16.00373	-0.01631434	-0.08907339	-0.007834076	0.1699821	-4.690517	-0.2046162	0	0
16.02029	-0.02083909	-0.08082342	-0.2731141	0.4979691	-5.289741	6.54013	0	0
16.03719	-0.02604674	-0.07626375	-0.3081613	0.2698174	-1.047237	-6.817348	0	0
16.05343	-0.03185764	-0.07200071	-0.3579585	0.2626082	-1.502968	-0.2175852	0	0
16.07022	-0.03658893	-0.06853337	-0.2817854	0.2065076	2.306612	-1.698791	0	0
16.08656	-0.03735104	-0.06797515	-0.04663496	0.03415826	7.097262	-5.201814	0	0
16.10313	-0.03729848	-0.06805214	0.003172535	-0.004646936	1.513474	-1.179152	0	0
16.11969	-0.0372722	-0.06807139	0.001586155	-0.001162071	-0.04787704	0.1051734	0	0
16.13626	-0.03716709	-0.06814837	0.006344846	-0.004646936	0.1436176	-0.1051734	0	0
16.15283	-0.03711453	-0.06822537	0.003172901	-0.00464792	-0.095735	-2.972526E-05	0	0
16.16939	-0.03693057	-0.06839862	0.01110376	-0.01045729	0.2393676	-0.1753373	0	0
16.18596	-0.03687801	-0.06847562	0.003172535	-0.004647835	-0.2393648	0.1753297	0	0
16.20253	-0.03682545	-0.06855262	0.003172901	-0.00464837	1.102575E-05	-1.616267E-05	0	0
16.21909	-0.03682545	-0.06859113	0	-0.002324142	-0.09576384	0.07014938	0	0
16.23583	-0.03682545	-0.06862963	0	-0.002300308	0	0.0007156234	0	0
16.25223	-0.03682545	-0.06862963	0	0	0	0.06942742	0	0
16.26886	-0.03682545	-0.06862963	0	0	0	0	0	0
16.28537	-0.03682545	-0.06866813	0	-0.002331928	0	-0.07036152	0	0
16.30193	-0.03682545	-0.06870664	0	-0.002325481	0	0.0001949478	0	0
16.31849	-0.03682545	-0.06878365	0	-0.004648285	0	-0.07012253	0	0
16.33506	-0.03677289	-0.06893767	0.00317217	-0.009295949	0.09573077	-0.1402587	0	0
16.35163	-0.03674661	-0.06903394	0.001586338	-0.005811475	-0.04786051	0.1051616	0	0
16.36819	-0.03677289	-0.06913022	-0.001586338	-0.005811924	-0.09576257	-1.356337E-05	0	0
16.38494	-0.03674661	-0.06914947	0.001569174	-0.00114963	0.09472641	0.1399591	0	0
16.40145	-0.03677289	-0.06916873	-0.001591469	-0.001166415	-0.09503278	-0.0005046943	0	0
16.44737	-0.03677289	-0.06928427	0	-0.002515959	0.02549072	-0.02161578	0	0
16.46399	-0.03679917	-0.06938054	-0.001581101	-0.005791917	-0.02527988	-0.05237858	0	0
16.48051	-0.03679917	-0.06949609	0	-0.006997589	0.04771773	-0.03638723	0	0
16.51364	-0.03672033	-0.06959238	0.002379595	-0.002906245	0.04793272	0.08241288	0	0
16.53021	-0.03664149	-0.06968868	0.004758367	-0.005811935	0.047861	-0.05846261	0	0
16.54677	-0.03664149	-0.06972719	0	-0.002325127	-0.1436161	0.1052381	0	0
16.56356	-0.03664149	-0.06976571	0	-0.002293879	0	0.000936817	0	0
16.58008	-0.03666777	-0.06978497	-0.001591694	-0.001166415	-0.04779258	0.03385349	0	0
16.59659	-0.03666777	-0.06982349	0	-0.002332561	0.04819556	-0.03531021	0	0
16.6131	-0.03669405	-0.06984275	-0.001591878	-0.00116655	-0.04820392	0.03530816	0	0
16.62961	-0.03666777	-0.06986201	0.001591694	-0.001166415	0.09640783	4.082407E-06	0	0
16.64617	-0.03669405	-0.06988127	-0.001587111	-0.001163056	-0.09611912	0.0001015586	0	0
16.66274	-0.03672033	-0.06990054	-0.001586155	-0.001162971	2.885183E-05	2.593502E-06	0	0
16.67965	-0.03672033	-0.06990054	0	0	0.04738474	0.03474253	0	0
16.72901	-0.03674661	-0.06995831	-0.0005324303	-0.001170517	-0.008034389	-0.01766313	0	0
16.74569	-0.03674661	-0.06995831	0	0	0.008061304	0.0177223	0	0
16.76221	-0.03674661	-0.06999683	0	-0.00233283	0	-0.07027147	0	0
16.77871	-0.03679917	-0.07003536	-0.00318537	-0.0023349	-0.09649015	-6.269257E-05	0	0
16.81184	-0.03690429	-0.07018945	-0.003172535	-0.004650533	0.0002585932	-0.0466533	0	0
16.82841	-0.03735104	-0.07055546	-0.02696288	-0.02208985	-0.4786443	-0.3508663	0	0
16.84497	-0.03834961	-0.07136471	-0.06028061	-0.04885174	-1.005531	-0.8076754	0	0
16.86154	-0.03937438	-0.07219347	-0.0618551	-0.05002392	-0.04752106	-0.03537865	0	0
16.87829	-0.03877003	-0.0725983	0.03608765	-0.02417426	2.94001	0.7759458	0	0
16.89467	-0.03711453	-0.07381315	0.1010316	-0.07413918	1.960126	-1.508031	0	0
16.91131	-0.0359319	-0.07468122	0.07108095	-0.05217484	-0.906942	0.6651058	0	0
16.92783	-0.03566908	-0.07487416	0.0159151	-0.01168356	-1.664046	1.221396	0	0
16.94437	-0.0356428	-0.07489346	0.001588208	-0.001166112	-0.4333344	0.318113	0	0
16.96094	-0.0356428	-0.07489346	0	0	-0.0479626	0.03521563	0	0
16.97751	-0.0356428	-0.07489346	0	0	0	0	0	0
16.99407	-0.0356428	-0.07489346	0	0	0	0	0	0
17.01064	-0.0356428	-0.07489346	0	0	0	0	0	0
17.04378	-0.0356428	-0.07489346	0	0	0	0	0	0
17.06042	-0.0356428	-0.07489346	0	0	0	0	0	0
17.07691	-0.03566908	-0.07487416	-0.001593719	0.001170158	-0.04810685	0.03532154	0	0
17.09348	-0.03566908	-0.07487416	0	0	0.04820955	-0.03539694	0	0
17.11004	-0.03566908	-0.07487416	0	0	0	0	0	0
17.12661	-0.03566908	-0.07487416	0	0	0	0	0	0
17.14348	-0.03566908	-0.07487416	0	0	0	0	0	0
17.15974	-0.03566908	-0.07487416	0	0	0	0	0	0
17.1765	-0.03566908	-0.07487416	0	0	0	0	0	0
17.19287	-0.03566908	-0.07487416	0	0	0	0	0	0
17.22603	-0.03566908	-0.07487416	0	0	0	0	0	0
17.24257	-0.03566908	-0.07487416	0	0	0	0	0	0
17.25914	-0.03566908	-0.07487416	0	0	0	0	0	0
17.27571	-0.03566908	-0.07487416	0	0	0	0	0	0
17.30884	-0.03566908	-0.07487416	0	0	0	0	0	0
17.32561	-0.03566908	-0.07487416	0	0	0	0	0	0
17.34197	-0.03566908	-0.07487416	0	0	0	0	0	0
17.35854	-0.03566908	-0.07487416	0	0	0	0	0	0
17.37511	-0.03566908	-0.07487416	0	0	0	0	0	0
17.39167	-0.03566908	-0.07487416	0	0	0	0	0	0
17.40824	-0.03566908	-0.07487416	0	0	0	0	0	0
17.42481	-0.03566908	-0.07487416	0	0	0	0	0	0
17.44137	-0.03566908	-0.07487416	0	0	0	0	0	0
17.45794	-0.03566908	-0.07487416	0	0	0	0	0	0
17.4745	-0.03566908	-0.07487416	0	0	0	0	0	0
17.49122	-0.03566908	-0.07487416	0	0	0	0	0	0
17.50764	-0.03566908	-0.07487416	0	0	0	0	0	0
17.52424	-0.03566908	-0.07487416	0	0	0	0	0	0
17.54077	-0.03566908	-0.07487416	0	0	0	0	0	0
17.59047	-0.03566908	-0.07487416	0	0	0	0	0	0
17.62474	-0.0356428	-0.07489346	0.0007669225	-0.0005630983	0.009133388	-0.006706017	0	0
17.64131	-0.0356428	-0.07489346	0	0	-0.01508604	0.01107664	0	0
17.65787	-0.0356428	-0.07489346	0	0	0	0	0	0
17.67485	-0.0356428	-0.07489346	0	0	0	0	0	0
17.69101	-0.0356428	-0.07489346	0	0	0	0	0	0
17.70787	-0.0356428	-0.07489346	0	0	0	0	0	0
17.72414	-0.03566908	-0.07487416	-0.001615392	0.001186071	-0.04875544	0.03579776	0	0
17.74089	-0.03566908	-0.07487416	0	0	0.04891878	-0.03591768	0	0
17.75727	-0.03566908	-0.07487416	0	0	0	0	0	0
17.77392	-0.03566908	-0.07487416	0	0	0	0	0	0
17.79041	-0.0356428	-0.07489346	0.001593904	-0.001170294	0.04810688	-0.03532156	0	0
17.80744	-0.0356428	-0.07489346	0	0	-0.04754848	0.03491157	0	0
17.82354	-0.03566908	-0.07491276	-0.001632425	-0.001198577	-0.04926951	-0.0361752	0	0
17.84011	-0.03566908	-0.07491276	0	0	0.04997143	0.03669057	0	0
17.85668	-0.03566908	-0.07491276	0	0	0	0	0	0
17.87324	-0.03566908	-0.07491276	0	0	0	0	0	0
17.88981	-0.03566908	-0.07491276	0	0	0	0	0	0
17.90638	-0.03566908	-0.07491276	0	0	0	0	0	0
17.92294	-0.0356428	-0.07493205	0.001586563	-0.001164904	0.04788256	-0.03515686	0	0
17.93951	-0.03566908	-0.07495134	-0.001586563	-0.001164454	-0.09577614	1.357391E-05	0	0
17.95607	-0.0356428	-0.07497064	0.00158638	-0.001164769	0.09576512	-9.525434E-06	0	0
17.97264	-0.03553766	-0.07508641	0.006345745	-0.006988167	0.1436379	-0.1757505	0	0
17.98921	-0.0351697	-0.07543378	0.02221022	-0.02096675	0.4787908	-0.4218745	0	0
18.00608	-0.03038538	-0.07898705	0.2835268	-0.2105728	7.81413	-5.669775	0	0
18.02234	-0.0244688	-0.08341577	0.3639129	-0.2723986	2.426196	-1.866015	0	0
18.0391	-0.01586709	-0.08975232	0.5131156	-0.3779929	4.518295	-3.197702	0	0
18.07213	-0.006131502	-0.09697918	0.2947879	-0.2188249	-4.385023	3.196823	0	0
18.08861	0.001263157	-0.1024513	0.4487708	-0.3320964	3.110557	-2.288159	0	0
18.10518	0.006552538	-0.1063726	0.3192676	-0.2366901	-3.919017	2.887177	0	0
18.12217	0.0119468	-0.1103781	0.3174839	-0.2357458	-0.05315289	0.02814125	0	0
18.13831	0.01405171	-0.1119429	0.1304002	-0.09694082	-5.646523	4.189384	0	0
18.15487	0.01497257	-0.1126278	0.05558317	-0.04134122	-2.287345	1.69982	0	0
18.17144	0.01497257	-0.1126278	0	0	-1.677407	1.247609	0	0
18.18821	0.01497257	-0.1126278	0	0	0	0	0	0
18.20458	0.01497257	-0.1126278	0	0	0	0	0	0
18.22124	0.01497257	-0.1126278	0	0	0	0	0	0
18.23775	0.01494626	-0.1126474	-0.001593386	-0.001185367	-0.04803596	-0.03573535	0	0
18.25428	0.01491995	-0.112667	-0.001591788	-0.001184136	4.837572E-05	3.725953E-05	0	0
18.27127	0.01486733	-0.1127452	-0.003095589	-0.00460536	-0.04485294	-0.1020427	0	0
18.28741	0.01484102	-0.112804	-0.00163049	-0.003638907	0.04421678	0.02916759	0	0
18.30398	0.01481471	-0.1128235	-0.001588249	-0.001181545	0.001291703	0.07514526	0	0
18.32081	0.01468316	-0.1129606	-0.007816208	-0.008140972	-0.1864894	-0.2083925	0	0
18.33711	0.01415695	-0.1133521	-0.03226711	-0.02400722	-0.7378448	-0.4787891	0	0
18.37081	-0.002605257	-0.1258929	-0.4974936	-0.3722045	-9.304317	-6.963786	0	0
18.38737	-0.009604968	-0.1311319	-0.4225034	-0.3162318	1.492029	1.113651	0	0
18.40394	-0.02339047	-0.1414855	-0.8321903	-0.6250144	-12.36509	-9.319614	0	0
18.42051	-0.03685173	-0.1516453	-0.8125232	-0.6132435	0.5935881	0.355267	0	0
18.43707	-0.04594133	-0.1585359	-0.5486496	-0.4159189	7.963722	5.955266	0	0
18.45364	-0.05436742	-0.1649469	-0.5086583	-0.387017	1.20701	0.8723142	0	0
18.50334	-0.07933315	-0.1841279	-0.5023114	-0.3859209	0.09577738	0.0165393	0	0
18.51991	-0.08069283	-0.185177	-0.08207037	-0.06332658	6.34145	4.867959	0	0
18.53648	-0.08691208	-0.1899852	-0.3753949	-0.2902246	-8.852551	-6.847795	0	0
18.55304	-0.09275936	-0.1945608	-0.3529829	-0.2762153	0.6764336	0.4228258	0	0
18.56961	-0.09463751	-0.1960611	-0.1133523	-0.09054748	7.232065	5.603466	0	0
18.5865	-0.09781839	-0.1985369	-0.1883342	-0.1465839	-2.241027	-1.674792	0	0
18.60301	-0.09940809	-0.1998164	-0.09628708	-0.07750314	2.755936	2.068311	0	0
18.61952	-0.09940809	-0.1998977	0	-0.004921956	2.915853	2.197969	0	0
18.63603	-0.09935598	-0.1999383	0.003155864	-0.002460978	0.09556322	0.07452127	0	0
18.65254	-0.09925175	-0.2000196	0.006312908	-0.004922525	0.09560449	-0.07454281	0	0
18.66906	-0.09628034	-0.2022965	0.179956	-0.1378933	5.258417	-4.026742	0	0
18.68558	-0.09247236	-0.2052682	0.2305134	-0.1798923	1.530584	-1.271484	0	0
18.70214	-0.08555381	-0.2106728	0.4176525	-0.3262558	5.656336	-4.423881	0	0
18.71871	-0.07397006	-0.2197386	0.6991967	-0.5472177	8.497508	-6.669027	0	0
18.73528	-0.06752875	-0.2247901	0.3887982	-0.304907	-9.367844	7.312952	0	0
18.75184	-0.06100316	-0.2299158	0.393885	-0.3093897	0.1535193	-0.1352904	0	0
18.76863	-0.05460356	-0.2349099	0.3812766	-0.2975355	-0.3780408	0.355429	0	0
18.78498	-0.04665034	-0.2411802	0.4864418	-0.3835115	3.173892	-2.594762	0	0
18.80165	-0.04071433	-0.2458699	0.3560437	-0.2812911	-3.948835	3.095531	0	0
18.81816	-0.03682545	-0.2489471	0.2355198	-0.1863611	-3.631983	2.860712	0	0
18.83467	-0.02978067	-0.2545316	0.426599	-0.3381681	5.785767	-4.596626	0	0
18.85124	-0.02583635	-0.2576642	0.2381066	-0.1891066	-5.698224	4.506207	0	0
18.8682	-0.02344307	-0.2595671	0.1411121	-0.1121988	-2.89316	2.29401	0	0
18.88438	-0.01960275	-0.262624	0.2374053	-0.1889776	2.905969	-2.317054	0	0
18.90094	-0.01965536	-0.262624	-0.003176049	0	-7.347893	5.771797	0	0
18.91751	-0.01962906	-0.262645	0.001588024	-0.001264752	0.1437966	-0.0381747	0	0
18.93407	-0.01962906	-0.262645	0	0	-0.04792943	0.0381725	0	0
18.95064	-0.01955014	-0.2627079	0.004763961	-0.003796056	0.1437849	-0.1145718	0	0
18.96721	-0.01926078	-0.2629384	0.01746614	-0.01391427	0.3833748	-0.3053859	0	0
18.98378	-0.01870834	-0.2633785	0.03332955	-0.02655531	0.4786483	-0.3814193	0	0
19.00034	-0.01105218	-0.2694885	0.4623397	-0.3689656	12.94755	-10.33396	0	0
19.01691	-0.004684176	-0.2745845	0.3844178	-0.3076335	-2.352364	1.85154	0	0
19.03347	0.001236841	-0.279335	0.3573934	-0.2867384	-0.8156473	0.6306524	0	0
19.05004	0.007420917	-0.2843094	0.3732715	-0.3002605	0.4792033	-0.4080983	0	0
19.06684	0.009762848	-0.2861969	0.1394329	-0.1123737	-7.008847	5.631535	0	0
19.08318	0.013315	-0.2890635	0.2174121	-0.1754557	2.353416	-1.903818	0	0
19.11637	0.0167879	-0.2918708	0.1046134	-0.08456262	-2.277117	1.834898	0	0
19.13288	0.01676159	-0.2918495	-0.001594194	0.001289442	-2.136983	1.727413	0	0
19.14944	0.01676159	-0.2918921	0	-0.002569085	0.04821001	-0.1166856	0	0
19.16601	0.01676159	-0.2918921	0	0	0	0.07753959	0	0
19.18258	0.01676159	-0.2918921	0	0	0	0	0	0
19.21594	0.01673528	-0.2919134	-0.000788485	-0.0006377551	-0.01579042	-0.01277186	0	0
19.23228	0.01673528	-0.2919985	0	-0.005213199	0.01586557	-0.09206518	0	0
19.24884	0.0167879	-0.2920411	0.003175908	-0.002568789	0.09653258	0.08037756	0	0
19.26548	0.01689313	-0.2922114	0.006325711	-0.01023633	0.09486466	-0.2309282	0	0
19.28197	0.0174456	-0.2927862	0.03348969	-0.03484688	0.8198578	-0.7427906	0	0
19.29854	0.02097061	-0.2957698	0.2127456	-0.1800697	5.421189	-4.391935	0	0
19.31511	0.02575746	-0.2997413	0.2890014	-0.2397765	2.301538	-1.802057	0	0
19.33203	0.03248857	-0.3053505	0.3978174	-0.3315068	3.249838	-2.739568	0	0
19.34824	0.03761383	-0.3095796	0.3160568	-0.2607934	-2.467396	2.134012	0	0
19.38137	0.04573125	-0.3162765	0.2450124	-0.2021382	-1.439694	1.18863	0	0
19.39808	0.04594133	-0.3164491	0.01257788	-0.01033281	-4.664241	3.84894	0	0
19.41458	0.04594133	-0.3164491	0	0	-0.378751	0.3111462	0	0
19.43107	0.04594133	-0.3164491	0	0	0	0	0	0
19.44764	0.04594133	-0.3164491	0	0	0	0	0	0
19.46421	0.04594133	-0.3164491	0	0	0	0	0	0
19.48114	0.04594133	-0.3164491	0	0	0	0	0	0
19.49734	0.04591507	-0.3164275	-0.001620668	0.001331666	-0.04890906	0.04018744	0	0
19.51391	0.04591507	-0.3164275	0	0	0.0494585	-0.0406389	0	0
19.53048	0.04588882	-0.316406	-0.001585031	0.001302383	-0.04783908	0.03930826	0	0
19.54718	0.04588882	-0.316406	0	0	0.04764434	-0.03914826	0	0
19.56361	0.04586256	-0.3163844	-0.001598094	0.001313117	-0.04823334	0.03963222	0	0
19.58018	0.04586256	-0.3163844	0	0	0.04842849	-0.03979257	0	0
19.59675	0.04583629	-0.3163628	-0.001585073	0.001300435	-0.04783485	0.03924493	0	0
19.61331	0.04583629	-0.3163628	0	0	0.0478376	-0.03924719	0	0
19.62988	0.04581003	-0.3163413	-0.001585031	0.001302383	-0.04783908	0.03930826	0	0
19.64645	0.04581003	-0.3163413	0	0	0.04783633	-0.039306	0	0
19.66301	0.04578377	-0.3163197	-0.001585031	0.001302383	-0.04783633	0.039306	0	0
19.67978	0.04575751	-0.3162981	-0.001566634	0.001287267	0.0005519815	-0.0004535512	0	0
19.69615	0.04570499	-0.3162549	-0.003207958	0.002635718	-0.04953526	0.04069633	0	0
19.7128	0.04565247	-0.3162118	-0.003153947	0.002591341	0.001635425	-0.00134369	0	0
19.72931	0.04562621	-0.3161902	-0.001590524	0.001306897	0.04714348	-0.03873117	0	0
19.74585	0.04552116	-0.3160608	-0.006352274	0.007826918	-0.1440914	0.1972971	0	0
19.76284	0.04533733	-0.3159098	-0.0108208	0.008888725	-0.1332875	0.03167167	0	0
19.77898	0.04502219	-0.315651	-0.01951879	0.01602924	-0.2625059	0.2155011	0	0
19.79555	0.04483835	-0.3155	-0.01109657	0.009113085	0.2574586	-0.2114196	0	0
19.81237	0.04483835	-0.3154569	0	0.002563421	0.3323315	-0.1961562	0	0
19.82868	0.04481208	-0.3154353	-0.001610283	0.001321117	-0.04860124	-0.03749496	0	0
19.84525	0.04478582	-0.3154137	-0.001585031	0.001302383	0.0007680862	-0.0005698291	0	0
19.91492	0.0447333	-0.3153275	-0.0007539578	0.001237988	0.0096373	-0.0007467397	0	0
19.93148	0.0447333	-0.3153275	0	0	0.008743249	-0.01435629	0	0
19.94847	0.04470703	-0.3153059	-0.00154627	0.001270354	-0.04608815	0.03786419	0	0
19.96461	0.04470703	-0.3153059	0	0	0.0466692	-0.03834156	0	0
19.98118	0.04470703	-0.3153059	0	0	0	0	0	0
19.99775	0.04470703	-0.3153059	0	0	0	0	0	0
20.01452	0.04470703	-0.3153059	0	0	0	0	0	0
20.03088	0.04470703	-0.3153059	0	0	0	0	0	0
20.04754	0.04470703	-0.3153059	0	0	0	0	0	0
20.06405	0.04470703	-0.3153059	0	0	0	0	0	0
20.08058	0.04470703	-0.3153059	0	0	0	0	0	0
20.09715	0.04470703	-0.3153059	0	0	0	0	0	0
20.11372	0.04470703	-0.3153059	0	0	0	0	0	0
20.13028	0.04470703	-0.3153059	0	0	0	0	0	0
20.16342	0.04468077	-0.3152844	-0.0007926279	0.0006502921	-0.01594832	0.01308441	0	0
20.21316	0.04468077	-0.3152412	0	0.0008668907	0.009563558	0.002613398	0	0
20.22969	0.04468077	-0.3152412	0	0	0	-0.01308103	0	0
20.24625	0.04465451	-0.3151765	-0.001585256	0.003905351	-0.04790378	0.1180132	0	0
20.26282	0.04468077	-0.3151119	0.001585438	0.003904001	0.09569725	-4.072993E-05	0	0
20.27939	0.04468077	-0.3150256	0	0.005205935	-0.04785138	0.0392947	0	0
20.29595	0.04468077	-0.3147669	0	0.01561421	0	0.3141223	0	0
20.31273	0.04462824	-0.3146376	-0.003130506	0.007706818	-0.09387901	-0.2371303	0	0
20.32925	0.04433934	-0.3141419	-0.01749466	0.0300174	-0.4314496	0.6701329	0	0
20.34566	0.04355139	-0.3132802	-0.04801945	0.05251439	-0.9271643	0.6833267	0	0
20.36222	0.04121349	-0.3111923	-0.1411323	0.1260435	-2.823807	2.229894	0	0
20.37879	0.03672033	-0.3073027	-0.271239	0.2347996	-3.927079	3.282644	0	0
20.39535	0.0316999	-0.3031647	-0.3030334	0.2497751	-0.959613	0.4519894	0	0
20.41192	0.02375869	-0.2965378	-0.4793328	0.3999971	-5.320724	4.533708	0	0
20.42849	0.01786652	-0.291509	-0.3556519	0.303538	3.732697	-2.911141	0	0
20.44505	0.01113112	-0.2852635	-0.4065964	0.3770222	-1.537598	2.217884	0	0
20.46184	0.009762848	-0.2835677	-0.08152837	0.1010449	9.747728	-8.275658	0	0
20.47835	0.006526223	-0.2760611	-0.1960175	0.4546158	-3.438662	10.61944	0	0
20.55932	0.01586709	-0.248219	0.1153556	0.3438385	3.194012	-1.136335	0	0
20.57592	0.02147038	-0.2437935	0.3376325	0.266663	2.278118	-0.7909729	0	0
20.59243	0.02333787	-0.242279	0.1131121	0.09172919	-6.781893	-5.284074	0	0
20.60898	0.02780862	-0.2387153	0.2700417	0.2152578	4.745979	3.735842	0	0
20.62555	0.02878152	-0.2379081	0.05871786	0.04871503	-6.379602	-5.027717	0	0
20.64212	0.02899187	-0.2361706	0.0126997	0.1048966	-1.388911	1.69566	0	0
20.65898	0.0208917	-0.2298128	-0.4804102	0.377076	-14.753	8.14314	0	0
20.67549	0.01634065	-0.2262504	-0.2756537	0.2157743	6.135766	-4.833593	0	0
20.70851	-0.0006315788	-0.2130224	-0.5139388	0.4005564	-4.810551	3.730422	0	0
20.72495	-0.007631431	-0.2075915	-0.4257469	0.3303219	1.782908	-1.419878	0	0
20.74152	-0.0167879	-0.2005073	-0.552749	0.4276519	-3.84777	2.948796	0	0
20.75855	-0.02344307	-0.1953717	-0.3907749	0.3015516	4.821224	-3.753425	0	0
20.77465	-0.02943886	-0.1907135	-0.3723667	0.2892976	0.5555937	-0.3698504	0	0
20.79122	-0.03679917	-0.1850156	-0.4442692	0.3439245	-2.200934	1.67213	0	0
20.80808	-0.04050415	-0.1819303	-0.2197123	0.1829615	6.717205	-4.814913	0	0
20.82435	-0.04588882	-0.1741053	-0.3309243	0.4809005	-3.356384	8.991818	0	0
20.8411	-0.04696544	-0.1663074	-0.06426744	0.4654864	8.074679	-0.4667574	0	0
20.85762	-0.04770063	-0.1553669	-0.04451988	0.662505	0.5936248	5.92251	0	0
20.87405	-0.04833075	-0.1476119	-0.03834768	0.4719494	0.1873451	-5.783943	0	0
20.89064	-0.04833075	-0.1400009	0	0.4588721	1.161413	-0.3960641	0	0
20.90718	-0.04767437	-0.1310531	0.03966949	0.5407763	1.197296	2.472017	0	0
20.92416	-0.04510098	-0.1257355	0.1515616	0.3131837	3.337525	-6.78865	0	0
20.94032	-0.04452319	-0.1221967	0.03576479	0.2190461	-3.494754	-2.841078	0	0
21.02323	-0.02799269	-0.07487416	0.1993684	0.5707402	1.651401	3.54997	0	0
21.03972	-0.02328526	-0.06387845	0.2855542	0.6670043	0.8670643	0.9684556	0	0
21.05628	-0.01928708	-0.0550512	0.2413586	0.5328757	-1.337213	-4.058287	0	0
21.07285	-0.01442005	-0.04592601	0.2937744	0.5507972	1.582005	0.5409033	0	0
21.08978	-0.009105012	-0.03403085	0.3138784	0.7024655	0.6001062	4.52732	0	0
21.10598	-0.006236761	-0.02565216	0.1770622	0.517232	-4.129358	-5.590679	0	0
21.1228	-0.003078938	-0.01879122	0.1877534	0.4079274	0.323797	-3.310445	0	0
21.13912	-0.001999997	-0.01442088	0.06612993	0.2678651	-3.670603	-4.227087	0	0
21.15582	0.001210526	-0.007508584	0.1921505	0.4137026	3.81605	4.416127	0	0
21.17225	0.003736825	-0.004755311	0.1538159	0.1676354	-1.15701	-7.426751	0	0
21.18885	0.001026315	0.001515836	-0.1632871	0.3777878	-9.602244	6.363659	0	0
21.20538	0.0005	0.002381193	-0.03183076	0.0523355	3.96736	-9.822169	0	0
21.22195	-7.894737E-05	0.009671477	-0.03494935	0.4400931	-0.09421695	11.71469	0	0
21.23852	-0.001763156	0.01548504	-0.1016473	0.3508669	-2.012949	-2.692853	0	0
21.25508	-0.0031842	0.02323387	-0.08578425	0.4677744	0.4787488	3.528276	0	0
21.27191	-0.007184087	0.02868908	-0.2377387	0.3242379	-4.550889	-4.29878	0	0
21.28842	-0.007999829	0.03225294	-0.04940895	0.2158601	5.649655	-3.251197	0	0
21.30478	-0.01126268	0.03683792	-0.1993793	0.2801694	-4.561827	1.956171	0	0
21.32135	-0.01439374	0.03905382	-0.1889913	0.133752	0.3154361	-4.446016	0	0
21.33796	-0.01599864	0.0401892	-0.09660457	0.06834256	2.784389	-1.971336	0	0
21.35449	-0.01599864	0.0401892	0	0	2.915364	-2.062464	0	0
21.37105	-0.01597233	0.04017059	0.001588432	-0.001123654	0.04800807	-0.03396082	0	0
21.38799	-0.01594602	0.04015198	0.001553087	-0.001098509	-0.001054989	0.000750543	0	0
21.40418	-0.01594602	0.04011476	0	-0.00229839	-0.04687227	-0.03621247	0	0
21.43753	-0.01591971	0.03998448	0.000789037	-0.003906921	0.01592741	-0.03246962	0	0
21.45404	-0.01594602	0.03985421	-0.001593755	-0.007891708	-0.04779696	-0.07993175	0	0
21.47045	-0.01599864	0.03977976	-0.003205544	-0.004535353	-0.04895673	0.1019464	0	0
21.48706	-0.01610387	0.03966809	-0.006336721	-0.00672434	-0.09482113	-0.06628888	0	0
21.50358	-0.01628803	0.03946334	-0.01114424	-0.01238963	-0.1450996	-0.1709886	0	0
21.52015	-0.01705098	0.03851394	-0.04605687	-0.05731303	-1.055062	-1.357588	0	0
21.53672	-0.01773498	0.03795535	-0.04128647	-0.03371625	0.1439793	0.7121932	0	0
21.55361	-0.01768237	0.03773189	0.003114481	-0.01322775	1.326961	0.6123169	0	0
21.56985	-0.01768237	0.03773189	0	0	-0.09399523	0.3992144	0	0
21.58644	-0.01765606	0.03771327	0.001585399	-0.001122037	0.04828379	-0.03417196	0	0
21.60298	-0.01762975	0.03769465	0.001590701	-0.001126015	0.000160035	-0.0001200605	0	0
21.61965	-0.01762975	0.03769465	0	0	-0.04790267	0.03390901	0	0
21.63616	-0.01762975	0.0376574	0	-0.002255671	0	-0.06798237	0	0
21.65269	-0.01757714	0.03758291	0.003184595	-0.004508738	0.09640539	-0.06820578	0	0
21.66925	-0.0174456	0.03745255	0.007940684	-0.007869621	0.1437459	-0.1015778	0	0
21.68582	-0.01644589	0.03667028	0.0603427	-0.04721791	1.581587	-1.187602	0	0
21.70238	-0.01520935	0.03579469	0.07463727	-0.05285085	0.4314109	-0.1700026	0	0
21.71895	-0.01444636	0.03517979	0.04605415	-0.03711545	-0.8626403	0.4748955	0	0
21.73574	-0.01444636	0.03517979	0	0	-1.380855	1.112844	0	0
21.75209	-0.01444636	0.03517979	0	0	0	0	0	0
21.76865	-0.01447267	0.03516115	-0.001588066	-0.001124745	-0.04824454	-0.03416909	0	0
21.78527	-0.01447267	0.03516115	0	0	0.04785081	0.03389023	0	0
21.80179	-0.01447267	0.03516115	0	0	0	0	0	0
21.90119	-0.01444636	0.03514251	0.0002646879	-0.0001875021	0.002283535	-0.001617632	0	0
21.91787	-0.01444636	0.03514251	0	0	-0.002280158	0.00161524	0	0
21.93438	-0.01444636	0.03514251	0	0	0	0	0	0
21.95089	-0.01447267	0.03512388	-0.001593202	-0.001128382	-0.0482468	-0.03417069	0	0
21.96745	-0.01447267	0.03512388	0	0	0.04816612	0.03411354	0	0
21.98402	-0.01449898	0.03510525	-0.001588066	-0.001124745	-0.04793346	-0.03394876	0	0
22.00059	-0.01447267	0.03508661	0.001588249	-0.001125099	0.09586692	-1.069547E-05	0	0
22.01744	-0.01449898	0.03506798	-0.001561461	-0.001105901	-0.09426081	0.0005745262	0	0
22.03372	-0.01452529	0.03504934	-0.001615841	-0.001144604	-0.001641284	-0.001168122	0	0
22.05029	-0.01452529	0.03501207	0	-0.002249714	0.04918806	-0.03364082	0	0
22.06698	-0.01452529	0.03497479	0	-0.002233004	0	0.0005024365	0	0
22.08342	-0.01449898	0.03491889	0.001600097	-0.003400128	0.04829101	-0.03522387	0	0
22.1	-0.01442005	0.03486298	0.004762063	-0.00337313	0.09576459	0.0008176616	0	0
22.11655	-0.01407802	0.03458342	0.0206572	-0.01688381	0.4797439	-0.4077766	0	0
22.13312	-0.01086799	0.03230888	0.1937574	-0.1372912	5.225679	-3.634949	0	0
22.16626	0.001578946	0.02343953	0.3756494	-0.2676777	3.659673	-2.623381	0	0
22.18282	0.00536837	0.02070895	0.2287564	-0.1648369	-2.955606	2.069241	0	0
22.19957	0.01220992	0.01584104	0.4085356	-0.2906822	5.396854	-3.777794	0	0
22.21608	0.0161828	0.01297328	0.2406345	-0.173698	-5.048665	3.51763	0	0
22.23252	0.02120735	0.009352384	0.305569	-0.2202056	1.970504	-1.411319	0	0
22.2491	0.02323266	0.007869152	0.1221498	-0.08945595	-5.554145	3.95925	0	0
22.26566	0.02586265	0.005990716	0.1588746	-0.1134741	1.108357	-0.7248684	0	0
22.29914	0.02833452	0.004224036	0.07383186	-0.0527687	-1.699714	1.213293	0	0
22.31565	0.02825564	0.004280434	-0.004776348	0.003414783	-1.572308	1.123773	0	0
22.33217	0.02822934	0.004299233	-0.001591748	0.001137998	0.09639997	-0.0689198	0	0
22.34849	0.02822934	0.004299233	0	0	0.04847155	-0.03465405	0	0
22.36519	0.02822934	0.004299233	0	0	0	0	0	0
22.3817	0.02825564	0.004280434	0.001592668	-0.001138655	0.0479619	-0.03428968	0	0
22.39821	0.02825564	0.004280434	0	0	-0.0482334	0.03448379	0	0
22.41475	0.02825564	0.004280434	0	0	0	0	0	0
22.43132	0.02828193	0.004261635	0.001587167	-0.001134723	0.04793115	-0.0342677	0	0
22.44789	0.02825564	0.004280434	-0.001587167	0.001134723	-0.09580159	0.068492	0	0
22.46445	0.02828193	0.004261635	0.001587167	-0.001134723	0.09580159	-0.068492	0	0
22.48102	0.02825564	0.004280434	-0.001587167	0.001134723	-0.09580159	0.068492	0	0
22.49778	0.02822934	0.004261635	-0.001569281	-0.001121935	0.0005367468	-0.06772014	0	0
22.51415	0.02820305	0.004242836	-0.001605653	-0.001147939	-0.001097761	-0.0007848311	0	0
22.53072	0.02817675	0.004224036	-0.001587167	-0.001134723	0.0005611227	0.0004011669	0	0
22.61386	0.02757196	0.003829226	-0.007274616	-0.004748882	-0.05704291	-0.03624862	0	0
22.63037	0.02391649	0.001290053	-0.2213579	-0.1537604	-2.148323	-1.495329	0	0
22.64688	0.01381491	-0.005943084	-0.6118459	-0.4381062	-11.82443	-8.61032	0	0
22.66339	0.005394685	-0.01198289	-0.5099484	-0.3657849	3.085754	2.1901	0	0
22.67991	-0.002973675	-0.01795832	-0.5068073	-0.3618855	0.09511631	0.1180782	0	0
22.69642	-0.01105218	-0.02369848	-0.4893096	-0.347678	0.52988	0.430243	0	0
22.72952	-0.02762455	-0.03555326	-0.5006161	-0.3581076	-0.22789	-0.2102143	0	0
22.74609	-0.0332509	-0.0395532	-0.3396071	-0.2414369	3.241499	2.348861	0	0
22.76266	-0.03853355	-0.04311953	-0.3188615	-0.2152645	0.6261036	0.7898864	0	0
22.77922	-0.0396634	-0.04371116	-0.0681977	-0.0357103	7.565048	5.418955	0	0
22.79599	-0.04102959	-0.04405473	-0.08147871	-0.02049059	-0.3984134	0.4565721	0	0
22.8125	-0.04155501	-0.04367298	-0.03182425	0.02312228	1.492133	1.310581	0	0
22.82901	-0.04176517	-0.0435203	-0.01272791	0.009246943	0.5782927	-0.4201857	0	0
22.84552	-0.0417389	-0.04350121	0.001591201	0.001155945	0.4336244	-0.245019	0	0
22.86206	-0.04171263	-0.04348213	0.00158859	0.001154211	-7.902688E-05	-5.245677E-05	0	0
22.87905	-0.04166009	-0.04344396	0.003092028	0.002246236	0.04484211	0.03257114	0	0
22.89519	-0.04163382	-0.04342487	0.001627681	0.001182446	-0.04419661	-0.0321071	0	0
22.91175	-0.04160755	-0.04340579	0.001585888	0.001152085	-0.001277869	-0.0009283203	0	0
22.92832	-0.04155501	-0.04336762	0.003171411	0.002303905	0.04785393	0.034764	0	0
22.96675	-0.04150247	-0.04332945	0.001367129	0.000993236	-0.03280721	-0.02383187	0	0
22.98332	-0.0414762	-0.04331037	0.001585705	0.001151953	0.003974364	0.00288594	0	0
23.00013	-0.04144993	-0.04329129	0.001562323	0.001134744	-0.0007004501	-0.0005154859	0	0
23.01645	-0.04139739	-0.04325312	0.003219597	0.00233891	0.05001665	0.03634181	0	0
23.03302	-0.04129231	-0.04310045	0.006342822	0.009214721	0.09496979	0.209077	0	0
23.04959	-0.04137112	-0.04292871	-0.004757664	0.01036742	-0.3350326	0.03479044	0	0
23.06618	-0.04218549	-0.04226094	-0.0490762	0.04024223	-1.336536	0.9009495	0	0
23.08272	-0.04355139	-0.04123095	-0.08257944	0.06227072	-1.01113	0.6648211	0	0
23.11585	-0.04352513	-0.04109745	0.0007928316	0.004029262	1.678484	-1.17254	0	0
23.13273	-0.04336753	-0.04098304	0.00933849	0.006779648	0.1708897	0.05500017	0	0
23.14925	-0.04268458	-0.04048729	0.04134148	0.03001016	0.9582949	0.6956124	0	0
23.16575	-0.03850727	-0.03745733	0.2531047	0.1835859	6.412436	4.65045	0	0
23.18226	-0.03006988	-0.03134947	0.510929	0.3698636	7.808571	5.641685	0	0
23.19878	-0.02394279	-0.02688568	0.3710278	0.2703059	-4.235882	-3.014375	0	0
23.21528	-0.01876096	-0.02314864	0.3139328	0.2264024	-1.729101	-1.329603	0	0
23.2323	-0.01415695	-0.01987055	0.270578	0.1926541	-1.293338	-1.006761	0	0
23.24838	-0.01415695	-0.01990842	0	-0.00235496	-8.174529	-5.891489	0	0
23.26495	-0.01415695	-0.0199463	0	-0.002286253	0	0.002104203	0	0
23.28184	-0.01418326	-0.01996524	-0.001558341	-0.001121745	-0.04658566	0.03481228	0	0
23.34788	-0.01491995	-0.02106391	-0.01115385	-0.01663447	-0.1157039	-0.1870547	0	0
23.36439	-0.01502519	-0.02121548	-0.006375811	-0.009182666	0.05787778	0.090266	0	0
23.38092	-0.01544614	-0.02155654	-0.02546748	-0.02063391	-0.5779176	-0.3466369	0	0
23.39748	-0.01586709	-0.02185974	-0.02541154	-0.01830304	0.001690341	0.07043097	0	0
23.41442	-0.01734037	-0.02292115	-0.08696486	-0.06265338	-1.837062	-1.323638	0	0
23.43062	-0.01834005	-0.0236416	-0.06174121	-0.04449566	0.7612952	0.5480326	0	0
23.46396	-0.01834005	-0.0236416	0	0	1.246493	0.8983226	0	0
23.48032	-0.01834005	-0.0236416	0	0	0	0	0	0
23.49688	-0.01834005	-0.0236416	0	0	0	0	0	0
23.51345	-0.01834005	-0.0236416	0	0	0	0	0	0
23.53002	-0.01836636	-0.02362264	-0.001588024	0.001144664	-0.04792667	0.03454603	0	0
23.54658	-0.01836636	-0.02362264	0	0	0.04793219	-0.03455	0	0
23.59629	-0.01836636	-0.02366056	0	-0.0007629921	0	-0.01151357	0	0
23.61285	-0.01836636	-0.02366056	0	0	0	0.01151324	0	0
23.62958	-0.01834005	-0.02371745	0.001572992	-0.003401485	0.04724996	-0.1021747	0	0
23.64609	-0.01834005	-0.02375537	0	-0.002296733	-0.0473286	0.03324008	0	0
23.6626	-0.01836636	-0.02377433	-0.001593161	-0.001148366	-0.04824275	0.03477386	0	0
23.67912	-0.01836636	-0.02377433	0	0	0.0482344	0.03476784	0	0
23.69569	-0.01834005	-0.0237933	0.001587842	-0.001144532	0.04799299	-0.03459382	0	0
23.71225	-0.01836636	-0.02381226	-0.001587842	-0.001144645	-0.09584231	-3.393965E-06	0	0
23.72882	-0.01836636	-0.02381226	0	0	0.04792392	0.03454743	0	0
23.74539	-0.01836636	-0.02381226	0	0	0	0	0	0
23.76195	-0.01836636	-0.02381226	0	0	0	0	0	0
23.77852	-0.01836636	-0.02381226	0	0	0	0	0	0
23.79509	-0.01836636	-0.02381226	0	0	0	0	0	0
23.81166	-0.01839266	-0.02383122	-0.001588137	-0.001144664	-0.04793007	-0.03454603	0	0
23.82822	-0.01839266	-0.02383122	0	0	0.04793559	0.03455	0	0
23.84479	-0.01839266	-0.02383122	0	0	0	0	0	0
23.86136	-0.01841897	-0.02385018	-0.001587659	-0.001144513	-0.04791288	-0.03453948	0	0
23.87792	-0.01841897	-0.02385018	0	0	0.04791288	0.03453948	0	0
23.89449	-0.01844528	-0.02386915	-0.001587842	-0.001144532	-0.04792115	-0.03454205	0	0
23.91106	-0.01841897	-0.02388811	0.001587842	-0.001144645	0.09584231	-3.393965E-06	0	0
23.92762	-0.01844528	-0.02390707	-0.001588024	-0.001144664	-0.09585334	-5.832615E-07	0	0
23.94419	-0.01844528	-0.02390707	0	0	0.04792667	0.03454603	0	0
23.97833	-0.01841897	-0.02396396	0.0007706315	-0.0016666	0.01519835	-0.03286859	0	0
23.99451	-0.01841897	-0.02396396	0	0	-0.01531414	0.033119	0	0
24.01135	-0.01844528	-0.02398293	-0.001562124	-0.001126105	-0.04730019	-0.0340978	0	0
24.02787	-0.01844528	-0.02398293	0	0	0.04683763	0.03376435	0	0
24.04421	-0.01844528	-0.02398293	0	0	0	0	0	0
24.07735	-0.01847158	-0.02400189	-0.0007940228	-0.0005723552	-0.01604721	-0.0115673	0	0
24.09391	-0.01847158	-0.02400189	0	0	0.01597638	0.01151625	0	0
24.11048	-0.01849789	-0.02402085	-0.001587842	-0.001144645	-0.04792115	-0.03454544	0	0
24.12705	-0.01849789	-0.02402085	0	0	0.04792115	0.03454544	0	0
24.14361	-0.01849789	-0.02402085	0	0	0	0	0	0
24.16018	-0.01849789	-0.02402085	0	0	0	0	0	0
24.17675	-0.01849789	-0.02402085	0	0	0	0	0	0
24.19331	-0.01849789	-0.02402085	0	0	0	0	0	0
24.20988	-0.0185242	-0.02403982	-0.001587659	-0.001144513	-0.04791564	-0.03454147	0	0
24.22651	-0.0185242	-0.02403982	0	0	0.04783303	0.03448192	0	0
24.24302	-0.0185242	-0.02403982	0	0	0	0	0	0
24.25958	-0.0185242	-0.02403982	0	0	0	0	0	0
24.27654	-0.0185242	-0.02403982	0	0	0	0	0	0
24.29272	-0.0185505	-0.02405878	-0.001626529	-0.001172451	-0.04908875	-0.03538464	0	0
24.30928	-0.0185505	-0.02405878	0	0	0.04967495	0.03580718	0	0
24.32585	-0.01857681	-0.02407774	-0.001588024	-0.001144776	-0.04792667	-0.03454942	0	0
24.34309	-0.01865573	-0.02413464	-0.00457659	-0.003299206	-0.08839384	-0.06372232	0	0
24.35898	-0.01883988	-0.02430532	-0.01158864	-0.01074148	-0.211624	-0.2246084	0	0
24.37561	-0.0189188	-0.02440015	-0.004746152	-0.005702888	0.2104189	0.1549461	0	0
24.42565	-0.04008378	-0.04050635	-0.4229996	-0.3218957	-6.274076	-4.7431	0	0
24.45867	-0.06483007	-0.05861721	-0.7493897	-0.5484495	-3.929694	-2.727678	0	0
24.47495	-0.07614198	-0.06699371	-0.6948681	-0.5145513	1.105889	0.687575	0	0
24.49152	-0.08403844	-0.0728875	-0.4766313	-0.3557503	6.644151	4.834648	0	0
24.50821	-0.08915775	-0.0767464	-0.3066013	-0.2311144	5.111506	3.74685	0	0
24.52472	-0.09805297	-0.08384162	-0.5389645	-0.4299015	-6.998634	-5.987342	0	0
24.54123	-0.1037837	-0.08911218	-0.3469436	-0.3190865	5.814953	3.3558	0	0
24.55778	-0.1080772	-0.09662904	-0.2594586	-0.4542416	2.645785	-4.087459	0	0
24.57435	-0.1095335	-0.09939253	-0.08789265	-0.1667852	5.180553	8.679946	0	0
24.63407	-0.09560241	-0.1160551	0.2332775	-0.2790163	4.209957	-1.471145	0	0
24.65064	-0.09275936	-0.1181922	0.171607	-0.1289935	-0.8084086	1.966575	0	0
24.66732	-0.08557993	-0.123592	0.4304764	-0.3237684	7.786699	-5.858759	0	0
24.68377	-0.08137255	-0.1267193	0.2556948	-0.1900605	-5.275224	4.035544	0	0
24.70034	-0.07875781	-0.1286883	0.1578263	-0.1188452	-2.963743	2.156609	0	0
24.71691	-0.07436263	-0.1319207	0.2652936	-0.1951119	3.24337	-2.301736	0	0
24.75092	-0.07056684	-0.1347823	0.1115832	-0.08411919	-3.038668	2.194192	0	0
24.76749	-0.06946699	-0.1355723	0.06638692	-0.04768359	-0.8934752	0.7202875	0	0
24.78406	-0.06724058	-0.1372518	0.1343865	-0.1013781	2.052232	-1.620504	0	0
24.80062	-0.06483007	-0.1390314	0.1454986	-0.1074187	0.3353632	-0.182306	0	0
24.81719	-0.06483007	-0.1390314	0	0	-4.390903	3.241717	0	0
24.83394	-0.06480387	-0.1389325	0.001564903	0.005907208	0.04697468	0.1773204	0	0
24.85045	-0.06480387	-0.138893	0	0.002395099	-0.0470555	-0.1056066	0	0
24.86696	-0.06477766	-0.1388732	0.001586956	0.001198452	0.04805488	-0.03623587	0	0
24.88347	-0.06477766	-0.1388336	0	0.002396279	-0.04805765	0.03627367	0	0
24.90003	-0.06475146	-0.1388139	0.001582934	0.001194514	0.047875	-0.03634674	0	0
24.91659	-0.06475146	-0.1388139	0	0	-0.04779229	-0.03606504	0	0
24.93316	-0.06475146	-0.1388139	0	0	0	0	0	0
24.94973	-0.06472525	-0.1388336	0.001582108	-0.001193551	0.04774811	-0.03602145	0	0
24.96653	-0.06472525	-0.1388336	0	0	-0.0474097	0.03576615	0	0
24.98304	-0.06467284	-0.1387941	0.003173913	0.002395099	0.09526789	0.0718911	0	0
24.99956	-0.06459422	-0.1387347	0.004759121	0.003591892	0.04799087	0.0362319	0	0
25.01599	-0.06456801	-0.1386754	0.001595332	0.00361149	-0.0960195	0.0005947987	0	0
25.03256	-0.06454181	-0.1386556	0.001581658	0.001193551	-0.0004143899	-0.07327724	0	0
25.04913	-0.06451561	-0.1386358	0.001581658	0.001194451	0	2.714821E-05	0	0
25.06569	-0.06448939	-0.1386556	0.00158229	-0.001194588	1.906843E-05	-0.0721055	0	0
25.08261	-0.06448939	-0.1386556	0	0	-0.04725311	0.03567489	0	0
25.09883	-0.06451561	-0.1386754	-0.001616538	-0.001219526	-0.04878721	-0.03680536	0	0
25.11564	-0.06451561	-0.1386754	0	0	0.04895064	0.03692865	0	0
25.13196	-0.06451561	-0.1386754	0	0	0	0	0	0
25.14866	-0.06451561	-0.1386358	0	0.002368911	0	0.07172924	0	0
25.16509	-0.06451561	-0.1386358	0	0	0	-0.07149801	0	0
25.18168	-0.06451561	-0.1386358	0	0	0	0	0	0
25.19823	-0.06448939	-0.1386556	0.001584479	-0.001196241	0.04782243	-0.03610471	0	0
25.21479	-0.06448939	-0.1386556	0	0	-0.04785549	0.03612967	0	0
25.23136	-0.06448939	-0.1386556	0	0	0	0	0	0
25.3142	-0.06454181	-0.1386556	-0.0006327677	0	-0.006365777	0	0	0
25.3308	-0.06454181	-0.1386556	0	0	0.006363458	0	0	0
25.34733	-0.06454181	-0.1386556	0	0	0	0	0	0
25.3639	-0.06454181	-0.1386556	0	0	0	0	0	0
25.38046	-0.06454181	-0.1386556	0	0	0	0	0	0
25.39703	-0.06454181	-0.1386161	0	0.002388277	0	0.0720825	0	0
25.4136	-0.06454181	-0.1386161	0	0	0	-0.0720825	0	0
25.43016	-0.06456801	-0.1385963	-0.001581658	0.001193551	-0.04773453	0.03602145	0	0
25.44687	-0.06454181	-0.1385765	0.001568118	0.001183334	0.09465179	-0.0003070404	0	0
25.4633	-0.06454181	-0.138537	0	0.002408801	-0.04732589	0.03698468	0	0
25.49718	-0.06454181	-0.138537	0	0	0	-0.04788813	0	0
25.51374	-0.06456801	-0.1385172	-0.001581658	0.001193551	-0.03135495	0.02366108	0	0
25.53044	-0.06454181	-0.1384974	0.001569013	0.001184009	0.09470583	-0.0002868183	0	0
25.54695	-0.06451561	-0.1384776	0.001587323	0.001197826	0.0005513496	0.0004160599	0	0
25.56345	-0.06448939	-0.1384183	0.00158906	0.003597291	5.26187E-05	0.07270477	0	0
25.58001	-0.06443699	-0.1383788	0.003163316	0.002387103	0.04761531	-0.03660363	0	0
25.59658	-0.06435836	-0.1382799	0.004745873	0.005967757	0.04776167	0.1080644	0	0
25.61315	-0.06433216	-0.1382601	0.00158184	0.001194588	-0.0954962	-0.1440628	0	0
25.62971	-0.06430595	-0.1382403	0.001582108	0.001193551	8.077821E-06	-3.129936E-05	0	0
25.64652	-0.06427974	-0.1382205	0.001559219	0.001176619	-0.0006858388	-0.0005073763	0	0
25.66284	-0.06427974	-0.1382205	0	0	-0.04706275	-0.03551451	0	0
25.67941	-0.06427974	-0.1382205	0	0	0	0	0	0
25.69605	-0.06427974	-0.1382205	0	0	0	0	0	0
25.71254	-0.06427974	-0.1382205	0	0	0	0	0	0
25.72911	-0.06427974	-0.1382205	0	0	0	0	0	0
25.74568	-0.06425353	-0.1382008	0.001582108	0.001193551	0.04774811	0.03602145	0	0
25.7626	-0.06425353	-0.1382008	0	0	-0.04724498	-0.03564189	0	0
25.77881	-0.06425353	-0.1382008	0	0	0	0	0	0
25.79538	-0.06422733	-0.138181	0.00158184	0.001193689	0.04825952	0.03641761	0	0
25.81194	-0.06425353	-0.1381612	-0.001581658	0.001193551	-0.09548006	-4.14959E-06	0	0
25.82865	-0.06420112	-0.1381217	0.003137668	0.002367749	0.1418498	0.0352931	0	0
25.84516	-0.06422733	-0.1381019	-0.001586773	0.001197411	-0.1422319	-0.03523364	0	0
25.86168	-0.06420112	-0.1380821	0.00158659	0.001197273	0.09607647	-4.187201E-06	0	0
25.87821	-0.06420112	-0.1380426	0	0.002390331	-0.04799942	0.03609383	0	0
25.89478	-0.06417491	-0.1379833	0.00158229	0.003581066	0.04779762	0.03596958	0	0
25.91134	-0.06409629	-0.1376076	0.00474642	0.02267649	0.09550463	0.5763674	0	0
25.92822	-0.06378179	-0.1371332	0.01863759	0.02811511	0.4154102	0.1626399	0	0
25.94473	-0.0620256	-0.1354142	0.1063467	0.1040936	2.626955	2.275613	0	0
25.96104	-0.05961349	-0.1332425	0.1478764	0.1331368	1.265165	0.8847774	0	0
25.97761	-0.05415751	-0.1268965	0.3293235	0.383049	5.518654	7.600997	0	0
25.99426	-0.05208443	-0.1223539	0.1244866	0.2727785	-6.166018	-3.319374	0	0
26.01074	-0.04893459	-0.1104368	0.1911372	0.7231486	2.011636	13.59298	0	0
26.02731	-0.04780566	-0.1056504	0.06814238	0.2889087	-3.721847	-13.14018	0	0
26.04388	-0.04699169	-0.09826343	0.04913079	0.4458756	-0.5737712	4.737269	0	0
26.06045	-0.04486461	-0.092062	0.1283911	0.3743187	2.392081	-2.15959	0	0
26.07701	-0.04315739	-0.08471288	0.1030477	0.4435941	-0.7648656	2.090737	0	0
26.09358	-0.03890142	-0.08022404	0.2569504	0.2710089	4.645328	-5.209232	0	0
26.11035	-0.0351697	-0.07751884	0.2224553	0.1612631	-1.034692	-3.291861	0	0
26.12687	-0.030622	-0.07417963	0.275292	0.2021364	1.586941	1.227623	0	0
26.14328	-0.02893929	-0.07290678	0.1025728	0.07758863	-5.245893	-3.782811	0	0
26.17641	-0.02893929	-0.07290678	0	0	-2.070523	-1.566195	0	0
26.19298	-0.02896558	-0.0728875	-0.001587167	0.00116387	-0.03193386	0.02341711	0	0
26.20955	-0.02899187	-0.07286822	-0.001587055	0.00116387	3.393965E-06	0	0	0
26.22643	-0.02899187	-0.07286822	0	0	0.04743864	-0.03478923	0	0
26.25925	-0.02901817	-0.07284894	-0.0008012762	0.0005876177	-0.01612171	0.01182289	0	0
26.29238	-0.02901817	-0.07284894	0	0	0.01215003	-0.008910253	0	0
26.30895	-0.02901817	-0.07284894	0	0	0	0	0	0
26.32551	-0.02899187	-0.07286822	0.001587055	-0.00116387	0.04790016	-0.03512769	0	0
26.34208	-0.02901817	-0.0728875	-0.001586872	-0.001163736	-0.09578378	4.043715E-06	0	0
26.35865	-0.02901817	-0.07292607	0	-0.002328008	0.04789189	-0.0351378	0	0
26.37521	-0.02899187	-0.07294535	0.001587237	-0.001164004	0.04790843	0.03513375	0	0
26.39178	-0.02899187	-0.07302247	0	-0.004654495	-0.04790292	-0.1053432	0	0
26.40835	-0.02899187	-0.07302247	0	0	0	0.1404729	0	0
26.42492	-0.02899187	-0.07306103	0	-0.00232774	0	-0.07025538	0	0
26.44148	-0.02899187	-0.0730996	0	-0.002328008	0	-8.088362E-06	0	0
26.45805	-0.02901817	-0.07311889	-0.001586872	-0.001164186	-0.04789189	0.03512422	0	0
26.47462	-0.02901817	-0.07315745	0	-0.002328008	0.04789189	-0.03512422	0	0
26.49118	-0.02904446	-0.07317673	-0.001586984	-0.001163736	-0.04789528	0.0351378	0	0
26.50775	-0.02907076	-0.07327315	-0.001587237	-0.00582047	-7.634665E-06	-0.1405405	0	0
26.52432	-0.02909705	-0.07329243	-0.001587055	-0.00116387	5.516389E-06	0.1405445	0	0
26.54088	-0.02909705	-0.07329243	0	0	0.04790016	0.03512769	0	0
26.55745	-0.02907076	-0.07331172	0.001587055	-0.00116387	0.04790016	-0.03512769	0	0
26.57418	-0.02907076	-0.07331172	0	0	-0.04766418	0.03495463	0	0
26.59059	-0.02904446	-0.07333101	0.001602366	-0.001175553	0.04835394	-0.03547417	0	0
26.6072	-0.02907076	-0.07335029	-0.0015825	-0.00116053	-0.09644144	0.0004549153	0	0
26.62372	-0.02907076	-0.07338885	0	-0.002335268	0.04776819	-0.03545979	0	0
26.64028	-0.02907076	-0.07338885	0	0	0	0.07059231	0	0
26.65685	-0.02907076	-0.07338885	0	0	0	0	0	0
26.67342	-0.02909705	-0.07340814	-0.001586872	-0.001164186	-0.04788913	-0.03513317	0	0
26.69026	-0.02909705	-0.07340814	0	0	0.04749275	0.03484237	0	0
26.70655	-0.02909705	-0.07340814	0	0	0	0	0	0
26.72312	-0.02909705	-0.07340814	0	0	0	0	0	0
26.73969	-0.02909705	-0.07340814	0	0	0	0	0	0
26.75631	-0.02909705	-0.07340814	0	0	0	0	0	0
26.77282	-0.02909705	-0.07340814	0	0	0	0	0	0
26.78938	-0.02909705	-0.07340814	0	0	0	0	0	0
26.80595	-0.02909705	-0.07340814	0	0	0	0	0	0
26.82252	-0.02909705	-0.07340814	0	0	0	0	0	0
26.83908	-0.02909705	-0.07340814	0	0	0	0	0	0
26.85565	-0.02909705	-0.07340814	0	0	0	0	0	0
26.87222	-0.02909705	-0.07340814	0	0	0	0	0	0
26.90541	-0.02909705	-0.07340814	0	0	0	0	0	0
26.92192	-0.02912334	-0.07338885	-0.001593291	0.001168895	-0.03205831	0.02351912	0	0
26.93848	-0.02912334	-0.07338885	0	0	0.04817992	-0.0353465	0	0
26.95505	-0.02912334	-0.07338885	0	0	0	0	0	0
26.97197	-0.02909705	-0.07340814	0.001554483	-0.001140424	0.04642798	-0.03406122	0	0
26.98819	-0.02909705	-0.07340814	0	0	-0.04691439	0.03441807	0	0
27.00499	-0.02909705	-0.07340814	0	0	0	0	0	0
27.02132	-0.02909705	-0.07340814	0	0	0	0	0	0
27.03801	-0.02909705	-0.07340814	0	0	0	0	0	0
27.05452	-0.02909705	-0.07340814	0	0	0	0	0	0
27.07102	-0.02912334	-0.07342742	-0.00159366	-0.001168714	-0.04828017	-0.03540637	0	0
27.08759	-0.02912334	-0.07342742	0	0	0.04819662	0.0353451	0	0
27.10456	-0.02912334	-0.073466	0	-0.002272719	0	-0.06776384	0	0
27.12072	-0.02912334	-0.073466	0	0	0	0.06859475	0	0
27.13758	-0.02914964	-0.07348528	-0.001559517	-0.001143595	-0.04722672	-0.03463137	0	0
27.15385	-0.02914964	-0.07348528	0	0	0.04706903	0.03451574	0	0
27.1706	-0.02914964	-0.07348528	0	0	0	0	0	0
27.18699	-0.02912334	-0.07350457	0.001605092	-0.001177469	0.04844455	-0.03553813	0	0
27.20363	-0.02912334	-0.07350457	0	0	-0.04860685	0.03565719	0	0
27.22012	-0.02912334	-0.07350457	0	0	0	0	0	0
27.23669	-0.02914964	-0.07352385	-0.00158735	-0.001164004	-0.0480141	-0.03520875	0	0
27.25325	-0.02914964	-0.07352385	0	0	0.04790907	0.03513173	0	0
27.26982	-0.02914964	-0.07356242	0	-0.00232819	0	-0.07026491	0	0
27.28639	-0.02914964	-0.07356242	0	0	0	0.07026491	0	0
27.30295	-0.02914964	-0.07356242	0	0	0	0	0	0
27.31971	-0.02914964	-0.07356242	0	0	0	0	0	0
27.33609	-0.02914964	-0.07356242	0	0	0	0	0	0
27.35265	-0.02914964	-0.07356242	0	0	0	0	0	0
27.36924	-0.02914964	-0.07356242	0	0	0	0	0	0
27.38579	-0.02914964	-0.07356242	0	0	0	0	0	0
27.40235	-0.02914964	-0.07356242	0	0	0	0	0	0
27.41892	-0.02914964	-0.07356242	0	0	0	0	0	0
27.43579	-0.02912334	-0.07358171	0.001558636	-0.00114339	0.04661043	-0.03419264	0	0
27.45205	-0.02912334	-0.07358171	0	0	-0.04704514	0.03451154	0	0
27.46862	-0.02912334	-0.07358171	0	0	0	0	0	0
27.48519	-0.02909705	-0.07363956	0.001587055	-0.00349206	0.0478974	-0.1053906	0	0
27.50175	-0.02907076	-0.07365885	0.001587055	-0.00116432	0	0.07025134	0	0
27.51835	-0.02901817	-0.07377458	0.003167657	-0.006970574	0.04765331	-0.1750517	0	0
27.53489	-0.02899187	-0.07390959	0.00159035	-0.008166262	-0.04760322	-0.03608594	0	0
27.55187	-0.02896558	-0.07396746	0.00154785	-0.003406675	-0.001267905	0.1419935	0	0
27.56802	-0.02896558	-0.07400603	0	-0.002388973	-0.04671691	0.03071606	0	0
27.60115	-0.02899187	-0.0740639	-0.0007935273	-0.00174648	-0.01610237	0.01303757	0	0
27.61792	-0.02899187	-0.07410248	0	-0.002300826	0.01590173	-0.01110871	0	0
27.63429	-0.02904446	-0.07417963	-0.003213437	-0.004714816	-0.09698731	-0.07285856	0	0
27.65094	-0.02909705	-0.0742568	-0.003157027	-0.004632661	0.001708272	0.002487899	0	0
27.66742	-0.02917593	-0.07443042	-0.004787734	-0.01053801	-0.04921767	-0.1782341	0	0
27.70055	-0.03043796	-0.07554957	-0.03809049	-0.03377801	-0.6713151	-0.4684707	0	0
27.71712	-0.03156846	-0.07649542	-0.0682366	-0.05709124	-0.6065643	-0.4690812	0	0
27.73369	-0.03198908	-0.07726777	-0.02538613	-0.04661419	1.293155	0.3161798	0	0
27.75051	-0.03148959	-0.07763472	0.02968475	-0.02180761	1.649038	0.7428063	0	0
27.76682	-0.02993842	-0.0787745	0.09512911	-0.06989944	1.975228	-1.451498	0	0
27.78339	-0.02849229	-0.07983743	0.08728879	-0.06415856	-0.2385022	0.1746374	0	0
27.80005	-0.02696715	-0.08095878	0.09152035	-0.0672897	0.1273348	-0.0942215	0	0
27.81652	-0.02223318	-0.08448052	0.2874637	-0.2138529	5.913924	-4.423542	0	0
27.83309	-0.0177876	-0.0877548	0.2683049	-0.1976134	-0.5799174	0.491552	0	0
27.84966	-0.01273615	-0.09147955	0.3049409	-0.224852	1.105677	-0.8220619	0	0
27.86622	-0.01121006	-0.09260575	0.09210479	-0.06796974	-6.423406	4.734717	0	0
27.88279	-0.005052588	-0.09715427	0.3717511	-0.2746124	8.440229	-6.236848	0	0
27.93249	0.008815561	-0.1074271	0.2790277	-0.2066902	-1.399279	1.025007	0	0
27.94916	0.01289402	-0.1104954	0.2447114	-0.1841011	-0.5170608	0.3403602	0	0
27.96567	0.01615649	-0.1129214	0.1976054	-0.1469402	-1.419864	1.120102	0	0
27.98219	0.01939231	-0.1154085	0.1958555	-0.1505354	-0.05297776	-0.1088422	0	0
27.99875	0.02307485	-0.1181922	0.2222788	-0.1680254	0.798562	-0.5285804	0	0
28.01532	0.02972808	-0.1232775	0.401636	-0.3069831	5.413323	-4.193993	0	0
28.03189	0.03209424	-0.1251256	0.1428217	-0.1115566	-7.811483	5.898324	0	0
28.04873	0.03653637	-0.1285701	0.2638144	-0.2045631	3.621961	-2.784183	0	0
28.08159	0.04457572	-0.1348415	0.2446419	-0.1908428	-0.3857652	0.2760622	0	0
28.09826	0.04678163	-0.1369356	0.1322964	-0.1255872	-2.267968	1.317345	0	0
28.11477	0.04602012	-0.1434466	-0.0461192	-0.394325	-5.376237	-8.09794	0	0
28.13129	0.03779778	-0.1504524	-0.4979063	-0.4242382	-13.67985	-0.9057537	0	0
28.14785	0.02707233	-0.1584561	-0.6473893	-0.4831032	-4.518688	-1.779416	0	0
28.16442	0.01231517	-0.1697119	-0.8908467	-0.6794797	-7.347983	-5.926997	0	0
28.18132	0.001157894	-0.1782659	-0.6602284	-0.5061777	6.891445	5.178692	0	0
28.19755	-0.009262893	-0.1862468	-0.6419333	-0.4916386	0.5521811	0.4388177	0	0
28.21434	-0.02228578	-0.196264	-0.7755276	-0.5965301	-4.045158	-3.176055	0	0
28.23069	-0.0314633	-0.2033544	-0.5615851	-0.4338773	6.456797	4.908872	0	0
28.24737	-0.0424219	-0.2118575	-0.657	-0.5097815	-2.88944	-2.298599	0	0
28.26388	-0.04972214	-0.2175863	-0.4421194	-0.3469492	6.473929	4.905817	0	0
28.28039	-0.05814491	-0.2242145	-0.5101025	-0.4014219	-2.058605	-1.649497	0	0
28.29695	-0.06375558	-0.2286589	-0.3387385	-0.2683275	5.181019	4.023977	0	0
28.31352	-0.06616643	-0.2306374	-0.1455193	-0.1194172	5.83204	4.49464	0	0
28.33009	-0.07182361	-0.2351785	-0.3415074	-0.2741355	-5.915275	-4.669678	0	0
28.34694	-0.07509536	-0.2379288	-0.1941088	-0.1631705	4.410416	3.320263	0	0
28.36322	-0.07786855	-0.2402477	-0.1703714	-0.142466	0.7164397	0.6248988	0	0
28.37979	-0.07752851	-0.2404342	0.02052513	-0.01125464	5.812122	3.99492	0	0
28.39647	-0.07684836	-0.240973	0.04076755	-0.03229232	0.6087799	-0.6326967	0	0
28.41298	-0.07143089	-0.245226	0.3280564	-0.2575454	8.653956	-6.785263	0	0
28.42949	-0.06642843	-0.2491968	0.3029957	-0.2405097	-0.7588693	0.5158623	0	0
28.44605	-0.06294306	-0.2519666	0.2104498	-0.1672395	-2.798354	2.215506	0	0
28.46302	-0.05725315	-0.2564523	0.335412	-0.2644269	3.72738	-2.898911	0	0
28.49604	-0.04441813	-0.2666935	0.3886591	-0.3101166	1.065203	-0.9140184	0	0
28.51232	-0.03666777	-0.2728983	0.4761453	-0.381194	1.774526	-1.441698	0	0
28.52889	-0.03322461	-0.2756602	0.2078293	-0.1667068	-8.169271	6.530373	0	0
28.54545	-0.03049055	-0.2778558	0.1650285	-0.1325229	-1.29173	1.031674	0	0
28.56202	-0.02517889	-0.2820852	0.3206123	-0.2552869	4.69553	-3.705025	0	0
28.5786	-0.02215427	-0.2845214	0.1824194	-0.1469357	-4.168993	3.268726	0	0
28.59515	-0.02015517	-0.2861332	0.1207774	-0.09737807	-1.860464	1.49574	0	0
28.61172	-0.02002364	-0.2862393	0.007938983	-0.006403984	-3.40704	2.746868	0	0
28.62829	-0.02004994	-0.2862181	-0.001588024	0.001280944	-0.2875422	0.2319449	0	0
28.64485	-0.02007625	-0.2862393	-0.001587729	-0.001280797	8.91055E-06	-0.07731795	0	0
28.66142	-0.02007625	-0.2862393	0	0	0.04791776	0.03865452	0	0
28.72468	-0.02007625	-0.2862393	0	0	0	0	0	0
28.74125	-0.02007625	-0.2862818	0	-0.002561593	0	-0.03208804	0	0
28.75782	-0.02007625	-0.2862818	0	0	0	0.07730904	0	0
28.77438	-0.02004994	-0.286303	0.001587912	-0.001280944	0.04792604	-0.0386612	0	0
28.79095	-0.02002364	-0.2863242	0.001587842	-0.001280797	-2.122229E-06	4.451761E-06	0	0
28.80776	-0.01997103	-0.2863666	0.003130164	-0.002524966	0.04621221	-0.03727872	0	0
28.82427	-0.01976059	-0.2865364	0.01274336	-0.01027951	0.2884994	-0.2327198	0	0
28.84065	-0.01970797	-0.2866213	0.003212296	-0.005184072	-0.2897665	0.1549131	0	0
28.85722	-0.01968167	-0.2866425	0.001587842	-0.001280797	-0.04930712	0.1184763	0	0
28.92384	-0.008973443	-0.2953006	0.160727	-0.1299554	1.912939	-1.546739	0	0
28.94005	-0.004078925	-0.2992711	0.3019696	-0.2449621	1.705162	-1.388427	0	0
28.95662	0.0009999997	-0.3034002	0.3065998	-0.2492624	0.141277	-0.1312116	0	0
28.97318	0.003289462	-0.3052647	0.1381922	-0.1125374	-5.082843	4.126605	0	0
29.00632	0.00873662	-0.3097085	0.164405	-0.1341226	0.5274227	-0.4343117	0	0
29.02288	0.00873662	-0.3097085	0	0	-3.307835	2.698552	0	0
29.03945	0.00873662	-0.3097085	0	0	0	0	0	0
29.05643	0.00873662	-0.3097085	0	0	0	0	0	0
29.07258	0.00873662	-0.3097085	0	0	0	0	0	0
29.08915	0.008710306	-0.309687	-0.001588474	0.001297136	-0.04855232	0.03964745	0	0
29.10572	0.008710306	-0.309687	0	0	0.047943	-0.03914989	0	0
29.12249	0.008683993	-0.3096655	-0.001568785	0.001281058	-0.04705351	0.03842353	0	0
29.13885	0.008683993	-0.3096655	0	0	0.04734876	-0.03866464	0	0
29.15551	0.008683993	-0.3096655	0	0	0	0	0	0
29.17198	0.008683993	-0.3096655	0	0	0	0	0	0
29.18855	0.008683993	-0.3096655	0	0	0	0	0	0
29.22168	0.008657678	-0.309644	-0.0007942195	0.0006485306	-0.01598096	0.01304946	0	0
29.23825	0.008657678	-0.309644	0	0	0.01598034	-0.01304896	0	0
29.25482	0.008657678	-0.309644	0	0	0	0	0	0
29.27138	0.008657678	-0.309644	0	0	0	0	0	0
29.2881	0.008605051	-0.309644	-0.003147952	0	-0.09459155	0	0	0
29.30451	0.008605051	-0.309644	0	0	0.09501084	0	0	0
29.32112	0.008578737	-0.3096226	-0.001584461	0.001293858	-0.04798207	0.03918179	0	0
29.33814	0.008578737	-0.3096226	0	0	0.04711665	-0.0384751	0	0
29.35465	0.008499796	-0.309601	-0.00478255	0.001303588	-0.1426461	0.0388813	0	0
29.37078	0.008289284	-0.3095151	-0.01305057	0.005328426	-0.2533355	0.1233227	0	0
29.38735	0.00826297	-0.3094936	-0.001588347	0.001296986	0.3505515	-0.1232944	0	0
29.40391	0.008210341	-0.3094936	-0.003177005	0	-0.04794853	-0.03914538	0	0
29.42048	0.008184028	-0.3094721	-0.001588291	0.001298785	0.04795022	0.03919968	0	0
29.43705	0.008052457	-0.3094076	-0.007941625	0.00389096	-0.191744	0.07823197	0	0
29.45361	0.008026144	-0.3093861	-0.001588474	0.001297136	0.1917495	-0.07828626	0	0
29.47023	0.007973515	-0.3093861	-0.003167522	0	-0.04759002	-0.03909363	0	0
29.48675	0.007920887	-0.3093861	-0.003185808	0	-0.0005518742	0	0	0
29.50331	0.007920887	-0.3093861	0	0	0.096292	0	0	0
29.52026	0.007920887	-0.3093861	0	0	0	0	0	0
29.53645	0.007920887	-0.3093861	0	0	0	0	0	0
29.55301	0.007920887	-0.3093861	0	0	0	0	0	0
29.5698	0.007947201	-0.3094076	0.001567716	-0.001280185	0.04700798	-0.03838636	0	0
29.58615	0.007947201	-0.3094076	0	0	-0.04731376	0.03863605	0	0
29.60271	0.007973515	-0.3094291	0.00158853	-0.001297136	0.04826143	-0.03940852	0	0
29.61933	0.007973515	-0.3094291	0	0	-0.04786754	0.03908689	0	0
29.63585	0.007973515	-0.3094291	0	0	0	0	0	0
29.65241	0.007973515	-0.3094291	0	0	0	0	0	0
29.66898	0.007999829	-0.3094506	0.001588291	-0.001296986	0.04793749	-0.03914538	0	0
29.68555	0.007999829	-0.3094506	0	0	-0.04793197	0.03914088	0	0
29.70239	0.007999829	-0.3094506	0	0	0	0	0	0
29.7189	0.007999829	-0.3094506	0	0	0	0	0	0
29.73524	0.007999829	-0.3094506	0	0	0	0	0	0
29.75181	0.007999829	-0.3094506	0	0	0	0	0	0
29.83498	0.008026144	-0.3095151	0.0003163874	-0.0007754093	0.003172151	-0.007774379	0	0
29.85121	0.008026144	-0.3095151	0	0	-0.003182924	0.007800783	0	0
29.86778	0.007999829	-0.3095366	-0.001588347	-0.001296986	-0.04842987	-0.03954606	0	0
29.88434	0.007999829	-0.3095366	0	0	0.04794194	0.03914764	0	0
29.90091	0.007973515	-0.3095581	-0.001588291	-0.001296986	-0.04794025	-0.03914764	0	0
29.91754	0.007947201	-0.3095796	-0.001582154	-0.00129193	0.0001848517	0.0001523214	0	0
29.93404	0.007631431	-0.3098375	-0.01913482	-0.01563042	-0.5297404	-0.4327365	0	0
29.95061	0.002184207	-0.3142928	-0.3287951	-0.2689223	-9.363892	-7.659356	0	0
29.98374	-0.013315	-0.327032	-0.467794	-0.3844914	-2.796771	-2.325343	0	0
30.00031	-0.02112843	-0.3334912	-0.4715654	-0.3898354	-0.07588121	-0.1075216	0	0
30.01711	-0.03051684	-0.3412878	-0.5588995	-0.4641354	-2.617365	-2.226741	0	0
30.03344	-0.03853355	-0.3479772	-0.4908403	-0.4095746	2.054266	1.646837	0	0
30.05014	-0.04363019	-0.352202	-0.305279	-0.2530561	5.618361	4.739015	0	0
30.06665	-0.04982714	-0.3573655	-0.3753886	-0.3127852	-2.111535	-1.798901	0	0
30.08314	-0.0513758	-0.3586699	-0.09387714	-0.07907525	8.52942	7.0811	0	0
30.09971	-0.05428871	-0.3610826	-0.1758233	-0.1456277	-2.478419	-2.012843	0	0
30.11628	-0.05578417	-0.3623456	-0.09027665	-0.07624676	2.581952	2.09404	0	0
30.13284	-0.05578417	-0.3623456	0	0	2.724712	2.301264	0	0
30.14942	-0.0558104	-0.3623235	-0.001582546	0.001335793	-0.04774759	0.04030271	0	0
30.16622	-0.05578417	-0.3623013	0.001561879	0.001320123	0.09422097	-0.000469549	0	0
30.18273	-0.05575794	-0.3622791	0.001588761	0.001342844	0.000807081	0.0006821586	0	0
30.19911	-0.05575794	-0.3622348	0	0.002706636	-0.04829643	0.04145762	0	0
30.21575	-0.05570547	-0.3622348	0.003152982	0	0.09547043	-0.08195533	0	0
30.23227	-0.05567923	-0.3622127	0.001588761	0.001341039	-0.04718111	0.04044935	0	0
30.24881	-0.05567923	-0.3622127	0	0	-0.04806234	-0.04056839	0	0
30.26538	-0.05567923	-0.3622127	0	0	0	0	0	0
30.28194	-0.05567923	-0.3622127	0	0	0	0	0	0
30.29881	-0.055653	-0.3621905	0.001554992	0.001314302	0.04650412	0.03930596	0	0
30.31508	-0.055653	-0.3621905	0	0	-0.04692976	-0.03966571	0	0
30.33184	-0.05562676	-0.3621683	0.001565256	0.001322977	0.04739777	0.04006128	0	0
30.34821	-0.05557429	-0.3621683	0.003204399	0	0.04946943	-0.03992753	0	0
30.36486	-0.05557429	-0.3621683	0	0	-0.09704413	0	0	0
30.38137	-0.05557429	-0.362124	0	0.002683883	0	0.08094384	0	0
30.39791	-0.05554806	-0.3621461	0.001586013	-0.001338719	0.04798475	-0.1217036	0	0
30.43104	-0.05554806	-0.3621461	0	0	-0.03192903	0.0269506	0	0
30.44766	-0.05552182	-0.362124	0.001578774	0.00133242	0.03173334	0.02678162	0	0
30.46418	-0.05552182	-0.362124	0	0	-0.0476475	-0.04021251	0	0
30.48094	-0.05552182	-0.362124	0	0	0	0	0	0
30.49745	-0.05549559	-0.3621018	0.001588578	0.001342689	0.04774275	0.04035286	0	0
30.51388	-0.05549559	-0.3621018	0	0	-0.04822654	-0.04076176	0	0
30.53047	-0.05549559	-0.3621018	0	0	0	0	0	0
30.54701	-0.05546936	-0.3620797	0.001586562	0.001340985	0.04788805	0.04047567	0	0
30.59671	-0.05544312	-0.3620575	0.0005279141	0.0004461373	-0.01598331	-0.01351028	0	0
30.61353	-0.05544312	-0.3620575	0	0	-0.007935634	-0.00670636	0	0
30.63004	-0.05544312	-0.3620575	0	0	0	0	0	0
30.66298	-0.05544312	-0.3620575	0	0	0	0	0	0
30.67958	-0.05544312	-0.3620575	0	0	0	0	0	0
30.69611	-0.05544312	-0.3620575	0	0	0	0	0	0
30.72924	-0.05544312	-0.3620575	0	0	0	0	0	0
30.74581	-0.05544312	-0.3620575	0	0	0	0	0	0
30.76237	-0.05544312	-0.3620575	0	0	0	0	0	0
30.77915	-0.05546936	-0.3620353	-0.00156441	0.001320297	-0.04692497	0.03960273	0	0
30.79566	-0.05541689	-0.361991	0.003177748	0.002685688	0.1424789	0.04102338	0	0
30.81217	-0.05515453	-0.3616364	0.0158869	0.02147039	0.3848258	0.5687897	0	0
30.84521	-0.05507582	-0.3613484	0.002382542	0.008719147	-0.272545	-0.2573456	0	0
30.86178	-0.05515453	-0.3612376	-0.004750273	0.006683838	-0.143794	-0.04103081	0	0
30.87872	-0.05499712	-0.3609718	0.009291966	0.01569009	0.4190436	0.2687615	0	0
30.89523	-0.05373769	-0.3596434	0.07626504	0.08044402	2.001892	1.935559	0	0
30.91174	-0.05308167	-0.3589575	0.03973009	0.04153972	-1.106257	-1.177999	0	0
30.92804	-0.05190072	-0.3569898	0.07245854	0.1207303	0.997508	2.413596	0	0
30.94477	-0.04809446	-0.3518054	0.2275715	0.3099662	4.697	5.730282	0	0
30.96128	-0.04507471	-0.3461542	0.1829042	0.3422951	-1.343961	0.9727197	0	0
30.97779	-0.03742988	-0.3376799	0.4629888	0.5132227	8.481775	5.176185	0	0
30.99431	-0.03301432	-0.3291824	0.2672625	0.5143316	-5.925108	0.03357043	0	0
31.01088	-0.02896558	-0.3199048	0.2443821	0.5599959	-0.691485	1.380058	0	0
31.02744	-0.02402169	-0.3112783	0.2984136	0.5206942	1.630673	-1.186129	0	0
31.04434	-0.01997103	-0.3031647	0.2398053	0.4803399	-1.75166	-1.206091	0	0
31.06058	-0.01255197	-0.294789	0.4568082	0.5157112	6.549537	1.067569	0	0
31.07714	-0.006131502	-0.2896374	0.3875404	0.3109494	-2.111289	-6.241159	0	0
31.09371	0.001026315	-0.283822	0.4320965	0.3510579	1.344784	1.210546	0	0
31.11028	0.005947298	-0.2798212	0.2970311	0.2414859	-4.076516	-3.307077	0	0
31.12684	0.01294664	-0.2741207	0.4224814	0.3440882	3.786097	3.096542	0	0
31.14341	0.01784021	-0.2701615	0.2953763	0.2389747	-3.836039	-3.172331	0	0
31.15998	0.01962906	-0.2686054	0.1079873	0.0939389	-5.655735	-4.377442	0	0
31.17654	0.02115474	-0.2672186	0.09209032	0.0837087	-0.4798009	-0.308766	0	0
