Time	Pos X	Pos Y	Vel X	Vel Y	Acc X	Acc YForce X	Force Y
0.01653436	-0.04633523	-0.03806689	0.0007035039	0.0005779664	-1.068392E-05	-8.777416E-06	0	0
0.04432244	-0.04633523	-0.03806689	0	0	1.068575E-05	8.778919E-06	0	0
0.06089193	-0.04633523	-0.03806689	0	0	0	0	0	0
0.07755617	-0.04633523	-0.03806689	0	0	0	0	0	0
0.09407198	-0.04633523	-0.03806689	0	0	0	0	0	0
0.1105949	-0.04633523	-0.03806689	0	0	0	0	0	0
0.1271593	-0.04633523	-0.03806689	0	0	0	0	0	0
0.1437264	-0.04633523	-0.03806689	0	0	0	0	0	0
0.1602927	-0.04633523	-0.03806689	0	0	0	0	0	0
0.1768591	-0.04633523	-0.03806689	0	0	0	0	0	0
0.1934246	-0.04633523	-0.03806689	0	0	0	0	0	0
0.2101485	-0.04633523	-0.03806689	0	0	0	0	0	0
0.2266576	-0.04633523	-0.03806689	0	0	0	0	0	0
0.2431248	-0.04633523	-0.03806689	0	0	0	0	0	0
0.2596904	-0.04633523	-0.03806689	0	0	0	0	0	0
0.2762587	-0.04633523	-0.03806689	0	0	0	0	0	0
0.2928258	-0.04633523	-0.03806689	0	0	0	0	0	0
0.309391	-0.04633523	-0.03806689	0	0	0	0	0	0
0.3259585	-0.04633523	-0.03806689	0	0	0	0	0	0
0.3425236	-0.04633523	-0.03806689	0	0	0	0	0	0
0.35909	-0.04630897	-0.03808594	0.001585116	-0.001149991	0.04784321	-0.03470992	0	0
0.3757645	-0.04630897	-0.03808594	0	0	-0.04768583	0.03459574	0	0
0.4087909	-0.04630897	-0.03808594	0	0	0	0	0	0
0.4253585	-0.04630897	-0.03808594	0	0	0	0	0	0
0.4419252	-0.04630897	-0.03808594	0	0	0	0	0	0
0.45849	-0.04630897	-0.03808594	0	0	0	0	0	0
0.4923818	-0.04630897	-0.03808594	0	0	0	0	0	0
0.5089465	-0.04630897	-0.03808594	0	0	0	0	0	0
0.5255141	-0.04630897	-0.03808594	0	0	0	0	0	0
0.5423808	-0.04630897	-0.03808594	0	0	0	0	0	0
0.5586467	-0.04630897	-0.03808594	0	0	0	0	0	0
0.5752127	-0.04630897	-0.03808594	0	0	0	0	0	0
0.5919223	-0.04630897	-0.03808594	0	0	0	0	0	0
0.6084341	-0.04630897	-0.03808594	0	0	0	0	0	0
0.6249496	-0.04630897	-0.03808594	0	0	0	0	0	0
0.6414796	-0.04630897	-0.03808594	0	0	0	0	0	0
0.6580479	-0.04630897	-0.03808594	0	0	0	0	0	0
0.674615	-0.04630897	-0.03808594	0	0	0	0	0	0
0.6911802	-0.04630897	-0.03808594	0	0	0	0	0	0
0.7077481	-0.04630897	-0.03808594	0	0	0	0	0	0
0.7905818	-0.04630897	-0.03808594	0	0	0	0	0	0
0.8071821	-0.04630897	-0.03808594	0	0	0	0	0	0
0.8237137	-0.04630897	-0.03808594	0	0	0	0	0	0
0.84028	-0.04630897	-0.03808594	0	0	0	0	0	0
0.8571392	-0.04630897	-0.03808594	0	0	0	0	0	0
0.8734158	-0.04630897	-0.03808594	0	0	0	0	0	0
0.8901381	-0.04630897	-0.03808594	0	0	0	0	0	0
0.9066523	-0.04630897	-0.03808594	0	0	0	0	0	0
0.9231156	-0.04630897	-0.03808594	0	0	0	0	0	0
0.9396827	-0.04630897	-0.03808594	0	0	0	0	0	0
0.9562495	-0.04630897	-0.03808594	0	0	0	0	0	0
0.972815	-0.04630897	-0.03808594	0	0	0	0	0	0
0.9897066	-0.04630897	-0.03808594	0	0	0	0	0	0
1.005949	-0.04630897	-0.03808594	0	0	0	0	0	0
1.022514	-0.04630897	-0.03808594	0	0	0	0	0	0
1.039243	-0.04630897	-0.03808594	0	0	0	0	0	0
1.055649	-0.04630897	-0.03808594	0	0	0	0	0	0
1.072215	-0.04630897	-0.03808594	0	0	0	0	0	0
1.088781	-0.04630897	-0.03808594	0	0	0	0	0	0
1.105348	-0.04630897	-0.03808594	0	0	0	0	0	0
1.121915	-0.04630897	-0.03808594	0	0	0	0	0	0
1.138482	-0.04630897	-0.03808594	0	0	0	0	0	0
1.155048	-0.04630897	-0.03808594	0	0	0	0	0	0
1.171834	-0.04630897	-0.03808594	0	0	0	0	0	0
1.188345	-0.04633523	-0.03810499	-0.001590341	-0.001153555	-0.04776116	-0.03464361	0	0
1.204875	-0.04630897	-0.03812404	0.001588632	-0.001152541	0.09621122	3.069143E-05	0	0
1.221316	-0.04630897	-0.03820024	0	-0.004635202	-0.04818405	-0.105631	0	0
1.255892	-0.04623019	-0.03833361	0.002278371	-0.00385708	0.04465891	0.01525216	0	0
1.27234	-0.04617767	-0.03840982	0.00319306	-0.004633312	0.01792642	-0.01521287	0	0
1.288909	-0.04588882	-0.03873373	0.01743406	-0.0195498	0.4313289	-0.451788	0	0
1.305475	-0.04376152	-0.04027757	0.1284141	-0.09319343	3.349372	-2.222561	0	0
1.322042	-0.03795545	-0.04449381	0.35045	-0.254489	6.701275	-4.868069	0	0
1.338968	-0.0309112	-0.049653	0.4161806	-0.3048101	1.962494	-1.502419	0	0
1.355175	-0.02147038	-0.05652691	0.5825242	-0.4241391	5.020529	-3.60155	0	0
1.371741	-0.01310451	-0.06262948	0.5049905	-0.3683699	-2.365771	1.701673	0	0
1.388488	-0.007526174	-0.06674359	0.3330925	-0.245661	-5.160006	3.683458	0	0
1.404876	-0.003499986	-0.06968868	0.2456925	-0.1797198	-2.637758	1.990123	0	0
1.421513	0.003921032	-0.0752022	0.4460431	-0.3313922	6.06672	-4.592715	0	0
1.438009	0.00552626	-0.07637958	0.09731182	-0.07137527	-10.52515	7.847636	0	0
1.553976	0.02673047	-0.09225619	0.1828467	-0.1369061	0.6457274	-0.4947106	0	0
1.570542	0.02670418	-0.0922756	-0.001587359	-0.001172024	-1.391603	1.024148	0	0
1.587128	0.02667788	-0.09229503	-0.001585477	-0.001171083	5.678469E-05	2.837303E-05	0	0
1.603674	0.02665158	-0.09231444	-0.001589485	-0.00117351	-0.000120971	-7.325089E-05	0	0
1.620241	0.02657269	-0.0923727	-0.004761873	-0.00351637	-0.09580628	-0.07075448	0	0
1.637164	0.02633601	-0.09254748	-0.01398566	-0.01032825	-0.2754197	-0.2034007	0	0
1.653376	0.02583635	-0.09291651	-0.03081996	-0.02276228	-0.508051	-0.3752532	0	0
1.670186	0.01686682	-0.09950936	-0.5335737	-0.392191	-15.22457	-11.18717	0	0
1.703075	0.0001052632	-0.1119038	-0.5096382	-0.3768547	0.4816039	0.3085817	0	0
1.719723	-0.005499945	-0.1160747	-0.3366885	-0.2505361	3.491313	2.549974	0	0
1.736232	-0.01410433	-0.1224914	-0.521203	-0.3886861	-5.564915	-4.16657	0	0
1.752775	-0.02523149	-0.1308165	-0.6726191	-0.5032373	-4.581186	-3.465817	0	0
1.769342	-0.03616843	-0.1390314	-0.6601743	-0.4958697	0.3758664	0.2225216	0	0
1.785909	-0.04418176	-0.1450722	-0.4836993	-0.364631	5.326178	3.960905	0	0
1.802475	-0.05426247	-0.1526995	-0.6084906	-0.4603958	-3.766317	-2.890271	0	0
1.819042	-0.06131777	-0.1580174	-0.4258619	-0.320993	5.511844	4.207262	0	0
1.835609	-0.06553759	-0.16123	-0.2547159	-0.1939168	5.165289	3.835237	0	0
1.852176	-0.07431029	-0.1676485	-0.5295365	-0.3874378	-8.294343	-5.840644	0	0
1.868828	-0.07737155	-0.1697119	-0.1838339	-0.1239083	10.40675	7.933071	0	0
1.885309	-0.07954235	-0.1710952	-0.1317174	-0.0839349	1.572944	1.206452	0	0
1.901876	-0.0807974	-0.1719778	-0.07575762	-0.05327242	1.693318	0.9278323	0	0
1.918442	-0.08092812	-0.1720781	-0.007890528	-0.006055177	2.048292	1.42506	0	0
1.935381	-0.08095427	-0.172058	-0.001543465	0.00118498	0.1894345	0.2160898	0	0
1.951574	-0.08095427	-0.172058	0	0	0.04658556	-0.0357656	0	0
1.968141	-0.08092812	-0.1720379	0.001578072	0.001210649	0.04817012	0.03695468	0	0
2.002361	-0.08069283	-0.1718173	0.00687603	0.006448632	0.1043173	0.1031363	0	0
2.018929	-0.08061439	-0.1716367	0.00473463	0.01089756	-0.04216425	0.08759967	0	0
2.035495	-0.08077126	-0.1712757	-0.009469084	0.02179216	-0.4286751	0.3288043	0	0
2.052061	-0.08084969	-0.1708546	-0.004734521	0.02542169	0.1428966	0.1095448	0	0
2.068629	-0.08011761	-0.1699725	0.04418838	0.05324391	1.476549	0.8397064	0	0
2.085195	-0.07912394	-0.1690907	0.05998188	0.05322628	0.4766625	-0.0005319192	0	0
2.101761	-0.07765929	-0.1677286	0.08841109	0.08221947	0.8580447	0.8750665	0	0
2.118328	-0.0725828	-0.1632476	0.3064268	0.2704843	6.580012	5.68209	0	0
2.134894	-0.06737157	-0.1591941	0.3145684	0.2446804	0.245723	-0.7787967	0	0
2.151461	-0.06129156	-0.1545703	0.3670008	0.2791039	1.582484	1.038946	0	0
2.168028	-0.05533818	-0.1499754	0.3593464	0.2773455	-0.2310135	-0.05306748	0	0
2.184594	-0.04987964	-0.14533	0.3294969	0.2804153	-0.9008856	0.09264726	0	0
2.201162	-0.04557369	-0.1404957	0.2599082	0.2918013	-2.100253	0.3436403	0	0
2.217726	-0.03968967	-0.1324731	0.3552212	0.48433	2.876799	5.811031	0	0
2.234293	-0.03556395	-0.1293384	0.2490364	0.1892153	-3.204984	-8.907478	0	0
2.250859	-0.03296174	-0.1273886	0.1570739	0.117691	-2.775515	-2.15867	0	0
2.267611	-0.03127927	-0.126129	0.1004398	0.07519766	-1.699816	-1.275394	0	0
2.329653	-0.0312004	-0.1262273	0.001271251	-0.001585641	-1.258583	-0.9744844	0	0
2.346222	-0.03114782	-0.1262667	0.003173544	-0.002375239	0.02419877	-0.01004436	0	0
2.362788	-0.03114782	-0.1262667	0	0	-0.09577774	0.07168487	0	0
2.379355	-0.03112153	-0.1262864	0.001586807	-0.001188138	0.04789131	-0.0358591	0	0
2.395921	-0.03112153	-0.1263257	0	-0.002375581	-0.04789131	-0.03583815	0	0
2.412488	-0.03112153	-0.1263651	0	-0.002375547	0	1.033013E-06	0	0
2.429054	-0.03112153	-0.1263651	0	0	0	0.07169724	0	0
2.462188	-0.03117411	-0.1264045	-0.001586932	-0.001188189	-0.03193005	-0.0239071	0	0
2.544847	-0.03151588	-0.1266209	-0.004134701	-0.002618829	-0.02200293	-0.01235523	0	0
2.561414	-0.03151588	-0.1266209	0	0	0.04166943	0.0263925	0	0
2.577981	-0.03151588	-0.1266209	0	0	0	0	0	0
2.594548	-0.03151588	-0.1266603	0	-0.00237648	0	-0.07172439	0	0
2.61135	-0.03154217	-0.12668	-0.001564651	-0.001171548	-0.0468906	0.0361103	0	0
2.627681	-0.03156846	-0.1266997	-0.001609788	-0.001204432	-0.001362297	-0.0009924965	0	0
2.644247	-0.03156846	-0.1266997	0	0	0.04893312	0.03661143	0	0
2.660814	-0.03156846	-0.1266997	0	0	0	0	0	0
2.677383	-0.03156846	-0.1266997	0	0	0	0	0	0
2.693948	-0.03156846	-0.1266997	0	0	0	0	0	0
2.710514	-0.03156846	-0.1266997	0	0	0	0	0	0
2.72743	-0.03156846	-0.1266997	0	0	0	0	0	0
2.743942	-0.03159475	-0.1267193	-0.001592191	-0.001192169	-0.04763122	-0.03566435	0	0
2.760214	-0.03159475	-0.1267193	0	0	0.04856613	0.03636438	0	0
2.776782	-0.03162104	-0.126739	-0.001586761	-0.001188103	-0.04831722	-0.03617801	0	0
2.793347	-0.03164732	-0.1267587	-0.001587058	-0.001188326	-8.963189E-06	-6.710973E-06	0	0
2.826623	-0.03222568	-0.1271917	-0.01738087	-0.01301337	-0.3168873	-0.237258	0	0
2.843513	-0.03222568	-0.1271917	0	0	0.3464661	0.2594055	0	0
2.859757	-0.03225197	-0.1272114	-0.00161823	-0.001212755	-0.04883898	-0.03660154	0	0
2.876324	-0.03222568	-0.1272311	0.001586605	-0.001188155	0.09767655	0.0007497614	0	0
2.892892	-0.03222568	-0.1272311	0	0	-0.04788211	0.03585729	0	0
2.90956	-0.03225197	-0.1272114	-0.001577073	0.001181016	-0.04745104	0.03553448	0	0
2.926024	-0.03225197	-0.1272114	0	0	0.0476006	-0.03564648	0	0
2.94259	-0.03225197	-0.1272114	0	0	0	0	0	0
2.959157	-0.03225197	-0.1272114	0	0	0	0	0	0
2.975723	-0.03225197	-0.1272114	0	0	0	0	0	0
2.992292	-0.03225197	-0.1272508	0	-0.002376104	0	-0.07170891	0	0
3.008856	-0.03225197	-0.1272508	0	0	0	0.07171407	0	0
3.025424	-0.03227826	-0.1272705	-0.00158683	-0.001188155	-0.04789475	-0.03586168	0	0
3.041992	-0.03227826	-0.1273099	0	-0.002376104	0.04788855	-0.03585085	0	0
3.058557	-0.03227826	-0.1273886	0	-0.004754203	0	-0.07177322	0	0
3.075178	-0.03227826	-0.1273886	0	0	0	0.1432605	0	0
3.091692	-0.03227826	-0.1273886	0	0	0	0	0	0
3.108257	-0.03230455	-0.1274083	-0.001587104	-0.00118836	-0.04797968	-0.03592527	0	0
3.124825	-0.03230455	-0.1274083	0	0	0.0479013	0.03586658	0	0
3.141391	-0.03227826	-0.127428	0.00158699	-0.001188274	0.04789613	-0.03586271	0	0
3.157957	-0.03227826	-0.127428	0	0	-0.04789854	0.03586452	0	0
3.174524	-0.03227826	-0.127428	0	0	0	0	0	0
3.191264	-0.03227826	-0.127428	0	0	0	0	0	0
3.207657	-0.03227826	-0.127428	0	0	0	0	0	0
3.224224	-0.03227826	-0.1274673	0	-0.002376378	0	-0.07210003	0	0
3.240792	-0.03225197	-0.127487	0.001586716	-0.001188069	0.04788614	0.03586245	0	0
3.257358	-0.03225197	-0.1275264	0	-0.002377449	-0.04788786	-0.03589606	0	0
3.273924	-0.03225197	-0.1275264	0	0	0	0.07175722	0	0
3.29084	-0.03225197	-0.1275264	0	0	0	0	0	0
3.307058	-0.03225197	-0.1275264	0	0	0	0	0	0
3.323623	-0.03225197	-0.1275264	0	0	0	0	0	0
3.340191	-0.03225197	-0.1275264	0	0	0	0	0	0
3.389904	-0.03225197	-0.1275658	0	-0.000791917	0	-0.01194795	0	0
3.406457	-0.03222568	-0.1275855	0.001587976	-0.001190082	0.02396355	-0.006008557	0	0
3.423024	-0.03225197	-0.1276052	-0.001586582	-0.001188138	-0.09584904	5.869906E-05	0	0
3.439591	-0.03225197	-0.1276446	0	-0.002377277	0.04788348	-0.03588857	0	0
3.45616	-0.03222568	-0.1276642	0.001586491	-0.001188069	0.04787935	0.0358896	0	0
3.472724	-0.03222568	-0.1277036	0	-0.002376652	-0.04788211	-0.03587278	0	0
3.489291	-0.03222568	-0.1277036	0	0	0	0.07173368	0	0
3.50586	-0.03222568	-0.127743	0	-0.002377038	0	-0.07173759	0	0
3.522498	-0.03225197	-0.1277627	-0.00157983	-0.001183977	-0.04757563	0.03592832	0	0
3.539006	-0.03225197	-0.1277627	0	0	0.0476629	0.03572015	0	0
3.572124	-0.03225197	-0.1277627	0	0	0	0	0	0
3.588691	-0.03225197	-0.1277627	0	0	0	0	0	0
3.605555	-0.03227826	-0.1278218	-0.001558943	-0.003502707	-0.04663193	-0.1047748	0	0
3.621825	-0.03227826	-0.1278611	0	-0.002419698	0.04705002	0.03268601	0	0
3.638579	-0.03227826	-0.1278611	0	0	0	0.07327072	0	0
3.65509	-0.03227826	-0.1279005	0	-0.002385345	0	-0.07170812	0	0
3.671599	-0.03227826	-0.1279399	0	-0.002385517	0	-5.217848E-06	0	0
3.688111	-0.03227826	-0.1279793	0	-0.002385241	0	8.348376E-06	0	0
3.704661	-0.03227826	-0.1280187	0	-0.002379709	0	0.0001673345	0	0
3.721225	-0.03225197	-0.1280384	0.001587104	-0.00118926	0.0479282	0.03594982	0	0
3.737791	-0.03222568	-0.1280974	0.001586696	-0.003565569	-1.23019E-05	-0.07172541	0	0
3.754358	-0.03219939	-0.1281171	0.001586875	-0.001189088	5.407389E-06	0.07172542	0	0
3.771173	-0.03212053	-0.1282156	0.004690136	-0.005855913	0.09296294	-0.1398019	0	0
3.787681	-0.03212053	-0.128255	0	-0.002385758	-0.1407485	0.1041375	0	0
3.804197	-0.03212053	-0.128255	0	0	0	0.072243	0	0
3.820624	-0.03209424	-0.1282747	0.001600349	-0.001198277	0.04857861	-0.03637372	0	0
3.837217	-0.03209424	-0.1283141	0	-0.002374486	-0.04846637	-0.03562135	0	0
3.853758	-0.03209424	-0.1283141	0	0	0	0.0716642	0	0
3.870325	-0.03209424	-0.1283141	0	0	0	0	0	0
3.886891	-0.03209424	-0.1283534	0	-0.002377346	0	-0.07175051	0	0
3.903459	-0.03209424	-0.1283534	0	0	0	0.07174999	0	0
3.920026	-0.03206795	-0.1283731	0.00158683	-0.001189054	0.04789027	-0.03588547	0	0
3.936787	-0.03204166	-0.1283928	0.001568479	-0.001174414	-0.0005506136	0.0004392641	0	0
3.953298	-0.03206795	-0.1284125	-0.001592237	-0.001193106	-0.09499619	-0.000561793	0	0
3.96981	-0.03206795	-0.1284125	0	0	0.04821619	0.03612969	0	0
3.986329	-0.03206795	-0.1284125	0	0	0	0	0	0
4.085692	-0.03209424	-0.1284322	-0.0002645795	-0.0001982565	-0.002283182	-0.00171085	0	0
4.102409	-0.03209424	-0.1284322	0	0	0.00227929	0.001707933	0	0
4.118919	-0.03209424	-0.1284322	0	0	0	0	0	0
4.135432	-0.03212053	-0.1284519	-0.001592099	-0.001193003	-0.04821201	-0.03612656	0	0
4.151959	-0.03209424	-0.1284322	0.001590675	0.001191936	0.09633221	0.07218432	0	0
4.168524	-0.03225197	-0.1282353	-0.009521625	0.01188921	-0.3357952	0.3232538	0	0
4.185091	-0.03227826	-0.1281368	-0.00158683	0.005943472	0.2394864	-0.1794531	0	0
4.201658	-0.0330406	-0.1269359	-0.04601646	0.07249212	-1.340908	2.008471	0	0
4.234791	-0.04326246	-0.1186237	-0.3085097	0.2508709	-5.281578	3.589126	0	0
4.251358	-0.05095585	-0.1127257	-0.4643871	0.3560182	-3.136381	2.115649	0	0
4.26802	-0.05806623	-0.1073099	-0.4267392	0.3250334	1.132989	-0.9324676	0	0
4.284539	-0.06535416	-0.1017301	-0.4411956	0.3377886	-0.4356875	0.3844166	0	0
4.301059	-0.06910034	-0.09863325	-0.2267657	0.1874626	6.490282	-4.550009	0	0
4.317626	-0.07140471	-0.09474297	-0.1390924	0.234818	2.649761	1.431228	0	0
4.334191	-0.06658563	-0.0860881	0.2909138	0.5224692	12.97836	8.681829	0	0
4.350758	-0.06176345	-0.07842672	0.2910843	0.4624684	0.005147916	-1.810982	0	0
4.367324	-0.05423623	-0.06861038	0.4543568	0.5925326	4.927786	3.925514	0	0
4.383891	-0.04882957	-0.06453199	0.3263651	0.2461862	-3.862963	-10.45321	0	0
4.400616	-0.04058297	-0.05854047	0.4930686	0.3582357	5.007413	3.365726	0	0
4.433593	-0.0215493	-0.04468473	0.5771785	0.4201626	1.692277	1.245961	0	0
4.450158	-0.01197311	-0.03781924	0.5781028	0.4144612	0.0186567	-0.1150827	0	0
4.483677	-0.002763151	-0.03127344	0.2747662	0.1952848	-6.056543	-4.376166	0	0
4.49986	-0.002921044	-0.03142551	-0.009756518	-0.009396684	-5.724498	-4.118121	0	0
4.516699	-0.00294736	-0.03148253	-0.00156281	-0.003386678	0.2481293	0.1820005	0	0
4.533215	-0.003157884	-0.03163461	-0.01274654	-0.009208	-0.3352965	-0.1745275	0	0
4.549729	-0.003342093	-0.03169164	-0.01115448	-0.003453399	0.04819984	0.1742208	0	0
4.566125	-0.00347367	-0.03163461	-0.008024952	0.003478306	0.09509241	0.2106239	0	0
4.582744	-0.003684194	-0.03148253	-0.01266822	0.009151459	-0.140644	0.1718393	0	0
4.599258	-0.005894668	-0.02984816	-0.1338521	0.09896721	-3.657549	2.710801	0	0
4.615824	-0.01231517	-0.02521579	-0.3875755	0.2796342	-7.66997	5.461502	0	0
4.632392	-0.0243373	-0.01655801	-0.7256156	0.522555	-10.20222	7.331469	0	0
4.648958	-0.03388176	-0.009697772	-0.5761548	0.4141203	4.510799	-3.272611	0	0
4.665524	-0.03971595	-0.005509403	-0.3521721	0.252825	6.760297	-4.868254	0	0
4.68209	-0.05187447	0.003171107	-0.7339534	0.5240018	-11.52301	8.184722	0	0
4.698657	-0.05672854	0.006422848	-0.2929924	0.1962755	13.3088	-9.891227	0	0
4.715224	-0.05987571	0.008338599	-0.189969	0.1156383	3.109295	-2.433672	0	0
4.731791	-0.06126534	0.008244715	-0.0838756	-0.005666733	3.201905	-3.660993	0	0
4.748359	-0.06171102	0.008113272	-0.02690045	-0.007933639	1.719464	-0.0684134	0	0
4.764923	-0.06234017	0.00803816	-0.0379845	-0.004534819	-0.3345509	0.1025869	0	0
4.78149	-0.06286442	0.007812814	-0.03164395	-0.01360194	0.1913802	-0.2736779	0	0
4.798059	-0.06351969	0.007455985	-0.03954883	-0.02153637	-0.2385593	-0.2394511	0	0
4.81491	-0.06372937	0.007343295	-0.01244217	-0.006687108	0.8110772	0.4443151	0	0
4.831191	-0.06404387	0.0072306	-0.01931765	-0.006921973	-0.2075143	-0.007088623	0	0
4.847758	-0.06420112	0.00730573	-0.00949202	0.004534974	0.2991295	0.348793	0	0
4.88089	-0.06645463	0.008920624	-0.06801499	0.0487404	-1.177541	0.8894575	0	0
4.897465	-0.07271368	0.01340453	-0.3776229	0.2705247	-6.228607	4.461795	0	0
4.914024	-0.07849628	0.01754558	-0.3492091	0.2500762	0.8575426	-0.6171451	0	0
4.930592	-0.09090665	0.02642954	-0.7490916	0.5362371	-12.07143	8.638467	0	0
4.9475	-0.09925175	0.03240213	-0.4935546	0.3532371	7.633574	-5.466702	0	0
4.963741	-0.1083893	0.03894213	-0.5626046	0.4026709	-2.082973	1.49123	0	0
4.980525	-0.1129384	0.04219852	-0.2710494	0.1940264	8.828376	-6.317815	0	0
4.997035	-0.1155098	0.04403946	-0.1557491	0.1115043	3.463174	-2.478644	0	0
5.01355	-0.115406	0.04400228	0.006289249	-0.00225138	4.906496	-3.444506	0	0
5.030061	-0.115406	0.04400228	0	0	-0.190432	0.06816949	0	0
5.046579	-0.115406	0.04400228	0	0	0	0	0	0
5.063127	-0.115406	0.04403946	0	0.002246969	0	0.0679535	0	0
5.079691	-0.11538	0.04405805	0.001567538	0.001122465	0.0473404	-0.03396057	0	0
5.112823	-0.115354	0.04426255	0.0007837012	0.006172125	-0.01577264	0.1016111	0	0
5.129393	-0.1156137	0.04448562	-0.01567086	0.01346262	-0.3310697	0.1466864	0	0
5.146151	-0.1158474	0.04469009	-0.01394486	0.01220136	0.0517891	-0.0378442	0	0
5.162655	-0.1166262	0.04535918	-0.04718964	0.04053955	-0.9994604	0.8519501	0	0
5.179092	-0.1227741	0.0498354	-0.3740259	0.2723247	-9.921622	7.036198	0	0
5.19566	-0.1268417	0.05289703	-0.2455106	0.1847952	3.893842	-2.652025	0	0
5.212224	-0.1332324	0.05758688	-0.3858317	0.2831451	-4.235326	2.968503	0	0
5.22879	-0.1403862	0.06301128	-0.4318199	0.3274268	-1.388106	1.336597	0	0
5.245358	-0.1448726	0.06652491	-0.2707926	0.2120768	4.859814	-3.481269	0	0
5.261923	-0.1477059	0.06885333	-0.1710339	0.1405598	3.010852	-2.158482	0	0
5.278492	-0.1494561	0.0717343	-0.1056338	0.173876	1.973781	1.005486	0	0
5.295059	-0.1489672	0.0721589	0.02951489	0.02563	4.078678	-4.473945	0	0
5.311762	-0.1480148	0.07280493	0.05701793	0.03867733	0.8266768	0.3921719	0	0
5.328269	-0.147989	0.07282338	0.001559927	0.001118038	-1.669929	-1.13097	0	0
5.344784	-0.147989	0.07282338	0	0	-0.04723914	-0.03385745	0	0
5.361323	-0.1479633	0.07284184	0.001555923	0.001115814	0.04707098	0.03375646	0	0
5.37789	-0.1477573	0.0730264	0.01243272	0.0111406	0.328546	0.3028103	0	0
5.394457	-0.1471394	0.07346931	0.03729871	0.02673438	0.7504786	0.4706347	0	0
5.411023	-0.1413407	0.07761934	0.3500311	0.2505109	9.438554	6.753783	0	0
5.427591	-0.1371597	0.08060484	0.2523519	0.1801948	-2.947965	-2.122146	0	0
5.444158	-0.1303876	0.08539206	0.4087856	0.2889735	4.72118	3.282948	0	0
5.460723	-0.1218149	0.09147896	0.5175086	0.3674484	3.281549	2.368582	0	0
5.477374	-0.1139776	0.09702533	0.4706938	0.3331017	-1.409406	-1.03404	0	0
5.493886	-0.1087534	0.100713	0.3163855	0.2233358	-4.653083	-3.309931	0	0
5.510423	-0.1056317	0.1029132	0.188766	0.1330423	-3.861457	-2.732063	0	0
5.526989	-0.1013099	0.1059185	0.2608802	0.1814091	2.178418	1.46106	0	0
5.543557	-0.09990314	0.1069076	0.08490945	0.0597032	-5.310961	-3.673198	0	0
5.560124	-0.09987709	0.1069626	0.001572618	0.003316574	-2.515074	-1.701727	0	0
5.576943	-0.09987709	0.1069626	0	0	-0.04710313	-0.09933817	0	0
5.593256	-0.09987709	0.1069626	0	0	0	0	0	0
5.609967	-0.09990314	0.1069809	-0.001559156	0.001095912	-0.04721306	0.0331855	0	0
5.626481	-0.09990314	0.1069809	0	0	0.04692846	-0.03298546	0	0
5.642957	-0.09990314	0.1069809	0	0	0	0	0	0
5.659524	-0.09990314	0.1069809	0	0	0	0	0	0
5.676091	-0.0999292	0.1069992	-0.001572754	0.00110547	-0.0474665	0.03336364	0	0
5.692657	-0.1000074	0.1070542	-0.004718398	0.003316956	-0.09494255	0.06674758	0	0
5.709223	-0.1002939	0.1072556	-0.01729895	0.01216062	-0.379709	0.2669216	0	0
5.725789	-0.1012057	0.1078965	-0.0550356	0.03868921	-1.13896	0.8006805	0	0
5.742356	-0.1064383	0.1115757	-0.3158523	0.2220807	-7.871803	5.535005	0	0
5.758924	-0.1105215	0.1144475	-0.2464376	0.1733279	2.094878	-1.47132	0	0
5.775489	-0.1140035	0.1168973	-0.2102077	0.1478894	1.093452	-0.7677567	0	0
5.792096	-0.114497	0.117208	-0.02971698	0.01870944	5.441114	-3.894289	0	0
5.808625	-0.114497	0.117208	0	0	0.8968214	-0.5646277	0	0
5.825629	-0.114523	0.1172263	-0.001527447	0.001074821	-0.04555042	0.03205255	0	0
5.870702	-0.114523	0.1172263	0	0	0.02460585	-0.01731444	0	0
5.988739	-0.1194289	0.1207158	-0.04156268	0.02956278	-0.2548149	0.1812452	0	0
6.005305	-0.1232148	0.123418	-0.2285261	0.1631167	-1.388999	0.992206	0	0
6.021872	-0.1276443	0.1265384	-0.2673767	0.1883518	-1.172564	0.7616298	0	0
6.038438	-0.132405	0.1300397	-0.2873645	0.2113465	-0.6032519	0.6940027	0	0
6.055005	-0.1352482	0.1324819	-0.1716209	0.1474182	3.49325	-1.929417	0	0
6.071573	-0.1348865	0.1335022	0.02183408	0.0615835	5.838483	-2.590496	0	0
6.088138	-0.1341629	0.1340123	0.04368073	0.03079213	0.6593619	-0.9293254	0	0
6.104816	-0.133801	0.1342673	0.02169551	0.0152904	-0.661336	-0.4663064	0	0
6.121328	-0.130905	0.1362706	0.175396	0.1213278	4.63096	3.194883	0	0
6.137838	-0.1261683	0.1396018	0.2868964	0.2017639	3.376604	2.435874	0	0
6.154404	-0.1177164	0.1455308	0.5101903	0.3579016	6.750877	4.720533	0	0
6.170972	-0.1123928	0.149256	0.3213255	0.2248462	-5.700035	-4.015679	0	0
6.187538	-0.1085454	0.1519439	0.232249	0.162256	-2.68841	-1.889029	0	0
6.204104	-0.09886087	0.1587308	0.584591	0.4096788	10.63447	7.467772	0	0
6.220671	-0.09508086	0.16136	0.2281687	0.1587028	-10.75731	-7.574799	0	0
6.23741	-0.08730383	0.1667598	0.4646083	0.3225941	7.099084	4.920825	0	0
6.253805	-0.07935929	0.1722274	0.4845541	0.333479	0.6019645	0.3285082	0	0
6.270436	-0.07404857	0.1759362	0.3193242	0.2230032	-5.002917	-3.345046	0	0
6.286951	-0.0691789	0.1792994	0.2948759	0.2036551	-0.7376072	-0.583734	0	0
6.303506	-0.06545898	0.1818659	0.2246968	0.155025	-2.122162	-1.470538	0	0
6.320071	-0.06448939	0.1825707	0.05853078	0.04254192	-5.016995	-3.396163	0	0
6.336638	-0.06456801	0.1826248	-0.00474556	0.003271342	-1.909821	-1.185274	0	0
6.353205	-0.06501351	0.182932	-0.02689121	0.01854061	-0.6683763	0.4608406	0	0
6.369773	-0.06951937	0.1860751	-0.2719585	0.1897044	-7.396039	5.165659	0	0
6.386338	-0.07805164	0.1919961	-0.5150682	0.3574329	-7.337276	5.062202	0	0
6.402905	-0.08411683	0.1961811	-0.3661167	0.2526274	4.495753	-3.163309	0	0
6.419471	-0.08827003	0.199048	-0.2506948	0.1730492	3.483588	-2.401777	0	0
6.436038	-0.09575886	0.2042201	-0.4520394	0.3121951	-6.076765	4.199551	0	0
6.452605	-0.09987709	0.2070659	-0.2485771	0.171777	6.140592	-4.237888	0	0
6.469173	-0.1023256	0.2087586	-0.1477866	0.1021649	3.041821	-2.100867	0	0
6.486085	-0.1048509	0.2105049	-0.1493223	0.1032571	-0.04587223	0.03262263	0	0
6.502304	-0.1072969	0.2121968	-0.1508065	0.1043164	-0.04479552	0.03197435	0	0
6.519109	-0.1073489	0.2122328	-0.00309636	0.002142269	4.472769	-3.093907	0	0
6.535438	-0.1073489	0.2122328	0	0	0.09345101	-0.06465568	0	0
6.552005	-0.107505	0.2123408	-0.00942042	0.006517125	-0.2863694	0.1981127	0	0
6.568644	-0.1077131	0.2125207	-0.01250743	0.010817	-0.09296556	0.1294909	0	0
6.601863	-0.1131203	0.2163351	-0.1627705	0.1148235	-3.013815	2.08605	0	0
6.61868	-0.1176126	0.2198062	-0.267142	0.2064134	-2.08593	1.830483	0	0
6.634997	-0.1187544	0.2205974	-0.06997415	0.04848499	5.950709	-4.766426	0	0
6.668219	-0.1207777	0.2222514	-0.06090388	0.04978623	0.1830933	0.02626694	0	0
6.684699	-0.1207518	0.2222334	0.001573757	-0.001091367	1.257053	-1.023659	0	0
6.701264	-0.1207258	0.2222154	0.001565648	-0.001084845	-0.0002453877	0.0001973917	0	0
6.71783	-0.1207258	0.2222154	0	0	-0.04725612	0.03274397	0	0
6.734397	-0.1206999	0.2221974	0.001565468	-0.00108472	0.04724796	-0.03273832	0	0
6.750963	-0.120674	0.2221794	0.001565109	-0.001085682	-1.085327E-05	-2.903224E-05	0	0
6.76753	-0.1205702	0.2221075	0.006262053	-0.004339903	0.1417602	-0.09821684	0	0
6.784299	-0.1205443	0.2220896	0.001546594	-0.00107253	-0.1414517	0.09801286	0	0
6.817323	-0.1205443	0.2220896	0	0	-0.03106032	0.02153968	0	0
6.833831	-0.1205702	0.2221075	-0.001571075	0.001089507	-0.03171843	0.02199606	0	0
6.850363	-0.1205962	0.2221255	-0.00156881	0.001087035	6.857712E-05	-7.483479E-05	0	0
6.867354	-0.1206221	0.2221435	-0.001526454	0.001057687	0.001263477	-0.000875471	0	0
6.883499	-0.120674	0.2221794	-0.003212772	0.002227067	-0.05089097	0.03529042	0	0
6.900064	-0.120674	0.2222154	0	0.002170714	0.09822108	-0.001722826	0	0
6.91663	-0.120674	0.2222154	0	0	0	-0.06551886	0	0
6.933197	-0.120648	0.2221974	0.001565558	-0.001084782	0.04725068	-0.0327402	0	0
6.949913	-0.120648	0.2221974	0	0	-0.04703879	0.03259338	0	0
6.966429	-0.120648	0.2221974	0	0	0	0	0	0
6.982898	-0.120648	0.2221974	0	0	0	0	0	0
6.999463	-0.120648	0.2221974	0	0	0	0	0	0
7.016031	-0.120648	0.2221974	0	0	0	0	0	0
7.032597	-0.120648	0.2221974	0	0	0	0	0	0
7.049163	-0.120648	0.2221974	0	0	0	0	0	0
7.06573	-0.120648	0.2221974	0	0	0	0	0	0
7.082297	-0.120648	0.2221974	0	0	0	0	0	0
7.098864	-0.1206221	0.2221794	0.001565558	-0.001085682	0.04724932	-0.03276641	0	0
7.11553	-0.1206221	0.2221794	0	0	-0.04710831	0.03266862	0	0
7.132043	-0.1206221	0.2221794	0	0	0	0	0	0
7.148563	-0.1206221	0.2221794	0	0	0	0	0	0
7.16513	-0.1206221	0.2221794	0	0	0	0	0	0
7.181696	-0.1206221	0.2221794	0	0	0	0	0	0
7.198264	-0.1206221	0.2221794	0	0	0	0	0	0
7.215099	-0.1205962	0.2221615	0.001540593	-0.001067483	0.0461215	-0.03195779	0	0
7.231397	-0.1205962	0.2221615	0	0	-0.04649786	0.03221856	0	0
7.248124	-0.1205702	0.2221435	0.001550518	-0.001075252	0.04695013	-0.03255893	0	0
7.264634	-0.1205702	0.2221435	0	0	-0.04664972	0.0323506	0	0
7.281168	-0.1205702	0.2221435	0	0	0	0	0	0
7.297664	-0.1205702	0.2221435	0	0	0	0	0	0
7.331098	-0.1205443	0.2221255	0.0007757124	-0.0005374945	0.01553582	-0.01076484	0	0
7.347665	-0.1205443	0.2221255	0	0	-0.01551374	0.01074954	0	0
7.364232	-0.1205443	0.2221255	0	0	0	0	0	0
7.380798	-0.1205443	0.2221255	0	0	0	0	0	0
7.397366	-0.1205443	0.2221255	0	0	0	0	0	0
7.413931	-0.1205443	0.2221255	0	0	0	0	0	0
7.430498	-0.1205443	0.2221255	0	0	0	0	0	0
7.447065	-0.1205443	0.2221255	0	0	0	0	0	0
7.463631	-0.1205443	0.2221255	0	0	0	0	0	0
7.480198	-0.1205443	0.2221255	0	0	0	0	0	0
7.496767	-0.1205443	0.2221255	0	0	0	0	0	0
7.513331	-0.1205443	0.2221255	0	0	0	0	0	0
7.529898	-0.1205443	0.2221255	0	0	0	0	0	0
7.546465	-0.1205443	0.2221255	0	0	0	0	0	0
7.563032	-0.1205443	0.2221255	0	0	0	0	0	0
7.579598	-0.1205443	0.2221255	0	0	0	0	0	0
7.596871	-0.1205184	0.2221075	0.001501508	-0.001040401	0.04437182	-0.03074543	0	0
7.612731	-0.1205184	0.2221075	0	0	-0.04531756	0.03140073	0	0
7.629304	-0.1205184	0.2221075	0	0	0	0	0	0
7.645905	-0.1205184	0.2221075	0	0	0	0	0	0
7.662432	-0.1205184	0.2221075	0	0	0	0	0	0
7.678998	-0.1204924	0.2220896	0.001565603	-0.001085713	0.04730992	-0.03280843	0	0
7.695566	-0.1204924	0.2220896	0	0	-0.04725136	0.03276782	0	0
7.712133	-0.1204924	0.2220896	0	0	0	0	0	0
7.745483	-0.1204924	0.2220896	0	0	0	0	0	0
7.761985	-0.1204924	0.2220896	0	0	0	0	0	0
7.778498	-0.1204924	0.2220896	0	0	0	0	0	0
7.795011	-0.1204665	0.2220716	0.001570622	-0.00108829	0.04755818	-0.03295327	0	0
7.811532	-0.1204665	0.2220716	0	0	-0.04754445	0.03294376	0	0
7.828534	-0.1204665	0.2220716	0	0	0	0	0	0
7.844664	-0.1204665	0.2220716	0	0	0	0	0	0
7.861568	-0.1204665	0.2220716	0	0	0	0	0	0
7.877797	-0.1204665	0.2220716	0	0	0	0	0	0
7.894584	-0.1204406	0.2220536	0.001544969	-0.001071403	0.04679426	-0.03245083	0	0
7.910932	-0.1204406	0.2220536	0	0	-0.04662658	0.03233455	0	0
7.927497	-0.1204406	0.2220536	0	0	0	0	0	0
7.944113	-0.1204406	0.2220536	0	0	0	0	0	0
7.96063	-0.1204406	0.2220536	0	0	0	0	0	0
7.977197	-0.1204406	0.2220536	0	0	0	0	0	0
8.010664	-0.1204406	0.2220536	0	0	0	0	0	0
8.026896	-0.1204406	0.2220536	0	0	0	0	0	0
8.043464	-0.1204406	0.2220536	0	0	0	0	0	0
8.060194	-0.1204406	0.2220536	0	0	0	0	0	0
8.076596	-0.1204406	0.2220536	0	0	0	0	0	0
8.093218	-0.1204406	0.2220536	0	0	0	0	0	0
8.109732	-0.1204406	0.2220536	0	0	0	0	0	0
8.126296	-0.1204406	0.2220536	0	0	0	0	0	0
8.142862	-0.1204406	0.2220536	0	0	0	0	0	0
8.15943	-0.1204406	0.2220536	0	0	0	0	0	0
8.175996	-0.1204406	0.2220536	0	0	0	0	0	0
8.192562	-0.1204406	0.2220536	0	0	0	0	0	0
8.2093	-0.1204406	0.2220536	0	0	0	0	0	0
8.22581	-0.1204406	0.2220536	0	0	0	0	0	0
8.24232	-0.1204406	0.2220536	0	0	0	0	0	0
8.258832	-0.1204406	0.2220536	0	0	0	0	0	0
8.275394	-0.1204406	0.2220536	0	0	0	0	0	0
8.291964	-0.1204406	0.2220536	0	0	0	0	0	0
8.308528	-0.1204406	0.2220536	0	0	0	0	0	0
8.325095	-0.1204406	0.2220536	0	0	0	0	0	0
8.341891	-0.1204406	0.2220536	0	0	0	0	0	0
8.35824	-0.1204146	0.2220356	0.00158638	-0.00109921	0.04786189	-0.03316371	0	0
8.374915	-0.1204146	0.2220356	0	0	-0.04803743	0.03328534	0	0
8.391427	-0.1204406	0.2220536	-0.001570712	0.001088353	-0.04732927	0.03279465	0	0
8.407939	-0.1204406	0.2220536	0	0	0.04756299	-0.0329566	0	0
8.424498	-0.1204406	0.2220536	0	0	0	0	0	0
8.441063	-0.1204146	0.2220356	0.001565648	-0.001084845	0.04726633	-0.03275104	0	0
8.457629	-0.1204146	0.2220356	0	0	-0.04725544	0.0327435	0	0
8.474486	-0.1204146	0.2220356	0	0	0	0	0	0
8.490762	-0.1204146	0.2220356	0	0	0	0	0	0
8.507521	-0.1204406	0.2220536	-0.001547562	0.001072313	-0.0468471	0.03246056	0	0
8.523897	-0.1204406	0.2220536	0	0	0.04670418	-0.03236153	0	0
8.540462	-0.1204406	0.2220536	0	0	0	0	0	0
8.607079	-0.1204146	0.2220356	0.000389322	-0.0002697629	0.004680399	-0.003243069	0	0
8.623296	-0.1204406	0.2220536	-0.001599254	0.00110813	-0.02400669	0.01663434	0	0
8.640101	-0.1204406	0.2220536	0	0	0.04842866	-0.03355643	0	0
8.656427	-0.1204406	0.2220536	0	0	0	0	0	0
8.673124	-0.1204146	0.2220356	0.001553308	-0.001076294	0.04703732	-0.03259236	0	0
8.689636	-0.1204146	0.2220356	0	0	-0.04677391	0.03240985	0	0
8.706148	-0.1204146	0.2220356	0	0	0	0	0	0
8.722713	-0.1204146	0.2220356	0	0	0	0	0	0
8.739261	-0.1204146	0.2220356	0	0	0	0	0	0
8.755827	-0.1204146	0.2220356	0	0	0	0	0	0
8.772393	-0.1203887	0.2220177	0.001565558	-0.001084782	0.04725136	-0.03274067	0	0
8.78896	-0.1203887	0.2220177	0	0	-0.04725	0.03273973	0	0
8.822234	-0.1203887	0.2219817	0	-0.001080628	0	-0.02168155	0	0
8.838661	-0.1203109	0.2219278	0.004736938	-0.003282837	0.09530921	-0.04430939	0	0
8.855227	-0.1200256	0.22173	0.01722348	-0.01193779	0.3784677	-0.2623319	0	0
8.871793	-0.119818	0.2215862	0.01252627	-0.008681855	-0.1417745	0.09827273	0	0
8.88836	-0.1196624	0.2214424	0.009394608	-0.008681355	-0.09451634	1.509409E-05	0	0
8.904926	-0.119403	0.2212266	0.01565918	-0.01302278	0.1890707	-0.1310283	0	0
8.921493	-0.1187284	0.2206873	0.04071846	-0.03255786	0.756334	-0.5896037	0	0
8.938062	-0.1167301	0.2191948	0.1206077	-0.09007263	2.410991	-1.735749	0	0
8.954626	-0.1161849	0.2187453	0.03291199	-0.02714157	-2.646737	1.899318	0	0
8.971335	-0.1165224	0.2185115	-0.02019808	-0.01399125	-1.596158	0.3952167	0	0
8.987847	-0.1168858	0.2182597	-0.02200983	-0.01524868	-0.05453561	-0.03785026	0	0
9.004358	-0.1187284	0.2169827	-0.1115992	-0.07734163	-2.712949	-1.880301	0	0
9.020893	-0.1202331	0.2159394	-0.09099773	-0.06309839	0.6234227	0.4310155	0	0
9.037461	-0.1202331	0.2159394	0	0	2.748928	1.906124	0	0
9.054027	-0.1202071	0.2159214	0.001565648	-0.001085744	0.04725272	-0.03276877	0	0
9.070905	-0.1201552	0.2158854	0.003073705	-0.002132127	0.04509275	-0.03128811	0	0
9.087418	-0.1191695	0.2151298	0.0596958	-0.04575693	1.695729	-1.306484	0	0
9.10393	-0.114497	0.2118188	0.2829755	-0.2005223	6.760972	-4.68634	0	0
9.120442	-0.1071148	0.2063456	0.4470613	-0.3314539	4.968566	-3.964647	0	0
9.136956	-0.09852209	0.1996789	0.5203321	-0.4037	2.218532	-2.187504	0	0
9.153426	-0.0937246	0.187303	0.2912873	-0.7514259	-6.944165	-10.54233	0	0
9.169992	-0.09442885	0.1774915	-0.04251114	-0.5922586	-10.10401	4.81796	0	0
9.18656	-0.09562848	0.1685889	-0.07240953	-0.537358	-0.9023614	1.656951	0	0
9.203126	-0.09669748	0.1588215	-0.06452879	-0.5895989	0.237848	-1.576677	0	0
9.219692	-0.09680177	0.1566085	-0.006295064	-0.1335847	1.757599	13.76333	0	0
9.319093	-0.1205443	0.1251518	-0.2388572	-0.3164642	-2.00542	-1.576999	0	0
9.335659	-0.1236813	0.1229799	-0.1893583	-0.1311026	0.4268362	1.598403	0	0
9.352227	-0.1271006	0.1205331	-0.2063803	-0.1476789	-0.5137245	-0.5002734	0	0
9.368793	-0.1317585	0.1172445	-0.2811852	-0.1985221	-2.257682	-1.534495	0	0
9.385359	-0.1343696	0.1153618	-0.1576163	-0.1136516	3.72964	2.561616	0	0
9.401925	-0.1418049	0.1100568	-0.4488218	-0.3202266	-8.789106	-6.234805	0	0
9.418491	-0.1450787	0.1077317	-0.1976183	-0.1403484	7.581773	5.429048	0	0
9.43516	-0.1497391	0.1044161	-0.2795961	-0.1989175	-2.466641	-1.762292	0	0
9.451678	-0.1553949	0.1004196	-0.342387	-0.2419412	-1.892035	-1.296407	0	0
9.46819	-0.1576031	0.09884203	-0.1337321	-0.09554046	6.317034	4.43229	0	0
9.501323	-0.1613483	0.09612589	-0.1130373	-0.08197818	0.4168607	0.2731881	0	0
9.51789	-0.1613483	0.09612589	0	0	2.274402	1.649468	0	0
9.534456	-0.1613483	0.09612589	0	0	0	0	0	0
9.551024	-0.1613226	0.09610753	0.00154784	-0.001108041	0.04671391	-0.03344075	0	0
9.56759	-0.161297	0.09612589	0.001547208	0.001108233	-1.908194E-05	0.0668892	0	0
9.584264	-0.161297	0.09612589	0	0	-0.04654745	-0.03334096	0	0
9.61775	-0.161297	0.09612589	0	0	0	0	0	0
9.634317	-0.1613226	0.09610753	-0.00154703	-0.001108105	-0.03090746	-0.02213837	0	0
9.650887	-0.161297	0.09608917	0.001546852	-0.001107977	0.09336815	3.846975E-06	0	0
9.667451	-0.1612457	0.09605245	0.003095493	-0.002216593	0.04673945	-0.03345904	0	0
9.684334	-0.1608611	0.09577707	0.02277951	-0.01631124	0.588509	-0.421399	0	0
9.700583	-0.158527	0.09410607	0.1436447	-0.102833	3.647929	-2.611383	0	0
9.71715	-0.1550096	0.09158922	0.2123223	-0.1519262	2.092811	-1.496015	0	0
9.733716	-0.1460062	0.08518963	0.5434768	-0.3863025	9.994838	-7.073899	0	0
9.750284	-0.1429137	0.0829807	0.1866501	-0.1333234	-10.76905	7.634926	0	0
9.76685	-0.1395089	0.08054958	0.2055421	-0.1467599	0.5701774	-0.4055259	0	0
9.783417	-0.1395605	0.08058642	-0.003115646	0.002223855	-6.297664	4.496596	0	0
9.799983	-0.1395605	0.08058642	0	0	0.09403308	-0.06711801	0	0
9.816549	-0.1395347	0.080568	0.001557913	-0.001111767	0.0470206	-0.03355512	0	0
9.833116	-0.1395089	0.08054958	0.001557913	-0.001112217	0	-1.357313E-05	0	0
9.853914	-0.1395089	0.08054958	0	0	-0.04169448	0.0297663	0	0
9.870481	-0.1395089	0.08054958	0	0	0	0	0	0
9.887048	-0.1395089	0.08054958	0	0	0	0	0	0
9.903615	-0.1395089	0.08054958	0	0	0	0	0	0
9.920181	-0.1395089	0.08054958	0	0	0	0	0	0
9.936749	-0.1395089	0.08054958	0	0	0	0	0	0
9.953525	-0.1395089	0.08054958	0	0	0	0	0	0
9.969881	-0.1394057	0.08047588	0.006310674	-0.004505477	0.1904675	-0.1359834	0	0
9.986547	-0.1389927	0.08018111	0.02477915	-0.01768777	0.5592791	-0.3991981	0	0
10.00306	-0.136669	0.07852259	0.1407369	-0.1004497	3.495186	-2.494601	0	0
10.01958	-0.132586	0.07560939	0.2471042	-0.1763075	3.219903	-2.296331	0	0
10.03615	-0.1315516	0.07487155	0.06243524	-0.04453602	-5.58071	3.982142	0	0
10.05271	-0.1284209	0.07263881	0.1889805	-0.1347765	3.819255	-2.723542	0	0
10.06928	-0.1275408	0.07201122	0.05312698	-0.03788154	-4.100187	2.924381	0	0
10.08585	-0.1253395	0.0704418	0.1328759	-0.09473539	2.406897	-1.715902	0	0
10.10241	-0.1252877	0.07040487	0.003127519	-0.00222938	-3.91604	2.791998	0	0
10.11898	-0.1250545	0.07023866	0.01407428	-0.01003289	0.330393	-0.2355238	0	0
10.13565	-0.1225927	0.06844687	0.1476799	-0.1074844	4.019847	-2.932064	0	0
10.15217	-0.1177164	0.06497189	0.2951653	-0.2103435	4.443571	-3.099031	0	0
10.16868	-0.1125227	0.06127184	0.3145609	-0.2240971	0.5871844	-0.4163772	0	0
10.18525	-0.1063603	0.05691989	0.3720072	-0.2627141	1.736784	-1.167513	0	0
10.20181	-0.102612	0.05421372	0.2262576	-0.1633542	-4.399113	2.998948	0	0
10.21838	-0.0975838	0.05063351	0.3035213	-0.2161143	2.331958	-1.592395	0	0
10.23495	-0.09578493	0.04935274	0.1085799	-0.07730763	-5.883512	4.189313	0	0
10.25151	-0.09098494	0.04589809	0.2897448	-0.208535	5.467724	-3.960563	0	0
10.26825	-0.08824392	0.04394651	0.1637985	-0.1166229	-3.782125	2.760088	0	0
10.30277	-0.06949318	0.03044346	0.5431223	-0.3911211	7.400272	-5.355216	0	0
10.31927	-0.06490869	0.02717665	0.2778882	-0.1980169	-5.19847	3.784756	0	0
10.33584	-0.05735807	0.02179395	0.4557041	-0.3248631	5.377483	-3.836067	0	0
10.3528	-0.05418376	0.01953004	0.1870999	-0.1334394	-8.009665	5.708177	0	0
10.43524	-0.04011006	0.009483779	0.1707334	-0.121875	-0.1646585	0.116346	0	0
10.4518	-0.04003124	0.009427467	0.004757566	-0.003398968	-1.676556	1.196751	0	0
10.52519	-0.03997869	0.009052035	0.0007160325	-0.00511564	-0.04492775	-0.0190834	0	0
10.54194	-0.04000496	0.009033262	-0.001568326	-0.001120598	-0.0253417	0.04431931	0	0
10.55845	-0.04011006	0.00895817	-0.006368425	-0.00455035	-0.1443397	-0.1031331	0	0
10.57489	-0.04032024	0.008807981	-0.01278094	-0.009132706	-0.194628	-0.1390804	0	0
10.59146	-0.04105587	0.008282269	-0.04440757	-0.0317357	-0.9580783	-0.6847216	0	0
10.62459	-0.0562826	-0.002663611	-0.4595571	-0.3303568	-8.353305	-6.008615	0	0
10.64116	-0.06469905	-0.008791722	-0.5080468	-0.3699149	-0.9756531	-0.7959402	0	0
10.65772	-0.07284456	-0.01470449	-0.4916928	-0.3569159	0.4935938	0.3923331	0	0
10.67429	-0.08335901	-0.02242831	-0.6345801	-0.4661568	-4.312225	-3.296804	0	0
10.69086	-0.09061955	-0.02770198	-0.4383227	-0.3183747	5.923233	4.460203	0	0
10.70742	-0.09763593	-0.03281348	-0.4235341	-0.3085485	0.4463713	0.2965871	0	0
10.72399	-0.1057097	-0.03871468	-0.487336	-0.3561969	-1.925599	-1.43807	0	0
10.74056	-0.1073749	-0.03993442	-0.1005155	-0.07362824	11.6746	8.528183	0	0
10.75712	-0.1146788	-0.04529576	-0.4408657	-0.3236107	-10.27209	-7.544703	0	0
10.77369	-0.1186506	-0.04818076	-0.2397356	-0.1741389	6.070117	4.511069	0	0
10.79026	-0.1191436	-0.04854397	-0.02975901	-0.02192605	6.337471	4.594057	0	0
10.80683	-0.1190657	-0.04848662	0.004697662	0.003461305	1.039905	0.7661918	0	0
10.82339	-0.1190138	-0.04844838	0.003132196	0.002308218	-0.04724586	-0.03480024	0	0
10.83996	-0.1189101	-0.04837191	0.006264482	0.004615721	0.09454072	0.06964658	0	0
10.85666	-0.1188582	-0.04829545	0.003107422	0.004578818	-0.09490331	-0.00110932	0	0
10.87317	-0.1188063	-0.04825722	0.003142778	0.002315458	0.001064579	-0.06814946	0	0
10.88966	-0.1187803	-0.0482381	0.001573344	0.001159223	-0.04755724	-0.03503642	0	0
10.92279	-0.1187544	-0.04821899	0.0007832063	0.0005768923	-0.01592297	-0.01173521	0	0
10.93936	-0.1187025	-0.04818076	0.003132646	0.002307993	0.04727354	0.03483183	0	0
10.95592	-0.1186246	-0.04812341	0.004698203	0.003461254	0.04725134	0.03480748	0	0
10.97249	-0.1185208	-0.04804695	0.006265381	0.004615496	0.04729889	0.03483609	0	0
10.98925	-0.1184949	-0.04802784	0.001548011	0.00114023	-0.1415354	-0.1042685	0	0
11.00562	-0.118469	-0.04800872	0.001584802	0.001167665	0.001110386	0.0008280003	0	0
11.02227	-0.118469	-0.04800872	0	0	-0.04799518	-0.03536233	0	0
11.03879	-0.118443	-0.04798961	0.001571615	0.001157616	0.04739187	0.03490779	0	0
11.05532	-0.118443	-0.04798961	0	0	-0.04755187	-0.03502564	0	0
11.07189	-0.1181835	-0.04779847	0.01566368	0.0115375	0.4731529	0.3485135	0	0
11.08882	-0.11795	-0.04762647	0.01379287	0.01015788	-0.05584541	-0.04118321	0	0
11.10502	-0.1174309	-0.04720604	0.03204058	0.02595229	0.5507329	0.4766901	0	0
11.12159	-0.1162109	-0.04630805	0.07364132	0.05420248	1.269581	0.8621458	0	0
11.15487	-0.1122628	-0.04340579	0.1186428	0.08721641	0.9028513	0.6623479	0	0
11.17138	-0.1081032	-0.04035383	0.2519009	0.1848233	2.676433	1.960393	0	0
11.18786	-0.1037056	-0.03713356	0.266857	0.1954108	0.4533197	0.3209098	0	0
11.20442	-0.1018568	-0.03581975	0.11161	0.07931493	-4.698209	-3.513388	0	0
11.22099	-0.09335939	-0.02962017	0.5129055	0.3742074	12.11217	8.90064	0	0
11.23756	-0.09124592	-0.02808173	0.1275619	0.09285557	-11.62936	-8.49097	0	0
11.25413	-0.08706878	-0.02500712	0.2521471	0.1855943	3.759988	2.798861	0	0
11.27096	-0.08518807	-0.0236416	0.111751	0.08113842	-4.204008	-3.127819	0	0
11.32039	-0.0777116	-0.01822331	0.1512364	0.109603	0.5958697	0.429556	0	0
11.33696	-0.07773776	-0.01812867	-0.001579051	0.005712983	-2.315319	-1.574046	0	0
11.35352	-0.07781623	-0.01807188	-0.004736702	0.003427722	-0.0953036	-0.06897327	0	0
11.37009	-0.07792086	-0.01795832	-0.006315752	0.00685522	-0.04765858	0.103448	0	0
11.38666	-0.07776392	-0.0178069	0.009473404	0.009139919	0.4765451	0.06895631	0	0
11.40322	-0.07640362	-0.01678504	0.08210342	0.06167605	2.191978	1.585544	0	0
11.41979	-0.07014787	-0.01226629	0.3776193	0.2727684	8.918687	6.37078	0	0
11.43657	-0.06543277	-0.008904965	0.2810608	0.2003639	-2.89597	-2.171548	0	0
11.45308	-0.06323139	-0.007282201	0.133321	0.09827835	-4.438229	-3.066736	0	0
11.4696	-0.05945616	-0.004679912	0.2285178	0.1575188	2.881919	1.793403	0	0
11.4861	-0.05911525	-0.004510269	0.02065793	0.01027992	-6.294419	-4.458692	0	0
11.50312	-0.05908903	-0.004529118	0.00154148	-0.001107884	-0.5703691	-0.3397729	0	0
11.51919	-0.05906281	-0.004547967	0.001631235	-0.001172559	0.002712557	-0.001954589	0	0
11.53576	-0.05903658	-0.004566815	0.001583098	-0.001137768	-0.001474705	0.001065857	0	0
11.55232	-0.05898413	-0.004642212	0.003165972	-0.004551239	0.04777396	-0.1030247	0	0
11.56916	-0.05895791	-0.004661062	0.001557411	-0.001119521	-0.0481556	0.1027356	0	0
11.58546	-0.05901036	-0.004774162	-0.003218216	-0.006939771	-0.1441287	-0.1756555	0	0
11.60219	-0.05908903	-0.004943818	-0.004702821	-0.01014181	-0.04495297	-0.09695581	0	0
11.61859	-0.05927259	-0.005151188	-0.0111903	-0.01264132	-0.1958038	-0.07543977	0	0
11.63521	-0.05932504	-0.005302011	-0.003156523	-0.00907702	0.2433003	0.1079436	0	0
11.65172	-0.05932504	-0.005377424	0	-0.004565919	0.09526952	0.1361531	0	0
11.66829	-0.05932504	-0.005415132	0	-0.002276022	0	0.06921479	0	0
11.68486	-0.05940371	-0.005509403	-0.00474862	-0.005690552	-0.1433178	-0.1030537	0	0
11.70142	-0.05958727	-0.005641387	-0.01107906	-0.007966098	-0.1910531	-0.06867611	0	0
11.71799	-0.05982327	-0.005811088	-0.01424646	-0.01024435	-0.09559485	-0.06875972	0	0
11.73456	-0.05984949	-0.005867657	-0.001582782	-0.00341454	0.3822124	0.2061359	0	0
11.75129	-0.05995438	-0.005980798	-0.006268479	-0.006761854	-0.140714	-0.1005216	0	0
11.76769	-0.06013792	-0.00622595	-0.01119112	-0.01494712	-0.1485698	-0.2470389	0	0
11.78431	-0.06045257	-0.006565422	-0.01892862	-0.0204224	-0.2343004	-0.1657979	0	0
11.80083	-0.06060988	-0.006942654	-0.009527604	-0.02284606	0.2837231	-0.07314617	0	0
11.81739	-0.06037391	-0.007150151	0.01424615	-0.01252667	0.7187553	0.3119876	0	0
11.83396	-0.05935127	-0.007961399	0.06173026	-0.04896985	1.433238	-1.099984	0	0
11.85052	-0.05250433	-0.01292763	0.4132342	-0.2997279	10.6081	-7.567673	0	0
11.88388	-0.04252698	-0.02015464	0.2991028	-0.2166524	-2.285978	1.663946	0	0
11.91693	-0.02052343	-0.03612435	0.6657736	-0.4832046	5.521553	-4.013905	0	0
11.9335	-0.01149949	-0.04269975	0.5447176	-0.3969145	-2.439867	1.739165	0	0
11.95043	-0.005421	-0.04718693	0.3590043	-0.2650191	-5.544041	3.937433	0	0
11.96694	0.0001052632	-0.05120252	0.3347026	-0.243208	-0.7266715	0.6521957	0	0
12.01633	0.01691944	-0.06349409	0.3404182	-0.248854	0.08672627	-0.0856699	0	0
12.0329	0.02012886	-0.06583951	0.1937434	-0.1415862	-2.22376	1.626304	0	0
12.04947	0.02220687	-0.0673593	0.1254365	-0.09173965	-2.061684	1.504501	0	0
12.06603	0.02354828	-0.06841787	0.08096722	-0.06389547	-1.342123	0.8403631	0	0
12.0826	0.02349568	-0.06841787	-0.003175191	0	-2.539496	1.928425	0	0
12.09916	0.02339047	-0.06849487	-0.006350608	-0.004648102	-0.09583977	-0.1402881	0	0
12.11573	0.02336417	-0.06851412	-0.001587413	-0.001162004	0.1437535	0.1052107	0	0
12.1323	0.02233839	-0.06926501	-0.06191983	-0.04532608	-1.820836	-1.332875	0	0
12.14887	0.01665635	-0.07342742	-0.342988	-0.2512584	-8.483143	-6.215406	0	0
12.18209	-0.0031842	-0.08800683	-0.597122	-0.4387824	-5.103785	-3.766053	0	0
12.19861	-0.01489364	-0.09664849	-0.7091096	-0.5233288	-2.251467	-1.699772	0	0
12.21513	-0.0177876	-0.09882791	-0.1750932	-0.1318613	16.16224	11.84793	0	0
12.2317	-0.03138443	-0.108912	-0.8208007	-0.6087444	-19.51164	-14.4102	0	0
12.24827	-0.03916417	-0.1147032	-0.4695865	-0.3495617	10.60028	7.822601	0	0
12.26483	-0.04888208	-0.121961	-0.5866078	-0.4381036	-3.531813	-2.672276	0	0
12.2814	-0.05515453	-0.1266209	-0.3785622	-0.2812433	6.278647	4.733917	0	0
12.29797	-0.0591677	-0.1296339	-0.2422493	-0.1818746	4.113813	2.998866	0	0
12.31469	-0.06262852	-0.132118	-0.2069415	-0.1485364	1.060617	1.001451	0	0
12.3312	-0.06262852	-0.1319602	0	0.009559142	6.227225	4.757366	0	0
12.34771	-0.06310033	-0.1314869	-0.02857919	0.02866945	-0.865586	0.5787994	0	0
12.36423	-0.06336243	-0.1312502	-0.01586263	0.01432096	0.3849721	-0.434376	0	0
12.3808	-0.06341486	-0.1312108	-0.003164398	0.002380044	0.3837526	-0.3608658	0	0
12.39736	-0.06351969	-0.1310925	-0.006328345	0.007141032	-0.09549363	0.1436952	0	0
12.41393	-0.06346728	-0.1310136	0.003163584	0.00476044	0.286467	-0.07184642	0	0
12.4305	-0.06344107	-0.1309545	0.001582108	0.003569861	-0.04772766	-0.03593071	0	0
12.44707	-0.06338865	-0.1309151	0.003164215	0.002379907	0.04774811	-0.03591287	0	0
12.46379	-0.06336243	-0.1309348	0.001567222	-0.001178758	-0.04796955	-0.1068931	0	0
12.4803	-0.0632576	-0.1308559	0.006349546	0.004776938	0.1438918	0.1791965	0	0
12.49681	-0.06320518	-0.1308165	0.003174999	0.002388018	-0.09613453	-0.07234345	0	0
12.51333	-0.06299549	-0.1306588	0.01269486	0.009547308	0.2882309	0.2167603	0	0
12.54647	-0.06286442	-0.1305602	0.003955494	0.002974884	-0.176012	-0.1323695	0	0
12.56303	-0.06286442	-0.1305602	0	0	-0.07958623	-0.05985593	0	0
12.5796	-0.06286442	-0.1305602	0	0	0	0	0	0
12.59616	-0.06283821	-0.1305799	0.001582199	-0.001190022	0.0477536	-0.03591701	0	0
12.6129	-0.06283821	-0.1305799	0	0	-0.04751563	0.03573802	0	0
12.62941	-0.06283821	-0.1305799	0	0	0	0	0	0
12.64592	-0.06283821	-0.1305799	0	0	0	0	0	0
12.7134	-0.06283821	-0.1305799	0	0	0	0	0	0
12.72997	-0.06283821	-0.1305799	0	0	0	0	0	0
12.74654	-0.06286442	-0.1305602	-0.001582381	0.001190159	-0.04775498	0.03591804	0	0
12.76311	-0.06289063	-0.1305405	-0.001582199	0.001190022	5.499137E-06	-4.135773E-06	0	0
12.77967	-0.06291685	-0.1305208	-0.001582648	0.001189123	-1.357313E-05	-2.714977E-05	0	0
12.79624	-0.06317896	-0.1302449	-0.01581926	0.01665474	-0.4296493	0.4667397	0	0
12.81304	-0.06317896	-0.1302054	0	0.002345657	0.4740289	-0.4287759	0	0
12.82937	-0.06331001	-0.1297916	-0.008024648	0.02534272	-0.2421913	0.6940728	0	0
12.84594	-0.06357212	-0.1293187	-0.01582063	0.0285445	-0.2369747	0.09732446	0	0
12.86251	-0.06375558	-0.1291414	-0.01107513	0.01070362	0.1432277	-0.5384697	0	0
12.87909	-0.06401767	-0.1289444	-0.0158079	0.01188255	-0.14279	0.0355689	0	0
12.89564	-0.06459422	-0.128511	-0.03482904	0.02617759	-0.5740758	0.4314376	0	0
12.91221	-0.06676903	-0.1268768	-0.1312864	0.09865249	-2.912431	2.188304	0	0
12.92878	-0.07014787	-0.1242997	-0.2039123	0.1555274	-2.191791	1.71644	0	0
12.94534	-0.07226866	-0.1226683	-0.128033	0.09849085	2.290043	-1.721367	0	0
12.96214	-0.07417943	-0.1212343	-0.1137049	0.0853332	0.4293823	-0.3943069	0	0
12.97866	-0.07459816	-0.1208808	-0.02536028	0.02140778	2.651744	-1.91878	0	0
13.01168	-0.07499069	-0.120547	-0.01188638	0.0101072	0.2720088	-0.2281341	0	0
13.02819	-0.07496452	-0.1205667	0.001584517	-0.001188839	0.2719325	-0.2280294	0	0
13.04475	-0.07496452	-0.1205667	0	0	-0.04791875	0.03595271	0	0
13.06131	-0.07496452	-0.1206059	0	-0.002371105	0	-0.07160751	0	0
13.07787	-0.07493835	-0.1206255	0.00157995	-0.001185075	0.04769534	0.03580374	0	0
13.09444	-0.07493835	-0.1206255	0	0	-0.04768573	0.03576769	0	0
13.11125	-0.07491218	-0.1206059	0.001556561	0.001167864	0.04663616	0.0349904	0	0
13.12776	-0.07493835	-0.1205863	-0.0015847	0.001188976	-0.09426894	0.0006335841	0	0
13.14429	-0.07493835	-0.1205863	0	0	0.04796717	-0.03598903	0	0
13.16079	-0.07496452	-0.1205667	-0.001586343	0.00118987	-0.04803491	0.0360296	0	0
13.1773	-0.07496452	-0.1205667	0	0	0.04805572	-0.03604521	0	0
13.21041	-0.07493835	-0.1205863	0.0007905212	-0.0005929471	0.0159313	-0.01194961	0	0
13.22697	-0.07491218	-0.1206059	0.001579318	-0.001184939	0.01587825	-0.01191661	0	0
13.24354	-0.07493835	-0.1206255	-0.001579318	-0.001184939	-0.09532236	0	0	0
13.26036	-0.07491218	-0.1206452	0.001555943	-0.0011674	0.09391151	0.0005253274	0	0
13.27668	-0.07488602	-0.1206648	0.001603782	-0.00120375	0.00144386	-0.001097087	0	0
13.29324	-0.07485985	-0.1206845	0.001579409	-0.001185007	-0.0007411948	0.0005699919	0	0
13.30989	-0.07485985	-0.1206845	0	0	-0.04754897	0.03567527	0	0
13.32637	-0.07485985	-0.1206845	0	0	0	0	0	0
13.34294	-0.07483368	-0.1207041	0.001579768	-0.001184939	0.04779994	-0.03585336	0	0
13.35951	-0.07483368	-0.1207041	0	0	-0.04768024	0.03576358	0	0
13.37607	-0.07483368	-0.1207041	0	0	0	0	0	0
13.39264	-0.07480751	-0.120763	0.0015795	-0.003555675	0.04767216	-0.1073167	0	0
13.40921	-0.07480751	-0.120763	0	0	-0.04767079	0.1073136	0	0
13.42597	-0.07480751	-0.120763	0	0	0	0	0	0
13.44286	-0.07480751	-0.120763	0	0	0	0	0	0
13.45943	-0.07480751	-0.120763	0	0	0	0	0	0
13.47601	-0.07480751	-0.120763	0	0	0	0	0	0
13.49256	-0.07480751	-0.120763	0	0	0	0	0	0
13.50953	-0.07480751	-0.120763	0	0	0	0	0	0
13.52569	-0.07480751	-0.120763	0	0	0	0	0	0
13.54255	-0.07480751	-0.120763	0	0	0	0	0	0
13.55883	-0.07480751	-0.120763	0	0	0	0	0	0
13.57539	-0.07480751	-0.120763	0	0	0	0	0	0
13.59196	-0.07480751	-0.120763	0	0	0	0	0	0
13.6086	-0.07480751	-0.120763	0	0	0	0	0	0
13.62509	-0.07480751	-0.120763	0	0	0	0	0	0
13.64166	-0.07480751	-0.120763	0	0	0	0	0	0
13.65823	-0.07480751	-0.120763	0	0	0	0	0	0
13.67479	-0.07480751	-0.120763	0	0	0	0	0	0
13.69136	-0.07480751	-0.120763	0	0	0	0	0	0
13.70793	-0.07478134	-0.1207826	0.0015795	-0.001185075	0.04767079	-0.03576666	0	0
13.72468	-0.07478134	-0.1207826	0	0	-0.04740472	0.03556704	0	0
13.74106	-0.07478134	-0.1207826	0	0	0	0	0	0
13.75763	-0.07478134	-0.1207826	0	0	0	0	0	0
13.77419	-0.07478134	-0.1207826	0	0	0	0	0	0
13.79076	-0.07478134	-0.1207826	0	0	0	0	0	0
13.87359	-0.07470284	-0.1208808	0.0009477792	-0.001185241	0.009535136	-0.01192412	0	0
13.90673	-0.07470284	-0.1209201	0	-0.001185197	-0.008172783	3.774512E-07	0	0
13.92333	-0.07467666	-0.1209397	0.001576411	-0.00118242	0.03169373	5.583567E-05	0	0
13.93986	-0.07467666	-0.1209397	0	0	-0.04757754	0.03568654	0	0
13.95643	-0.07467666	-0.1209397	0	0	0	0	0	0
13.97299	-0.07467666	-0.1209397	0	0	0	0	0	0
13.98956	-0.07467666	-0.1209397	0	0	0	0	0	0
14.00612	-0.07467666	-0.1209397	0	0	0	0	0	0
14.02269	-0.07467666	-0.1209397	0	0	0	0	0	0
14.0394	-0.07467666	-0.1209397	0	0	0	0	0	0
14.05583	-0.07467666	-0.1209397	0	0	0	0	0	0
14.07239	-0.07467666	-0.1209397	0	0	0	0	0	0
14.08944	-0.0746505	-0.1209593	0.001534879	-0.001152033	0.04566298	-0.03427324	0	0
14.10552	-0.0746505	-0.1209593	0	0	-0.04632408	0.03476944	0	0
14.12246	-0.07462433	-0.120979	0.001545165	-0.001159314	0.0467948	-0.03510943	0	0
14.13866	-0.07459816	-0.1210379	0.001615856	-0.003636941	0.002133571	-0.07477923	0	0
14.15522	-0.07449348	-0.1211164	0.006318173	-0.004741103	0.1435106	-0.03369808	0	0
14.17179	-0.07446731	-0.1211361	0.0015795	-0.001185075	-0.1430134	0.1073212	0	0
14.18836	-0.07446731	-0.1211361	0	0	-0.04767079	0.03576666	0	0
14.20492	-0.07446731	-0.1211361	0	0	0	0	0	0
14.22153	-0.07446731	-0.1211361	0	0	0	0	0	0
14.25462	-0.07446731	-0.1211361	0	0	0	0	0	0
14.27119	-0.07446731	-0.1211361	0	0	0	0	0	0
14.28776	-0.07444113	-0.1211557	0.001579859	-0.001185457	0.04767887	-0.03577612	0	0
14.30433	-0.07444113	-0.1211557	0	0	-0.04768299	0.03577921	0	0
14.32089	-0.07444113	-0.1211557	0	0	0	0	0	0
14.33761	-0.07444113	-0.1211557	0	0	0	0	0	0
14.35412	-0.07444113	-0.1211557	0	0	0	0	0	0
14.37059	-0.07444113	-0.1211557	0	0	0	0	0	0
14.38716	-0.07444113	-0.1211557	0	0	0	0	0	0
14.40372	-0.07441497	-0.1211753	0.001579409	-0.001185457	0.04767079	-0.03578024	0	0
14.42029	-0.07441497	-0.1211753	0	0	-0.04766804	0.03577818	0	0
14.43718	-0.07438879	-0.121195	0.001549707	-0.001162391	0.04632096	-0.03474402	0	0
14.45342	-0.07438879	-0.121195	0	0	-0.0467716	0.03508203	0	0
14.47021	-0.07438879	-0.121195	0	0	0	0	0	0
14.48656	-0.07438879	-0.121195	0	0	0	0	0	0
14.50323	-0.07438879	-0.121195	0	0	0	0	0	0
14.51969	-0.07438879	-0.121195	0	0	0	0	0	0
14.53626	-0.07438879	-0.121195	0	0	0	0	0	0
14.55282	-0.07438879	-0.121195	0	0	0	0	0	0
14.56978	-0.07438879	-0.121195	0	0	0	0	0	0
14.58629	-0.07438879	-0.121195	0	0	0	0	0	0
14.60253	-0.07438879	-0.121195	0	0	0	0	0	0
14.61909	-0.07438879	-0.121195	0	0	0	0	0	0
14.63582	-0.07438879	-0.121195	0	0	0	0	0	0
14.65222	-0.07438879	-0.121195	0	0	0	0	0	0
14.73506	-0.07438879	-0.121195	0	0	0	0	0	0
14.7519	-0.07438879	-0.121195	0	0	0	0	0	0
14.76843	-0.07438879	-0.121195	0	0	0	0	0	0
14.78493	-0.07438879	-0.121195	0	0	0	0	0	0
14.80144	-0.07438879	-0.121195	0	0	0	0	0	0
14.81789	-0.07438879	-0.121195	0	0	0	0	0	0
14.83446	-0.07438879	-0.121195	0	0	0	0	0	0
14.85102	-0.07438879	-0.121195	0	0	0	0	0	0
14.86759	-0.07438879	-0.121195	0	0	0	0	0	0
14.88416	-0.07438879	-0.121195	0	0	0	0	0	0
14.90101	-0.07438879	-0.121195	0	0	0	0	0	0
14.91729	-0.07438879	-0.121195	0	0	0	0	0	0
14.93386	-0.07438879	-0.121195	0	0	0	0	0	0
14.95054	-0.07438879	-0.121195	0	0	0	0	0	0
14.96699	-0.07438879	-0.121195	0	0	0	0	0	0
14.98356	-0.07438879	-0.121195	0	0	0	0	0	0
15.00012	-0.07438879	-0.121195	0	0	0	0	0	0
15.0336	-0.07438879	-0.121195	0	0	0	0	0	0
15.04982	-0.07438879	-0.121195	0	0	0	0	0	0
15.06639	-0.07438879	-0.121195	0	0	0	0	0	0
15.08296	-0.07438879	-0.121195	0	0	0	0	0	0
15.09952	-0.07438879	-0.121195	0	0	0	0	0	0
15.11609	-0.07438879	-0.121195	0	0	0	0	0	0
15.13268	-0.07438879	-0.121195	0	0	0	0	0	0
15.14922	-0.07438879	-0.121195	0	0	0	0	0	0
15.16579	-0.07438879	-0.121195	0	0	0	0	0	0
15.18236	-0.07438879	-0.121195	0	0	0	0	0	0
15.19922	-0.07438879	-0.121195	0	0	0	0	0	0
15.21549	-0.07438879	-0.121195	0	0	0	0	0	0
15.23206	-0.07438879	-0.121195	0	0	0	0	0	0
15.24862	-0.07438879	-0.121195	0	0	0	0	0	0
15.26519	-0.07438879	-0.121195	0	0	0	0	0	0
15.28179	-0.07438879	-0.121195	0	0	0	0	0	0
15.29833	-0.07438879	-0.121195	0	0	0	0	0	0
15.31489	-0.07438879	-0.121195	0	0	0	0	0	0
15.33146	-0.07438879	-0.121195	0	0	0	0	0	0
15.36484	-0.07438879	-0.121195	0	0	0	0	0	0
15.38116	-0.07438879	-0.121195	0	0	0	0	0	0
15.39786	-0.07438879	-0.121195	0	0	0	0	0	0
15.41437	-0.07438879	-0.121195	0	0	0	0	0	0
15.43089	-0.07438879	-0.121195	0	0	0	0	0	0
15.44743	-0.07438879	-0.121195	0	0	0	0	0	0
15.46399	-0.07438879	-0.121195	0	0	0	0	0	0
15.48056	-0.07438879	-0.121195	0	0	0	0	0	0
15.49713	-0.07438879	-0.121195	0	0	0	0	0	0
15.51369	-0.07438879	-0.121195	0	0	0	0	0	0
15.53026	-0.07438879	-0.121195	0	0	0	0	0	0
15.54682	-0.07438879	-0.121195	0	0	0	0	0	0
15.57999	-0.07438879	-0.121195	0	0	0	0	0	0
15.59653	-0.07438879	-0.121195	0	0	0	0	0	0
15.61309	-0.07438879	-0.121195	0	0	0	0	0	0
15.62966	-0.07438879	-0.121195	0	0	0	0	0	0
15.64622	-0.07438879	-0.121195	0	0	0	0	0	0
15.66279	-0.07438879	-0.121195	0	0	0	0	0	0
15.67956	-0.07438879	-0.121195	0	0	0	0	0	0
15.69607	-0.07438879	-0.121195	0	0	0	0	0	0
15.71258	-0.07438879	-0.121195	0	0	0	0	0	0
15.72909	-0.07438879	-0.121195	0	0	0	0	0	0
15.76219	-0.07438879	-0.121195	0	0	0	0	0	0
15.77876	-0.07438879	-0.121195	0	0	0	0	0	0
15.81216	-0.07438879	-0.121195	0	0	0	0	0	0
15.82867	-0.07438879	-0.121195	0	0	0	0	0	0
15.84518	-0.07438879	-0.121195	0	0	0	0	0	0
15.86159	-0.07438879	-0.121195	0	0	0	0	0	0
15.8782	-0.07438879	-0.121195	0	0	0	0	0	0
15.89472	-0.07438879	-0.121195	0	0	0	0	0	0
15.91129	-0.07438879	-0.121195	0	0	0	0	0	0
15.98311	-0.07438879	-0.121195	0	0	0	0	0	0
15.99968	-0.07438879	-0.121195	0	0	0	0	0	0
16.0163	-0.07438879	-0.121195	0	0	0	0	0	0
16.03281	-0.07438879	-0.121195	0	0	0	0	0	0
16.04938	-0.07438879	-0.121195	0	0	0	0	0	0
16.06595	-0.07438879	-0.121195	0	0	0	0	0	0
16.08251	-0.07438879	-0.121195	0	0	0	0	0	0
16.09908	-0.07438879	-0.121195	0	0	0	0	0	0
16.1654	-0.07438879	-0.121195	0	0	0	0	0	0
16.18191	-0.07438879	-0.121195	0	0	0	0	0	0
16.19848	-0.07438879	-0.121195	0	0	0	0	0	0
16.21505	-0.07438879	-0.121195	0	0	0	0	0	0
16.23161	-0.07438879	-0.121195	0	0	0	0	0	0
16.24818	-0.07438879	-0.121195	0	0	0	0	0	0
16.26475	-0.07438879	-0.121195	0	0	0	0	0	0
16.28131	-0.07438879	-0.121195	0	0	0	0	0	0
16.29788	-0.07444113	-0.1211557	-0.003159269	0.002370463	-0.09534142	0.0715366	0	0
16.31451	-0.07446731	-0.1211361	-0.00157406	0.001181105	0.04775372	-0.0358289	0	0
16.33102	-0.07446731	-0.1211361	0	0	0.0475025	-0.03564377	0	0
16.34758	-0.07449348	-0.1211164	-0.001579955	0.001185416	-0.04777665	0.03584609	0	0
16.38071	-0.07454582	-0.1210772	-0.001579725	0.001185525	4.626715E-06	2.183341E-06	0	0
16.41408	-0.07454582	-0.1210772	0	0	0.02375401	-0.0178265	0	0
16.43041	-0.07454582	-0.1210772	0	0	0	0	0	0
16.4471	-0.07454582	-0.1210772	0	0	0	0	0	0
16.46362	-0.07454582	-0.1210772	0	0	0	0	0	0
16.48013	-0.07454582	-0.1211164	0	-0.00237913	0	-0.07204698	0	0
16.49668	-0.07454582	-0.1211164	0	0	0	0.0719514	0	0
16.51325	-0.07457199	-0.1211361	-0.001579859	-0.001185007	-0.04769671	-0.03577593	0	0
16.52982	-0.07457199	-0.1211753	0	-0.002370913	0.04768024	-0.03579072	0	0
16.54638	-0.07457199	-0.1211753	0	0	0	0.07155842	0	0
16.56295	-0.07454582	-0.1212735	0.001579677	-0.00592615	0.04767475	-0.1788516	0	0
16.5797	-0.07454582	-0.1213128	0	-0.002345085	-0.04741546	0.107489	0	0
16.59621	-0.07457199	-0.121411	-0.001585151	-0.005947138	-0.04766163	-0.1083049	0	0
16.61273	-0.07451965	-0.1215681	0.003168022	-0.009509929	0.1438901	-0.1078543	0	0
16.64581	-0.07417943	-0.1223735	0.01028431	-0.0243465	0.1434663	-0.2991092	0	0
16.66238	-0.07410092	-0.1225504	0.004739128	-0.01067361	-0.1116893	0.275395	0	0
16.67895	-0.07412709	-0.12257	-0.001579409	-0.001185906	-0.1906938	0.2863393	0	0
16.69578	-0.07417943	-0.12257	-0.003109598	0	-0.04581199	0.03550459	0	0
16.71229	-0.07417943	-0.12257	0	0	0.09325735	0	0	0
16.72865	-0.07423177	-0.1226093	-0.003200164	-0.002402515	-0.09737146	-0.07310136	0	0
16.74531	-0.07428411	-0.1226486	-0.003140108	-0.002357875	0.001818561	0.001351741	0	0
16.76182	-0.07433645	-0.1227272	-0.003170218	-0.004760516	-0.0009075098	-0.07241599	0	0
16.77834	-0.07441497	-0.1228255	-0.004752807	-0.005947548	-0.04791434	-0.03593848	0	0
16.79491	-0.07449348	-0.1230809	-0.004738678	-0.01542038	0.0004270455	-0.2863026	0	0
16.81148	-0.07449348	-0.1232382	0	-0.009489305	0.1430053	0.1789898	0	0
16.89431	-0.06925748	-0.1431296	0.06321348	-0.2401462	0.6359533	-2.320502	0	0
16.91088	-0.06996457	-0.1547097	-0.04268003	-0.6989768	-1.065352	-4.616111	0	0
16.92745	-0.07090724	-0.1708947	-0.05689356	-0.9768161	-0.4289404	-8.384725	0	0
16.94401	-0.0715618	-0.1787085	-0.03951817	-0.4717512	0.5244205	15.24377	0	0
16.96058	-0.07216395	-0.1899043	-0.03634157	-0.6757053	0.09587549	-6.1557	0	0
16.97714	-0.07224248	-0.2038836	-0.004741023	-0.8438876	0.9537064	-5.075754	0	0
16.99371	-0.07271368	-0.2137176	-0.02844151	-0.5935818	-0.7153233	7.55468	0	0
17.01028	-0.07300162	-0.2250574	-0.01738025	-0.6844698	0.3338296	-2.743006	0	0
17.02702	-0.07208541	-0.2322875	0.05473557	-0.4319353	2.165242	7.582226	0	0
17.04353	-0.07166652	-0.2380323	0.02537167	-0.347955	-0.883154	2.525806	0	0
17.06004	-0.07101198	-0.2447276	0.03964555	-0.4055334	0.4322795	-1.743742	0	0
17.07655	-0.07279221	-0.2472624	-0.1078151	-0.153512	-4.465538	7.631941	0	0
17.09311	-0.07423177	-0.2534468	-0.08691227	-0.3733752	0.631977	-6.647348	0	0
17.10968	-0.07572336	-0.2559302	-0.09003218	-0.1499	-0.09417009	6.745273	0	0
17.12626	-0.07525236	-0.2568492	0.02841628	-0.05544627	3.573959	2.849962	0	0
17.14282	-0.07525236	-0.2568492	0	0	-0.8575064	1.673179	0	0
17.15961	-0.0752262	-0.2568283	0.001558241	0.001244108	0.04671586	0.0372982	0	0
17.22565	-0.0752262	-0.2568283	0	0	-0.01881285	-0.01502028	0	0
17.24221	-0.0752262	-0.2568283	0	0	0	0	0	0
17.25878	-0.0752262	-0.2568283	0	0	0	0	0	0
17.27535	-0.0752262	-0.2568283	0	0	0	0	0	0
17.29192	-0.0752262	-0.2568283	0	0	0	0	0	0
17.30848	-0.0752262	-0.2568283	0	0	0	0	0	0
17.32505	-0.0752262	-0.2568283	0	0	0	0	0	0
17.34174	-0.0752262	-0.2568283	0	0	0	0	0	0
17.35818	-0.0752262	-0.2568283	0	0	0	0	0	0
17.37476	-0.0752262	-0.2568283	0	0	0	0	0	0
17.39131	-0.0752262	-0.2568283	0	0	0	0	0	0
17.40788	-0.0752262	-0.2568283	0	0	0	0	0	0
17.42445	-0.07520003	-0.2568492	0.001579409	-0.001261009	0.04766667	-0.03805733	0	0
17.44131	-0.07520003	-0.2568492	0	0	-0.04724513	0.03772077	0	0
17.45758	-0.0751477	-0.256891	0.003216211	-0.002567841	0.09706546	-0.07749759	0	0
17.47433	-0.07504302	-0.2569746	0.006249021	-0.004990677	0.0918423	-0.07337052	0	0
17.49084	-0.074729	-0.2572253	0.01901995	-0.01518636	0.3839687	-0.3065417	0	0
17.50728	-0.07454582	-0.2574134	0.01114446	-0.01144226	-0.2390313	0.1136383	0	0
17.541	-0.07444113	-0.257497	0.003104232	-0.002478966	-0.1602934	0.1786959	0	0
17.55757	-0.07436263	-0.2575597	0.004739224	-0.003783463	0.03251305	-0.0259409	0	0
17.5744	-0.07431029	-0.2576015	0.003108803	-0.002483502	-0.0488128	0.03891924	0	0
17.62383	-0.07399623	-0.2578523	0.006353459	-0.005074086	0.04896337	-0.03909311	0	0
17.6404	-0.07399623	-0.2578523	0	0	-0.09626734	0.07688233	0	0
17.65697	-0.07397006	-0.2578732	0.001579859	-0.001261009	0.04768024	-0.03805733	0	0
17.67353	-0.07397006	-0.2578732	0	0	-0.04768299	0.03805952	0	0
17.69049	-0.07397006	-0.2578732	0	0	0	0	0	0
17.70667	-0.07397006	-0.2578732	0	0	0	0	0	0
17.72323	-0.07399623	-0.2578941	-0.001579859	-0.001262808	-0.0482468	-0.03856448	0	0
17.7398	-0.07399623	-0.2578941	0	0	0.04768024	0.03811162	0	0
17.75637	-0.07397006	-0.257915	0.001579859	-0.001261009	0.04768024	-0.03805733	0	0
17.77294	-0.07397006	-0.257915	0	0	-0.04768024	0.03805733	0	0
17.78956	-0.07394388	-0.2579359	0.001574783	-0.00125875	0.04745055	-0.03792803	0	0
17.80607	-0.07394388	-0.2579777	0	-0.002530174	-0.04752703	-0.03837165	0	0
17.82308	-0.07386537	-0.2580822	0.00461584	-0.006146277	0.1376894	-0.1078675	0	0
17.83959	-0.07381302	-0.2581659	0.003170669	-0.005065128	-0.04311402	0.0322541	0	0
17.85577	-0.07360364	-0.2584586	0.01294239	-0.01809162	0.2989378	-0.3985082	0	0
17.87233	-0.06993838	-0.2619326	0.2212611	-0.2097204	6.362147	-5.852431	0	0
17.8889	-0.06475146	-0.2675126	0.3130828	-0.33681	2.771346	-3.835791	0	0
17.90564	-0.06312654	-0.2772855	0.09709662	-0.583975	-6.485623	-7.42186	0	0
17.92203	-0.06315275	-0.2908708	-0.001598486	-0.8284957	-2.978796	-7.380075	0	0
17.9386	-0.06462043	-0.2999123	-0.08858903	-0.5457507	-2.6389	8.577206	0	0
17.95517	-0.0670572	-0.3106976	-0.1470669	-0.6509224	-1.764765	-3.173905	0	0
17.97174	-0.0700955	-0.314573	-0.1834134	-0.2339468	-1.096938	12.58435	0	0
17.98835	-0.07839166	-0.321765	-0.4994344	-0.4329645	-9.525471	-5.998768	0	0
18.00487	-0.08058824	-0.3235839	-0.1329537	-0.1100929	11.06105	9.744843	0	0
18.02143	-0.08445651	-0.3267932	-0.2335159	-0.1937374	-3.039349	-2.528033	0	0
18.12083	-0.08659866	-0.3285739	-0.02155052	-0.01791411	1.827811	1.516152	0	0
18.17054	-0.08657254	-0.3285087	0.0005255704	0.001311378	0.1480592	0.1289408	0	0
18.1871	-0.08657254	-0.3285087	0	0	-0.007930872	-0.01978873	0	0
18.20367	-0.08654642	-0.328487	0.001576893	0.001311528	0.04759346	0.03958429	0	0
18.22024	-0.08654642	-0.328487	0	0	-0.04759346	-0.03958429	0	0
18.2368	-0.08654642	-0.328487	0	0	0	0	0	0
18.26994	-0.08652031	-0.3284653	0.0007880853	0.000655651	0.0158557	0.01319122	0	0
18.28651	-0.08652031	-0.3284653	0	0	-0.0158557	-0.01319122	0	0
18.30307	-0.08652031	-0.3284653	0	0	0	0	0	0
18.31964	-0.08652031	-0.3284653	0	0	0	0	0	0
18.33644	-0.08652031	-0.3284653	0	0	0	0	0	0
18.35277	-0.08652031	-0.3284653	0	0	0	0	0	0
18.36947	-0.08652031	-0.3284653	0	0	0	0	0	0
18.3859	-0.08652031	-0.3284653	0	0	0	0	0	0
18.40249	-0.08652031	-0.3284653	0	0	0	0	0	0
18.4356	-0.08652031	-0.3284653	0	0	0	0	0	0
18.45217	-0.08652031	-0.3284653	0	0	0	0	0	0
18.46874	-0.08652031	-0.3284653	0	0	0	0	0	0
18.50187	-0.08652031	-0.3284653	0	0	0	0	0	0
18.51844	-0.08652031	-0.3284653	0	0	0	0	0	0
18.535	-0.08652031	-0.3284653	0	0	0	0	0	0
18.5516	-0.08652031	-0.3284653	0	0	0	0	0	0
18.56814	-0.08652031	-0.3284653	0	0	0	0	0	0
18.5847	-0.08652031	-0.3284653	0	0	0	0	0	0
18.60127	-0.08652031	-0.3284653	0	0	0	0	0	0
18.61784	-0.08652031	-0.3284653	0	0	0	0	0	0
18.63466	-0.08652031	-0.3284653	0	0	0	0	0	0
18.65117	-0.08654642	-0.3284435	-0.001581542	0.00131577	-0.04744969	0.03947597	0	0
18.66768	-0.08657254	-0.3284218	-0.00158181	0.001315619	-8.128621E-06	-4.600109E-06	0	0
18.68419	-0.08657254	-0.3284218	0	0	0.04789628	-0.03983615	0	0
18.7007	-0.08654642	-0.3284001	0.001582176	0.001315922	0.04791288	0.03984996	0	0
18.71724	-0.08657254	-0.3283783	-0.001579621	0.001313798	-0.09567655	-6.430074E-05	0	0
18.73381	-0.08657254	-0.3283783	0	0	0.047717	-0.03968704	0	0
18.75038	-0.08657254	-0.3283783	0	0	0	0	0	0
18.76694	-0.08657254	-0.3283783	0	0	0	0	0	0
18.78377	-0.08657254	-0.3283783	0	0	0	0	0	0
18.80008	-0.08657254	-0.3283783	0	0	0	0	0	0
18.81664	-0.08657254	-0.3283783	0	0	0	0	0	0
18.8333	-0.08657254	-0.3283783	0	0	0	0	0	0
18.84981	-0.08657254	-0.3283783	0	0	0	0	0	0
18.86634	-0.08657254	-0.3283783	0	0	0	0	0	0
18.88291	-0.08657254	-0.3283783	0	0	0	0	0	0
18.96574	-0.08657254	-0.3283783	0	0	0	0	0	0
18.98241	-0.08654642	-0.3283567	0.001566969	0.001301487	0.01574803	0.01307994	0	0
18.99892	-0.08654642	-0.3282263	0	0.007895535	-0.04722599	0.1987342	0	0
19.01544	-0.08696432	-0.3275313	-0.02529704	0.04207078	-0.765891	1.034687	0	0
19.03201	-0.08769555	-0.3267498	-0.04413757	0.04717361	-0.5694277	0.1542258	0	0
19.04858	-0.08795668	-0.3260988	-0.01576171	0.03929456	0.8563849	-0.2377904	0	0
19.06514	-0.0878	-0.3258818	0.009457119	0.01309399	0.7611059	-0.7907347	0	0
19.08171	-0.0879828	-0.3255998	-0.01103211	0.01701896	-0.6183305	0.1184492	0	0
19.09854	-0.08853114	-0.324494	-0.03258396	0.06571072	-0.6453099	1.457938	0	0
19.11485	-0.0893927	-0.3226525	-0.05284359	0.1129467	-0.6114721	1.425668	0	0
19.13141	-0.09033244	-0.3177658	-0.05672945	0.2950004	-0.1182215	5.538707	0	0
19.16504	-0.09283762	-0.2885961	-0.07450014	0.8674605	-0.3540551	11.40543	0	0
19.18111	-0.09294198	-0.2748797	-0.006492032	0.8532644	1.368326	-0.2856261	0	0
19.19768	-0.09307242	-0.2652242	-0.007873212	0.5828111	-0.04231251	-8.285348	0	0
19.21424	-0.09307242	-0.2460569	0	1.157069	0.2376277	17.33215	0	0
19.23081	-0.09257672	-0.2324939	0.02992063	0.8186683	0.9030585	-10.21355	0	0
19.24738	-0.09208097	-0.2237829	0.02992333	0.5257931	8.145516E-05	-8.83899	0	0
19.28052	-0.08944491	-0.1896414	0.07955188	1.030333	0.9984899	10.15097	0	0
19.29708	-0.08879223	-0.1761545	0.03940073	0.8141695	-0.8078427	-4.349211	0	0
19.31365	-0.08774778	-0.157499	0.06304326	1.126046	0.7135741	9.412994	0	0
19.33022	-0.0870949	-0.1437637	0.03940788	0.8290631	-0.7133171	-8.962963	0	0
19.34678	-0.08659866	-0.1299492	0.02995256	0.8338445	-0.2853621	0.1443037	0	0
19.36336	-0.08542319	-0.111982	0.07091934	1.084002	1.236095	7.548026	0	0
19.37992	-0.08427361	-0.09474297	0.06942829	1.041152	-0.04500249	-1.29328	0	0
19.39671	-0.08328062	-0.0823708	0.05913417	0.7367767	-0.3086696	-9.126705	0	0
19.41322	-0.0810327	-0.06797515	0.1361547	0.8719345	2.312767	4.05851	0	0
19.42973	-0.07901933	-0.05854047	0.1219344	0.5713857	-0.4306311	-9.10149	0	0
19.44624	-0.0777116	-0.05244656	0.07919891	0.3690614	-1.29408	-6.126615	0	0
19.46276	-0.07588034	-0.04311953	0.1108927	0.5648012	0.9596705	5.926885	0	0
19.47932	-0.07281839	-0.03174868	0.1848835	0.6865834	2.237038	3.681964	0	0
19.49588	-0.06954556	-0.02402085	0.1975485	0.4664525	0.3822952	-6.644711	0	0
19.51245	-0.06574721	-0.01237965	0.2292689	0.7026644	0.957324	7.12889	0	0
19.52902	-0.06370316	-0.002531746	0.123393	0.594489	-3.195526	-3.264928	0	0
19.54558	-0.06231396	0.007343295	0.08385283	0.5960586	-1.193392	0.04737242	0	0
19.56215	-0.06087207	0.01599092	0.08704236	0.5220317	0.09626564	-2.234264	0	0
19.57872	-0.05895791	0.02495353	0.1155391	0.5409845	0.8600816	0.5720292	0	0
19.59528	-0.0577515	0.03122705	0.072819	0.3786705	-1.289294	-4.898647	0	0
19.61186	-0.05560053	0.03961225	0.1297731	0.5058984	1.718483	3.838861	0	0
19.62842	-0.05494464	0.04573085	0.03961215	0.3695323	-2.72122	-4.115772	0	0
19.64498	-0.05428871	0.04927848	0.03959227	0.214135	-0.0006002089	-4.691251	0	0
19.66155	-0.05363273	0.05349052	0.03959497	0.2542397	8.151137E-05	1.210363	0	0
19.67812	-0.05344905	0.05369452	0.01108712	0.01231305	-0.8603685	-7.301361	0	0
19.69492	-0.05339656	0.05358325	0.003123226	-0.006621559	-0.2386474	-0.5673977	0	0
19.71125	-0.05321287	0.05337925	0.01124815	-0.01249161	0.2452106	-0.1771583	0	0
19.72794	-0.05318663	0.05332362	0.001572142	-0.003333324	-0.2930176	0.2773394	0	0
19.74446	-0.05318663	0.05332362	0	0	-0.04734649	0.1003861	0	0
19.76095	-0.05318663	0.05332362	0	0	0	0	0	0
19.79408	-0.05318663	0.05332362	0	0	0	0	0	0
19.811	-0.05318663	0.05332362	0	0	0	0	0	0
19.82751	-0.05318663	0.05332362	0	0	0	0	0	0
19.84403	-0.05318663	0.05332362	0	0	0	0	0	0
19.86054	-0.05318663	0.05332362	0	0	0	0	0	0
19.87705	-0.05318663	0.05332362	0	0	0	0	0	0
19.89356	-0.05318663	0.05332362	0	0	0	0	0	0
19.91005	-0.05318663	0.05332362	0	0	0	0	0	0
19.92662	-0.05318663	0.05332362	0	0	0	0	0	0
19.94615	-0.05318663	0.05332362	0	0	0	0	0	0
19.96272	-0.05318663	0.05332362	0	0	0	0	0	0
19.97929	-0.05318663	0.05332362	0	0	0	0	0	0
19.99585	-0.05318663	0.05332362	0	0	0	0	0	0
20.01242	-0.05318663	0.05332362	0	0	0	0	0	0
20.02916	-0.05318663	0.05332362	0	0	0	0	0	0
20.04555	-0.05318663	0.05332362	0	0	0	0	0	0
20.06218	-0.05318663	0.05332362	0	0	0	0	0	0
20.07869	-0.05318663	0.05332362	0	0	0	0	0	0
20.09525	-0.05318663	0.05332362	0	0	0	0	0	0
20.11182	-0.05318663	0.05332362	0	0	0	0	0	0
20.12838	-0.05318663	0.05332362	0	0	0	0	0	0
20.14495	-0.05318663	0.05332362	0	0	0	0	0	0
20.16175	-0.05318663	0.05332362	0	0	0	0	0	0
20.17826	-0.05318663	0.05332362	0	0	0	0	0	0
20.21128	-0.05318663	0.05332362	0	0	0	0	0	0
20.22779	-0.05318663	0.05332362	0	0	0	0	0	0
20.24435	-0.05318663	0.05332362	0	0	0	0	0	0
20.26092	-0.05316039	0.05330507	0.001583907	-0.001119573	0.04780515	-0.03379072	0	0
20.27784	-0.05316039	0.05330507	0	0	-0.04730139	0.03343464	0	0
20.29405	-0.05316039	0.05330507	0	0	0	0	0	0
20.31062	-0.05316039	0.05330507	0	0	0	0	0	0
20.32718	-0.05316039	0.05330507	0	0	0	0	0	0
20.34387	-0.05316039	0.05330507	0	0	0	0	0	0
20.36038	-0.05316039	0.05330507	0	0	0	0	0	0
20.3769	-0.05316039	0.05330507	0	0	0	0	0	0
20.39345	-0.05316039	0.05330507	0	0	0	0	0	0
20.41002	-0.05313415	0.05328652	0.001583907	-0.001119348	0.04782442	-0.03379755	0	0
20.42694	-0.05316039	0.05326797	-0.00155105	-0.001096348	-0.09362156	0.0006868576	0	0
20.44344	-0.05316039	0.05326797	0	0	0.0464021	0.03279899	0	0
20.45996	-0.05316039	0.05326797	0	0	0	0	0	0
20.47647	-0.05316039	0.05326797	0	0	0	0	0	0
20.50942	-0.05316039	0.05326797	0	0	0	0	0	0
20.52599	-0.05313415	0.05321234	0.001583724	-0.003357882	0.03198119	-0.06780793	0	0
20.54255	-0.05313415	0.05321234	0	0	-0.04779689	0.1013411	0	0
20.55953	-0.05313415	0.05321234	0	0	0	0	0	0
20.57604	-0.05313415	0.05321234	0	0	0	0	0	0
20.59225	-0.05313415	0.05321234	0	0	0	0	0	0
20.60882	-0.05310791	0.05319379	0.001583907	-0.001119573	0.04831694	-0.03415247	0	0
20.62558	-0.05310791	0.05319379	0	0	-0.0475288	0.03359539	0	0
20.64209	-0.05310791	0.05319379	0	0	0	0	0	0
20.67509	-0.05308167	0.05317524	0.0007952493	-0.0005620032	0.01606333	-0.01135196	0	0
20.69167	-0.05308167	0.05317524	0	0	-0.01603861	0.0113345	0	0
20.70822	-0.05308167	0.05317524	0	0	0	0	0	0
20.72479	-0.05308167	0.05317524	0	0	0	0	0	0
20.74136	-0.05308167	0.05317524	0	0	0	0	0	0
20.75817	-0.05308167	0.05317524	0	0	0	0	0	0
20.77468	-0.05308167	0.05317524	0	0	0	0	0	0
20.79119	-0.05308167	0.05317524	0	0	0	0	0	0
20.80772	-0.05308167	0.05317524	0	0	0	0	0	0
20.84076	-0.05308167	0.05317524	0	0	0	0	0	0
20.85732	-0.05308167	0.05317524	0	0	0	0	0	0
20.87389	-0.05308167	0.05317524	0	0	0	0	0	0
20.89045	-0.05308167	0.05317524	0	0	0	0	0	0
20.90702	-0.05308167	0.05317524	0	0	0	0	0	0
20.92379	-0.05308167	0.05317524	0	0	0	0	0	0
20.94016	-0.05305542	0.0531567	0.001604076	-0.001133669	0.04841112	-0.03421419	0	0
20.95681	-0.05300294	0.0531196	0.003150764	-0.002226871	0.04684363	-0.03310918	0	0
20.97332	-0.0529767	0.05310106	0.001589396	-0.001123453	-0.04707612	0.03326867	0	0
20.98985	-0.0529767	0.05310106	0	0	-0.04810097	0.03399982	0	0
21.02299	-0.05295046	0.05308251	0.0007921113	-0.0005598186	0.01594894	-0.01127179	0	0
21.03956	-0.05295046	0.05308251	0	0	-0.01593731	0.01126357	0	0
21.05612	-0.05295046	0.05308251	0	0	0	0	0	0
21.07289	-0.05295046	0.05304541	0	-0.002211927	0	-0.06635124	0	0
21.08941	-0.05289797	0.05300832	0.003178425	-0.002246646	0.09550175	-0.001043198	0	0
21.10592	-0.05289797	0.05297123	0	-0.002246421	-0.09624639	6.83182E-06	0	0
21.12243	-0.05289797	0.05297123	0	0	0	0.06802423	0	0
21.13896	-0.05287173	0.05295268	0.001587971	-0.001122286	0.04806339	-0.03396843	0	0
21.15552	-0.05284549	0.05293413	0.001584089	-0.001119702	-0.0001173001	7.810038E-05	0	0
21.17209	-0.05287173	0.05291558	-0.001583907	-0.001119573	-0.0956158	3.889581E-06	0	0
21.18866	-0.05287173	0.05291558	0	0	0.0478024	0.03378877	0	0
21.20522	-0.05287173	0.05291558	0	0	0	0	0	0
21.222	-0.05284549	0.05289703	0.001564277	-0.001105697	0.04691559	-0.03316194	0	0
21.23851	-0.05284549	0.05289703	0	0	-0.04699086	0.03321514	0	0
21.25502	-0.05287173	0.05287848	-0.001589212	-0.001123323	-0.04812042	-0.03401357	0	0
21.27149	-0.05287173	0.05284139	0	-0.002253153	0.04819278	-0.03426203	0	0
21.28806	-0.05284549	0.05282284	0.001583724	-0.001119444	0.04794316	0.03432012	0	0
21.30506	-0.05284549	0.05282284	0	0	-0.04717771	0.03334722	0	0
21.32119	-0.05284549	0.05282284	0	0	0	0	0	0
21.33776	-0.05284549	0.05282284	0	0	0	0	0	0
21.3546	-0.05284549	0.05282284	0	0	0	0	0	0
21.41326	-0.05287173	0.05284139	-0.0004472922	0.0003161652	-0.005924062	0.00418738	0	0
21.42983	-0.05287173	0.05284139	0	0	0.005945389	-0.004202455	0	0
21.4464	-0.05287173	0.05284139	0	0	0	0	0	0
21.46317	-0.05287173	0.05284139	0	0	0	0	0	0
21.47968	-0.05287173	0.05284139	0	0	0	0	0	0
21.51266	-0.05287173	0.05284139	0	0	0	0	0	0
21.52923	-0.05287173	0.05284139	0	0	0	0	0	0
21.5458	-0.05287173	0.05284139	0	0	0	0	0	0
21.56236	-0.05287173	0.05284139	0	0	0	0	0	0
21.57893	-0.05287173	0.05284139	0	0	0	0	0	0
21.5955	-0.05287173	0.05284139	0	0	0	0	0	0
21.61227	-0.05289797	0.05285994	-0.001564321	0.001105572	-0.04691423	0.03315628	0	0
21.62863	-0.05289797	0.05285994	0	0	0.04721401	-0.03336814	0	0
21.6452	-0.05289797	0.05285994	0	0	0	0	0	0
21.66177	-0.05289797	0.05285994	0	0	0	0	0	0
21.67833	-0.05289797	0.05285994	0	0	0	0	0	0
21.69961	-0.05289797	0.05285994	0	0	0	0	0	0
21.71635	-0.05289797	0.05285994	0	0	0	0	0	0
21.73275	-0.05289797	0.05285994	0	0	0	0	0	0
21.74932	-0.05289797	0.05285994	0	0	0	0	0	0
21.76589	-0.05289797	0.05285994	0	0	0	0	0	0
21.78245	-0.05289797	0.05285994	0	0	0	0	0	0
21.79902	-0.05289797	0.05285994	0	0	0	0	0	0
21.81558	-0.05289797	0.05285994	0	0	0	0	0	0
21.83215	-0.05289797	0.05285994	0	0	0	0	0	0
21.84871	-0.05289797	0.05285994	0	0	0	0	0	0
21.86547	-0.05289797	0.05285994	0	0	0	0	0	0
21.88185	-0.05289797	0.05285994	0	0	0	0	0	0
21.89848	-0.05289797	0.05285994	0	0	0	0	0	0
21.91499	-0.05289797	0.05285994	0	0	0	0	0	0
21.93155	-0.05289797	0.05285994	0	0	0	0	0	0
21.94811	-0.05289797	0.05285994	0	0	0	0	0	0
21.96468	-0.05289797	0.05285994	0	0	0	0	0	0
21.98125	-0.05289797	0.05285994	0	0	0	0	0	0
21.99805	-0.05289797	0.05285994	0	0	0	0	0	0
22.01438	-0.05289797	0.05285994	0	0	0	0	0	0
22.03095	-0.05289797	0.05285994	0	0	0	0	0	0
22.04758	-0.05289797	0.05285994	0	0	0	0	0	0
22.06408	-0.05289797	0.05285994	0	0	0	0	0	0
22.08065	-0.05289797	0.05285994	0	0	0	0	0	0
22.09721	-0.05289797	0.05285994	0	0	0	0	0	0
22.11413	-0.05289797	0.05285994	0	0	0	0	0	0
22.13034	-0.05289797	0.05285994	0	0	0	0	0	0
22.14715	-0.05289797	0.05285994	0	0	0	0	0	0
22.16348	-0.05289797	0.05285994	0	0	0	0	0	0
22.19661	-0.05289797	0.05285994	0	0	0	0	0	0
22.2132	-0.05289797	0.05285994	0	0	0	0	0	0
22.22974	-0.05289797	0.05285994	0	0	0	0	0	0
22.24631	-0.05289797	0.05285994	0	0	0	0	0	0
22.26324	-0.05289797	0.05285994	0	0	0	0	0	0
22.27945	-0.05289797	0.05285994	0	0	0	0	0	0
22.29601	-0.05289797	0.05285994	0	0	0	0	0	0
22.31258	-0.05289797	0.05285994	0	0	0	0	0	0
22.32915	-0.05289797	0.05285994	0	0	0	0	0	0
22.34579	-0.05289797	0.05285994	0	0	0	0	0	0
22.36231	-0.05289797	0.05285994	0	0	0	0	0	0
22.37932	-0.05289797	0.05285994	0	0	0	0	0	0
22.39541	-0.05289797	0.05285994	0	0	0	0	0	0
22.41198	-0.05289797	0.05285994	0	0	0	0	0	0
22.42855	-0.05289797	0.05285994	0	0	0	0	0	0
22.44512	-0.05289797	0.05285994	0	0	0	0	0	0
22.46188	-0.05289797	0.05285994	0	0	0	0	0	0
22.47839	-0.05289797	0.05285994	0	0	0	0	0	0
22.57796	-0.05295046	0.05274865	-0.0005270991	-0.001117728	-0.004540777	-0.009628846	0	0
22.59422	-0.05305542	0.05267445	-0.006456265	-0.004563631	-0.05119044	-0.02975077	0	0
22.61098	-0.05318663	0.0525446	-0.007826054	-0.00774473	-0.04147881	-0.09632735	0	0
22.6275	-0.05365897	0.05217359	-0.0286056	-0.0224694	-0.624432	-0.442481	0	0
22.64401	-0.05418376	0.05176544	-0.03178612	-0.02472161	-0.09631536	-0.06820347	0	0
22.66048	-0.05418376	0.05176544	0	0	0.9635779	0.7494214	0	0
22.69362	-0.05415751	0.05174688	0.0007919533	-0.0005600112	0.01596292	-0.01128781	0	0
22.71018	-0.05415751	0.05174688	0	0	-0.01593474	0.01126788	0	0
22.72675	-0.05415751	0.05174688	0	0	0	0	0	0
22.74358	-0.05415751	0.05174688	0	0	0	0	0	0
22.75989	-0.05415751	0.05174688	0	0	0	0	0	0
22.77645	-0.05413128	0.05172833	0.001583682	-0.001119798	0.04817553	-0.0340642	0	0
22.79302	-0.05410504	0.05170977	0.001583682	-0.001120022	0	-6.784417E-06	0	0
22.80963	-0.05405256	0.05167267	0.003159223	-0.002233905	0.04748706	-0.03357259	0	0
22.82615	-0.05402632	0.05165412	0.001588295	-0.0011229	-0.04741342	0.03353212	0	0
22.84272	-0.05384265	0.05148713	0.01108539	-0.01007837	0.287003	-0.2706349	0	0
22.85929	-0.05355401	0.05128302	0.0174243	-0.01232144	0.1913087	-0.06769609	0	0
22.87585	-0.0532916	0.05106034	0.01583884	-0.01344072	-0.04785213	-0.03378183	0	0
22.89269	-0.05321287	0.05096756	0.004676568	-0.005511725	-0.3341849	0.2373845	0	0
22.9092	-0.05316039	0.05085621	0.003178792	-0.006744103	-0.04491855	-0.0369592	0	0
22.92555	-0.05316039	0.05074486	0	-0.006808036	-0.09672117	-0.00194529	0	0
22.94222	-0.05318663	0.05072631	-0.001574301	-0.00111323	-0.04767165	0.1724453	0	0
22.95873	-0.05305542	0.0504108	0.007946288	-0.01910778	0.2869355	-0.5423272	0	0
22.97526	-0.05292422	0.05016951	0.007941701	-0.01460447	-0.0001388524	0.136326	0	0
23.00839	-0.04517976	0.04435549	0.233755	-0.1754877	4.54791	-3.24021	0	0
23.02495	-0.04100332	0.0412126	0.2520905	-0.1897054	0.3689397	-0.2860836	0	0
23.04152	-0.03682545	0.03817879	0.2521769	-0.1831209	0.002605666	0.1987218	0	0
23.05809	-0.02623083	0.0303315	0.6394928	-0.4736635	11.68922	-8.768594	0	0
23.07482	-0.01955014	0.02491616	0.399339	-0.3237031	-7.212564	4.503776	0	0
23.09122	-0.01831374	0.02194358	0.07537552	-0.1812193	-9.777801	4.300417	0	0
23.10784	-0.02499479	0.00950255	-0.4020195	-0.7486151	-14.45691	-17.18239	0	0
23.12435	-0.02680936	0.006930064	-0.1098819	-0.1557777	8.817239	17.8929	0	0
23.14092	-0.03827078	-0.001985506	-0.6918123	-0.5381448	-17.59105	-11.55849	0	0
23.15752	-0.04725427	-0.008433147	-0.5411231	-0.3883756	4.543103	4.515366	0	0
23.17406	-0.0591677	-0.01704994	-0.7205896	-0.5211905	-5.416309	-4.008361	0	0
23.19092	-0.06784309	-0.02331927	-0.5143504	-0.3716995	6.174904	4.475834	0	0
23.20719	-0.07616815	-0.02939221	-0.5116917	-0.3732669	0.08023226	-0.04730221	0	0
23.22392	-0.08730383	-0.03760971	-0.6655614	-0.4911466	-4.662584	-3.572009	0	0
23.24044	-0.09768806	-0.04623164	-0.6288205	-0.5221036	1.105153	-0.9311756	0	0
23.25695	-0.1021433	-0.05516616	-0.2698494	-0.5411578	10.87006	-0.5769825	0	0
23.27346	-0.1048249	-0.06990054	-0.1624043	-0.892348	3.253751	-10.63506	0	0
23.29003	-0.1057618	-0.0776154	-0.05655158	-0.4656703	3.199982	12.89869	0	0
23.38942	-0.1047728	-0.1339136	0.009949723	-0.5664044	0.5734701	-0.8686745	0	0
23.40605	-0.1031588	-0.1350982	0.09706391	-0.07124269	0.7508289	4.267752	0	0
23.42255	-0.102612	-0.1349995	0.03313112	0.005983294	-1.929606	2.330819	0	0
23.43912	-0.1020652	-0.1345848	0.03300885	0.0250295	-0.003697296	0.5759097	0	0
23.45569	-0.1018568	-0.1344269	0.01257546	0.00953402	-0.6166808	-0.4676546	0	0
23.47226	-0.1018308	-0.1344071	0.001572214	0.001191752	-0.3320787	-0.2517701	0	0
23.48911	-0.1018308	-0.1344071	0	0	-0.04704331	-0.03565926	0	0
23.50562	-0.1018047	-0.1343874	0.001577029	0.001195745	0.04726563	0.03583803	0	0
23.52196	-0.1017787	-0.1343676	0.001594611	0.00120873	0.0005352706	0.0003953268	0	0
23.53852	-0.1017787	-0.1343676	0	0	-0.04846583	-0.03673754	0	0
23.55509	-0.1017005	-0.1343084	0.004716735	0.00357477	0.1423595	0.107893	0	0
23.57167	-0.1015964	-0.13419	0.006284065	0.00714468	0.04728851	0.1077091	0	0
23.58868	-0.1015703	-0.1341702	0.001530703	0.001160619	-0.1415099	-0.1781484	0	0
23.60479	-0.1015703	-0.1341702	0	0	-0.04621534	-0.03504168	0	0
23.62136	-0.1015703	-0.1341702	0	0	0	0	0	0
23.63821	-0.1015703	-0.1341702	0	0	0	0	0	0
23.65449	-0.1015443	-0.13419	0.001600592	-0.001213263	0.04831152	-0.03662057	0	0
23.67105	-0.1015443	-0.13419	0	0	-0.04873801	0.03694386	0	0
23.68775	-0.1015443	-0.13419	0	0	0	0	0	0
23.70426	-0.1015443	-0.13419	0	0	0	0	0	0
23.72076	-0.1015182	-0.1341702	0.001579122	0.001196989	0.04783976	0.03626298	0	0
23.73732	-0.1014661	-0.1341307	0.00314434	0.00238378	0.04734465	0.03589799	0	0
23.75389	-0.1014401	-0.134111	0.001572214	0.001191752	-0.04744959	-0.03597752	0	0
23.77046	-0.101388	-0.134111	0.003144428	0	0.04744951	-0.03596716	0	0
23.78703	-0.101362	-0.1341307	0.001572214	-0.001191752	-0.04744951	-0.03596716	0	0
23.82016	-0.1007368	-0.134644	0.01886702	-0.01549188	0.3479721	-0.2877192	0	0
23.83686	-0.09857421	-0.1362835	0.1295055	-0.09817515	2.220171	-1.659197	0	0
23.85329	-0.09051515	-0.1423965	0.490455	-0.3720273	10.89473	-8.265826	0	0
23.86988	-0.0872516	-0.1448739	0.1967168	-0.1493267	-8.895245	6.744023	0	0
23.88643	-0.08330674	-0.1478303	0.2384411	-0.1786941	1.259242	-0.8863081	0	0
23.90299	-0.08082355	-0.1497171	0.1498688	-0.113878	-2.674812	1.957393	0	0
23.91956	-0.08092812	-0.1496377	-0.006312241	0.004796692	-4.713281	3.581402	0	0
23.93643	-0.08090198	-0.1495383	0.001550043	0.005890076	0.2351589	0.03270284	0	0
23.95269	-0.08077126	-0.149439	0.008037429	0.006108354	0.1958123	0.006588424	0	0
23.96926	-0.0805621	-0.1492403	0.01262493	0.01199128	0.13973	0.1791871	0	0
23.98583	-0.08050981	-0.1490814	0.00315612	0.009592484	-0.2857693	-0.07239579	0	0
24.00248	-0.08009146	-0.1487239	0.02512151	0.02146894	0.6612042	0.3575061	0	0
24.01896	-0.07849628	-0.1473538	0.09678694	0.08312569	2.162867	1.860804	0	0
24.11836	-0.05237311	-0.126188	0.2627995	0.2129287	1.432566	1.120104	0	0
24.13493	-0.04869831	-0.1227665	0.2218372	0.2065451	-0.3532186	-0.05504625	0	0
24.15158	-0.04612515	-0.1184472	0.1545154	0.2593713	-2.026643	1.59027	0	0
24.16809	-0.04418176	-0.1155456	0.1177103	0.1757451	-1.109823	-2.521663	0	0
24.18463	-0.04050415	-0.112804	0.2224161	0.1658117	3.168599	-0.3006043	0	0
24.20119	-0.03745616	-0.1104954	0.1839771	0.1393438	-1.161226	-0.7995877	0	0
24.21776	-0.03742988	-0.1104759	0.001586155	0.00118006	-5.504571	-4.169789	0	0
24.23433	-0.03745616	-0.1104563	-0.001586155	0.00118051	-0.09574051	1.357235E-05	0	0
24.25089	-0.03753499	-0.1103977	-0.004759013	0.003541487	-0.09576256	0.07125854	0	0
24.26746	-0.03771894	-0.1102608	-0.01110331	0.008261768	-0.1914823	0.1424666	0	0
24.28403	-0.03790289	-0.1101239	-0.01110181	0.008260367	4.533458E-05	-4.227105E-05	0	0
24.30069	-0.03958457	-0.1088729	-0.1009487	0.07509759	-2.703956	2.011478	0	0
24.3172	-0.04281592	-0.1064702	-0.1956981	0.145509	-2.856419	2.1227	0	0
24.33373	-0.05079836	-0.1005416	-0.4829888	0.3587213	-8.695477	6.453333	0	0
24.35029	-0.05644	-0.09635674	-0.3405688	0.2526271	4.303694	-3.20599	0	0
24.36686	-0.06228774	-0.092062	-0.3529706	0.2592309	-0.3743083	0.1993148	0	0
24.38343	-0.06514453	-0.08994634	-0.1724363	0.1277019	5.448536	-3.969553	0	0
24.4	-0.06587821	-0.08940314	-0.04428507	0.03278758	3.86761	-2.86452	0	0
24.41677	-0.06585202	-0.08942254	0.001561434	-0.001156421	1.374944	-1.017986	0	0
24.43328	-0.06582581	-0.08944193	0.001586956	-0.001174537	0.0007666866	-0.0005442246	0	0
24.4498	-0.06579961	-0.08946133	0.001586956	-0.001174988	0	-1.366364E-05	0	0
24.48283	-0.06572101	-0.08951953	0.002379522	-0.001761748	0.01599679	-0.0118429	0	0
24.4994	-0.06572101	-0.08963592	0	-0.007025494	-0.04797365	-0.1061226	0	0
24.51596	-0.0656686	-0.08971353	0.003163316	-0.004684262	0.09546907	0.07065851	0	0
24.53253	-0.06561619	-0.08982993	0.00316368	-0.007026752	1.099062E-05	-0.07070057	0	0
24.5491	-0.06558999	-0.08996575	0.001581208	-0.008197908	-0.04776185	-0.03534759	0	0
24.56588	-0.06553759	-0.09000455	0.003122692	-0.002312053	0.0462214	0.1764875	0	0
24.58223	-0.06551138	-0.09002395	0.001602506	-0.001186501	-0.0458793	0.0339692	0	0
24.5989	-0.06543277	-0.09012096	0.004715118	-0.005818931	0.0942535	-0.1402754	0	0
24.61542	-0.06540657	-0.09017918	0.001586956	-0.003525417	-0.094267	0.06911497	0	0
24.65159	-0.06540657	-0.0906449	0	-0.0128744	-0.03012063	-0.1774448	0	0
24.66815	-0.06506592	-0.09109131	0.02056629	-0.0269515	0.3899696	-0.2669244	0	0
24.68472	-0.06433216	-0.09175134	0.04429002	-0.03983961	0.7160661	-0.3890087	0	0
24.70147	-0.06268094	-0.09305248	0.09857833	-0.07767842	1.62942	-1.135701	0	0
24.71785	-0.06273337	-0.09309133	-0.003200405	-0.002371311	-3.071865	2.272904	0	0
24.7345	-0.06273337	-0.09309133	0	0	0.09691198	0.07180604	0	0
24.75101	-0.06275958	-0.09311076	-0.001587224	-0.001176206	-0.04787221	-0.03547551	0	0
24.76755	-0.06275958	-0.09311076	0	0	0.04801307	0.0355799	0	0
24.78412	-0.06283821	-0.09316903	-0.004746323	-0.003517694	-0.1433433	-0.1062376	0	0
24.80069	-0.06291685	-0.09322731	-0.004746227	-0.003517289	2.908945E-06	1.221898E-05	0	0
24.81756	-0.06294306	-0.09328559	-0.001554019	-0.00345524	0.09547269	0.001855754	0	0
24.85059	-0.06312654	-0.09346043	-0.005554323	-0.005292913	-0.08016632	-0.03682708	0	0
24.86695	-0.06333622	-0.09365471	-0.01281277	-0.01187172	-0.1469369	-0.1331785	0	0
24.88352	-0.06427974	-0.09435426	-0.05695093	-0.04222447	-1.34027	-0.9216715	0	0
24.90011	-0.06634983	-0.09596779	-0.1247642	-0.09724762	-2.04508	-1.65936	0	0
24.91666	-0.06697861	-0.09662904	-0.03800555	-0.03996813	2.618232	1.728599	0	0
24.93323	-0.06692621	-0.09666794	0.003162866	-0.002347977	1.243324	1.136163	0	0
24.94979	-0.06684761	-0.0967263	0.004744074	-0.003522641	0.04772095	-0.0354514	0	0
24.96636	-0.06669043	-0.096843	0.009488792	-0.007045193	0.1432041	-0.106317	0	0
24.98293	-0.06669043	-0.096843	0	0	-0.2863888	0.2126366	0	0
24.99949	-0.06669043	-0.096843	0	0	0	0	0	0
25.0162	-0.06669043	-0.096843	0	0	0	0	0	0
25.03271	-0.06669043	-0.096843	0	0	0	0	0	0
25.06576	-0.06671663	-0.09682356	-0.0007927032	0.00058844	-0.01599526	0.01187361	0	0
25.08232	-0.06671663	-0.09682356	0	0	0.01597742	-0.01186037	0	0
25.09889	-0.06669043	-0.096843	0.001581208	-0.001173764	0.04772096	-0.03542426	0	0
25.11546	-0.06669043	-0.096843	0	0	-0.04772096	0.03542426	0	0
25.13203	-0.06666423	-0.09690136	0.001581658	-0.003522641	0.04773453	-0.1063135	0	0
25.14859	-0.06632363	-0.09715427	0.02055841	-0.01526523	0.5727194	-0.3543919	0	0
25.16531	-0.06388663	-0.09896419	0.1458053	-0.1082873	3.763277	-2.795024	0	0
25.18182	-0.0562826	-0.1046161	0.4606238	-0.3423707	9.476151	-7.045994	0	0
25.19833	-0.051717	-0.1080131	0.2765034	-0.2057335	-5.576025	4.138011	0	0
25.21486	-0.04087196	-0.1160943	0.6559672	-0.4887936	11.48331	-8.565947	0	0
25.23143	-0.03724593	-0.1188003	0.218868	-0.163334	-13.20536	9.832581	0	0
25.248	-0.03112153	-0.1233757	0.3696694	-0.276174	4.551193	-3.40552	0	0
25.26456	-0.02817675	-0.1255781	0.1777266	-0.1329177	-5.792511	4.323236	0	0
25.28113	-0.02507369	-0.1278611	0.187301	-0.1378053	0.2889388	-0.1474981	0	0
25.2977	-0.02367978	-0.128905	0.08414618	-0.06301273	-3.113398	2.257373	0	0
25.31426	-0.02370608	-0.1288853	-0.001587687	0.001189191	-2.587751	1.937841	0	0
25.33092	-0.02370608	-0.1288853	0	0	0.04778172	-0.03578891	0	0
25.3474	-0.02370608	-0.1288853	0	0	0	0	0	0
25.36396	-0.02370608	-0.1288853	0	0	0	0	0	0
25.38053	-0.02370608	-0.1288853	0	0	0	0	0	0
25.41366	-0.02370608	-0.1288853	0	0	0	0	0	0
25.43023	-0.02370608	-0.1288853	0	0	0	0	0	0
25.4468	-0.02370608	-0.1288853	0	0	0	0	0	0
25.46352	-0.02370608	-0.1288853	0	0	0	0	0	0
25.47993	-0.02370608	-0.1288853	0	0	0	0	0	0
25.49654	-0.02370608	-0.1288853	0	0	0	0	0	0
25.51306	-0.02370608	-0.1288853	0	0	0	0	0	0
25.59591	-0.02373238	-0.1288656	-0.0003174424	0.000237767	-0.003194519	0.002392722	0	0
25.61246	-0.02373238	-0.1288656	0	0	0.003193599	-0.002392033	0	0
25.62913	-0.02373238	-0.1288656	0	0	0	0	0	0
25.64565	-0.02375869	-0.1288459	-0.001592567	0.001192762	-0.04798643	0.0359397	0	0
25.66216	-0.02375869	-0.1288459	0	0	0.04821643	-0.03611195	0	0
25.67917	-0.02375869	-0.1288459	0	0	0	0	0	0
25.6953	-0.02375869	-0.1288459	0	0	0	0	0	0
25.71186	-0.02375869	-0.1288459	0	0	0	0	0	0
25.72843	-0.02375869	-0.1288459	0	0	0	0	0	0
25.745	-0.02375869	-0.1288459	0	0	0	0	0	0
25.76156	-0.02375869	-0.1288459	0	0	0	0	0	0
25.77824	-0.02375869	-0.1288459	0	0	0	0	0	0
25.79475	-0.02375869	-0.1288459	0	0	0	0	0	0
25.81127	-0.02375869	-0.1288459	0	0	0	0	0	0
25.82783	-0.02375869	-0.1288459	0	0	0	0	0	0
25.84479	-0.02375869	-0.1288459	0	0	0	0	0	0
25.86096	-0.02378499	-0.1288262	-0.001626069	0.001217939	-0.04907767	0.0367596	0	0
25.8941	-0.02378499	-0.1288262	0	0	0.03297727	-0.02470025	0	0
25.91066	-0.02378499	-0.1288262	0	0	0	0	0	0
25.92735	-0.02378499	-0.1288262	0	0	0	0	0	0
25.94386	-0.02378499	-0.1288262	0	0	0	0	0	0
25.96036	-0.02378499	-0.1288262	0	0	0	0	0	0
25.97693	-0.02378499	-0.1288262	0	0	0	0	0	0
25.99349	-0.02378499	-0.1288262	0	0	0	0	0	0
26.01006	-0.02378499	-0.1288262	0	0	0	0	0	0
26.02663	-0.02378499	-0.1288262	0	0	0	0	0	0
26.05976	-0.02381129	-0.1288065	-0.0007937521	0.0005945271	-0.01597033	0.01196191	0	0
26.07645	-0.02381129	-0.1288065	0	0	0.01593181	-0.01193306	0	0
26.09296	-0.02383759	-0.1287868	-0.001592638	0.001191997	-0.04796927	0.03590222	0	0
26.10948	-0.02383759	-0.1287868	0	0	0.04822415	-0.03609298	0	0
26.12603	-0.02383759	-0.1287868	0	0	0	0	0	0
26.1426	-0.02383759	-0.1287868	0	0	0	0	0	0
26.15952	-0.02383759	-0.1287868	0	0	0	0	0	0
26.17573	-0.02383759	-0.1287868	0	0	0	0	0	0
26.1923	-0.02383759	-0.1287868	0	0	0	0	0	0
26.20886	-0.02383759	-0.1287868	0	0	0	0	0	0
26.22543	-0.02383759	-0.1287868	0	0	0	0	0	0
26.242	-0.02383759	-0.1287868	0	0	0	0	0	0
26.27513	-0.02383759	-0.1287868	0	0	0	0	0	0
26.2917	-0.02383759	-0.1287868	0	0	0	0	0	0
26.30827	-0.02383759	-0.1287868	0	0	0	0	0	0
26.32513	-0.02383759	-0.1287868	0	0	0	0	0	0
26.3414	-0.02383759	-0.1287868	0	0	0	0	0	0
26.35815	-0.02383759	-0.1287868	0	0	0	0	0	0
26.37453	-0.02383759	-0.1287868	0	0	0	0	0	0
26.39118	-0.02383759	-0.1287868	0	0	0	0	0	0
26.40769	-0.02383759	-0.1287868	0	0	0	0	0	0
26.42423	-0.02383759	-0.1287868	0	0	0	0	0	0
26.4408	-0.02386389	-0.1287671	-0.001587504	0.001189054	-0.04794686	0.0359126	0	0
26.45772	-0.02386389	-0.1287671	0	0	0.04740073	-0.03550355	0	0
26.47424	-0.02386389	-0.1287671	0	0	0	0	0	0
26.4905	-0.02386389	-0.1287671	0	0	0	0	0	0
26.50726	-0.02386389	-0.1287671	0	0	0	0	0	0
26.52377	-0.02386389	-0.1287671	0	0	0	0	0	0
26.54028	-0.02386389	-0.1287671	0	0	0	0	0	0
26.55679	-0.02386389	-0.1287671	0	0	0	0	0	0
26.57333	-0.02386389	-0.1287671	0	0	0	0	0	0
26.5899	-0.02386389	-0.1287671	0	0	0	0	0	0
26.60646	-0.02383759	-0.1287868	0.001587322	-0.001188917	0.04790546	-0.0358816	0	0
26.62303	-0.02383759	-0.1287868	0	0	-0.04790546	0.0358816	0	0
26.6396	-0.02383759	-0.1287868	0	0	0	0	0	0
26.65616	-0.02383759	-0.1287868	0	0	0	0	0	0
26.67273	-0.02383759	-0.1287868	0	0	0	0	0	0
26.739	-0.02386389	-0.1287671	-0.0003968989	0.0002972807	-0.004791373	0.003588779	0	0
26.77246	-0.02386389	-0.1287671	0	0	0.003979753	-0.002980869	0	0
26.78896	-0.02386389	-0.1287671	0	0	0	0	0	0
26.80527	-0.02386389	-0.1287671	0	0	0	0	0	0
26.85944	-0.02386389	-0.1287671	0	0	0	0	0	0
26.87601	-0.02386389	-0.1287671	0	0	0	0	0	0
26.89257	-0.02386389	-0.1287671	0	0	0	0	0	0
26.90914	-0.02386389	-0.1287671	0	0	0	0	0	0
26.92571	-0.02386389	-0.1287671	0	0	0	0	0	0
26.94227	-0.02386389	-0.1287671	0	0	0	0	0	0
26.95884	-0.02386389	-0.1287671	0	0	0	0	0	0
26.97541	-0.02386389	-0.1287671	0	0	0	0	0	0
26.9921	-0.02386389	-0.1287671	0	0	0	0	0	0
27.00861	-0.02386389	-0.1287671	0	0	0	0	0	0
27.04213	-0.02386389	-0.1287671	0	0	0	0	0	0
27.05824	-0.02386389	-0.1287671	0	0	0	0	0	0
27.0748	-0.02386389	-0.1287671	0	0	0	0	0	0
27.09137	-0.02386389	-0.1287671	0	0	0	0	0	0
27.10794	-0.02386389	-0.1287671	0	0	0	0	0	0
27.1245	-0.02386389	-0.1287671	0	0	0	0	0	0
27.14107	-0.02386389	-0.1287671	0	0	0	0	0	0
27.15771	-0.02386389	-0.1287671	0	0	0	0	0	0
27.17423	-0.02386389	-0.1287671	0	0	0	0	0	0
27.19077	-0.02386389	-0.1287671	0	0	0	0	0	0
27.20734	-0.02386389	-0.1287671	0	0	0	0	0	0
27.22391	-0.02386389	-0.1287671	0	0	0	0	0	0
27.24047	-0.02386389	-0.1287671	0	0	0	0	0	0
27.25704	-0.02386389	-0.1287671	0	0	0	0	0	0
27.2738	-0.02386389	-0.1287671	0	0	0	0	0	0
27.29018	-0.02386389	-0.1287671	0	0	0	0	0	0
27.32331	-0.02386389	-0.1287671	0	0	0	0	0	0
27.35644	-0.02386389	-0.1287671	0	0	0	0	0	0
27.37301	-0.02386389	-0.1287671	0	0	0	0	0	0
27.38958	-0.02386389	-0.1287671	0	0	0	0	0	0
27.40639	-0.02386389	-0.1287671	0	0	0	0	0	0
27.42291	-0.02386389	-0.1287671	0	0	0	0	0	0
27.43942	-0.02386389	-0.1287671	0	0	0	0	0	0
27.45584	-0.02386389	-0.1287671	0	0	0	0	0	0
27.47241	-0.02386389	-0.1287671	0	0	0	0	0	0
27.48898	-0.02386389	-0.1287671	0	0	0	0	0	0
27.50555	-0.02386389	-0.1287671	0	0	0	0	0	0
27.52212	-0.02386389	-0.1287671	0	0	0	0	0	0
27.53899	-0.02386389	-0.1287671	0	0	0	0	0	0
27.5555	-0.02386389	-0.1287671	0	0	0	0	0	0
27.57201	-0.02386389	-0.1287671	0	0	0	0	0	0
27.58853	-0.02386389	-0.1287671	0	0	0	0	0	0
27.60495	-0.02386389	-0.1287671	0	0	0	0	0	0
27.62155	-0.02386389	-0.1287671	0	0	0	0	0	0
27.63808	-0.02386389	-0.1287671	0	0	0	0	0	0
27.65464	-0.02386389	-0.1287671	0	0	0	0	0	0
27.67121	-0.02386389	-0.1287671	0	0	0	0	0	0
27.68778	-0.02386389	-0.1287671	0	0	0	0	0	0
27.72112	-0.02386389	-0.1287671	0	0	0	0	0	0
27.73769	-0.02386389	-0.1287671	0	0	0	0	0	0
27.75426	-0.02386389	-0.1287671	0	0	0	0	0	0
27.77083	-0.02386389	-0.1287671	0	0	0	0	0	0
27.78739	-0.02386389	-0.1287671	0	0	0	0	0	0
27.80418	-0.02386389	-0.1287671	0	0	0	0	0	0
27.82053	-0.02386389	-0.1287671	0	0	0	0	0	0
27.8371	-0.02386389	-0.1287671	0	0	0	0	0	0
27.85371	-0.02389019	-0.1287474	-0.001582879	0.001185506	-0.04769998	0.03572516	0	0
27.87023	-0.02402169	-0.1286095	-0.007963192	0.008349395	-0.1925804	0.2162315	0	0
27.88679	-0.0242584	-0.1283534	-0.01428743	0.01545501	-0.1911739	0.214794	0	0
27.90336	-0.0243636	-0.1282747	-0.006350017	0.004755317	0.2395515	-0.3229173	0	0
27.91993	-0.024574	-0.1279202	-0.01269981	0.02139488	-0.1916371	0.502183	0	0
27.93649	-0.02502109	-0.127428	-0.02698656	0.02971107	-0.431175	0.250983	0	0
27.95306	-0.0272827	-0.1253814	-0.1365267	0.1235481	-3.306118	2.832172	0	0
27.96979	-0.02851858	-0.124339	-0.07385809	0.06229207	1.882026	-1.839605	0	0
27.98619	-0.02875523	-0.1240834	-0.01443025	0.01558593	1.793639	-1.409675	0	0
28.00282	-0.02935998	-0.1235526	-0.03637729	0.03192763	-0.6645818	0.4948458	0	0
28.01933	-0.03127927	-0.1220788	-0.1162097	0.08923609	-2.408931	1.729274	0	0
28.03589	-0.03795545	-0.1169764	-0.4031142	0.3080913	-8.673774	6.616488	0	0
28.05246	-0.04134485	-0.1144486	-0.2046081	0.1525947	5.992304	-4.693975	0	0
28.06937	-0.04749058	-0.1097524	-0.363508	0.2777686	-4.747239	3.739652	0	0
28.10216	-0.05153328	-0.1066264	-0.123272	0.09531964	4.833557	-3.67088	0	0
28.1353	-0.05612521	-0.1029777	-0.1385845	0.1101186	-0.2322561	0.2244669	0	0
28.15193	-0.0560465	-0.1029192	0.004732391	0.003517372	2.879895	-2.142108	0	0
28.16844	-0.05546936	-0.1022564	0.03495342	0.04014318	0.9118626	1.105115	0	0
28.185	-0.05460356	-0.100639	0.05228957	0.09768235	0.524232	1.739941	0	0
28.20156	-0.05368521	-0.09886685	0.05543201	0.1069668	0.09486619	0.2802849	0	0
28.21848	-0.05594157	-0.09043144	-0.1333691	0.4986005	-5.63831	11.69565	0	0
28.23499	-0.05851208	-0.0818678	-0.15573	0.5188136	-0.6689986	0.6047412	0	0
28.25126	-0.06108182	-0.07001609	-0.1578907	0.7281972	-0.06591146	6.387231	0	0
28.26783	-0.06165859	-0.0638208	-0.03481802	0.3739916	3.747562	-10.78556	0	0
28.2844	-0.06150129	-0.0500164	0.009492259	0.8330438	1.33721	13.85342	0	0
28.30104	-0.06139642	-0.04428381	0.006302931	0.344552	-0.09603851	-14.70969	0	0
28.31755	-0.05903658	-0.03296563	0.1429342	0.6855345	4.121879	10.28673	0	0
28.33456	-0.05533818	-0.02538654	0.2174283	0.4455737	2.222394	-7.15879	0	0
28.35066	-0.04969589	-0.0162364	0.3502884	0.5680646	4.011805	3.698701	0	0
28.36758	-0.04431308	-0.01005649	0.3182391	0.3653649	-0.9705451	-6.138336	0	0
28.3838	-0.04021515	-0.006546562	0.2526748	0.216419	-1.978848	-4.495455	0	0
28.4006	-0.03043796	0.0004244141	0.5817797	0.4147995	9.965675	6.007192	0	0
28.41711	-0.02688826	0.002964242	0.2149787	0.1538179	-11.00924	-7.833156	0	0
28.43363	-0.02031299	0.007812814	0.398213	0.2936407	5.548549	4.233998	0	0
28.45006	-0.01568292	0.01115393	0.2816767	0.2032613	-3.536821	-2.742972	0	0
28.46663	-0.009841788	0.01542882	0.3525311	0.2580036	2.146669	1.658521	0	0
28.50014	-0.004157871	0.01958618	0.1696175	0.1240625	-3.652477	-2.674578	0	0
28.51671	-0.004131556	0.01964233	0.001588404	0.003389074	-3.355385	-2.409735	0	0
28.53328	-0.004236817	0.01971719	-0.006353587	0.004518541	-0.2396898	0.03408737	0	0
28.61611	-0.02386389	0.03450887	-0.2369494	0.1785737	-2.319887	1.751065	0	0
28.63278	-0.03309318	0.04104515	-0.5537657	0.3921832	-3.184124	2.146856	0	0
28.64928	-0.0404516	0.04621397	-0.445901	0.3132165	3.251994	-2.380751	0	0
28.66581	-0.04602012	0.05015095	-0.336814	0.2381301	3.302136	-2.272917	0	0
28.68238	-0.04728053	0.05104179	-0.07607856	0.05377097	7.877173	-5.569739	0	0
28.69895	-0.05197945	0.05436205	-0.2836277	0.2004119	-6.263844	4.425631	0	0
28.71551	-0.05470851	0.05628986	-0.1647263	0.1163623	3.58845	-2.536622	0	0
28.73208	-0.05489217	0.05641958	-0.01108427	0.007829138	4.636658	-3.275348	0	0
28.74886	-0.05489217	0.05641958	0	0	0.3324381	-0.2348105	0	0
28.76521	-0.05486593	0.05643811	0.00160358	0.001132662	0.04839893	0.03418578	0	0
28.78178	-0.05489217	0.05645664	-0.001583821	0.001118931	-0.09681458	-0.000417073	0	0
28.79839	-0.05486593	0.05647517	0.001579094	0.001115367	0.09533624	-0.0001074344	0	0
28.81491	-0.05476099	0.05669754	0.006351545	0.01345769	0.1440246	0.3724707	0	0
28.83148	-0.0558891	0.05790181	-0.06809337	0.07269016	-2.249731	1.790009	0	0
28.84805	-0.06100316	0.06158647	-0.3086497	0.2223808	-7.259587	4.517414	0	0
28.86462	-0.06928366	0.06750448	-0.4998696	0.357253	-5.771026	4.07045	0	0
28.88145	-0.0752262	0.07177123	-0.3530022	0.2534561	4.397281	-3.107729	0	0
28.89775	-0.08231359	0.07691874	-0.434855	0.3158312	-2.470464	1.882591	0	0
28.91448	-0.08696432	0.08053115	-0.2780297	0.2159573	4.748578	-3.024123	0	0
28.93099	-0.0923419	0.08491357	-0.3257165	0.2654404	-1.434732	1.488777	0	0
28.94745	-0.09461142	0.08695596	-0.1378615	0.1240645	5.697352	-4.287714	0	0
28.96402	-0.09497654	0.08975121	-0.02203888	0.1687211	3.506636	1.35202	0	0
28.98058	-0.08714713	0.09515281	0.4726387	0.326079	14.93026	4.749344	0	0
28.99715	-0.07996073	0.1001995	0.4337723	0.3046187	-1.173058	-0.6477112	0	0
29.03028	-0.06600922	0.1099653	0.421033	0.2947147	-0.256306	-0.1992612	0	0
29.04707	-0.05932504	0.1146669	0.3983218	0.2801809	-0.4549758	-0.2911584	0	0
29.06358	-0.04993214	0.1212088	0.56879	0.3961464	5.119983	3.483006	0	0
29.08009	-0.03982104	0.1282346	0.6124225	0.4255461	1.321241	0.8902568	0	0
29.0966	-0.03645752	0.1305683	0.2037026	0.1413352	-12.37723	-8.606733	0	0
29.11312	-0.02962291	0.1353419	0.4138244	0.2890336	6.361998	4.471962	0	0
29.12968	-0.0246529	0.1387828	0.3000251	0.2077163	-3.440015	-2.458125	0	0
29.14625	-0.01826113	0.14324	0.3858081	0.2690357	2.589085	1.85073	0	0
29.16282	-0.01389384	0.1462579	0.2636402	0.1821828	-3.687247	-2.621375	0	0
29.17938	-0.01042068	0.1486565	0.2096408	0.1447822	-1.629798	-1.128818	0	0
29.19595	-0.009762848	0.1491107	0.03970655	0.02741391	-5.128625	-3.542182	0	0
29.21252	-0.009683908	0.1491652	0.004764818	0.003289237	-1.054544	-0.728084	0	0
29.22908	-0.009210266	0.1494922	0.02858908	0.01973632	0.7190175	0.496374	0	0
29.24571	-0.008473481	0.1500008	0.04431428	0.03058947	0.4737423	0.3269653	0	0
29.26222	-0.007973515	0.1503459	0.03028608	0.02090464	-0.4233722	-0.2922887	0	0
29.27879	-0.007973515	0.1503459	0	0	-0.9156696	-0.6320313	0	0
29.29535	-0.007973515	0.1503459	0	0	0	0	0	0
29.32876	-0.007973515	0.1503459	0	0	0	0	0	0
29.34528	-0.007973515	0.1503459	0	0	0	0	0	0
29.37819	-0.007999829	0.150364	-0.0007996695	0.0005520193	-0.01618066	0.01116966	0	0
29.39475	-0.0081314	0.1504548	-0.007941625	0.005481162	-0.1443612	0.09963337	0	0
29.41133	-0.01155212	0.1528154	-0.2064037	0.1424349	-5.988562	4.132559	0	0
29.42789	-0.02097061	0.1593111	-0.5687632	0.3922627	-10.93666	7.540252	0	0
29.44445	-0.03204166	0.166941	-0.66825	0.4605381	-3.00321	2.061031	0	0
29.46102	-0.04026769	0.1726075	-0.4965815	0.3420688	5.181264	-3.575619	0	0
29.47758	-0.05037839	0.1795706	-0.6102828	0.4202965	-3.431708	2.361053	0	0
29.51072	-0.06275958	0.1880974	-0.3736865	0.2573546	4.760509	-3.278522	0	0
29.52728	-0.06836697	0.19196	-0.3384627	0.2331446	0.7087323	-0.4871265	0	0
29.54392	-0.07106434	0.1938183	-0.1621602	0.1117194	5.310121	-3.657251	0	0
29.56043	-0.07462433	0.1963074	-0.2156014	0.1507442	-1.6123	1.177364	0	0
29.57698	-0.08009146	0.2001476	-0.3302629	0.2319824	-3.467677	2.456865	0	0
29.59355	-0.08560605	0.204166	-0.3328614	0.2425527	-0.07845613	0.319141	0	0
29.61012	-0.08975817	0.2077502	-0.2506224	0.216344	2.481978	-0.7909787	0	0
29.62669	-0.09528948	0.2127547	-0.3338706	0.3020684	-2.512435	2.587166	0	0
29.64325	-0.09760987	0.2159394	-0.1400588	0.1922292	5.849251	-3.314951	0	0
29.66001	-0.1007107	0.2258459	-0.1851023	0.5913554	-1.351868	11.97877	0	0
29.67651	-0.1002679	0.2281637	0.02682698	0.1404002	6.371831	-13.55834	0	0
29.69295	-0.09768806	0.2380573	0.1569289	0.6018208	3.94876	14.00471	0	0
29.70954	-0.09244627	0.2433861	0.316068	0.321317	4.818915	-8.49398	0	0
29.72609	-0.08573667	0.2520109	0.4054589	0.5211908	2.69798	6.032551	0	0
29.74265	-0.08294087	0.2553981	0.1687549	0.2044526	-7.147858	-9.564685	0	0
29.75922	-0.07734539	0.2607368	0.3377047	0.322211	5.098622	3.553752	0	0
29.77608	-0.07417943	0.2629398	0.1877474	0.1306396	-4.48544	-5.73018	0	0
29.7926	-0.07342042	0.2634591	0.04594636	0.03143762	-4.247777	-2.971683	0	0
29.82562	-0.06999075	0.2658049	0.1038783	0.07104816	1.169497	0.7996354	0	0
29.84205	-0.06996457	0.2658228	0.001593786	0.001090032	-2.068526	-1.414781	0	0
29.87519	-0.06996457	0.2658228	0	0	-0.03215466	-0.02199141	0	0
29.89175	-0.06996457	0.2658228	0	0	0	0	0	0
29.90832	-0.06999075	0.2658765	-0.001580941	0.00324194	-0.04771563	0.09784758	0	0
29.92519	-0.06993838	0.2660555	0.003104685	0.01061334	0.1401379	0.2204642	0	0
29.9417	-0.06980744	0.2662167	0.007930734	0.009760209	0.1445769	-0.02555778	0	0
29.95802	-0.06975506	0.2662525	0.003209553	0.002195097	-0.14381	-0.2304379	0	0
29.97458	-0.06975506	0.2662525	0	0	-0.0976005	-0.06675152	0	0
30.00775	-0.06972887	0.2662346	0.0007896974	-0.0005400946	0.01588021	-0.01086089	0	0
30.02428	-0.06970268	0.2662167	0.001583676	-0.001083117	0.01597549	-0.01092605	0	0
30.04127	-0.06972887	0.2662346	-0.001541883	0.001054534	-0.09324	0.06376927	0	0
30.05742	-0.06972887	0.2662346	0	0	0.04653412	-0.0318259	0	0
30.07429	-0.06972887	0.2662346	0	0	0	0	0	0
30.09081	-0.06975506	0.2662525	-0.001586054	0.001084744	-0.04750623	0.03249075	0	0
30.10712	-0.06975506	0.2662525	0	0	0.04831778	-0.03304579	0	0
30.12369	-0.06975506	0.2662525	0	0	0	0	0	0
30.14025	-0.06975506	0.2662525	0	0	0	0	0	0
30.15685	-0.06975506	0.2662525	0	0	0	0	0	0
30.17339	-0.06975506	0.2662525	0	0	0	0	0	0
30.18995	-0.06975506	0.2662525	0	0	0	0	0	0
30.20652	-0.06975506	0.2662525	0	0	0	0	0	0
30.22309	-0.06972887	0.2662346	0.001581123	-0.001081371	0.04772112	-0.03263772	0	0
30.23991	-0.06972887	0.2662346	0	0	-0.04735582	0.03238788	0	0
30.25622	-0.06972887	0.2662346	0	0	0	0	0	0
30.27294	-0.06972887	0.2662346	0	0	0	0	0	0
30.28945	-0.06972887	0.2662346	0	0	0	0	0	0
30.30592	-0.06972887	0.2662346	0	0	0	0	0	0
30.32248	-0.06972887	0.2662346	0	0	0	0	0	0
30.33905	-0.06972887	0.2662346	0	0	0	0	0	0
30.35562	-0.06972887	0.2662346	0	0	0	0	0	0
30.37219	-0.06972887	0.2662346	0	0	0	0	0	0
30.42188	-0.06972887	0.2662346	0	0	0	0	0	0
30.43856	-0.06972887	0.2662346	0	0	0	0	0	0
30.45506	-0.06972887	0.2662346	0	0	0	0	0	0
30.47159	-0.06972887	0.2662346	0	0	0	0	0	0
30.48815	-0.06972887	0.2662346	0	0	0	0	0	0
30.50472	-0.06972887	0.2662346	0	0	0	0	0	0
30.52129	-0.06972887	0.2662346	0	0	0	0	0	0
30.53785	-0.06972887	0.2662346	0	0	0	0	0	0
30.55442	-0.06972887	0.2662346	0	0	0	0	0	0
30.57099	-0.06972887	0.2662346	0	0	0	0	0	0
30.58766	-0.06972887	0.2662346	0	0	0	0	0	0
30.60412	-0.06972887	0.2662346	0	0	0	0	0	0
30.62069	-0.06972887	0.2662346	0	0	0	0	0	0
30.65382	-0.06972887	0.2662346	0	0	0	0	0	0
30.67072	-0.06972887	0.2662346	0	0	0	0	0	0
30.68695	-0.06972887	0.2662346	0	0	0	0	0	0
30.72009	-0.06972887	0.2662346	0	0	0	0	0	0
30.73676	-0.06972887	0.2662346	0	0	0	0	0	0
30.75327	-0.06972887	0.2662346	0	0	0	0	0	0
30.76979	-0.06972887	0.2662346	0	0	0	0	0	0
30.7868	-0.06972887	0.2662346	0	0	0	0	0	0
30.80292	-0.06972887	0.2662346	0	0	0	0	0	0
30.81949	-0.06972887	0.2662346	0	0	0	0	0	0
30.83605	-0.06972887	0.2662346	0	0	0	0	0	0
30.85262	-0.06972887	0.2662346	0	0	0	0	0	0
30.86936	-0.06972887	0.2662346	0	0	0	0	0	0
30.88587	-0.06972887	0.2662346	0	0	0	0	0	0
30.90238	-0.06972887	0.2662346	0	0	0	0	0	0
30.97243	-0.06970268	0.2662167	0.0003738624	-0.0002556942	0.004319148	-0.002953977	0	0
31.0053	-0.06970268	0.2662167	0	0	-0.003632467	0.002484339	0	0
31.02197	-0.06970268	0.2662167	0	0	0	0	0	0
31.03848	-0.06970268	0.2662167	0	0	0	0	0	0
31.055	-0.06970268	0.2662167	0	0	0	0	0	0
31.07157	-0.06970268	0.2662167	0	0	0	0	0	0
31.08818	-0.06970268	0.2662167	0	0	0	0	0	0
31.10471	-0.06970268	0.2662167	0	0	0	0	0	0
31.12127	-0.06970268	0.2662167	0	0	0	0	0	0
31.13784	-0.06970268	0.2662167	0	0	0	0	0	0
31.15456	-0.06970268	0.2662167	0	0	0	0	0	0
31.17157	-0.0696765	0.2661988	0.001539463	-0.001052879	0.0456362	-0.03121179	0	0
31.18754	-0.0696765	0.2661988	0	0	-0.04667873	0.0319248	0	0
31.20411	-0.0696765	0.2661988	0	0	0	0	0	0
31.22067	-0.06970268	0.2661809	-0.001580759	-0.001079323	-0.04771014	-0.03257591	0	0
31.23724	-0.0696765	0.266163	0.001580759	-0.001081122	0.09541478	-5.42929E-05	0	0
31.25381	-0.0696765	0.266163	0	0	-0.04771014	0.03263021	0	0
31.27037	-0.0696765	0.266163	0	0	0	0	0	0
31.32007	-0.0696765	0.266163	0	0	0	0	0	0
31.33669	-0.0696765	0.266163	0	0	0	0	0	0
31.35321	-0.06965031	0.2661451	0.001585871	-0.001084618	0.04786443	-0.03273573	0	0
31.36977	-0.06965031	0.2661451	0	0	-0.04794171	0.03278858	0	0
31.38634	-0.06962412	0.2661271	0.001580759	-0.001081122	0.04771014	-0.03263021	0	0
31.40324	-0.06962412	0.2661271	0	0	-0.04723429	0.03230476	0	0
31.41947	-0.06965031	0.2661093	-0.001613262	-0.001101516	-0.04869113	-0.03324572	0	0
31.43604	-0.06965031	0.2661093	0	0	0.04918379	0.03358211	0	0
31.45277	-0.06965031	0.2661093	0	0	0	0	0	0
31.46928	-0.06965031	0.2661093	0	0	0	0	0	0
31.48574	-0.06965031	0.2661093	0	0	0	0	0	0
31.50231	-0.06962412	0.2660913	0.001580213	-0.001080749	0.04784515	-0.03272254	0	0
31.53544	-0.06959794	0.2660734	0.0007903364	-0.0005406854	-0.01589295	0.01086651	0	0
31.552	-0.06959794	0.2660734	0	0	-0.01590465	0.0108807	0	0
31.56857	-0.06957175	0.2660555	0.001580759	-0.001081122	0.04771014	-0.03263021	0	0
31.58537	-0.06957175	0.2660555	0	0	-0.0473774	0.03240263	0	0
31.60188	-0.06957175	0.2660555	0	0	0	0	0	0
31.61827	-0.06957175	0.2660555	0	0	0	0	0	0
31.63484	-0.06957175	0.2660555	0	0	0	0	0	0
31.6514	-0.06954556	0.2660376	0.001580759	-0.001081122	0.04771014	-0.03263021	0	0
31.66797	-0.06954556	0.2660376	0	0	-0.04770739	0.03262833	0	0
31.68454	-0.06951937	0.2660197	0.001580759	-0.001079323	0.04770739	-0.03257403	0	0
31.70111	-0.06951937	0.2659839	0	-0.002161995	-0.04770464	-0.03267322	0	0
31.71767	-0.06951937	0.2659839	0	0	0	0.06525289	0	0
31.73447	-0.06951937	0.2659839	0	0	0	0	0	0
31.7508	-0.06949318	0.265966	0.001603278	-0.001096523	0.0483898	-0.03309504	0	0
31.76749	-0.06949318	0.265966	0	0	-0.0485491	0.033204	0	0
31.78394	-0.06946699	0.2659481	0.001592492	-0.001089147	0.04806151	-0.03287052	0	0
31.80051	-0.06946699	0.2659123	0	-0.002160196	-0.04823644	-0.03244198	0	0
31.81707	-0.06941461	0.2658765	0.003161967	-0.002162244	0.09542286	-6.179752E-05	0	0
31.83364	-0.06941461	0.2658765	0	0	-0.09543934	0.06526417	0	0
31.8502	-0.06938842	0.2658586	0.001580759	-0.001079323	0.04771288	-0.03257778	0	0
31.86706	-0.06938842	0.2658586	0	0	-0.04729088	0.03228965	0	0
31.88334	-0.06938842	0.2658586	0	0	0	0	0	0
31.90009	-0.06938842	0.2658586	0	0	0	0	0	0
31.91647	-0.06938842	0.2658586	0	0	0	0	0	0
31.93304	-0.06938842	0.2658586	0	0	0	0	0	0
31.94962	-0.06938842	0.2658586	0	0	0	0	0	0
31.96617	-0.06938842	0.2658586	0	0	0	0	0	0
31.98274	-0.06938842	0.2658586	0	0	0	0	0	0
31.99965	-0.06938842	0.2658586	0	0	0	0	0	0
32.01587	-0.06938842	0.2658586	0	0	0	0	0	0
32.03268	-0.06936223	0.2658407	0.001558156	-0.001065663	0.04718549	-0.03227139	0	0
32.049	-0.06936223	0.2658407	0	0	-0.04702523	0.03216178	0	0
32.0657	-0.06936223	0.2658407	0	0	0	0	0	0
32.08221	-0.06936223	0.2658407	0	0	0	0	0	0
32.09872	-0.06936223	0.2658407	0	0	0	0	0	0
32.11527	-0.06936223	0.2658407	0	0	0	0	0	0
32.13184	-0.06938842	0.2658228	-0.001580759	-0.001081122	-0.04774037	-0.03265088	0	0
32.16528	-0.06938842	0.2658228	0	0	0.03161083	0.02161947	0	0
32.23124	-0.06938842	0.2658228	0	0	0	0	0	0
32.24783	-0.06938842	0.2658228	0	0	0	0	0	0
32.26437	-0.06936223	0.2658049	0.001583311	-0.001082867	0.04778441	-0.032681	0	0
32.28253	-0.06936223	0.2658049	0	0	-0.04563555	0.03121134	0	0
32.29937	-0.06936223	0.2658049	0	0	0	0	0	0
32.31567	-0.06933604	0.2657869	0.001607407	-0.001099347	0.04850605	-0.03317455	0	0
32.33223	-0.06933604	0.2657512	0	-0.002160943	-0.0489228	-0.03231056	0	0
32.3488	-0.06928366	0.2657153	0.003161517	-0.002162244	0.09542576	-3.927755E-05	0	0
32.36542	-0.06928366	0.2657153	0	0	-0.09525029	0.06514415	0	0
32.38193	-0.06930985	0.2656974	-0.001586237	-0.001084869	-0.04787273	-0.03274141	0	0
32.3985	-0.06930985	0.2656974	0	0	0.04795555	0.03279805	0	0
32.41507	-0.06928366	0.2656795	0.001580759	-0.001079323	0.04770739	-0.03257403	0	0
32.43196	-0.06928366	0.2656795	0	0	-0.04723429	0.032251	0	0
32.4482	-0.06928366	0.2656795	0	0	0	0	0	0
32.46476	-0.06928366	0.2656795	0	0	0	0	0	0
32.48133	-0.06928366	0.2656795	0	0	0	0	0	0
32.49801	-0.06928366	0.2656795	0	0	0	0	0	0
32.51452	-0.06925748	0.2656616	0.001585871	-0.001084618	0.04777917	-0.03267741	0	0
32.53103	-0.06928366	0.2656437	-0.001586604	-0.00108512	-0.0960773	-1.518123E-05	0	0
32.5476	-0.06928366	0.2655721	0	-0.004322689	0.04797216	-0.09789036	0	0
32.56416	-0.06933604	0.2655005	-0.003161517	-0.004322689	-0.09541478	0	0	0
32.58107	-0.06946699	0.2653393	-0.007747264	-0.009535094	-0.13701	-0.1557329	0	0
32.59729	-0.06970268	0.2650707	-0.01452401	-0.0165506	-0.2045463	-0.2117527	0	0
32.61386	-0.07088105	0.263083	-0.07112649	-0.1199775	-1.725951	-3.153746	0	0
32.63043	-0.06933604	0.2608443	0.09325711	-0.1351312	4.961107	-0.4573393	0	0
32.64711	-0.06427974	0.2573869	0.3030358	-0.2072081	6.308619	-2.167547	0	0
32.66356	-0.05864321	0.2535343	0.3426679	-0.2342156	1.1961	-0.8150872	0	0
32.68014	-0.05528571	0.2512401	0.202519	-0.1383834	-4.243382	2.901575	0	0
32.6967	-0.05447238	0.2506844	0.04912695	-0.03356495	-4.62938	3.163426	0	0
32.71326	-0.05444613	0.2506665	0.001583907	-0.001082921	-1.435347	0.9806483	0	0
32.72983	-0.05447238	0.2506486	-0.001583907	-0.001081122	-0.09560479	5.428939E-05	0	0
32.7464	-0.05460356	0.2505231	-0.007920233	-0.007576793	-0.1912527	-0.1960623	0	0
32.76296	-0.05481346	0.2503438	-0.01266945	-0.01082021	-0.1433483	-0.09789789	0	0
32.77971	-0.0573843	0.2480848	-0.1535497	-0.1349236	-4.229376	-3.725717	0	0
32.79609	-0.06126534	0.2446417	-0.236823	-0.2101019	-2.513482	-2.269146	0	0
32.81266	-0.06621883	0.2342518	-0.2989934	-0.6271325	-1.886515	-12.65448	0	0
32.82923	-0.06978125	0.2218559	-0.2150281	-0.7482218	2.534077	-3.654482	0	0
32.84579	-0.07171889	0.2126827	-0.1169828	-0.5538211	2.959354	5.867699	0	0
32.86236	-0.07491218	0.2017696	-0.1927478	-0.6587136	-2.286853	-3.166024	0	0
32.87893	-0.07849628	0.1941791	-0.2163364	-0.4581654	-0.7119057	6.052555	0	0
32.89549	-0.08367261	0.184287	-0.3125157	-0.5972289	-2.903033	-4.197428	0	0
32.91206	-0.08531869	0.1749776	-0.09935798	-0.5619163	6.433854	1.065861	0	0
32.92862	-0.08531869	0.1714311	0	-0.214063	2.99863	10.49823	0	0
32.94532	-0.08503132	0.1567717	0.01721526	-0.8781689	0.5175912	-19.9669	0	0
32.96183	-0.08539706	0.1414394	-0.02215317	-0.9286721	-1.185684	-1.521037	0	0
32.97834	-0.08542319	0.1301308	-0.00158181	-0.6847911	0.6229246	7.384999	0	0
33.01218	-0.08510969	0.1047643	0.009264079	-0.7495991	0.2153928	-1.287047	0	0
33.02887	-0.08422136	0.09372037	0.05321551	-0.6615845	0.869752	1.741715	0	0
33.04531	-0.08343741	0.08231781	0.04769224	-0.6936907	-0.166712	-0.9690793	0	0
33.06188	-0.08231359	0.06724575	0.0678341	-0.9097511	0.6102714	-6.546339	0	0
33.07845	-0.08035293	0.05141291	0.1183455	-0.9556724	1.524438	-1.38591	0	0
33.09501	-0.07862704	0.03594374	0.1041989	-0.9339358	-0.4269949	0.6560881	0	0
33.11158	-0.07700533	0.02448632	0.09788696	-0.6915714	-0.1905168	7.315414	0	0
33.12814	-0.07559253	0.01385448	0.08527686	-0.6417391	-0.3805734	1.503941	0	0
33.14471	-0.0732372	0.002061413	0.142168	-0.7118307	1.716977	-2.115369	0	0
33.16128	-0.068917	-0.004698761	0.2607676	-0.4080449	3.579344	9.168274	0	0
33.17785	-0.06650703	-0.009037086	0.1454658	-0.2618618	-3.479817	4.411816	0	0
33.19449	-0.06189452	-0.01504485	0.2771354	-0.3609671	3.964668	-2.984133	0	0
33.21098	-0.05924637	-0.01691749	0.1605823	-0.1135556	-3.517579	7.466896	0	0
33.22755	-0.05940371	-0.01680396	-0.009496919	0.006852352	-5.144847	3.642304	0	0
33.24411	-0.05942993	-0.01678504	-0.001582782	0.001142059	0.2388491	-0.172337	0	0
33.26068	-0.05942993	-0.01678504	0	0	0.04776846	-0.0344674	0	0
33.27725	-0.05942993	-0.01678504	0	0	0	0	0	0
33.29406	-0.05940371	-0.01680396	0.001559797	-0.001125473	0.04672509	-0.03371456	0	0
33.31038	-0.05937749	-0.01682288	0.001606831	-0.001159411	0.00141967	-0.001024365	0	0
33.32695	-0.05937749	-0.01682288	0	0	-0.04885989	0.03525492	0	0
33.3436	-0.05937749	-0.01682288	0	0	0	0	0	0
33.36011	-0.05937749	-0.01682288	0	0	0	0	0	0
33.37665	-0.05937749	-0.01682288	0	0	0	0	0	0
33.39322	-0.05937749	-0.01682288	0	0	0	0	0	0
33.40979	-0.05937749	-0.01682288	0	0	0	0	0	0
33.42635	-0.05937749	-0.01682288	0	0	0	0	0	0
33.44292	-0.05937749	-0.01682288	0	0	0	0	0	0
33.45949	-0.05937749	-0.01682288	0	0	0	0	0	0
33.47606	-0.05937749	-0.01682288	0	0	0	0	0	0
33.49838	-0.05937749	-0.01682288	0	0	0	0	0	0
33.51495	-0.05937749	-0.01682288	0	0	0	0	0	0
33.53152	-0.05937749	-0.01682288	0	0	0	0	0	0
33.54808	-0.05937749	-0.01682288	0	0	0	0	0	0
33.56476	-0.05937749	-0.01682288	0	0	0	0	0	0
33.58122	-0.05937749	-0.01682288	0	0	0	0	0	0
33.59779	-0.05940371	-0.01680396	-0.001582782	0.001142059	-0.04792295	0.03457887	0	0
33.61435	-0.05940371	-0.01680396	0	0	0.04776846	-0.0344674	0	0
33.64756	-0.05940371	-0.01680396	0	0	0	0	0	0
33.66413	-0.05940371	-0.01680396	0	0	0	0	0	0
33.68084	-0.05940371	-0.01680396	0	0	0	0	0	0
33.69735	-0.05940371	-0.01680396	0	0	0	0	0	0
33.71386	-0.05940371	-0.01680396	0	0	0	0	0	0
33.7304	-0.05942993	-0.01678504	-0.001586069	0.00114443	-0.04800029	0.03463467	0	0
33.74696	-0.05945616	-0.01676612	-0.001583007	0.001142059	9.250586E-05	-7.164614E-05	0	0
33.7639	-0.05948238	-0.0167472	-0.001548552	0.00111725	0.001028483	-0.0007405464	0	0
33.81108	-0.0595086	-0.01672828	-0.0005557461	0.0004009994	0.01548418	-0.01117092	0	0
33.82794	-0.0595086	-0.01672828	0	0	0.008677438	-0.006261217	0	0
33.86078	-0.0595086	-0.01672828	0	0	0	0	0	0
33.87735	-0.0595086	-0.01672828	0	0	0	0	0	0
33.89391	-0.0595086	-0.01672828	0	0	0	0	0	0
33.91048	-0.0595086	-0.01672828	0	0	0	0	0	0
33.92751	-0.05953483	-0.01670936	-0.00153988	0.001110993	-0.04583516	0.03306917	0	0
33.94361	-0.05953483	-0.01670936	0	0	0.04647367	-0.03352983	0	0
33.96018	-0.05953483	-0.01670936	0	0	0	0	0	0
33.97675	-0.05953483	-0.01670936	0	0	0	0	0	0
33.99355	-0.05953483	-0.01670936	0	0	0	0	0	0
34.00988	-0.05953483	-0.01670936	0	0	0	0	0	0
34.02644	-0.05953483	-0.01670936	0	0	0	0	0	0
34.04301	-0.05953483	-0.01670936	0	0	0	0	0	0
34.0596	-0.05953483	-0.01670936	0	0	0	0	0	0
34.07615	-0.05953483	-0.01670936	0	0	0	0	0	0
34.09312	-0.05953483	-0.01670936	0	0	0	0	0	0
34.10928	-0.05953483	-0.01670936	0	0	0	0	0	0
34.12584	-0.05953483	-0.01670936	0	0	0	0	0	0
34.14241	-0.05953483	-0.01670936	0	0	0	0	0	0
34.15898	-0.05953483	-0.01670936	0	0	0	0	0	0
34.17554	-0.05953483	-0.01670936	0	0	0	0	0	0
34.19211	-0.05956105	-0.01669044	-0.001582782	0.001142059	-0.04777946	0.03447534	0	0
34.20868	-0.05958727	-0.01667152	-0.001582782	0.001141946	0	-3.393965E-06	0	0
34.22524	-0.05963971	-0.01659585	-0.003165564	0.004567897	-0.04776846	0.1033954	0	0
34.24181	-0.05966594	-0.01657693	-0.001582782	0.001142059	0.04776846	-0.103392	0	0
34.25838	-0.05966594	-0.01657693	0	0	0.04776846	-0.0344674	0	0
34.27494	-0.05966594	-0.01657693	0	0	0	0	0	0
34.29151	-0.05966594	-0.01657693	0	0	0	0	0	0
34.30828	-0.05966594	-0.01657693	0	0	0	0	0	0
34.32479	-0.05966594	-0.01657693	0	0	0	0	0	0
34.3413	-0.05963971	-0.01659585	0.001588268	-0.001146017	0.04810015	-0.03470673	0	0
34.35781	-0.05963971	-0.01659585	0	0	-0.04809459	0.03470272	0	0
34.37435	-0.05963971	-0.01659585	0	0	0	0	0	0
34.39091	-0.05963971	-0.01659585	0	0	0	0	0	0
34.40748	-0.05963971	-0.01659585	0	0	0	0	0	0
34.44061	-0.05963971	-0.01659585	0	0	0	0	0	0
34.45718	-0.05963971	-0.01659585	0	0	0	0	0	0
34.47375	-0.05963971	-0.01659585	0	0	0	0	0	0
34.49041	-0.05963971	-0.01659585	0	0	0	0	0	0
34.50692	-0.05963971	-0.01659585	0	0	0	0	0	0
34.52345	-0.05963971	-0.01659585	0	0	0	0	0	0
34.54001	-0.05963971	-0.01659585	0	0	0	0	0	0
34.55658	-0.05963971	-0.01659585	0	0	0	0	0	0
34.57315	-0.05963971	-0.01659585	0	0	0	0	0	0
34.58971	-0.05963971	-0.01659585	0	0	0	0	0	0
34.60649	-0.05963971	-0.01659585	0	0	0	0	0	0
34.63941	-0.05963971	-0.01659585	0	0	0	0	0	0
34.65602	-0.05963971	-0.01659585	0	0	0	0	0	0
34.67255	-0.05963971	-0.01659585	0	0	0	0	0	0
34.68911	-0.05963971	-0.01659585	0	0	0	0	0	0
34.70568	-0.05963971	-0.01659585	0	0	0	0	0	0
34.72224	-0.05963971	-0.01659585	0	0	0	0	0	0
34.73881	-0.05963971	-0.01659585	0	0	0	0	0	0
34.75537	-0.05963971	-0.01659585	0	0	0	0	0	0
34.77211	-0.05963971	-0.01659585	0	0	0	0	0	0
34.78851	-0.05963971	-0.01659585	0	0	0	0	0	0
34.80513	-0.05963971	-0.01659585	0	0	0	0	0	0
34.82164	-0.05963971	-0.01659585	0	0	0	0	0	0
34.83821	-0.05961349	-0.01661476	0.001582782	-0.001141946	0.04784558	-0.03451965	0	0
34.85478	-0.05961349	-0.01661476	0	0	-0.04776846	0.03446401	0	0
34.88791	-0.05958727	-0.01663368	0.0007914823	-0.0005710389	0.01592588	-0.01149021	0	0
34.90448	-0.05958727	-0.01667152	0	-0.002284005	-0.01592588	-0.03446759	0	0
34.92104	-0.05956105	-0.01672828	0.001582782	-0.003425951	0.04776846	-0.03446401	0	0
34.93761	-0.05953483	-0.0167472	0.001582782	-0.001142059	0	0.06892802	0	0
34.95423	-0.05945616	-0.0168418	0.004733089	-0.005691833	0.09492346	-0.1370915	0	0
34.97074	-0.05942993	-0.01686073	0.001588494	-0.001146017	-0.09491502	0.1372088	0	0
34.98731	-0.05942993	-0.01689857	0	-0.002284118	-0.04802376	-0.03440736	0	0
35.04111	-0.05940371	-0.01695533	0.0004874157	-0.001055086	0.006926873	0.01746629	0	0
35.05767	-0.05942993	-0.01697425	-0.001582782	-0.001142171	-0.02942047	-0.001237598	0	0
35.07431	-0.05940371	-0.01699317	0.001575888	-0.001137084	0.0951208	0.0001531909	0	0
35.09082	-0.05942993	-0.01701209	-0.001588268	-0.001146017	-0.09545046	-0.0002694678	0	0
35.12435	-0.05945616	-0.0171067	-0.0007823168	-0.00282223	0.01610821	-0.03350177	0	0
35.14051	-0.05945616	-0.01714455	0	-0.002341929	0.01574629	0.009667394	0	0
35.15707	-0.05942993	-0.01723916	0.001583007	-0.005710856	0.04837112	-0.1029425	0	0
35.17364	-0.05940371	-0.01729593	0.001582782	-0.003426626	-6.78793E-06	0.06893819	0	0
35.1904	-0.05932504	-0.01739055	0.004694303	-0.00564619	0.0933684	-0.06660318	0	0
35.20678	-0.05929882	-0.01740947	0.001601444	-0.001155588	-0.09334265	0.1355266	0	0
35.22334	-0.05667608	-0.01934031	0.1583088	-0.1165454	4.75682	-3.502635	0	0
