Time	Pos X	Pos Y	Vel X	Vel Y	Acc X	Acc YForce X	Force Y
0.0163133	-0.03070088	-0.01829903	0.0004796657	0.0002859011	-7.496192E-06	-4.468049E-06	0	0
0.09386079	-0.03070088	-0.01829903	0	0	7.503313E-06	4.472293E-06	0	0
0.1104311	-0.03070088	-0.01829903	0	0	0	0	0	0
0.126997	-0.03070088	-0.01829903	0	0	0	0	0	0
0.1435641	-0.03070088	-0.01829903	0	0	0	0	0	0
0.1601317	-0.03070088	-0.01829903	0	0	0	0	0	0
0.1766968	-0.03070088	-0.01829903	0	0	0	0	0	0
0.2266576	-0.03070088	-0.01829903	0	0	0	0	0	0
0.2429638	-0.03070088	-0.01829903	0	0	0	0	0	0
0.2595297	-0.03070088	-0.01829903	0	0	0	0	0	0
0.2760972	-0.03070088	-0.01829903	0	0	0	0	0	0
0.292662	-0.03070088	-0.01829903	0	0	0	0	0	0
0.3092291	-0.03067459	-0.01831795	0.001586951	-0.001142515	0.04789797	-0.03448383	0	0
0.3262309	-0.03070088	-0.01829903	-0.001546384	0.001113309	-0.09334045	0.06719983	0	0
0.3423642	-0.03070088	-0.01829903	0	0	0.04666917	-0.03359916	0	0
0.3790121	-0.03070088	-0.01829903	0	0	0	0	0	0
0.3957743	-0.03070088	-0.01829903	0	0	0	0	0	0
0.4121436	-0.03070088	-0.01829903	0	0	0	0	0	0
0.4287108	-0.03070088	-0.01829903	0	0	0	0	0	0
0.4453182	-0.03070088	-0.01829903	0	0	0	0	0	0
0.4618438	-0.03070088	-0.01829903	0	0	0	0	0	0
0.478411	-0.03070088	-0.01829903	0	0	0	0	0	0
0.4949769	-0.03070088	-0.01829903	0	0	0	0	0	0
0.5115437	-0.03070088	-0.01829903	0	0	0	0	0	0
0.5281108	-0.03070088	-0.01829903	0	0	0	0	0	0
0.5446771	-0.03067459	-0.01831795	0.001587028	-0.00114257	0.04789806	-0.03448389	0	0
0.5612435	-0.03067459	-0.01831795	0	0	-0.04789918	0.03448469	0	0
0.5778137	-0.03067459	-0.01831795	0	0	0	0	0	0
0.5943773	-0.03067459	-0.01831795	0	0	0	0	0	0
0.6109456	-0.03067459	-0.01831795	0	0	0	0	0	0
0.6275116	-0.03067459	-0.01831795	0	0	0	0	0	0
0.6440775	-0.03067459	-0.01831795	0	0	0	0	0	0
0.6606438	-0.03067459	-0.01831795	0	0	0	0	0	0
0.6774786	-0.03067459	-0.01831795	0	0	0	0	0	0
0.6937789	-0.03067459	-0.01831795	0	0	0	0	0	0
0.7104996	-0.03067459	-0.01831795	0	0	0	0	0	0
0.7269108	-0.03067459	-0.01831795	0	0	0	0	0	0
0.7434779	-0.03067459	-0.01831795	0	0	0	0	0	0
0.7600438	-0.03067459	-0.01831795	0	0	0	0	0	0
0.7766117	-0.03067459	-0.01831795	0	0	0	0	0	0
0.7931769	-0.03067459	-0.01831795	0	0	0	0	0	0
0.8097436	-0.03067459	-0.01831795	0	0	0	0	0	0
0.8263108	-0.03067459	-0.01831795	0	0	0	0	0	0
0.8430914	-0.03067459	-0.01831795	0	0	0	0	0	0
0.8594438	-0.03067459	-0.01831795	0	0	0	0	0	0
0.8760105	-0.03064829	-0.01833688	0.001586988	-0.001142654	0.04820871	-0.03471095	0	0
0.9104139	-0.03064829	-0.01833688	0	0	-0.03113564	0.0224181	0	0
0.9269814	-0.03064829	-0.01833688	0	0	0	0	0	0
0.9435482	-0.03064829	-0.01833688	0	0	0	0	0	0
0.9601749	-0.03064829	-0.01833688	0	0	0	0	0	0
0.9766856	-0.03064829	-0.01833688	0	0	0	0	0	0
0.9932488	-0.03064829	-0.01833688	0	0	0	0	0	0
1.01021	-0.03064829	-0.01833688	0	0	0	0	0	0
1.026382	-0.03064829	-0.01833688	0	0	0	0	0	0
1.042949	-0.03064829	-0.01833688	0	0	0	0	0	0
1.064499	-0.030622	-0.01835581	0.001219981	-0.0008784033	0.03200627	-0.02304496	0	0
1.081261	-0.030622	-0.01835581	0	0	-0.03184304	0.02292744	0	0
1.147333	-0.03059571	-0.01837474	0.0003979159	-0.0002864769	0.004803768	-0.003458441	0	0
1.1639	-0.03059571	-0.01837474	0	0	-0.004815104	0.003466602	0	0
1.180466	-0.03059571	-0.01837474	0	0	0	0	0	0
1.197034	-0.03059571	-0.01837474	0	0	0	0	0	0
1.2136	-0.03059571	-0.01837474	0	0	0	0	0	0
1.230167	-0.03059571	-0.01837474	0	0	0	0	0	0
1.246885	-0.03059571	-0.01837474	0	0	0	0	0	0
1.263387	-0.03059571	-0.01837474	0	0	0	0	0	0
1.279867	-0.03059571	-0.01837474	0	0	0	0	0	0
1.296435	-0.03059571	-0.01837474	0	0	0	0	0	0
1.313424	-0.03059571	-0.01837474	0	0	0	0	0	0
1.329935	-0.03059571	-0.01837474	0	0	0	0	0	0
1.346134	-0.03059571	-0.01837474	0	0	0	0	0	0
1.362957	-0.03059571	-0.01837474	0	0	0	0	0	0
1.379469	-0.03059571	-0.01837474	0	0	0	0	0	0
1.395835	-0.03059571	-0.01837474	0	0	0	0	0	0
1.412493	-0.03059571	-0.01837474	0	0	0	0	0	0
1.429005	-0.03056942	-0.01839367	0.001592224	-0.001146424	0.04800229	-0.03456233	0	0
1.445534	-0.03056942	-0.01839367	0	0	-0.04818968	0.03469725	0	0
1.4621	-0.03056942	-0.01839367	0	0	0	0	0	0
1.478667	-0.03056942	-0.01839367	0	0	0	0	0	0
1.495235	-0.03056942	-0.01839367	0	0	0	0	0	0
1.511801	-0.03056942	-0.01839367	0	0	0	0	0	0
1.528367	-0.03056942	-0.01839367	0	0	0	0	0	0
1.544934	-0.03056942	-0.01839367	0	0	0	0	0	0
1.561599	-0.03056942	-0.01839367	0	0	0	0	0	0
1.578069	-0.03056942	-0.01839367	0	0	0	0	0	0
1.594634	-0.03056942	-0.01839367	0	0	0	0	0	0
1.611201	-0.03056942	-0.01839367	0	0	0	0	0	0
1.627768	-0.03056942	-0.01839367	0	0	0	0	0	0
1.644334	-0.03056942	-0.01839367	0	0	0	0	0	0
1.660901	-0.03056942	-0.01839367	0	0	0	0	0	0
1.677468	-0.03056942	-0.01839367	0	0	0	0	0	0
1.694034	-0.03056942	-0.01839367	0	0	0	0	0	0
1.710601	-0.03056942	-0.01839367	0	0	0	0	0	0
1.727167	-0.03056942	-0.01839367	0	0	0	0	0	0
1.859701	-0.03056942	-0.01839367	0	0	0	0	0	0
1.876325	-0.03056942	-0.01839367	0	0	0	0	0	0
1.892834	-0.03056942	-0.01839367	0	0	0	0	0	0
1.909403	-0.03056942	-0.01839367	0	0	0	0	0	0
1.930883	-0.03056942	-0.01839367	0	0	0	0	0	0
1.94745	-0.03056942	-0.01839367	0	0	0	0	0	0
1.964017	-0.03056942	-0.01839367	0	0	0	0	0	0
1.980584	-0.03056942	-0.01839367	0	0	0	0	0	0
1.997406	-0.03056942	-0.01839367	0	0	0	0	0	0
2.013921	-0.03056942	-0.01839367	0	0	0	0	0	0
2.030284	-0.03056942	-0.01839367	0	0	0	0	0	0
2.047442	-0.03056942	-0.01839367	0	0	0	0	0	0
2.06342	-0.03056942	-0.01839367	0	0	0	0	0	0
2.079984	-0.03056942	-0.01839367	0	0	0	0	0	0
2.09655	-0.03056942	-0.01839367	0	0	0	0	0	0
2.113492	-0.03056942	-0.01839367	0	0	0	0	0	0
2.129686	-0.03056942	-0.01839367	0	0	0	0	0	0
2.146253	-0.03056942	-0.01839367	0	0	0	0	0	0
2.162817	-0.03056942	-0.01839367	0	0	0	0	0	0
2.179536	-0.03056942	-0.01839367	0	0	0	0	0	0
2.196049	-0.03056942	-0.01839367	0	0	0	0	0	0
2.212517	-0.03056942	-0.01839367	0	0	0	0	0	0
2.229084	-0.03056942	-0.01843153	0	-0.002285242	0	-0.0691748	0	0
2.246087	-0.03056942	-0.01843153	0	0	0	0.06807527	0	0
2.262596	-0.03056942	-0.01843153	0	0	0	0	0	0
2.278785	-0.03056942	-0.01843153	0	0	0	0	0	0
2.295351	-0.03056942	-0.01843153	0	0	0	0	0	0
2.312129	-0.03056942	-0.01843153	0	0	0	0	0	0
2.328484	-0.03056942	-0.01843153	0	0	0	0	0	0
2.345053	-0.03056942	-0.01843153	0	0	0	0	0	0
2.361617	-0.03056942	-0.01843153	0	0	0	0	0	0
2.378184	-0.03056942	-0.01843153	0	0	0	0	0	0
2.394751	-0.03056942	-0.01843153	0	0	0	0	0	0
2.411317	-0.03056942	-0.01843153	0	0	0	0	0	0
2.444451	-0.03056942	-0.01839367	0	0.001142654	0	0.02299112	0	0
2.461234	-0.03056942	-0.01839367	0	0	0	-0.02289108	0	0
2.477584	-0.03056942	-0.01839367	0	0	0	0	0	0
2.494151	-0.03054313	-0.0184126	0.001586988	-0.001142654	0.04821212	-0.03471341	0	0
2.510769	-0.03054313	-0.0184126	0	0	-0.04782313	0.03443333	0	0
2.527286	-0.03054313	-0.0184126	0	0	0	0	0	0
2.593552	-0.03054313	-0.0184126	0	0	0	0	0	0
2.610118	-0.03054313	-0.0184126	0	0	0	0	0	0
2.626685	-0.03054313	-0.0184126	0	0	0	0	0	0
2.643363	-0.03054313	-0.0184126	0	0	0	0	0	0
2.659818	-0.03054313	-0.0184126	0	0	0	0	0	0
2.676387	-0.03054313	-0.0184126	0	0	0	0	0	0
2.692951	-0.03056942	-0.01839367	-0.001587262	0.001142851	-0.04790573	0.0344928	0	0
2.709517	-0.03056942	-0.01839367	0	0	0.04790986	-0.03449578	0	0
2.728783	-0.03056942	-0.01839367	0	0	0	0	0	0
2.74535	-0.03056942	-0.01839367	0	0	0	0	0	0
2.79505	-0.03059571	-0.01837474	-0.000529001	0.0003808882	-0.007982842	0.00574776	0	0
2.811617	-0.03059571	-0.01837474	0	0	0.007982928	-0.005747822	0	0
2.828183	-0.03059571	-0.01837474	0	0	0	0	0	0
2.84475	-0.03059571	-0.01837474	0	0	0	0	0	0
2.861517	-0.03059571	-0.01837474	0	0	0	0	0	0
2.877883	-0.030622	-0.01835581	-0.001606431	0.001156539	-0.04848357	0.03490542	0	0
2.89445	-0.030622	-0.01835581	0	0	0.04877876	-0.03511794	0	0
2.911052	-0.030622	-0.01835581	0	0	0	0	0	0
2.927606	-0.03064829	-0.01833688	-0.001588268	0.001143575	-0.04790334	0.03449109	0	0
2.944151	-0.03070088	-0.01829903	-0.003178046	0.002288126	-0.0480311	0.03457967	0	0
2.960717	-0.03075346	-0.01822331	-0.003174113	0.004570588	0.0001188006	0.06893245	0	0
2.977284	-0.03080604	-0.01818545	-0.003173772	0.002285129	1.028064E-05	-0.06897775	0	0
2.993851	-0.03104266	-0.01793939	-0.01428296	0.01485324	-0.3352857	0.3793173	0	0
3.010417	-0.03148959	-0.01757979	-0.02697767	0.02170581	-0.3831435	0.20682	0	0
3.026983	-0.03443375	-0.01493139	-0.1777229	0.1598693	-4.549728	4.169993	0	0
3.043649	-0.03992614	-0.01049077	-0.329567	0.2664566	-4.569284	3.207418	0	0
3.060166	-0.04961714	-0.002625935	-0.5867146	0.4761546	-7.749409	6.319468	0	0
3.076684	-0.05717446	0.005652487	-0.457524	0.5011795	3.910686	0.7575202	0	0
3.093251	-0.06344107	0.01655292	-0.3782639	0.6579705	2.395676	4.739089	0	0
3.109818	-0.06794787	0.03527296	-0.2720391	1.129976	3.205965	14.24557	0	0
3.126705	-0.06875985	0.04043112	-0.04808256	0.3054481	6.694473	-24.64666	0	0
3.159518	-0.07255661	0.07962833	-0.1157106	1.194578	-1.36073	17.89002	0	0
3.176084	-0.07457199	0.1028033	-0.1216553	1.398921	-0.1203895	4.138269	0	0
3.19275	-0.07601117	0.1254984	-0.08635067	1.361713	1.062338	-1.119629	0	0
3.209264	-0.0768222	0.1475845	-0.04911449	1.337489	1.122256	-0.730085	0	0
3.242351	-0.07705764	0.1678827	-0.007115804	0.6134651	0.8467334	-14.597	0	0
3.258917	-0.0752262	0.1929704	0.1105545	1.514405	2.369816	18.14443	0	0
3.275485	-0.07365599	0.2031031	0.09477669	0.6116004	-0.4761881	-27.24747	0	0
3.292052	-0.07279221	0.2117288	0.0521391	0.5206679	-1.286814	-2.74437	0	0
3.308618	-0.07198069	0.2182957	0.0489861	0.396397	-0.09516195	-3.750663	0	0
3.325346	-0.07035736	0.223258	0.09704465	0.2966525	1.443462	-2.995873	0	0
3.341751	-0.06750255	0.225181	0.174017	0.1172212	2.323131	-5.415481	0	0
3.358371	-0.06750255	0.225181	0	0	-5.269247	-3.549466	0	0
3.374884	-0.06750255	0.225181	0	0	0	0	0	0
3.391451	-0.06752875	0.225199	-0.001581254	0.001084751	-0.04780007	0.03279117	0	0
3.408017	-0.06752875	0.2252349	0	0.002169564	0.0477244	0.03274114	0	0
3.424585	-0.06752875	0.2256662	0	0.02603237	0	0.7202017	0	0
3.441151	-0.06894319	0.2268521	-0.08538072	0.07158662	-2.576869	1.37487	0	0
3.457942	-0.07593267	0.2316482	-0.4162672	0.2856349	-9.919507	6.416866	0	0
3.474285	-0.0821829	0.2359752	-0.3824322	0.2647568	1.021149	-0.6301088	0	0
3.490963	-0.08874001	0.2406233	-0.3931573	0.2786961	-0.3247913	0.4221284	0	0
3.510612	-0.09661927	0.2462558	-0.4010096	0.2866596	-0.2161577	0.2192195	0	0
3.527179	-0.1012838	0.2499315	-0.2815608	0.2218711	3.298295	-1.788979	0	0
3.543745	-0.1011015	0.2551113	0.01100581	0.3126664	8.829931	2.740285	0	0
3.560514	-0.09893905	0.2590351	0.128953	0.2339873	3.538139	-2.360188	0	0
3.577024	-0.09609783	0.2614174	0.1721011	0.1443049	1.296588	-2.694928	0	0
3.593446	-0.09568063	0.261704	0.0254035	0.01745013	-4.454587	-3.852045	0	0
3.610012	-0.09568063	0.2616682	0	-0.002162399	-0.7700647	-0.5945211	0	0
3.626746	-0.09565455	0.2616503	0.001558315	-0.00107034	0.04679601	0.03279443	0	0
3.64357	-0.09560241	0.2616145	0.003099536	-0.002129243	0.04592691	-0.03155429	0	0
3.659882	-0.09557633	0.2615966	0.001598676	-0.001098062	-0.04529442	0.03111997	0	0
3.676448	-0.09560241	0.2615786	-0.001574171	-0.001081231	-0.09650598	0.0005119381	0	0
3.693014	-0.09557633	0.2615607	0.001574058	-0.001081153	0.0950199	2.347118E-06	0	0
3.709619	-0.09555025	0.2615428	0.00157051	-0.001078716	-0.0001069748	7.34761E-05	0	0
3.726629	-0.09555025	0.261507	0	-0.002105846	-0.04672034	-0.0305556	0	0
3.742714	-0.09555025	0.2614712	0	-0.002227114	0	-0.003664172	0	0
3.759283	-0.09555025	0.2614712	0	0	0	0.0682038	0	0
3.776164	-0.0954981	0.2614354	0.003089515	-0.002122055	0.09236183	-0.06343938	0	0
3.792414	-0.0954981	0.2613995	0	-0.002204437	-0.09325114	-0.00248653	0	0
3.808982	-0.0954981	0.2613995	0	0	0	0.06717288	0	0
3.825547	-0.0954981	0.2613995	0	0	0	0	0	0
3.842114	-0.0954981	0.2613995	0	0	0	0	0	0
3.858725	-0.0954981	0.2613637	0	-0.002156595	0	-0.06499965	0	0
3.875248	-0.09552418	0.26131	-0.001578237	-0.003252071	-0.04763267	-0.03306246	0	0
3.891814	-0.0954981	0.2611846	0.001574103	-0.007568289	0.09526808	-0.1304421	0	0
3.908381	-0.0954981	0.2609338	0	-0.01513614	-0.04750859	-0.2284081	0	0
3.924948	-0.09570671	0.2607189	-0.01259165	-0.01297346	-0.3800223	0.06527072	0	0
3.941514	-0.09591531	0.260504	-0.01259211	-0.0129744	-1.377311E-05	-2.81646E-05	0	0
3.958295	-0.09607175	0.2603607	-0.009322785	-0.008539115	0.09804124	0.1330062	0	0
3.974648	-0.09617604	0.2601457	-0.006377384	-0.01314475	0.08889367	-0.1390005	0	0
3.991215	-0.09599353	0.2599845	0.01101661	-0.009730377	0.5283657	0.1037163	0	0
4.00783	-0.09541987	0.2595546	0.0345276	-0.02587642	0.7085589	-0.4865987	0	0
4.024348	-0.09521125	0.2593038	0.01262954	-0.01518251	-0.6609181	0.3227589	0	0
4.040914	-0.09526341	0.259268	-0.003148207	-0.002162368	-0.4768941	0.3935435	0	0
4.057485	-0.09536771	0.2591963	-0.006294602	-0.004323492	-0.09495018	-0.06521722	0	0
4.074377	-0.09539379	0.2591784	-0.001543798	-0.001060369	0.1419739	0.09751576	0	0
4.090615	-0.09547202	0.2590888	-0.004817716	-0.005516973	-0.09882126	-0.1345199	0	0
4.107181	-0.09562848	0.2589814	-0.009444171	-0.006487105	-0.1410311	-0.02957315	0	0
4.123747	-0.09568063	0.2589097	-0.003148207	-0.004326535	0.1900235	0.06520987	0	0
4.140422	-0.09573279	0.2588022	-0.00312777	-0.006444994	0.0006148011	-0.06373069	0	0
4.156932	-0.09578493	0.2587306	-0.003158394	-0.004341155	-0.0009228048	0.06339728	0	0
4.17345	-0.09594138	0.2580498	-0.009471255	-0.041212	-0.1911332	-1.116331	0	0
4.190015	-0.09609783	0.2570465	-0.009444809	-0.06057128	0.000799419	-0.5851819	0	0
4.208873	-0.09794872	0.2475648	-0.09814893	-0.5027941	-2.504187	-12.4843	0	0
4.225482	-0.09880876	0.2345211	-0.05177965	-0.7853078	1.307369	-7.965396	0	0
4.242007	-0.09932993	0.2236354	-0.03153947	-0.6587687	0.6108587	3.819013	0	0
4.258573	-0.09860028	0.198399	0.04404431	-1.523361	2.284147	-26.12803	0	0
4.275143	-0.09708852	0.1777446	0.09123643	-1.246522	1.4242	8.354632	0	0
4.292032	-0.09458534	0.149474	0.1482127	-1.673896	1.702884	-12.77316	0	0
4.308276	-0.09252454	0.1281981	0.1268663	-1.309774	-0.6442636	10.98971	0	0
4.32484	-0.08981039	0.1005113	0.1638547	-1.671471	1.127409	-11.02456	0	0
4.341564	-0.0874344	0.07437345	0.1420734	-1.562929	-0.6543296	3.260697	0	0
4.358077	-0.08691208	0.06835449	0.03163126	-0.3645011	-3.322916	36.05757	0	0
4.374592	-0.08557993	0.05208083	0.08066172	-0.9853711	1.484506	-18.79822	0	0
4.391108	-0.08309767	0.03603689	0.1502922	-0.9714057	2.108006	0.4227917	0	0
4.407673	-0.07969924	0.02521515	0.2051535	-0.653277	1.658364	9.616503	0	0
4.424241	-0.07742387	0.02366387	0.1373416	-0.09363566	-2.046684	16.89098	0	0
4.44081	-0.07588034	0.02271033	0.09315421	-0.05754707	-1.333482	1.089077	0	0
4.457375	-0.07577568	0.02259813	0.006318279	-0.006773472	-2.620751	1.532372	0	0
4.473942	-0.07561869	0.02248593	0.009475734	-0.00677222	0.09529904	3.779308E-05	0	0
4.490508	-0.07548787	0.02239243	0.007897279	-0.005644335	-0.04763923	0.03404062	0	0
4.507181	-0.07433645	0.02153208	0.06906013	-0.05160238	1.840126	-1.382679	0	0
4.523693	-0.07368216	0.02098959	0.03962563	-0.032855	-0.8869947	0.5649433	0	0
4.540208	-0.07352512	0.02083992	0.009508987	-0.009062477	-0.9118747	0.7203925	0	0
4.556775	-0.07342042	0.02076508	0.006319436	-0.004517192	-0.09641206	0.1373925	0	0
4.573343	-0.07339425	0.02074637	0.001579768	-0.001129289	-0.1430394	0.1022442	0	0
4.589911	-0.07339425	0.02074637	0	0	-0.04767612	0.03408103	0	0
4.606476	-0.07339425	0.02074637	0	0	0	0	0	0
4.623042	-0.07339425	0.02074637	0	0	0	0	0	0
4.639775	-0.07339425	0.02074637	0	0	0	0	0	0
4.656287	-0.07339425	0.02074637	0	0	0	0	0	0
4.672742	-0.07336807	0.02072766	0.001590618	-0.001137045	0.04824865	-0.0344903	0	0
4.68931	-0.07336807	0.02072766	0	0	-0.04816784	0.03443253	0	0
4.705875	-0.07336807	0.02072766	0	0	0	0	0	0
4.722442	-0.07336807	0.02072766	0	0	0	0	0	0
4.739008	-0.07336807	0.02072766	0	0	0	0	0	0
4.755575	-0.07336807	0.02072766	0	0	0	0	0	0
4.772141	-0.07336807	0.02072766	0	0	0	0	0	0
4.788883	-0.07339425	0.02070895	-0.001563435	-0.001117502	-0.04693934	-0.033551	0	0
4.805392	-0.07339425	0.02070895	0	0	0.04701944	0.03360826	0	0
4.821903	-0.07339425	0.02070895	0	0	0	0	0	0
4.838418	-0.07339425	0.02070895	0	0	0	0	0	0
4.854975	-0.07339425	0.02070895	0	0	0	0	0	0
4.871541	-0.07339425	0.02070895	0	0	0	0	0	0
4.888109	-0.07339425	0.02070895	0	0	0	0	0	0
4.92359	-0.0733419	0.02067153	0.001475356	-0.001054651	0.02834544	-0.02026259	0	0
4.940157	-0.07328955	0.02059669	0.003159809	-0.004517547	0.03236333	-0.06653248	0	0
4.957	-0.0732372	0.02029731	0.003108456	-0.01777487	-0.001537084	-0.3968117	0	0
5.017682	-0.06810503	0.008188383	0.08457494	-0.1995478	1.050846	-2.344712	0	0
5.034561	-0.06058366	0.002832595	0.4455906	-0.3172943	4.65458	-1.518107	0	0
5.050817	-0.05701708	0.0002738452	0.2194029	-0.1574048	-6.826161	4.825336	0	0
5.083951	-0.04567873	-0.007867058	0.342197	-0.2456965	2.486222	-1.787649	0	0
5.100516	-0.04286846	-0.009886563	0.169648	-0.1219116	-3.47186	2.490676	0	0
5.117082	-0.04239563	-0.01022642	0.02854224	-0.02051537	-4.259008	3.060452	0	0
5.133649	-0.04184398	-0.01062296	0.03329875	-0.02393591	0.14356	-0.103238	0	0
5.150638	-0.0396634	-0.01219071	0.1283509	-0.09227933	2.832645	-2.036698	0	0
5.166783	-0.03811311	-0.0133056	0.09602398	-0.06905599	-0.9756438	0.7008919	0	0
5.183349	-0.03761383	-0.01366472	0.03013846	-0.02167748	-2.014168	1.448395	0	0
5.199917	-0.03758755	-0.01368362	0.001586064	-0.001140869	-0.861713	0.6197963	0	0
5.216682	-0.03758755	-0.01368362	0	0	-0.04758196	0.0342261	0	0
5.233193	-0.03758755	-0.01368362	0	0	0	0	0	0
5.249616	-0.03758755	-0.01368362	0	0	0	0	0	0
5.266216	-0.03758755	-0.01368362	0	0	0	0	0	0
5.282749	-0.03758755	-0.01368362	0	0	0	0	0	0
5.299317	-0.03758755	-0.01368362	0	0	0	0	0	0
5.31626	-0.03758755	-0.01368362	0	0	0	0	0	0
5.332449	-0.03758755	-0.01368362	0	0	0	0	0	0
5.349016	-0.03758755	-0.01368362	0	0	0	0	0	0
5.365787	-0.03758755	-0.01368362	0	0	0	0	0	0
5.431849	-0.03753499	-0.01372143	0.0007956241	-0.0005722584	0.00960518	-0.006908595	0	0
5.448415	-0.03753499	-0.01372143	0	0	-0.00962896	0.006925699	0	0
5.465357	-0.03753499	-0.01372143	0	0	0	0	0	0
5.481869	-0.03753499	-0.01372143	0	0	0	0	0	0
5.498118	-0.03753499	-0.01372143	0	0	0	0	0	0
5.514682	-0.03750871	-0.01374033	0.001586475	-0.001141164	0.04834887	-0.03477773	0	0
5.531404	-0.03750871	-0.01374033	0	0	-0.04766316	0.0342845	0	0
5.547916	-0.03748244	-0.01375923	0.001591377	-0.00114469	0.04788382	-0.03444323	0	0
5.564427	-0.03748244	-0.01375923	0	0	-0.04818943	0.03466305	0	0
5.580951	-0.03748244	-0.01375923	0	0	0	0	0	0
5.597517	-0.03745616	-0.01377813	0.001586292	-0.001141033	0.04793924	-0.03448309	0	0
5.614082	-0.03745616	-0.01377813	0	0	-0.04787853	0.03443941	0	0
5.630975	-0.03745616	-0.01377813	0	0	0	0	0	0
5.647486	-0.03745616	-0.01377813	0	0	0	0	0	0
5.664	-0.03742988	-0.01379703	0.001591331	-0.001144714	0.04818595	-0.03466225	0	0
5.680349	-0.03742988	-0.01379703	0	0	-0.04842297	0.03483275	0	0
5.69703	-0.03742988	-0.01379703	0	0	0	0	0	0
5.713484	-0.03742988	-0.01379703	0	0	0	0	0	0
5.73005	-0.03742988	-0.01379703	0	0	0	0	0	0
5.750647	-0.03742988	-0.01379703	0	0	0	0	0	0
5.767215	-0.03742988	-0.01379703	0	0	0	0	0	0
5.784086	-0.03742988	-0.01379703	0	0	0	0	0	0
5.800348	-0.03742988	-0.01379703	0	0	0	0	0	0
5.816916	-0.03742988	-0.01379703	0	0	0	0	0	0
5.833481	-0.03742988	-0.01379703	0	0	0	0	0	0
5.85013	-0.03742988	-0.01379703	0	0	0	0	0	0
5.883652	-0.03742988	-0.01379703	0	0	0	0	0	0
5.900164	-0.0374036	-0.01381594	0.001591648	-0.001144723	0.0318113	-0.02287889	0	0
5.916316	-0.0374036	-0.01381594	0	0	-0.04872817	0.03504561	0	0
5.932881	-0.0374036	-0.01381594	0	0	0	0	0	0
5.949731	-0.0374036	-0.01381594	0	0	0	0	0	0
5.96621	-0.03737732	-0.01383484	0.0015946	-0.001147065	0.04784352	-0.03441593	0	0
5.982722	-0.03732476	-0.01387265	0.003183029	-0.002289692	0.04814745	-0.03463456	0	0
6.003678	-0.03732476	-0.01387265	0	0	-0.08495445	0.06111144	0	0
6.020247	-0.03732476	-0.01387265	0	0	0	0	0	0
6.036813	-0.03732476	-0.01387265	0	0	0	0	0	0
6.053383	-0.03732476	-0.01387265	0	0	0	0	0	0
6.070292	-0.03732476	-0.01387265	0	0	0	0	0	0
6.086513	-0.03732476	-0.01387265	0	0	0	0	0	0
6.10308	-0.03729848	-0.01389155	0.001586426	-0.001141023	0.04838393	-0.03479974	0	0
6.119823	-0.0372722	-0.01391045	0.001569531	-0.001129032	-0.000507203	0.0003599951	0	0
6.136213	-0.0372722	-0.01391045	0	0	-0.04737059	0.03407573	0	0
6.15278	-0.03721965	-0.01394826	0.003172402	-0.002282103	0.09625858	-0.06924471	0	0
6.169356	-0.03716709	-0.01398607	0.003170801	-0.00228079	-4.828298E-05	3.96141E-05	0	0
6.185913	-0.03714081	-0.01400497	0.001587114	-0.001141737	-0.04779714	0.03437768	0	0
6.202479	-0.03711453	-0.01402387	0.001586471	-0.001141113	-1.941457E-05	1.885223E-05	0	0
6.219394	-0.03706197	-0.01406168	0.003107337	-0.002235195	0.04542457	-0.03267758	0	0
6.235613	-0.03706197	-0.01406168	0	0	-0.09378096	0.06745928	0	0
6.252181	-0.03706197	-0.01406168	0	0	0	0	0	0
6.268926	-0.03706197	-0.01406168	0	0	0	0	0	0
6.285314	-0.03706197	-0.01406168	0	0	0	0	0	0
6.30188	-0.03706197	-0.01406168	0	0	0	0	0	0
6.318471	-0.03706197	-0.01406168	0	0	0	0	0	0
6.335032	-0.03706197	-0.01406168	0	0	0	0	0	0
6.351581	-0.03706197	-0.01406168	0	0	0	0	0	0
6.368148	-0.03706197	-0.01406168	0	0	0	0	0	0
6.384716	-0.03706197	-0.01406168	0	0	0	0	0	0
6.401522	-0.03706197	-0.01406168	0	0	0	0	0	0
6.418532	-0.03706197	-0.01406168	0	0	0	0	0	0
6.434549	-0.03706197	-0.01406168	0	0	0	0	0	0
6.45448	-0.03706197	-0.01406168	0	0	0	0	0	0
6.471068	-0.03706197	-0.01406168	0	0	0	0	0	0
6.487615	-0.03706197	-0.01406168	0	0	0	0	0	0
6.504182	-0.03706197	-0.01406168	0	0	0	0	0	0
6.520748	-0.03706197	-0.01406168	0	0	0	0	0	0
6.537315	-0.03706197	-0.01406168	0	0	0	0	0	0
6.554127	-0.03706197	-0.01406168	0	0	0	0	0	0
6.570448	-0.03706197	-0.01406168	0	0	0	0	0	0
6.587017	-0.03706197	-0.01406168	0	0	0	0	0	0
6.603663	-0.03706197	-0.01406168	0	0	0	0	0	0
6.620174	-0.03706197	-0.01406168	0	0	0	0	0	0
6.636717	-0.03706197	-0.01406168	0	0	0	0	0	0
6.653281	-0.03706197	-0.01406168	0	0	0	0	0	0
6.669848	-0.03706197	-0.01406168	0	0	0	0	0	0
6.686415	-0.03706197	-0.01406168	0	0	0	0	0	0
6.703001	-0.03706197	-0.01406168	0	0	0	0	0	0
6.719743	-0.03703569	-0.01408059	0.00156962	-0.001129152	0.0470954	-0.03387944	0	0
6.736259	-0.03703569	-0.01408059	0	0	-0.04719533	0.03395133	0	0
6.752769	-0.03703569	-0.01408059	0	0	0	0	0	0
6.769281	-0.03703569	-0.01408059	0	0	0	0	0	0
6.785815	-0.03703569	-0.01408059	0	0	0	0	0	0
6.802382	-0.03703569	-0.01408059	0	0	0	0	0	0
6.819316	-0.03703569	-0.01408059	0	0	0	0	0	0
6.835517	-0.03703569	-0.01408059	0	0	0	0	0	0
6.852082	-0.03703569	-0.01408059	0	0	0	0	0	0
6.868849	-0.03703569	-0.01408059	0	0	0	0	0	0
6.885361	-0.03703569	-0.01408059	0	0	0	0	0	0
6.901782	-0.03703569	-0.01408059	0	0	0	0	0	0
6.918349	-0.03703569	-0.01408059	0	0	0	0	0	0
6.934919	-0.03703569	-0.01408059	0	0	0	0	0	0
6.951482	-0.03703569	-0.01408059	0	0	0	0	0	0
6.96805	-0.03703569	-0.01408059	0	0	0	0	0	0
6.984617	-0.03703569	-0.01408059	0	0	0	0	0	0
7.001184	-0.03703569	-0.01408059	0	0	0	0	0	0
7.017955	-0.03703569	-0.01408059	0	0	0	0	0	0
7.034474	-0.03703569	-0.01408059	0	0	0	0	0	0
7.050883	-0.03703569	-0.01408059	0	0	0	0	0	0
7.067457	-0.03703569	-0.01408059	0	0	0	0	0	0
7.084018	-0.03703569	-0.01408059	0	0	0	0	0	0
7.101016	-0.03703569	-0.01408059	0	0	0	0	0	0
7.11715	-0.03703569	-0.01408059	0	0	0	0	0	0
7.133716	-0.03703569	-0.01408059	0	0	0	0	0	0
7.200083	-0.03700941	-0.01409949	0.0003959519	-0.0002848535	0.004774361	-0.003434745	0	0
7.216549	-0.03700941	-0.01409949	0	0	-0.004780106	0.003438877	0	0
7.237794	-0.03700941	-0.01409949	0	0	0	0	0	0
7.254362	-0.03700941	-0.01409949	0	0	0	0	0	0
7.271135	-0.03700941	-0.01409949	0	0	0	0	0	0
7.287496	-0.03700941	-0.01409949	0	0	0	0	0	0
7.304061	-0.03700941	-0.01409949	0	0	0	0	0	0
7.32067	-0.03700941	-0.01409949	0	0	0	0	0	0
7.337194	-0.03700941	-0.01409949	0	0	0	0	0	0
7.353761	-0.03700941	-0.01409949	0	0	0	0	0	0
7.370328	-0.03700941	-0.01409949	0	0	0	0	0	0
7.386895	-0.03700941	-0.01409949	0	0	0	0	0	0
7.403728	-0.03700941	-0.01409949	0	0	0	0	0	0
7.420028	-0.03700941	-0.01409949	0	0	0	0	0	0
7.436752	-0.03700941	-0.01409949	0	0	0	0	0	0
7.453267	-0.03700941	-0.01409949	0	0	0	0	0	0
7.469776	-0.03700941	-0.01409949	0	0	0	0	0	0
7.486295	-0.03700941	-0.01409949	0	0	0	0	0	0
7.502861	-0.03700941	-0.01409949	0	0	0	0	0	0
7.519428	-0.03700941	-0.01409949	0	0	0	0	0	0
7.535995	-0.03700941	-0.01409949	0	0	0	0	0	0
7.552562	-0.03700941	-0.01409949	0	0	0	0	0	0
7.569128	-0.03700941	-0.01409949	0	0	0	0	0	0
7.585858	-0.03700941	-0.01409949	0	0	0	0	0	0
7.602262	-0.03700941	-0.01409949	0	0	0	0	0	0
7.618882	-0.03700941	-0.01409949	0	0	0	0	0	0
7.635395	-0.03700941	-0.01409949	0	0	0	0	0	0
7.651963	-0.03700941	-0.01409949	0	0	0	0	0	0
7.668529	-0.03700941	-0.01409949	0	0	0	0	0	0
7.685095	-0.03700941	-0.01409949	0	0	0	0	0	0
7.701661	-0.03700941	-0.01409949	0	0	0	0	0	0
7.718228	-0.03700941	-0.01409949	0	0	0	0	0	0
7.734794	-0.03700941	-0.01409949	0	0	0	0	0	0
7.751362	-0.03700941	-0.01409949	0	0	0	0	0	0
7.784497	-0.03700941	-0.01409949	0	0	0	0	0	0
7.818021	-0.03700941	-0.01409949	0	0	0	0	0	0
7.834194	-0.03700941	-0.01409949	0	0	0	0	0	0
7.851045	-0.03700941	-0.01409949	0	0	0	0	0	0
7.867329	-0.03700941	-0.01409949	0	0	0	0	0	0
7.883895	-0.03700941	-0.01409949	0	0	0	0	0	0
7.900461	-0.03700941	-0.01409949	0	0	0	0	0	0
7.917028	-0.03700941	-0.01409949	0	0	0	0	0	0
7.937252	-0.03700941	-0.01409949	0	0	0	0	0	0
7.953819	-0.03700941	-0.01409949	0	0	0	0	0	0
7.97063	-0.03700941	-0.01409949	0	0	0	0	0	0
7.987142	-0.03700941	-0.01409949	0	0	0	0	0	0
8.003652	-0.03700941	-0.01409949	0	0	0	0	0	0
8.020165	-0.03700941	-0.01409949	0	0	0	0	0	0
8.036675	-0.03700941	-0.01409949	0	0	0	0	0	0
8.053222	-0.03700941	-0.01409949	0	0	0	0	0	0
8.069789	-0.03700941	-0.01409949	0	0	0	0	0	0
8.086353	-0.03700941	-0.01409949	0	0	0	0	0	0
8.103223	-0.03700941	-0.01409949	0	0	0	0	0	0
8.119735	-0.03700941	-0.01409949	0	0	0	0	0	0
8.136054	-0.03700941	-0.01409949	0	0	0	0	0	0
8.15262	-0.03700941	-0.01409949	0	0	0	0	0	0
8.169272	-0.03700941	-0.01409949	0	0	0	0	0	0
8.185783	-0.03700941	-0.01409949	0	0	0	0	0	0
8.20232	-0.03700941	-0.01409949	0	0	0	0	0	0
8.218886	-0.03700941	-0.01409949	0	0	0	0	0	0
8.252019	-0.03700941	-0.01409949	0	0	0	0	0	0
8.268587	-0.03700941	-0.01409949	0	0	0	0	0	0
8.285352	-0.03700941	-0.01409949	0	0	0	0	0	0
8.301863	-0.03700941	-0.01409949	0	0	0	0	0	0
8.318375	-0.03700941	-0.01409949	0	0	0	0	0	0
8.334887	-0.03700941	-0.01409949	0	0	0	0	0	0
8.351419	-0.03700941	-0.01409949	0	0	0	0	0	0
8.367987	-0.03700941	-0.01409949	0	0	0	0	0	0
8.384924	-0.03700941	-0.01409949	0	0	0	0	0	0
8.401119	-0.03700941	-0.01409949	0	0	0	0	0	0
8.417686	-0.03700941	-0.01409949	0	0	0	0	0	0
8.434253	-0.03700941	-0.01409949	0	0	0	0	0	0
8.450969	-0.03700941	-0.01409949	0	0	0	0	0	0
8.467494	-0.03700941	-0.01409949	0	0	0	0	0	0
8.483953	-0.03700941	-0.01409949	0	0	0	0	0	0
8.500521	-0.03700941	-0.01409949	0	0	0	0	0	0
8.517086	-0.03700941	-0.01409949	0	0	0	0	0	0
8.533653	-0.03700941	-0.01409949	0	0	0	0	0	0
8.55022	-0.03700941	-0.01409949	0	0	0	0	0	0
8.566787	-0.03700941	-0.01409949	0	0	0	0	0	0
8.583356	-0.03700941	-0.01409949	0	0	0	0	0	0
8.603583	-0.03700941	-0.01409949	0	0	0	0	0	0
8.620152	-0.03698313	-0.01411839	0.001586289	-0.001140981	0.04311081	-0.03100862	0	0
8.636718	-0.03695685	-0.0141373	0.001586246	-0.001141169	-1.275372E-06	-5.660122E-06	0	0
8.653285	-0.03674661	-0.01428854	0.01269014	-0.009128881	0.3351258	-0.2410766	0	0
8.670123	-0.03601074	-0.01481794	0.04370261	-0.03144054	0.9283696	-0.6679078	0	0
8.686419	-0.02833452	-0.02034405	0.4710658	-0.3391202	12.89822	-9.286057	0	0
8.703146	-0.02218057	-0.02477949	0.3678952	-0.2651595	-3.124215	2.239679	0	0
8.719657	-0.01118374	-0.03271839	0.6660319	-0.4808261	8.969642	-6.488475	0	0
8.736169	0.004999958	-0.04443653	0.9801226	-0.7096775	9.511305	-6.930083	0	0
8.752685	0.0178139	-0.05374859	0.7758631	-0.5638297	-6.184501	4.41593	0	0
8.769252	0.03619471	-0.06716688	1.109468	-0.8099296	10.08388	-7.438873	0	0
8.786207	0.0513758	-0.0783108	0.8953556	-0.6572501	-6.387098	4.554523	0	0
8.802716	0.07297544	-0.09427652	1.308351	-0.9670883	12.34132	-9.258731	0	0
8.818952	0.08390779	-0.1024123	0.6733669	-0.5011175	-19.39214	14.23055	0	0
8.835519	0.1051112	-0.1183491	1.279839	-0.9619453	18.48856	-14.04852	0	0
8.852084	0.1197921	-0.1294566	0.8862442	-0.6705266	-11.87941	8.795541	0	0
8.86865	0.1332324	-0.1397041	0.8113019	-0.618575	-2.26196	1.568037	0	0
8.885276	0.1488385	-0.1517049	0.9386911	-0.7218377	3.837987	-3.111103	0	0
8.901785	0.1586296	-0.1592939	0.5930758	-0.459686	-10.43069	7.911753	0	0
8.91835	0.1687738	-0.1672081	0.612375	-0.4777544	0.5835093	-0.5462943	0	0
8.934916	0.1744965	-0.1716969	0.3454464	-0.2709626	-8.056615	6.241529	0	0
8.951483	0.1758744	-0.1727804	0.08317383	-0.06540175	-7.915858	6.204195	0	0
8.96805	0.1805644	-0.1764761	0.2830848	-0.2230736	6.0335	-4.758683	0	0
9.050904	0.1803097	-0.1762751	-0.003073959	0.002426147	-2.878239	2.268118	0	0
9.114093	0.1803097	-0.1762751	0	0	0.02104834	-0.01661257	0	0
9.13066	0.1802842	-0.176255	-0.001537136	0.001213339	-0.01927303	0.01521318	0	0
9.14747	0.1802587	-0.1762349	-0.001514985	0.001194968	0.0006636645	-0.0005504256	0	0
9.163967	0.1802333	-0.176255	-0.001543622	-0.001217556	-0.0008598014	-0.07243276	0	0
9.18036	0.1802078	-0.1762349	-0.00155441	0.001225348	-0.0003279772	0.07427424	0	0
9.196995	0.1802078	-0.1762349	0	0	0.04706389	-0.03710066	0	0
9.213531	0.1801569	-0.1762751	-0.003080123	-0.002430395	-0.09285673	-0.07326934	0	0
9.247025	0.1800295	-0.1763756	-0.003802371	-0.003000701	-0.0144361	-0.01139911	0	0
9.263538	0.1795964	-0.1767173	-0.02622546	-0.02069557	-0.4483916	-0.353842	0	0
9.27976	0.1736797	-0.1814266	-0.3647349	-0.2903026	-10.34094	-8.23608	0	0
9.296565	0.1641926	-0.1889136	-0.5645501	-0.4455293	-6.050112	-4.700038	0	0
9.313074	0.1492245	-0.2007309	-0.9066607	-0.7158066	-10.26935	-8.113085	0	0
9.329586	0.1414439	-0.2068779	-0.4712137	-0.3722809	13.18698	10.40326	0	0
9.346026	0.1297149	-0.2161526	-0.7134233	-0.5641387	-7.350306	-5.822287	0	0
9.368212	0.1071408	-0.2340836	-1.017525	-0.8082349	-7.873044	-6.319526	0	0
9.384779	0.09977287	-0.239937	-0.4447279	-0.3533146	14.78089	11.73911	0	0
9.401346	0.08273178	-0.2535093	-1.028602	-0.8192278	-17.62136	-14.06129	0	0
9.418147	0.07362981	-0.2607809	-0.5417557	-0.4328082	14.59017	11.58051	0	0
9.434659	0.06828839	-0.2650563	-0.3234891	-0.258927	6.552033	5.21965	0	0
9.451046	0.06050501	-0.2712979	-0.4749732	-0.380887	-4.604534	-3.707114	0	0
9.467611	0.05384265	-0.2766943	-0.4021872	-0.3257682	2.208829	1.672684	0	0
9.484179	0.04541612	-0.2834406	-0.5086263	-0.4072052	-3.212522	-2.457915	0	0
9.50075	0.04352513	-0.2849666	-0.1141142	-0.09209182	11.90503	9.509046	0	0
9.517312	0.0396634	-0.2880863	-0.2331615	-0.1883547	-3.592961	-2.905303	0	0
9.534229	0.03905907	-0.2885748	-0.0357224	-0.02887881	5.897281	4.763363	0	0
9.550447	0.0390328	-0.2885961	-0.001620062	-0.001310199	1.029181	0.8319984	0	0
9.567012	0.0390328	-0.2885961	0	0	0.04941843	0.03996636	0	0
9.583767	0.03900652	-0.2885748	-0.00156837	0.001268214	-0.04707066	0.03806224	0	0
9.600148	0.0390328	-0.2885961	0.001604162	-0.001297156	0.09574168	-0.07741856	0	0
9.633303	0.0390328	-0.2885961	0	0	-0.03238392	0.02618626	0	0
9.649846	0.0390328	-0.2885961	0	0	0	0	0	0
9.666413	0.0390328	-0.2885961	0	0	0	0	0	0
9.68298	0.03908535	-0.2885961	0.003172043	0	0.09573521	0	0	0
9.699548	0.03908535	-0.2885961	0	0	-0.09573246	0	0	0
9.716113	0.03911162	-0.2885748	0.001586113	0.001282743	0.04787036	0.03871438	0	0
9.732679	0.03911162	-0.2885748	0	0	-0.04787312	-0.03871661	0	0
9.749384	0.03911162	-0.2885748	0	0	0	0	0	0
9.782379	0.03911162	-0.2885748	0	0	0	0	0	0
9.798946	0.03911162	-0.2885748	0	0	0	0	0	0
9.815514	0.0391379	-0.2885536	0.001586155	0.001280797	0.04787026	0.03865452	0	0
9.832441	0.0391379	-0.2885536	0	0	-0.04735506	-0.0382385	0	0
9.848645	0.0391379	-0.2885536	0	0	0	0	0	0
9.865211	0.0391379	-0.2885536	0	0	0	0	0	0
9.898345	0.0391379	-0.2885536	0	0	0	0	0	0
9.914998	0.0391379	-0.2885536	0	0	0	0	0	0
9.931512	0.0391379	-0.2885536	0	0	0	0	0	0
9.948045	0.03916417	-0.2885323	0.001589224	0.001285259	0.0480902	0.03889218	0	0
9.964611	0.03937438	-0.2883624	0.01268862	0.01025956	0.3353376	0.2711336	0	0
9.981544	0.04024142	-0.2876615	0.05120587	0.04139327	1.149811	0.9293988	0	0
9.997745	0.04239563	-0.2859211	0.1329677	0.1074269	2.467648	1.992957	0	0
10.01431	0.04297353	-0.285412	0.03487768	0.03072479	-2.993273	-2.34061	0	0
10.03088	0.04412923	-0.2845214	0.06976625	0.05376007	1.052939	0.6952062	0	0
10.04745	0.04972214	-0.2800116	0.3376085	0.2722317	8.084193	6.594057	0	0
10.06401	0.05714823	-0.2740363	0.4481879	0.3606233	3.337196	2.667585	0	0
10.08058	0.06716199	-0.2660426	0.6045363	0.4825839	4.71874	3.680885	0	0
10.09715	0.07381302	-0.26076	0.4014569	0.3188626	-6.129478	-4.941545	0	0
10.11371	0.08228745	-0.2540725	0.5115177	0.4036542	3.321642	2.559016	0	0
10.13028	0.08586729	-0.2512998	0.216104	0.1673827	-8.916117	-7.131099	0	0
10.14685	0.08962765	-0.2483854	0.2269762	0.1759144	0.3281439	0.2575008	0	0
10.16341	0.09168956	-0.246909	0.1244639	0.08912034	-3.093918	-2.619524	0	0
10.17998	0.09179394	-0.2470337	0.006300911	-0.007528712	-3.566372	-2.917042	0	0
10.21672	0.09489831	-0.2495923	0.08449923	-0.06964225	1.467007	-1.165255	0	0
10.23322	0.1001637	-0.2538013	0.319012	-0.2550151	4.404521	-3.481597	0	0
10.24978	0.1061781	-0.2586677	0.363284	-0.2939354	1.339099	-1.177225	0	0
10.26633	0.1132242	-0.264385	0.4257675	-0.345477	1.887441	-1.556918	0	0
10.28326	0.1144451	-0.265371	0.07210699	-0.05823512	-10.56313	8.579342	0	0
10.29946	0.1197143	-0.2697198	0.3252388	-0.2684248	7.639972	-6.343902	0	0
10.31603	0.119818	-0.2700984	0.006262411	-0.02285335	-9.734028	7.49397	0	0
10.3328	0.1197143	-0.2701405	-0.006187617	-0.002507749	-0.3734638	0.6103075	0	0
10.3492	0.1195586	-0.2702667	-0.009490112	-0.007697116	-0.09956346	-0.1564488	0	0
10.36573	0.1195068	-0.2702667	-0.003138613	0	0.1928766	0.2337391	0	0
10.38229	0.1194808	-0.2702457	-0.001566008	0.001270077	0.04751738	0.03837628	0	0
10.39886	0.1194289	-0.2702457	-0.003132016	0	-0.04726493	-0.0383332	0	0
10.41543	0.119403	-0.2702246	-0.001565918	0.001270004	0.04726629	0.03832988	0	0
10.43199	0.1193511	-0.2702667	-0.003131836	-0.002540007	-0.04725949	-0.1149863	0	0
10.49826	0.117379	-0.27174	-0.0297609	-0.02223264	-0.3214815	-0.2377408	0	0
10.51483	0.1173011	-0.2716768	-0.004699732	0.00381159	0.3025495	0.3144174	0	0
10.53139	0.1173011	-0.2716768	0	0	0.1418382	-0.115034	0	0
10.54796	0.1173011	-0.2716768	0	0	0	0	0	0
10.56453	0.1173011	-0.2716768	0	0	0	0	0	0
10.58109	0.1173011	-0.2716768	0	0	0	0	0	0
10.59766	0.1172752	-0.2716557	-0.001566638	0.001272022	-0.04728259	0.0383908	0	0
10.61423	0.1172752	-0.2716557	0	0	0.04728531	-0.03839302	0	0
10.63079	0.1172492	-0.2716347	-0.001566908	0.001270077	-0.04729072	0.03833209	0	0
10.64736	0.1172233	-0.2716137	-0.001566908	0.001270077	0	0	0	0
10.66393	0.1171973	-0.2715926	-0.001566908	0.001271876	0	5.429603E-05	0	0
10.68054	0.1171973	-0.2715926	0	0	0.04722548	-0.03833343	0	0
10.69706	0.1171973	-0.2715926	0	0	0	0	0	0
10.73019	0.1171973	-0.2715926	0	0	0	0	0	0
10.76332	0.1171713	-0.2715715	-0.0007832514	0.0006350566	-0.0118198	0.009583437	0	0
10.77989	0.1171454	-0.2715505	-0.001566908	0.001271876	-0.0157684	0.01281381	0	0
10.79646	0.1171454	-0.2715505	0	0	0.04729208	-0.03838749	0	0
10.81313	0.1171194	-0.2715294	-0.001556869	0.00126194	-0.04683812	0.03796523	0	0
10.82964	0.1171194	-0.2715294	0	0	0.04691215	-0.03802524	0	0
10.84616	0.1171194	-0.2715294	0	0	0	0	0	0
10.86272	0.1170935	-0.2715084	-0.001566998	0.001271949	-0.0473698	0.03845057	0	0
10.87929	0.1170935	-0.2715084	0	0	0.04729753	-0.03839191	0	0
10.89619	0.1170416	-0.2714663	-0.003071653	0.002490124	-0.09178858	0.07441107	0	0
10.91242	0.1170156	-0.2714452	-0.00159894	0.001297876	0.04444785	-0.03598315	0	0
10.92921	0.1169637	-0.2714031	-0.003091986	0.002506248	-0.04520986	0.03658984	0	0
10.94573	0.1169377	-0.2713821	-0.001571975	0.001275989	0.04564149	-0.0369411	0	0
10.96212	0.1168599	-0.2713189	-0.004749389	0.003851495	-0.09655038	0.0782605	0	0
10.99944	0.1150684	-0.269825	-0.04800787	0.04003504	-0.8053657	0.6736479	0	0
11.016	0.1110933	-0.2666095	-0.2399482	0.194095	-3.562196	2.859179	0	0
11.03257	0.09862634	-0.2564941	-0.7524661	0.6105343	-15.46782	12.56816	0	0
11.04931	0.08928828	-0.2489887	-0.5578024	0.4483264	5.844179	-4.869794	0	0
11.06571	0.07907163	-0.2406621	-0.6231709	0.5078875	-1.972766	1.797505	0	0
11.08232	0.07182361	-0.2346826	-0.436311	0.35995	5.661276	-4.482049	0	0
11.09884	0.05649246	-0.2218522	-0.9281685	0.7767709	-14.84643	12.58149	0	0
11.11584	0.04050415	-0.2079178	-0.940214	0.8194314	-0.3593248	1.27259	0	0
11.13236	0.03293546	-0.2001415	-0.4583512	0.4709212	14.37631	-10.39775	0	0
11.14854	0.02254881	-0.1874384	-0.6418285	0.7849718	-5.611651	9.605239	0	0
11.16538	0.01192049	-0.1606909	-0.631172	1.588424	0.3227091	24.33086	0	0
11.18189	0.006973571	-0.144973	-0.2995621	0.9517995	9.942474	-19.08755	0	0
11.1984	0.0009473682	-0.1263061	-0.3649819	1.13058	-1.980929	5.413532	0	0
11.21491	-0.001894735	-0.117898	-0.1721343	0.5092425	5.839987	-18.81591	0	0
11.23143	-0.006920942	-0.1074271	-0.3043636	0.6340668	-4.003942	3.779713	0	0
11.24794	-0.01518304	-0.09717372	-0.5003721	0.6209697	-5.93502	-0.3965727	0	0
11.26451	-0.02299595	-0.0914019	-0.4716148	0.348408	0.8693717	-8.23992	0	0
11.28107	-0.03464403	-0.08269972	-0.7031201	0.5252945	-6.987244	5.338752	0	0
11.29764	-0.04368272	-0.07531799	-0.545608	0.4455882	4.753995	-2.405679	0	0
11.31421	-0.05418376	-0.06468578	-0.6338437	0.641761	-2.663035	5.920677	0	0
11.33077	-0.05531194	-0.06124662	-0.06810156	0.2076002	17.07462	-13.10338	0	0
11.34734	-0.05733184	-0.04369207	-0.121928	1.059656	-1.624579	25.71657	0	0
11.3639	-0.05696462	-0.03424014	0.02216652	0.5705524	4.349032	-14.76202	0	0
11.39704	-0.05389512	-0.02468465	0.09263762	0.2883853	1.417908	-5.677323	0	0
11.43017	-0.04436561	-0.01682288	0.2876262	0.2372891	2.942511	-0.7710763	0	0
11.44674	-0.04105587	-0.01428854	0.1997879	0.1529821	-1.767446	-1.69639	0	0
11.4633	-0.04053042	-0.01368362	0.03171386	0.03651089	-5.072484	-3.515108	0	0
11.47987	-0.03758755	-0.01118953	0.1776525	0.1505611	4.404564	3.442141	0	0
11.49644	-0.03193651	-0.00671631	0.3411174	0.2700195	4.933806	3.605573	0	0
11.513	-0.02854488	-0.004208703	0.204731	0.1513682	-4.116386	-3.58111	0	0
11.52957	-0.02809787	-0.003888319	0.02698317	0.0193395	-5.36475	-3.984863	0	0
11.54614	-0.02809787	-0.003888319	0	0	-0.8141662	-0.583533	0	0
11.5627	-0.02809787	-0.00392601	0	-0.002276176	0	-0.06869513	0	0
11.57927	-0.02812416	-0.003944856	-0.001587258	-0.001137599	-0.04791735	0.03437221	0	0
11.59583	-0.02812416	-0.003982547	0	-0.002275301	0.04790769	-0.03433887	0	0
11.6124	-0.02812416	-0.00405793	0	-0.004550423	0	-0.06866927	0	0
11.6292	-0.02809787	-0.00411447	0.001565005	-0.003365061	0.04690123	0.03552381	0	0
11.67867	-0.02804528	-0.004453723	0.001063191	-0.00685856	-0.00757272	-0.05271928	0	0
11.69525	-0.02804528	-0.004453723	0	0	-0.01609756	0.1038441	0	0
11.7118	-0.02804528	-0.004453723	0	0	0	0	0	0
11.72837	-0.02804528	-0.004453723	0	0	0	0	0	0
11.74494	-0.02804528	-0.004453723	0	0	0	0	0	0
11.7618	-0.02807157	-0.004472571	-0.001559605	-0.001117946	-0.04665539	-0.0334432	0	0
11.77807	-0.02809787	-0.00449142	-0.001616099	-0.001158441	-0.001705175	-0.001222291	0	0
11.81528	-0.02815046	-0.004566815	-0.001413093	-0.002025872	0.003795445	-0.01621765	0	0
11.83185	-0.02815046	-0.004566815	0	0	0.02627376	0.03766722	0	0
11.84842	-0.02815046	-0.004566815	0	0	0	0	0	0
11.86498	-0.02817675	-0.004585665	-0.001587258	-0.001137824	-0.04790493	-0.03434058	0	0
11.88155	-0.02817675	-0.004623363	0	-0.002275619	0.04790631	-0.03434072	0	0
11.89839	-0.02820305	-0.004679912	-0.001561107	-0.003357231	-0.04672563	-0.03237381	0	0
11.9149	-0.02822934	-0.004698761	-0.00159276	-0.001141767	-0.0009490406	0.066425	0	0
11.93125	-0.02825564	-0.004755311	-0.00160865	-0.003459561	-0.0004836537	-0.07054607	0	0
11.94793	-0.02828193	-0.004849563	-0.001576549	-0.005651013	0.0009720363	-0.06635779	0	0
11.96438	-0.02830823	-0.004981521	-0.001597929	-0.008018962	-0.0006452504	-0.07146484	0	0
11.98095	-0.02830823	-0.005132335	0	-0.009103714	0.04838994	-0.03284946	0	0
11.99751	-0.02838711	-0.00545284	-0.004761663	-0.01934683	-0.1437155	-0.3091556	0	0
12.01408	-0.02838711	-0.006093943	0	-0.03869928	0.1437155	-0.5840917	0	0
12.03065	-0.02796639	-0.007376525	0.02539602	-0.07742126	0.7664976	-1.168699	0	0
12.0475	-0.02891299	-0.009037086	-0.05615751	-0.09851339	-2.440081	-0.6310762	0	0
12.06401	-0.0288867	-0.009018211	0.001592463	0.001143187	1.730743	2.986667	0	0
12.08052	-0.0288867	-0.009018211	0	0	-0.0482272	-0.03462102	0	0
12.09691	-0.0288867	-0.009018211	0	0	0	0	0	0
12.11354	-0.0288867	-0.009018211	0	0	0	0	0	0
12.13005	-0.0288867	-0.009018211	0	0	0	0	0	0
12.14662	-0.02891299	-0.009037086	-0.001587603	-0.001139698	-0.04800376	-0.03446062	0	0
12.16358	-0.02891299	-0.009037086	0	0	0.04735513	0.03399499	0	0
12.17975	-0.02891299	-0.009037086	0	0	0	0	0	0
12.19631	-0.02891299	-0.009037086	0	0	0	0	0	0
12.21288	-0.02891299	-0.009037086	0	0	0	0	0	0
12.22945	-0.02891299	-0.009037086	0	0	0	0	0	0
12.24601	-0.02891299	-0.009037086	0	0	0	0	0	0
12.26258	-0.02891299	-0.009037086	0	0	0	0	0	0
12.27915	-0.02891299	-0.009037086	0	0	0	0	0	0
12.29617	-0.02891299	-0.009037086	0	0	0	0	0	0
12.31228	-0.02891299	-0.009037086	0	0	0	0	0	0
12.32885	-0.02891299	-0.009037086	0	0	0	0	0	0
12.3457	-0.02891299	-0.009037086	0	0	0	0	0	0
12.36198	-0.02891299	-0.009037086	0	0	0	0	0	0
12.37873	-0.02891299	-0.009037086	0	0	0	0	0	0
12.39524	-0.02891299	-0.009037086	0	0	0	0	0	0
12.41175	-0.02891299	-0.009037086	0	0	0	0	0	0
12.42826	-0.0288867	-0.009055961	0.001592555	-0.001143253	0.04822581	-0.03462002	0	0
12.44481	-0.0288867	-0.009055961	0	0	-0.04817155	0.03458107	0	0
12.4818	-0.02886041	-0.009074835	0.0007109002	-0.000510275	0.01327834	-0.009531024	0	0
12.49801	-0.02886041	-0.009074835	0	0	-0.01336356	0.009592193	0	0
12.51458	-0.02886041	-0.009074835	0	0	0	0	0	0
12.53114	-0.02886041	-0.009074835	0	0	0	0	0	0
12.54785	-0.02886041	-0.009074835	0	0	0	0	0	0
12.56436	-0.02886041	-0.009074835	0	0	0	0	0	0
12.58087	-0.02886041	-0.009074835	0	0	0	0	0	0
12.59741	-0.02886041	-0.009074835	0	0	0	0	0	0
12.61397	-0.02886041	-0.009074835	0	0	0	0	0	0
12.63054	-0.02886041	-0.009074835	0	0	0	0	0	0
12.64742	-0.02886041	-0.009074835	0	0	0	0	0	0
12.66393	-0.02886041	-0.009074835	0	0	0	0	0	0
12.68024	-0.02886041	-0.009074835	0	0	0	0	0	0
12.69696	-0.02886041	-0.009074835	0	0	0	0	0	0
12.71347	-0.02886041	-0.009074835	0	0	0	0	0	0
12.72997	-0.02883411	-0.00909371	0.001593199	-0.001143715	0.04825089	-0.03463802	0	0
12.74651	-0.02883411	-0.00909371	0	0	-0.04822442	0.03461903	0	0
12.76308	-0.02880782	-0.009112585	0.001587076	-0.001139239	0.04794496	-0.03441597	0	0
12.77964	-0.02880782	-0.009112585	0	0	-0.0479008	0.03438427	0	0
12.79653	-0.02880782	-0.009112585	0	0	0	0	0	0
12.81277	-0.02880782	-0.009112585	0	0	0	0	0	0
12.82955	-0.02880782	-0.009112585	0	0	0	0	0	0
12.84606	-0.02880782	-0.009112585	0	0	0	0	0	0
12.86257	-0.02880782	-0.009112585	0	0	0	0	0	0
12.87908	-0.02880782	-0.009112585	0	0	0	0	0	0
12.89561	-0.02880782	-0.009112585	0	0	0	0	0	0
12.91218	-0.02880782	-0.009112585	0	0	0	0	0	0
12.92874	-0.02880782	-0.009112585	0	0	0	0	0	0
12.94531	-0.02880782	-0.009112585	0	0	0	0	0	0
12.97844	-0.02880782	-0.009112585	0	0	0	0	0	0
12.99501	-0.02880782	-0.009112585	0	0	0	0	0	0
13.01167	-0.02880782	-0.009112585	0	0	0	0	0	0
13.03219	-0.02880782	-0.009112585	0	0	0	0	0	0
13.04876	-0.02880782	-0.009112585	0	0	0	0	0	0
13.06533	-0.02880782	-0.009112585	0	0	0	0	0	0
13.0819	-0.02880782	-0.009112585	0	0	0	0	0	0
13.09846	-0.02880782	-0.009112585	0	0	0	0	0	0
13.11503	-0.02880782	-0.009112585	0	0	0	0	0	0
13.13176	-0.02880782	-0.009112585	0	0	0	0	0	0
13.19886	-0.02880782	-0.009112585	0	0	0	0	0	0
13.21543	-0.02880782	-0.009112585	0	0	0	0	0	0
13.2352	-0.02880782	-0.009112585	0	0	0	0	0	0
13.25177	-0.02880782	-0.009112585	0	0	0	0	0	0
13.26836	-0.02880782	-0.009112585	0	0	0	0	0	0
13.2849	-0.02880782	-0.009112585	0	0	0	0	0	0
13.30147	-0.02880782	-0.009112585	0	0	0	0	0	0
13.31839	-0.02880782	-0.009112585	0	0	0	0	0	0
13.3346	-0.02880782	-0.009112585	0	0	0	0	0	0
13.38444	-0.02880782	-0.009112585	0	0	0	0	0	0
13.45057	-0.02880782	-0.009112585	0	0	0	0	0	0
13.46713	-0.02880782	-0.009112585	0	0	0	0	0	0
13.48401	-0.02880782	-0.009112585	0	0	0	0	0	0
13.50027	-0.02880782	-0.009112585	0	0	0	0	0	0
13.51684	-0.02880782	-0.009112585	0	0	0	0	0	0
13.53354	-0.02880782	-0.009112585	0	0	0	0	0	0
13.54997	-0.02880782	-0.009112585	0	0	0	0	0	0
13.56657	-0.02880782	-0.009112585	0	0	0	0	0	0
13.5831	-0.02880782	-0.009112585	0	0	0	0	0	0
13.59967	-0.02880782	-0.009112585	0	0	0	0	0	0
13.61623	-0.02880782	-0.009112585	0	0	0	0	0	0
13.6328	-0.02880782	-0.009112585	0	0	0	0	0	0
13.64962	-0.02880782	-0.009112585	0	0	0	0	0	0
13.66613	-0.02880782	-0.009112585	0	0	0	0	0	0
13.68267	-0.02880782	-0.009112585	0	0	0	0	0	0
13.69916	-0.02878152	-0.009131461	0.001593936	-0.001144301	0.04826066	-0.03464675	0	0
13.71564	-0.02878152	-0.009131461	0	0	-0.04834721	0.03470889	0	0
13.7322	-0.02878152	-0.009131461	0	0	0	0	0	0
13.74877	-0.02878152	-0.009131461	0	0	0	0	0	0
13.76571	-0.02878152	-0.009131461	0	0	0	0	0	0
13.7819	-0.02875523	-0.009150336	0.001624287	-0.00116595	0.04902389	-0.03519045	0	0
13.79873	-0.02875523	-0.009150336	0	0	-0.04918813	0.03530834	0	0
13.81503	-0.02875523	-0.009150336	0	0	0	0	0	0
13.83176	-0.02875523	-0.009150336	0	0	0	0	0	0
13.84817	-0.02875523	-0.009150336	0	0	0	0	0	0
13.86478	-0.02872894	-0.009169212	0.001582954	-0.001136361	0.047942	-0.03441628	0	0
13.8813	-0.02872894	-0.009169212	0	0	-0.04777503	0.03429642	0	0
13.89787	-0.02872894	-0.009169212	0	0	0	0	0	0
13.91443	-0.02875523	-0.009150336	-0.001587146	0.00113937	-0.04790292	0.03438823	0	0
13.931	-0.02875523	-0.009150336	0	0	0.04790154	-0.03438724	0	0
13.96683	-0.02875523	-0.009150336	0	0	0	0	0	0
13.9834	-0.02875523	-0.009150336	0	0	0	0	0	0
13.99996	-0.02875523	-0.009150336	0	0	0	0	0	0
14.01653	-0.02875523	-0.009150336	0	0	0	0	0	0
14.03339	-0.02875523	-0.009150336	0	0	0	0	0	0
14.04966	-0.02875523	-0.009150336	0	0	0	0	0	0
14.06623	-0.02875523	-0.009150336	0	0	0	0	0	0
14.08293	-0.02875523	-0.009150336	0	0	0	0	0	0
14.09944	-0.02875523	-0.009150336	0	0	0	0	0	0
14.11645	-0.02875523	-0.009150336	0	0	0	0	0	0
14.1325	-0.02875523	-0.009150336	0	0	0	0	0	0
14.14906	-0.02875523	-0.009150336	0	0	0	0	0	0
14.16599	-0.02872894	-0.009169212	0.001553695	-0.001115356	0.04640047	-0.03330966	0	0
14.2816	-0.02875523	-0.009150336	-0.0002274272	0.0001632639	-0.01343898	0.009647484	0	0
14.29816	-0.02875523	-0.009150336	0	0	0.001720634	-0.001235197	0	0
14.31473	-0.02875523	-0.009150336	0	0	0	0	0	0
14.33129	-0.02875523	-0.009150336	0	0	0	0	0	0
14.34786	-0.02875523	-0.009150336	0	0	0	0	0	0
14.36443	-0.02875523	-0.009150336	0	0	0	0	0	0
14.38114	-0.02875523	-0.009150336	0	0	0	0	0	0
14.39765	-0.02875523	-0.009150336	0	0	0	0	0	0
14.41413	-0.02872894	-0.009169212	0.001595781	-0.001145569	0.0483696	-0.03472324	0	0
14.43069	-0.02872894	-0.009169212	0	0	-0.04829282	0.03466813	0	0
14.44726	-0.02872894	-0.009169212	0	0	0	0	0	0
14.46383	-0.02872894	-0.009169212	0	0	0	0	0	0
14.48039	-0.02872894	-0.009169212	0	0	0	0	0	0
14.49696	-0.02872894	-0.009169212	0	0	0	0	0	0
14.51353	-0.02872894	-0.009169212	0	0	0	0	0	0
14.53024	-0.02872894	-0.009169212	0	0	0	0	0	0
14.54666	-0.02872894	-0.009169212	0	0	0	0	0	0
14.56323	-0.02872894	-0.009169212	0	0	0	0	0	0
14.57979	-0.02872894	-0.009169212	0	0	0	0	0	0
14.59636	-0.02872894	-0.009169212	0	0	0	0	0	0
14.61293	-0.02872894	-0.009169212	0	0	0	0	0	0
14.62949	-0.02872894	-0.009169212	0	0	0	0	0	0
14.64606	-0.02872894	-0.009169212	0	0	0	0	0	0
14.66283	-0.02872894	-0.009169212	0	0	0	0	0	0
14.67919	-0.02872894	-0.009169212	0	0	0	0	0	0
14.69576	-0.02872894	-0.009169212	0	0	0	0	0	0
14.71237	-0.02872894	-0.009169212	0	0	0	0	0	0
14.72889	-0.02872894	-0.009169212	0	0	0	0	0	0
14.74546	-0.02872894	-0.009169212	0	0	0	0	0	0
14.76203	-0.02872894	-0.009169212	0	0	0	0	0	0
14.77892	-0.02872894	-0.009169212	0	0	0	0	0	0
14.79516	-0.02872894	-0.009169212	0	0	0	0	0	0
14.81195	-0.02872894	-0.009169212	0	0	0	0	0	0
14.82845	-0.02872894	-0.009169212	0	0	0	0	0	0
14.84761	-0.02870264	-0.009188088	0.001372642	-0.0009853621	0.03849684	-0.02763526	0	0
14.86448	-0.02870264	-0.009188088	0	0	-0.03810143	0.02735141	0	0
14.88074	-0.02870264	-0.009188088	0	0	0	0	0	0
14.89731	-0.02870264	-0.009188088	0	0	0	0	0	0
15.01328	-0.02870264	-0.009188088	0	0	0	0	0	0
15.02984	-0.02870264	-0.009188088	0	0	0	0	0	0
15.04641	-0.02870264	-0.009188088	0	0	0	0	0	0
15.06298	-0.02870264	-0.009188088	0	0	0	0	0	0
15.07963	-0.02870264	-0.009188088	0	0	0	0	0	0
15.09611	-0.02870264	-0.009188088	0	0	0	0	0	0
15.11268	-0.02870264	-0.009188088	0	0	0	0	0	0
15.14581	-0.02870264	-0.009188088	0	0	0	0	0	0
15.16238	-0.02867635	-0.009206964	0.001587055	-0.00113936	0.03193283	-0.02292486	0	0
15.19551	-0.02867635	-0.009206964	0	0	-0.03193344	0.02292529	0	0
15.21222	-0.02867635	-0.009206964	0	0	0	0	0	0
15.22873	-0.02867635	-0.009206964	0	0	0	0	0	0
15.24525	-0.02867635	-0.009206964	0	0	0	0	0	0
15.26178	-0.02867635	-0.009206964	0	0	0	0	0	0
15.27834	-0.02867635	-0.009206964	0	0	0	0	0	0
15.29491	-0.02867635	-0.009206964	0	0	0	0	0	0
15.31179	-0.02867635	-0.009244715	0	-0.002236059	0	-0.06684947	0	0
15.3283	-0.02867635	-0.009244715	0	0	0	0.06696019	0	0
15.34482	-0.02867635	-0.009244715	0	0	0	0	0	0
15.36118	-0.02865005	-0.009225839	0.001607337	0.00115384	0.04889514	0.03509976	0	0
15.37784	-0.02865005	-0.009225839	0	0	-0.04867485	-0.03494163	0	0
15.39431	-0.02865005	-0.009225839	0	0	0	0	0	0
15.41087	-0.02865005	-0.009225839	0	0	0	0	0	0
15.42744	-0.02865005	-0.009225839	0	0	0	0	0	0
15.44439	-0.02865005	-0.009225839	0	0	0	0	0	0
15.46057	-0.02865005	-0.009225839	0	0	0	0	0	0
15.47741	-0.02865005	-0.009225839	0	0	0	0	0	0
15.49371	-0.02865005	-0.009225839	0	0	0	0	0	0
15.51043	-0.02865005	-0.009225839	0	0	0	0	0	0
15.52694	-0.02865005	-0.009225839	0	0	0	0	0	0
15.54341	-0.02865005	-0.009225839	0	0	0	0	0	0
15.55997	-0.02865005	-0.009225839	0	0	0	0	0	0
15.57654	-0.02865005	-0.009225839	0	0	0	0	0	0
15.59311	-0.02865005	-0.009225839	0	0	0	0	0	0
15.60967	-0.02865005	-0.009225839	0	0	0	0	0	0
15.62651	-0.02865005	-0.009225839	0	0	0	0	0	0
15.64281	-0.02865005	-0.009225839	0	0	0	0	0	0
15.65937	-0.02865005	-0.009225839	0	0	0	0	0	0
15.67605	-0.02865005	-0.009225839	0	0	0	0	0	0
15.75877	-0.02867635	-0.009244715	-0.0003178652	-0.0002281821	-0.003197822	-0.002295582	0	0
15.77534	-0.02867635	-0.009244715	0	0	0.003201355	0.002298118	0	0
15.79191	-0.02867635	-0.009244715	0	0	0	0	0	0
15.80847	-0.02867635	-0.009244715	0	0	0	0	0	0
15.84515	-0.02865005	-0.009263591	0.0007170008	-0.0005147047	0.01346738	-0.009667663	0	0
15.86171	-0.02865005	-0.009263591	0	0	-0.01346738	0.009667663	0	0
15.87828	-0.02865005	-0.009263591	0	0	0	0	0	0
15.89485	-0.02865005	-0.009263591	0	0	0	0	0	0
15.91171	-0.02865005	-0.009263591	0	0	0	0	0	0
15.92822	-0.02865005	-0.009263591	0	0	0	0	0	0
15.94473	-0.02865005	-0.009263591	0	0	0	0	0	0
15.96125	-0.02865005	-0.009263591	0	0	0	0	0	0
15.97776	-0.02867635	-0.009244715	-0.001592484	0.001143177	-0.04822226	0.03461673	0	0
15.99424	-0.02867635	-0.009244715	0	0	0.04825989	-0.03464374	0	0
16.01081	-0.02867635	-0.009244715	0	0	0	0	0	0
16.02738	-0.02867635	-0.009244715	0	0	0	0	0	0
16.04395	-0.02867635	-0.009244715	0	0	0	0	0	0
16.07708	-0.02867635	-0.009244715	0	0	0	0	0	0
16.09365	-0.02867635	-0.009244715	0	0	0	0	0	0
16.11021	-0.02867635	-0.009244715	0	0	0	0	0	0
16.12687	-0.02867635	-0.009244715	0	0	0	0	0	0
16.14335	-0.02870264	-0.009225839	-0.00159532	0.001145294	-0.04814684	0.03456504	0	0
16.15991	-0.02870264	-0.009225839	0	0	0.04827188	-0.0346548	0	0
16.17648	-0.02870264	-0.009225839	0	0	0	0	0	0
16.19305	-0.02870264	-0.009225839	0	0	0	0	0	0
16.20992	-0.02872894	-0.009206964	-0.001558107	0.001118444	-0.04658931	0.03344285	0	0
16.22618	-0.02872894	-0.009206964	0	0	0.04702647	-0.03375666	0	0
16.24295	-0.02872894	-0.009206964	0	0	0	0	0	0
16.25946	-0.02872894	-0.009206964	0	0	0	0	0	0
16.27597	-0.02872894	-0.009206964	0	0	0	0	0	0
16.29249	-0.02872894	-0.009206964	0	0	0	0	0	0
16.30902	-0.02872894	-0.009206964	0	0	0	0	0	0
16.32558	-0.02872894	-0.009206964	0	0	0	0	0	0
16.34215	-0.02872894	-0.009206964	0	0	0	0	0	0
16.37528	-0.02872894	-0.009206964	0	0	0	0	0	0
16.39185	-0.02872894	-0.009206964	0	0	0	0	0	0
16.40857	-0.02870264	-0.009188088	0.001573041	0.00112922	0.04726227	0.03392759	0	0
16.42498	-0.02870264	-0.009188088	0	0	-0.04747994	-0.03408385	0	0
16.4416	-0.02867635	-0.009206964	0.001582682	-0.001136221	0.0479199	-0.03440212	0	0
16.45811	-0.02865005	-0.009188088	0.001591748	0.001142649	0.0002736551	0.0687804	0	0
16.47468	-0.02862376	-0.009206964	0.001587055	-0.00113936	-0.0001418653	-0.06897043	0	0
16.50782	-0.02859746	-0.009225839	0.0007935835	-0.0005696521	-0.01596467	0.01146255	0	0
16.52438	-0.02857117	-0.009206964	0.00158735	0.001139435	0.01597122	0.03438823	0	0
16.54095	-0.02854488	-0.009188088	0.001587055	0.00113936	-8.91055E-06	-2.262774E-06	0	0
16.55752	-0.02851858	-0.009169212	0.001587167	0.00113936	3.393965E-06	0	0	0
16.5741	-0.02849229	-0.009150336	0.001585524	0.001138125	-4.955573E-05	-3.726512E-05	0	0
16.59065	-0.02846599	-0.00909371	0.001588701	0.003421514	9.586722E-05	0.06891283	0	0
16.62642	-0.0284134	-0.009055961	0.001470442	0.001055491	-0.002260515	-0.04522669	0	0
16.64298	-0.02838711	-0.008999337	0.001587167	0.003417856	0.002230467	0.04514197	0	0
16.65975	-0.02836081	-0.008980461	0.001568567	0.001125952	-0.0005580517	-0.0687621	0	0
16.67612	-0.02830823	-0.008942713	0.003212314	0.002305839	0.04960839	0.03560904	0	0
16.69268	-0.02817675	-0.008810596	0.007935835	0.007974624	0.1434064	0.1721047	0	0
16.70925	-0.0279401	-0.008640739	0.0142845	0.01025256	0.1916032	0.06874815	0	0
16.72582	-0.02741418	-0.00826331	0.0317479	0.02278427	0.5270766	0.3782295	0	0
16.74238	-0.02701974	-0.00794253	0.02380863	0.01936232	-0.2396213	-0.1032804	0	0
16.75932	-0.02588895	-0.007131287	0.06677838	0.04790777	1.282653	0.8520858	0	0
16.77552	-0.02207536	-0.004397179	0.2354198	0.1687814	5.0899	3.648182	0	0
16.79208	-0.01802436	-0.001495849	0.2445468	0.1751447	0.2785649	0.194216	0	0
16.80885	-0.007315659	0.00612224	0.6385131	0.4542333	11.81782	8.371824	0	0
16.82522	0.002078944	0.01282327	0.5741319	0.4095195	-1.943028	-1.349464	0	0
16.84188	0.008447167	0.0173583	0.3822742	0.272231	-5.810009	-4.157496	0	0
16.90805	0.05651869	0.05148713	0.7264252	0.5157323	4.154694	2.939622	0	0
16.94118	0.0777116	0.06658036	0.6396403	0.455541	-0.8738962	-0.6061069	0	0
16.95775	0.08751275	0.07350622	0.5915986	0.4180456	-0.966638	-0.7544374	0	0
16.97447	0.09815722	0.08102854	0.6366376	0.4499046	1.35305	0.9570966	0	0
16.99088	0.1086234	0.08842736	0.6376857	0.4507976	0.03163138	0.02695315	0	0
17.00749	0.1187803	0.09557512	0.6115251	0.4303492	-0.792219	-0.6192375	0	0
17.02402	0.1280068	0.1021066	0.5583872	0.3952888	-1.603796	-1.058185	0	0
17.04058	0.1386313	0.1095992	0.6413005	0.452253	2.505645	1.721462	0	0
17.05715	0.1467789	0.11538	0.4917297	0.3488919	-4.513795	-3.119263	0	0
17.07372	0.1503052	0.1178842	0.2128724	0.1511663	-8.415931	-5.967373	0	0
17.09028	0.1520541	0.1191266	0.1055753	0.07500315	-3.238605	-2.298872	0	0
17.10685	0.152234	0.119291	0.01086339	0.009924375	-2.858577	-1.964194	0	0
17.12344	0.152234	0.119291	0	0	-0.3275936	-0.2992771	0	0
17.13998	0.152234	0.119291	0	0	0	0	0	0
17.15655	0.152234	0.119291	0	0	0	0	0	0
17.17312	0.152234	0.119291	0	0	0	0	0	0
17.18968	0.152234	0.119291	0	0	0	0	0	0
17.20625	0.1522083	0.1193093	-0.001552426	0.001102708	-0.04685232	0.03327981	0	0
17.2232	0.1522083	0.1193093	0	0	0.04631379	-0.03289728	0	0
17.28279	0.1521826	0.119291	-0.0004313742	-0.0003065883	-0.005635933	-0.004005596	0	0
17.29936	0.1521826	0.119291	0	0	0.005664304	0.004025761	0	0
17.31593	0.1521826	0.119291	0	0	0	0	0	0
17.33249	0.1521826	0.119291	0	0	0	0	0	0
17.34906	0.1521826	0.119291	0	0	0	0	0	0
17.37012	0.1521569	0.1192728	-0.001221079	-0.0008673481	-0.03245119	-0.0230505	0	0
17.38676	0.1521569	0.1192728	0	0	0.03238552	0.02300386	0	0
17.40326	0.1521569	0.1192728	0	0	0	0	0	0
17.41982	0.1521569	0.1192728	0	0	0	0	0	0
17.43639	0.1521569	0.1192728	0	0	0	0	0	0
17.45296	0.1521312	0.1192545	-0.001551527	-0.001102708	-0.04682517	-0.03327981	0	0
17.46952	0.1521312	0.1192545	0	0	0.04682517	0.03327981	0	0
17.48634	0.1521055	0.1192362	-0.001528995	-0.001086694	-0.04580764	-0.03255662	0	0
17.50266	0.1521055	0.1192362	0	0	0.04614782	0.03279839	0	0
17.51936	0.1521055	0.1192362	0	0	0	0	0	0
17.53637	0.1520798	0.1192179	-0.001511701	-0.001073781	-0.04484112	-0.03185122	0	0
17.55239	0.1520541	0.1191997	-0.001604735	-0.001140525	-0.002816513	-0.00202061	0	0
17.56892	0.1520283	0.1191814	-0.001555291	-0.001104743	0.001518788	0.001099112	0	0
17.58549	0.1520026	0.1191631	-0.001551527	-0.001102708	0.0001137147	6.147122E-05	0	0
17.60206	0.1520026	0.1191631	0	0	0.04682787	0.03328172	0	0
17.61862	0.1519769	0.1191449	-0.001552426	-0.001102708	-0.04685502	-0.03328172	0	0
17.63544	0.1519769	0.1191449	0	0	0.04650431	0.03303261	0	0
17.65195	0.1519512	0.1191266	-0.001557807	-0.00110653	-0.04674561	-0.03320401	0	0
17.66846	0.1518483	0.1190535	-0.006227983	-0.004425098	-0.1414183	-0.1004901	0	0
17.70146	0.1516941	0.1189439	-0.004676299	-0.003322503	0.03134262	0.02227144	0	0
17.73459	0.1514112	0.1187429	-0.008536505	-0.006064997	-0.05837326	-0.04147144	0	0
17.76803	0.1513598	0.1187064	-0.001538171	-0.001092583	0.1051149	0.07468564	0	0
17.78429	0.1513598	0.1187064	0	0	0.03095043	0.02198449	0	0
17.80086	0.1512055	0.1185968	-0.009313659	-0.00661715	-0.2837492	-0.2015976	0	0
17.81757	0.1508968	0.1183775	-0.01847053	-0.01312101	-0.2751669	-0.195443	0	0
17.83408	0.1503566	0.1179938	-0.03271468	-0.02323896	-0.4287539	-0.3045541	0	0
17.85059	0.1486841	0.1168059	-0.1013179	-0.07195894	-2.077625	-1.475468	0	0
17.86712	0.1394057	0.1102581	-0.5611437	-0.3959993	-13.91602	-9.806654	0	0
17.88369	0.1295079	0.1033165	-0.5974296	-0.4189973	-1.096183	-0.6947592	0	0
17.90026	0.1150424	0.09322441	-0.8731386	-0.6091591	-8.320915	-5.739096	0	0
17.91682	0.1036795	0.08552087	-0.6858648	-0.4649868	5.651935	4.35113	0	0
17.93339	0.09552418	0.08019952	-0.4922581	-0.3211971	5.843062	4.339581	0	0
17.94996	0.07951619	0.06959223	-0.9662437	-0.6402576	-14.30492	-9.629265	0	0
17.96667	0.06750255	0.06147543	-0.7187732	-0.4856263	7.435718	4.646189	0	0
17.98309	0.05145454	0.05054072	-0.9773237	-0.6659237	-7.803069	-5.441387	0	0
17.9997	0.04313113	0.04517334	-0.5013056	-0.3232686	14.41438	10.376	0	0
18.01623	0.02552077	0.03572016	-1.065416	-0.5719118	-17.02588	-7.504498	0	0
18.04936	-0.003657878	0.01578483	-0.8806642	-0.6016841	3.720219	-0.5995038	0	0
18.06593	-0.009999666	0.01119145	-0.3827911	-0.2772568	10.01761	6.52774	0	0
18.08249	-0.02357458	0.001308869	-0.8194777	-0.5965824	-13.17999	-9.637819	0	0
18.10244	-0.03028022	-0.003567967	-0.3361075	-0.2444423	13.23715	9.643395	0	0
18.11928	-0.03624728	-0.007961399	-0.3544192	-0.260952	-0.4977746	-0.44879	0	0
18.13579	-0.04181771	-0.01207735	-0.3373586	-0.2492718	0.5115901	0.3502497	0	0
18.15214	-0.04854079	-0.01699317	-0.4111543	-0.3006304	-2.245514	-1.562778	0	0
18.16871	-0.05339656	-0.02057135	-0.2930954	-0.2159795	3.586355	2.571494	0	0
18.18533	-0.05948238	-0.02493124	-0.3662443	-0.2623779	-2.204342	-1.398212	0	0
18.20184	-0.06223531	-0.02692365	-0.1666663	-0.1206229	6.023278	4.278172	0	0
18.21841	-0.06244502	-0.0270755	-0.01265944	-0.009166981	4.655171	3.368984	0	0
18.23498	-0.06210424	-0.02682874	0.02056942	0.01489443	1.002907	0.7262167	0	0
18.25154	-0.06207803	-0.02680976	0.001582333	0.001145656	-0.5730315	-0.4149389	0	0
18.26838	-0.06199938	-0.02675282	0.004669583	0.003380919	0.09240744	0.06690577	0	0
18.2849	-0.06194695	-0.02675282	0.0031749	0	-0.04481043	-0.1013595	0	0
18.30124	-0.06192074	-0.02673384	0.00160375	0.001161164	-0.04781371	0.0353369	0	0
18.31781	-0.06189452	-0.02671486	0.001582333	0.001145656	-0.0006507375	-0.0004711514	0	0
18.33443	-0.06165859	-0.02654404	0.01419383	0.01027615	0.3799814	0.2750996	0	0
18.35095	-0.06147507	-0.02641119	0.01111283	0.008044854	-0.09297951	-0.06733675	0	0
18.36751	-0.06142264	-0.02637324	0.003165254	0.002291352	-0.2402593	-0.1739314	0	0
18.38408	-0.06139642	-0.02635426	0.001582333	0.001145432	-0.04777543	-0.03458593	0	0
18.40098	-0.06134399	-0.0263163	0.003102035	0.002245587	0.04540471	0.03286974	0	0
18.46691	-0.06123912	-0.02635426	0.00159065	-0.0005757216	-0.01824631	-0.03406047	0	0
18.48354	-0.06123912	-0.02635426	0	0	-0.01926714	0.006973568	0	0
18.50005	-0.06123912	-0.02635426	0	0	0	0	0	0
18.51661	-0.0612129	-0.02637324	0.001582879	-0.001145827	0.04786231	-0.03464695	0	0
18.53318	-0.0612129	-0.02637324	0	0	-0.04777964	0.03458711	0	0
18.54975	-0.06116047	-0.02641119	0.003165115	-0.002291088	0.09552336	-0.06914517	0	0
18.56631	-0.06116047	-0.02641119	0	0	-0.09552336	0.06914517	0	0
18.58312	-0.06110803	-0.02641119	0.003120344	0	0.09350475	0	0	0
18.59962	-0.06108182	-0.02639221	0.001588409	0.00114978	-0.04599033	0.03451762	0	0
18.61601	-0.0610556	-0.02637324	0.001599685	0.001157942	0.0003427694	0.0002481183	0	0
18.63258	-0.06097694	-0.0263163	0.004747448	0.00343652	0.09551097	0.06913773	0	0
18.64915	-0.06089829	-0.02625937	0.004747672	0.003436407	6.78793E-06	-3.393965E-06	0	0
18.66572	-0.06084585	-0.02622142	0.003165115	0.002290976	-0.04776168	-0.03456919	0	0
18.68268	-0.06081963	-0.02620244	0.001545199	0.001118392	-0.04830521	-0.03496594	0	0
18.69885	-0.06081963	-0.02620244	0	0	-0.04663689	-0.03375509	0	0
18.71542	-0.0607672	-0.02616449	0.003165115	0.002290863	0.09669784	0.06998847	0	0
18.73198	-0.06042635	-0.0259178	0.0205737	0.01489005	0.5253921	0.3802442	0	0
18.74855	-0.05911525	-0.02496918	0.07913776	0.05725865	1.767467	1.278687	0	0
18.76512	-0.05696462	-0.02345199	0.1297975	0.0915671	1.528826	1.035371	0	0
18.78176	-0.05402632	-0.02140495	0.1766241	0.1230496	1.410227	0.9481233	0	0
18.79825	-0.05040464	-0.01898055	0.2195404	0.1469631	1.29529	0.7217541	0	0
18.81482	-0.04932837	-0.01824224	0.06496356	0.0445648	-4.675095	-3.096984	0	0
18.83179	-0.04919711	-0.01833688	0.007733269	-0.00557614	-1.706292	-1.494927	0	0
18.84798	-0.04914461	-0.01837474	0.003243089	-0.002338435	-0.135397	0.09762985	0	0
18.86452	-0.04906585	-0.01843153	0.004761967	-0.003433792	0.04640884	-0.03346832	0	0
18.88109	-0.0490396	-0.01848832	0.001584764	-0.003428257	-0.09597658	0.0001672031	0	0
18.917	-0.04882957	-0.01867763	0.005847448	-0.00527072	0.08122089	-0.03510616	0	0
18.93357	-0.04877707	-0.0187155	0.003169527	-0.00228573	-0.05102491	0.0568758	0	0
18.95038	-0.04872456	-0.01879122	0.00312336	-0.004504553	-0.001383212	-0.06647822	0	0
18.96671	-0.04869831	-0.01881016	0.001608094	-0.001159803	-0.04572821	0.1009389	0	0
18.9834	-0.04867205	-0.01882909	0.001572495	-0.001133857	-0.001078013	0.0007857435	0	0
18.99984	-0.04867205	-0.01882909	0	0	-0.04746074	0.03422183	0	0
19.01641	-0.04867205	-0.01882909	0	0	0	0	0	0
19.03297	-0.04867205	-0.01882909	0	0	0	0	0	0
19.04954	-0.0486458	-0.01884802	0.001584581	-0.001142733	0.04782275	-0.03448776	0	0
19.06611	-0.04867205	-0.01882909	-0.001584399	0.001142602	-0.0956345	0.06896757	0	0
19.08298	-0.0486458	-0.01884802	0.001556448	-0.001122445	0.09393659	-0.06774312	0	0
19.09924	-0.0486458	-0.01884802	0	0	-0.04697641	0.03387741	0	0
19.116	-0.0486458	-0.01884802	0	0	0	0	0	0
19.13251	-0.04861955	-0.01886695	0.001590624	-0.001147091	0.04781248	-0.03448034	0	0
19.14902	-0.04856704	-0.01894269	0.003180004	-0.004586583	0.04813939	-0.1041759	0	0
19.16553	-0.04833075	-0.0192267	0.01431013	-0.01720022	0.3370332	-0.3819557	0	0
19.18207	-0.0477794	-0.0197001	0.03333353	-0.02862098	0.5755519	-0.3455345	0	0
19.19864	-0.04688666	-0.02038193	0.05388565	-0.04115538	0.6207646	-0.3785938	0	0
19.21521	-0.04525855	-0.02167024	0.09827326	-0.07776207	1.339621	-1.104792	0	0
19.23177	-0.04525855	-0.02167024	0	0	-2.966064	2.346999	0	0
19.24834	-0.04528481	-0.02168918	-0.001585031	-0.001143745	-0.04783908	-0.03452028	0	0
19.26491	-0.04528481	-0.02168918	0	0	0.04783633	0.0345183	0	0
19.28148	-0.04531107	-0.02170813	-0.001585256	-0.001143858	-0.04784311	-0.03452169	0	0
19.29813	-0.04531107	-0.02170813	0	0	0.04771402	0.03442854	0	0
19.31464	-0.04531107	-0.02170813	0	0	0	0	0	0
19.33117	-0.04531107	-0.02170813	0	0	0	0	0	0
19.34774	-0.04533733	-0.02168918	-0.001585031	0.001143858	-0.04788594	0.0345575	0	0
19.36431	-0.04531107	-0.02167024	0.001585031	0.001143745	0.09567265	-3.393965E-06	0	0
19.38119	-0.04531107	-0.02167024	0	0	-0.04738895	-0.03419548	0	0
19.39744	-0.04531107	-0.02167024	0	0	0	0	0	0
19.41401	-0.04531107	-0.02167024	0	0	0	0	0	0
19.49684	-0.04533733	-0.02168918	-0.0003170135	-0.0002287543	-0.003189223	-0.002301317	0	0
19.51341	-0.04533733	-0.02168918	0	0	0.003189284	0.002301361	0	0
19.5303	-0.04531107	-0.02167024	0.00155478	0.001121916	0.04647392	0.0335352	0	0
19.5468	-0.04531107	-0.02167024	0	0	-0.0465562	-0.03359457	0	0
19.56311	-0.04533733	-0.02168918	-0.001610431	-0.001162074	-0.04908038	-0.035416	0	0
19.57986	-0.04533733	-0.02168918	0	0	0.04872352	0.03515849	0	0
19.59624	-0.04533733	-0.02168918	0	0	0	0	0	0
19.61285	-0.04533733	-0.02168918	0	0	0	0	0	0
19.62938	-0.04533733	-0.02168918	0	0	0	0	0	0
19.64594	-0.04533733	-0.02168918	0	0	0	0	0	0
19.66251	-0.04533733	-0.02168918	0	0	0	0	0	0
19.67908	-0.04533733	-0.02168918	0	0	0	0	0	0
19.69566	-0.04533733	-0.02168918	0	0	0	0	0	0
19.71221	-0.04533733	-0.02168918	0	0	0	0	0	0
19.73085	-0.04533733	-0.02168918	0	0	0	0	0	0
19.74742	-0.04533733	-0.02168918	0	0	0	0	0	0
19.76398	-0.04533733	-0.02168918	0	0	0	0	0	0
19.78057	-0.04533733	-0.02168918	0	0	0	0	0	0
19.79712	-0.04533733	-0.02168918	0	0	0	0	0	0
19.81369	-0.04533733	-0.02168918	0	0	0	0	0	0
19.83025	-0.04533733	-0.02168918	0	0	0	0	0	0
19.84682	-0.04533733	-0.02168918	0	0	0	0	0	0
19.86338	-0.04533733	-0.02168918	0	0	0	0	0	0
19.87995	-0.04533733	-0.02168918	0	0	0	0	0	0
19.89651	-0.04533733	-0.02168918	0	0	0	0	0	0
19.91309	-0.04533733	-0.02168918	0	0	0	0	0	0
19.92965	-0.04533733	-0.02168918	0	0	0	0	0	0
19.94621	-0.04533733	-0.02168918	0	0	0	0	0	0
20.00604	-0.04536359	-0.02170813	-0.0004390235	-0.0003167819	-0.005747471	-0.004147147	0	0
20.02267	-0.04538986	-0.02172708	-0.001578894	-0.001139155	-0.01490883	-0.01075615	0	0
20.03917	-0.04541612	-0.02174603	-0.001591444	-0.001148485	-0.0003787574	-0.0002815902	0	0
20.05574	-0.04541612	-0.02174603	0	0	0.04812405	0.03472933	0	0
20.07231	-0.04541612	-0.02174603	0	0	0	0	0	0
20.08887	-0.04541612	-0.02174603	0	0	0	0	0	0
20.10769	-0.04541612	-0.02174603	0	0	0	0	0	0
20.12426	-0.04541612	-0.02174603	0	0	0	0	0	0
20.14083	-0.04541612	-0.02174603	0	0	0	0	0	0
20.15739	-0.04541612	-0.02174603	0	0	0	0	0	0
20.17396	-0.04541612	-0.02174603	0	0	0	0	0	0
20.19076	-0.04544238	-0.02176498	-0.001563121	-0.001127886	-0.04684341	-0.03380034	0	0
20.20709	-0.04546864	-0.02178393	-0.001607986	-0.00116031	-0.001354119	-0.000978604	0	0
20.22366	-0.04546864	-0.02178393	0	0	0.04887801	0.03526996	0	0
20.2403	-0.0454949	-0.02180288	-0.001578351	-0.001138875	-0.04753075	-0.0342963	0	0
20.25679	-0.0454949	-0.02180288	0	0	0.04763746	0.0343733	0	0
20.27336	-0.0454949	-0.02180288	0	0	0	0	0	0
20.28993	-0.0454949	-0.02180288	0	0	0	0	0	0
20.37276	-0.04552116	-0.02182183	-0.0003170135	-0.0002287768	-0.003189223	-0.002301543	0	0
20.38933	-0.04552116	-0.02182183	0	0	0.003189223	0.002301543	0	0
20.40592	-0.04552116	-0.02182183	0	0	0	0	0	0
20.42247	-0.04552116	-0.02182183	0	0	0	0	0	0
20.43904	-0.04552116	-0.02182183	0	0	0	0	0	0
20.47497	-0.04552116	-0.02182183	0	0	0	0	0	0
20.4911	-0.04552116	-0.02182183	0	0	0	0	0	0
20.50799	-0.04554743	-0.02184078	-0.001554299	-0.00112152	-0.04706325	-0.03395897	0	0
20.52451	-0.04554743	-0.02184078	0	0	0.04652318	0.03356928	0	0
20.5408	-0.04557369	-0.02185974	-0.00161194	-0.001163277	-0.04914064	-0.03546296	0	0
20.55736	-0.04557369	-0.02185974	0	0	0.04906077	0.03540532	0	0
20.57393	-0.04557369	-0.02185974	0	0	0	0	0	0
20.5905	-0.04557369	-0.02185974	0	0	0	0	0	0
20.60706	-0.04557369	-0.02185974	0	0	0	0	0	0
20.62363	-0.04557369	-0.02185974	0	0	0	0	0	0
20.6402	-0.04557369	-0.02185974	0	0	0	0	0	0
20.6571	-0.04557369	-0.02185974	0	0	0	0	0	0
20.67362	-0.04557369	-0.02185974	0	0	0	0	0	0
20.6899	-0.04557369	-0.02185974	0	0	0	0	0	0
20.70647	-0.04557369	-0.02185974	0	0	0	0	0	0
20.72303	-0.04557369	-0.02185974	0	0	0	0	0	0
20.73966	-0.04557369	-0.02185974	0	0	0	0	0	0
20.75616	-0.04557369	-0.02185974	0	0	0	0	0	0
20.77273	-0.04557369	-0.02185974	0	0	0	0	0	0
20.7893	-0.04557369	-0.02185974	0	0	0	0	0	0
20.80586	-0.04559994	-0.02187869	-0.001585031	-0.001143858	-0.04783633	-0.03452169	0	0
20.82272	-0.04562621	-0.02189764	-0.001558521	-0.001124567	0.0007932689	0.000577251	0	0
20.83923	-0.04562621	-0.02189764	0	0	0.0467109	0.03370473	0	0
20.85556	-0.04562621	-0.02189764	0	0	0	0	0	0
20.87225	-0.04562621	-0.02189764	0	0	0	0	0	0
20.88876	-0.04562621	-0.02189764	0	0	0	0	0	0
20.90526	-0.04562621	-0.02189764	0	0	0	0	0	0
20.92183	-0.04562621	-0.02189764	0	0	0	0	0	0
20.9384	-0.04562621	-0.02189764	0	0	0	0	0	0
20.95496	-0.04562621	-0.02189764	0	0	0	0	0	0
20.97153	-0.04562621	-0.02189764	0	0	0	0	0	0
20.98833	-0.04562621	-0.02189764	0	0	0	0	0	0
21.00467	-0.04562621	-0.02189764	0	0	0	0	0	0
21.02123	-0.04562621	-0.02189764	0	0	0	0	0	0
21.0378	-0.04562621	-0.02189764	0	0	0	0	0	0
21.05437	-0.04562621	-0.02189764	0	0	0	0	0	0
21.07093	-0.04562621	-0.02189764	0	0	0	0	0	0
21.0875	-0.04562621	-0.02189764	0	0	0	0	0	0
21.10406	-0.04562621	-0.02189764	0	0	0	0	0	0
21.12063	-0.04565247	-0.02191659	-0.001584848	-0.001143838	-0.04782807	-0.03451912	0	0
21.1372	-0.04565247	-0.02191659	0	0	0.04783082	0.03452111	0	0
21.15738	-0.04567873	-0.02193554	-0.001301714	-0.0009392652	-0.03542922	-0.02556432	0	0
21.17397	-0.04567873	-0.02193554	0	0	0.03540533	0.02554708	0	0
21.19051	-0.04570499	-0.02195449	-0.001587224	-0.00114544	-0.04790251	-0.03456945	0	0
21.20708	-0.04570499	-0.02195449	0	0	0.04793562	0.03459334	0	0
21.22365	-0.04573125	-0.02197344	-0.001584848	-0.001143726	-0.04782807	-0.03451573	0	0
21.24021	-0.04573125	-0.02197344	0	0	0.04782807	0.03451573	0	0
21.25678	-0.04573125	-0.02197344	0	0	0	0	0	0
21.27354	-0.04573125	-0.02197344	0	0	0	0	0	0
21.29006	-0.04573125	-0.02197344	0	0	0	0	0	0
21.30648	-0.04573125	-0.02197344	0	0	0	0	0	0
21.32304	-0.04573125	-0.02197344	0	0	0	0	0	0
21.33961	-0.04573125	-0.02197344	0	0	0	0	0	0
21.35618	-0.04573125	-0.02197344	0	0	0	0	0	0
21.37311	-0.04573125	-0.02197344	0	0	0	0	0	0
21.38931	-0.04573125	-0.02197344	0	0	0	0	0	0
21.40588	-0.04573125	-0.02197344	0	0	0	0	0	0
21.42264	-0.04573125	-0.02197344	0	0	0	0	0	0
21.43901	-0.04573125	-0.02197344	0	0	0	0	0	0
21.45558	-0.04573125	-0.02197344	0	0	0	0	0	0
21.47218	-0.04573125	-0.02197344	0	0	0	0	0	0
21.48871	-0.04575751	-0.02199239	-0.001588548	-0.001146346	-0.04794522	-0.03459877	0	0
21.50528	-0.04575751	-0.02199239	0	0	0.04799219	0.03463266	0	0
21.52221	-0.04575751	-0.02199239	0	0	0	0	0	0
21.53841	-0.04575751	-0.02199239	0	0	0	0	0	0
21.55498	-0.04575751	-0.02199239	0	0	0	0	0	0
21.57155	-0.04575751	-0.02199239	0	0	0	0	0	0
21.58811	-0.04575751	-0.02199239	0	0	0	0	0	0
21.60477	-0.04575751	-0.02199239	0	0	0	0	0	0
21.62125	-0.04575751	-0.02199239	0	0	0	0	0	0
21.63782	-0.04575751	-0.02199239	0	0	0	0	0	0
21.65438	-0.04578377	-0.02201134	-0.001585213	-0.001143989	-0.04784183	-0.03452567	0	0
21.67095	-0.04578377	-0.02201134	0	0	0.04784459	0.03452765	0	0
21.68783	-0.04578377	-0.02201134	0	0	0	0	0	0
21.70408	-0.04578377	-0.02201134	0	0	0	0	0	0
21.72065	-0.04578377	-0.02201134	0	0	0	0	0	0
21.73722	-0.04578377	-0.02201134	0	0	0	0	0	0
21.75378	-0.04578377	-0.02201134	0	0	0	0	0	0
21.7704	-0.04578377	-0.02201134	0	0	0	0	0	0
21.78692	-0.04578377	-0.02201134	0	0	0	0	0	0
21.80348	-0.04578377	-0.02201134	0	0	0	0	0	0
21.82005	-0.04578377	-0.02201134	0	0	0	0	0	0
21.83662	-0.04578377	-0.02201134	0	0	0	0	0	0
21.85319	-0.04578377	-0.02201134	0	0	0	0	0	0
21.86975	-0.04578377	-0.02201134	0	0	0	0	0	0
21.88632	-0.04578377	-0.02201134	0	0	0	0	0	0
21.90299	-0.04578377	-0.02201134	0	0	0	0	0	0
21.92177	-0.04578377	-0.02201134	0	0	0	0	0	0
21.93833	-0.04578377	-0.02201134	0	0	0	0	0	0
21.95503	-0.04578377	-0.02201134	0	0	0	0	0	0
21.97147	-0.04578377	-0.02201134	0	0	0	0	0	0
21.98805	-0.04578377	-0.02201134	0	0	0	0	0	0
22.0046	-0.04578377	-0.02201134	0	0	0	0	0	0
22.02117	-0.04578377	-0.02201134	0	0	0	0	0	0
22.03773	-0.04578377	-0.02201134	0	0	0	0	0	0
22.05431	-0.04578377	-0.02201134	0	0	0	0	0	0
22.1537	-0.04578377	-0.02201134	0	0	0	0	0	0
22.17027	-0.04578377	-0.02201134	0	0	0	0	0	0
22.18719	-0.04578377	-0.02201134	0	0	0	0	0	0
22.2034	-0.04578377	-0.02201134	0	0	0	0	0	0
22.22022	-0.04578377	-0.02201134	0	0	0	0	0	0
22.23673	-0.04578377	-0.02201134	0	0	0	0	0	0
22.25324	-0.04578377	-0.02201134	0	0	0	0	0	0
22.26975	-0.04578377	-0.02201134	0	0	0	0	0	0
22.28626	-0.04578377	-0.02201134	0	0	0	0	0	0
22.3028	-0.04581003	-0.0220303	-0.00158759	-0.001145817	-0.04803522	-0.03466863	0	0
22.31937	-0.04581003	-0.0220303	0	0	0.04795496	0.03461071	0	0
22.33594	-0.04581003	-0.0220303	0	0	0	0	0	0
22.36907	-0.04581003	-0.0220303	0	0	0	0	0	0
22.38564	-0.04581003	-0.0220303	0	0	0	0	0	0
22.40235	-0.04581003	-0.0220303	0	0	0	0	0	0
22.41877	-0.04581003	-0.0220303	0	0	0	0	0	0
22.43537	-0.04581003	-0.0220303	0	0	0	0	0	0
22.45191	-0.04578377	-0.02204925	0.001588139	-0.001146213	0.04793013	-0.03459279	0	0
22.46847	-0.04578377	-0.02204925	0	0	-0.04797708	0.03462667	0	0
22.48504	-0.04578377	-0.02204925	0	0	0	0	0	0
22.50192	-0.04578377	-0.02204925	0	0	0	0	0	0
22.51817	-0.04578377	-0.02204925	0	0	0	0	0	0
22.53474	-0.04578377	-0.02204925	0	0	0	0	0	0
22.55145	-0.04578377	-0.02204925	0	0	0	0	0	0
22.56797	-0.04578377	-0.02204925	0	0	0	0	0	0
22.58444	-0.04578377	-0.02204925	0	0	0	0	0	0
22.60101	-0.04578377	-0.02204925	0	0	0	0	0	0
22.61757	-0.04578377	-0.02204925	0	0	0	0	0	0
22.63414	-0.04578377	-0.02204925	0	0	0	0	0	0
22.65071	-0.04578377	-0.02204925	0	0	0	0	0	0
22.6702	-0.04578377	-0.02204925	0	0	0	0	0	0
22.68677	-0.04578377	-0.02204925	0	0	0	0	0	0
22.7295	-0.04578377	-0.02204925	0	0	0	0	0	0
22.7461	-0.04578377	-0.02204925	0	0	0	0	0	0
22.76311	-0.04578377	-0.02204925	0	0	0	0	0	0
22.7792	-0.04578377	-0.02204925	0	0	0	0	0	0
22.79577	-0.04578377	-0.02204925	0	0	0	0	0	0
22.81264	-0.04578377	-0.02204925	0	0	0	0	0	0
22.82915	-0.04578377	-0.02204925	0	0	0	0	0	0
22.84566	-0.04578377	-0.02204925	0	0	0	0	0	0
22.86204	-0.04578377	-0.02204925	0	0	0	0	0	0
22.9283	-0.04581003	-0.0220682	-0.0003962577	-0.0002859644	-0.004794894	-0.003460296	0	0
22.99457	-0.04586256	-0.0221061	-0.0007925945	-0.0005720014	-0.00299041	-0.002158185	0	0
23.01114	-0.04588882	-0.02212506	-0.001585031	-0.00114397	-0.009566531	-0.006904976	0	0
23.02771	-0.04591507	-0.02214401	-0.001585031	-0.00114397	0	0	0	0
23.04431	-0.04594133	-0.02216296	-0.001581935	-0.001141735	9.334809E-05	6.737068E-05	0	0
23.06084	-0.04599386	-0.02220087	-0.003176137	-0.002292162	-0.04811035	-0.03471795	0	0
23.07741	-0.04604638	-0.02223877	-0.003170427	-0.002288203	0.0001725092	0.0001195944	0	0
23.09397	-0.04612515	-0.02233354	-0.00475564	-0.005720734	-0.04784734	-0.1036059	0	0
23.11054	-0.04620393	-0.02250412	-0.00475564	-0.01029782	0	-0.1381525	0	0
23.12736	-0.04746433	-0.02477949	-0.07491311	-0.1352396	-2.10115	-3.741886	0	0
23.14367	-0.0471755	-0.03190077	0.01771108	-0.4366786	2.795564	-9.09797	0	0
23.16024	-0.04730678	-0.04380659	-0.007924479	-0.7186367	-0.7797873	-8.576657	0	0
23.1769	-0.04835701	-0.06553181	-0.06302897	-1.303831	-1.658284	-17.61052	0	0
23.19337	-0.05027339	-0.08461606	-0.1163428	-1.158597	-1.609014	4.383174	0	0
23.20994	-0.05502335	-0.1110626	-0.286708	-1.596316	-5.156474	-13.2485	0	0
23.22651	-0.05861698	-0.1236313	-0.2169372	-0.7587345	2.105808	25.2797	0	0
23.24307	-0.0691789	-0.1455283	-0.6375186	-1.32171	-12.6939	-16.99162	0	0
23.25964	-0.08270565	-0.1575189	-0.8164759	-0.7237536	-5.400943	18.04637	0	0
23.27621	-0.09805297	-0.1676686	-0.9263663	-0.6126328	-3.316499	3.353633	0	0
23.29298	-0.1170935	-0.1815273	-1.134914	-0.8260564	-6.25439	-6.40061	0	0
23.30934	-0.1304394	-0.1919682	-0.8158916	-0.638292	9.628128	5.666741	0	0
23.32591	-0.1347831	-0.1953311	-0.2622193	-0.2030126	16.81732	13.22124	0	0
23.34247	-0.1558315	-0.2119596	-1.270485	-1.003699	-30.43126	-24.16617	0	0
23.35904	-0.1717643	-0.2247079	-0.9617065	-0.7694845	9.318944	7.068622	0	0
23.37561	-0.1825246	-0.2334021	-0.6494926	-0.5247858	9.422636	7.385022	0	0
23.39218	-0.1952438	-0.2437727	-0.7677324	-0.6259705	-3.568485	-3.053761	0	0
23.40906	-0.2030823	-0.2502584	-0.4641564	-0.3840514	9.074187	7.231203	0	0
23.42558	-0.2117007	-0.2574343	-0.5218872	-0.4345349	-1.728392	-1.511416	0	0
23.44187	-0.2149182	-0.2601111	-0.1974348	-0.16426	9.888764	8.237524	0	0
23.45844	-0.2200617	-0.2644899	-0.3104646	-0.2643028	-3.43936	-3.044182	0	0
23.47819	-0.2206631	-0.2651192	-0.03045833	-0.03187337	7.7111	6.400881	0	0
23.49475	-0.220613	-0.2651192	0.003024455	0	0.922035	0.8777155	0	0
23.51132	-0.2205629	-0.2651612	0.003024252	-0.002533103	-6.127407E-06	-0.0764492	0	0
23.52789	-0.2204877	-0.2651822	0.004537654	-0.001268205	0.04567721	0.03817691	0	0
23.54445	-0.2204627	-0.2651612	0.001512851	0.001268205	-0.09128874	0.07654898	0	0
23.56103	-0.2204627	-0.2651612	0	0	-0.04564743	-0.03826568	0	0
23.57759	-0.2204627	-0.2651192	0	0.002533978	0	0.07647562	0	0
23.67726	-0.2204627	-0.2650773	0	0.0004210123	0	-0.01817948	0	0
23.69356	-0.2205128	-0.2650773	-0.003074355	0	-0.02651021	-0.003630396	0	0
23.71028	-0.2205128	-0.2650773	0	0	0.09308966	0	0	0
23.72679	-0.2204877	-0.2650563	0.001517192	0.001270795	0.04564967	0.03823601	0	0
23.74326	-0.2204877	-0.2650563	0	0	-0.04601143	-0.03853901	0	0
23.75982	-0.2204877	-0.2650563	0	0	0	0	0	0
23.77639	-0.2204877	-0.2650563	0	0	0	0	0	0
23.79296	-0.2205128	-0.2650353	-0.001511952	0.001266406	-0.04563079	0.0382202	0	0
23.80952	-0.2205128	-0.2650353	0	0	0.04563342	-0.0382224	0	0
23.82609	-0.2205128	-0.2650353	0	0	0	0	0	0
23.84288	-0.2205128	-0.2650353	0	0	0	0	0	0
23.85922	-0.2205128	-0.2650353	0	0	0	0	0	0
23.87579	-0.2204877	-0.2650563	0.001512126	-0.001266552	0.04594283	-0.03848156	0	0
23.89236	-0.2204877	-0.2650563	0	0	-0.04563868	0.0382268	0	0
23.90892	-0.2204877	-0.2650563	0	0	0	0	0	0
23.92549	-0.2204877	-0.2650563	0	0	0	0	0	0
23.94245	-0.2204877	-0.2650563	0	0	0	0	0	0
23.95862	-0.2204627	-0.2650773	0.001549419	-0.001297017	0.04676426	-0.0391463	0	0
23.97519	-0.2204627	-0.2650773	0	0	-0.04731997	0.03961148	0	0
23.99198	-0.2204376	-0.2650563	0.001491856	0.001249574	0.04472311	0.03745993	0	0
24.00833	-0.2204125	-0.2650773	0.001533507	-0.001283697	0.001257028	-0.07645427	0	0
24.02489	-0.2204125	-0.2650773	0	0	-0.04659786	0.03900701	0	0
24.04146	-0.2204125	-0.2650773	0	0	0	0	0	0
24.05803	-0.2204125	-0.2650773	0	0	0	0	0	0
24.07459	-0.2204125	-0.2650773	0	0	0	0	0	0
24.09116	-0.2204125	-0.2650773	0	0	0	0	0	0
24.10773	-0.2204125	-0.2650773	0	0	0	0	0	0
24.12457	-0.2204125	-0.2650773	0	0	0	0	0	0
24.14086	-0.2204125	-0.2650773	0	0	0	0	0	0
24.15742	-0.2204125	-0.2650773	0	0	0	0	0	0
24.17399	-0.2204125	-0.2650773	0	0	0	0	0	0
24.19056	-0.2204125	-0.2650773	0	0	0	0	0	0
24.20714	-0.2203875	-0.2650563	0.001510908	0.001265532	0.04558355	0.03818063	0	0
24.22369	-0.2203374	-0.2650143	0.003027794	0.002534562	0.0457797	0.03829942	0	0
24.24026	-0.2202371	-0.2649304	0.006049606	0.005065623	0.09122997	0.07641395	0	0
24.25683	-0.2199364	-0.2646367	0.01815331	0.01772608	0.3652906	0.3820934	0	0
24.2734	-0.2195604	-0.264364	0.02269367	0.01645968	0.1370281	-0.03822018	0	0
24.29228	-0.2192345	-0.2640495	0.01725583	0.01665541	-0.1533782	0.005520772	0	0
24.30885	-0.2185073	-0.2634414	0.04388742	0.03669816	0.751123	0.5652897	0	0
24.32572	-0.2151191	-0.2606134	0.2008373	0.1676282	4.69353	3.915416	0	0
24.42482	-0.1558829	-0.2021745	0.5977643	0.5897192	3.422764	3.639757	0	0
24.44139	-0.1407732	-0.1743865	0.9120226	1.677287	2.717004	9.402858	0	0
24.45795	-0.1299478	-0.1506313	0.6534231	1.433864	-7.804549	-7.346528	0	0
24.47483	-0.1181835	-0.1263454	0.6970912	1.439059	1.305731	0.1553589	0	0
24.49134	-0.104955	-0.1036017	0.8011485	1.37741	3.116595	-1.846433	0	0
24.50765	-0.08393392	-0.07867789	1.288868	1.528158	14.85968	4.592926	0	0
24.52436	-0.07232102	-0.06891842	0.6947967	0.5839061	-17.98916	-28.59304	0	0
24.54087	-0.04523228	-0.04925141	1.640746	1.191218	28.47178	18.27924	0	0
24.55739	-0.03608959	-0.0426425	0.553703	0.4002505	-32.91883	-23.95279	0	0
24.57394	-0.02047082	-0.0317867	0.9437283	0.6559374	11.79679	7.733561	0	0
24.59049	-0.01092062	-0.02557626	0.5770494	0.3752515	-11.07787	-8.479902	0	0
24.60742	-0.001105263	-0.02040087	0.579578	0.3055967	0.07551371	-2.080153	0	0
24.62394	0.002210523	-0.01820438	0.2007885	0.1330094	-11.32433	-5.159688	0	0
24.64019	0.002368417	-0.01805295	0.009716181	0.009318149	-5.831698	-3.775169	0	0
24.65696	0.002342101	-0.01807188	-0.00156891	-0.001128477	-0.3417257	-0.3163359	0	0
24.72302	0.002078944	-0.01810974	-0.003983423	-0.0005730354	-0.02914806	0.006705306	0	0
24.73959	0.002052629	-0.01809081	-0.001588601	0.00114264	0.0289831	0.02076379	0	0
24.75616	0.002052629	-0.01809081	0	0	0.04794683	-0.03448693	0	0
24.77304	0.002026313	-0.01807188	-0.001558454	0.001120956	-0.04658641	0.03350841	0	0
24.78929	0.001973682	-0.0181476	-0.003239872	-0.004660715	-0.05075113	-0.1745113	0	0
24.80585	0.00173684	-0.01835581	-0.01429577	-0.01256815	-0.3369454	-0.2409914	0	0
24.82258	0.00136842	-0.01862084	-0.02202489	-0.0158437	-0.2321428	-0.09838036	0	0
24.83899	0.001315789	-0.0186587	-0.003207865	-0.002307785	0.5678989	0.4085146	0	0
24.85555	0.001315789	-0.0186587	0	0	0.09728396	0.06998749	0	0
24.87212	0.001263157	-0.0186587	-0.003176843	0	-0.0958773	0	0	0
24.88869	0.001236841	-0.01867763	-0.001588608	-0.001142752	0.04793578	-0.03449032	0	0
24.90525	0.001157894	-0.01873443	-0.00476526	-0.0034282	-0.09587709	-0.06897891	0	0
24.92182	0.001105263	-0.01877229	-0.003176484	-0.002285203	0.04794661	0.03449371	0	0
24.93839	0.0008947366	-0.01892375	-0.0127103	-0.009144309	-0.2877478	-0.2070201	0	0
24.95495	0.0008157893	-0.01898055	-0.004765271	-0.003428425	0.2398092	0.1725256	0	0
24.97168	0.000736842	-0.01903735	-0.004719625	-0.003395698	0.001370969	0.0009829331	0	0
24.98809	0.0006315788	-0.01911309	-0.006416487	-0.00461656	-0.05121433	-0.0368478	0	0
25.00471	0.0005789473	-0.01915096	-0.003167002	-0.002278609	0.09839817	0.07079588	0	0
25.02122	0.0005526315	-0.01916989	-0.001593378	-0.001146522	0.04749206	0.03416644	0	0
25.03779	0.0002894737	-0.01935924	-0.01588607	-0.01143056	-0.4320506	-0.3108739	0	0
25.05436	-0.0001052632	-0.01964329	-0.02382088	-0.0171411	-0.2394593	-0.1723345	0	0
25.07092	-0.004342078	-0.02265576	-0.2557641	-0.1818542	-6.999656	-4.970764	0	0
25.08749	-0.01170999	-0.02800577	-0.4447793	-0.3229645	-5.705149	-4.259208	0	0
25.10428	-0.01702467	-0.03180571	-0.3165671	-0.2263421	3.844007	2.896893	0	0
25.12062	-0.02757196	-0.03943884	-0.645328	-0.4670275	-9.922595	-7.264321	0	0
25.1373	-0.03524855	-0.04500932	-0.460234	-0.333966	5.604861	4.029256	0	0
25.18689	-0.05735807	-0.06101621	-0.445871	-0.3228026	0.2167442	0.1684611	0	0
25.20716	-0.06467284	-0.06626266	-0.360776	-0.258763	1.218038	0.9166545	0	0
25.22373	-0.0649611	-0.06635884	-0.01739914	-0.005805409	9.320168	6.865947	0	0
25.24037	-0.06456801	-0.06583951	0.0236179	0.031203	1.235053	1.11435	0	0
25.25688	-0.06451561	-0.06580105	0.003174279	0.002329941	-0.6166349	-0.8708892	0	0
25.27343	-0.06448939	-0.06578182	0.001584114	0.001162194	-0.04810482	-0.03532605	0	0
25.29	-0.06446319	-0.06576258	0.001581658	0.001161172	-7.416258E-05	-3.086738E-05	0	0
25.30692	-0.06443699	-0.06574335	0.00154815	0.001136132	-0.001000455	-0.0007476216	0	0
25.32313	-0.06435836	-0.06568565	0.004850866	0.003559661	0.09967617	0.07314227	0	0
25.33995	-0.06427974	-0.06562796	0.004674388	0.00343004	-0.005343347	-0.003924621	0	0
25.35626	-0.06304791	-0.06472424	0.07550987	0.05539723	2.137942	1.568463	0	0
25.37297	-0.06139642	-0.06351332	0.09887559	0.07249869	0.7077046	0.5179719	0	0
25.3894	-0.05830227	-0.06124662	0.1883026	0.1379455	2.698911	1.975188	0	0
25.40599	-0.05355401	-0.05773488	0.2861447	0.211628	2.962602	2.231065	0	0
25.42253	-0.04848828	-0.05407419	0.3062616	0.2213166	0.6071282	0.2924021	0	0
25.4391	-0.04110841	-0.04869691	0.4454499	0.3245729	4.2041	3.118793	0	0
25.45567	-0.03306689	-0.04285239	0.4853869	0.3527761	1.205301	0.851173	0	0
25.47254	-0.02715122	-0.03856225	0.3506121	0.2542699	-4.03039	-2.94579	0	0
25.4888	-0.02341677	-0.03585783	0.2296689	0.1663217	-3.650282	-2.654434	0	0
25.50556	-0.01620911	-0.03060823	0.4300059	0.313189	6.066785	4.447568	0	0
25.52193	-0.01060487	-0.02660098	0.3423321	0.2447804	-2.646152	-2.064693	0	0
25.53859	-0.006105187	-0.02335719	0.2701703	0.194764	-2.185016	-1.514466	0	0
25.55507	-0.00347367	-0.0214618	0.1597028	0.1150286	-3.334107	-2.406558	0	0
25.5882	-0.003289462	-0.02144285	0.00555942	0.0005718726	-3.106976	-2.307036	0	0
25.60513	-0.003315777	-0.02149969	-0.001554052	-0.00335692	-0.1420765	-0.07846929	0	0
25.62133	-0.003368408	-0.02157549	-0.003249014	-0.004678945	-0.05115698	-0.0399011	0	0
25.6379	-0.00347367	-0.02176498	-0.006353615	-0.01143801	-0.0947497	-0.2062809	0	0
25.65447	-0.003526301	-0.02180288	-0.003176807	-0.002287603	0.09587624	0.2761599	0	0
25.67118	-0.003736825	-0.02195449	-0.01259557	-0.009070564	-0.2830045	-0.2038068	0	0
25.6876	-0.003815771	-0.02201134	-0.004807818	-0.003462379	0.2350349	0.1692554	0	0
25.7042	-0.003815771	-0.02201134	0	0	0.1455947	0.1048509	0	0
25.72073	-0.003842086	-0.0220303	-0.001591886	-0.001146478	-0.04804598	-0.03460276	0	0
25.73773	-0.003894717	-0.0220682	-0.003096942	-0.002230311	-0.04489291	-0.03232865	0	0
25.75387	-0.004026294	-0.02216296	-0.00815224	-0.005871262	-0.1525692	-0.1098841	0	0
25.77075	-0.004789437	-0.02271263	-0.04520469	-0.03255955	-1.122056	-0.8081989	0	0
25.787	-0.006631482	-0.02403982	-0.1133523	-0.08166997	-2.056819	-1.482241	0	0
25.80377	-0.007184087	-0.02443808	-0.03294566	-0.02374411	2.434808	1.754062	0	0
25.82014	-0.007184087	-0.02443808	0	0	0.994302	0.7165986	0	0
25.8368	-0.007210401	-0.02441911	-0.001579257	0.001138317	-0.04782173	0.03446955	0	0
25.85327	-0.007236716	-0.02440015	-0.001597544	0.001151385	-0.0005518988	0.0003943921	0	0
25.86984	-0.007236716	-0.02440015	0	0	0.04835313	-0.03484916	0	0
25.88641	-0.007236716	-0.02440015	0	0	0	0	0	0
25.90297	-0.007236716	-0.02440015	0	0	0	0	0	0
25.91986	-0.007236716	-0.02440015	0	0	0	0	0	0
25.9361	-0.00726303	-0.02441911	-0.001619865	-0.001167472	-0.04889043	-0.0352364	0	0
25.95267	-0.00726303	-0.02441911	0	0	0.04936787	0.03558051	0	0
25.97178	-0.00726303	-0.02441911	0	0	0	0	0	0
25.98835	-0.00726303	-0.02441911	0	0	0	0	0	0
26.00492	-0.00726303	-0.02441911	0	0	0	0	0	0
26.02148	-0.00726303	-0.02441911	0	0	0	0	0	0
26.03805	-0.007289344	-0.02443808	-0.001588319	-0.001144869	-0.0479411	-0.03455621	0	0
26.05462	-0.007315659	-0.02445705	-0.001587982	-0.001144493	1.018424E-05	1.134705E-05	0	0
26.07118	-0.007315659	-0.02445705	0	0	0.04792539	0.03454088	0	0
26.08775	-0.007341973	-0.02447601	-0.001588347	-0.001144869	-0.04794194	-0.03455621	0	0
26.10449	-0.007368288	-0.02445705	-0.001571673	0.00113287	0.0005005974	0.06838019	0	0
26.12088	-0.007368288	-0.02445705	0	0	0.04743591	-0.03419206	0	0
26.13745	-0.007368288	-0.02445705	0	0	0	0	0	0
26.15403	-0.007341973	-0.02447601	0.001587223	-0.001144079	0.04788595	-0.03451645	0	0
26.17058	-0.007341973	-0.02447601	0	0	-0.04790249	0.03452838	0	0
26.18715	-0.007341973	-0.02447601	0	0	0	0	0	0
26.20372	-0.007368288	-0.02445705	-0.001588319	0.001144869	-0.04793558	0.03455223	0	0
26.22028	-0.007368288	-0.02445705	0	0	0.04793558	-0.03455223	0	0
26.23685	-0.007368288	-0.02445705	0	0	0	0	0	0
26.2536	-0.007368288	-0.02445705	0	0	0	0	0	0
26.26998	-0.007394602	-0.02447601	-0.001606473	-0.001157934	-0.04848623	-0.03494852	0	0
26.28663	-0.007394602	-0.02447601	0	0	0.04864585	0.03506358	0	0
26.30314	-0.007394602	-0.02447601	0	0	0	0	0	0
26.31968	-0.007420917	-0.02449498	-0.001590178	-0.001146076	-0.04810243	-0.03466848	0	0
26.33625	-0.007420917	-0.02449498	0	0	0.04801932	0.03460858	0	0
26.35282	-0.007447231	-0.02451395	-0.001588319	-0.001144869	-0.04793558	-0.03455223	0	0
26.36939	-0.007447231	-0.02451395	0	0	0.04793558	0.03455223	0	0
26.3862	-0.007473545	-0.02453291	-0.001565459	-0.001128371	-0.04690275	-0.03380716	0	0
26.40271	-0.007473545	-0.02453291	0	0	0.0469806	0.03386328	0	0
26.41908	-0.007499859	-0.02451395	-0.001606818	0.001158204	-0.04885667	0.03521616	0	0
26.43565	-0.007499859	-0.02451395	0	0	0.04877464	-0.03515703	0	0
26.47534	-0.007499859	-0.02451395	0	0	0	0	0	0
26.49191	-0.007499859	-0.02451395	0	0	0	0	0	0
26.50848	-0.007499859	-0.02451395	0	0	0	0	0	0
26.52505	-0.007526174	-0.02449498	-0.001588347	0.001144869	-0.04793642	0.03455223	0	0
26.54161	-0.007526174	-0.02449498	0	0	0.04793642	-0.03455223	0	0
26.55818	-0.007526174	-0.02449498	0	0	0	0	0	0
26.57475	-0.007578802	-0.02449498	-0.003177033	0	-0.09588856	0	0	0
26.61523	-0.007605116	-0.02447601	-0.0006499949	0.0004684739	0.04429607	0.008211811	0	0
26.63187	-0.007631431	-0.02449498	-0.001581248	-0.00113964	-0.01630199	-0.02815075	0	0
26.64836	-0.007710373	-0.02451395	-0.004787031	-0.001150166	-0.0967563	-0.0003176948	0	0
26.66493	-0.00781563	-0.02455188	-0.006352575	-0.002289363	-0.0473545	-0.03445839	0	0
26.6815	-0.007868258	-0.02458981	-0.003177005	-0.002290003	0.09583889	-1.930274E-05	0	0
26.69842	-0.007920887	-0.02462775	-0.003110096	-0.002241735	0.001998026	0.001441371	0	0
26.71463	-0.007973515	-0.02466568	-0.003246151	-0.002339844	-0.00410615	-0.002960929	0	0
26.7312	-0.008052457	-0.02472259	-0.00476493	-0.003434721	-0.04633293	-0.03340108	0	0
26.74776	-0.0081314	-0.02477949	-0.004764986	-0.003434721	-1.686442E-06	0	0	0
26.76447	-0.009026071	-0.02542448	-0.0535524	-0.03860717	-1.466246	-1.057065	0	0
26.82597	-0.03482801	-0.04409291	-0.4195531	-0.3035584	-4.68001	-3.387902	0	0
26.84254	-0.04171263	-0.04909843	-0.4155565	-0.3021338	0.05119536	0.01824959	0	0
26.8591	-0.05048339	-0.05549192	-0.5294037	-0.3859115	-3.435916	-2.528417	0	0
26.87567	-0.05651869	-0.05986444	-0.3642915	-0.263926	4.983094	3.68153	0	0
26.89224	-0.06142264	-0.06341723	-0.296003	-0.2144471	2.060953	1.493275	0	0
26.90881	-0.06572101	-0.06622419	-0.2594201	-0.1694086	1.104011	1.359187	0	0
26.92558	-0.06532796	-0.06578182	0.02342773	0.02636763	8.482165	5.871024	0	0
26.9421	-0.06538036	-0.06562796	-0.003173546	0.009316709	-0.7990564	-0.5121802	0	0
26.95851	-0.06532796	-0.0655895	0.003194206	0.002344567	0.1934262	-0.2117851	0	0
26.99164	-0.06517074	-0.06547412	0.004744974	0.003482166	0.03130241	0.02296255	0	0
27.00821	-0.06511833	-0.06547412	0.003163316	0	-0.03182302	-0.07006132	0	0
27.02477	-0.06511833	-0.06547412	0	0	-0.09546907	0	0	0
27.04166	-0.06506592	-0.06543566	0.003102943	0.002277139	0.09274477	0.06806205	0	0
27.05791	-0.06488249	-0.06530105	0.0112891	0.008284331	0.2470304	0.1812766	0	0
27.07448	-0.06435836	-0.06491649	0.0316436	0.02321709	0.6203346	0.4550988	0	0
27.09121	-0.06420112	-0.06480113	0.009396729	0.006893932	-0.6681426	-0.4902351	0	0
27.10771	-0.06388663	-0.06457044	0.01905984	0.01398095	0.2907631	0.2132484	0	0
27.12422	-0.063808	-0.06451277	0.004761772	0.003492928	-0.4331123	-0.3176996	0	0
27.14074	-0.06370316	-0.06443588	0.00634698	0.004655023	0.04799362	0.03518348	0	0
27.15731	-0.06331001	-0.06414754	0.02373072	0.01740409	0.5254286	0.3853442	0	0
27.17388	-0.0622091	-0.0633788	0.06644357	0.04639611	1.289002	0.8749306	0	0
27.19044	-0.06087207	-0.06239895	0.08070324	0.05914353	0.4303328	0.3846958	0	0
27.20728	-0.0557317	-0.05863639	0.3052481	0.2234301	6.721447	4.917697	0	0
27.22358	-0.05074587	-0.05499372	0.3060185	0.2235791	0.02325265	0.004497438	0	0
27.24014	-0.04378778	-0.04992076	0.4199911	0.3062042	3.468452	2.514473	0	0
27.25682	-0.04008378	-0.04726337	0.2221417	0.1593732	-5.951921	-4.41713	0	0
27.27328	-0.03482801	-0.04344396	0.3193342	0.2320627	2.933445	2.1939	0	0
27.28984	-0.02807157	-0.0385813	0.4077728	0.2934771	2.677713	1.859485	0	0
27.30641	-0.02365348	-0.03538195	0.2666763	0.1931129	-4.258055	-3.028822	0	0
27.32298	-0.01826113	-0.03155857	0.3255207	0.2308061	1.776029	1.137647	0	0
27.33954	-0.01565661	-0.02971517	0.1572087	0.1112683	-5.07996	-3.607865	0	0
27.35639	-0.01231517	-0.02737923	0.1983336	0.1386506	1.230739	0.8194661	0	0
27.3729	-0.01113112	-0.02652506	0.07171699	0.05173649	-3.795733	-2.605526	0	0
27.39286	-0.01107849	-0.02656302	0.002636989	-0.001902071	-1.894336	-1.470896	0	0
27.40943	-0.01102587	-0.02663894	0.003176414	-0.004582401	0.01476912	-0.07338581	0	0
27.42599	-0.01097324	-0.02679078	0.00317647	-0.009165139	1.700496E-06	-0.1383073	0	0
27.44295	-0.01102587	-0.02690467	-0.00310323	-0.006715666	-0.1873114	0.07306307	0	0
27.45913	-0.01115743	-0.0270755	-0.008134029	-0.01056208	-0.1518385	-0.1160916	0	0
27.47597	-0.01136793	-0.02726533	-0.01249432	-0.01126745	-0.1320422	-0.02136079	0	0
27.49226	-0.01192049	-0.02766401	-0.03392654	-0.02447856	-0.6468257	-0.3987122	0	0
27.509	-0.01328869	-0.02865143	-0.08174735	-0.05899651	-1.44807	-1.045243	0	0
27.52539	-0.01397278	-0.02914526	-0.04172368	-0.03011973	1.207986	0.8715531	0	0
27.54202	-0.01397278	-0.02914526	0	0	1.263368	0.9120076	0	0
27.55853	-0.01397278	-0.02914526	0	0	0	0	0	0
27.57509	-0.01397278	-0.02914526	0	0	0	0	0	0
27.59166	-0.01397278	-0.02914526	0	0	0	0	0	0
27.60823	-0.01399909	-0.02912627	-0.001588306	0.001146688	-0.04793792	0.0346091	0	0
27.62508	-0.01399909	-0.02912627	0	0	0.0475248	-0.03431085	0	0
27.64136	-0.01399909	-0.02912627	0	0	0	0	0	0
27.6581	-0.01399909	-0.02912627	0	0	0	0	0	0
27.67449	-0.01399909	-0.02912627	0	0	0	0	0	0
27.69106	-0.01399909	-0.02912627	0	0	0	0	0	0
27.70764	-0.01399909	-0.02912627	0	0	0	0	0	0
27.72419	-0.01397278	-0.02914526	0.001589404	-0.001147481	0.04797106	-0.03463303	0	0
27.74076	-0.01397278	-0.02914526	0	0	-0.04798763	0.03464499	0	0
27.75768	-0.01397278	-0.02914526	0	0	0	0	0	0
27.7739	-0.01397278	-0.02914526	0	0	0	0	0	0
27.79121	-0.01399909	-0.02916426	-0.001519545	-0.001097046	-0.04531222	-0.03271346	0	0
27.80723	-0.01399909	-0.02916426	0	0	0.04558706	0.03291189	0	0
27.8236	-0.0140254	-0.02914526	-0.001607499	0.001160586	-0.04963733	0.03583727	0	0
27.84016	-0.0140254	-0.02914526	0	0	0.04880942	-0.03523954	0	0
27.85675	-0.0140254	-0.02914526	0	0	0	0	0	0
27.8733	-0.0140254	-0.02914526	0	0	0	0	0	0
27.88986	-0.0140254	-0.02914526	0	0	0	0	0	0
27.90643	-0.0140254	-0.02914526	0	0	0	0	0	0
27.92329	-0.0140254	-0.02914526	0	0	0	0	0	0
27.93956	-0.0140254	-0.02914526	0	0	0	0	0	0
27.95632	-0.0140254	-0.02914526	0	0	0	0	0	0
27.9727	-0.0140254	-0.02914526	0	0	0	0	0	0
27.98984	-0.0140254	-0.02914526	0	0	0	0	0	0
28.00583	-0.0140254	-0.02914526	0	0	0	0	0	0
28.0224	-0.01405171	-0.02912627	-0.001588306	0.001146688	-0.04878893	0.0352235	0	0
28.03897	-0.01405171	-0.02912627	0	0	0.04793792	-0.0346091	0	0
28.05963	-0.01405171	-0.02912627	0	0	0	0	0	0
28.0764	-0.01405171	-0.02912627	0	0	0	0	0	0
28.09292	-0.01405171	-0.02912627	0	0	0	0	0	0
28.10943	-0.01405171	-0.02912627	0	0	0	0	0	0
28.1259	-0.01405171	-0.02912627	0	0	0	0	0	0
28.14247	-0.01405171	-0.02912627	0	0	0	0	0	0
28.15903	-0.01405171	-0.02912627	0	0	0	0	0	0
28.1756	-0.01405171	-0.02912627	0	0	0	0	0	0
28.19217	-0.01405171	-0.02912627	0	0	0	0	0	0
28.209	-0.01405171	-0.02912627	0	0	0	0	0	0
28.2253	-0.01405171	-0.02912627	0	0	0	0	0	0
28.24202	-0.0140254	-0.02914526	0.001573629	-0.001136092	0.04765682	-0.03440617	0	0
28.25843	-0.0140254	-0.02914526	0	0	-0.04749496	0.0342893	0	0
28.27506	-0.0140254	-0.02914526	0	0	0	0	0	0
28.29157	-0.0140254	-0.02914526	0	0	0	0	0	0
28.30814	-0.0140254	-0.02914526	0	0	0	0	0	0
28.3247	-0.0140254	-0.02914526	0	0	0	0	0	0
28.34159	-0.0140254	-0.02914526	0	0	0	0	0	0
28.3581	-0.0140254	-0.02914526	0	0	0	0	0	0
28.37462	-0.0140254	-0.02914526	0	0	0	0	0	0
28.39114	-0.0140254	-0.02914526	0	0	0	0	0	0
28.40764	-0.0140254	-0.02914526	0	0	0	0	0	0
28.4241	-0.0140254	-0.02914526	0	0	0	0	0	0
28.44067	-0.0140254	-0.02914526	0	0	0	0	0	0
28.45724	-0.0140254	-0.02914526	0	0	0	0	0	0
28.4738	-0.0140254	-0.02914526	0	0	0	0	0	0
28.49037	-0.0140254	-0.02914526	0	0	0	0	0	0
28.50694	-0.0140254	-0.02914526	0	0	0	0	0	0
28.52373	-0.01399909	-0.02916426	0.001567316	-0.001131574	0.04699061	-0.03392639	0	0
28.54024	-0.01399909	-0.02916426	0	0	-0.04706867	0.03398274	0	0
28.55675	-0.01399909	-0.02916426	0	0	0	0	0	0
28.57321	-0.01399909	-0.02920225	0	-0.002308527	0	-0.07002215	0	0
28.58977	-0.01399909	-0.02920225	0	0	0	0.06990487	0	0
28.60634	-0.01399909	-0.02920225	0	0	0	0	0	0
28.62291	-0.0140254	-0.02918325	-0.001588066	0.001146556	-0.0479307	0.03460512	0	0
28.63947	-0.01397278	-0.02918325	0.003176189	0	0.1437855	-0.03460313	0	0
28.65604	-0.01399909	-0.02916426	-0.001588306	0.001146688	-0.143801	0.0346091	0	0
28.67261	-0.01399909	-0.02920225	0	-0.002293112	0.04793792	-0.1038193	0	0
28.68934	-0.01399909	-0.02920225	0	0	0	0.0688535	0	0
28.70574	-0.01399909	-0.02920225	0	0	0	0	0	0
28.72238	-0.01399909	-0.02920225	0	0	0	0	0	0
28.73888	-0.01397278	-0.02918325	0.001594548	0.001151195	0.04812078	0.03474112	0	0
28.75544	-0.01397278	-0.02918325	0	0	-0.04822348	-0.03481527	0	0
28.77201	-0.01397278	-0.02918325	0	0	0	0	0	0
28.81055	-0.01397278	-0.02918325	0	0	0	0	0	0
28.82713	-0.01397278	-0.02918325	0	0	0	0	0	0
28.84396	-0.01397278	-0.02918325	0	0	0	0	0	0
28.86047	-0.01397278	-0.02918325	0	0	0	0	0	0
28.87682	-0.01397278	-0.02918325	0	0	0	0	0	0
28.89349	-0.01397278	-0.02918325	0	0	0	0	0	0
28.91	-0.01397278	-0.02918325	0	0	0	0	0	0
28.92652	-0.01397278	-0.02918325	0	0	0	0	0	0
28.94309	-0.01397278	-0.02918325	0	0	0	0	0	0
28.95966	-0.01397278	-0.02918325	0	0	0	0	0	0
28.97655	-0.01397278	-0.02918325	0	0	0	0	0	0
28.99306	-0.01397278	-0.02918325	0	0	0	0	0	0
29.00936	-0.01394646	-0.02916426	0.001614706	0.001165748	0.0492221	0.03553623	0	0
29.02608	-0.01394646	-0.02916426	0	0	-0.04889517	-0.0353002	0	0
29.04249	-0.01394646	-0.02912627	0	0.002316043	0	0.06990233	0	0
29.05906	-0.01392015	-0.02910727	0.00158794	0.001146312	0.04815976	-0.03547614	0	0
29.07562	-0.01389384	-0.02908828	0.001588488	0.00114682	1.655619E-05	1.534399E-05	0	0
29.09219	-0.01386753	-0.02906928	0.001588123	0.001146556	-1.104044E-05	-7.969357E-06	0	0
29.10876	-0.01373598	-0.02897431	0.007940614	0.005732442	0.1917185	0.1384023	0	0
29.12565	-0.01360442	-0.02887934	0.007784669	0.005619754	-0.004659738	-0.003367223	0	0
29.14192	-0.01336762	-0.02870841	0.01455803	0.01050881	0.2042323	0.1474163	0	0
29.15845	-0.01294664	-0.02844253	0.02546318	0.01608196	0.3324866	0.1699195	0	0
29.17502	-0.00994704	-0.02627835	0.1810565	0.1306302	4.700686	3.46066	0	0
29.1917	-0.006999886	-0.02419153	0.1767106	0.125125	-0.1307224	-0.1655963	0	0
29.22472	0.01168368	-0.01120842	0.5657927	0.3931665	7.828647	5.393214	0	0
29.24129	0.02346937	-0.003360697	0.7114679	0.4737437	2.937755	1.624959	0	0
29.25785	0.03364519	0.002305953	0.6142138	0.3420397	-2.935303	-3.975065	0	0
29.27442	0.04927587	0.005370604	0.9434693	0.1849827	9.936954	-4.739989	0	0
29.29099	0.07012168	0.006291335	1.258256	0.05557547	9.500278	-3.905518	0	0
29.30778	0.1039919	0.007023985	2.017011	0.04363007	22.74477	-0.3580805	0	0
29.32412	0.1312671	0.008207161	1.669203	0.07240868	-10.49746	0.8685902	0	0
29.3408	0.1403862	0.008639012	0.5465901	0.02588477	-33.99402	-1.408798	0	0
29.35731	0.1897169	0.01222315	2.987928	0.2170887	73.54849	5.760269	0	0
29.37383	0.2081009	0.01411692	1.113249	0.1146778	-56.76747	-3.101122	0	0
29.39039	0.2167762	0.0148479	0.523882	0.04414244	-17.81995	-2.13269	0	0
29.40695	0.2268181	0.01865027	0.606128	0.2295116	2.482761	5.595742	0	0
29.42352	0.2276924	0.0193803	0.0527726	0.04406494	-16.7003	-5.596792	0	0
29.44009	0.2278672	0.01924928	0.01055097	-0.007907492	-1.274178	-1.568441	0	0
29.45666	0.228067	0.01909954	0.01205923	-0.009039585	0.04551933	-0.03416662	0	0
29.47324	0.2306623	0.01715229	0.1565313	-0.1174415	4.358671	-3.270447	0	0
29.48979	0.2338025	0.01479167	0.1896928	-0.1426021	1.000816	-0.759348	0	0
29.54857	0.2339519	0.01467922	0.002542054	-0.00191318	-2.484388	1.867616	0	0
29.56514	0.233927	0.01466048	-0.001503684	-0.001131135	-0.05369546	0.01037938	0	0
29.61484	0.2339021	0.01464174	-0.000501005	-0.000377103	0.01513045	0.01137837	0	0
29.63151	0.2338523	0.01467922	-0.002986318	0.00224778	-0.03744309	0.03954583	0	0
29.65144	0.2338025	0.01467922	-0.002499222	0	0.01330788	-0.06141137	0	0
29.66804	0.2337527	0.01467922	-0.003000941	0	-0.01373603	0	0	0
29.68457	0.2337029	0.01467922	-0.00301271	0	-0.0003552139	0	0	0
29.70114	0.233678	0.01469797	-0.001502957	0.001131265	0.04560907	0.0341751	0	0
29.71773	0.2336281	0.01469797	-0.003003357	0	-0.04525609	-0.03412202	0	0
29.73427	0.2336032	0.01471671	-0.00150469	0.001132569	0.04522986	0.03418101	0	0
29.75084	0.2335285	0.01469797	-0.004509771	-0.001131265	-0.09074578	-0.06836202	0	0
29.76761	0.2334787	0.01469797	-0.002970563	0	0.04617167	0.0339346	0	0
29.78412	0.2334538	0.01467922	-0.001508894	-0.001135055	0.04391857	-0.03410487	0	0
29.80063	0.2334289	0.01466048	-0.001507992	-0.001135055	2.732728E-05	0	0	0
29.81711	0.233404	0.01464174	-0.001512389	-0.001137683	-0.0001332863	-7.968028E-05	0	0
29.83368	0.2333044	0.01452929	-0.006013628	-0.006787817	-0.1362319	-0.1710037	0	0
29.85024	0.2332296	0.01447306	-0.004510152	-0.00339363	0.0453724	0.1024309	0	0
29.86681	0.2331051	0.01437934	-0.007520116	-0.005658024	-0.09084613	-0.06834345	0	0
29.88369	0.2330303	0.01432311	-0.004426083	-0.003330484	0.09250481	0.06958833	0	0
29.89994	0.2329805	0.01428562	-0.003066675	-0.002307171	0.04102939	0.03088544	0	0
29.91651	0.2329058	0.01422939	-0.004511571	-0.003394246	-0.04403032	-0.03312645	0	0
29.93307	0.2328559	0.0141919	-0.003007713	-0.002262812	0.0453865	0.03414674	0	0
29.94964	0.2327812	0.01413566	-0.004511571	-0.003394359	-0.0453865	-0.03415014	0	0
29.96625	0.2327563	0.01411692	-0.001500057	-0.001128576	0.09077269	0.06829498	0	0
29.98277	0.2326815	0.01406068	-0.004523548	-0.003403371	-0.09125438	-0.0686574	0	0
29.99934	0.2325819	0.0139857	-0.006016327	-0.004525961	-0.04511186	-0.03392477	0	0
30.01591	0.232532	0.01394821	-0.003007713	-0.002263037	0.09080012	0.0682952	0	0
30.03248	0.2324822	0.01391072	-0.003008613	-0.002262981	-2.714469E-05	1.693469E-06	0	0
30.04904	0.2324074	0.01385448	-0.00451247	-0.00339464	-0.04538649	-0.03415353	0	0
30.06561	0.2323327	0.01383573	-0.004511951	-0.001131416	1.566896E-05	0.06830028	0	0
30.08218	0.2323077	0.01381698	-0.00150403	-0.001131677	0.09077922	-7.863037E-06	0	0
30.09875	0.2323077	0.01381698	0	0	0.04539433	0.03415604	0	0
30.11536	0.2323077	0.01381698	0	0	0	0	0	0
30.13188	0.2323077	0.01381698	0	0	0	0	0	0
30.14845	0.2322828	0.01379824	-0.001503857	-0.001131547	-0.04545189	-0.03419936	0	0
30.16501	0.2322579	0.01377949	-0.00150493	-0.001131677	-3.237804E-05	-3.931745E-06	0	0
30.18158	0.2322579	0.01377949	0	0	0.04542148	0.03415604	0	0
30.19815	0.232233	0.01376074	-0.001503857	-0.001131547	-0.04538649	-0.03415014	0	0
30.21471	0.2321831	0.01372325	-0.003008613	-0.002263149	-0.04541363	-0.03415184	0	0
30.23144	0.2320336	0.01364826	-0.00893926	-0.004482545	-0.1781158	-0.06665537	0	0
30.24785	0.2318591	0.01355452	-0.01063681	-0.005714708	-0.0512351	-0.03718887	0	0
30.26447	0.2313855	0.01323579	-0.02849433	-0.01917469	-0.5407153	-0.4075603	0	0
30.28098	0.229365	0.01175423	-0.1223763	-0.08973674	-2.833526	-2.12969	0	0
30.29755	0.2288409	0.0113603	-0.03163676	-0.02377816	2.743262	1.994078	0	0
30.3145	0.2288409	0.0113603	0	0	0.9437171	0.709297	0	0
30.33068	0.2288409	0.01132277	0	-0.002319465	0	-0.07000563	0	0
30.34961	0.228791	0.01124773	-0.002637496	-0.003964905	-0.07513625	-0.04687481	0	0
30.36617	0.2281169	0.01077869	-0.0406831	-0.02830851	-1.071835	-0.6858173	0	0
30.38274	0.2247433	0.008357376	-0.203653	-0.1461673	-4.918442	-3.556987	0	0
30.39956	0.2162993	0.002400002	-0.5019968	-0.3541648	-8.936131	-6.230038	0	0
30.41607	0.201946	-0.00735766	-0.8692659	-0.5909467	-11.01824	-7.103564	0	0
30.43258	0.1890316	-0.01411839	-0.7822194	-0.4094931	2.636021	5.494943	0	0
30.44909	0.1790869	-0.01792046	-0.6022754	-0.230262	5.449225	5.427637	0	0
30.46557	0.1557545	-0.02352783	-1.415845	-0.3402636	-24.66003	-3.33425	0	0
30.48214	0.1352224	-0.02627835	-1.239462	-0.1660404	5.337684	5.272333	0	0
30.49871	0.1052153	-0.02918325	-1.811232	-0.1753405	-17.25704	-0.2806959	0	0
30.51527	0.08168624	-0.03176769	-1.420215	-0.1559968	11.8009	0.5837946	0	0
30.53184	0.05090336	-0.0356294	-1.858059	-0.2330931	-13.21413	-2.32677	0	0
30.54841	0.03656265	-0.0371526	-0.865607	-0.09194078	29.95225	4.259984	0	0
30.56498	0.01170999	-0.03980099	-1.500109	-0.1598572	-19.14932	-2.049721	0	0
30.59811	-0.006131502	-0.04178404	-0.5385193	-0.05985558	19.34871	2.012191	0	0
30.61467	-0.01747191	-0.04458926	-0.6845081	-0.1693233	-2.937526	-2.202664	0	0
30.63124	-0.01920816	-0.04481838	-0.1048007	-0.0138295	17.49561	4.692812	0	0
30.64781	-0.01986581	-0.0443029	-0.03969548	0.03111463	1.964879	1.356417	0	0
30.66438	-0.01986581	-0.0443029	0	0	1.198012	-0.9390415	0	0
30.68094	-0.01986581	-0.0443029	0	0	0	0	0	0
30.69751	-0.0198395	-0.04428381	0.001587842	0.001152177	0.04792115	0.03477278	0	0
30.71408	-0.0198395	-0.04428381	0	0	-0.04792115	-0.03477278	0	0
30.73064	-0.0198132	-0.04426472	0.001587729	0.001152402	0.04791776	0.03477957	0	0
30.74721	-0.01978689	-0.04424563	0.001587842	0.001152177	3.393965E-06	-6.78793E-06	0	0
30.76382	-0.01973428	-0.04424563	0.003166821	0	0.04758793	-0.03472481	0	0
30.78035	-0.01973428	-0.04424563	0	0	-0.09557483	0	0	0
30.79691	-0.01970797	-0.04426472	0.001587842	-0.001152177	0.04798745	-0.03482089	0	0
30.81386	-0.01970797	-0.04426472	0	0	-0.04737842	0.03437896	0	0
30.83037	-0.01970797	-0.04426472	0	0	0	0	0	0
30.84661	-0.01968167	-0.04428381	0.001619729	-0.001175545	0.04945286	-0.03589123	0	0
30.86318	-0.01965536	-0.0443029	0.001587729	-0.001152177	-0.0009753561	0.0007122495	0	0
30.87975	-0.01962906	-0.04432199	0.001587659	-0.00115227	-2.125498E-06	-2.78247E-06	0	0
30.89642	-0.01960275	-0.04434108	0.001577851	-0.001144928	-0.0002950581	0.0002208655	0	0
30.91288	-0.01957645	-0.04436017	0.001598217	-0.001160015	0.0006147333	-0.0004553743	0	0
30.92945	-0.01957645	-0.04436017	0	0	-0.04839307	0.03512456	0	0
30.94601	-0.01957645	-0.04436017	0	0	0	0	0	0
30.96297	-0.01955014	-0.04437926	0.001551754	-0.001125991	0.04629374	-0.03359189	0	0
30.97915	-0.01955014	-0.04437926	0	0	-0.04683204	0.03398249	0	0
30.99599	-0.01957645	-0.04439835	-0.00156177	-0.00113348	-0.04728948	-0.03432112	0	0
31.01228	-0.01960275	-0.04437926	-0.001614873	0.001172104	-0.001602743	0.06958667	0	0
31.03065	-0.01960275	-0.04437926	0	0	0.04659138	-0.03381686	0	0
31.04722	-0.01960275	-0.04437926	0	0	0	0	0	0
31.06379	-0.01960275	-0.04437926	0	0	0	0	0	0
31.08056	-0.01960275	-0.04437926	0	0	0	0	0	0
31.09692	-0.01960275	-0.04437926	0	0	0	0	0	0
31.11349	-0.01960275	-0.04437926	0	0	0	0	0	0
31.13005	-0.01960275	-0.04437926	0	0	0	0	0	0
31.14662	-0.01960275	-0.04437926	0	0	0	0	0	0
31.16319	-0.01960275	-0.04437926	0	0	0	0	0	0
31.17975	-0.01960275	-0.04437926	0	0	0	0	0	0
31.19632	-0.01960275	-0.04437926	0	0	0	0	0	0
31.21289	-0.01960275	-0.04437926	0	0	0	0	0	0
31.22965	-0.01960275	-0.04437926	0	0	0	0	0	0
31.24617	-0.01960275	-0.04437926	0	0	0	0	0	0
31.26268	-0.01960275	-0.04437926	0	0	0	0	0	0
31.27915	-0.01960275	-0.04437926	0	0	0	0	0	0
31.29572	-0.01960275	-0.04437926	0	0	0	0	0	0
31.31271	-0.01960275	-0.04437926	0	0	0	0	0	0
31.32885	-0.01960275	-0.04437926	0	0	0	0	0	0
31.34542	-0.01960275	-0.04437926	0	0	0	0	0	0
31.36198	-0.01960275	-0.04437926	0	0	0	0	0	0
31.37855	-0.01960275	-0.04441744	0	-0.002304805	0	-0.06955913	0	0
31.39527	-0.01960275	-0.04441744	0	0	0	0.06923631	0	0
31.41178	-0.01960275	-0.04441744	0	0	0	0	0	0
31.4283	-0.01960275	-0.04445562	0	-0.002312033	0	-0.07001103	0	0
31.44482	-0.01960275	-0.04445562	0	0	0	0.06998678	0	0
31.46139	-0.01960275	-0.04445562	0	0	0	0	0	0
31.47795	-0.01960275	-0.04445562	0	0	0	0	0	0
31.49452	-0.01960275	-0.04445562	0	0	0	0	0	0
31.51109	-0.01960275	-0.04445562	0	0	0	0	0	0
31.52787	-0.01960275	-0.04445562	0	0	0	0	0	0
31.54438	-0.01960275	-0.04445562	0	0	0	0	0	0
31.56079	-0.01960275	-0.04445562	0	0	0	0	0	0
31.57735	-0.01960275	-0.04445562	0	0	0	0	0	0
31.59392	-0.01960275	-0.04445562	0	0	0	0	0	0
31.61049	-0.01957645	-0.04447471	0.001587729	-0.001152402	0.04791776	-0.03477957	0	0
31.62705	-0.01957645	-0.04447471	0	0	-0.04791776	0.03477957	0	0
31.64362	-0.01957645	-0.04447471	0	0	0	0	0	0
31.66047	-0.01957645	-0.04447471	0	0	0	0	0	0
31.67675	-0.01957645	-0.04447471	0	0	0	0	0	0
31.69349	-0.01957645	-0.04447471	0	0	0	0	0	0
31.71311	-0.01960275	-0.04449381	-0.001340235	-0.0009727663	-0.03686229	-0.02675531	0	0
31.73001	-0.01960275	-0.04449381	0	0	0.03669098	0.02663097	0	0
31.74625	-0.01960275	-0.04449381	0	0	0	0	0	0
31.76303	-0.01960275	-0.04449381	0	0	0	0	0	0
31.77938	-0.01957645	-0.0445129	0.00160922	-0.001168001	0.04857195	-0.03525439	0	0
31.79595	-0.01957645	-0.0445129	0	0	-0.04889567	0.03548935	0	0
31.82908	-0.01957645	-0.0445129	0	0	0	0	0	0
31.84565	-0.01957645	-0.0445129	0	0	0	0	0	0
31.86222	-0.01957645	-0.0445129	0	0	0	0	0	0
31.87878	-0.01957645	-0.0445129	0	0	0	0	0	0
31.89563	-0.01957645	-0.0445129	0	0	0	0	0	0
31.91191	-0.01957645	-0.0445129	0	0	0	0	0	0
31.92848	-0.01957645	-0.0445129	0	0	0	0	0	0
31.94516	-0.01957645	-0.0445129	0	0	0	0	0	0
31.96161	-0.01957645	-0.0445129	0	0	0	0	0	0
31.97819	-0.01957645	-0.0445129	0	0	0	0	0	0
31.99475	-0.01957645	-0.0445129	0	0	0	0	0	0
32.01131	-0.01957645	-0.0445129	0	0	0	0	0	0
32.02822	-0.01957645	-0.0445129	0	0	0	0	0	0
32.04444	-0.01957645	-0.0445129	0	0	0	0	0	0
32.06124	-0.01957645	-0.0445129	0	0	0	0	0	0
32.07775	-0.01957645	-0.0445129	0	0	0	0	0	0
32.09426	-0.01957645	-0.0445129	0	0	0	0	0	0
32.11078	-0.01957645	-0.0445129	0	0	0	0	0	0
32.12728	-0.01957645	-0.0445129	0	0	0	0	0	0
32.14384	-0.01957645	-0.0445129	0	0	0	0	0	0
32.16041	-0.01960275	-0.04453199	-0.001587729	-0.001152177	-0.04791776	-0.03477278	0	0
32.17733	-0.01960275	-0.04453199	0	0	0.04742095	0.03441226	0	0
32.19355	-0.01957645	-0.04455108	0.001621709	-0.001177066	0.04894328	-0.03552391	0	0
32.21011	-0.01955014	-0.04457017	0.001587842	-0.001152402	-0.00103295	0.0007522201	0	0
32.22668	-0.01952383	-0.04458926	0.001588207	-0.001152668	1.103693E-05	-8.008009E-06	0	0
32.28236	-0.01952383	-0.04462745	0	-0.0006856943	-0.021982	0.006463265	0	0
32.29894	-0.01952383	-0.04462745	0	0	0	0.009489028	0	0
32.31932	-0.01952383	-0.04462745	0	0	0	0	0	0
32.33589	-0.01952383	-0.04462745	0	0	0	0	0	0
32.35246	-0.01952383	-0.04462745	0	0	0	0	0	0
32.36903	-0.01952383	-0.04462745	0	0	0	0	0	0
32.38559	-0.01952383	-0.04462745	0	0	0	0	0	0
32.40216	-0.01952383	-0.04462745	0	0	0	0	0	0
32.43785	-0.01952383	-0.04462745	0	0	0	0	0	0
32.45441	-0.01952383	-0.04462745	0	0	0	0	0	0
32.47103	-0.01952383	-0.04462745	0	0	0	0	0	0
32.48755	-0.01952383	-0.04462745	0	0	0	0	0	0
32.50412	-0.01952383	-0.04462745	0	0	0	0	0	0
32.52068	-0.01952383	-0.04462745	0	0	0	0	0	0
32.53758	-0.01952383	-0.04462745	0	0	0	0	0	0
32.55381	-0.01952383	-0.04462745	0	0	0	0	0	0
32.57061	-0.01952383	-0.04462745	0	0	0	0	0	0
32.58695	-0.01952383	-0.04462745	0	0	0	0	0	0
32.60352	-0.01952383	-0.04462745	0	0	0	0	0	0
32.62014	-0.01952383	-0.04462745	0	0	0	0	0	0
32.63665	-0.01952383	-0.04462745	0	0	0	0	0	0
32.65321	-0.01952383	-0.04462745	0	0	0	0	0	0
32.66978	-0.01952383	-0.04462745	0	0	0	0	0	0
32.68635	-0.01952383	-0.04462745	0	0	0	0	0	0
32.70292	-0.01952383	-0.04462745	0	0	0	0	0	0
32.80232	-0.01955014	-0.04460835	-0.0002646403	0.000192067	-0.00228196	0.00165617	0	0
32.81889	-0.01955014	-0.04460835	0	0	0.00228196	-0.00165617	0	0
32.83545	-0.01955014	-0.04460835	0	0	0	0	0	0
32.85202	-0.01955014	-0.04460835	0	0	0	0	0	0
32.88515	-0.01955014	-0.04460835	0	0	0	0	0	0
32.90172	-0.01955014	-0.04460835	0	0	0	0	0	0
32.91835	-0.01955014	-0.04460835	0	0	0	0	0	0
32.93486	-0.01955014	-0.04460835	0	0	0	0	0	0
32.95142	-0.01955014	-0.04460835	0	0	0	0	0	0
32.96799	-0.01955014	-0.04460835	0	0	0	0	0	0
32.9849	-0.01955014	-0.04460835	0	0	0	0	0	0
33.00112	-0.01955014	-0.04460835	0	0	0	0	0	0
33.01769	-0.01955014	-0.04460835	0	0	0	0	0	0
33.03426	-0.01955014	-0.04460835	0	0	0	0	0	0
33.05082	-0.01955014	-0.04460835	0	0	0	0	0	0
33.06747	-0.01955014	-0.04460835	0	0	0	0	0	0
33.08396	-0.01955014	-0.04460835	0	0	0	0	0	0
33.10052	-0.01955014	-0.04460835	0	0	0	0	0	0
33.11709	-0.01952383	-0.04458926	0.001587842	0.001152402	0.04792115	0.03477957	0	0
33.13366	-0.01952383	-0.04458926	0	0	-0.04792115	-0.03477957	0	0
33.15023	-0.01955014	-0.04457017	-0.001587842	0.001152402	-0.04792115	0.03477957	0	0
33.16679	-0.01955014	-0.04457017	0	0	0.04792115	-0.03477957	0	0
33.18336	-0.01955014	-0.04457017	0	0	0	0	0	0
33.19993	-0.01955014	-0.04457017	0	0	0	0	0	0
33.21658	-0.01955014	-0.04457017	0	0	0	0	0	0
33.23309	-0.01955014	-0.04457017	0	0	0	0	0	0
33.24963	-0.01955014	-0.04457017	0	0	0	0	0	0
33.2662	-0.01952383	-0.04455108	0.001587842	0.001152402	0.04795981	0.03480762	0	0
33.28312	-0.01952383	-0.04455108	0	0	-0.0474081	-0.03440721	0	0
33.30341	-0.01952383	-0.04455108	0	0	0	0	0	0
33.31998	-0.01952383	-0.04455108	0	0	0	0	0	0
33.33655	-0.01955014	-0.04457017	-0.001587842	-0.001152402	-0.04792115	-0.03477957	0	0
33.35312	-0.01955014	-0.04457017	0	0	0.04792115	0.03477957	0	0
33.36968	-0.01955014	-0.04457017	0	0	0	0	0	0
33.38625	-0.01955014	-0.04457017	0	0	0	0	0	0
33.40281	-0.01955014	-0.04457017	0	0	0	0	0	0
33.41972	-0.01952383	-0.04458926	0.001555956	-0.001129261	0.04648256	-0.03373548	0	0
33.43595	-0.01952383	-0.04458926	0	0	-0.04695884	0.03408115	0	0
33.45251	-0.01952383	-0.04458926	0	0	0	0	0	0
33.55192	-0.01955014	-0.04457017	-0.0002646403	0.000192067	-0.00228196	0.00165617	0	0
33.56849	-0.01955014	-0.04457017	0	0	0.00228196	-0.00165617	0	0
33.58505	-0.01955014	-0.04457017	0	0	0	0	0	0
33.60162	-0.01955014	-0.04457017	0	0	0	0	0	0
33.61819	-0.01955014	-0.04457017	0	0	0	0	0	0
33.63488	-0.01955014	-0.04457017	0	0	0	0	0	0
33.65132	-0.01955014	-0.04457017	0	0	0	0	0	0
33.6679	-0.01955014	-0.04457017	0	0	0	0	0	0
33.68445	-0.01955014	-0.04457017	0	0	0	0	0	0
33.70102	-0.01955014	-0.04457017	0	0	0	0	0	0
33.71794	-0.01955014	-0.04457017	0	0	0	0	0	0
33.73415	-0.01955014	-0.04457017	0	0	0	0	0	0
33.75072	-0.01955014	-0.04457017	0	0	0	0	0	0
33.76728	-0.01955014	-0.04457017	0	0	0	0	0	0
33.78398	-0.01955014	-0.04457017	0	0	0	0	0	0
33.80049	-0.01955014	-0.04457017	0	0	0	0	0	0
33.817	-0.01955014	-0.04457017	0	0	0	0	0	0
33.83355	-0.01955014	-0.04457017	0	0	0	0	0	0
33.85012	-0.01955014	-0.04457017	0	0	0	0	0	0
33.86705	-0.01955014	-0.04457017	0	0	0	0	0	0
33.88325	-0.01955014	-0.04457017	0	0	0	0	0	0
33.89981	-0.01955014	-0.04457017	0	0	0	0	0	0
33.91638	-0.01955014	-0.04457017	0	0	0	0	0	0
33.93308	-0.01955014	-0.04457017	0	0	0	0	0	0
33.94952	-0.01955014	-0.04457017	0	0	0	0	0	0
33.96611	-0.01955014	-0.04457017	0	0	0	0	0	0
33.98265	-0.01955014	-0.04457017	0	0	0	0	0	0
33.99922	-0.01955014	-0.04457017	0	0	0	0	0	0
34.01579	-0.01955014	-0.04457017	0	0	0	0	0	0
34.03235	-0.01955014	-0.04457017	0	0	0	0	0	0
34.04892	-0.01955014	-0.04457017	0	0	0	0	0	0
34.071	-0.01955014	-0.04457017	0	0	0	0	0	0
34.08756	-0.01955014	-0.04457017	0	0	0	0	0	0
34.10421	-0.01955014	-0.04457017	0	0	0	0	0	0
34.12072	-0.01955014	-0.04457017	0	0	0	0	0	0
34.13726	-0.01955014	-0.04457017	0	0	0	0	0	0
34.15383	-0.01955014	-0.04457017	0	0	0	0	0	0
34.17039	-0.01955014	-0.04457017	0	0	0	0	0	0
34.18696	-0.01955014	-0.04457017	0	0	0	0	0	0
34.28636	-0.01952383	-0.04458926	0.0002646403	-0.000192067	0.00228196	-0.00165617	0	0
34.30293	-0.01952383	-0.04458926	0	0	-0.00228196	0.00165617	0	0
34.3195	-0.01952383	-0.04458926	0	0	0	0	0	0
34.33637	-0.01952383	-0.04458926	0	0	0	0	0	0
34.35263	-0.01952383	-0.04458926	0	0	0	0	0	0
34.3692	-0.01952383	-0.04458926	0	0	0	0	0	0
34.38577	-0.01952383	-0.04458926	0	0	0	0	0	0
34.40242	-0.01952383	-0.04458926	0	0	0	0	0	0
34.41893	-0.01952383	-0.04458926	0	0	0	0	0	0
34.43546	-0.01952383	-0.04458926	0	0	0	0	0	0
34.45203	-0.01952383	-0.04458926	0	0	0	0	0	0
34.4686	-0.01952383	-0.04458926	0	0	0	0	0	0
34.48516	-0.01952383	-0.04458926	0	0	0	0	0	0
34.5185	-0.01952383	-0.04458926	0	0	0	0	0	0
34.55143	-0.01952383	-0.04458926	0	0	0	0	0	0
34.568	-0.01952383	-0.04458926	0	0	0	0	0	0
34.58456	-0.01949753	-0.04460835	0.001587842	-0.001152402	0.04792115	-0.03477957	0	0
34.60113	-0.01952383	-0.04462745	-0.001588207	-0.001152668	-0.09586438	-8.008009E-06	0	0
34.61769	-0.01952383	-0.04462745	0	0	0.04793771	0.03479158	0	0
34.63426	-0.01952383	-0.04462745	0	0	0	0	0	0
34.65083	-0.01952383	-0.04462745	0	0	0	0	0	0
34.6674	-0.01949753	-0.04460835	0.001587842	0.001152402	0.04792115	0.03477957	0	0
34.68412	-0.01949753	-0.04460835	0	0	-0.04770149	-0.03462014	0	0
34.70053	-0.01949753	-0.04460835	0	0	0	0	0	0
34.71709	-0.01949753	-0.04460835	0	0	0	0	0	0
34.73366	-0.01949753	-0.04460835	0	0	0	0	0	0
34.75023	-0.01949753	-0.04460835	0	0	0	0	0	0
34.7668	-0.01949753	-0.04460835	0	0	0	0	0	0
34.78336	-0.01949753	-0.04460835	0	0	0	0	0	0
34.80377	-0.01949753	-0.04460835	0	0	0	0	0	0
34.82034	-0.01949753	-0.04460835	0	0	0	0	0	0
34.83722	-0.01949753	-0.04460835	0	0	0	0	0	0
34.85347	-0.01944492	-0.04453199	0.003238317	0.004700524	0.0977326	0.1418621	0	0
34.87025	-0.0189451	-0.04413109	0.02978482	0.02389015	0.8037661	0.581017	0	0
34.8866	-0.01468316	-0.04100211	0.2606728	0.1913775	6.969016	5.055361	0	0
34.90327	-0.009526027	-0.03726687	0.3094324	0.2241176	1.476838	0.9916369	0	0
34.91978	0.001105263	-0.02958218	0.6437812	0.4653488	10.07675	7.270329	0	0
34.9363	0.01431481	-0.02009782	0.7997238	0.574196	4.721031	3.295256	0	0
34.95287	0.08704267	0.03202913	4.389862	3.146389	108.513	77.7453	0	0
35.00706	0.09208097	0.03566426	0.09297211	0.06707925	-60.72585	-43.51839	0	0
35.02386	0.1074009	0.04675276	0.9119053	0.6600323	11.53565	8.352449	0	0
35.04037	0.1281362	0.06171602	1.255921	0.9063146	10.32773	7.393658	0	0
35.05688	0.1429911	0.07252806	0.899336	0.6545756	-10.79657	-7.622066	0	0
35.07389	0.1609124	0.08610968	1.053829	0.7986406	4.608484	4.297424	0	0
35.0899	0.1709467	0.09500591	0.6267395	0.5556573	-12.93575	-7.359516	0	0
35.10646	0.1796983	0.1058086	0.5284929	0.6523514	-3.016487	2.968818	0	0
35.1396	0.1841528	0.1147584	0.1344373	0.2701049	-7.929631	-7.691996	0	0
35.15616	0.1871015	0.1209714	0.1779813	0.3750211	0.8761057	2.11092	0	0
35.17273	0.189057	0.1220123	0.118033	0.06282514	-1.809243	-9.422093	0	0
35.1893	0.1900976	0.1225417	0.06279764	0.03195185	-1.666814	-0.9316506	0	0
35.20599	0.1909856	0.1219027	0.05320893	-0.03828929	-0.2882927	-2.111858	0	0
35.22243	0.1911125	0.1218114	0.007714617	-0.005553038	-1.373179	0.9880957	0	0
35.23901	0.1911632	0.1217749	0.003058862	-0.00220204	-0.1409816	0.1014721	0	0
35.25557	0.1911885	0.1217567	0.001532251	-0.001103275	-0.04607322	0.03316079	0	0
35.27213	0.1913661	0.1216288	0.01072015	-0.007716688	0.2774509	-0.1997081	0	0
35.2887	0.1914422	0.1215741	0.00459252	-0.003306776	-0.1849534	0.1331067	0	0
35.30526	0.1915183	0.1215193	0.004593577	-0.003307088	3.191959E-05	-9.410026E-06	0	0
35.32183	0.1915183	0.1215193	0	0	-0.1386504	0.0998196	0	0
35.33858	0.1914929	0.121501	-0.001514106	-0.001090209	-0.04544466	-0.03272176	0	0
35.35496	0.1914929	0.121501	0	0	0.0456958	0.03290258	0	0
35.3716	0.1914929	0.121501	0	0	0	0	0	0
35.3881	0.1914929	0.121501	0	0	0	0	0	0
35.40466	0.1914929	0.1214645	0	-0.002204517	0	-0.06667832	0	0
35.42123	0.1914929	0.1214645	0	0	0	0.06653246	0	0
35.45436	0.1914929	0.1214645	0	0	0	0	0	0
35.47093	0.1914929	0.1214645	0	0	0	0	0	0
35.48769	0.1914929	0.1214645	0	0	0	0	0	0
35.50407	0.1914929	0.1214645	0	0	0	0	0	0
35.52391	0.1914929	0.1214645	0	0	0	0	0	0
35.54048	0.1914929	0.1214645	0	0	0	0	0	0
35.55705	0.1914676	0.1214462	-0.00153084	-0.001102259	-0.04620084	-0.03326623	0	0
35.57362	0.1914676	0.1214462	0	0	0.04620084	0.03326623	0	0
35.59018	0.1914676	0.1214462	0	0	0	0	0	0
35.60675	0.1914676	0.1214462	0	0	0	0	0	0
35.62331	0.1914929	0.121428	0.001531192	-0.001102512	0.0462168	-0.03327772	0	0
35.63988	0.1914676	0.1214097	-0.00153084	-0.001102259	-0.09242295	7.660141E-06	0	0
35.65645	0.1914676	0.1214097	0	0	0.04620084	0.03326623	0	0
35.67332	0.1914929	0.1213914	0.001503151	-0.001082322	0.04495118	-0.03236644	0	0
35.68958	0.1914676	0.1213732	-0.001559568	-0.001122944	-0.09243304	-0.001225973	0	0
35.70615	0.1914676	0.1213732	0	0	0.04750538	0.03420555	0	0
35.72285	0.1914676	0.1213732	0	0	0	0	0	0
35.73928	0.1914676	0.1213732	0	0	0	0	0	0
35.75588	0.1914676	0.1213732	0	0	0	0	0	0
35.77242	0.1914676	0.1213732	0	0	0	0	0	0
35.78898	0.1914676	0.1213732	0	0	0	0	0	0
35.80555	0.1914676	0.1213732	0	0	0	0	0	0
35.82212	0.1914422	0.1213549	-0.00153084	-0.001101809	-0.04620084	-0.03325266	0	0
35.83868	0.1914168	0.1213732	-0.00153084	0.001101809	0	0.06650532	0	0
35.85525	0.1914168	0.1213732	0	0	0.04620084	-0.03325266	0	0
35.87196	0.1913915	0.1213914	-0.001517562	0.001092698	-0.0456006	0.03283404	0	0
35.88847	0.1913661	0.1214097	-0.001536145	0.001106079	-0.0005593803	0.0004027731	0	0
35.90495	0.1913661	0.1214097	0	0	0.04657006	-0.03353208	0	0
35.92152	0.1913407	0.1213914	-0.00153084	-0.001102259	-0.04632885	-0.03335841	0	0
35.93808	0.1913407	0.1213914	0	0	0.04620084	0.03326623	0	0
35.95502	0.1913154	0.1214097	-0.001497396	0.001078178	-0.0446924	0.0321801	0	0
35.97121	0.19129	0.121428	-0.001567101	0.001127705	-0.002103949	0.001494919	0	0
