Time	Pos X	Pos Y	Vel X	Vel Y	Acc X	Acc YForce X	Force Y
0.01656476	-0.04447066	-0.04518118	0.0007089978	0.0007203256	-1.130657E-05	-1.148722E-05	0	0
0.05664673	-0.04447066	-0.04518118	0	0	1.131081E-05	1.149153E-05	0	0
0.07341992	-0.04447066	-0.04518118	0	0	0	0	0	0
0.08978375	-0.04447066	-0.04518118	0	0	0	0	0	0
0.1069403	-0.04447066	-0.04518118	0	0	0	0	0	0
0.1229172	-0.04447066	-0.04518118	0	0	0	0	0	0
0.139484	-0.04447066	-0.04518118	0	0	0	0	0	0
0.1560515	-0.04447066	-0.04518118	0	0	0	0	0	0
0.172617	-0.04447066	-0.04518118	0	0	0	0	0	0
0.1895027	-0.04447066	-0.04518118	0	0	0	0	0	0
0.2060126	-0.04447066	-0.04518118	0	0	0	0	0	0
0.2223164	-0.04447066	-0.04518118	0	0	0	0	0	0
0.2388848	-0.04447066	-0.04518118	0	0	0	0	0	0
0.2555506	-0.04447066	-0.04518118	0	0	0	0	0	0
0.2720593	-0.04449692	-0.04516208	-0.001590876	0.001156714	-0.04795475	0.03486753	0	0
0.2885842	-0.04449692	-0.04516208	0	0	0.04815936	-0.0350163	0	0
0.3060814	-0.04449692	-0.04516208	0	0	0	0	0	0
0.3217173	-0.04449692	-0.04516208	0	0	0	0	0	0
0.338282	-0.04447066	-0.04518118	0.001585492	-0.001152799	0.04923788	-0.03580048	0	0
0.3551132	-0.04447066	-0.04518118	0	0	-0.04747555	0.03451911	0	0
0.3714151	-0.04447066	-0.04518118	0	0	0	0	0	0
0.3879822	-0.04447066	-0.04518118	0	0	0	0	0	0
0.4045489	-0.04447066	-0.04518118	0	0	0	0	0	0
0.421167	-0.04449692	-0.04516208	-0.001580409	0.001149103	-0.04762452	0.03462742	0	0
0.4376836	-0.04447066	-0.04518118	0.001590116	-0.001156161	0.09568609	-0.06957261	0	0
0.4542483	-0.04447066	-0.04518118	0	0	-0.04806682	0.03494901	0	0
0.4708171	-0.04447066	-0.04518118	0	0	0	0	0	0
0.5466185	-0.04449692	-0.04516208	-0.0003464748	0.0002519191	-0.003750938	0.002727278	0	0
0.5963199	-0.04449692	-0.04516208	0	0	0.002760693	-0.002007278	0	0
0.6128894	-0.04449692	-0.04516208	0	0	0	0	0	0
0.6294553	-0.04449692	-0.04516208	0	0	0	0	0	0
0.6463284	-0.04449692	-0.04516208	0	0	0	0	0	0
0.6625884	-0.04449692	-0.04516208	0	0	0	0	0	0
0.6791552	-0.04449692	-0.04516208	0	0	0	0	0	0
0.6958581	-0.04447066	-0.04518118	0.001572375	-0.001143261	0.04726146	-0.03436344	0	0
0.7123747	-0.04447066	-0.04518118	0	0	-0.04733277	0.03441529	0	0
0.7288554	-0.04447066	-0.04518118	0	0	0	0	0	0
0.7454225	-0.04447066	-0.04518118	0	0	0	0	0	0
0.7624085	-0.04447066	-0.04518118	0	0	0	0	0	0
0.7789429	-0.04447066	-0.04518118	0	0	0	0	0	0
0.7951224	-0.04447066	-0.04518118	0	0	0	0	0	0
0.8116887	-0.04447066	-0.04518118	0	0	0	0	0	0
0.8284525	-0.04447066	-0.04518118	0	0	0	0	0	0
0.8449612	-0.04447066	-0.04518118	0	0	0	0	0	0
0.8613889	-0.04447066	-0.04518118	0	0	0	0	0	0
0.8779813	-0.04447066	-0.04518118	0	0	0	0	0	0
0.8945192	-0.04447066	-0.04518118	0	0	0	0	0	0
0.9110867	-0.04447066	-0.04518118	0	0	0	0	0	0
0.9276538	-0.04447066	-0.04518118	0	0	0	0	0	0
0.9445289	-0.04447066	-0.04518118	0	0	0	0	0	0
0.9607861	-0.04447066	-0.04518118	0	0	0	0	0	0
0.9775502	-0.04447066	-0.04518118	0	0	0	0	0	0
0.9939196	-0.04447066	-0.04518118	0	0	0	0	0	0
1.011074	-0.04447066	-0.04518118	0	0	0	0	0	0
1.027053	-0.04447066	-0.04518118	0	0	0	0	0	0
1.043621	-0.04447066	-0.04518118	0	0	0	0	0	0
1.060186	-0.04447066	-0.04518118	0	0	0	0	0	0
1.076753	-0.04447066	-0.04518118	0	0	0	0	0	0
1.09332	-0.04447066	-0.04518118	0	0	0	0	0	0
1.109886	-0.04447066	-0.04518118	0	0	0	0	0	0
1.126454	-0.04447066	-0.04518118	0	0	0	0	0	0
1.14302	-0.04447066	-0.04518118	0	0	0	0	0	0
1.159586	-0.04447066	-0.04518118	0	0	0	0	0	0
1.176153	-0.04447066	-0.04518118	0	0	0	0	0	0
1.192719	-0.04447066	-0.04518118	0	0	0	0	0	0
1.209287	-0.04447066	-0.04518118	0	0	0	0	0	0
1.225853	-0.04447066	-0.04518118	0	0	0	0	0	0
1.242422	-0.04447066	-0.04518118	0	0	0	0	0	0
1.259252	-0.04447066	-0.04518118	0	0	0	0	0	0
1.346719	-0.04447066	-0.04518118	0	0	0	0	0	0
1.363323	-0.04447066	-0.04518118	0	0	0	0	0	0
1.385325	-0.04447066	-0.04518118	0	0	0	0	0	0
1.401893	-0.04447066	-0.04518118	0	0	0	0	0	0
1.418461	-0.04447066	-0.04518118	0	0	0	0	0	0
1.43503	-0.04447066	-0.04518118	0	0	0	0	0	0
1.451597	-0.04447066	-0.04518118	0	0	0	0	0	0
1.48491	-0.04447066	-0.04518118	0	0	0	0	0	0
1.501293	-0.04447066	-0.04518118	0	0	0	0	0	0
1.51786	-0.04447066	-0.04518118	0	0	0	0	0	0
1.53443	-0.04447066	-0.04518118	0	0	0	0	0	0
1.550995	-0.04447066	-0.04518118	0	0	0	0	0	0
1.56756	-0.04447066	-0.04518118	0	0	0	0	0	0
1.584483	-0.04447066	-0.04518118	0	0	0	0	0	0
1.600693	-0.04447066	-0.04518118	0	0	0	0	0	0
1.617259	-0.04447066	-0.04518118	0	0	0	0	0	0
1.633826	-0.04447066	-0.04518118	0	0	0	0	0	0
1.650393	-0.04447066	-0.04518118	0	0	0	0	0	0
1.667047	-0.04447066	-0.04518118	0	0	0	0	0	0
1.683526	-0.04447066	-0.04518118	0	0	0	0	0	0
1.700093	-0.04447066	-0.04518118	0	0	0	0	0	0
1.716659	-0.04447066	-0.04518118	0	0	0	0	0	0
1.733226	-0.04447066	-0.04518118	0	0	0	0	0	0
1.750101	-0.04447066	-0.04518118	0	0	0	0	0	0
1.766361	-0.04447066	-0.04518118	0	0	0	0	0	0
1.782926	-0.04447066	-0.04518118	0	0	0	0	0	0
1.799632	-0.04447066	-0.04518118	0	0	0	0	0	0
1.816059	-0.04447066	-0.04518118	0	0	0	0	0	0
1.832626	-0.04447066	-0.04518118	0	0	0	0	0	0
1.849194	-0.04447066	-0.04518118	0	0	0	0	0	0
1.86576	-0.04447066	-0.04518118	0	0	0	0	0	0
1.882326	-0.04447066	-0.04518118	0	0	0	0	0	0
1.898892	-0.04447066	-0.04518118	0	0	0	0	0	0
1.915459	-0.04447066	-0.04518118	0	0	0	0	0	0
1.932226	-0.04447066	-0.04518118	0	0	0	0	0	0
1.948739	-0.04447066	-0.04518118	0	0	0	0	0	0
1.96516	-0.04447066	-0.04518118	0	0	0	0	0	0
1.981725	-0.04447066	-0.04518118	0	0	0	0	0	0
1.998292	-0.04447066	-0.04518118	0	0	0	0	0	0
2.014858	-0.04447066	-0.04518118	0	0	0	0	0	0
2.031426	-0.0444444	-0.04520027	0.001585256	-0.001152627	0.04784449	-0.03478735	0	0
2.047992	-0.0444444	-0.04520027	0	0	-0.0478438	0.03478685	0	0
2.087089	-0.0444444	-0.04520027	0	0	0	0	0	0
2.103655	-0.0444444	-0.04520027	0	0	0	0	0	0
2.120359	-0.0444444	-0.04520027	0	0	0	0	0	0
2.136789	-0.0444444	-0.04520027	0	0	0	0	0	0
2.153384	-0.0444444	-0.04520027	0	0	0	0	0	0
2.169922	-0.0444444	-0.04520027	0	0	0	0	0	0
2.186489	-0.0444444	-0.04520027	0	0	0	0	0	0
2.203418	-0.0444444	-0.04520027	0	0	0	0	0	0
2.219622	-0.0444444	-0.04520027	0	0	0	0	0	0
2.236451	-0.0444444	-0.04520027	0	0	0	0	0	0
2.252957	-0.0444444	-0.04520027	0	0	0	0	0	0
2.269322	-0.0444444	-0.04520027	0	0	0	0	0	0
2.28589	-0.0444444	-0.04520027	0	0	0	0	0	0
2.302456	-0.0444444	-0.04520027	0	0	0	0	0	0
2.319501	-0.0444444	-0.04520027	0	0	0	0	0	0
2.335589	-0.0444444	-0.04520027	0	0	0	0	0	0
2.352158	-0.0444444	-0.04520027	0	0	0	0	0	0
2.368723	-0.0444444	-0.04520027	0	0	0	0	0	0
2.385291	-0.0444444	-0.04520027	0	0	0	0	0	0
2.402059	-0.0444444	-0.04520027	0	0	0	0	0	0
2.418424	-0.0444444	-0.04520027	0	0	0	0	0	0
2.43499	-0.0444444	-0.04520027	0	0	0	0	0	0
2.451557	-0.0444444	-0.04520027	0	0	0	0	0	0
2.468123	-0.0444444	-0.04520027	0	0	0	0	0	0
2.484693	-0.0444444	-0.04520027	0	0	0	0	0	0
2.501631	-0.0444444	-0.04520027	0	0	0	0	0	0
2.517823	-0.0444444	-0.04520027	0	0	0	0	0	0
2.53439	-0.0444444	-0.04520027	0	0	0	0	0	0
2.551166	-0.0444444	-0.04520027	0	0	0	0	0	0
2.567526	-0.04441813	-0.04521937	0.001605308	-0.001167207	0.04844621	-0.03522486	0	0
2.584091	-0.04441813	-0.04521937	0	0	-0.04875527	0.03544957	0	0
2.600658	-0.04441813	-0.04521937	0	0	0	0	0	0
2.617223	-0.04441813	-0.04521937	0	0	0	0	0	0
2.63379	-0.04441813	-0.04521937	0	0	0	0	0	0
2.650357	-0.04441813	-0.04521937	0	0	0	0	0	0
2.667251	-0.04441813	-0.04521937	0	0	0	0	0	0
2.683757	-0.04441813	-0.04521937	0	0	0	0	0	0
2.700058	-0.04441813	-0.04521937	0	0	0	0	0	0
2.716623	-0.04441813	-0.04521937	0	0	0	0	0	0
2.733793	-0.04441813	-0.04521937	0	0	0	0	0	0
2.755218	-0.04441813	-0.04521937	0	0	0	0	0	0
2.771788	-0.04441813	-0.04521937	0	0	0	0	0	0
2.788352	-0.04441813	-0.04521937	0	0	0	0	0	0
2.80492	-0.0444444	-0.04520027	-0.001585256	0.001152627	-0.04784724	0.03478936	0	0
2.821856	-0.0444444	-0.04520027	0	0	0.04731675	-0.03440364	0	0
2.838053	-0.0444444	-0.04520027	0	0	0	0	0	0
2.854619	-0.0444444	-0.04520027	0	0	0	0	0	0
2.871186	-0.0444444	-0.04520027	0	0	0	0	0	0
2.887753	-0.0444444	-0.04520027	0	0	0	0	0	0
2.904414	-0.0444444	-0.04520027	0	0	0	0	0	0
2.920924	-0.0444444	-0.04520027	0	0	0	0	0	0
2.937452	-0.0444444	-0.04520027	0	0	0	0	0	0
2.95402	-0.0444444	-0.04520027	0	0	0	0	0	0
2.970587	-0.0444444	-0.04520027	0	0	0	0	0	0
2.987472	-0.0444444	-0.04520027	0	0	0	0	0	0
3.003721	-0.0444444	-0.04520027	0	0	0	0	0	0
3.020286	-0.0444444	-0.04520027	0	0	0	0	0	0
3.036853	-0.04447066	-0.04521937	-0.001585301	-0.00115266	-0.04784862	-0.03479036	0	0
3.05342	-0.04447066	-0.04521937	0	0	0.04784587	0.03478836	0	0
3.069988	-0.04447066	-0.04521937	0	0	0	0	0	0
3.086553	-0.04449692	-0.04523847	-0.001585461	-0.001152776	-0.04785069	-0.03479186	0	0
3.103121	-0.04449692	-0.04523847	0	0	0.04785138	0.03479236	0	0
3.120067	-0.04449692	-0.04523847	0	0	0	0	0	0
3.20252	-0.04449692	-0.04523847	0	0	0	0	0	0
3.219136	-0.04449692	-0.04523847	0	0	0	0	0	0
3.235657	-0.04449692	-0.04523847	0	0	0	0	0	0
3.252222	-0.04449692	-0.04523847	0	0	0	0	0	0
3.268785	-0.04449692	-0.04523847	0	0	0	0	0	0
3.285688	-0.04449692	-0.04523847	0	0	0	0	0	0
3.30192	-0.04449692	-0.04523847	0	0	0	0	0	0
3.351177	-0.04449692	-0.04523847	0	0	0	0	0	0
3.367745	-0.04449692	-0.04523847	0	0	0	0	0	0
3.384315	-0.04449692	-0.04523847	0	0	0	0	0	0
3.40088	-0.04449692	-0.04523847	0	0	0	0	0	0
3.417447	-0.04449692	-0.04523847	0	0	0	0	0	0
3.434012	-0.04449692	-0.04523847	0	0	0	0	0	0
3.450802	-0.04449692	-0.04523847	0	0	0	0	0	0
3.467145	-0.04449692	-0.04523847	0	0	0	0	0	0
3.483714	-0.04449692	-0.04523847	0	0	0	0	0	0
3.50034	-0.04449692	-0.04523847	0	0	0	0	0	0
3.51685	-0.04449692	-0.04523847	0	0	0	0	0	0
3.533413	-0.04449692	-0.04523847	0	0	0	0	0	0
3.54998	-0.04449692	-0.04523847	0	0	0	0	0	0
3.571211	-0.04452319	-0.04525756	-0.001237044	-0.0008994447	-0.03272782	-0.02379614	0	0
3.587902	-0.04454945	-0.04527666	-0.001573727	-0.001144305	-0.008878381	-0.006457009	0	0
3.604345	-0.04452319	-0.04529576	0.001597411	-0.001161301	0.09570514	-0.0005129244	0	0
3.620922	-0.04460198	-0.04535305	-0.004753393	-0.003456216	-0.1923333	-0.06950123	0	0
3.63748	-0.04489087	-0.04563951	-0.01744738	-0.01730091	-0.3831081	-0.4178368	0	0
3.654444	-0.04630897	-0.04674746	-0.08359481	-0.06531154	-1.973261	-1.432217	0	0
3.670956	-0.04851453	-0.04888811	-0.133572	-0.1296408	-1.492921	-1.921646	0	0
3.687179	-0.05182198	-0.05183405	-0.2038745	-0.1815909	-2.147618	-1.586985	0	0
3.703745	-0.05987571	-0.05990282	-0.4861382	-0.4870464	-8.6083	-9.31559	0	0
3.720314	-0.06199938	-0.07115274	-0.1281741	-0.6789876	10.80307	-5.792629	0	0
3.736879	-0.06270715	-0.08659188	-0.04272626	-0.9320289	2.578876	-7.636969	0	0
3.753514	-0.0622091	-0.1140765	0.02994036	-1.652247	2.188768	-21.69345	0	0
3.770026	-0.0610556	-0.138359	0.0698588	-1.470603	1.204299	5.480015	0	0
3.786579	-0.06055744	-0.1470958	0.03009458	-0.5278103	-1.202613	28.51344	0	0
3.803145	-0.05822359	-0.1743463	0.1408757	-1.644891	3.344874	-33.7286	0	0
3.819713	-0.05418376	-0.2112038	0.2438414	-2.22469	3.107533	-17.49851	0	0
3.836746	-0.04961714	-0.2453922	0.26811	-2.00723	0.7222782	6.472018	0	0
3.86988	-0.03732476	-0.2982884	0.3709872	-1.596422	2.050701	8.188822	0	0
3.886446	-0.03072717	-0.3118593	0.3982431	-0.819165	0.5483969	15.63868	0	0
3.903014	-0.02039191	-0.3256649	0.6238375	-0.8333094	6.808549	-0.4268838	0	0
3.919631	-0.01121006	-0.3332516	0.5525479	-0.4565518	-2.148278	11.35341	0	0
3.936147	-0.002921044	-0.340128	0.5018859	-0.4163587	-1.529048	1.213084	0	0
3.952713	0.006473594	-0.3479552	0.5670941	-0.4724775	1.971109	-1.696353	0	0
3.96928	0.01084168	-0.3516072	0.2636583	-0.2204337	-9.157977	7.606914	0	0
3.985847	0.01665635	-0.3564817	0.3509744	-0.2942235	2.635206	-2.226978	0	0
4.002688	0.02386389	-0.3625452	0.4279771	-0.3600448	2.304909	-1.970217	0	0
4.019201	0.02552077	-0.3639425	0.100339	-0.08462135	-9.823112	8.257632	0	0
4.035714	0.03277773	-0.3700783	0.4394854	-0.371587	10.2693	-8.689277	0	0
4.052114	0.03367148	-0.3708358	0.05449737	-0.04618854	-11.69741	9.886849	0	0
4.068681	0.03364519	-0.3708135	-0.001586605	0.001345556	-1.701211	1.441865	0	0
4.085248	0.03364519	-0.3708135	0	0	0.04788452	-0.04060955	0	0
4.101861	0.03364519	-0.3708135	0	0	0	0	0	0
4.118382	0.03364519	-0.3708135	0	0	0	0	0	0
4.134949	0.03364519	-0.3708135	0	0	0	0	0	0
4.151517	0.03364519	-0.3708135	0	0	0	0	0	0
4.168081	0.03361891	-0.3707912	-0.00158697	0.001345866	-0.04789899	0.04062182	0	0
4.184648	0.03361891	-0.3707912	0	0	0.04790037	-0.04062299	0	0
4.201214	0.03361891	-0.3707912	0	0	0	0	0	0
4.217782	0.03354005	-0.3707244	-0.00476004	0.004034869	-0.1436624	0.1217761	0	0
4.234368	0.03351376	-0.3707021	-0.001584735	0.001342173	0.09577437	-0.08121781	0	0
4.250918	0.03343491	-0.3706352	-0.004764889	0.004039171	-0.09597172	0.08139086	0	0
4.267482	0.03338233	-0.3705907	-0.003174074	0.002691654	0.0480413	-0.04069389	0	0
4.284048	0.03332976	-0.3705461	-0.003173392	0.002689468	2.057726E-05	-6.599763E-05	0	0
4.322915	0.0332509	-0.3704793	-0.002028988	0.001719114	0.02064472	-0.0175049	0	0
4.339431	0.03322461	-0.370457	-0.001591506	0.001349713	0.007899178	-0.006669919	0	0
4.355952	0.03317204	-0.3704124	-0.003182319	0.002696842	-0.0481522	0.04077616	0	0
4.37252	0.03311946	-0.3703679	-0.003173343	0.002689236	0.0002712666	-0.0002298846	0	0
4.389462	0.03309318	-0.370301	-0.001551462	0.003945498	0.04839962	0.03748895	0	0
4.405653	0.03306689	-0.3702788	-0.001623568	0.001375063	-0.002176282	-0.07758037	0	0
4.422219	0.0330406	-0.3702565	-0.001586875	0.001343796	0.001120148	-0.0009545104	0	0
4.438999	0.03301432	-0.3702342	-0.001566496	0.001328502	0.0006111318	-0.0004586212	0	0
4.47192	0.03301432	-0.3702342	0	0	0.03151857	-0.02673003	0	0
4.488486	0.03301432	-0.3702342	0	0	0	0	0	0
4.505052	0.03301432	-0.3702342	0	0	0	0	0	0
4.521619	0.03298803	-0.370212	-0.001586605	0.001343757	-0.0478859	0.04055642	0	0
4.538567	0.03298803	-0.370212	0	0	0.04734018	-0.04009423	0	0
4.554753	0.03298803	-0.370212	0	0	0	0	0	0
4.57132	0.03301432	-0.3702342	0.001586696	-0.001343835	0.04844502	-0.04102997	0	0
4.587886	0.03301432	-0.3702342	0	0	-0.04788866	0.04055876	0	0
4.604453	0.03301432	-0.3702342	0	0	0	0	0	0
4.621021	0.03301432	-0.3702342	0	0	0	0	0	0
4.637586	0.03298803	-0.370212	-0.001586788	0.001343912	-0.04789141	0.04056109	0	0
4.654154	0.03301432	-0.3702342	0.001586559	-0.001343718	0.09577592	-0.08111634	0	0
4.687288	0.03301432	-0.3702342	0	0	-0.03192164	0.02703567	0	0
4.704188	0.03298803	-0.370212	-0.001555314	0.001317256	-0.03108482	0.02632694	0	0
4.720421	0.03298803	-0.370212	0	0	0.04694083	-0.03975601	0	0
4.736987	0.03298803	-0.370212	0	0	0	0	0	0
4.753725	0.03298803	-0.370212	0	0	0	0	0	0
4.770123	0.03298803	-0.370212	0	0	0	0	0	0
4.786744	0.03296174	-0.3701897	-0.001581686	0.001341194	-0.04790219	0.04061878	0	0
4.803257	0.03296174	-0.3701897	0	0	0.04773605	-0.0404779	0	0
4.81982	0.03296174	-0.3701897	0	0	0	0	0	0
4.836386	0.03296174	-0.3701897	0	0	0	0	0	0
4.852952	0.03296174	-0.3701897	0	0	0	0	0	0
4.86952	0.03296174	-0.3701897	0	0	0	0	0	0
4.886087	0.03296174	-0.3701897	0	0	0	0	0	0
4.902652	0.03296174	-0.3701897	0	0	0	0	0	0
4.919219	0.03296174	-0.3701897	0	0	0	0	0	0
4.935786	0.03296174	-0.3701897	0	0	0	0	0	0
4.952353	0.03296174	-0.3701897	0	0	0	0	0	0
4.96892	0.03296174	-0.3701897	0	0	0	0	0	0
5.018619	0.03296174	-0.3701897	0	0	0	0	0	0
5.035186	0.03296174	-0.3701897	0	0	0	0	0	0
5.051753	0.03296174	-0.3701897	0	0	0	0	0	0
5.073551	0.03296174	-0.3701897	0	0	0	0	0	0
5.090119	0.03298803	-0.3701674	0.001586784	0.001343718	0.04135878	0.03502339	0	0
5.106685	0.03296174	-0.3701451	-0.001586921	0.001345634	-0.09578399	5.779661E-05	0	0
5.123252	0.03296174	-0.3701006	0	0.002687514	0.04789475	0.04049921	0	0
5.139819	0.03293546	-0.3700783	-0.00158665	0.001345595	-0.04788589	-0.0404998	0	0
5.156386	0.03290917	-0.369967	-0.001586875	0.006720778	-6.788126E-06	0.162228	0	0
5.173016	0.03285659	-0.3698333	-0.003161514	0.008035842	-0.04743396	0.03961461	0	0
5.18952	0.03280402	-0.369477	-0.003185537	0.02158753	-0.000725019	0.4089966	0	0
5.206087	0.03264629	-0.3691654	-0.009520578	0.01881314	-0.1915586	-0.0838917	0	0
5.222652	0.02907076	-0.365341	-0.2158384	0.2308566	-6.227042	6.399851	0	0
5.239222	0.02630972	-0.3627891	-0.1666326	0.1540152	1.484991	-2.319009	0	0
5.256076	0.0185505	-0.3560841	-0.4603703	0.3978173	-8.788254	7.294243	0	0
5.272354	0.01255197	-0.3509246	-0.3685102	0.3169673	2.772544	-2.440233	0	0
5.288919	0.01039436	-0.3490764	-0.1302486	0.1115735	7.254538	-6.253786	0	0
5.305485	0.001868419	-0.3417913	-0.5146714	0.4397668	-11.60307	9.905891	0	0
5.322052	-0.006815684	-0.3342758	-0.5241886	0.4536471	-0.287246	0.4189346	0	0
5.338619	-0.01818221	-0.3223278	-0.6861044	0.7212064	-4.88677	8.075188	0	0
5.355186	-0.02517889	-0.3126557	-0.4223084	0.5837891	7.961379	-4.147264	0	0
5.371755	-0.03172619	-0.3019443	-0.3951619	0.6464839	0.8192355	1.892025	0	0
5.388319	-0.03706197	-0.283144	-0.3221236	1.134985	2.204396	14.74364	0	0
5.404886	-0.03863866	-0.2721611	-0.09517182	0.6629501	6.850109	-14.24749	0	0
5.421453	-0.04100332	-0.2475951	-0.1427356	1.482852	-1.435519	24.74539	0	0
5.438021	-0.04250071	-0.2272176	-0.09037991	1.229952	1.580097	-7.632526	0	0
5.454586	-0.0447333	-0.1986587	-0.1347748	1.724016	-1.3399	14.91152	0	0
5.471153	-0.04625645	-0.1774814	-0.09194051	1.278301	1.292836	-13.45268	0	0
5.487719	-0.04688666	-0.1704135	-0.03804181	0.426645	1.626736	-25.70413	0	0
5.504286	-0.05134956	-0.1308165	-0.2693886	2.390148	-6.982361	59.26119	0	0
5.520853	-0.05339656	-0.1134891	-0.1235575	1.045883	4.401253	-40.57058	0	0
5.537421	-0.05486593	-0.1030557	-0.0886888	0.6297426	1.052325	-12.55896	0	0
5.553986	-0.05848585	-0.08405457	-0.218524	1.147044	-3.918603	15.61285	0	0
5.570798	-0.06257609	-0.06610878	-0.2432946	1.067449	-0.7421407	-2.384706	0	0
5.587119	-0.06553759	-0.05204459	-0.1814514	0.8617141	1.86651	-6.20936	0	0
5.60382	-0.06807884	-0.03880995	-0.152164	0.7924577	0.8869089	-2.097284	0	0
5.620253	-0.07239955	-0.02343303	-0.2629327	0.9357477	-3.343104	4.324626	0	0
5.636819	-0.07590651	-0.01430745	-0.2116926	0.5508531	1.552776	-11.66381	0	0
5.653386	-0.07998688	-0.007734984	-0.2462916	0.3967146	-1.04423	-4.652044	0	0
5.669952	-0.08607626	-0.003228805	-0.367577	0.2720092	-3.660505	-3.763726	0	0
5.68652	-0.08764333	-0.002286869	-0.09458555	0.05685373	8.239016	-6.493497	0	0
5.703085	-0.08751275	-0.002531746	0.007882214	-0.01478254	3.092617	-2.16208	0	0
5.720404	-0.08748663	-0.002776642	0.001508294	-0.01414051	-0.1881097	0.0189477	0	0
5.736413	-0.08751275	-0.002833159	-0.001631706	-0.003530349	-0.09421626	0.3183599	0	0
5.81052	-0.08769555	-0.003002716	-0.002466714	-0.00228801	-0.009265973	0.01378607	0	0
5.827087	-0.08772167	-0.002983875	-0.001576216	0.001137163	0.009820829	0.03777442	0	0
5.843655	-0.08769555	-0.003002716	0.001576261	-0.001137196	0.09514058	-0.06863932	0	0
5.860501	-0.08772167	-0.003021556	-0.001550161	-0.001118366	-0.09356788	0.0005635585	0	0
5.876788	-0.08772167	-0.003021556	0	0	0.04678596	0.0337538	0	0
5.893356	-0.08772167	-0.003021556	0	0	0	0	0	0
5.910037	-0.08772167	-0.003021556	0	0	0	0	0	0
5.926548	-0.08772167	-0.003021556	0	0	0	0	0	0
5.943058	-0.08772167	-0.003021556	0	0	0	0	0	0
5.95962	-0.08777389	-0.003059236	-0.003153162	-0.002275192	-0.09534099	-0.06879414	0	0
5.976187	-0.0878	-0.003078077	-0.001576307	-0.001137243	0.04759849	0.0343498	0	0
5.992755	-0.08787835	-0.003172281	-0.004728512	-0.005685836	-0.09513237	-0.1372748	0	0
6.009605	-0.08790446	-0.003191122	-0.00154981	-0.001118168	0.09511895	0.1366821	0	0
6.025886	-0.08790446	-0.003191122	0	0	0.04677806	0.03374977	0	0
6.085629	-0.08790446	-0.003228805	0	-0.0006307526	0	-0.008296803	0	0
6.102197	-0.08790446	-0.003266488	0	-0.00227435	0	-0.02153812	0	0
6.118762	-0.08790446	-0.003304171	0	-0.002274851	0	-1.51009E-05	0	0
6.13533	-0.08790446	-0.003304171	0	0	0	0.06865909	0	0
6.151896	-0.08790446	-0.003304171	0	0	0	0	0	0
6.168463	-0.08790446	-0.003304171	0	0	0	0	0	0
6.185029	-0.08793058	-0.003323013	-0.001576397	-0.001137393	-0.04757851	-0.03432856	0	0
6.201597	-0.08793058	-0.003323013	0	0	0.04757645	0.03432707	0	0
6.218163	-0.08793058	-0.003360697	0	-0.002274814	0	-0.068655	0	0
6.234733	-0.08795668	-0.003379539	-0.00157554	-0.001137112	-0.04754782	0.03433441	0	0
6.251298	-0.08795668	-0.003379539	0	0	0.0475492	0.03431762	0	0
6.267862	-0.08795668	-0.003379539	0	0	0	0	0	0
6.284429	-0.08795668	-0.003379539	0	0	0	0	0	0
6.301313	-0.08795668	-0.003379539	0	0	0	0	0	0
6.317562	-0.08795668	-0.003379539	0	0	0	0	0	0
6.33413	-0.08793058	-0.003398382	0.001575766	-0.001137304	0.04801693	-0.03465606	0	0
6.350696	-0.08793058	-0.003398382	0	0	-0.04755809	0.03432489	0	0
6.367367	-0.08793058	-0.003398382	0	0	0	0	0	0
6.383835	-0.08793058	-0.003398382	0	0	0	0	0	0
6.400396	-0.08793058	-0.003398382	0	0	0	0	0	0
6.416964	-0.08790446	-0.003417224	0.001576261	-0.001137323	0.04757988	-0.03433039	0	0
6.433529	-0.08790446	-0.003454909	0	-0.002274949	-0.0475744	-0.03433562	0	0
6.450097	-0.08787835	-0.003511438	0.001576216	-0.003411968	0.04757234	-0.03431677	0	0
6.466665	-0.08787835	-0.003586811	0	-0.004549122	-0.04756755	-0.03431741	0	0
6.483229	-0.08790446	-0.003605654	-0.001576624	-0.001137669	-0.04758604	0.1029653	0	0
6.499951	-0.08793058	-0.003624498	-0.001561609	-0.00112682	0.0004511002	0.0003259277	0	0
6.516965	-0.08793058	-0.003662185	0	-0.00221509	0.04628813	-0.03225774	0	0
6.53293	-0.08795668	-0.003681029	-0.001635305	-0.001180363	-0.04958694	0.03137577	0	0
6.549496	-0.08795668	-0.003718717	0	-0.002275001	0.05026945	-0.0336493	0	0
6.573773	-0.0887139	-0.004340635	-0.03119046	-0.02561733	-0.7636582	-0.5715067	0	0
6.590341	-0.09028023	-0.005509403	-0.09454148	-0.07054497	-1.551014	-1.099957	0	0
6.607026	-0.09067175	-0.005829944	-0.02346563	-0.01921188	2.137475	1.543748	0	0
6.623474	-0.09064565	-0.005848801	0.001586734	-0.001146396	0.7561146	0.5452409	0	0
6.640041	-0.09064565	-0.005848801	0	0	-0.04806063	0.03472322	0	0
6.656609	-0.09064565	-0.005848801	0	0	0	0	0	0
6.673175	-0.09061955	-0.005867657	0.001575453	-0.001138245	0.04754794	-0.03435281	0	0
6.689741	-0.09061955	-0.005867657	0	0	-0.04755067	0.03435479	0	0
6.706596	-0.09061955	-0.005867657	0	0	0	0	0	0
6.722874	-0.09059345	-0.005886514	0.001603421	-0.001158452	0.04839342	-0.03496366	0	0
6.739441	-0.09059345	-0.005886514	0	0	-0.04881778	0.03527025	0	0
6.756133	-0.09059345	-0.005886514	0	0	0	0	0	0
6.772575	-0.09059345	-0.005886514	0	0	0	0	0	0
6.789141	-0.09059345	-0.005886514	0	0	0	0	0	0
6.805708	-0.09059345	-0.005886514	0	0	0	0	0	0
6.83884	-0.09059345	-0.005886514	0	0	0	0	0	0
6.855408	-0.09059345	-0.005886514	0	0	0	0	0	0
6.871975	-0.09059345	-0.005886514	0	0	0	0	0	0
6.88854	-0.09059345	-0.005886514	0	0	0	0	0	0
6.905107	-0.09059345	-0.005886514	0	0	0	0	0	0
6.921676	-0.09059345	-0.005886514	0	0	0	0	0	0
6.93826	-0.09056735	-0.00590537	0.001573777	-0.001137035	0.0474714	-0.03429751	0	0
6.954846	-0.09056735	-0.00590537	0	0	-0.04744478	0.03427828	0	0
6.971375	-0.09054125	-0.005924227	0.001579089	-0.001140901	0.04768513	-0.03445278	0	0
6.988296	-0.09048904	-0.005961941	0.003085284	-0.002228817	0.04502936	-0.03252446	0	0
7.004508	-0.09030634	-0.006093943	0.0112693	-0.008142004	0.2470012	-0.1784655	0	0
7.021075	-0.09025414	-0.006131659	0.003151173	-0.002276528	-0.2476572	0.1789362	0	0
7.037832	-0.08863557	-0.007301065	0.09659301	-0.06978808	2.80406	-2.025928	0	0
7.054208	-0.08458716	-0.01022642	0.247216	-0.1786363	4.546074	-3.285235	0	0
7.070855	-0.08053596	-0.01315441	0.2433612	-0.1758886	-0.1167311	0.08320729	0	0
7.087342	-0.075985	-0.01644449	0.276023	-0.1995491	0.9857336	-0.7140779	0	0
7.103908	-0.06629743	-0.02345199	0.5847931	-0.42301	9.341554	-6.760601	0	0
7.13167	-0.06333622	-0.02559523	0.1066663	-0.07720204	-10.78629	7.801247	0	0
7.148236	-0.05898413	-0.02874639	0.2627079	-0.1902153	3.520182	-2.549494	0	0
7.164803	-0.05662362	-0.03041819	0.142481	-0.1009098	-3.628561	2.695323	0	0
7.181371	-0.05331784	-0.03277545	0.1995312	-0.1422801	1.721754	-1.24854	0	0
7.197942	-0.05250433	-0.03336504	0.04909086	-0.03557899	-4.539645	3.219784	0	0
7.214503	-0.04880332	-0.0360482	0.223477	-0.1620162	5.263286	-3.816103	0	0
7.231071	-0.04570499	-0.0382955	0.1870157	-0.1356475	-1.10061	0.7959572	0	0
7.247638	-0.043315	-0.04002974	0.1442561	-0.1046756	-1.290466	0.9347215	0	0
7.28077	-0.03664149	-0.04479928	0.2014244	-0.1439576	1.150282	-0.7903934	0	0
7.297337	-0.0321731	-0.04793227	0.2697198	-0.1891127	1.374199	-0.9085845	0	0
7.319763	-0.03225197	-0.0478367	-0.003516555	0.004261394	-7.007254	4.959156	0	0
7.336332	-0.03225197	-0.0478367	0	0	0.09017793	-0.1092784	0	0
7.353054	-0.03225197	-0.0478367	0	0	0	0	0	0
7.369465	-0.03225197	-0.0478367	0	0	0	0	0	0
7.386033	-0.03225197	-0.0478367	0	0	0	0	0	0
7.402598	-0.03225197	-0.0478367	0	0	0	0	0	0
7.419164	-0.03225197	-0.0478367	0	0	0	0	0	0
7.435732	-0.03227826	-0.04781759	-0.001586738	0.00115346	-0.04788786	0.0348115	0	0
7.452298	-0.03227826	-0.04781759	0	0	0.04788924	-0.0348125	0	0
7.468864	-0.03227826	-0.04781759	0	0	0	0	0	0
7.485431	-0.03227826	-0.04781759	0	0	0	0	0	0
7.501998	-0.03225197	-0.0478367	0.00158683	-0.001153526	0.04789131	-0.034814	0	0
7.518564	-0.03225197	-0.0478367	0	0	-0.04789338	0.0348155	0	0
7.535183	-0.03225197	-0.0478367	0	0	0	0	0	0
7.551698	-0.03225197	-0.0478367	0	0	0	0	0	0
7.568264	-0.03225197	-0.0478367	0	0	0	0	0	0
7.584831	-0.03225197	-0.0478367	0	0	0	0	0	0
7.60173	-0.03225197	-0.0478367	0	0	0	0	0	0
7.684287	-0.03225197	-0.0478367	0	0	0	0	0	0
7.700799	-0.03225197	-0.0478367	0	0	0	0	0	0
7.717364	-0.03225197	-0.0478367	0	0	0	0	0	0
7.733931	-0.03225197	-0.0478367	0	0	0	0	0	0
7.7505	-0.03225197	-0.0478367	0	0	0	0	0	0
7.767069	-0.03225197	-0.0478367	0	0	0	0	0	0
7.783635	-0.03225197	-0.0478367	0	0	0	0	0	0
7.800382	-0.03225197	-0.0478367	0	0	0	0	0	0
7.816766	-0.03225197	-0.0478367	0	0	0	0	0	0
7.8334	-0.03225197	-0.0478367	0	0	0	0	0	0
7.849905	-0.03225197	-0.0478367	0	0	0	0	0	0
7.866467	-0.03225197	-0.0478367	0	0	0	0	0	0
7.883033	-0.03225197	-0.0478367	0	0	0	0	0	0
7.899601	-0.03225197	-0.0478367	0	0	0	0	0	0
7.916166	-0.03225197	-0.0478367	0	0	0	0	0	0
7.932732	-0.03225197	-0.0478367	0	0	0	0	0	0
7.949301	-0.03225197	-0.0478367	0	0	0	0	0	0
7.965866	-0.03225197	-0.0478367	0	0	0	0	0	0
7.982432	-0.03225197	-0.0478367	0	0	0	0	0	0
7.998998	-0.03225197	-0.0478367	0	0	0	0	0	0
8.038595	-0.03225197	-0.0478367	0	0	0	0	0	0
8.055162	-0.03225197	-0.0478367	0	0	0	0	0	0
8.072062	-0.03225197	-0.0478367	0	0	0	0	0	0
8.088296	-0.03225197	-0.0478367	0	0	0	0	0	0
8.104863	-0.03225197	-0.0478367	0	0	0	0	0	0
8.121429	-0.03227826	-0.04785581	-0.001586921	-0.001153818	-0.04789475	-0.03482329	0	0
8.137996	-0.03227826	-0.04785581	0	0	0.04789613	0.03482429	0	0
8.154563	-0.03227826	-0.04785581	0	0	0	0	0	0
8.171129	-0.03227826	-0.04785581	0	0	0	0	0	0
8.187696	-0.03227826	-0.04785581	0	0	0	0	0	0
8.204262	-0.03227826	-0.04785581	0	0	0	0	0	0
8.220828	-0.03227826	-0.04785581	0	0	0	0	0	0
8.237401	-0.03227826	-0.04785581	0	0	0	0	0	0
8.253963	-0.03227826	-0.04785581	0	0	0	0	0	0
8.270701	-0.03227826	-0.04785581	0	0	0	0	0	0
8.287095	-0.03227826	-0.04785581	0	0	0	0	0	0
8.303662	-0.03227826	-0.04785581	0	0	0	0	0	0
8.320229	-0.03227826	-0.04785581	0	0	0	0	0	0
8.336795	-0.03227826	-0.04785581	0	0	0	0	0	0
8.353361	-0.03227826	-0.04785581	0	0	0	0	0	0
8.369928	-0.03227826	-0.04785581	0	0	0	0	0	0
8.386495	-0.03227826	-0.04785581	0	0	0	0	0	0
8.403062	-0.03227826	-0.04785581	0	0	0	0	0	0
8.41963	-0.03227826	-0.04785581	0	0	0	0	0	0
8.436194	-0.03227826	-0.04785581	0	0	0	0	0	0
8.45283	-0.03227826	-0.04785581	0	0	0	0	0	0
8.46933	-0.03227826	-0.04785581	0	0	0	0	0	0
8.485894	-0.03227826	-0.04785581	0	0	0	0	0	0
8.50246	-0.03227826	-0.04785581	0	0	0	0	0	0
8.519029	-0.03225197	-0.04787493	0.001586738	-0.001153685	0.04788786	-0.03481828	0	0
8.535887	-0.03225197	-0.04787493	0	0	-0.04746978	0.0345143	0	0
8.552401	-0.03225197	-0.04787493	0	0	0	0	0	0
8.568915	-0.03225197	-0.04787493	0	0	0	0	0	0
8.585294	-0.03225197	-0.04787493	0	0	0	0	0	0
8.601861	-0.03225197	-0.04787493	0	0	0	0	0	0
8.618427	-0.03225197	-0.04787493	0	0	0	0	0	0
8.634995	-0.03225197	-0.04787493	0	0	0	0	0	0
8.651564	-0.03225197	-0.04787493	0	0	0	0	0	0
8.668127	-0.03225197	-0.04787493	0	0	0	0	0	0
8.684693	-0.03225197	-0.04787493	0	0	0	0	0	0
8.70126	-0.03225197	-0.04787493	0	0	0	0	0	0
8.717827	-0.03225197	-0.04787493	0	0	0	0	0	0
8.734393	-0.03225197	-0.04787493	0	0	0	0	0	0
8.811139	-0.03225197	-0.04787493	0	0	0	0	0	0
8.828095	-0.03225197	-0.04787493	0	0	0	0	0	0
8.844607	-0.03225197	-0.04787493	0	0	0	0	0	0
8.860841	-0.03225197	-0.04787493	0	0	0	0	0	0
8.877409	-0.03225197	-0.04787493	0	0	0	0	0	0
8.893975	-0.03225197	-0.04787493	0	0	0	0	0	0
8.91054	-0.03225197	-0.04787493	0	0	0	0	0	0
8.927107	-0.03225197	-0.04787493	0	0	0	0	0	0
8.943673	-0.03225197	-0.04787493	0	0	0	0	0	0
8.960239	-0.03225197	-0.04787493	0	0	0	0	0	0
8.976806	-0.03225197	-0.04787493	0	0	0	0	0	0
8.993373	-0.03225197	-0.04787493	0	0	0	0	0	0
9.009939	-0.03225197	-0.04787493	0	0	0	0	0	0
9.026505	-0.03225197	-0.04787493	0	0	0	0	0	0
9.043073	-0.03225197	-0.04787493	0	0	0	0	0	0
9.059639	-0.03225197	-0.04787493	0	0	0	0	0	0
9.076206	-0.03225197	-0.04787493	0	0	0	0	0	0
9.092772	-0.03225197	-0.04787493	0	0	0	0	0	0
9.109339	-0.03225197	-0.04787493	0	0	0	0	0	0
9.125905	-0.03225197	-0.04787493	0	0	0	0	0	0
9.142814	-0.03225197	-0.04787493	0	0	0	0	0	0
9.159327	-0.03225197	-0.04787493	0	0	0	0	0	0
9.175605	-0.03225197	-0.04787493	0	0	0	0	0	0
9.192173	-0.03225197	-0.04787493	0	0	0	0	0	0
9.208861	-0.03225197	-0.04787493	0	0	0	0	0	0
9.225306	-0.03225197	-0.04787493	0	0	0	0	0	0
9.241875	-0.03225197	-0.04787493	0	0	0	0	0	0
9.258439	-0.03225197	-0.04787493	0	0	0	0	0	0
9.275005	-0.03225197	-0.04787493	0	0	0	0	0	0
9.291574	-0.03225197	-0.04787493	0	0	0	0	0	0
9.308433	-0.03225197	-0.04787493	0	0	0	0	0	0
9.324706	-0.03225197	-0.04787493	0	0	0	0	0	0
9.341457	-0.03225197	-0.04787493	0	0	0	0	0	0
9.357839	-0.03225197	-0.04787493	0	0	0	0	0	0
9.374406	-0.03225197	-0.04787493	0	0	0	0	0	0
9.474049	-0.03225197	-0.04787493	0	0	0	0	0	0
9.496087	-0.03225197	-0.04787493	0	0	0	0	0	0
9.512654	-0.03225197	-0.04787493	0	0	0	0	0	0
9.529222	-0.03225197	-0.04787493	0	0	0	0	0	0
9.545789	-0.03225197	-0.04787493	0	0	0	0	0	0
9.562354	-0.03227826	-0.04789404	-0.001587012	-0.001153659	-0.04789889	-0.03481951	0	0
9.57892	-0.03227826	-0.04789404	0	0	0.04790027	0.03482051	0	0
9.595487	-0.03227826	-0.04789404	0	0	0	0	0	0
9.612053	-0.03227826	-0.04789404	0	0	0	0	0	0
9.628656	-0.03227826	-0.04789404	0	0	0	0	0	0
9.645187	-0.03227826	-0.04789404	0	0	0	0	0	0
9.661754	-0.03227826	-0.04789404	0	0	0	0	0	0
9.67832	-0.03227826	-0.04789404	0	0	0	0	0	0
9.694886	-0.03227826	-0.04789404	0	0	0	0	0	0
9.711452	-0.03227826	-0.04789404	0	0	0	0	0	0
9.728019	-0.03227826	-0.04789404	0	0	0	0	0	0
9.744585	-0.03227826	-0.04789404	0	0	0	0	0	0
9.761153	-0.03227826	-0.04789404	0	0	0	0	0	0
9.777719	-0.03227826	-0.04789404	0	0	0	0	0	0
9.794285	-0.03227826	-0.04789404	0	0	0	0	0	0
9.810853	-0.03227826	-0.04789404	0	0	0	0	0	0
9.843986	-0.03227826	-0.04789404	0	0	0	0	0	0
9.877119	-0.03227826	-0.04789404	0	0	0	0	0	0
9.893685	-0.03227826	-0.04789404	0	0	0	0	0	0
9.910253	-0.03227826	-0.04789404	0	0	0	0	0	0
9.926865	-0.03227826	-0.04789404	0	0	0	0	0	0
9.943385	-0.03227826	-0.04789404	0	0	0	0	0	0
9.959953	-0.03227826	-0.04789404	0	0	0	0	0	0
9.97652	-0.03227826	-0.04789404	0	0	0	0	0	0
9.993086	-0.03227826	-0.04789404	0	0	0	0	0	0
10.00965	-0.03227826	-0.04789404	0	0	0	0	0	0
10.02644	-0.03227826	-0.04789404	0	0	0	0	0	0
10.04279	-0.03227826	-0.04789404	0	0	0	0	0	0
10.05935	-0.03227826	-0.04789404	0	0	0	0	0	0
10.07598	-0.03227826	-0.04789404	0	0	0	0	0	0
10.09249	-0.03227826	-0.04789404	0	0	0	0	0	0
10.10905	-0.03227826	-0.04789404	0	0	0	0	0	0
10.12562	-0.03227826	-0.04789404	0	0	0	0	0	0
10.14219	-0.03227826	-0.04793227	0	-0.002307635	0	-0.06964859	0	0
10.15903	-0.03227826	-0.04793227	0	0	0	0.06906414	0	0
10.17554	-0.03227826	-0.04793227	0	0	0	0	0	0
10.19189	-0.03230455	-0.04795138	-0.00160859	-0.001169573	-0.04896307	-0.03560005	0	0
10.25815	-0.03227826	-0.0479705	0.0003967131	-0.000288442	0.02427402	0.01066601	0	0
10.27472	-0.03227826	-0.0479705	0	0	-0.004789351	0.003482239	0	0
10.29163	-0.03230455	-0.04795138	-0.001554877	0.001130519	-0.04645297	0.033775	0	0
10.32964	-0.03230455	-0.04795138	0	0	0.02831009	-0.02058368	0	0
10.34621	-0.03233084	-0.04793227	-0.001586921	0.001153818	-0.02907426	0.0211393	0	0
10.36278	-0.03235712	-0.04787493	-0.001586605	0.003461029	9.542727E-06	0.06963379	0	0
10.37934	-0.03256743	-0.04772202	-0.01269469	0.009229868	-0.3352524	0.1741089	0	0
10.39591	-0.03277773	-0.04756913	-0.01269469	0.009229193	0	-2.035091E-05	0	0
10.42904	-0.03451261	-0.04626985	-0.05236014	0.03921361	-0.7981011	0.6033108	0	0
10.44573	-0.03989987	-0.04231817	-0.322742	0.2367384	-5.426557	3.964319	0	0
10.46217	-0.04678163	-0.03728592	-0.4185889	0.3060908	-2.892833	2.093179	0	0
10.47874	-0.05804	-0.02912627	-0.6795958	0.4925457	-7.9077	5.649008	0	0
10.49531	-0.06427974	-0.02457085	-0.376653	0.2749816	9.143355	-6.566477	0	0
10.51187	-0.07412709	-0.01740947	-0.594421	0.4322862	-6.572629	4.747737	0	0
10.52844	-0.08790446	-0.007414256	-0.8315561	0.6032779	-7.156752	5.160538	0	0
10.54501	-0.09849603	0.0002738452	-0.639345	0.4640814	5.800942	-4.200957	0	0
10.56182	-0.1116911	0.009877932	-0.7850689	0.5714148	-4.366411	3.216095	0	0
10.57814	-0.1208555	0.01664658	-0.5613385	0.4145944	6.752391	-4.732985	0	0
10.59471	-0.1311895	0.02429941	-0.6237987	0.4619524	-1.898934	1.43979	0	0
10.61127	-0.1379859	0.02928641	-0.4102563	0.3010333	6.445094	-4.856826	0	0
10.62784	-0.1419597	0.03223429	-0.2398415	0.1779237	5.143131	-3.715456	0	0
10.66097	-0.1494818	0.03778776	-0.227032	0.1676138	0.2577311	-0.2074397	0	0
10.67754	-0.1518741	0.03970531	-0.1443954	0.1157437	1.662715	-1.043669	0	0
10.69411	-0.1517455	0.03979837	0.007760779	0.005617525	4.592216	-3.323709	0	0
10.71092	-0.1513083	0.0401892	0.02600385	0.0232465	0.5465499	0.5281519	0	0
10.72743	-0.1503052	0.04106376	0.06075286	0.0529654	1.042755	0.8918104	0	0
10.74395	-0.1485039	0.04310981	0.1090844	0.1239063	1.463494	2.14811	0	0
10.76046	-0.1487098	0.04768153	-0.01247094	0.2768738	-3.680731	4.6319	0	0
10.77747	-0.1523112	0.05873532	-0.2116767	0.6497055	-5.941924	11.12085	0	0
10.79351	-0.1547013	0.06807733	-0.1490307	0.5824944	1.895405	-2.033525	0	0
10.81007	-0.1571154	0.07959148	-0.1457206	0.6950355	0.101525	3.451732	0	0
10.82664	-0.1589118	0.0877653	-0.1084422	0.4934009	1.125128	-6.085693	0	0
10.84321	-0.1609381	0.09480393	-0.1222894	0.4248037	-0.4178967	-2.070209	0	0
10.87634	-0.1632704	0.1037014	-0.07039481	0.2685414	1.044122	-3.144004	0	0
10.89291	-0.1631936	0.1036464	0.004639824	-0.003318851	1.509816	-5.470258	0	0
10.90956	-0.1631936	0.1036464	0	0	-0.1396764	0.09991006	0	0
10.92604	-0.1631936	0.1036464	0	0	0	0	0	0
10.94261	-0.1631936	0.1036464	0	0	0	0	0	0
10.95917	-0.1631936	0.1036464	0	0	0	0	0	0
10.97574	-0.1632192	0.1036647	-0.00154613	0.001105856	-0.04666499	0.03337673	0	0
10.99231	-0.1631936	0.1036831	0.001546219	0.00110637	0.09332998	1.549463E-05	0	0
11.00887	-0.1631936	0.1036831	0	0	-0.04666768	-0.03339223	0	0
11.02564	-0.1632192	0.1037014	-0.001527576	0.00109303	-0.04582537	0.03278953	0	0
11.04201	-0.1632192	0.103738	0	0.002239817	0.04610234	0.0346101	0	0
11.05857	-0.1632704	0.1039946	-0.003093338	0.01548783	-0.09393027	0.4022804	0	0
11.09703	-0.1651401	0.1147035	-0.04861585	0.2784508	-0.8273044	4.778965	0	0
11.1136	-0.1656522	0.1235823	-0.03090554	0.5358917	0.3218476	4.678446	0	0
11.13022	-0.1664713	0.1357972	-0.04928505	0.7349672	-0.5538024	5.998443	0	0
11.14674	-0.167239	0.1432582	-0.04648521	0.4517761	0.08449953	-8.546725	0	0
11.1633	-0.1687482	0.1488746	-0.0911133	0.339064	-1.349131	-3.407345	0	0
11.17987	-0.1695409	0.1539772	-0.04784825	0.3080133	1.305892	-0.9372193	0	0
11.19643	-0.1704867	0.1570802	-0.05708899	0.1872967	-0.2788943	-3.64334	0	0
11.21328	-0.1712789	0.1587308	-0.04703514	0.09800107	0.300923	-2.672717	0	0
11.22957	-0.1714066	0.1590391	-0.007841311	0.01892507	1.182872	-2.386519	0	0
11.29584	-0.1857547	0.1779616	-0.2165153	0.2855449	-2.527556	3.229423	0	0
11.3124	-0.1846615	0.1846663	0.06599761	0.4047657	3.41066	1.439303	0	0
11.32897	-0.1824992	0.1910397	0.1305238	0.3847199	1.947627	-0.6050527	0	0
11.34553	-0.177838	0.1947022	0.2813633	0.2210851	4.55261	-4.938793	0	0
11.36238	-0.1746497	0.1975696	0.1892245	0.1701788	-2.757344	-1.52342	0	0
11.37867	-0.1703589	0.205499	0.2634974	0.4869446	2.241626	9.560286	0	0
11.39523	-0.1676739	0.2129706	0.1620742	0.4510121	-3.087441	-1.093825	0	0
11.4118	-0.1678274	0.2181518	-0.00926419	0.3127356	-5.171151	-4.173312	0	0
11.42843	-0.1673925	0.2235995	0.02615458	0.327616	1.066975	0.4482644	0	0
11.44494	-0.1674437	0.2290978	-0.003098465	0.3330295	-0.882757	0.1633601	0	0
11.4615	-0.1645768	0.2344493	0.173095	0.323111	5.327496	-0.2999014	0	0
11.47807	-0.1656266	0.2360111	-0.06337345	0.09428163	-7.13807	-6.907476	0	0
11.50003	-0.1671622	0.2370881	-0.06990685	0.04902671	-0.1695566	-1.174468	0	0
11.5166	-0.1671622	0.2369804	0	-0.006500223	1.814153	-1.440979	0	0
11.5335	-0.1672902	0.2368189	-0.007569158	-0.009558211	-0.2261594	-0.09136983	0	0
11.54973	-0.1673413	0.236783	-0.003152356	-0.002211423	0.1333032	0.2217329	0	0
11.5663	-0.1673413	0.236783	0	0	0.09610923	0.067422	0	0
11.58304	-0.1673413	0.236783	0	0	0	0	0	0
11.59943	-0.1673413	0.236783	0	0	0	0	0	0
11.616	-0.1673413	0.236783	0	0	0	0	0	0
11.63257	-0.1673669	0.236765	-0.001545142	-0.001083758	-0.04663248	-0.03270788	0	0
11.68227	-0.1674948	0.2366035	-0.002573734	-0.003250448	-0.01552193	-0.03269637	0	0
11.69883	-0.1675204	0.2365855	-0.00154442	-0.001082983	0.01553327	0.032709	0	0
11.7154	-0.167546	0.2365676	-0.001544331	-0.00108382	2.680818E-06	-2.526574E-05	0	0
11.73197	-0.1675204	0.2365137	0.00154442	-0.003249849	0.0932214	-0.06537276	0	0
11.74853	-0.1675972	0.2363522	-0.004633261	-0.009752245	-0.1864535	-0.196254	0	0
11.76511	-0.167853	0.2361009	-0.01543707	-0.01516372	-0.3260221	-0.1632999	0	0
11.78168	-0.167853	0.2361009	0	0	0.4657175	0.4574709	0	0
11.79823	-0.1678018	0.2360291	0.003090254	-0.004337878	0.09328015	-0.13094	0	0
11.8148	-0.1677763	0.2360111	0.001544509	-0.001083045	-0.04667216	0.09827628	0	0
11.83137	-0.1676739	0.2359034	0.006176782	-0.006501497	0.1398143	-0.1635433	0	0
11.84793	-0.1674692	0.2357239	0.01235536	-0.01083613	0.1864807	-0.130827	0	0
11.86474	-0.1666504	0.2350776	0.04873113	-0.03846079	1.090105	-0.8278524	0	0
11.88268	-0.1664457	0.2348981	0.01141105	-0.01000585	-1.074107	0.81896	0	0
11.90505	-0.1665225	0.2348084	-0.003432331	-0.004011824	-0.3681968	0.1486844	0	0
11.92162	-0.1665737	0.2347725	-0.003089562	-0.00216764	0.008802821	0.04736142	0	0
11.93829	-0.1667528	0.234575	-0.01074621	-0.01184657	-0.230362	-0.2912056	0	0
11.95475	-0.1668808	0.2344134	-0.007772222	-0.009814162	0.08975771	0.06134012	0	0
11.97132	-0.1669063	0.2343595	-0.001544242	-0.003250374	0.1885469	0.1987132	0	0
11.98788	-0.1669063	0.2342877	0	-0.00433578	0.04660667	-0.03275856	0	0
12.00483	-0.1668808	0.2342339	0.001509488	-0.003177221	0.0450392	0.0345684	0	0
12.05415	-0.1669063	0.23418	-0.0005187988	-0.001092288	-0.03060823	0.03146307	0	0
12.12041	-0.1667784	0.2340184	0.001930975	-0.002438511	0.02119521	-0.01164739	0	0
12.13698	-0.1661897	0.2335696	0.03553246	-0.02709437	0.4056613	-0.2976632	0	0
12.15355	-0.1609637	0.2298702	0.3154438	-0.2232957	8.447986	-5.92154	0	0
12.17011	-0.1570897	0.2271576	0.2338506	-0.1637418	-2.46256	1.797393	0	0
12.18668	-0.1493532	0.221748	0.4670032	-0.3265419	7.036964	-4.913599	0	0
12.20325	-0.1440995	0.2180799	0.3171114	-0.2214096	-4.523873	3.172989	0	0
12.21982	-0.137831	0.2137084	0.378323	-0.2638299	1.847264	-1.280174	0	0
12.23638	-0.1336718	0.2108109	0.2510523	-0.1748962	-3.840815	2.683871	0	0
12.25295	-0.1304394	0.2084885	0.1951326	-0.1401941	-1.687759	1.047372	0	0
12.26952	-0.1265568	0.2055351	0.2343777	-0.1782905	1.184556	-1.149884	0	0
12.28608	-0.1141853	0.1943415	0.7467861	-0.675687	15.46585	-15.01275	0	0
12.30265	-0.104981	0.1853888	0.5556045	-0.5404158	-5.770204	4.082729	0	0
12.31922	-0.08756498	0.1733131	1.051115	-0.7288027	14.9541	-5.685367	0	0
12.33578	-0.07331572	0.1634444	0.8601859	-0.5957479	-5.762249	4.015604	0	0
12.35235	-0.05331784	0.1495648	1.207144	-0.8378188	10.47212	-7.306345	0	0
12.36891	-0.03842844	0.1389648	0.8987777	-0.6398568	-9.307053	5.974849	0	0
12.3856	-0.02128626	0.1230346	1.027195	-0.9545675	3.861629	-9.463667	0	0
12.40205	-0.01607756	0.1134234	0.3167313	-0.5844442	-21.44245	11.17066	0	0
12.41862	-0.01023648	0.09274678	0.3525681	-1.248042	1.085555	-20.10146	0	0
12.43518	-0.008815561	0.07666059	0.08577205	-0.9710203	-8.052151	8.360758	0	0
12.45175	-0.008026144	0.05558557	0.0476521	-1.272164	-1.150529	-9.089047	0	0
12.46866	-0.007736688	0.04056138	0.01711592	-0.8884008	-0.9121327	11.46321	0	0
12.48488	-0.007499859	0.0215882	0.01459835	-1.169527	-0.07598041	-8.484397	0	0
12.50168	-0.007605116	0.008207161	-0.006265689	-0.7965391	-0.6318238	11.29515	0	0
12.51819	-0.007763002	-0.0004414499	-0.009561925	-0.5237799	-0.09895371	8.188289	0	0
12.53458	-0.007631431	-0.02043876	0.008028538	-1.220245	0.5346668	-21.16925	0	0
12.55115	-0.007631431	-0.02775894	0	-0.4418724	-0.243627	23.61983	0	0
12.56771	-0.007578802	-0.04054448	0.00317685	-0.7717814	0.09588303	-9.957248	0	0
12.58428	-0.00726303	-0.04787493	0.01906113	-0.4424919	0.4794161	9.93855	0	0
12.60085	-0.007526174	-0.05426573	-0.01588336	-0.3857496	-1.054657	1.712536	0	0
12.61741	-0.007605116	-0.05643107	-0.00476526	-0.1307075	0.3355547	7.697409	0	0
12.63427	-0.01102587	-0.06587797	-0.2028801	-0.5602828	-5.926747	-12.85106	0	0
12.65055	-0.01523566	-0.06891842	-0.2587053	-0.1868453	-1.684858	11.27069	0	0
12.67213	-0.01960275	-0.07215492	-0.2023162	-0.1499386	1.489491	0.9748698	0	0
12.68881	-0.02207536	-0.07396746	-0.1482231	-0.1086546	1.413564	1.078838	0	0
12.70527	-0.02546818	-0.07653403	-0.2062152	-0.155996	-1.750205	-1.428765	0	0
12.72184	-0.02662528	-0.07734502	-0.06983518	-0.04894616	4.129984	3.241779	0	0
12.7384	-0.02938627	-0.07937355	-0.1666825	-0.1224636	-2.922941	-2.218825	0	0
12.77154	-0.03101637	-0.08061072	-0.04919486	-0.03733676	2.363946	1.712821	0	0
12.7881	-0.03101637	-0.08061072	0	0	0.9898406	0.7512459	0	0
12.80467	-0.03104266	-0.08059139	-0.00158683	0.001167018	-0.04789475	0.03522372	0	0
12.82123	-0.03101637	-0.08057205	0.001586921	0.001167085	0.09578675	2.027303E-06	0	0
12.8378	-0.03099008	-0.08055272	0.001586851	0.001166951	-2.118593E-06	-4.054488E-06	0	0
12.85443	-0.03099008	-0.08055272	0	0	-0.04780183	-0.03515288	0	0
12.87093	-0.03099008	-0.08055272	0	0	0	0	0	0
12.8875	-0.03096378	-0.08053339	0.001586942	0.001167018	0.04798793	0.03528974	0	0
12.90566	-0.03096378	-0.08053339	0	0	-0.04569877	-0.03360632	0	0
12.92223	-0.03096378	-0.08053339	0	0	0	0	0	0
12.93879	-0.03096378	-0.08053339	0	0	0	0	0	0
12.97201	-0.03096378	-0.08053339	0	0	0	0	0	0
12.98849	-0.03096378	-0.08053339	0	0	0	0	0	0
13.00554	-0.03096378	-0.08053339	0	0	0	0	0	0
13.02205	-0.03096378	-0.08053339	0	0	0	0	0	0
13.0382	-0.03096378	-0.08053339	0	0	0	0	0	0
13.05507	-0.03096378	-0.08053339	0	0	0	0	0	0
13.07158	-0.03096378	-0.08053339	0	0	0	0	0	0
13.08789	-0.03096378	-0.08053339	0	0	0	0	0	0
13.10461	-0.03096378	-0.08053339	0	0	0	0	0	0
13.12103	-0.03096378	-0.08053339	0	0	0	0	0	0
13.13763	-0.03096378	-0.08053339	0	0	0	0	0	0
13.15416	-0.03096378	-0.08053339	0	0	0	0	0	0
13.17073	-0.03096378	-0.08053339	0	0	0	0	0	0
13.18729	-0.03096378	-0.08053339	0	0	0	0	0	0
13.20418	-0.03096378	-0.08053339	0	0	0	0	0	0
13.22069	-0.03096378	-0.08053339	0	0	0	0	0	0
13.237	-0.03096378	-0.08053339	0	0	0	0	0	0
13.25356	-0.03096378	-0.08053339	0	0	0	0	0	0
13.27013	-0.03096378	-0.08053339	0	0	0	0	0	0
13.2867	-0.03096378	-0.08053339	0	0	0	0	0	0
13.30329	-0.03096378	-0.08053339	0	0	0	0	0	0
13.31983	-0.03096378	-0.08053339	0	0	0	0	0	0
13.3364	-0.03096378	-0.08053339	0	0	0	0	0	0
13.35328	-0.03096378	-0.08053339	0	0	0	0	0	0
13.36953	-0.03096378	-0.08053339	0	0	0	0	0	0
13.3861	-0.03096378	-0.08053339	0	0	0	0	0	0
13.42485	-0.03096378	-0.08053339	0	0	0	0	0	0
13.44142	-0.03096378	-0.08053339	0	0	0	0	0	0
13.45798	-0.03096378	-0.08053339	0	0	0	0	0	0
13.47455	-0.03096378	-0.08053339	0	0	0	0	0	0
13.49111	-0.03096378	-0.08053339	0	0	0	0	0	0
13.50768	-0.03096378	-0.08053339	0	0	0	0	0	0
13.52425	-0.03096378	-0.08053339	0	0	0	0	0	0
13.54081	-0.03099008	-0.08055272	-0.001587034	-0.001167085	-0.04789952	-0.03522473	0	0
13.55738	-0.03099008	-0.08055272	0	0	0.04789952	0.03522473	0	0
13.57395	-0.03099008	-0.08055272	0	0	0	0	0	0
13.59051	-0.03099008	-0.08055272	0	0	0	0	0	0
13.60708	-0.03096378	-0.08053339	0.001587034	0.001167085	0.04789814	0.03522372	0	0
13.62365	-0.03096378	-0.08053339	0	0	-0.04789677	-0.0352227	0	0
13.64021	-0.03096378	-0.08053339	0	0	0	0	0	0
13.68991	-0.03099008	-0.08051405	-0.000529001	0.0003890209	-0.007983101	0.005870676	0	0
13.70653	-0.03099008	-0.08051405	0	0	0.007976786	-0.005866033	0	0
13.72305	-0.03099008	-0.08051405	0	0	0	0	0	0
13.73961	-0.03099008	-0.08051405	0	0	0	0	0	0
13.75618	-0.03099008	-0.08051405	0	0	0	0	0	0
13.77275	-0.03099008	-0.08051405	0	0	0	0	0	0
13.80588	-0.03099008	-0.08051405	0	0	0	0	0	0
13.82245	-0.03099008	-0.08051405	0	0	0	0	0	0
13.83912	-0.03099008	-0.08051405	0	0	0	0	0	0
13.85563	-0.03099008	-0.08051405	0	0	0	0	0	0
13.87215	-0.03099008	-0.08051405	0	0	0	0	0	0
13.88871	-0.03099008	-0.08051405	0	0	0	0	0	0
13.90528	-0.03099008	-0.08051405	0	0	0	0	0	0
13.92184	-0.03099008	-0.08051405	0	0	0	0	0	0
13.93841	-0.03099008	-0.08051405	0	0	0	0	0	0
13.95498	-0.03099008	-0.08051405	0	0	0	0	0	0
13.97172	-0.03099008	-0.08051405	0	0	0	0	0	0
13.98811	-0.03099008	-0.08051405	0	0	0	0	0	0
14.00474	-0.03099008	-0.08051405	0	0	0	0	0	0
14.02124	-0.03099008	-0.08051405	0	0	0	0	0	0
14.03781	-0.03099008	-0.08051405	0	0	0	0	0	0
14.05438	-0.03099008	-0.08051405	0	0	0	0	0	0
14.07094	-0.03099008	-0.08051405	0	0	0	0	0	0
14.08751	-0.03099008	-0.08051405	0	0	0	0	0	0
14.10407	-0.03101637	-0.08053339	-0.001587034	-0.001167085	-0.04789952	-0.03522473	0	0
14.12082	-0.03101637	-0.08053339	0	0	0.04764172	0.03503514	0	0
14.13721	-0.03101637	-0.08053339	0	0	0	0	0	0
14.15384	-0.03101637	-0.08053339	0	0	0	0	0	0
14.17036	-0.03101637	-0.08053339	0	0	0	0	0	0
14.18691	-0.03101637	-0.08053339	0	0	0	0	0	0
14.25453	-0.03101637	-0.08053339	0	0	0	0	0	0
14.2711	-0.03101637	-0.08053339	0	0	0	0	0	0
14.28794	-0.03101637	-0.08053339	0	0	0	0	0	0
14.30424	-0.03101637	-0.08053339	0	0	0	0	0	0
14.32096	-0.03101637	-0.08053339	0	0	0	0	0	0
14.33747	-0.03101637	-0.08053339	0	0	0	0	0	0
14.35394	-0.03101637	-0.08053339	0	0	0	0	0	0
14.3705	-0.03101637	-0.08053339	0	0	0	0	0	0
14.38707	-0.03101637	-0.08053339	0	0	0	0	0	0
14.40364	-0.03101637	-0.08053339	0	0	0	0	0	0
14.4202	-0.03101637	-0.08053339	0	0	0	0	0	0
14.43677	-0.03101637	-0.08053339	0	0	0	0	0	0
14.45356	-0.03101637	-0.08053339	0	0	0	0	0	0
14.4699	-0.03101637	-0.08053339	0	0	0	0	0	0
14.48658	-0.03101637	-0.08053339	0	0	0	0	0	0
14.50309	-0.03101637	-0.08053339	0	0	0	0	0	0
14.5196	-0.03101637	-0.08053339	0	0	0	0	0	0
14.53617	-0.03101637	-0.08053339	0	0	0	0	0	0
14.55274	-0.03101637	-0.08053339	0	0	0	0	0	0
14.5693	-0.03101637	-0.08053339	0	0	0	0	0	0
14.58587	-0.03101637	-0.08053339	0	0	0	0	0	0
14.60244	-0.03101637	-0.08053339	0	0	0	0	0	0
14.6687	-0.03101637	-0.08053339	0	0	0	0	0	0
14.68527	-0.03101637	-0.08053339	0	0	0	0	0	0
14.70223	-0.03101637	-0.08053339	0	0	0	0	0	0
14.7184	-0.03101637	-0.08053339	0	0	0	0	0	0
14.73497	-0.03101637	-0.08053339	0	0	0	0	0	0
14.75153	-0.03101637	-0.08053339	0	0	0	0	0	0
14.7681	-0.03101637	-0.08053339	0	0	0	0	0	0
14.78467	-0.03101637	-0.08053339	0	0	0	0	0	0
14.81578	-0.03101637	-0.08053339	0	0	0	0	0	0
14.83235	-0.03101637	-0.08053339	0	0	0	0	0	0
14.84892	-0.03101637	-0.08053339	0	0	0	0	0	0
14.86549	-0.03101637	-0.08053339	0	0	0	0	0	0
14.88205	-0.03101637	-0.08053339	0	0	0	0	0	0
14.89862	-0.03101637	-0.08053339	0	0	0	0	0	0
14.91518	-0.03101637	-0.08053339	0	0	0	0	0	0
14.93175	-0.03101637	-0.08053339	0	0	0	0	0	0
14.94832	-0.03101637	-0.08053339	0	0	0	0	0	0
14.96488	-0.03101637	-0.08053339	0	0	0	0	0	0
14.98957	-0.03101637	-0.08053339	0	0	0	0	0	0
15.00614	-0.03099008	-0.08055272	0.001586851	-0.001166951	0.03846445	-0.02828629	0	0
15.02295	-0.03099008	-0.08055272	0	0	-0.04753825	0.03495905	0	0
15.03927	-0.03099008	-0.08055272	0	0	0	0	0	0
15.05584	-0.03099008	-0.08055272	0	0	0	0	0	0
15.0724	-0.03099008	-0.08055272	0	0	0	0	0	0
15.08897	-0.03099008	-0.08055272	0	0	0	0	0	0
15.10554	-0.03099008	-0.08055272	0	0	0	0	0	0
15.1221	-0.03099008	-0.08055272	0	0	0	0	0	0
15.13867	-0.03099008	-0.08055272	0	0	0	0	0	0
15.15524	-0.03099008	-0.08055272	0	0	0	0	0	0
15.17206	-0.03099008	-0.08055272	0	0	0	0	0	0
15.18837	-0.03099008	-0.08055272	0	0	0	0	0	0
15.20494	-0.03099008	-0.08055272	0	0	0	0	0	0
15.22151	-0.03099008	-0.08055272	0	0	0	0	0	0
15.23808	-0.03099008	-0.08055272	0	0	0	0	0	0
15.25464	-0.03099008	-0.08055272	0	0	0	0	0	0
15.27121	-0.03099008	-0.08055272	0	0	0	0	0	0
15.28777	-0.03099008	-0.08055272	0	0	0	0	0	0
15.30434	-0.03099008	-0.08055272	0	0	0	0	0	0
15.32091	-0.03099008	-0.08055272	0	0	0	0	0	0
15.33747	-0.03099008	-0.08055272	0	0	0	0	0	0
15.35419	-0.03099008	-0.08055272	0	0	0	0	0	0
15.3712	-0.03099008	-0.08055272	0	0	0	0	0	0
15.38721	-0.03099008	-0.08055272	0	0	0	0	0	0
15.40374	-0.03099008	-0.08055272	0	0	0	0	0	0
15.42031	-0.03099008	-0.08055272	0	0	0	0	0	0
15.43687	-0.03099008	-0.08055272	0	0	0	0	0	0
15.45344	-0.03099008	-0.08055272	0	0	0	0	0	0
15.47001	-0.03099008	-0.08055272	0	0	0	0	0	0
15.58597	-0.03099008	-0.08055272	0	0	0	0	0	0
15.60254	-0.03099008	-0.08055272	0	0	0	0	0	0
15.6191	-0.03099008	-0.08055272	0	0	0	0	0	0
15.63567	-0.03099008	-0.08055272	0	0	0	0	0	0
15.65224	-0.03099008	-0.08055272	0	0	0	0	0	0
15.6688	-0.03099008	-0.08055272	0	0	0	0	0	0
15.68542	-0.03099008	-0.08055272	0	0	0	0	0	0
15.70194	-0.03099008	-0.08055272	0	0	0	0	0	0
15.7185	-0.03099008	-0.08055272	0	0	0	0	0	0
15.73507	-0.03099008	-0.08055272	0	0	0	0	0	0
15.75197	-0.03099008	-0.08055272	0	0	0	0	0	0
15.79011	-0.03099008	-0.08055272	0	0	0	0	0	0
15.80668	-0.03099008	-0.08055272	0	0	0	0	0	0
15.82324	-0.03099008	-0.08055272	0	0	0	0	0	0
15.84003	-0.03099008	-0.08055272	0	0	0	0	0	0
15.85638	-0.03099008	-0.08055272	0	0	0	0	0	0
15.87305	-0.03099008	-0.08055272	0	0	0	0	0	0
15.88957	-0.03099008	-0.08055272	0	0	0	0	0	0
15.90608	-0.03099008	-0.08055272	0	0	0	0	0	0
15.92264	-0.03099008	-0.08055272	0	0	0	0	0	0
15.93921	-0.03099008	-0.08055272	0	0	0	0	0	0
15.95578	-0.03099008	-0.08055272	0	0	0	0	0	0
15.97234	-0.03099008	-0.08055272	0	0	0	0	0	0
15.98891	-0.03099008	-0.08055272	0	0	0	0	0	0
16.00548	-0.03099008	-0.08055272	0	0	0	0	0	0
16.02204	-0.03099008	-0.08055272	0	0	0	0	0	0
16.03867	-0.03099008	-0.08055272	0	0	0	0	0	0
16.05518	-0.03099008	-0.08055272	0	0	0	0	0	0
16.07174	-0.03099008	-0.08055272	0	0	0	0	0	0
16.08831	-0.03099008	-0.08055272	0	0	0	0	0	0
16.10488	-0.03099008	-0.08055272	0	0	0	0	0	0
16.12144	-0.03099008	-0.08055272	0	0	0	0	0	0
16.13801	-0.03099008	-0.08055272	0	0	0	0	0	0
16.15475	-0.03099008	-0.08055272	0	0	0	0	0	0
16.17114	-0.03099008	-0.08055272	0	0	0	0	0	0
16.18777	-0.03099008	-0.08055272	0	0	0	0	0	0
16.20428	-0.03099008	-0.08055272	0	0	0	0	0	0
16.22084	-0.03099008	-0.08055272	0	0	0	0	0	0
16.25432	-0.03099008	-0.08055272	0	0	0	0	0	0
16.27054	-0.03099008	-0.08055272	0	0	0	0	0	0
16.28711	-0.03099008	-0.08055272	0	0	0	0	0	0
16.30367	-0.03099008	-0.08055272	0	0	0	0	0	0
16.32024	-0.03099008	-0.08055272	0	0	0	0	0	0
16.33681	-0.03099008	-0.08055272	0	0	0	0	0	0
16.35339	-0.03099008	-0.08055272	0	0	0	0	0	0
16.40343	-0.03096378	-0.08057205	0.0005254119	-0.0003863815	0.007886713	-0.005799793	0	0
16.41964	-0.03096378	-0.08057205	0	0	-0.007930307	0.005831851	0	0
16.43621	-0.03096378	-0.08057205	0	0	0	0	0	0
16.45278	-0.03096378	-0.08057205	0	0	0	0	0	0
16.46934	-0.03096378	-0.08057205	0	0	0	0	0	0
16.48598	-0.03096378	-0.08057205	0	0	0	0	0	0
16.503	-0.03096378	-0.08057205	0	0	0	0	0	0
16.51904	-0.03096378	-0.08057205	0	0	0	0	0	0
16.54173	-0.03096378	-0.08057205	0	0	0	0	0	0
16.5583	-0.03096378	-0.08057205	0	0	0	0	0	0
16.57505	-0.03096378	-0.08057205	0	0	0	0	0	0
16.59143	-0.03093749	-0.08059139	0.001604937	-0.001180335	0.0484399	-0.03562464	0	0
16.608	-0.03093749	-0.08059139	0	0	-0.04871191	0.03582468	0	0
16.62456	-0.0309112	-0.08061072	0.001586942	-0.001167018	0.04789401	-0.03522068	0	0
16.64113	-0.03088491	-0.08063006	0.001587125	-0.001167152	5.516389E-06	-4.054722E-06	0	0
16.6577	-0.03085862	-0.08064939	0.00158683	-0.001167018	-8.907036E-06	4.054722E-06	0	0
16.67426	-0.03083233	-0.08066873	0.001586942	-0.001167468	3.390452E-06	-1.357235E-05	0	0
16.69083	-0.03080604	-0.08068807	0.001586942	-0.001167018	0	1.357235E-05	0	0
16.70765	-0.03064829	-0.08080408	0.009381137	-0.006899299	0.233482	-0.1717156	0	0
16.72396	-0.029991	-0.08128754	0.04027693	-0.02962513	0.9324368	-0.6858671	0	0
16.74053	-0.02696715	-0.08351255	0.1824995	-0.1342865	4.324397	-3.182318	0	0
16.7571	-0.02567857	-0.08446115	0.07778779	-0.05726423	-3.160205	2.324537	0	0
16.77366	-0.0248633	-0.08506146	0.04921538	-0.03623885	-0.8624163	0.6346205	0	0
16.7907	-0.0248633	-0.08506146	0	0	-1.464667	1.078481	0	0
16.80721	-0.0248633	-0.08506146	0	0	0	0	0	0
16.82336	-0.0248633	-0.08506146	0	0	0	0	0	0
16.83993	-0.0248633	-0.08506146	0	0	0	0	0	0
16.8565	-0.0248633	-0.08506146	0	0	0	0	0	0
16.87306	-0.0248633	-0.08506146	0	0	0	0	0	0
16.88963	-0.0248633	-0.08506146	0	0	0	0	0	0
16.9062	-0.0248633	-0.08506146	0	0	0	0	0	0
16.92276	-0.0248896	-0.08504209	-0.001587392	0.001169267	-0.04791034	0.03529057	0	0
16.98987	-0.02491589	-0.08502273	-0.0003918963	0.0002885582	0.01428763	-0.01052554	0	0
17.00644	-0.02491589	-0.08498399	0	0.002338083	0.004683638	0.02449432	0	0
17.023	-0.02491589	-0.08498399	0	0	0	-0.0705635	0	0
17.12241	-0.0249422	-0.08496463	-0.000264579	0.0001947991	-0.002281394	0.0016797	0	0
17.13898	-0.02491589	-0.08498399	0.001587687	-0.001168952	0.01597186	-0.01175945	0	0
17.15554	-0.02491589	-0.08498399	0	0	-0.04792201	0.03528309	0	0
17.17211	-0.02491589	-0.08498399	0	0	0	0	0	0
17.18867	-0.02491589	-0.08498399	0	0	0	0	0	0
17.20524	-0.02491589	-0.08498399	0	0	0	0	0	0
17.22181	-0.02491589	-0.08498399	0	0	0	0	0	0
17.23838	-0.02491589	-0.08498399	0	0	0	0	0	0
17.25504	-0.02491589	-0.08498399	0	0	0	0	0	0
17.27151	-0.02491589	-0.08498399	0	0	0	0	0	0
17.28856	-0.02491589	-0.08498399	0	0	0	0	0	0
17.30464	-0.02491589	-0.08498399	0	0	0	0	0	0
17.32158	-0.02491589	-0.08498399	0	0	0	0	0	0
17.33809	-0.02491589	-0.08498399	0	0	0	0	0	0
17.35984	-0.02491589	-0.08498399	0	0	0	0	0	0
17.37641	-0.02491589	-0.08498399	0	0	0	0	0	0
17.39298	-0.02491589	-0.08498399	0	0	0	0	0	0
17.40954	-0.0249422	-0.08500336	-0.001587504	-0.001169267	-0.04791097	-0.03528854	0	0
17.42611	-0.0249422	-0.08500336	0	0	0.04791097	0.03528854	0	0
17.44268	-0.0249422	-0.08500336	0	0	0	0	0	0
17.45924	-0.02491589	-0.08498399	0.001587687	0.001169401	0.04791925	0.03529463	0	0
17.49238	-0.0249422	-0.08500336	-0.0007937521	-0.0005846333	-0.04791649	-0.0352926	0	0
17.50895	-0.0249422	-0.08500336	0	0	0.01597033	0.01176285	0	0
17.52551	-0.0249422	-0.08500336	0	0	0	0	0	0
17.54208	-0.0249422	-0.08500336	0	0	0	0	0	0
17.55865	-0.0249422	-0.08500336	0	0	0	0	0	0
17.57527	-0.0249422	-0.08500336	0	0	0	0	0	0
17.59178	-0.0249422	-0.08500336	0	0	0	0	0	0
17.60835	-0.0249422	-0.08500336	0	0	0	0	0	0
17.6253	-0.0249422	-0.08500336	0	0	0	0	0	0
17.64148	-0.0249422	-0.08500336	0	0	0	0	0	0
17.65805	-0.0249422	-0.08500336	0	0	0	0	0	0
17.67461	-0.0249422	-0.08500336	0	0	0	0	0	0
17.69118	-0.0249422	-0.08500336	0	0	0	0	0	0
17.70775	-0.0249422	-0.08500336	0	0	0	0	0	0
17.72432	-0.0249422	-0.08500336	0	0	0	0	0	0
17.74088	-0.0249422	-0.08500336	0	0	0	0	0	0
17.75745	-0.0249422	-0.08500336	0	0	0	0	0	0
17.77402	-0.0249422	-0.08500336	0	0	0	0	0	0
17.79058	-0.0249422	-0.08500336	0	0	0	0	0	0
17.80715	-0.0249422	-0.08500336	0	0	0	0	0	0
17.82372	-0.0249422	-0.08500336	0	0	0	0	0	0
17.84046	-0.0249422	-0.08500336	0	0	0	0	0	0
17.85685	-0.0249422	-0.08500336	0	0	0	0	0	0
17.87341	-0.0249422	-0.08500336	0	0	0	0	0	0
17.88998	-0.0249422	-0.08500336	0	0	0	0	0	0
17.90655	-0.0249422	-0.08500336	0	0	0	0	0	0
17.92312	-0.0249422	-0.08500336	0	0	0	0	0	0
17.93968	-0.02502109	-0.08498399	-0.004762288	0.001169267	-0.1437261	0.03528854	0	0
17.95625	-0.02512629	-0.08490653	-0.00634968	0.004675718	-0.04790758	0.1058249	0	0
17.97282	-0.02549447	-0.08463542	-0.02222371	0.01636389	-0.4790792	0.3527496	0	0
17.98956	-0.02878152	-0.08225472	-0.1963272	0.1421936	-5.226774	3.777544	0	0
18.00595	-0.03559023	-0.07724846	-0.4154221	0.3054485	-6.612676	4.927324	0	0
18.02258	-0.04604638	-0.06957312	-0.6286014	0.4614253	-6.455319	4.723158	0	0
18.03909	-0.06349349	-0.05679531	-1.05676	0.7739431	-12.91812	9.429093	0	0
18.05565	-0.07773776	-0.04642267	-0.8603804	0.6265265	5.939048	-4.458282	0	0
18.07262	-0.09281153	-0.03553422	-0.8882765	0.6416414	-0.8320888	0.4508484	0	0
18.08913	-0.1141334	-0.02028723	-1.291153	0.9232869	-12.03208	8.411469	0	0
18.10535	-0.1254949	-0.01275756	-0.7006238	0.4643277	18.04239	-14.02254	0	0
18.12745	-0.1624248	-0.0003284984	-1.670859	0.5623409	-25.32019	2.557847	0	0
18.14402	-0.1811755	0.002004978	-1.131793	0.1408489	13.94032	-10.89983	0	0
18.16059	-0.2214146	0.006047084	-2.428838	0.243982	-39.14492	3.112564	0	0
18.17715	-0.2584555	0.01089126	-2.235792	0.2923952	5.826143	1.461111	0	0
18.19372	-0.2815048	0.01548504	-1.391255	0.2772808	25.4882	-0.4561516	0	0
18.21029	-0.3026931	0.02454239	-1.278929	0.5467026	3.389981	8.131164	0	0
18.22686	-0.3084373	0.02928641	-0.34672	0.28635	28.13414	-7.857456	0	0
18.24343	-0.3127317	0.03361412	-0.2591804	0.2611907	2.641797	-0.7592645	0	0
18.25999	-0.308055	0.03804845	0.2823187	0.2676879	16.34247	0.1960833	0	0
18.27656	-0.3069553	0.03983559	0.06638061	0.1078845	-6.517773	-4.823431	0	0
18.29328	-0.3070032	0.04292385	-0.002860514	0.1846852	-2.080122	2.307224	0	0
18.30969	-0.3067162	0.04411383	0.0174862	0.07250327	0.6140651	-3.385656	0	0
18.32626	-0.3067401	0.04413242	-0.001444328	0.001121917	-0.5739676	-2.16426	0	0
18.34282	-0.3067162	0.04411383	0.001444827	-0.001122305	0.08719987	-0.06773464	0	0
18.35939	-0.3067162	0.04411383	0	0	-0.04360998	0.03387512	0	0
18.37596	-0.3067162	0.04411383	0	0	0	0	0	0
18.39252	-0.3066923	0.04409524	0.001442861	-0.001122175	0.04354815	-0.03386927	0	0
18.40909	-0.3066683	0.04407664	0.001444494	-0.001122271	4.927857E-05	-2.884685E-06	0	0
18.42566	-0.3066205	0.04403946	0.002887522	-0.002244576	0.04355317	-0.03387318	0	0
18.44238	-0.3064531	0.04390933	0.01000926	-0.007779762	0.2139126	-0.1662579	0	0
18.45889	-0.3063813	0.04385355	0.004346194	-0.003377866	-0.1703724	0.1324302	0	0
18.47536	-0.3063335	0.04381637	0.002907398	-0.002258845	-0.04363394	0.03393621	0	0
18.49192	-0.3061421	0.04366763	0.01155368	-0.008978752	0.2617894	-0.2034631	0	0
18.50849	-0.3058071	0.04340732	0.02021932	-0.01571224	0.2615444	-0.2032289	0	0
18.52506	-0.3057832	0.04338873	0.001444494	-0.001122271	-0.5666253	0.4403263	0	0
18.54162	-0.3057114	0.04333295	0.004333482	-0.003367038	0.08718984	-0.06774721	0	0
18.55819	-0.3055438	0.04320278	0.01011326	-0.007856572	0.1744339	-0.1354944	0	0
18.57476	-0.305472	0.043147	0.004333482	-0.003367263	-0.1744339	0.1354876	0	0
18.59133	-0.3053045	0.04301683	0.01011326	-0.007857022	0.1744339	-0.1355012	0	0
18.60789	-0.3052805	0.04299823	0.001444494	-0.001122496	-0.2616238	0.2032484	0	0
18.62451	-0.3052805	0.04299823	0	0	-0.04352476	0.03382248	0	0
18.64103	-0.3052805	0.04299823	0	0	0	0	0	0
18.65759	-0.3053045	0.04301683	-0.001444494	0.001122496	-0.04366781	0.03393364	0	0
18.67416	-0.3053045	0.04301683	0	0	0.04359492	-0.033877	0	0
18.69073	-0.3053045	0.04301683	0	0	0	0	0	0
18.70729	-0.3053045	0.04301683	0	0	0	0	0	0
18.72386	-0.3053045	0.04301683	0	0	0	0	0	0
18.74043	-0.3053045	0.04301683	0	0	0	0	0	0
18.757	-0.3053045	0.04301683	0	0	0	0	0	0
18.77357	-0.3053045	0.04301683	0	0	0	0	0	0
18.79013	-0.3053045	0.04301683	0	0	0	0	0	0
18.81312	-0.3053045	0.04301683	0	0	0	0	0	0
18.82969	-0.3053045	0.04301683	0	0	0	0	0	0
18.84626	-0.3053045	0.04301683	0	0	0	0	0	0
18.86283	-0.3053045	0.04301683	0	0	0	0	0	0
18.87939	-0.3053045	0.04301683	0	0	0	0	0	0
18.89596	-0.3052805	0.04299823	0.00144466	-0.001122625	0.04360496	-0.0338848	0	0
18.91273	-0.3052805	0.04299823	0	0	-0.04333799	0.03367734	0	0
18.92909	-0.3052805	0.04299823	0	0	0	0	0	0
18.94566	-0.3052805	0.04299823	0	0	0	0	0	0
18.96222	-0.3052805	0.04299823	0	0	0	0	0	0
18.97879	-0.3052805	0.04299823	0	0	0	0	0	0
19.0782	-0.3052566	0.04297964	0.0002410488	-0.0001870452	0.002078499	-0.001612841	0	0
19.09476	-0.3052566	0.04297964	0	0	-0.002078602	0.00161292	0	0
19.11137	-0.3052566	0.04297964	0	0	0	0	0	0
19.12789	-0.3052566	0.04297964	0	0	0	0	0	0
19.14446	-0.3052566	0.04297964	0	0	0	0	0	0
19.16103	-0.3052566	0.04297964	0	0	0	0	0	0
19.17759	-0.3052566	0.04297964	0	0	0	0	0	0
19.19416	-0.3052566	0.04297964	0	0	0	0	0	0
19.21072	-0.3052566	0.04297964	0	0	0	0	0	0
19.22729	-0.3052566	0.04297964	0	0	0	0	0	0
19.24386	-0.3052566	0.04297964	0	0	0	0	0	0
19.26042	-0.3052087	0.04294245	0.002889653	-0.002245509	0.08721493	-0.0677735	0	0
19.27699	-0.3051608	0.04290525	0.002890787	-0.002244992	3.421061E-05	1.560842E-05	0	0
19.29356	-0.3048975	0.04270069	0.0158948	-0.01234626	0.3924393	-0.3048393	0	0
19.31012	-0.3045143	0.04240312	0.02313162	-0.01796542	0.2184203	-0.1695964	0	0
19.32669	-0.3042508	0.04219852	0.01590382	-0.01234925	-0.2181605	0.1695158	0	0
19.34326	-0.3007497	0.03951918	0.2113279	-0.1617253	5.897909	-4.508179	0	0
19.36004	-0.2924222	0.03307344	0.4961928	-0.3840695	8.541678	-6.666995	0	0
19.37655	-0.2766897	0.02098959	0.9529102	-0.7319106	13.71822	-10.44795	0	0
19.39296	-0.2670201	0.01357327	0.5892875	-0.4519686	-11.04601	8.503981	0	0
19.40952	-0.2392243	-0.007546316	1.67795	-1.274927	33.01553	-24.95763	0	0
19.42609	-0.2213395	-0.02091235	1.079531	-0.8067751	-18.06135	14.12968	0	0
19.44266	-0.2094861	-0.02975316	0.7154716	-0.5336328	-10.98733	8.24345	0	0
19.45923	-0.181201	-0.05070506	1.707296	-1.264659	29.93331	-22.06241	0	0
19.47612	-0.1699243	-0.05844456	0.6673651	-0.4580346	-31.0757	24.10393	0	0
19.49236	-0.1471136	-0.07219347	1.404838	-0.8467504	22.25696	-11.73147	0	0
19.50893	-0.1315516	-0.08221602	0.9394331	-0.605032	-14.18805	7.368884	0	0
19.52549	-0.1136658	-0.08942254	1.079588	-0.4349865	4.230139	5.132278	0	0
19.54217	-0.09153298	-0.09820504	1.326928	-0.5265362	7.439468	-2.753621	0	0
19.55863	-0.07697916	-0.1039528	0.8844783	-0.3493094	-13.35317	5.348715	0	0
19.5752	-0.06372937	-0.113215	0.799667	-0.5590038	-2.568185	-6.349791	0	0
19.59176	-0.05549559	-0.1193693	0.4971063	-0.3715598	-9.131826	5.657399	0	0
19.60833	-0.05305542	-0.121195	0.1473057	-0.1102093	-10.55883	7.888935	0	0
19.62489	-0.04171263	-0.129693	0.6846521	-0.5129442	16.21808	-12.15526	0	0
19.64146	-0.03519599	-0.1345848	0.3933456	-0.2952677	-8.79165	6.56949	0	0
19.71277	-0.02970179	-0.1387545	0.07704456	-0.0584713	-3.599271	2.694568	0	0
19.72934	-0.02970179	-0.1387545	0	0	-0.8767101	0.6653601	0	0
19.74591	-0.02970179	-0.1387545	0	0	0	0	0	0
19.76248	-0.02970179	-0.1387545	0	0	0	0	0	0
19.87844	-0.02985954	-0.1386358	-0.001360329	0.001023335	-0.01026385	0.007721187	0	0
19.89501	-0.02983325	-0.1386161	0.001587125	0.001193689	0.02223954	0.00128538	0	0
19.91159	-0.02983325	-0.1386161	0	0	-0.04788299	-0.03601316	0	0
19.92814	-0.02983325	-0.1386161	0	0	0	0	0	0
19.96127	-0.02985954	-0.1385963	-0.0007935168	0.0005968101	-0.01597111	0.01201199	0	0
19.97787	-0.02985954	-0.1385963	0	0	0.01595702	-0.01200139	0	0
19.99441	-0.02985954	-0.1385963	0	0	0	0	0	0
20.01097	-0.02985954	-0.1385963	0	0	0	0	0	0
20.02754	-0.02988584	-0.1386161	-0.00158742	-0.001193826	-0.04791119	-0.03603182	0	0
20.04411	-0.02988584	-0.1386161	0	0	0.04791395	0.0360339	0	0
20.06067	-0.02988584	-0.1386161	0	0	0	0	0	0
20.07756	-0.02988584	-0.1386161	0	0	0	0	0	0
20.09381	-0.02988584	-0.1386161	0	0	0	0	0	0
20.11037	-0.02991213	-0.1386358	-0.001587055	-0.001193551	-0.04836232	-0.03637109	0	0
20.12708	-0.02996471	-0.1386358	-0.003147184	0	-0.04688509	0.03586866	0	0
20.14359	-0.02996471	-0.1386358	0	0	0.09473681	0	0	0
20.1601	-0.029991	-0.1386556	-0.001592442	-0.001198591	-0.04822378	-0.03629681	0	0
20.17664	-0.029991	-0.1386556	0	0	0.04819316	0.03627376	0	0
20.1932	-0.029991	-0.1386556	0	0	0	0	0	0
20.20977	-0.029991	-0.1386556	0	0	0	0	0	0
20.22634	-0.029991	-0.1386556	0	0	0	0	0	0
20.24291	-0.029991	-0.1386556	0	0	0	0	0	0
20.25947	-0.029991	-0.1386556	0	0	0	0	0	0
20.27604	-0.0300173	-0.1386358	-0.001587055	0.001194451	-0.04790016	0.03605067	0	0
20.29261	-0.0300173	-0.1386358	0	0	0.0478974	-0.0360486	0	0
20.30921	-0.0300173	-0.1386358	0	0	0	0	0	0
20.32574	-0.0300173	-0.1386358	0	0	0	0	0	0
20.34231	-0.0300173	-0.1386358	0	0	0	0	0	0
20.35887	-0.03004359	-0.1386556	-0.001586942	-0.001194451	-0.04789401	-0.0360486	0	0
20.37544	-0.03004359	-0.1386556	0	0	0.04789401	0.0360486	0	0
20.39201	-0.03004359	-0.1386556	0	0	0	0	0	0
20.40858	-0.03004359	-0.1386556	0	0	0	0	0	0
20.42514	-0.03004359	-0.1386556	0	0	0	0	0	0
20.44171	-0.03004359	-0.1386556	0	0	0	0	0	0
20.45828	-0.03004359	-0.1386556	0	0	0	0	0	0
20.49141	-0.03004359	-0.1386556	0	0	0	0	0	0
20.5135	-0.03004359	-0.1386556	0	0	0	0	0	0
20.53038	-0.03004359	-0.1386556	0	0	0	0	0	0
20.5634	-0.03006988	-0.1386754	-0.0007962211	-0.000598844	-0.01595754	-0.01200179	0	0
20.57991	-0.03006988	-0.1386754	0	0	0.0160749	0.01209006	0	0
20.59642	-0.03006988	-0.1386754	0	0	0	0	0	0
20.6129	-0.03006988	-0.1386754	0	0	0	0	0	0
20.62947	-0.03006988	-0.1386754	0	0	0	0	0	0
20.64603	-0.03006988	-0.1386754	0	0	0	0	0	0
20.6626	-0.03006988	-0.1386754	0	0	0	0	0	0
20.67917	-0.03006988	-0.1386754	0	0	0	0	0	0
20.69599	-0.03006988	-0.1386754	0	0	0	0	0	0
20.7125	-0.03006988	-0.1386754	0	0	0	0	0	0
20.72902	-0.03006988	-0.1386754	0	0	0	0	0	0
20.74543	-0.03006988	-0.1386754	0	0	0	0	0	0
20.762	-0.03009617	-0.1386952	-0.001586689	-0.001193277	-0.04810514	-0.03617768	0	0
20.77857	-0.03009617	-0.1386952	0	0	0.04788638	0.03601316	0	0
20.79514	-0.03009617	-0.1386952	0	0	0	0	0	0
20.82827	-0.03009617	-0.1386952	0	0	0	0	0	0
20.8451	-0.03009617	-0.1386952	0	0	0	0	0	0
20.8614	-0.03009617	-0.1386952	0	0	0	0	0	0
20.87797	-0.03009617	-0.1386952	0	0	0	0	0	0
20.89453	-0.03009617	-0.1386952	0	0	0	0	0	0
20.91114	-0.03009617	-0.1386952	0	0	0	0	0	0
20.92767	-0.03009617	-0.1386952	0	0	0	0	0	0
20.94423	-0.03009617	-0.1386952	0	0	0	0	0	0
20.9608	-0.03012246	-0.138715	-0.001586942	-0.001193551	-0.04789401	-0.03602145	0	0
20.97737	-0.03012246	-0.138715	0	0	0.04789401	0.03602145	0	0
20.99393	-0.03012246	-0.138715	0	0	0	0	0	0
21.0105	-0.03012246	-0.138715	0	0	0	0	0	0
21.02723	-0.03012246	-0.138715	0	0	0	0	0	0
21.04374	-0.03012246	-0.138715	0	0	0	0	0	0
21.0602	-0.03012246	-0.138715	0	0	0	0	0	0
21.07677	-0.03012246	-0.138715	0	0	0	0	0	0
21.09333	-0.03012246	-0.138715	0	0	0	0	0	0
21.1099	-0.03012246	-0.138715	0	0	0	0	0	0
21.1268	-0.03012246	-0.138715	0	0	0	0	0	0
21.14304	-0.03012246	-0.138715	0	0	0	0	0	0
21.1596	-0.03012246	-0.138715	0	0	0	0	0	0
21.17633	-0.03012246	-0.138715	0	0	0	0	0	0
21.19274	-0.03012246	-0.138715	0	0	0	0	0	0
21.20935	-0.03012246	-0.138715	0	0	0	0	0	0
21.22587	-0.03012246	-0.138715	0	0	0	0	0	0
21.24244	-0.03012246	-0.138715	0	0	0	0	0	0
21.26542	-0.03014876	-0.1387347	-0.001144376	-0.0008612818	-0.02893854	-0.02177976	0	0
21.28198	-0.03014876	-0.1387347	0	0	0.02893854	0.02177976	0	0
21.29855	-0.03014876	-0.1387347	0	0	0	0	0	0
21.31512	-0.03014876	-0.1387347	0	0	0	0	0	0
21.33168	-0.03014876	-0.1387347	0	0	0	0	0	0
21.34846	-0.03014876	-0.1387347	0	0	0	0	0	0
21.36482	-0.03014876	-0.1387347	0	0	0	0	0	0
21.38138	-0.03014876	-0.1387347	0	0	0	0	0	0
21.39795	-0.03014876	-0.1387347	0	0	0	0	0	0
21.41452	-0.03014876	-0.1387347	0	0	0	0	0	0
21.43109	-0.03014876	-0.1387347	0	0	0	0	0	0
21.44765	-0.03014876	-0.1387347	0	0	0	0	0	0
21.46422	-0.03014876	-0.1387347	0	0	0	0	0	0
21.48079	-0.03014876	-0.1387347	0	0	0	0	0	0
21.49735	-0.03014876	-0.1387347	0	0	0	0	0	0
21.51407	-0.03014876	-0.1387347	0	0	0	0	0	0
21.53058	-0.03014876	-0.1387347	0	0	0	0	0	0
21.5471	-0.03014876	-0.1387347	0	0	0	0	0	0
21.56362	-0.03014876	-0.1387347	0	0	0	0	0	0
21.58019	-0.03014876	-0.1387347	0	0	0	0	0	0
21.65651	-0.03014876	-0.1387347	0	0	0	0	0	0
21.68964	-0.03014876	-0.1387347	0	0	0	0	0	0
21.70621	-0.03014876	-0.1387347	0	0	0	0	0	0
21.72277	-0.03014876	-0.1387347	0	0	0	0	0	0
21.73934	-0.03014876	-0.1387347	0	0	0	0	0	0
21.75591	-0.03014876	-0.1387347	0	0	0	0	0	0
21.77248	-0.03014876	-0.1387347	0	0	0	0	0	0
21.78904	-0.03014876	-0.1387347	0	0	0	0	0	0
21.80561	-0.03014876	-0.1387347	0	0	0	0	0	0
21.82218	-0.03014876	-0.1387347	0	0	0	0	0	0
21.83874	-0.03014876	-0.1387347	0	0	0	0	0	0
21.85531	-0.03014876	-0.1387347	0	0	0	0	0	0
21.87188	-0.03014876	-0.1387347	0	0	0	0	0	0
21.88884	-0.03014876	-0.1387347	0	0	0	0	0	0
21.90501	-0.03014876	-0.1387347	0	0	0	0	0	0
21.92158	-0.03014876	-0.1387347	0	0	0	0	0	0
21.93814	-0.03014876	-0.1387347	0	0	0	0	0	0
21.95471	-0.03014876	-0.1387347	0	0	0	0	0	0
21.97771	-0.03017505	-0.138715	-0.001143062	0.0008603533	-0.02888857	0.02174369	0	0
21.99428	-0.03017505	-0.1386754	0	0.002387103	0.02888857	0.03858551	0	0
22.01093	-0.03070088	-0.1382799	-0.03157548	0.02375068	-0.9504879	0.6430882	0	0
22.02741	-0.03114782	-0.1379437	-0.02712097	0.0203984	0.1344451	-0.1011778	0	0
22.04398	-0.03156846	-0.1375483	-0.02538984	0.02386653	0.05238447	0.1049463	0	0
22.06055	-0.03191022	-0.1372518	-0.02062879	0.01789787	0.1436888	-0.1801344	0	0
22.07711	-0.03388176	-0.1357303	-0.1190028	0.0918396	-2.968933	2.231566	0	0
22.09368	-0.04339379	-0.1284716	-0.5742133	0.4381846	-13.73907	10.45331	0	0
22.11025	-0.04638775	-0.1261486	-0.1807156	0.1402149	11.87647	-8.993261	0	0
22.12701	-0.06176345	-0.1140961	-0.9169939	0.7188038	-22.08742	17.35694	0	0
22.14338	-0.06726678	-0.1085016	-0.3362464	0.3418171	17.52699	-11.37748	0	0
22.16004	-0.07043592	-0.09386844	-0.1902385	0.8784044	4.421032	16.24755	0	0
22.17652	-0.06954556	-0.08250623	0.05403458	0.6895555	7.371751	-5.699143	0	0
22.19308	-0.068917	-0.07234769	0.03794874	0.6133123	-0.4868446	-2.307534	0	0
22.20965	-0.06671663	-0.06180352	0.1328148	0.6364469	2.863391	0.6982837	0	0
22.22622	-0.06404387	-0.05669945	0.1613278	0.3080824	0.8605245	-9.910059	0	0
22.24278	-0.05963971	-0.0530975	0.2658049	0.2173891	3.152943	-2.736973	0	0
22.25935	-0.05953483	-0.0530975	0.006331858	0	-7.830911	-6.560816	0	0
22.27591	-0.0595086	-0.05315495	0.001583147	-0.003468124	-0.1433412	-0.1046863	0	0
22.29249	-0.0595086	-0.05323154	0	-0.004620973	-0.04777397	-0.03478903	0	0
22.30905	-0.05948238	-0.05328899	0.001583694	-0.003469547	0.04779873	0.03475209	0	0
22.32561	-0.05945616	-0.05330813	0.001582782	-0.001155775	-2.752152E-05	0.06984989	0	0
22.34218	-0.05937749	-0.05340388	0.004748572	-0.0057791	0.09554371	-0.1395322	0	0
22.35875	-0.05935127	-0.05342303	0.001582782	-0.001156	-0.09554371	0.1395254	0	0
22.37531	-0.0575679	-0.05480212	0.1076443	-0.08324234	3.200942	-2.477371	0	0
22.43563	-0.05722692	-0.0550512	0.00565297	-0.00412933	-1.32654	1.028975	0	0
22.45224	-0.05709577	-0.05518532	0.007895478	-0.008074442	0.02915032	-0.05128244	0	0
22.46877	-0.05709577	-0.05518532	0	0	-0.238286	0.2436871	0	0
22.48533	-0.057122	-0.05520448	-0.001583232	-0.00115645	-0.04784538	-0.03494799	0	0
22.5019	-0.05720069	-0.05526197	-0.004750468	-0.003470198	-0.09559286	-0.06983308	0	0
22.51879	-0.05725315	-0.05530029	-0.003105811	-0.002269198	0.04916044	0.03589908	0	0
22.53503	-0.05727938	-0.05535778	-0.001614837	-0.003539064	0.04500026	-0.03832684	0	0
22.58474	-0.05709577	-0.0556069	0.003694066	-0.005012139	0.08050309	-0.02233739	0	0
22.6013	-0.05701708	-0.05570272	0.00475079	-0.005785155	0.01594645	-0.01166517	0	0
22.61787	-0.05699085	-0.05572188	0.001583232	-0.001156675	-0.0956081	0.1397039	0	0
22.63443	-0.05699085	-0.05572188	0	0	-0.04778203	0.03490851	0	0
22.651	-0.05699085	-0.05572188	0	0	0	0	0	0
22.66789	-0.05699085	-0.05572188	0	0	0	0	0	0
22.68414	-0.05699085	-0.05572188	0	0	0	0	0	0
22.7007	-0.05699085	-0.05572188	0	0	0	0	0	0
22.71727	-0.05699085	-0.05572188	0	0	0	0	0	0
22.73991	-0.05699085	-0.05572188	0	0	0	0	0	0
22.75648	-0.05699085	-0.05572188	0	0	0	0	0	0
22.77304	-0.05701708	-0.05574105	-0.001583414	-0.001157033	-0.04778754	-0.03491931	0	0
22.78961	-0.05704331	-0.05576021	-0.001583232	-0.001156675	5.502335E-06	1.080439E-05	0	0
22.80618	-0.05706954	-0.05577938	-0.001583414	-0.001157033	-5.502335E-06	-1.080439E-05	0	0
22.82274	-0.05706954	-0.05577938	0	0	0.04779029	0.03492132	0	0
22.83931	-0.05704331	-0.05579855	0.001583232	-0.001156899	0.04778203	-0.03491529	0	0
22.85588	-0.05704331	-0.05579855	0	0	-0.04778203	0.03491529	0	0
22.87245	-0.05706954	-0.05581771	-0.001583232	-0.001156675	-0.04778203	-0.03490851	0	0
22.88906	-0.05706954	-0.05581771	0	0	0.0477216	0.03486435	0	0
22.90558	-0.05706954	-0.05581771	0	0	0	0	0	0
22.92215	-0.05706954	-0.05581771	0	0	0	0	0	0
22.93871	-0.05706954	-0.05581771	0	0	0	0	0	0
22.95528	-0.05706954	-0.05581771	0	0	0	0	0	0
22.97185	-0.05706954	-0.05581771	0	0	0	0	0	0
22.98863	-0.05706954	-0.05581771	0	0	0	0	0	0
23.00498	-0.05709577	-0.05583687	-0.0016041	-0.001172148	-0.04841464	-0.03537754	0	0
23.02155	-0.05709577	-0.05583687	0	0	0.04872882	0.03560712	0	0
23.03812	-0.05706954	-0.05585604	0.001583232	-0.001156899	0.04778203	-0.03491529	0	0
23.05468	-0.05706954	-0.05585604	0	0	-0.04778203	0.03491529	0	0
23.07125	-0.05706954	-0.05585604	0	0	0	0	0	0
23.08782	-0.05706954	-0.05585604	0	0	0	0	0	0
23.10471	-0.05706954	-0.05585604	0	0	0	0	0	0
23.12095	-0.05709577	-0.0558752	-0.001615027	-0.001179903	-0.04874441	-0.0356116	0	0
23.13774	-0.05706954	-0.05589437	0.001562722	-0.001141912	0.09622035	0.001150341	0	0
23.15425	-0.05706954	-0.05589437	0	0	-0.04693609	0.03429714	0	0
23.17076	-0.05706954	-0.05589437	0	0	0	0	0	0
23.18727	-0.05706954	-0.05589437	0	0	0	0	0	0
23.20378	-0.05706954	-0.05589437	0	0	0	0	0	0
23.22035	-0.05706954	-0.05589437	0	0	0	0	0	0
23.23692	-0.05706954	-0.05589437	0	0	0	0	0	0
23.25348	-0.05706954	-0.05589437	0	0	0	0	0	0
23.27005	-0.05706954	-0.05589437	0	0	0	0	0	0
23.28662	-0.05706954	-0.05589437	0	0	0	0	0	0
23.30336	-0.05706954	-0.05589437	0	0	0	0	0	0
23.31986	-0.05706954	-0.05589437	0	0	0	0	0	0
23.33632	-0.05706954	-0.05589437	0	0	0	0	0	0
23.35289	-0.05706954	-0.05589437	0	0	0	0	0	0
23.36945	-0.05706954	-0.05589437	0	0	0	0	0	0
23.38602	-0.05709577	-0.05591354	-0.001583232	-0.001156899	-0.04778203	-0.03491529	0	0
23.42578	-0.05706954	-0.0559327	0.0006597243	-0.0004820738	0.03982104	0.01198073	0	0
23.44245	-0.05706954	-0.0559327	0	0	-0.01169046	0.008542451	0	0
23.45897	-0.05709577	-0.05595187	-0.001588536	-0.001160775	-0.0478677	-0.03497789	0	0
23.47548	-0.05709577	-0.05595187	0	0	0.04809992	0.03514758	0	0
23.49205	-0.05709577	-0.05595187	0	0	0	0	0	0
23.52551	-0.057122	-0.05597104	-0.0007838104	-0.000572746	-0.01566629	-0.01144767	0	0
23.54174	-0.057122	-0.05600937	0	-0.002361374	0.01577151	-0.03599003	0	0
23.55831	-0.05714823	-0.05602854	-0.001583232	-0.001156899	-0.04826827	0.03672104	0	0
23.57504	-0.05722692	-0.05608604	-0.004702817	-0.00343628	-0.0936801	-0.06844904	0	0
23.59156	-0.05730561	-0.05614354	-0.004765382	-0.003482325	-0.001881928	-0.001385004	0	0
23.60801	-0.05743676	-0.05623938	-0.007970299	-0.00582451	-0.09721705	-0.07104719	0	0
23.62458	-0.05751544	-0.05629688	-0.004749471	-0.003470923	0.09753602	0.07127346	0	0
23.64114	-0.0575679	-0.05637356	-0.003166968	-0.004629338	0.04776554	-0.03496506	0	0
23.6581	-0.05762036	-0.0564119	-0.003093455	-0.002260669	0.002193015	0.07066087	0	0
23.67461	-0.05764659	-0.05643107	-0.001588536	-0.001161	0.04496302	0.0328552	0	0
23.69084	-0.05767281	-0.05645024	-0.001615936	-0.001181194	-0.0008368707	-0.0006167623	0	0
23.70741	-0.05769904	-0.05646941	-0.001583232	-0.001157124	0.0009971714	0.0007339091	0	0
23.72415	-0.05772527	-0.05648857	-0.001566773	-0.001145035	0.0004941709	0.0003629708	0	0
23.74054	-0.05772527	-0.05648857	0	0	0.0472853	0.03455723	0	0
23.75711	-0.0577515	-0.05650774	-0.001583232	-0.001157124	-0.04803087	-0.03510395	0	0
23.77368	-0.05777773	-0.05652691	-0.001582461	-0.001156725	2.327591E-05	1.205598E-05	0	0
23.79024	-0.05780395	-0.05654608	-0.001583961	-0.001157657	-4.529763E-05	-2.814764E-05	0	0
23.80721	-0.05785641	-0.05658443	-0.003092192	-0.002260126	-0.04499016	-0.03288639	0	0
23.82338	-0.05788264	-0.0566036	-0.001621845	-0.001185513	0.04437516	0.03243188	0	0
23.84023	-0.05790887	-0.05662277	-0.001556355	-0.001137481	0.001983107	0.001454473	0	0
23.85651	-0.05790887	-0.05662277	0	0	0.04697359	0.03433122	0	0
23.87325	-0.05793509	-0.05664194	-0.001566416	-0.001144997	-0.04743563	-0.03467383	0	0
23.88964	-0.05796132	-0.05666111	-0.001600367	-0.001169648	-0.001024699	-0.0007440063	0	0
23.90621	-0.05796132	-0.05666111	0	0	0.04855913	0.03549003	0	0
23.92278	-0.05798755	-0.05668028	-0.001582825	-0.001157216	-0.047767	-0.03492283	0	0
23.93934	-0.05801377	-0.05669945	-0.001583189	-0.001157257	-1.100052E-05	-1.254291E-06	0	0
23.95591	-0.05804	-0.05671862	-0.001583232	-0.001157124	-1.285986E-06	4.019586E-06	0	0
23.97248	-0.05806623	-0.05673779	-0.001583007	-0.001157124	6.784417E-06	0	0	0
23.98905	-0.05806623	-0.05677614	0	-0.002314473	0.04777525	-0.03492886	0	0
24.00561	-0.05811869	-0.05681448	-0.003166239	-0.002314473	-0.09555729	0	0	0
24.02218	-0.05827605	-0.05692951	-0.009498267	-0.00694342	-0.191101	-0.1397019	0	0
24.03875	-0.05848585	-0.0570829	-0.01266551	-0.009259409	-0.09559322	-0.06990071	0	0
24.05531	-0.0595086	-0.05783077	-0.06173323	-0.04514179	-1.480952	-1.082995	0	0
24.07188	-0.06016415	-0.05831028	-0.03956866	-0.02894317	0.6689281	0.4888752	0	0
24.08845	-0.06016415	-0.05831028	0	0	1.194185	0.8735067	0	0
24.10501	-0.06016415	-0.05831028	0	0	0	0	0	0
24.12158	-0.06016415	-0.05831028	0	0	0	0	0	0
24.13815	-0.06016415	-0.05831028	0	0	0	0	0	0
24.15472	-0.06016415	-0.05831028	0	0	0	0	0	0
24.17779	-0.06016415	-0.05831028	0	0	0	0	0	0
24.19436	-0.06016415	-0.05831028	0	0	0	0	0	0
24.211	-0.06016415	-0.05831028	0	0	0	0	0	0
24.22752	-0.06016415	-0.05831028	0	0	0	0	0	0
24.24453	-0.06016415	-0.05831028	0	0	0	0	0	0
24.26062	-0.06016415	-0.05831028	0	0	0	0	0	0
24.27719	-0.06016415	-0.05831028	0	0	0	0	0	0
24.29376	-0.06016415	-0.05831028	0	0	0	0	0	0
24.31032	-0.06016415	-0.05831028	0	0	0	0	0	0
24.32689	-0.06016415	-0.05831028	0	0	0	0	0	0
24.3436	-0.06016415	-0.05831028	0	0	0	0	0	0
24.36002	-0.06016415	-0.05831028	0	0	0	0	0	0
24.39316	-0.06016415	-0.05831028	0	0	0	0	0	0
24.40972	-0.06016415	-0.05831028	0	0	0	0	0	0
24.42629	-0.06016415	-0.05831028	0	0	0	0	0	0
24.44286	-0.06016415	-0.05831028	0	0	0	0	0	0
24.45968	-0.06016415	-0.05831028	0	0	0	0	0	0
24.47619	-0.06016415	-0.05831028	0	0	0	0	0	0
24.49256	-0.06016415	-0.05831028	0	0	0	0	0	0
24.50913	-0.06016415	-0.05831028	0	0	0	0	0	0
24.52569	-0.06016415	-0.05831028	0	0	0	0	0	0
24.54226	-0.06016415	-0.05831028	0	0	0	0	0	0
24.55883	-0.06016415	-0.05831028	0	0	0	0	0	0
24.57539	-0.06016415	-0.05831028	0	0	0	0	0	0
24.59196	-0.06016415	-0.05831028	0	0	0	0	0	0
24.60853	-0.06016415	-0.05831028	0	0	0	0	0	0
24.62509	-0.06016415	-0.05831028	0	0	0	0	0	0
24.64166	-0.06016415	-0.05831028	0	0	0	0	0	0
24.65832	-0.06016415	-0.05831028	0	0	0	0	0	0
24.67479	-0.06016415	-0.05831028	0	0	0	0	0	0
24.69136	-0.06016415	-0.05831028	0	0	0	0	0	0
24.70793	-0.06016415	-0.05831028	0	0	0	0	0	0
24.72449	-0.06016415	-0.05831028	0	0	0	0	0	0
24.74106	-0.06016415	-0.05831028	0	0	0	0	0	0
24.7579	-0.06016415	-0.05831028	0	0	0	0	0	0
24.7742	-0.06016415	-0.05831028	0	0	0	0	0	0
24.79076	-0.06016415	-0.05831028	0	0	0	0	0	0
24.80743	-0.06016415	-0.05831028	0	0	0	0	0	0
24.82395	-0.06016415	-0.05831028	0	0	0	0	0	0
24.84047	-0.06016415	-0.05831028	0	0	0	0	0	0
24.85703	-0.06016415	-0.05831028	0	0	0	0	0	0
24.87398	-0.06016415	-0.05831028	0	0	0	0	0	0
24.89016	-0.06013792	-0.0582911	0.001620086	0.001185086	0.0488971	0.03576803	0	0
24.90673	-0.06008548	-0.05825274	0.00316534	0.002315598	0.04717902	0.03451628	0	0
24.92938	-0.05961349	-0.05783077	0.02084041	0.0186315	0.4507211	0.4160619	0	0
24.94595	-0.05759413	-0.05627771	0.121875	0.09373201	2.576297	1.914999	0	0
24.96251	-0.05562676	-0.05476381	0.1187639	0.09139028	-0.09389324	-0.07067362	0	0
24.97908	-0.04791068	-0.04902195	0.4657441	0.3465792	10.47248	7.702059	0	0
24.99565	-0.04510098	-0.04690031	0.1695938	0.1280624	-8.937833	-6.594851	0	0
25.07848	0.05866943	0.02949172	1.252719	0.9222065	10.89626	7.989105	0	0
25.09514	0.08429974	0.04768153	1.539075	1.09228	2.878264	1.709465	0	0
25.11165	0.09562848	0.05573386	0.6860152	0.4876115	-25.72023	-18.23108	0	0
25.17006	0.1489672	0.09373873	0.9132566	0.6507136	3.033172	2.177054	0	0
25.1867	0.1573721	0.09974094	0.5048792	0.3605503	-5.441241	-3.866151	0	0
25.20319	0.1644487	0.1048742	0.4292248	0.3113508	-2.283257	-1.484843	0	0
25.21976	0.171841	0.110496	0.4461958	0.3393342	0.5134268	0.8465874	0	0
25.23633	0.1750325	0.1137709	0.192595	0.1976235	-7.652804	-4.276345	0	0
25.25289	0.1747518	0.1171897	-0.01694747	0.2064087	-6.324006	0.265137	0	0
25.26946	0.1719176	0.119291	-0.1710897	0.1268504	-4.652825	-2.40149	0	0
25.28602	0.1656522	0.1238743	-0.3781813	0.2766472	-6.250397	4.521137	0	0
25.30259	0.1601944	0.1277605	-0.3294319	0.2345688	1.47126	-1.269926	0	0
25.31916	0.154393	0.1318806	-0.3501738	0.2486913	-0.6259912	0.4262175	0	0
25.33581	0.1533394	0.1326277	-0.06327499	0.04486863	8.636747	-6.13584	0	0
25.35233	0.1494561	0.1354512	-0.2351266	0.1709574	-5.18142	3.801647	0	0
25.36886	0.1411859	0.1413666	-0.5001685	0.3577555	-8.019293	5.651894	0	0
25.38543	0.1373404	0.1441128	-0.2321138	0.1657615	8.09783	-5.800066	0	0
25.40199	0.1293009	0.1500553	-0.485269	0.3586878	-7.64024	5.822527	0	0
25.41887	0.1253136	0.1529243	-0.2362672	0.1700066	7.445459	-5.641798	0	0
25.43538	0.1180278	0.1581685	-0.4412429	0.3176006	-6.139178	4.420552	0	0
25.4519	0.1174569	0.1586038	-0.03457469	0.0263602	12.31367	-8.818589	0	0
25.46826	0.1136658	0.1613237	-0.2316534	0.1662005	-5.994082	4.253195	0	0
25.48483	0.111899	0.1625563	-0.1066448	0.07440043	3.795929	-2.787539	0	0
25.5014	0.111899	0.1625563	0	0	3.218545	-2.245409	0	0
25.51796	0.111899	0.1625563	0	0	0	0	0	0
25.53453	0.111925	0.1625382	0.001568616	-0.001094613	0.04734093	-0.0330355	0	0
25.5511	0.111925	0.1625382	0	0	-0.04734093	0.0330355	0	0
25.56798	0.111925	0.1625382	0	0	0	0	0	0
25.58449	0.111925	0.162502	0	-0.002194756	0	-0.06572333	0	0
25.6008	0.111951	0.1624838	0.001593567	-0.001112025	0.04855513	0.03299022	0	0
25.61737	0.111977	0.1624657	0.001568616	-0.001093714	-0.0007589663	0.000556983	0	0
25.63403	0.111977	0.1624657	0	0	-0.04720777	0.03291551	0	0
25.65553	0.111977	0.1624657	0	0	0	0	0	0
25.6721	0.111977	0.1624657	0	0	0	0	0	0
25.68866	0.111951	0.1624838	-0.001568616	0.001093714	-0.04734093	0.03300836	0	0
25.70523	0.111951	0.1624838	0	0	0.04734093	-0.03300836	0	0
25.7218	0.111951	0.1624838	0	0	0	0	0	0
25.7386	0.111951	0.1624838	0	0	0	0	0	0
25.75493	0.111977	0.1624657	0.00159152	-0.001109683	0.04803216	-0.03349031	0	0
25.77163	0.111977	0.1624657	0	0	-0.04819306	0.0336025	0	0
25.78814	0.111977	0.1624657	0	0	0	0	0	0
25.8212	0.111977	0.1624657	0	0	0	0	0	0
25.83777	0.111977	0.1624657	0	0	0	0	0	0
25.85433	0.111977	0.1624657	0	0	0	0	0	0
25.8709	0.111977	0.1624657	0	0	0	0	0	0
25.88771	0.112003	0.1624476	0.001546012	-0.001077953	0.04632009	-0.03229658	0	0
25.90422	0.112003	0.1624476	0	0	-0.04639698	0.03235019	0	0
25.92073	0.112029	0.1624295	0.001573871	-0.00109828	0.04765864	-0.0332572	0	0
25.93717	0.1120809	0.1623932	0.003163088	-0.002205456	0.04824035	-0.03360808	0	0
25.95376	0.1121069	0.1623751	0.001566003	-0.001093103	-0.04836437	0.03368526	0	0
25.9703	0.1121069	0.1623751	0	0	-0.04725934	0.03298802	0	0
25.98687	0.1121069	0.1623751	0	0	0	0	0	0
26.00343	0.1120809	0.162357	-0.001568166	-0.001093714	-0.0473328	-0.03301216	0	0
26.02	0.1120809	0.162357	0	0	0.04732736	0.03300836	0	0
26.03657	0.1120809	0.162357	0	0	0	0	0	0
26.05313	0.1120809	0.162357	0	0	0	0	0	0
26.06984	0.1120809	0.162357	0	0	0	0	0	0
26.10283	0.1120809	0.162357	0	0	0	0	0	0
26.1194	0.1120809	0.162357	0	0	0	0	0	0
26.13597	0.1120809	0.162357	0	0	0	0	0	0
26.15254	0.112055	0.1623388	-0.001568616	-0.001094613	-0.04734093	-0.0330355	0	0
26.1691	0.112055	0.1623388	0	0	0.04734093	0.0330355	0	0
26.18567	0.112055	0.1623388	0	0	0	0	0	0
26.20224	0.112055	0.1623388	0	0	0	0	0	0
26.21895	0.112029	0.1623207	-0.001555188	-0.001084351	-0.04673658	-0.03258697	0	0
26.23537	0.112003	0.1623026	-0.001582095	-0.001103112	-0.0008120068	-0.0005661693	0	0
26.25197	0.111977	0.1622844	-0.001565372	-0.00109235	0.0005063176	0.0003258522	0	0
26.2685	0.111925	0.1622482	-0.003144836	-0.002192729	-0.04767653	-0.03321526	0	0
26.28507	0.111873	0.162212	-0.003136871	-0.002188076	0.0002406443	0.0001406144	0	0
26.30164	0.1117431	0.1621213	-0.007843984	-0.005470999	-0.142061	-0.09907883	0	0
26.3182	0.1105215	0.1612331	-0.073738	-0.05361447	-1.9888	-1.453057	0	0
26.33477	0.1074269	0.1588577	-0.1867863	-0.1433755	-3.411804	-2.708992	0	0
26.35154	0.1000855	0.1531966	-0.4377363	-0.3375466	-7.527324	-5.824222	0	0
26.38962	0.08680761	0.1410391	-0.3487001	-0.3192767	1.623278	0.3330906	0	0
26.40644	0.07485985	0.1208253	-0.7102116	-1.201571	-6.584774	-16.0706	0	0
26.42275	0.0702788	0.09851177	-0.280911	-1.368273	12.95781	-5.031671	0	0
26.43932	0.06818362	0.07975732	-0.1264656	-1.132021	4.697949	7.186361	0	0
26.45588	0.06671663	0.06661733	-0.08854766	-0.7931311	1.144367	10.22772	0	0
26.47263	0.06362453	0.04050555	-0.1846831	-1.559591	-2.886089	-23.00996	0	0
26.48902	0.06147507	0.02166302	-0.1311305	-1.149513	1.616221	12.3762	0	0
26.50565	0.05796132	-0.001420524	-0.2112876	-1.388052	-2.427391	-7.223665	0	0
26.52215	0.05536442	-0.0171067	-0.1573656	-0.9505405	1.627463	13.20488	0	0
26.53872	0.05027339	-0.0344875	-0.3072947	-1.049107	-4.533743	-2.980568	0	0
26.55529	0.04686041	-0.04165053	-0.2060081	-0.4323615	3.056835	18.61341	0	0
26.57185	0.03971595	-0.04928965	-0.4312406	-0.4610983	-6.797529	-0.8672774	0	0
26.58842	0.02744048	-0.0570829	-0.7408633	-0.4703472	-9.343895	-0.2791176	0	0
26.60499	0.0242321	-0.05946143	-0.1936805	-0.1435849	16.51401	9.861706	0	0
26.62156	0.02162821	-0.06105461	-0.1571712	-0.09616476	1.101915	1.431226	0	0
26.63825	0.02123365	-0.06115061	-0.02363319	-0.005750261	4.014703	2.718231	0	0
26.65469	0.02112843	-0.06107381	-0.006400173	0.004671728	0.5200935	0.3145363	0	0
26.67126	0.02104952	-0.06101621	-0.004763187	0.003476769	0.04959559	-0.03620356	0	0
26.68782	0.02104952	-0.06101621	0	0	0.1437533	-0.1049291	0	0
26.70439	0.02104952	-0.06105461	0	-0.002317846	0	-0.06995274	0	0
26.72096	0.02102322	-0.06103541	-0.001587729	0.001158923	-0.04791776	0.1049291	0	0
26.73753	0.02099691	-0.06105461	-0.001587729	-0.001158923	0	-0.06995274	0	0
26.75409	0.02099691	-0.06105461	0	0	0.04791776	0.03497637	0	0
26.77085	0.02099691	-0.06105461	0	0	0	0	0	0
26.78722	0.02102322	-0.06107381	0.001606034	-0.001172284	0.04847579	-0.03538369	0	0
26.80387	0.02102322	-0.06107381	0	0	-0.04863539	0.03550018	0	0
26.82038	0.02102322	-0.06107381	0	0	0	0	0	0
26.83692	0.02099691	-0.06105461	-0.001589742	0.001160393	-0.04809203	0.03510357	0	0
26.85349	0.02099691	-0.06105461	0	0	0.04800892	-0.03504291	0	0
26.87006	0.02099691	-0.06105461	0	0	0	0	0	0
26.88662	0.02097061	-0.06107381	-0.001587729	-0.001158923	-0.04792052	-0.03497838	0	0
26.90319	0.02097061	-0.06107381	0	0	0.047915	0.03497436	0	0
26.91976	0.0209443	-0.06105461	-0.001587912	0.001159057	-0.04792328	0.0349804	0	0
26.93649	0.020918	-0.06103541	-0.001572163	0.001147561	0.0004729849	-0.0003452435	0	0
26.95297	0.0208917	-0.06105461	-0.001595998	-0.001164958	-0.0007176301	-0.06962765	0	0
26.96948	0.02083909	-0.06105461	-0.003186096	0	-0.04819455	0.03530892	0	0
26.98602	0.02073387	-0.06113141	-0.00636117	-0.004643176	-0.0960617	-0.1404791	0	0
27.00259	0.02060235	-0.06122742	-0.007937845	-0.005794398	-0.04761979	-0.03476996	0	0
27.01916	0.02052343	-0.06128503	-0.004763736	-0.003477395	0.0957948	0.0699273	0	0
27.03572	0.02036561	-0.06140024	-0.0095266	-0.006954213	-0.1437518	-0.1049366	0	0
27.05229	0.01994472	-0.0617075	-0.02540445	-0.01854614	-0.4791946	-0.3498451	0	0
27.07349	0.01976059	-0.06184193	-0.008685651	-0.006341374	0.442678	0.3231561	0	0
27.09008	0.01955014	-0.06199558	-0.01268498	-0.009261513	-0.1058296	-0.07727218	0	0
27.10663	0.01910294	-0.06232211	-0.02702742	-0.01973433	-0.4328308	-0.316052	0	0
27.12319	0.01910294	-0.06232211	0	0	0.8162531	0.5959949	0	0
27.14011	0.01910294	-0.06232211	0	0	0	0	0	0
27.15633	0.01910294	-0.06232211	0	0	0	0	0	0
27.17289	0.01910294	-0.06232211	0	0	0	0	0	0
27.18964	0.01910294	-0.06232211	0	0	0	0	0	0
27.20603	0.01912924	-0.06234132	0.0016054	-0.001172421	0.04845107	-0.03538373	0	0
27.22267	0.01910294	-0.06236053	-0.001581107	-0.001154455	-0.09649112	0.0005440181	0	0
27.23916	0.01910294	-0.06236053	0	0	0.04771789	0.03484153	0	0
27.25573	0.01907663	-0.06237974	-0.001588024	-0.001159731	-0.04803174	-0.03507749	0	0
27.27229	0.01907663	-0.06237974	0	0	0.04792943	0.03500277	0	0
27.28886	0.01907663	-0.06237974	0	0	0	0	0	0
27.30543	0.01905033	-0.06239895	-0.001587842	-0.001159373	-0.04792115	-0.03498994	0	0
27.32199	0.01905033	-0.06239895	0	0	0.04792392	0.03499196	0	0
27.33856	0.01902402	-0.06241816	-0.001587842	-0.001159373	-0.04792392	-0.03499196	0	0
27.35526	0.01902402	-0.06245658	0	-0.002300917	0.04773157	-0.03431559	0	0
27.3717	0.01902402	-0.06245658	0	0	0	0.06944183	0	0
27.38829	0.01899771	-0.06247579	-0.001585651	-0.001157773	-0.04801258	-0.0350567	0	0
27.40483	0.01897141	-0.062495	-0.001590038	-0.001161202	-0.0001324103	-0.0001034773	0	0
27.4214	0.0189451	-0.06251421	-0.001587842	-0.001159373	6.634057E-05	5.524103E-05	0	0
27.43797	0.0189451	-0.06251421	0	0	0.04792115	0.03498994	0	0
27.45483	0.0189188	-0.06253342	-0.001559475	-0.001139102	-0.04664083	-0.03406831	0	0
27.47135	0.0189188	-0.06253342	0	0	0.04671812	0.03412477	0	0
27.48767	0.0189188	-0.06253342	0	0	0	0	0	0
27.50423	0.01889249	-0.06255263	-0.001587842	-0.001159373	-0.04828247	-0.03525376	0	0
27.5208	0.0189188	-0.06257184	0.001587842	-0.001159373	0.09584231	0	0	0
27.53739	0.0189188	-0.06257184	0	0	-0.04788532	0.03496378	0	0
27.55393	0.0189188	-0.06257184	0	0	0	0	0	0
27.5705	0.0189188	-0.06257184	0	0	0	0	0	0
27.58706	0.0189188	-0.06257184	0	0	0	0	0	0
27.70351	0.01886618	-0.06257184	-0.0004518261	0	-0.003396911	0	0	0
27.7196	0.01886618	-0.06257184	0	0	0.003409133	0	0	0
27.73616	0.01886618	-0.06257184	0	0	0	0	0	0
27.75304	0.01886618	-0.06257184	0	0	0	0	0	0
27.7693	0.01886618	-0.06257184	0	0	0	0	0	0
27.78586	0.01886618	-0.06257184	0	0	0	0	0	0
27.80259	0.01886618	-0.06257184	0	0	0	0	0	0
27.8191	0.01886618	-0.06257184	0	0	0	0	0	0
27.8356	0.01886618	-0.06257184	0	0	0	0	0	0
27.89282	0.01886618	-0.06257184	0	0	0	0	0	0
27.90965	0.01886618	-0.06257184	0	0	0	0	0	0
27.92596	0.01886618	-0.06257184	0	0	0	0	0	0
27.94253	0.01889249	-0.06259105	0.00158839	-0.001160223	0.04832157	-0.03529599	0	0
27.95909	0.01889249	-0.06259105	0	0	-0.04794599	0.03502166	0	0
27.98015	0.01889249	-0.06259105	0	0	0	0	0	0
27.99672	0.01889249	-0.06259105	0	0	0	0	0	0
28.01328	0.01886618	-0.06257184	-0.001588024	0.001159956	-0.04792667	0.03500754	0	0
28.02985	0.01886618	-0.06257184	0	0	0.04792943	-0.03500956	0	0
28.04641	0.01886618	-0.06257184	0	0	0	0	0	0
28.06326	0.01886618	-0.06257184	0	0	0	0	0	0
28.07955	0.01886618	-0.06257184	0	0	0	0	0	0
28.09612	0.01886618	-0.06257184	0	0	0	0	0	0
28.1128	0.01886618	-0.06257184	0	0	0	0	0	0
28.12925	0.01886618	-0.06257184	0	0	0	0	0	0
28.14581	0.01886618	-0.06257184	0	0	0	0	0	0
28.16283	0.01886618	-0.06257184	0	0	0	0	0	0
28.17895	0.01886618	-0.06257184	0	0	0	0	0	0
28.19551	0.01886618	-0.06257184	0	0	0	0	0	0
28.21237	0.01889249	-0.06259105	0.00156071	-0.001140004	0.04669642	-0.03410892	0	0
28.22865	0.01889249	-0.06259105	0	0	-0.04710503	0.03440738	0	0
28.24522	0.01889249	-0.06259105	0	0	0	0	0	0
28.26191	0.01889249	-0.06259105	0	0	0	0	0	0
28.27835	0.01886618	-0.06261026	-0.001600185	-0.001168385	-0.04829923	-0.035266	0	0
28.29491	0.01886618	-0.06261026	0	0	0.04848065	0.03539846	0	0
28.31148	0.01889249	-0.06262948	0.001587842	-0.001159823	0.04792115	-0.03500351	0	0
28.32805	0.01889249	-0.06262948	0	0	-0.04792115	0.03500351	0	0
28.34462	0.01889249	-0.06262948	0	0	0	0	0	0
28.36147	0.01889249	-0.06262948	0	0	0	0	0	0
28.37775	0.01886618	-0.06261026	-0.001616502	0.001180757	-0.04878893	0.03563737	0	0
28.39432	0.01886618	-0.06261026	0	0	0.04922247	-0.03595404	0	0
28.44404	0.01886618	-0.06261026	0	0	0	0	0	0
28.46058	0.01889249	-0.06262948	0.001590222	-0.001161561	0.02399718	-0.01752849	0	0
28.47715	0.01886618	-0.06261026	-0.001588024	0.001159956	-0.09599702	0.07012004	0	0
28.49372	0.01883988	-0.06262948	-0.001587954	-0.001159823	2.125742E-06	-0.0700151	0	0
28.51028	0.01883988	-0.06262948	0	0	0.04792455	0.03500351	0	0
28.52709	0.01883988	-0.06262948	0	0	0	0	0	0
28.54342	0.01881357	-0.06261026	-0.001611214	0.001176895	-0.04862094	0.03551466	0	0
28.55998	0.01878726	-0.06259105	-0.001588207	0.00115964	0.0006994974	-0.0005246178	0	0
28.57655	0.01868204	-0.06259105	-0.006351479	0	-0.1437724	-0.03500203	0	0
28.59312	0.01860312	-0.06257184	-0.004763637	0.001159823	0.04792115	0.03500351	0	0
28.60969	0.01839266	-0.06245658	-0.01270296	0.006956912	-0.2396092	0.1749565	0	0
28.62625	0.01820851	-0.06232211	-0.01111662	0.008117444	0.04787849	0.03502695	0	0
28.6432	0.01720883	-0.06166909	-0.05898965	0.03853383	-1.428529	0.9076234	0	0
28.68921	0.01384122	-0.05925035	-0.07319138	0.05256872	-0.2255755	0.2229255	0	0
28.74809	-0.007420917	-0.04390203	-0.3610755	0.2606466	-2.744457	1.983648	0	0
28.76477	-0.01281509	-0.04002974	-0.3235441	0.2322612	0.4967242	-0.3756774	0	0
28.78123	-0.01791913	-0.03633378	-0.3101159	0.2245618	0.4053118	-0.2323947	0	0
28.79779	-0.02304855	-0.03262331	-0.3096121	0.2239647	0.01525411	-0.01808087	0	0
28.81436	-0.02578376	-0.03064623	-0.1650975	0.1193366	4.361459	-3.157683	0	0
28.83093	-0.02707233	-0.02971517	-0.07777838	0.05619934	2.635297	-1.905486	0	0
28.8475	-0.02738789	-0.02948719	-0.01904482	0.01375889	1.77248	-1.280782	0	0
28.86406	-0.02738789	-0.02948719	0	0	0.5747739	-0.415244	0	0
28.88063	-0.0273353	-0.02948719	0.003174447	0	0.0958105	0	0	0
28.8972	-0.0273353	-0.02948719	0	0	-0.09580499	0	0	0
28.91388	-0.0273353	-0.02948719	0	0	0	0	0	0
28.93033	-0.027309	-0.02950619	0.001598135	-0.00115451	0.04823181	-0.0348432	0	0
28.9469	-0.027309	-0.02950619	0	0	-0.04839617	0.03496194	0	0
28.96346	-0.027309	-0.02950619	0	0	0	0	0	0
28.98003	-0.0272827	-0.02952519	0.001587279	-0.001146668	0.04790419	-0.03460652	0	0
28.9966	-0.02725641	-0.02954418	0.001587167	-0.001146668	-3.393965E-06	0	0	0
29.01317	-0.02723011	-0.02956318	0.001587279	-0.001146668	3.393965E-06	0	0	0
29.02973	-0.02720381	-0.02958218	0.001587279	-0.001146781	0	-3.393965E-06	0	0
29.04647	-0.02715122	-0.02962017	0.00314225	-0.002270077	0.04668989	-0.03372834	0	0
29.06287	-0.02712492	-0.02963917	0.001603712	-0.001158653	-0.04643317	0.03354284	0	0
29.07943	-0.02709863	-0.02965817	0.001587462	-0.0011468	-0.0004929608	0.0003595678	0	0
29.096	-0.02707233	-0.02967717	0.001586914	-0.001146517	-1.654375E-05	8.558201E-06	0	0
29.16227	-0.02688826	-0.02981016	0.002777951	-0.002007012	0.01437856	-0.01038815	0	0
29.17883	-0.02686196	-0.02982916	0.001587462	-0.001146913	-0.01437293	0.01038409	0	0
29.19558	-0.02683566	-0.02984816	0.001570644	-0.001134762	-0.0005049424	0.0003648129	0	0
29.21209	-0.02680936	-0.02986716	0.001592413	-0.001150489	0.0006545807	-0.0004729244	0	0
29.2286	-0.02680936	-0.02986716	0	0	-0.0482201	0.03483815	0	0
29.2451	-0.02678307	-0.02988616	0.001593517	-0.001151287	0.04827027	-0.0348744	0	0
29.26167	-0.02675677	-0.02986716	0.001587279	0.001146781	-0.0001886183	0.06949184	0	0
29.27823	-0.02673047	-0.02988616	0.001587462	-0.001146913	5.516389E-06	-0.06922779	0	0
29.2948	-0.02670418	-0.02990516	0.001587279	-0.001146893	-5.516389E-06	5.938024E-07	0	0
29.31166	-0.02665158	-0.02994316	0.003120072	-0.002254226	0.04585852	-0.03312951	0	0
29.32793	-0.02607304	-0.03036118	0.0355472	-0.02568452	0.9787089	-0.7071684	0	0
29.34468	-0.0243373	-0.0316156	0.1036358	-0.07489782	2.061803	-1.490236	0	0
29.36107	-0.02362718	-0.03209089	0.04333682	-0.02900587	-1.819828	1.385022	0	0
29.37771	-0.02360088	-0.03207188	0.001580589	0.001142681	-1.264354	0.9128804	0	0
29.39422	-0.02360088	-0.03207188	0	0	-0.04768033	-0.03447031	0	0
29.41077	-0.02360088	-0.03207188	0	0	0	0	0	0
29.42733	-0.02357458	-0.03205287	0.001587504	0.001147455	0.04793857	0.03465021	0	0
29.44425	-0.02354828	-0.03203386	0.001554683	0.001123873	-0.0009801643	-0.0007042684	0	0
29.46047	-0.02352198	-0.03201484	0.001622052	0.001172656	0.002033309	0.001472377	0	0
29.47703	-0.02349568	-0.03199583	0.001587504	0.00114768	-0.001053869	-0.0007618901	0	0
29.54983	-0.02341677	-0.03190077	0.001083983	0.001305887	-0.005634792	0.001770462	0	0
29.56636	-0.02341677	-0.03190077	0	0	-0.01213528	-0.01461952	0	0
29.58335	-0.02341677	-0.03190077	0	0	0	0	0	0
29.59949	-0.02341677	-0.03190077	0	0	0	0	0	0
29.61606	-0.02341677	-0.03190077	0	0	0	0	0	0
29.63262	-0.02341677	-0.03190077	0	0	0	0	0	0
29.64919	-0.02341677	-0.03190077	0	0	0	0	0	0
29.66591	-0.02341677	-0.03190077	0	0	0	0	0	0
29.68242	-0.02341677	-0.03190077	0	0	0	0	0	0
29.69893	-0.02341677	-0.03190077	0	0	0	0	0	0
29.71546	-0.02341677	-0.03190077	0	0	0	0	0	0
29.73203	-0.02341677	-0.03190077	0	0	0	0	0	0
29.74859	-0.02341677	-0.03190077	0	0	0	0	0	0
29.76516	-0.02341677	-0.03190077	0	0	0	0	0	0
29.782	-0.02341677	-0.03190077	0	0	0	0	0	0
29.7985	-0.02341677	-0.03190077	0	0	0	0	0	0
29.81486	-0.02341677	-0.03190077	0	0	0	0	0	0
29.83153	-0.02341677	-0.03190077	0	0	0	0	0	0
29.84799	-0.02341677	-0.03190077	0	0	0	0	0	0
29.86456	-0.02341677	-0.03190077	0	0	0	0	0	0
29.88113	-0.02341677	-0.03190077	0	0	0	0	0	0
29.89769	-0.02341677	-0.03190077	0	0	0	0	0	0
29.91426	-0.02341677	-0.03190077	0	0	0	0	0	0
29.93083	-0.02341677	-0.03190077	0	0	0	0	0	0
29.94761	-0.02339047	-0.03191978	0.001566761	-0.001132462	0.04697397	-0.033953	0	0
29.96396	-0.02339047	-0.03191978	0	0	-0.04728493	0.03417777	0	0
29.98053	-0.02339047	-0.03191978	0	0	0	0	0	0
29.9971	-0.02339047	-0.03191978	0	0	0	0	0	0
30.01366	-0.02339047	-0.03191978	0	0	0	0	0	0
30.03023	-0.02339047	-0.03191978	0	0	0	0	0	0
30.0468	-0.02339047	-0.03191978	0	0	0	0	0	0
30.0637	-0.02339047	-0.03191978	0	0	0	0	0	0
30.07993	-0.02339047	-0.03191978	0	0	0	0	0	0
30.0965	-0.02339047	-0.03191978	0	0	0	0	0	0
30.11306	-0.02339047	-0.03191978	0	0	0	0	0	0
30.12974	-0.02339047	-0.03191978	0	0	0	0	0	0
30.14625	-0.02339047	-0.03191978	0	0	0	0	0	0
30.16277	-0.02339047	-0.03191978	0	0	0	0	0	0
30.17933	-0.02339047	-0.03191978	0	0	0	0	0	0
30.1959	-0.02339047	-0.03191978	0	0	0	0	0	0
30.2128	-0.02339047	-0.03191978	0	0	0	0	0	0
30.22903	-0.02339047	-0.03191978	0	0	0	0	0	0
30.25194	-0.02339047	-0.03191978	0	0	0	0	0	0
30.26851	-0.02339047	-0.03191978	0	0	0	0	0	0
30.28508	-0.02339047	-0.03191978	0	0	0	0	0	0
30.30164	-0.02339047	-0.03191978	0	0	0	0	0	0
30.31837	-0.02339047	-0.03191978	0	0	0	0	0	0
30.33478	-0.02339047	-0.03191978	0	0	0	0	0	0
30.35139	-0.02339047	-0.03191978	0	0	0	0	0	0
30.36791	-0.02339047	-0.03191978	0	0	0	0	0	0
30.38447	-0.02339047	-0.03191978	0	0	0	0	0	0
30.40104	-0.02339047	-0.03191978	0	0	0	0	0	0
30.41761	-0.02339047	-0.03191978	0	0	0	0	0	0
30.43445	-0.02339047	-0.03191978	0	0	0	0	0	0
30.45097	-0.02339047	-0.03191978	0	0	0	0	0	0
30.48399	-0.02339047	-0.03191978	0	0	0	0	0	0
30.50044	-0.02339047	-0.03191978	0	0	0	0	0	0
30.51702	-0.02339047	-0.03191978	0	0	0	0	0	0
30.53358	-0.02339047	-0.03191978	0	0	0	0	0	0
30.55014	-0.02339047	-0.03191978	0	0	0	0	0	0
30.60546	-0.02339047	-0.03191978	0	0	0	0	0	0
30.62209	-0.02339047	-0.03191978	0	0	0	0	0	0
30.65516	-0.02339047	-0.03191978	0	0	0	0	0	0
30.67173	-0.02339047	-0.03191978	0	0	0	0	0	0
30.6883	-0.02339047	-0.03191978	0	0	0	0	0	0
30.70486	-0.02339047	-0.03191978	0	0	0	0	0	0
30.72143	-0.02339047	-0.03191978	0	0	0	0	0	0
30.738	-0.02339047	-0.03191978	0	0	0	0	0	0
30.75457	-0.02339047	-0.03191978	0	0	0	0	0	0
30.77113	-0.02339047	-0.03191978	0	0	0	0	0	0
30.7877	-0.02339047	-0.03191978	0	0	0	0	0	0
30.80427	-0.02339047	-0.03191978	0	0	0	0	0	0
30.82083	-0.02339047	-0.03191978	0	0	0	0	0	0
30.8374	-0.02339047	-0.03191978	0	0	0	0	0	0
30.85397	-0.02339047	-0.03191978	0	0	0	0	0	0
30.87053	-0.02339047	-0.03191978	0	0	0	0	0	0
30.89278	-0.02339047	-0.03191978	0	0	0	0	0	0
30.90935	-0.02341677	-0.0319388	-0.001587504	-0.00114768	-0.04090174	-0.02956976	0	0
30.92591	-0.02341677	-0.0319388	0	0	0.04790822	0.03463506	0	0
30.94248	-0.02341677	-0.0319388	0	0	0	0	0	0
30.95905	-0.02341677	-0.0319388	0	0	0	0	0	0
30.97561	-0.02341677	-0.0319388	0	0	0	0	0	0
30.99236	-0.02341677	-0.0319388	0	0	0	0	0	0
31.00875	-0.02341677	-0.0319388	0	0	0	0	0	0
31.02531	-0.02341677	-0.0319388	0	0	0	0	0	0
31.04188	-0.02341677	-0.0319388	0	0	0	0	0	0
31.05844	-0.02341677	-0.0319388	0	0	0	0	0	0
31.07501	-0.02341677	-0.0319388	0	0	0	0	0	0
31.09192	-0.02341677	-0.0319388	0	0	0	0	0	0
31.10844	-0.02341677	-0.0319388	0	0	0	0	0	0
31.12471	-0.02341677	-0.0319388	0	0	0	0	0	0
31.14128	-0.02341677	-0.0319388	0	0	0	0	0	0
31.15784	-0.02341677	-0.0319388	0	0	0	0	0	0
31.17448	-0.02341677	-0.0319388	0	0	0	0	0	0
31.19099	-0.02341677	-0.0319388	0	0	0	0	0	0
31.20754	-0.02341677	-0.0319388	0	0	0	0	0	0
31.22411	-0.02341677	-0.0319388	0	0	0	0	0	0
31.24068	-0.02341677	-0.0319388	0	0	0	0	0	0
31.25754	-0.02341677	-0.0319388	0	0	0	0	0	0
31.27405	-0.02341677	-0.0319388	0	0	0	0	0	0
31.29056	-0.02341677	-0.0319388	0	0	0	0	0	0
31.37321	-0.02341677	-0.0319388	0	0	0	0	0	0
31.38977	-0.02341677	-0.0319388	0	0	0	0	0	0
31.40634	-0.02341677	-0.0319388	0	0	0	0	0	0
31.42316	-0.02341677	-0.0319388	0	0	0	0	0	0
31.43967	-0.02341677	-0.0319388	0	0	0	0	0	0
31.45604	-0.02341677	-0.0319388	0	0	0	0	0	0
31.47261	-0.02341677	-0.0319388	0	0	0	0	0	0
31.48918	-0.02341677	-0.0319388	0	0	0	0	0	0
31.50574	-0.02341677	-0.0319388	0	0	0	0	0	0
31.52231	-0.02341677	-0.0319388	0	0	0	0	0	0
31.53888	-0.02341677	-0.0319388	0	0	0	0	0	0
31.55545	-0.02341677	-0.0319388	0	0	0	0	0	0
31.57201	-0.02341677	-0.0319388	0	0	0	0	0	0
31.58858	-0.02341677	-0.0319388	0	0	0	0	0	0
31.60515	-0.02341677	-0.0319388	0	0	0	0	0	0
31.62172	-0.02344307	-0.03195781	-0.001587617	-0.001147455	-0.04791437	-0.03463027	0	0
31.63828	-0.02344307	-0.03195781	0	0	0.04791713	0.03463226	0	0
31.65485	-0.02344307	-0.03195781	0	0	0	0	0	0
31.69333	-0.02344307	-0.03195781	0	0	0	0	0	0
31.70989	-0.02344307	-0.03195781	0	0	0	0	0	0
31.72646	-0.02346937	-0.03197682	-0.001587504	-0.00114768	-0.04791097	-0.03463706	0	0
31.74303	-0.02346937	-0.03197682	0	0	0.04791097	0.03463706	0	0
31.7599	-0.02349568	-0.03195781	-0.001558725	0.001126794	-0.04661043	0.03369445	0	0
31.77616	-0.02349568	-0.03195781	0	0	0.04704512	-0.03400868	0	0
31.79273	-0.02349568	-0.03195781	0	0	0	0	0	0
31.80943	-0.02349568	-0.03195781	0	0	0	0	0	0
31.82595	-0.02349568	-0.03195781	0	0	0	0	0	0
31.859	-0.02349568	-0.03195781	0	0	0	0	0	0
31.87556	-0.02349568	-0.03195781	0	0	0	0	0	0
31.89249	-0.02349568	-0.03195781	0	0	0	0	0	0
31.90901	-0.02349568	-0.03195781	0	0	0	0	0	0
31.92526	-0.02349568	-0.03195781	0	0	0	0	0	0
31.94183	-0.02349568	-0.03195781	0	0	0	0	0	0
31.95854	-0.02344307	-0.03195781	0.003146503	0	0.09454802	0	0	0
31.97496	-0.02341677	-0.03197682	0.001602189	-0.001158214	-0.04660751	-0.03495498	0	0
31.99153	-0.02339047	-0.03199583	0.001587504	-0.001147455	-0.0004452041	0.0003261903	0	0
32.00809	-0.02336417	-0.03201484	0.001587504	-0.00114768	0	-6.78793E-06	0	0
32.02466	-0.02328526	-0.03207188	0.004762738	-0.003442816	0.09582874	-0.06926733	0	0
32.04123	-0.02252251	-0.03258528	0.0460401	-0.03098871	1.245753	-0.8313369	0	0
32.0578	-0.01999733	-0.03441139	0.1523847	-0.1101987	3.209116	-2.390287	0	0
32.07436	-0.01170999	-0.04037289	0.5003402	-0.35992	10.50132	-7.536603	0	0
32.09093	-0.007394602	-0.04350121	0.2604774	-0.188826	-7.239908	5.164221	0	0
32.10749	0.001605262	-0.04999727	0.543358	-0.3921931	8.538336	-6.138338	0	0
32.12416	0.009710222	-0.05589437	0.486305	-0.3538315	-1.71692	1.154433	0	0
32.14063	0.01423588	-0.05919279	0.2748145	-0.2002919	-6.382795	4.633833	0	0
32.1572	0.01794544	-0.06189955	0.2239096	-0.1633805	-1.540925	1.117333	0	0
32.17376	0.02057604	-0.0638208	0.1587834	-0.115967	-1.965514	1.430943	0	0
32.19033	0.02044452	-0.0637247	-0.007938758	0.005800462	-5.031684	3.674948	0	0
32.2069	0.0203393	-0.06364784	-0.006351029	0.00463974	0.04791777	-0.03503065	0	0
32.22346	0.02028669	-0.0636094	-0.003175571	0.002320095	0.09583551	-0.07000703	0	0
32.24026	0.01997103	-0.0633788	-0.01879378	0.01372954	-0.4681249	0.3419755	0	0
32.2566	0.01991842	-0.06334037	-0.003219305	0.002351592	0.4699845	-0.3433477	0	0
32.27317	0.0198395	-0.06328272	-0.004764509	0.003480269	-0.04695873	0.03430049	0	0
32.28973	0.01976059	-0.06322508	-0.0047633	0.003479468	3.650162E-05	-2.418918E-05	0	0
32.3063	0.01970797	-0.06318665	-0.003175683	0.002319645	0.04791437	-0.03500351	0	0
32.32287	0.01962906	-0.063129	-0.004763412	0.003479468	-0.04791776	0.03500351	0	0
32.33944	0.01960275	-0.06310979	-0.001587842	0.001159823	0.09583891	-0.07000703	0	0
32.356	0.01960275	-0.06310979	0	0	0.04792115	-0.03500351	0	0
32.39397	0.01960275	-0.06314822	0	-0.001012077	0	-0.01855704	0	0
32.41054	0.01960275	-0.06318665	0	-0.002319645	0	-0.02397503	0	0
32.42738	0.01965536	-0.06326351	0.003124602	-0.004564666	0.09353609	-0.06720553	0	0
32.44367	0.01968167	-0.06339801	0.001614495	-0.008255623	-0.04558036	-0.1114061	0	0
32.46024	0.01970797	-0.06364784	0.001587842	-0.01507949	-0.0008111214	-0.2076661	0	0
32.47681	0.01960275	-0.06418598	-0.006351254	-0.03248268	-0.2396024	-0.5252292	0	0
32.49337	0.01952383	-0.06574335	-0.004763412	-0.09400274	0.04792115	-1.856679	0	0
32.50994	0.01926078	-0.07375529	-0.0158783	-0.4836015	-0.3354481	-11.75811	0	0
32.52651	0.01786652	-0.08738649	-0.08415741	-0.822781	-2.060668	-10.23646	0	0
32.54308	0.01584078	-0.1108474	-0.1222739	-1.416106	-1.150359	-17.90658	0	0
32.55964	0.01481471	-0.1239655	-0.06193397	-0.7918049	1.821063	18.84144	0	0
32.57621	0.01339394	-0.1445765	-0.08575784	-1.244084	-0.7190056	-13.6498	0	0
32.593	0.01155212	-0.1800973	-0.1096823	-2.115307	-0.7171708	-26.11618	0	0
32.60934	0.01065749	-0.2008122	-0.05474346	-1.26757	1.658058	25.58476	0	0
32.62591	0.0098681	-0.2262504	-0.04764773	-1.535451	0.2156142	-8.139968	0	0
32.64248	0.009604968	-0.2378874	-0.01588269	-0.7024136	0.9586709	25.14113	0	0
32.65905	0.009157639	-0.2531548	-0.02700084	-0.9215431	-0.3355465	-6.613343	0	0
32.67561	0.008368226	-0.2657908	-0.04764908	-0.7627072	-0.623165	4.793676	0	0
32.69218	0.007920887	-0.2828898	-0.0270014	-1.032103	0.6231481	-8.130371	0	0
32.70909	0.007920887	-0.2883199	0	-0.321178	0.8066388	21.23814	0	0
32.72532	0.008605051	-0.2984165	0.04216017	-0.6221828	1.272397	-9.084342	0	0
32.74188	0.00826297	-0.300233	-0.02064807	-0.1096448	-1.91518	15.62856	0	0
32.75845	0.008184028	-0.3065516	-0.00476493	-0.3813896	0.479354	-8.201273	0	0
32.77501	0.006499908	-0.310074	-0.1016771	-0.2126594	-2.925151	5.092873	0	0
32.79158	0.006526223	-0.3100955	0.001588347	-0.001296986	3.116915	6.379665	0	0
32.80816	0.00678937	-0.3103105	0.0158726	-0.0129699	0.4309506	-0.3521676	0	0
32.82471	0.00873662	-0.3119023	0.1176175	-0.09614956	3.070667	-2.510367	0	0
32.84128	0.01386753	-0.3161039	0.3097025	-0.2536103	5.799139	-4.753818	0	0
32.85785	0.02128626	-0.3221979	0.4477952	-0.3678315	4.167647	-3.447201	0	0
32.87442	0.02583635	-0.3259469	0.2746443	-0.2262927	-5.225705	4.27165	0	0
32.89098	0.02809787	-0.3278136	0.1365051	-0.1126741	-4.169049	3.429014	0	0
32.90773	0.02799269	-0.3276833	-0.006280698	0.007780467	-4.286093	3.615762	0	0
32.92424	0.02799269	-0.3276833	0	0	0.1888561	-0.2339531	0	0
32.94075	0.02799269	-0.3276833	0	0	0	0	0	0
32.95726	0.02799269	-0.3276833	0	0	0	0	0	0
32.97381	0.02799269	-0.3276399	0	0.002625173	0	0.07940156	0	0
32.99038	0.02799269	-0.3276399	0	0	0	-0.07925525	0	0
33.00695	0.02799269	-0.3275965	0	0.00262156	0	0.07911883	0	0
33.02381	0.0279401	-0.327553	-0.003119034	0.002575297	-0.09331616	-0.001384102	0	0
33.04008	0.0279401	-0.3275096	0	0.002668889	0.09414349	0.002824947	0	0
33.05684	0.0279138	-0.3274879	-0.001569213	0.001296452	-0.04751211	-0.0415542	0	0
33.07335	0.0279401	-0.3274662	0.001592781	0.001315922	0.09504619	0.0005852684	0	0
33.08978	0.0278875	-0.3274227	-0.003199494	0.002641637	-0.1454517	0.04023712	0	0
33.10637	0.0278875	-0.3274227	0	0	0.0968844	-0.07999182	0	0
33.12788	0.0279138	-0.327401	0.001222175	0.001008422	0.03207707	0.02646694	0	0
33.14445	0.0279138	-0.327401	0	0	-0.03209314	-0.02648019	0	0
33.16102	0.02817675	-0.3271405	0.01587178	0.01572574	0.4790113	0.4746037	0	0
33.17759	0.02828193	-0.3269669	0.006348668	0.01048203	-0.2874081	-0.1582555	0	0
33.19415	0.0284397	-0.3266196	0.00952289	0.02096225	0.0957982	0.3162939	0	0
33.21094	0.02875523	-0.3261856	0.01879445	0.02584995	0.2779601	0.1465325	0	0
33.22728	0.02917593	-0.3256649	0.02574327	0.03186092	0.2097402	0.1814324	0	0
33.24385	0.02959662	-0.3251444	0.02538692	0.03141006	-0.01082713	-0.01369836	0	0
33.26042	0.03114782	-0.3238222	0.09365217	0.07982712	2.060249	1.46123	0	0
33.27699	0.03269887	-0.3225443	0.09362149	0.07713562	-0.0009258509	-0.08123898	0	0
33.33933	0.05190072	-0.3068306	0.3080004	0.2520503	2.716723	2.216612	0	0
33.3559	0.05368521	-0.3053719	0.1077119	0.08804578	-2.538162	-2.078352	0	0
33.37255	0.05363273	-0.3054148	-0.00315018	-0.00257435	-3.336606	-2.727385	0	0
33.38906	0.05358025	-0.3054577	-0.003178792	-0.002597548	-0.0008626208	-0.0006993808	0	0
33.40608	0.05352776	-0.3055863	-0.00308402	-0.007560315	0.002826715	-0.1480213	0	0
33.42216	0.0532916	-0.3057793	-0.01468782	-0.01200512	-0.3506072	-0.134299	0	0
33.43873	0.05318663	-0.305908	-0.006335851	-0.007767528	0.2558331	0.1298035	0	0
33.4553	0.05305542	-0.3060153	-0.007919758	-0.00647414	-0.04780239	0.03903455	0	0
33.47186	0.05300294	-0.3060153	-0.003168543	0	0.1434085	0.1954124	0	0
33.48863	0.05300294	-0.3060153	0	0	0.09504686	0	0	0
33.50514	0.05300294	-0.3060153	0	0	0	0	0	0
33.52156	0.05300294	-0.3060582	0	-0.002612032	0	-0.07932445	0	0
33.53812	0.05300294	-0.3060582	0	0	0	0.07920516	0	0
33.55469	0.05300294	-0.3060582	0	0	0	0	0	0
33.57125	0.0529767	-0.3060796	-0.001583907	-0.001295188	-0.0478024	-0.03908884	0	0
33.58782	0.05292422	-0.3061225	-0.003168038	-0.002590375	-0.04780918	-0.03908884	0	0
33.60439	0.05287173	-0.3061654	-0.003168038	-0.002588576	0	5.428939E-05	0	0
33.62096	0.05281925	-0.3062083	-0.003167813	-0.002590375	6.78793E-06	-5.428939E-05	0	0
33.63752	0.05276676	-0.3062512	-0.003168038	-0.002588576	-6.78793E-06	5.428939E-05	0	0
33.65409	0.05271428	-0.3062941	-0.003168038	-0.002590375	0	-5.428939E-05	0	0
33.67066	0.05263555	-0.3064014	-0.004752169	-0.006475938	-0.04780918	-0.1172665	0	0
33.68723	0.05253058	-0.3064872	-0.006336076	-0.005178952	-0.0478024	0.03914314	0	0
33.70379	0.05239936	-0.3065945	-0.007920207	-0.006475938	-0.04780918	-0.03914314	0	0
33.72036	0.05239936	-0.3066374	0	-0.002590375	0.2390323	0.1172665	0	0
33.73693	0.05237311	-0.3066589	-0.001584131	-0.001295188	-0.04780918	0.03908884	0	0
33.75349	0.05232063	-0.3067018	-0.003168263	-0.002590375	-0.04780918	-0.03908884	0	0
33.77006	0.05229438	-0.3067233	-0.001583907	-0.001295188	0.04781596	0.03908884	0	0
33.78663	0.05226814	-0.3067447	-0.001584131	-0.001295188	-6.784417E-06	0	0	0
33.80336	0.0522419	-0.3067662	-0.001568958	-0.001282782	0.0004557182	0.0003725956	0	0
33.81976	0.05218941	-0.3068091	-0.003199202	-0.002615671	-0.04920084	-0.04022665	0	0
33.83633	0.05216316	-0.3068306	-0.001584496	-0.001295486	0.04897435	0.04004148	0	0
33.85289	0.05211068	-0.3068306	-0.003168038	0	-0.04779689	0.03910235	0	0
33.86946	0.05211068	-0.3068306	0	0	0.09561158	0	0	0
33.89148	0.05203194	-0.3067662	-0.003576442	0.002924103	-0.09269754	0.07578961	0	0
33.90804	0.05190072	-0.3066589	-0.007920657	0.006475938	-0.1125974	0.09205975	0	0
33.92461	0.05079836	-0.305715	-0.06652293	0.05696075	-1.768416	1.523459	0	0
33.97432	0.02909705	-0.2872793	-0.4366313	0.3709268	-5.584625	4.737484	0	0
34.04058	-0.01386753	-0.2378046	-0.6484115	0.7466605	-1.826274	3.240118	0	0
34.05714	-0.0185242	-0.2132269	-0.2810768	1.483515	4.434881	8.896147	0	0
34.07371	-0.02076017	-0.1930616	-0.1349639	1.217181	4.409694	-8.037971	0	0
34.09027	-0.02281183	-0.172058	-0.1238668	1.268069	0.3349514	1.535982	0	0
34.10684	-0.02573116	-0.1444377	-0.1762111	1.667166	-1.579936	12.04613	0	0
34.12341	-0.02767714	-0.1250863	-0.1174596	1.168051	1.773124	-15.06332	0	0
34.14009	-0.02970179	-0.1064507	-0.1213419	1.116875	-0.1167522	-1.538993	0	0
34.1566	-0.03125298	-0.09489847	-0.09397625	0.6998737	0.8244733	-12.56343	0	0
34.17312	-0.03401319	-0.07338885	-0.1670684	1.30192	-2.21306	18.22857	0	0
34.18967	-0.03595818	-0.05957657	-0.1175349	0.8346719	1.497857	-14.12924	0	0
34.20624	-0.03887514	-0.04321495	-0.1760682	0.9875894	-1.767556	4.617716	0	0
34.22281	-0.04108214	-0.03186275	-0.1331839	0.6850626	1.294101	-9.129223	0	0
34.23938	-0.04352513	-0.02235249	-0.1474252	0.5739081	-0.4297046	-3.353879	0	0
34.25594	-0.04885583	-0.01302212	-0.3218361	0.563312	-5.263731	-0.3197908	0	0
34.27269	-0.05134956	-0.007791586	-0.1489441	0.3124067	5.190995	-7.533308	0	0
34.2892	-0.05413128	-0.005188893	-0.1684479	0.157607	-0.586464	-4.654717	0	0
34.30564	-0.05371145	-0.005565967	0.02553496	-0.02293452	5.886265	-5.478396	0	0
34.32221	-0.05373769	-0.005584822	-0.001583907	-0.001138067	-0.8215703	0.660327	0	0
34.33878	-0.05376393	-0.005565967	-0.001583682	0.001138067	6.78793E-06	0.06869389	0	0
34.35534	-0.05379017	-0.005547112	-0.001583907	0.001138096	-6.78793E-06	8.467346E-07	0	0
34.37191	-0.05384265	-0.005509403	-0.003168318	0.002276631	-0.04782313	0.03436503	0	0
34.38847	-0.05386889	-0.005490548	-0.001583907	0.001138067	0.04782313	-0.03436587	0	0
34.40504	-0.05386889	-0.005490548	0	0	0.0478024	-0.03434695	0	0
34.42161	-0.05386889	-0.005490548	0	0	0	0	0	0
34.43818	-0.05384265	-0.005509403	0.001583907	-0.001138067	0.0478024	-0.03434695	0	0
34.45474	-0.05376393	-0.005565967	0.004751495	-0.003414202	0.09559801	-0.06869388	0	0
34.47131	-0.05379017	-0.005660242	-0.001583907	-0.00569045	-0.1912028	-0.06869729	0	0
34.48788	-0.05376393	-0.00575452	0.001583907	-0.005690618	0.09560479	-5.087434E-06	0	0
34.50444	-0.05365897	-0.005867657	0.006335401	-0.006828995	0.1434004	-0.03435627	0	0
34.52101	-0.05355401	-0.005980798	0.006335401	-0.006829192	0	-5.944709E-06	0	0
34.53788	-0.05350152	-0.006056228	0.003110516	-0.004470594	-0.096439	0.07053299	0	0
34.55415	-0.05339656	-0.006207092	0.006454292	-0.009277058	0.1009154	-0.1450594	0	0
34.57071	-0.05334408	-0.006320245	0.003167813	-0.006829923	-0.1001082	0.07454123	0	0
34.58741	-0.05331784	-0.006339103	0.001571244	-0.00112922	-0.04799118	0.1713571	0	0
34.60394	-0.05331784	-0.006339103	0	0	-0.047295	0.03398993	0	0
34.6302	-0.05331784	-0.006339103	0	0	0	0	0	0
34.64696	-0.05334408	-0.006320245	-0.001565523	0.001125108	-0.03638875	0.02615183	0	0
34.66347	-0.05334408	-0.006320245	0	0	0.04705255	-0.03381568	0	0
34.6799	-0.05334408	-0.006320245	0	0	0	0	0	0
34.69646	-0.05334408	-0.006320245	0	0	0	0	0	0
34.71303	-0.05334408	-0.006320245	0	0	0	0	0	0
34.73001	-0.05334408	-0.006320245	0	0	0	0	0	0
34.74617	-0.05334408	-0.006320245	0	0	0	0	0	0
34.77955	-0.05334408	-0.006320245	0	0	0	0	0	0
34.79607	-0.05334408	-0.006320245	0	0	0	0	0	0
34.81244	-0.05334408	-0.006320245	0	0	0	0	0	0
34.82909	-0.05334408	-0.006320245	0	0	0	0	0	0
34.84557	-0.05334408	-0.006320245	0	0	0	0	0	0
34.86214	-0.05334408	-0.006320245	0	0	0	0	0	0
34.8787	-0.05337032	-0.006339103	-0.001583907	-0.00113832	-0.0478024	-0.03435458	0	0
34.91184	-0.05334408	-0.006357963	0.0007919533	-0.0005691742	0.04780239	0.01145124	0	0
34.92841	-0.05334408	-0.006357963	0	0	-0.01593413	0.01145181	0	0
34.94518	-0.05337032	-0.006376822	-0.001564454	-0.001124396	-0.04692361	-0.03372468	0	0
34.96154	-0.05337032	-0.006414542	0	-0.002305927	0.04722076	-0.03566279	0	0
34.9781	-0.05339656	-0.006433401	-0.001583907	-0.001138377	-0.04810701	0.0354613	0	0
34.99467	-0.05339656	-0.006433401	0	0	0.0478024	0.03435627	0	0
35.01123	-0.05339656	-0.006433401	0	0	0	0	0	0
35.0278	-0.05339656	-0.006433401	0	0	0	0	0	0
35.04437	-0.05339656	-0.006433401	0	0	0	0	0	0
35.06094	-0.0534228	-0.006452261	-0.001583907	-0.001138377	-0.0478024	-0.03435627	0	0
35.09428	-0.0534228	-0.006489981	0	-0.001131357	0.03173673	0.0001406496	0	0
35.11063	-0.0534228	-0.006489981	0	0	0	0.0227647	0	0
35.1272	-0.0534228	-0.006489981	0	0	0	0	0	0
35.14376	-0.0534228	-0.006489981	0	0	0	0	0	0
35.16033	-0.05344905	-0.006508841	-0.001583907	-0.001138405	-0.0478024	-0.03435712	0	0
35.1769	-0.0534228	-0.006527701	0.001584271	-0.001138667	0.0956268	-7.913136E-06	0	0
35.19346	-0.0534228	-0.006527701	0	0	-0.04781891	0.03436899	0	0
35.21003	-0.0534228	-0.006527701	0	0	0	0	0	0
35.22686	-0.0534228	-0.006565422	0	-0.002240722	0	-0.06708449	0	0
35.24316	-0.05337032	-0.006603144	0.003219708	-0.002314165	0.09717099	-0.002216526	0	0
35.25973	-0.05339656	-0.006622004	-0.001584271	-0.001138695	-0.1461793	0.03576813	0	0
35.27629	-0.05339656	-0.006622004	0	0	0.04781891	0.03436984	0	0
35.29286	-0.05339656	-0.006622004	0	0	0	0	0	0
35.30943	-0.05339656	-0.006622004	0	0	0	0	0	0
35.326	-0.05339656	-0.006622004	0	0	0	0	0	0
35.34901	-0.05339656	-0.006622004	0	0	0	0	0	0
35.36557	-0.05339656	-0.006622004	0	0	0	0	0	0
35.38247	-0.05339656	-0.006622004	0	0	0	0	0	0
35.39899	-0.05339656	-0.006622004	0	0	0	0	0	0
35.41528	-0.05337032	-0.006640865	0.001610985	-0.001157896	0.04911153	-0.03529891	0	0
35.43184	-0.05331784	-0.006678587	0.003167813	-0.002276922	0.04738339	-0.03405852	0	0
35.44841	-0.05313415	-0.006848342	0.01108757	-0.01024643	0.2390188	-0.2405202	0	0
35.46498	-0.05247809	-0.00731993	0.03959991	-0.02846509	0.8605043	-0.5498404	0	0
35.48154	-0.05140205	-0.008093482	0.06494984	-0.04669168	0.7650623	-0.5500795	0	0
35.49811	-0.0498534	-0.009206964	0.09347702	-0.0672099	0.860952	-0.619241	0	0
35.51468	-0.04987964	-0.009188088	-0.001584356	0.00113936	-2.868958	2.062785	0	0
35.53125	-0.04987964	-0.009188088	0	0	0.04781597	-0.03438596	0	0
35.54781	-0.04987964	-0.009188088	0	0	0	0	0	0
35.56438	-0.0499059	-0.009206964	-0.001584581	-0.00113936	-0.04782275	-0.03438596	0	0
35.58112	-0.0499059	-0.009206964	0	0	0.04757627	0.03420874	0	0
35.59763	-0.0499059	-0.009206964	0	0	0	0	0	0
35.61408	-0.0499059	-0.009244715	0	-0.002295046	0	-0.06963341	0	0
35.63065	-0.04993214	-0.009263591	-0.001583627	-0.001138836	-0.04795406	0.03501139	0	0
35.64721	-0.0499584	-0.009282468	-0.001585311	-0.001139942	-5.083218E-05	-3.336696E-05	0	0
35.66418	-0.04998465	-0.009301344	-0.001546956	-0.001112464	0.001144005	0.0008195405	0	0
35.68035	-0.04998465	-0.009301344	0	0	0.04668722	0.03357425	0	0
35.6972	-0.04998465	-0.009301344	0	0	0	0	0	0
35.71348	-0.04998465	-0.009301344	0	0	0	0	0	0
35.73005	-0.0500109	-0.009282468	-0.001584581	0.00113936	-0.04825049	0.03469352	0	0
35.74674	-0.0500109	-0.009282468	0	0	0.04763629	-0.03425189	0	0
35.76318	-0.0500109	-0.009282468	0	0	0	0	0	0
35.81289	-0.0500109	-0.009282468	0	0	0	0	0	0
35.82945	-0.0500109	-0.009282468	0	0	0	0	0	0
35.84602	-0.0500109	-0.009282468	0	0	0	0	0	0
35.86259	-0.05003715	-0.009263591	-0.001584356	0.001139417	-0.04781597	0.03438766	0	0
35.87934	-0.05003715	-0.009263591	0	0	0.04754774	-0.03419476	0	0
35.89572	-0.05003715	-0.009263591	0	0	0	0	0	0
35.91236	-0.05003715	-0.009263591	0	0	0	0	0	0
35.92885	-0.05003715	-0.009263591	0	0	0	0	0	0
35.94542	-0.05003715	-0.009263591	0	0	0	0	0	0
35.96199	-0.05003715	-0.009263591	0	0	0	0	0	0
35.97855	-0.05003715	-0.009263591	0	0	0	0	0	0
35.99512	-0.05006339	-0.009244715	-0.001584356	0.00113936	-0.04781597	0.03438596	0	0
36.01194	-0.05006339	-0.009244715	0	0	0.04745538	-0.03412665	0	0
36.06291	-0.05006339	-0.009244715	0	0	0	0	0	0
36.07949	-0.05006339	-0.009244715	0	0	0	0	0	0
36.09605	-0.05006339	-0.009244715	0	0	0	0	0	0
36.11261	-0.05006339	-0.009244715	0	0	0	0	0	0
36.12952	-0.05006339	-0.009244715	0	0	0	0	0	0
36.14603	-0.05008965	-0.009225839	-0.001589706	0.001143045	-0.04756669	0.03420185	0	0
36.18734	-0.05008965	-0.009225839	0	0	0.02749435	-0.01976924	0	0
36.20407	-0.05008965	-0.009225839	0	0	0	0	0	0
36.22047	-0.05008965	-0.009225839	0	0	0	0	0	0
36.23704	-0.05008965	-0.009225839	0	0	0	0	0	0
36.2536	-0.05008965	-0.009225839	0	0	0	0	0	0
36.27017	-0.05008965	-0.009225839	0	0	0	0	0	0
36.28674	-0.05008965	-0.009225839	0	0	0	0	0	0
36.30331	-0.05008965	-0.009225839	0	0	0	0	0	0
36.31987	-0.05008965	-0.009225839	0	0	0	0	0	0
36.33644	-0.05008965	-0.009225839	0	0	0	0	0	0
36.35301	-0.05008965	-0.009225839	0	0	0	0	0	0
36.36958	-0.05008965	-0.009225839	0	0	0	0	0	0
36.38614	-0.05008965	-0.009225839	0	0	0	0	0	0
36.40272	-0.05008965	-0.009225839	0	0	0	0	0	0
36.41928	-0.05008965	-0.009225839	0	0	0	0	0	0
36.43584	-0.05008965	-0.009225839	0	0	0	0	0	0
36.45241	-0.05008965	-0.009225839	0	0	0	0	0	0
36.46898	-0.05008965	-0.009225839	0	0	0	0	0	0
36.48555	-0.05008965	-0.009225839	0	0	0	0	0	0
36.50229	-0.05008965	-0.009225839	0	0	0	0	0	0
36.5188	-0.05008965	-0.009225839	0	0	0	0	0	0
36.53531	-0.05008965	-0.009225839	0	0	0	0	0	0
36.55181	-0.05008965	-0.009225839	0	0	0	0	0	0
36.56837	-0.05008965	-0.009225839	0	0	0	0	0	0
36.58494	-0.05008965	-0.009225839	0	0	0	0	0	0
36.60151	-0.05008965	-0.009225839	0	0	0	0	0	0
36.61808	-0.05008965	-0.009225839	0	0	0	0	0	0
36.65121	-0.05008965	-0.009225839	0	0	0	0	0	0
36.66778	-0.05008965	-0.009225839	0	0	0	0	0	0
36.68442	-0.05008965	-0.009225839	0	0	0	0	0	0
36.70094	-0.05008965	-0.009225839	0	0	0	0	0	0
36.71748	-0.05008965	-0.009225839	0	0	0	0	0	0
