Time	Pos X	Pos Y	Vel X	Vel Y	Acc X	Acc YForce X	Force Y
0.01665042	-0.03622099	-0.007112423	0.0005846088	0.0001147949	-9.438142E-06	-1.853291E-06	0	0
0.04671624	-0.03020134	-0.01143507	0.2002159	-0.1437729	-0.003223624	0.002323483	0	0
0.06328653	-0.02315376	-0.01650125	0.4253145	-0.3057387	4.826704	-3.47297	0	0
0.079858	-0.01868204	-0.01971904	0.2698445	-0.1941764	-4.691062	3.366216	0	0
0.09642513	-0.0168142	-0.02106391	0.1127433	-0.08117692	-4.740731	3.409905	0	0
0.1129915	-0.01515673	-0.02225772	0.1000505	-0.07206275	-0.3830799	0.2750744	0	0
0.1295629	-0.01263091	-0.02407774	0.1524201	-0.1098284	1.580359	-1.139654	0	0
0.1506619	-0.01126268	-0.02506403	0.06484811	-0.04674577	-2.324691	1.674594	0	0
0.1672322	-0.01094693	-0.02529168	0.0190552	-0.01373837	-1.215659	0.8762432	0	0
0.1837969	-0.01094693	-0.02529168	0	0	-0.5750768	0.4146177	0	0
0.2003637	-0.01092062	-0.02531065	0.001588282	-0.001145128	0.04793875	-0.03456313	0	0
0.2169304	-0.01092062	-0.02531065	0	0	-0.04793588	0.03456106	0	0
0.2666298	-0.01089431	-0.02529168	0.0005294358	0.0003817155	0.007989534	0.005760338	0	0
0.283197	-0.01089431	-0.02529168	0	0	-0.007989486	-0.005760303	0	0
0.2997637	-0.01089431	-0.02529168	0	0	0	0	0	0
0.316366	-0.01092062	-0.02531065	-0.001584882	-0.001142677	-0.04778203	-0.03445015	0	0
0.3328968	-0.01092062	-0.02531065	0	0	0.04783382	0.03448749	0	0
0.3498898	-0.01092062	-0.02531065	0	0	0	0	0	0
0.3664045	-0.01092062	-0.02531065	0	0	0	0	0	0
0.3829136	-0.01092062	-0.02531065	0	0	0	0	0	0
0.4159385	-0.01092062	-0.02531065	0	0	0	0	0	0
0.4324464	-0.01092062	-0.02531065	0	0	0	0	0	0
0.4488631	-0.01092062	-0.02531065	0	0	0	0	0	0
0.4654318	-0.01092062	-0.02531065	0	0	0	0	0	0
0.4819986	-0.01092062	-0.02531065	0	0	0	0	0	0
0.4985657	-0.01092062	-0.02531065	0	0	0	0	0	0
0.5151321	-0.01092062	-0.02531065	0	0	0	0	0	0
0.5316988	-0.01092062	-0.02527271	0	0.002290254	0	0.06912281	0	0
0.5482636	-0.01092062	-0.02527271	0	0	0	-0.06912611	0	0
0.5648319	-0.01094693	-0.02525374	-0.001588132	0.00114502	-0.04793191	0.03455821	0	0
0.5813987	-0.01099956	-0.02521579	-0.003176562	0.002290254	-0.04793803	0.03456262	0	0
0.5980625	-0.01102587	-0.02519682	-0.001579026	0.001138455	0.04807422	-0.03466081	0	0
0.6310989	-0.01131531	-0.02498815	-0.008761178	0.00631644	-0.1445095	0.1041844	0	0
0.6476652	-0.01155212	-0.02481743	-0.01429472	0.01030539	-0.1115573	0.08041807	0	0
0.6642323	-0.01192049	-0.02451395	-0.022235	0.01831827	-0.2396456	0.2418364	0	0
0.6807994	-0.01281509	-0.02386915	-0.05399858	0.03892056	-0.9586337	0.6217828	0	0
0.6973653	-0.01528828	-0.02208715	-0.1492941	0.1075699	-2.876149	2.071931	0	0
0.7139329	-0.01565661	-0.02182183	-0.02223219	0.01601428	3.834854	-2.763239	0	0
0.7304992	-0.01565661	-0.02182183	0	0	0.670981	-0.4833206	0	0
0.7470667	-0.01565661	-0.02182183	0	0	0	0	0	0
0.7636319	-0.01565661	-0.02182183	0	0	0	0	0	0
0.780199	-0.01565661	-0.02182183	0	0	0	0	0	0
0.7967649	-0.01565661	-0.02182183	0	0	0	0	0	0
0.8133324	-0.01565661	-0.02182183	0	0	0	0	0	0
0.8299012	-0.01565661	-0.02182183	0	0	0	0	0	0
0.8464707	-0.01565661	-0.02182183	0	0	0	0	0	0
0.8630358	-0.01565661	-0.02182183	0	0	0	0	0	0
0.879777	-0.01565661	-0.02182183	0	0	0	0	0	0
0.8961681	-0.01565661	-0.02182183	0	0	0	0	0	0
0.9183206	-0.01565661	-0.02182183	0	0	0	0	0	0
0.9348909	-0.01565661	-0.02182183	0	0	0	0	0	0
0.9518137	-0.01565661	-0.02182183	0	0	0	0	0	0
0.9680236	-0.01568292	-0.02180288	-0.001623074	0.001169073	-0.04898702	0.03528452	0	0
0.9848386	-0.01568292	-0.02180288	0	0	0.04914696	-0.03539973	0	0
1.001157	-0.01568292	-0.02180288	0	0	0	0	0	0
1.017724	-0.01568292	-0.02180288	0	0	0	0	0	0
1.034904	-0.01568292	-0.02180288	0	0	0	0	0	0
1.050881	-0.01568292	-0.02180288	0	0	0	0	0	0
1.067424	-0.01576185	-0.02174603	-0.004771159	0.003436554	-0.1467144	0.1056749	0	0
1.083991	-0.01599864	-0.02157549	-0.01429236	0.01029423	-0.2875647	0.2071193	0	0
1.100558	-0.01926078	-0.0192267	-0.1969046	0.1417744	-5.511287	3.968107	0	0
1.117125	-0.0242584	-0.01563111	-0.3016658	0.2170361	-3.161756	2.271443	0	0
1.133943	-0.02970179	-0.01171842	-0.3236615	0.232647	-0.6588521	0.4676057	0	0
1.150257	-0.03530112	-0.007697249	-0.3432117	0.246478	-0.5900582	0.4174422	0	0
1.166967	-0.03779778	-0.00590537	-0.1494139	0.107236	5.868357	-4.216366	0	0
1.183391	0	0	2.3014	0.3595613	73.96783	7.615412	0	0
1.199958	-0.03911162	-0.004962669	-2.360748	-0.299543	-141.3145	-19.97813	0	0
1.216525	-0.0404516	-0.004001393	-0.08088562	0.0580257	68.80763	10.79164	0	0
1.299358	-0.04137112	-0.003341855	-0.01110072	0.007962193	0.702061	-0.5036568	0	0
1.315924	-0.04137112	-0.003341855	0	0	0.1116786	-0.08010347	0	0
1.332579	-0.04134485	-0.003360697	0.001577262	-0.001131253	0.04747767	-0.0340522	0	0
1.349097	-0.04131858	-0.003379539	0.001590455	-0.001140715	0.0003976948	-0.0002852368	0	0
1.365622	-0.04131858	-0.003379539	0	0	-0.04813336	0.03452248	0	0
1.382189	-0.04131858	-0.003379539	0	0	0	0	0	0
1.398758	-0.04129231	-0.003398382	0.001585523	-0.001137206	0.04784911	-0.03431946	0	0
1.415324	-0.04129231	-0.003398382	0	0	-0.04785031	0.03432032	0	0
1.432155	-0.04129231	-0.003398382	0	0	0	0	0	0
1.448458	-0.04129231	-0.003398382	0	0	0	0	0	0
1.465178	-0.04129231	-0.003398382	0	0	0	0	0	0
1.481685	-0.04123976	-0.003436066	0.003182885	-0.002282889	0.09579085	-0.06870492	0	0
1.498201	-0.04123976	-0.003473752	0	-0.002281844	-0.09638423	3.165008E-05	0	0
1.514724	-0.04118722	-0.003511438	0.003180056	-0.002280755	0.09625236	3.295976E-05	0	0
1.53129	-0.04110841	-0.003567967	0.004757356	-0.003412308	0.04766731	-0.03419649	0	0
1.548237	-0.04105587	-0.003605654	0.003100445	-0.002223884	-0.04944108	0.03546179	0	0
1.564749	-0.04105587	-0.003605654	0	0	-0.09266581	0.06646722	0	0
1.597558	-0.04102959	-0.003624498	0.0008008308	-0.0005743375	0.01623714	-0.0116449	0	0
1.614122	-0.04100332	-0.003643341	0.001585979	-0.001137603	0.01590226	-0.01140829	0	0
1.63079	-0.04102959	-0.003624498	-0.0015761	0.001130517	-0.09515	0.06824992	0	0
1.666294	-0.04102959	-0.003624498	0	0	0.03020986	-0.02166916	0	0
1.682861	-0.04102959	-0.003624498	0	0	0	0	0	0
1.699427	-0.04102959	-0.003624498	0	0	0	0	0	0
1.715996	-0.04102959	-0.003624498	0	0	0	0	0	0
1.732561	-0.04102959	-0.003624498	0	0	0	0	0	0
1.749128	-0.04102959	-0.003624498	0	0	0	0	0	0
1.765886	-0.04102959	-0.003624498	0	0	0	0	0	0
1.782397	-0.04102959	-0.003624498	0	0	0	0	0	0
1.798828	-0.04102959	-0.003624498	0	0	0	0	0	0
1.815396	-0.04102959	-0.003624498	0	0	0	0	0	0
1.831961	-0.04102959	-0.003624498	0	0	0	0	0	0
1.848527	-0.04102959	-0.003624498	0	0	0	0	0	0
1.865094	-0.04102959	-0.003624498	0	0	0	0	0	0
1.881661	-0.04102959	-0.003624498	0	0	0	0	0	0
1.898228	-0.04102959	-0.003624498	0	0	0	0	0	0
1.914996	-0.04102959	-0.003624498	0	0	0	0	0	0
1.931503	-0.04102959	-0.003624498	0	0	0	0	0	0
1.947927	-0.04102959	-0.003624498	0	0	0	0	0	0
1.964496	-0.04100332	-0.003643341	0.001585603	-0.001137333	0.04805952	-0.0344725	0	0
1.981061	-0.04095078	-0.003681029	0.00317173	-0.002275071	0.04787029	-0.03433761	0	0
1.997628	-0.0407406	-0.003831784	0.01268696	-0.009100066	0.2871918	-0.2059943	0	0
2.014194	-0.04053042	-0.003982547	0.01268668	-0.00910029	-8.292002E-06	-6.774144E-06	0	0
2.030761	-0.04047788	-0.004020238	0.003171727	-0.002275132	-0.2871702	0.2059896	0	0
2.047584	-0.04039906	-0.004076777	0.004685286	-0.003360809	0.04533028	-0.03251544	0	0
2.063895	-0.04039906	-0.004076777	0	0	-0.1414053	0.1014316	0	0
2.081115	-0.04039906	-0.004076777	0	0	0	0	0	0
2.09712	-0.04039906	-0.004076777	0	0	0	0	0	0
2.113594	-0.04039906	-0.004076777	0	0	0	0	0	0
2.130162	-0.0404516	-0.004039085	-0.003171636	0.002275095	-0.09598953	0.06885573	0	0
2.146728	-0.0404516	-0.004039085	0	0	0.0957236	-0.06866497	0	0
2.229748	-0.04053042	-0.004020238	-0.0009494037	0.0002270079	-0.009533482	0.00227951	0	0
2.246225	-0.04053042	-0.004020238	0	0	0.009542002	-0.002281548	0	0
2.262695	-0.0405567	-0.004001393	-0.001595071	0.001144252	-0.04841314	0.03473001	0	0
2.279261	-0.04058297	-0.003982547	-0.001586022	0.001137599	0.0002739208	-0.0002013855	0	0
2.295828	-0.04060924	-0.003963701	-0.001585751	0.001137566	8.165543E-06	-9.87314E-07	0	0
2.312395	-0.04063552	-0.003944856	-0.001585976	0.001137538	-6.788126E-06	-8.502724E-07	0	0
2.328962	-0.04068806	-0.003944856	-0.003171411	0	-0.04784921	-0.03433146	0	0
2.345528	-0.0407406	-0.003907165	-0.003171864	0.002275202	-1.367473E-05	0.06866822	0	0
2.362808	-0.04126604	-0.003530281	-0.03040686	0.02181028	-0.8046706	0.5771731	0	0
2.378821	-0.0440767	-0.001552344	-0.1755195	0.1235177	-4.358589	3.054874	0	0
2.395333	-0.05350152	0.005163874	-0.5707895	0.4067498	-12.15269	8.708055	0	0
2.411851	-0.06409629	0.01271075	-0.6414304	0.4569047	-2.138734	1.518497	0	0
2.428362	-0.07622048	0.02134502	-0.7342902	0.5229266	-2.811476	1.998917	0	0
2.444928	-0.0933333	0.03342769	-1.033007	0.7293633	-9.030812	6.241004	0	0
2.463942	-0.1109634	0.04543352	-0.9272094	0.6314169	2.973491	-2.75284	0	0
2.480891	-0.1252877	0.05412101	-0.8451448	0.5125685	2.281913	-3.304734	0	0
2.497077	-0.1437645	0.06010561	-1.141511	0.3697337	-8.944159	-4.310672	0	0
2.513644	-0.1696687	0.06567452	-1.563674	0.3361594	-12.88948	-1.025088	0	0
2.530431	-0.1830335	0.06752297	-0.7961396	0.1101113	23.01222	-6.777378	0	0
2.546777	-0.2059334	0.07210352	-1.400905	0.2802167	-18.25239	5.133939	0	0
2.563449	-0.2196607	0.07575694	-0.8233919	0.2191401	17.49081	-1.84979	0	0
2.579964	-0.2315849	0.08152588	-0.7220239	0.3493144	3.054477	3.922485	0	0
2.596478	-0.2377584	0.08609129	-0.3738342	0.2764599	10.54199	-2.205783	0	0
2.613045	-0.2413593	0.08879514	-0.2173541	0.1632049	4.730203	-3.423561	0	0
2.629611	-0.2500002	0.09524462	-0.5216015	0.3893196	-9.182536	6.824401	0	0
2.662744	-0.2589474	0.1020516	-0.2700405	0.2054458	5.06171	-3.699762	0	0
2.679312	-0.2598324	0.1027483	-0.05341725	0.0420465	4.358509	-3.287631	0	0
2.695877	-0.2640061	0.1058636	-0.2519592	0.188064	-5.992181	4.406944	0	0
2.712446	-0.2641778	0.1059918	-0.01036076	0.007739538	7.291666	-5.44236	0	0
2.773524	-0.2640797	0.1059185	0.001605811	-0.001199723	0.1541165	-0.115128	0	0
2.79011	-0.2640552	0.1059002	0.00147879	-0.001104601	-0.001635517	0.001224791	0	0
2.806658	-0.2640552	0.1059002	0	0	-0.04462966	0.03333667	0	0
2.823634	-0.2640061	0.1058636	0.002889625	-0.002158002	0.08619379	-0.06437042	0	0
2.839792	-0.2639326	0.1058086	0.004553939	-0.003401621	0.05022981	-0.03753302	0	0
2.856659	-0.2639081	0.1057903	0.00145242	-0.001086223	-0.09391557	0.07011143	0	0
2.872925	-0.263859	0.1057536	0.003015801	-0.002252232	0.04718564	-0.03519224	0	0
2.889492	-0.263859	0.1057536	0	0	-0.09185246	0.06859638	0	0
2.906058	-0.2638099	0.105717	0.002961156	-0.002211872	0.08937108	-0.06675683	0	0
2.939216	-0.2637364	0.105662	0.00221911	-0.001657367	-0.01492318	0.01115158	0	0
2.955758	-0.2637118	0.1056437	0.001482733	-0.001107546	-0.01481637	0.01106275	0	0
2.972325	-0.2636628	0.1056071	0.002961113	-0.00221184	0.04465294	-0.03335407	0	0
2.988893	-0.2636137	0.1055704	0.00296073	-0.002211554	-1.157313E-05	8.642955E-06	0	0
3.005762	-0.2636137	0.1055704	0	0	-0.08854585	0.06614041	0	0
3.022025	-0.2636383	0.1055521	-0.001508144	-0.001126527	-0.04551914	-0.03400108	0	0
3.038786	-0.2636383	0.1055521	0	0	0.04566834	0.03411253	0	0
3.055159	-0.2636137	0.1055338	0.001498041	-0.001118981	0.04521228	-0.03377187	0	0
3.104859	-0.2635892	0.1055521	0.0004935047	0.0003686294	-0.0152034	0.02251458	0	0
3.121431	-0.2635892	0.1055521	0	0	-0.007446599	-0.005562329	0	0
3.137993	-0.2635892	0.1055521	0	0	0	0	0	0
3.154867	-0.2635892	0.1055521	0	0	0	0	0	0
3.171125	-0.2636137	0.1055338	-0.001508674	-0.001126923	-0.04553516	-0.03401305	0	0
3.187892	-0.2636137	0.1055338	0	0	0.04568309	0.03412355	0	0
3.204258	-0.2636137	0.1055338	0	0	0	0	0	0
3.220918	-0.2636137	0.1055338	0	0	0	0	0	0
3.237425	-0.2635892	0.1055155	0.001485924	-0.00110993	0.04480209	-0.03346547	0	0
3.25396	-0.2635892	0.1055155	0	0	-0.04497149	0.03359201	0	0
3.289492	-0.2634911	0.1054422	0.002761991	-0.002062267	0.05304682	-0.03960792	0	0
3.306059	-0.2634665	0.1054239	0.001480514	-0.001105888	-0.02459707	0.01835704	0	0
3.322625	-0.263442	0.1054056	0.001480557	-0.00110592	1.285968E-06	-9.592054E-07	0	0
3.339498	-0.263393	0.1053689	0.002907264	-0.002171617	0.04266547	-0.0318695	0	0
3.356011	-0.2632948	0.1052956	0.005943013	-0.00443831	0.09092753	-0.06789257	0	0
3.372325	-0.263074	0.1051307	0.01353489	-0.01010733	0.2312684	-0.1726929	0	0
3.388891	-0.2625587	0.1047459	0.03110788	-0.02322702	0.5344571	-0.3990166	0	0
3.405458	-0.2607907	0.1034265	0.1067157	-0.07964599	2.281948	-1.702801	0	0
3.422025	-0.2600045	0.1028399	0.047461	-0.03540551	-1.788363	1.335219	0	0
3.438592	-0.2600045	0.1028399	0	0	-1.432396	1.068556	0	0
3.455161	-0.2599553	0.1028033	0.002966083	-0.002212871	0.08951271	-0.06678169	0	0
3.471725	-0.2579143	0.1012815	0.1232206	-0.0918707	3.629496	-2.706034	0	0
3.488604	-0.2463157	0.09265492	0.6871504	-0.5110748	16.86231	-12.5348	0	0
3.50486	-0.2422772	0.08965929	0.248438	-0.1842829	-13.24018	9.862456	0	0
3.521425	-0.2185073	0.07210352	1.434935	-1.059806	36.15088	-26.67594	0	0
3.538138	-0.2080757	0.06443559	0.6241557	-0.4587959	-24.36367	18.06016	0	0
3.554652	-0.1921523	0.05276719	0.9642091	-0.7065531	10.23404	-7.456349	0	0
3.571162	-0.1665992	0.03415472	1.547773	-1.127377	17.67088	-12.74296	0	0
3.587691	-0.1478603	0.02055927	1.133678	-0.8225052	-12.5336	9.227687	0	0
3.60426	-0.1433778	0.01741449	0.2705461	-0.1898058	-26.07826	19.11609	0	0
3.620825	-0.1201034	0.003716415	1.405029	-0.8269243	34.23975	-19.22883	0	0
3.637708	-0.1117171	-0.001571176	0.4967308	-0.3131922	-27.15556	15.35914	0	0
3.65396	-0.1006847	-0.009188088	0.6788422	-0.468681	5.496096	-4.692628	0	0
3.670733	-0.08390779	-0.02002206	1.000177	-0.6458812	9.729836	-5.365517	0	0
3.687092	-0.07763314	-0.02362264	0.3835745	-0.2201062	-18.61031	12.85075	0	0
3.70366	-0.0670834	-0.03058922	0.6367556	-0.4204856	7.689322	-6.085688	0	0
3.720269	-0.06000682	-0.03576265	0.4260582	-0.3114751	-6.350635	3.285686	0	0
3.737279	-0.05111334	-0.04226094	0.5228466	-0.3820337	2.878966	-2.098761	0	0
3.753359	-0.04486461	-0.04691942	0.3886106	-0.2897125	-4.056769	2.790055	0	0
3.769925	-0.03869121	-0.05148957	0.372638	-0.2758627	-0.489259	0.4242363	0	0
3.786492	-0.03193651	-0.05648857	0.407738	-0.3017581	1.059364	-0.781559	0	0
3.803059	-0.02833452	-0.05915441	0.2174164	-0.1609104	-5.744083	4.250913	0	0
3.819625	-0.02767714	-0.05963414	0.0396818	-0.0289581	-5.364194	3.982443	0	0
3.836349	-0.02767714	-0.05963414	0	0	-1.192015	0.8698826	0	0
3.85286	-0.02767714	-0.05963414	0	0	0	0	0	0
3.869375	-0.02772973	-0.05959576	-0.003184575	0.002324114	-0.09642496	0.07037127	0	0
3.885892	-0.02775603	-0.05957657	-0.001592001	0.001161776	0.04821383	-0.03518879	0	0
3.902458	-0.02783491	-0.05955738	-0.004761888	0.00115854	-0.09581559	-9.781741E-05	0	0
3.919407	-0.02783491	-0.05955738	0	0	0.1420804	-0.03456734	0	0
3.935592	-0.0279138	-0.05953819	-0.00487408	0.001185634	-0.1471032	0.03578327	0	0
3.952158	-0.02796639	-0.05953819	-0.003174675	0	0.05188928	-0.03620189	0	0
3.968727	-0.02796639	-0.05953819	0	0	0.09581119	0	0	0
3.985456	-0.02799269	-0.05955738	-0.001571831	-0.001147057	-0.04720561	-0.03444869	0	0
4.001859	-0.02801898	-0.05957657	-0.001603039	-0.001170058	-0.0009419317	-0.0006942388	0	0
4.018481	-0.02801898	-0.05957657	0	0	0.04853977	0.03542918	0	0
4.034992	-0.02801898	-0.05957657	0	0	0	0	0	0
4.051558	-0.02804528	-0.05955738	-0.00158735	0.001158607	-0.04798988	0.03502782	0	0
4.071782	-0.02804528	-0.05955738	0	0	0.04314635	-0.03149253	0	0
4.088351	-0.02804528	-0.05955738	0	0	0	0	0	0
4.104917	-0.02807157	-0.05953819	-0.00158735	0.001158382	-0.04790631	0.03496004	0	0
4.121484	-0.02807157	-0.05953819	0	0	0.04790838	-0.03496154	0	0
4.138061	-0.02807157	-0.05953819	0	0	0	0	0	0
4.154617	-0.02809787	-0.059519	-0.001588264	0.001159049	-0.04793667	0.03498219	0	0
4.171211	-0.02809787	-0.059519	0	0	0.04791184	-0.03496407	0	0
4.187749	-0.02809787	-0.059519	0	0	0	0	0	0
4.204608	-0.02809787	-0.059519	0	0	0	0	0	0
4.220884	-0.02809787	-0.059519	0	0	0	0	0	0
4.237633	-0.02812416	-0.05953819	-0.001569996	-0.001145718	-0.04754061	-0.03469316	0	0
4.254143	-0.02817675	-0.05957657	-0.003185244	-0.002324684	-0.04856586	-0.03544813	0	0
4.270583	-0.02817675	-0.05961495	0	-0.002334731	0.09666922	-0.0003049134	0	0
4.287168	-0.02820305	-0.05967252	-0.001585433	-0.003471174	-0.04800737	-0.03441182	0	0
4.303716	-0.02828193	-0.0597301	-0.004766989	-0.003479201	-0.09602232	-0.0002422574	0	0
4.320284	-0.02828193	-0.0597301	0	0	0.1439488	0.1050615	0	0
4.337203	-0.02828193	-0.0597301	0	0	0	0	0	0
4.353417	-0.02830823	-0.05974929	-0.001621707	-0.001183684	-0.04894533	-0.0357252	0	0
4.369983	-0.02830823	-0.05974929	0	0	0.04947148	0.03610924	0	0
4.38655	-0.02830823	-0.05974929	0	0	0	0	0	0
4.403118	-0.02830823	-0.05974929	0	0	0	0	0	0
4.419684	-0.02828193	-0.05976848	0.001587258	-0.001158315	0.04790424	-0.03495853	0	0
4.436251	-0.02828193	-0.05976848	0	0	-0.04790562	0.03495953	0	0
4.452818	-0.02828193	-0.05976848	0	0	0	0	0	0
4.469384	-0.02828193	-0.05976848	0	0	0	0	0	0
4.485952	-0.02828193	-0.05976848	0	0	0	0	0	0
4.502821	-0.02830823	-0.05974929	-0.001558724	0.001137492	-0.04661639	0.0340187	0	0
4.519084	-0.02830823	-0.05974929	0	0	0.04704576	-0.03433204	0	0
4.535845	-0.02830823	-0.05974929	0	0	0	0	0	0
4.552356	-0.02830823	-0.05974929	0	0	0	0	0	0
4.568784	-0.02830823	-0.05974929	0	0	0	0	0	0
4.585381	-0.02830823	-0.05974929	0	0	0	0	0	0
4.601919	-0.02833452	-0.05976848	-0.001589959	-0.001160286	-0.04798367	-0.03501648	0	0
4.618484	-0.02830823	-0.05978767	0.00158735	-0.001158607	0.09598114	5.071449E-05	0	0
4.635053	-0.02833452	-0.05980686	-0.001587076	-0.001158407	-0.09580711	6.039745E-06	0	0
4.651618	-0.02833452	-0.05980686	0	0	0.04789942	0.03496179	0	0
4.668184	-0.02836081	-0.05982606	-0.001587146	-0.00115854	-0.0479043	-0.03496783	0	0
4.684952	-0.02836081	-0.05986444	0	-0.002288986	0.04761306	-0.03391243	0	0
4.701317	-0.0284134	-0.05990282	-0.003213551	-0.002345571	-0.09698934	-0.001707821	0	0
4.717885	-0.02846599	-0.05994121	-0.003174243	-0.00231688	0.00119358	0.0008712001	0	0
4.751018	-0.02857117	-0.06001798	-0.003174359	-0.002317159	-2.332956E-06	-5.616897E-06	0	0
4.767585	-0.02872894	-0.06013314	-0.009523052	-0.006951266	-0.1277409	-0.09324199	0	0
4.787792	-0.0288867	-0.06024831	-0.00780743	-0.005699399	0.04665351	0.03404246	0	0
4.804533	-0.02896558	-0.0603059	-0.004711643	-0.003439636	0.08378614	0.0611595	0	0
4.820926	-0.02899187	-0.06032509	-0.001603998	-0.001171068	0.09379027	0.06846651	0	0
4.837559	-0.02901817	-0.06034429	-0.001580776	-0.001154114	0.0007031464	0.0005133619	0	0
4.85406	-0.02901817	-0.06034429	0	0	0.0477086	0.03483174	0	0
4.887194	-0.02904446	-0.06036349	-0.0007935835	-0.0005793491	-0.01598825	-0.01167209	0	0
4.903759	-0.02907076	-0.06038268	-0.001587237	-0.001158607	-0.01596896	-0.01165514	0	0
4.963869	-0.02909705	-0.06040188	-0.0004374192	-0.0003193569	0.01499601	0.01094556	0	0
4.980437	-0.02909705	-0.06040188	0	0	0.005704675	0.004164946	0	0
4.997005	-0.02909705	-0.06040188	0	0	0	0	0	0
5.01357	-0.02912334	-0.06042107	-0.001587237	-0.001158832	-0.04790499	-0.03497512	0	0
5.031375	-0.02912334	-0.06042107	0	0	0.04618033	0.03371596	0	0
5.047943	-0.02912334	-0.06042107	0	0	0	0	0	0
5.064509	-0.02912334	-0.06042107	0	0	0	0	0	0
5.081237	-0.02914964	-0.06044027	-0.001571875	-0.001147535	-0.04721101	-0.03446601	0	0
5.097645	-0.02914964	-0.06044027	0	0	0.04743724	0.03463117	0	0
5.114254	-0.02914964	-0.06044027	0	0	0	0	0	0
5.130777	-0.02914964	-0.06044027	0	0	0	0	0	0
5.147345	-0.02914964	-0.06044027	0	0	0	0	0	0
5.16391	-0.02914964	-0.06044027	0	0	0	0	0	0
5.180802	-0.02914964	-0.06044027	0	0	0	0	0	0
5.197046	-0.02914964	-0.06044027	0	0	0	0	0	0
5.213825	-0.02914964	-0.06044027	0	0	0	0	0	0
5.230337	-0.02914964	-0.06044027	0	0	0	0	0	0
5.24685	-0.02914964	-0.06044027	0	0	0	0	0	0
5.26331	-0.02914964	-0.06044027	0	0	0	0	0	0
5.279877	-0.02914964	-0.06044027	0	0	0	0	0	0
5.296444	-0.02917593	-0.06045946	-0.0015871	-0.001158732	-0.04790016	-0.0349716	0	0
5.313011	-0.02917593	-0.06045946	0	0	0.04790016	0.0349716	0	0
5.329576	-0.02917593	-0.06045946	0	0	0	0	0	0
5.346143	-0.02917593	-0.06045946	0	0	0	0	0	0
5.36271	-0.02917593	-0.06045946	0	0	0	0	0	0
5.379277	-0.02917593	-0.06045946	0	0	0	0	0	0
5.462499	-0.02920222	-0.06047866	-0.0003159396	-0.0002306655	-0.003166087	-0.00231154	0	0
5.478677	-0.02922852	-0.06049786	-0.001625225	-0.001186566	-0.01317188	-0.009616703	0	0
5.495524	-0.02922852	-0.06049786	0	0	0.04921156	0.03592904	0	0
5.511812	-0.02925481	-0.06051705	-0.001614281	-0.001178576	-0.04871841	-0.03556899	0	0
5.528378	-0.0292811	-0.06053625	-0.001587237	-0.001158832	0.0008231818	0.0006010003	0	0
5.544944	-0.0292811	-0.06053625	0	0	0.04790705	0.03497663	0	0
5.561573	-0.0293074	-0.06055545	-0.001581139	-0.001154379	-0.04763112	-0.03477517	0	0
5.578084	-0.02933369	-0.06057464	-0.001592509	-0.00116268	-0.0003431051	-0.0002504989	0	0
5.595095	-0.02935998	-0.06059384	-0.001545638	-0.001128679	0.001398238	0.001014312	0	0
5.611214	-0.02946515	-0.06067063	-0.006524745	-0.004763905	-0.1502892	-0.1097256	0	0
5.631122	-0.0296755	-0.06082422	-0.01056552	-0.007714636	-0.1121583	-0.08190232	0	0
5.64769	-0.03009617	-0.06113141	-0.02539063	-0.01854125	-0.4064277	-0.2968098	0	0
5.664258	-0.03117411	-0.06191876	-0.06506055	-0.04752143	-1.197172	-0.8745732	0	0
5.680824	-0.03125298	-0.06197638	-0.004761262	-0.003478294	1.819888	1.329263	0	0
5.69739	-0.03125298	-0.06197638	0	0	0.1437097	0.1049857	0	0
5.713958	-0.03125298	-0.06197638	0	0	0	0	0	0
5.730523	-0.03125298	-0.06197638	0	0	0	0	0	0
5.747205	-0.03125298	-0.06197638	0	0	0	0	0	0
5.796791	-0.03125298	-0.06197638	0	0	0	0	0	0
5.813359	-0.03125298	-0.06197638	0	0	0	0	0	0
5.829924	-0.03125298	-0.06197638	0	0	0	0	0	0
5.846489	-0.03125298	-0.06197638	0	0	0	0	0	0
5.863058	-0.03125298	-0.06197638	0	0	0	0	0	0
5.879794	-0.03125298	-0.06197638	0	0	0	0	0	0
5.896306	-0.03125298	-0.06197638	0	0	0	0	0	0
5.912757	-0.03125298	-0.06197638	0	0	0	0	0	0
5.929322	-0.03125298	-0.06197638	0	0	0	0	0	0
5.945889	-0.03125298	-0.06197638	0	0	0	0	0	0
5.962456	-0.03125298	-0.06197638	0	0	0	0	0	0
5.979023	-0.03125298	-0.06197638	0	0	0	0	0	0
5.99559	-0.03125298	-0.06197638	0	0	0	0	0	0
6.012157	-0.03125298	-0.06197638	0	0	0	0	0	0
6.028723	-0.03125298	-0.06197638	0	0	0	0	0	0
6.045422	-0.03125298	-0.06197638	0	0	0	0	0	0
6.061856	-0.03125298	-0.06197638	0	0	0	0	0	0
6.078426	-0.03125298	-0.06197638	0	0	0	0	0	0
6.094991	-0.03125298	-0.06197638	0	0	0	0	0	0
6.111557	-0.03125298	-0.06197638	0	0	0	0	0	0
6.128123	-0.03125298	-0.06197638	0	0	0	0	0	0
6.144736	-0.03125298	-0.06197638	0	0	0	0	0	0
6.161256	-0.03125298	-0.06197638	0	0	0	0	0	0
6.177829	-0.03125298	-0.06197638	0	0	0	0	0	0
6.194519	-0.03125298	-0.06197638	0	0	0	0	0	0
6.210956	-0.03125298	-0.06197638	0	0	0	0	0	0
6.227549	-0.03125298	-0.06197638	0	0	0	0	0	0
6.24409	-0.03125298	-0.06197638	0	0	0	0	0	0
6.260657	-0.03125298	-0.06197638	0	0	0	0	0	0
6.277225	-0.03125298	-0.06197638	0	0	0	0	0	0
6.293792	-0.03125298	-0.06197638	0	0	0	0	0	0
6.312741	-0.03125298	-0.06197638	0	0	0	0	0	0
6.32931	-0.03125298	-0.06197638	0	0	0	0	0	0
6.346125	-0.03125298	-0.06197638	0	0	0	0	0	0
6.362636	-0.03125298	-0.06197638	0	0	0	0	0	0
6.379149	-0.03125298	-0.06197638	0	0	0	0	0	0
6.395659	-0.03125298	-0.06197638	0	0	0	0	0	0
6.412142	-0.03125298	-0.06197638	0	0	0	0	0	0
6.428711	-0.03125298	-0.06197638	0	0	0	0	0	0
6.445276	-0.03125298	-0.06197638	0	0	0	0	0	0
6.461843	-0.03125298	-0.06197638	0	0	0	0	0	0
6.478411	-0.03125298	-0.06197638	0	0	0	0	0	0
6.49523	-0.03125298	-0.06197638	0	0	0	0	0	0
6.511741	-0.03125298	-0.06197638	0	0	0	0	0	0
6.528253	-0.03125298	-0.06197638	0	0	0	0	0	0
6.544765	-0.03122669	-0.06199558	0.001592166	-0.001163189	0.04821194	-0.03522222	0	0
6.561275	-0.03122669	-0.06199558	0	0	-0.04821403	0.03522374	0	0
6.577811	-0.03122669	-0.06199558	0	0	0	0	0	0
6.594377	-0.03122669	-0.06199558	0	0	0	0	0	0
6.610944	-0.03122669	-0.06199558	0	0	0	0	0	0
6.627509	-0.03122669	-0.06199558	0	0	0	0	0	0
6.644334	-0.03122669	-0.06199558	0	0	0	0	0	0
6.660643	-0.03122669	-0.06199558	0	0	0	0	0	0
6.677358	-0.03122669	-0.06199558	0	0	0	0	0	0
6.710382	-0.03122669	-0.06199558	0	0	0	0	0	0
6.72691	-0.03122669	-0.06199558	0	0	0	0	0	0
6.743475	-0.03122669	-0.06199558	0	0	0	0	0	0
6.760042	-0.03122669	-0.06199558	0	0	0	0	0	0
6.776608	-0.03122669	-0.06199558	0	0	0	0	0	0
6.793175	-0.03122669	-0.06199558	0	0	0	0	0	0
6.809741	-0.03122669	-0.06199558	0	0	0	0	0	0
6.826462	-0.03122669	-0.06199558	0	0	0	0	0	0
6.842975	-0.03122669	-0.06199558	0	0	0	0	0	0
6.859487	-0.03122669	-0.06199558	0	0	0	0	0	0
6.876009	-0.03122669	-0.06199558	0	0	0	0	0	0
6.892576	-0.03122669	-0.06199558	0	0	0	0	0	0
6.909142	-0.03122669	-0.06199558	0	0	0	0	0	0
6.925708	-0.03122669	-0.06199558	0	0	0	0	0	0
6.942545	-0.03125298	-0.06197638	-0.001561504	0.001140789	-0.04674687	0.03415188	0	0
6.958842	-0.03125298	-0.06197638	0	0	0.04712765	-0.03443006	0	0
6.978304	-0.03125298	-0.06197638	0	0	0	0	0	0
6.994873	-0.03125298	-0.06197638	0	0	0	0	0	0
7.011438	-0.03125298	-0.06197638	0	0	0	0	0	0
7.028105	-0.03125298	-0.06197638	0	0	0	0	0	0
7.044621	-0.03122669	-0.06199558	0.00159189	-0.001162988	0.04797431	-0.03504861	0	0
7.061138	-0.03122669	-0.06199558	0	0	-0.04819107	0.03520696	0	0
7.07771	-0.03125298	-0.06197638	-0.00158644	0.001159006	-0.04794371	0.03502625	0	0
7.094276	-0.03125298	-0.06197638	0	0	0.04787265	-0.03497434	0	0
7.110839	-0.03125298	-0.06197638	0	0	0	0	0	0
7.127676	-0.03125298	-0.06197638	0	0	0	0	0	0
7.143972	-0.03125298	-0.06197638	0	0	0	0	0	0
7.1607	-0.03125298	-0.06197638	0	0	0	0	0	0
7.177214	-0.03125298	-0.06197638	0	0	0	0	0	0
7.193672	-0.03125298	-0.06197638	0	0	0	0	0	0
7.210238	-0.03125298	-0.06197638	0	0	0	0	0	0
7.226805	-0.03125298	-0.06197638	0	0	0	0	0	0
7.243373	-0.03125298	-0.06197638	0	0	0	0	0	0
7.259938	-0.03125298	-0.06197638	0	0	0	0	0	0
7.293071	-0.03122669	-0.06199558	0.0007935168	-0.0005797198	0.01596681	-0.01166488	0	0
7.309638	-0.03122669	-0.06199558	0	0	-0.01596635	0.01166454	0	0
7.326204	-0.03122669	-0.06199558	0	0	0	0	0	0
7.342771	-0.03122669	-0.06199558	0	0	0	0	0	0
7.35934	-0.03122669	-0.06199558	0	0	0	0	0	0
7.375904	-0.03122669	-0.06199558	0	0	0	0	0	0
7.392862	-0.03125298	-0.06201479	-0.001550308	-0.00113239	-0.04624731	-0.03378036	0	0
7.40938	-0.03125298	-0.0620532	0	-0.002325707	0.04631056	-0.03564659	0	0
7.425604	-0.03125298	-0.06209162	0	-0.002367814	0	-0.001286026	0	0
7.442399	-0.03148959	-0.06237974	-0.01408827	-0.01715574	-0.4266771	-0.4478666	0	0
7.458738	-0.03156846	-0.06262948	-0.004826756	-0.0152837	0.2795132	0.05649818	0	0
7.475421	-0.03212053	-0.0633788	-0.0330927	-0.04491618	-0.8559626	-0.8973447	0	0
7.49187	-0.0354851	-0.06587797	-0.20454	-0.1519308	-5.174662	-3.229939	0	0
7.508445	-0.03997869	-0.06916873	-0.2711086	-0.1985391	-2.015746	-1.411333	0	0
7.525004	-0.05006339	-0.07653403	-0.6090297	-0.4448005	-10.19877	-7.432397	0	0
7.541968	-0.05937749	-0.083319	-0.5490519	-0.3999642	1.789174	1.337495	0	0
7.558139	-0.06480387	-0.08725081	-0.3355629	-0.2431396	6.443017	4.732906	0	0
7.574994	-0.06640223	-0.08835584	-0.09483169	-0.06556205	7.2892	5.376944	0	0
7.641042	-0.06739777	-0.08866611	-0.01507271	-0.00469763	0.9620714	0.7341609	0	0
7.724801	-0.06679522	-0.08686318	0.007193789	0.02152524	0.1486341	0.1750438	0	0
7.74161	-0.06564239	-0.08477097	0.06858599	0.1244734	0.6104587	1.023674	0	0
7.757936	-0.06176345	-0.07811762	0.237594	0.4075324	5.100671	8.542738	0	0
7.774633	-0.05617767	-0.07250191	0.3345202	0.3363127	2.935038	-2.156614	0	0
7.791144	-0.04602012	-0.06501263	0.6152182	0.4536074	8.452628	3.532081	0	0
7.807657	-0.03848099	-0.0588858	0.4565604	0.3710335	-4.80441	-2.500469	0	0
7.824203	-0.03283031	-0.04669014	0.3415185	0.7370861	-3.479934	11.07282	0	0
7.84321	-0.02983325	-0.03110237	0.1576759	0.8200774	-5.170878	2.33427	0	0
7.859778	-0.02914964	-0.02715143	0.0412619	0.2384721	-3.272319	-16.34853	0	0
7.876345	-0.02625712	-0.007885925	0.1745976	1.162902	4.024078	27.89934	0	0
7.892911	-0.024837	-0.001025094	0.0857214	0.4141325	-2.682365	-22.59855	0	0
7.909478	-0.02049713	0.009371155	0.2619625	0.6275369	5.31912	6.440742	0	0
7.926045	-0.01626172	0.0149416	0.2556568	0.3362426	-0.1903108	-8.791533	0	0
7.942751	-0.01460422	0.01623446	0.09921591	0.07738913	-4.701774	-7.779745	0	0
7.959264	-0.005999928	0.02287862	0.5210661	0.4023623	12.69912	9.78279	0	0
7.975774	-0.003236831	0.02753148	0.1673589	0.2818203	-10.71097	-3.650256	0	0
7.992312	-0.002157891	0.03057407	0.06523944	0.1839742	-3.09002	-2.960713	0	0
8.008879	-0.002999991	0.03977976	-0.05083069	0.5556726	-3.506132	11.2279	0	0
8.025445	-0.005157849	0.0468828	-0.1302561	0.4287648	-2.397166	-3.83025	0	0
8.042321	-0.008447167	0.05154279	-0.1949085	0.2761277	-1.933242	-4.564167	0	0
8.058578	-0.009999666	0.05256315	-0.09550118	0.0627672	3.000291	-6.439603	0	0
8.075353	-0.01110481	0.05304541	-0.06587966	0.02874858	0.8967668	-1.029885	0	0
8.091862	-0.01065749	0.0525446	0.02709514	-0.03033544	2.793362	-1.775138	0	0
8.108278	-0.01055224	0.05187676	0.006411308	-0.04068137	-0.6281989	-0.3142214	0	0
8.124883	-0.01057855	0.05033656	-0.001584734	-0.09275835	-0.2421504	-1.577088	0	0
8.141412	-0.01036805	0.0468828	0.01273537	-0.2089506	0.4321941	-3.506789	0	0
8.157978	-0.005263109	0.04249611	0.3081525	-0.2647963	8.926241	-1.68742	0	0
8.174546	0.0005263158	0.03840223	0.3494303	-0.247093	1.245765	0.5342892	0	0
8.191428	0.006105187	0.03445295	0.3304639	-0.2339348	-0.5670064	0.3933674	0	0
8.207679	0.01181524	0.03044346	0.3513746	-0.2467289	0.6311246	-0.3861482	0	0
8.224248	0.01165737	0.03059273	-0.009528145	0.00900895	-10.99651	7.792193	0	0
8.240963	0.0104733	0.03150687	-0.07083825	0.05468973	-1.842019	1.372447	0	0
8.257379	0.01049961	0.03160014	0.001602906	0.005681571	2.18653	-1.479239	0	0
8.273947	0.01052593	0.03180531	0.001588144	0.01238384	-0.0004475617	0.2031991	0	0
8.290512	0.01042068	0.03202913	-0.006353728	0.01351131	-0.2396931	0.03402787	0	0
8.324023	0.0004210526	0.04007754	-0.2983968	0.2401708	-5.83194	4.526267	0	0
8.340212	-0.006473594	0.04506182	-0.4258946	0.3078882	-2.56536	1.362529	0	0
8.357044	-0.01515673	0.05133868	-0.5158601	0.3729046	-2.724496	1.968941	0	0
8.373345	-0.02147038	0.05641958	-0.3873131	0.3116892	3.879669	-1.847538	0	0
8.389912	-0.02851858	0.06197511	-0.4254545	0.3353517	-1.160462	0.7199388	0	0
8.406579	-0.03711453	0.06968458	-0.5157351	0.462549	-2.716542	3.827365	0	0
8.423045	-0.04171263	0.07605203	-0.2792462	0.3866997	7.137454	-2.289201	0	0
8.43961	-0.04436561	0.08399326	-0.1601522	0.4793889	3.605472	2.806086	0	0
8.522444	-0.03566908	0.1409118	0.1049883	0.6871455	2.667447	2.090137	0	0
8.539173	-0.03309318	0.1518168	0.1539749	0.6518508	0.4920172	-0.3544981	0	0
8.555577	-0.03035909	0.1648759	0.1666703	0.7960811	0.3831608	4.353004	0	0
8.572195	-0.03004359	0.1739645	0.01898583	0.5469216	-4.472316	-7.545273	0	0
8.588711	-0.03112153	0.1845398	-0.0652674	0.6403201	-2.542841	2.818852	0	0
8.60528	-0.03254114	0.1948645	-0.08567815	0.6231285	-0.6169211	-0.5196209	0	0
8.621844	-0.0332509	0.2034634	-0.04284843	0.5191181	1.292641	-3.139129	0	0
8.638412	-0.03396062	0.2155436	-0.04283654	0.7291208	0.0003588956	6.338258	0	0
8.655255	-0.03419719	0.2183676	-0.01404556	0.1676673	0.8617209	-16.80444	0	0
8.671766	-0.03582677	0.2285409	-0.09869684	0.6161555	-2.53798	13.44639	0	0
8.688114	-0.03911162	0.2397262	-0.2009344	0.6842012	-3.111417	2.07085	0	0
8.711014	-0.04126604	0.2449645	-0.09408072	0.2287528	2.72256	-11.60452	0	0
8.727581	-0.04489087	0.2478696	-0.2187956	0.1753531	-3.159991	-1.353026	0	0
8.744147	-0.0471755	0.2494295	-0.1379081	0.09415837	2.441261	-2.450533	0	0
8.760831	-0.05258306	0.2531579	-0.324125	0.2234802	-5.600532	3.889395	0	0
8.777281	-0.05510206	0.2548784	-0.1531312	0.1045858	5.160752	-3.588344	0	0
8.793868	-0.06163237	0.2594471	-0.3936944	0.2754377	-7.281591	5.171504	0	0
8.810417	-0.06472525	0.2618473	-0.1868911	0.1450326	6.240978	-3.935408	0	0
8.826982	-0.06910034	0.2662346	-0.2641111	0.2648478	-2.331913	3.618218	0	0
8.843549	-0.06959794	0.2704773	-0.03003704	0.2561057	7.064978	-0.2638588	0	0
8.860115	-0.06742396	0.2823758	0.131229	0.7182337	4.867298	13.94785	0	0
8.876912	-0.06614023	0.2866858	0.07642615	0.2565949	-1.642605	-13.83671	0	0
8.893435	-0.06252366	0.2890818	0.2188884	0.1450162	4.275646	-3.348753	0	0
8.910439	-0.06173723	0.2896182	0.04624974	0.03154445	-5.149333	-3.384548	0	0
8.926464	-0.06171102	0.2896003	0.001635818	-0.001115806	-1.350727	-0.988819	0	0
8.942952	-0.06152751	0.2894752	0.01112995	-0.007589725	0.2920049	-0.1991141	0	0
8.959515	-0.06137021	0.2893679	0.009497403	-0.006477803	-0.04939562	0.03364309	0	0
8.976083	-0.06129156	0.2893142	0.004746949	-0.003237783	-0.1433855	0.09779525	0	0
8.992666	-0.06123912	0.2892785	0.003162021	-0.002154739	-0.04780848	0.03266941	0	0
9.009214	-0.0612129	0.2892606	0.001584156	-0.001080567	-0.04762415	0.03242136	0	0
9.049318	-0.06118669	0.2892427	0.0006537664	-0.0004458765	-0.01642288	0.01120331	0	0
9.065886	-0.0610556	0.2891533	0.007912107	-0.005396305	0.1280761	-0.08735212	0	0
9.082456	-0.06100316	0.2891176	0.003164526	-0.002158398	-0.1432699	0.09771179	0	0
9.09902	-0.06089829	0.289046	0.006331323	-0.004318038	0.09557689	-0.06517995	0	0
9.115586	-0.06089829	0.289046	0	0	-0.1911017	0.1303336	0	0
9.132154	-0.06089829	0.2890103	0	-0.002158646	0	-0.06514994	0	0
9.148719	-0.06089829	0.2890103	0	0	0	0.06515182	0	0
9.181852	-0.06074098	0.2888315	0.004747809	-0.005395871	0.09553161	-0.1085714	0	0
9.19842	-0.0607672	0.2886706	-0.001582557	-0.009713908	-0.1273697	-0.08688074	0	0
9.215154	-0.06095073	0.2885097	-0.01096742	-0.009615248	-0.2818162	0.002962632	0	0
9.231552	-0.06137021	0.2881878	-0.02558043	-0.0196278	-0.4410469	-0.3021968	0	0
9.248175	-0.06150129	0.2880269	-0.007886008	-0.009679791	0.535854	0.3012633	0	0
9.264685	-0.06150129	0.2879911	0	-0.002166128	0.2380139	0.2267758	0	0
9.281254	-0.06157994	0.2878302	-0.004746676	-0.009712789	-0.1434945	-0.2281395	0	0
9.29782	-0.06163237	0.2876514	-0.003164847	-0.01079385	0.04773831	-0.03262559	0	0
9.31472	-0.06160615	0.2874547	0.00155117	-0.01163873	0.1409182	-0.02524572	0	0
9.330952	-0.06144886	0.2870255	0.009690805	-0.02643948	0.2456759	-0.4467261	0	0
9.347519	-0.0606361	0.2863639	0.04905793	-0.03993675	1.200262	-0.4115176	0	0
9.364084	-0.05885301	0.2851121	0.1076402	-0.07556671	1.768119	-1.075376	0	0
9.380651	-0.05882679	0.2849869	0.001582873	-0.007557495	-3.201094	2.052699	0	0
9.41781	-0.05887923	0.2849512	-0.001411423	-0.0009624021	-0.05573252	0.1227538	0	0
9.434804	-0.05903658	0.2848439	-0.009259121	-0.006313486	-0.144916	-0.09881335	0	0
9.450946	-0.05935127	0.2846293	-0.01949502	-0.01329501	-0.3089111	-0.2106966	0	0
9.46751	-0.06034769	0.2839139	-0.06015454	-0.04318758	-1.243173	-0.9139709	0	0
9.484076	-0.06247124	0.2822863	-0.1281851	-0.09824564	-2.053402	-1.661847	0	0
9.500643	-0.06234017	0.2821969	0.007911668	-0.005398725	4.107645	2.802287	0	0
9.517209	-0.06199938	0.2819644	0.02057106	-0.0140356	0.3820831	-0.2606766	0	0
9.533775	-0.06016415	0.2806407	0.1107816	-0.07989969	2.722715	-1.987896	0	0
9.550344	-0.0513758	0.2741104	0.5304349	-0.3941497	12.66516	-9.484083	0	0
9.566909	-0.04426055	0.2660018	0.4295269	-0.4894898	-3.045496	-2.877453	0	0
9.583476	-0.04197533	0.2485331	0.1379361	-1.054417	-8.800735	-17.05051	0	0
9.600043	-0.04168636	0.2380393	0.01744208	-0.6334034	-3.636518	12.70621	0	0
9.616609	-0.04121349	0.2156156	0.02854598	-1.353656	0.3351357	-21.73851	0	0
9.633175	-0.04032024	0.1985432	0.05391979	-1.030547	0.7658491	9.752267	0	0
9.649744	-0.03879631	0.1761171	0.09197382	-1.35349	1.14844	-9.746136	0	0
9.666308	-0.03690429	0.1596738	0.1142224	-0.992689	0.6714842	10.8893	0	0
9.682875	-0.0343549	0.1378545	0.1538904	-1.31709	1.19732	-9.79157	0	0
9.699489	-0.03196279	0.1216836	0.1439817	-0.9733332	-0.2986341	10.36029	0	0
9.716009	-0.0300173	0.1054056	0.1177625	-0.9853248	-0.7912956	-0.3619078	0	0
9.732574	-0.0272827	0.08469272	0.1650795	-1.250373	1.43013	-8.010941	0	0
9.749143	-0.02591525	0.0699801	0.08253479	-0.8880042	-2.491277	10.93664	0	0
9.766037	-0.02515259	0.05627132	0.04514304	-0.811442	-1.117422	2.287997	0	0
9.782275	-0.02504739	0.04011476	0.006478337	-0.9949719	-1.16697	-5.539263	0	0
9.799059	-0.02520519	0.02915576	-0.009401724	-0.6529545	-0.4808944	10.35728	0	0
9.815573	-0.02578376	0.01887491	-0.03503556	-0.6225597	-0.7698418	0.9128222	0	0
9.831975	-0.02628342	0.005765234	-0.03046291	-0.7992613	0.1389184	-5.368248	0	0
9.848595	-0.0264675	-0.004076777	-0.01107623	-0.59219	0.5870852	6.270721	0	0
9.865108	-0.02638861	-0.007225607	0.004777627	-0.1906895	0.4784977	12.11801	0	0
9.881674	-0.02686196	-0.01951073	-0.02857301	-0.7415743	-1.008207	-16.65354	0	0
9.89824	-0.0244951	-0.03108336	0.142872	-0.6985656	5.17452	1.298079	0	0
9.914809	-0.02183863	-0.03833361	0.1603262	-0.4375754	0.5267534	7.876472	0	0
9.931375	-0.01865573	-0.04060168	0.1921425	-0.1369169	0.9602175	9.073894	0	0
9.947942	-0.01499888	-0.04325312	0.2207282	-0.1600409	0.8627674	-0.6979246	0	0
9.964674	-0.009657594	-0.04716782	0.3192214	-0.233962	2.957802	-2.21989	0	0
9.981074	-0.006473594	-0.04944263	0.1941424	-0.1387054	-3.775109	2.875016	0	0
9.9977	-0.001763156	-0.05286774	0.2833277	-0.2060166	2.700479	-2.038146	0	0
10.01421	0.0008684208	-0.05478296	0.159402	-0.1160103	-3.740085	2.716398	0	0
10.03078	0.002552626	-0.05600937	0.1016647	-0.07403031	-1.745631	1.269223	0	0
10.04734	0.00410524	-0.05714042	0.09372137	-0.06827426	-0.2397434	0.1737279	0	0
10.06754	0.004078925	-0.05712125	-0.001302575	0.0009490874	-2.584356	1.88266	0	0
10.08412	0.004078925	-0.05712125	0	0	0.03542139	-0.02580888	0	0
10.10068	0.004078925	-0.05712125	0	0	0	0	0	0
10.11725	0.004078925	-0.05712125	0	0	0	0	0	0
10.13381	0.004078925	-0.05712125	0	0	0	0	0	0
10.15038	0.004078925	-0.05712125	0	0	0	0	0	0
10.16695	0.004078925	-0.05712125	0	0	0	0	0	0
10.18351	0.004078925	-0.05712125	0	0	0	0	0	0
10.20008	0.004078925	-0.05712125	0	0	0	0	0	0
10.21664	0.004078925	-0.05712125	0	0	0	0	0	0
10.23337	0.004078925	-0.05712125	0	0	0	0	0	0
10.24978	0.004078925	-0.0571596	0	-0.002336487	0	-0.07051531	0	0
10.26639	0.004078925	-0.05712125	0	0.002308453	0	0.1406501	0	0
10.28291	0.004078925	-0.05712125	0	0	0	-0.06967326	0	0
10.29948	0.004052609	-0.05710207	-0.001588404	0.001157349	-0.04800582	0.0349782	0	0
10.31604	0.004052609	-0.05710207	0	0	0.0479395	-0.03492987	0	0
10.33261	0.004052609	-0.05710207	0	0	0	0	0	0
10.34918	0.004052609	-0.05710207	0	0	0	0	0	0
10.36596	0.004052609	-0.05710207	0	0	0	0	0	0
10.38297	0.004078925	-0.05712125	0.001547168	-0.001127304	0.04578438	-0.0333596	0	0
10.39898	0.004078925	-0.05712125	0	0	-0.04685412	0.03413903	0	0
10.4155	0.004078925	-0.05712125	0	0	0	0	0	0
10.43201	0.004078925	-0.05712125	0	0	0	0	0	0
10.44858	0.004078925	-0.05712125	0	0	0	0	0	0
10.46515	0.004078925	-0.05712125	0	0	0	0	0	0
10.48172	0.004078925	-0.05712125	0	0	0	0	0	0
10.49828	0.004078925	-0.05712125	0	0	0	0	0	0
10.51485	0.004078925	-0.05712125	0	0	0	0	0	0
10.53141	0.004078925	-0.05712125	0	0	0	0	0	0
10.54809	0.004078925	-0.05712125	0	0	0	0	0	0
10.56461	0.004078925	-0.05712125	0	0	0	0	0	0
10.58112	0.004078925	-0.05712125	0	0	0	0	0	0
10.59768	0.004052609	-0.05710207	-0.001588678	0.001157549	-0.0480335	0.03499836	0	0
10.63115	0.004052609	-0.05710207	0	0	0.03175103	-0.02313456	0	0
10.64738	0.004052609	-0.05710207	0	0	0	0	0	0
10.66417	0.004052609	-0.05714042	0	-0.002283804	0	-0.06916622	0	0
10.68068	0.004052609	-0.05714042	0	0	0	0.06857403	0	0
10.6972	0.004052609	-0.05714042	0	0	0	0	0	0
10.71371	0.004052609	-0.05714042	0	0	0	0	0	0
10.73022	0.004052609	-0.05714042	0	0	0	0	0	0
10.74678	0.004052609	-0.05714042	0	0	0	0	0	0
10.76335	0.004078925	-0.0571596	0.001588404	-0.001157349	0.04794778	-0.0349359	0	0
10.77991	0.004078925	-0.0571596	0	0	-0.0479395	0.03492987	0	0
10.79648	0.004078925	-0.0571596	0	0	0	0	0	0
10.81658	0.004078925	-0.0571596	0	0	0	0	0	0
10.83329	0.004078925	-0.0571596	0	0	0	0	0	0
10.84971	0.004078925	-0.0571596	0	0	0	0	0	0
10.86631	0.004078925	-0.0571596	0	0	0	0	0	0
10.88285	0.004078925	-0.0571596	0	0	0	0	0	0
10.89942	0.004078925	-0.0571596	0	0	0	0	0	0
10.91598	0.004078925	-0.0571596	0	0	0	0	0	0
10.93255	0.004078925	-0.0571596	0	0	0	0	0	0
10.94937	0.004078925	-0.0571596	0	0	0	0	0	0
10.99881	0.004078925	-0.0571596	0	0	0	0	0	0
11.01542	0.004078925	-0.0571596	0	0	0	0	0	0
11.03195	0.004078925	-0.0571596	0	0	0	0	0	0
11.04852	0.004078925	-0.0571596	0	0	0	0	0	0
11.06546	0.004078925	-0.0571596	0	0	0	0	0	0
11.08197	0.004078925	-0.0571596	0	0	0	0	0	0
11.09848	0.004078925	-0.0571596	0	0	0	0	0	0
11.11478	0.004078925	-0.0571596	0	0	0	0	0	0
11.13135	0.004078925	-0.0571596	0	0	0	0	0	0
11.14791	0.004078925	-0.0571596	0	0	0	0	0	0
11.16448	0.004078925	-0.0571596	0	0	0	0	0	0
11.18105	0.004078925	-0.0571596	0	0	0	0	0	0
11.21418	0.004078925	-0.0571596	0	0	0	0	0	0
11.23107	0.004078925	-0.0571596	0	0	0	0	0	0
11.24759	0.004078925	-0.0571596	0	0	0	0	0	0
11.28186	0.004078925	-0.0571596	0	0	0	0	0	0
11.29843	0.004078925	-0.0571596	0	0	0	0	0	0
11.31513	0.004078925	-0.0571596	0	0	0	0	0	0
11.33164	0.004078925	-0.0571596	0	0	0	0	0	0
11.34816	0.004078925	-0.0571596	0	0	0	0	0	0
11.3647	0.004078925	-0.0571596	0	0	0	0	0	0
11.38127	0.004078925	-0.0571596	0	0	0	0	0	0
11.39819	0.004078925	-0.0571596	0	0	0	0	0	0
11.4147	0.004052609	-0.05714042	-0.001593817	0.001161293	-0.04766794	0.03473201	0	0
11.43096	0.004052609	-0.05714042	0	0	0.04863057	-0.0354334	0	0
11.44772	0.004052609	-0.05714042	0	0	0	0	0	0
11.46424	0.004052609	-0.05714042	0	0	0	0	0	0
11.48067	0.004052609	-0.05714042	0	0	0	0	0	0
11.51668	0.004052609	-0.05714042	0	0	0	0	0	0
11.53329	0.004026294	-0.05712125	-0.001584909	0.001154823	-0.03011884	0.0219457	0	0
11.54981	0.004026294	-0.05712125	0	0	0.04783953	-0.03485764	0	0
11.56638	0.004026294	-0.05712125	0	0	0	0	0	0
11.58295	0.004026294	-0.05712125	0	0	0	0	0	0
11.59952	0.004026294	-0.05712125	0	0	0	0	0	0
11.61608	0.004026294	-0.05712125	0	0	0	0	0	0
11.63265	0.003999979	-0.05710207	-0.001588495	0.001157416	-0.0479464	0.0349349	0	0
11.64921	0.003999979	-0.05710207	0	0	0.04794088	-0.03493087	0	0
11.66588	0.003999979	-0.05710207	0	0	0	0	0	0
11.68239	0.003999979	-0.05706373	0	0.002322495	0	0.07000237	0	0
11.69892	0.003999979	-0.05706373	0	0	0	-0.07030754	0	0
11.71548	0.003999979	-0.05706373	0	0	0	0	0	0
11.73205	0.003999979	-0.05706373	0	0	0	0	0	0
11.74861	0.003999979	-0.05706373	0	0	0	0	0	0
11.76518	0.003999979	-0.05706373	0	0	0	0	0	0
11.78175	0.003999979	-0.05706373	0	0	0	0	0	0
11.79848	0.003973663	-0.0570829	-0.00157301	-0.00114591	-0.04724646	-0.03441821	0	0
11.81499	0.003999979	-0.05706373	0.001594001	0.001161202	0.09528167	0.06941103	0	0
11.83145	0.003999979	-0.05706373	0	0	-0.04834638	-0.03521949	0	0
11.84801	0.003973663	-0.05704455	-0.001588495	0.001157416	-0.04809592	0.03504384	0	0
11.86458	0.003973663	-0.05704455	0	0	0.04794088	-0.03493087	0	0
11.88115	0.003973663	-0.05704455	0	0	0	0	0	0
11.89772	0.003973663	-0.05704455	0	0	0	0	0	0
11.91428	0.003973663	-0.05704455	0	0	0	0	0	0
11.93107	0.003973663	-0.05704455	0	0	0	0	0	0
11.94741	0.003947348	-0.05702538	-0.001609998	0.001173083	-0.04859123	0.03540473	0	0
11.96398	0.003947348	-0.05702538	0	0	0.04891646	-0.03564171	0	0
11.9811	0.003973663	-0.05700621	0.001536914	0.001119832	0.04561868	0.03323886	0	0
11.99711	0.003973663	-0.05700621	0	0	-0.04638816	-0.03379953	0	0
12.01368	0.003973663	-0.05700621	0	0	0	0	0	0
12.03064	0.003973663	-0.05700621	0	0	0	0	0	0
12.04681	0.003973663	-0.05700621	0	0	0	0	0	0
12.06338	0.003973663	-0.05700621	0	0	0	0	0	0
12.07995	0.003973663	-0.05700621	0	0	0	0	0	0
12.09652	0.003973663	-0.05700621	0	0	0	0	0	0
12.1132	0.003973663	-0.05700621	0	0	0	0	0	0
12.12965	0.003973663	-0.05700621	0	0	0	0	0	0
12.14622	0.003973663	-0.05700621	0	0	0	0	0	0
12.16278	0.003999979	-0.05702538	0.001589044	-0.001157816	0.04795882	-0.03494395	0	0
12.18248	0.003999979	-0.05702538	0	0	-0.04382403	0.03193124	0	0
12.19926	0.003999979	-0.05702538	0	0	0	0	0	0
12.21577	0.003999979	-0.05702538	0	0	0	0	0	0
12.23228	0.003999979	-0.05702538	0	0	0	0	0	0
12.24879	0.003999979	-0.05702538	0	0	0	0	0	0
12.26532	0.003999979	-0.05702538	0	0	0	0	0	0
12.28188	0.003999979	-0.05702538	0	0	0	0	0	0
12.29845	0.003999979	-0.05702538	0	0	0	0	0	0
12.31502	0.003999979	-0.05702538	0	0	0	0	0	0
12.33158	0.003999979	-0.05702538	0	0	0	0	0	0
12.34815	0.003973663	-0.05704455	-0.001588404	-0.001157349	-0.04794088	-0.03493088	0	0
12.36471	0.003973663	-0.05704455	0	0	0.0479395	0.03492987	0	0
12.38139	0.003973663	-0.05704455	0	0	0	0	0	0
12.3979	0.003973663	-0.05704455	0	0	0	0	0	0
12.41442	0.003973663	-0.05704455	0	0	0	0	0	0
12.43098	0.003973663	-0.05704455	0	0	0	0	0	0
12.44755	0.003973663	-0.05704455	0	0	0	0	0	0
12.46412	0.003973663	-0.05704455	0	0	0	0	0	0
12.48068	0.003973663	-0.05704455	0	0	0	0	0	0
12.49747	0.003973663	-0.05704455	0	0	0	0	0	0
12.51398	0.003973663	-0.05704455	0	0	0	0	0	0
12.53038	0.003973663	-0.05704455	0	0	0	0	0	0
12.547	0.003999979	-0.05702538	0.0015833	0.00115363	0.04794554	0.03493427	0	0
12.56351	0.003999979	-0.05702538	0	0	-0.04778684	-0.03481864	0	0
12.58008	0.003999979	-0.05702538	0	0	0	0	0	0
12.59704	0.003999979	-0.05702538	0	0	0	0	0	0
12.61322	0.003999979	-0.05702538	0	0	0	0	0	0
12.62978	0.003999979	-0.05702538	0	0	0	0	0	0
12.64657	0.004026294	-0.05704455	0.001567114	-0.001141837	0.04698054	-0.03423116	0	0
12.66309	0.004026294	-0.05704455	0	0	-0.04705454	0.03428507	0	0
12.6796	0.004026294	-0.0570829	0	-0.002321556	0	-0.07028926	0	0
12.69605	0.004026294	-0.0570829	0	0	0	0.07042959	0	0
12.71264	0.004026294	-0.0570829	0	0	0	0	0	0
12.72918	0.004052609	-0.05710207	0.00159039	-0.001158817	0.04799944	-0.03497416	0	0
12.74575	0.004052609	-0.05710207	0	0	-0.04802847	0.03499531	0	0
12.76232	0.004026294	-0.0570829	-0.001588376	0.001157349	-0.04793727	0.03492887	0	0
12.77888	0.004052609	-0.05710207	0.001588467	-0.001157416	0.09588007	-0.06986175	0	0
12.79545	0.004052609	-0.05710207	0	0	-0.04794279	0.03493289	0	0
12.81202	0.004052609	-0.05710207	0	0	0	0	0	0
12.82858	0.004052609	-0.05710207	0	0	0	0	0	0
12.84515	0.004052609	-0.05710207	0	0	0	0	0	0
12.86173	0.004052609	-0.05710207	0	0	0	0	0	0
12.87828	0.004052609	-0.05710207	0	0	0	0	0	0
12.9471	0.004052609	-0.05710207	0	0	0	0	0	0
12.9638	0.004052609	-0.05710207	0	0	0	0	0	0
12.98024	0.004052609	-0.05710207	0	0	0	0	0	0
12.99682	0.004052609	-0.05710207	0	0	0	0	0	0
13.01337	0.004052609	-0.05710207	0	0	0	0	0	0
13.02994	0.004052609	-0.05710207	0	0	0	0	0	0
13.04686	0.004052609	-0.05710207	0	0	0	0	0	0
13.06307	0.004052609	-0.05710207	0	0	0	0	0	0
13.07989	0.004052609	-0.05710207	0	0	0	0	0	0
13.0964	0.004052609	-0.05710207	0	0	0	0	0	0
13.14502	0.004052609	-0.05710207	0	0	0	0	0	0
13.16158	0.004052609	-0.05710207	0	0	0	0	0	0
13.17815	0.004052609	-0.05710207	0	0	0	0	0	0
13.19472	0.004052609	-0.05710207	0	0	0	0	0	0
13.21128	0.004052609	-0.05710207	0	0	0	0	0	0
13.22799	0.004052609	-0.05710207	0	0	0	0	0	0
13.2445	0.004052609	-0.05710207	0	0	0	0	0	0
13.26151	0.004052609	-0.05710207	0	0	0	0	0	0
13.27755	0.004078925	-0.05712125	0.001640727	-0.001195473	0.04964012	-0.03616898	0	0
13.29412	0.004078925	-0.05712125	0	0	-0.05031666	0.03666193	0	0
13.31105	0.004078925	-0.05712125	0	0	0	0	0	0
13.32725	0.004078925	-0.05712125	0	0	0	0	0	0
13.34382	0.004078925	-0.05712125	0	0	0	0	0	0
13.36058	0.004078925	-0.05712125	0	0	0	0	0	0
13.3936	0.004078925	-0.05712125	0	0	0	0	0	0
13.41008	0.004078925	-0.05712125	0	0	0	0	0	0
13.42665	0.004078925	-0.05712125	0	0	0	0	0	0
13.44322	0.004078925	-0.05712125	0	0	0	0	0	0
13.45978	0.004078925	-0.05712125	0	0	0	0	0	0
13.47635	0.004078925	-0.05712125	0	0	0	0	0	0
13.49293	0.004078925	-0.05712125	0	0	0	0	0	0
13.50968	0.004078925	-0.05712125	0	0	0	0	0	0
13.52619	0.004078925	-0.05712125	0	0	0	0	0	0
13.54262	0.004078925	-0.05712125	0	0	0	0	0	0
13.55922	0.004078925	-0.05712125	0	0	0	0	0	0
13.57575	0.00410524	-0.05714042	0.001591886	-0.001159886	0.04804598	-0.03500745	0	0
13.59231	0.00410524	-0.05714042	0	0	-0.0480972	0.03504477	0	0
13.60888	0.00410524	-0.05714042	0	0	0	0	0	0
13.62545	0.00410524	-0.05714042	0	0	0	0	0	0
13.64613	0.004078925	-0.05712125	-0.001272716	0.0009273313	-0.03417426	0.02490019	0	0
13.66279	0.00410524	-0.05710207	0.001579041	0.001150528	0.07636848	0.005977071	0	0
13.6793	0.00410524	-0.05710207	0	0	-0.04759529	-0.03467907	0	0
13.69583	0.004131556	-0.0570829	0.001592529	0.001160355	0.04820692	0.03512472	0	0
13.71239	0.004131556	-0.05704455	0	0.002314473	-0.04812495	0.03487654	0	0
13.72896	0.004157871	-0.05702538	0.001588495	0.001157416	0.04794226	-0.03492107	0	0
13.74553	0.004157871	-0.05702538	0	0	-0.04794364	-0.03493289	0	0
13.76236	0.004157871	-0.05702538	0	0	0	0	0	0
13.77887	0.004157871	-0.05694869	0	0.004644947	0	0.1392987	0	0
13.79523	0.004289447	-0.05685282	0.008045238	0.005861539	0.2447926	0.03701726	0	0
13.81179	0.004368393	-0.05679531	0.004764909	0.003471398	-0.09963715	-0.07259848	0	0
13.82841	0.004394709	-0.05677614	0.001583845	0.001154028	-0.09586398	-0.06983586	0	0
13.84493	0.004394709	-0.05677614	0	0	-0.04780467	-0.03483163	0	0
13.89463	0.005184164	-0.05620104	0.01588449	0.01157139	0.2398873	0.1747509	0	0
13.91119	0.00639465	-0.05531945	0.07306085	0.05320981	0.8628054	0.6283342	0	0
13.92798	0.01192049	-0.05137474	0.3292568	0.2350451	7.681819	5.452179	0	0
13.94433	0.01731406	-0.04745447	0.3299055	0.2397895	0.01958061	0.1431967	0	0
13.96089	0.0341709	-0.03526775	1.017481	0.7355917	20.88875	15.06262	0	0
13.97748	0.038008	-0.03245217	0.2313548	0.1697632	-23.71237	-17.0674	0	0
13.99403	0.05835472	-0.01756087	1.229546	0.8998765	30.12634	22.0355	0	0
14.01059	0.07148325	-0.007867058	0.7924853	0.5851533	-13.19849	-9.504107	0	0
14.02716	0.084352	0.002945436	0.7768039	0.6526809	-0.4732942	2.038104	0	0
14.04373	0.09526341	0.01608459	0.6586516	0.7931267	-3.566046	4.238906	0	0
14.06057	0.1050591	0.03614867	0.5814636	1.190983	-2.310124	11.90726	0	0
14.07686	0.1079992	0.05352762	0.1804861	1.066866	-12.10083	-3.74564	0	0
14.09343	0.1092735	0.0783567	0.07692681	1.498859	-3.152006	13.14845	0	0
14.1101	0.1092475	0.09092762	-0.001559105	0.7537494	-2.360963	-22.41391	0	0
14.12656	0.1079212	0.1152155	-0.08060586	1.476044	-2.385773	21.80015	0	0
14.14313	0.1064123	0.1326277	-0.09106415	1.050882	-0.3166892	-12.87439	0	0
14.15969	0.1037316	0.1531603	-0.161836	1.239567	-2.135961	5.694687	0	0
14.17626	0.1024558	0.1661983	-0.07701722	0.7870646	2.560205	-13.65853	0	0
14.19282	0.1016485	0.1768586	-0.04873289	0.6434899	0.8536963	-4.333467	0	0
14.20939	0.1017005	0.1880252	0.003144159	0.674059	1.565743	0.9226297	0	0
14.22596	0.1043564	0.1959647	0.1603056	0.4792311	4.743277	-5.880085	0	0
14.2427	0.1064643	0.1998772	0.1258827	0.2336427	-1.033321	-7.372196	0	0
14.25909	0.1072188	0.2011209	0.0460416	0.0758926	-2.409749	-4.76118	0	0
14.27566	0.107505	0.201247	0.01727187	0.007614624	-0.8730213	-2.071904	0	0
14.29223	0.107505	0.201247	0	0	-0.521161	-0.2297635	0	0
14.31241	0.1074529	0.2012831	-0.002578808	0.001786664	-0.07017378	0.04861818	0	0
14.32898	0.1072969	0.2013912	-0.009420057	0.006525556	-0.1861862	0.1289701	0	0
14.34577	0.1068286	0.2017156	-0.02788436	0.01931629	-0.5534466	0.383388	0	0
14.36228	0.1042262	0.2035175	-0.1575882	0.1091133	-3.894182	2.696035	0	0
14.37879	0.1027162	0.2045624	-0.09145629	0.06328518	2.002492	-1.387689	0	0
14.3953	0.09518518	0.2097668	-0.4561213	0.3152111	-11.04312	7.62905	0	0
14.41185	0.09095884	0.2126827	-0.2554255	0.1762275	6.071165	-4.204336	0	0
14.42838	0.08171239	0.219051	-0.5595019	0.3853448	-9.194245	6.323003	0	0
14.44494	0.07470284	0.2238691	-0.423146	0.2908544	4.120566	-2.855425	0	0
14.46185	0.06857651	0.2280738	-0.3622785	0.2486465	1.818252	-1.260845	0	0
14.47808	0.06687382	0.2292415	-0.1049494	0.07197125	7.766208	-5.33207	0	0
14.49464	0.06026903	0.2337671	-0.3987119	0.2731955	-8.959116	6.136902	0	0
14.51139	0.06066232	0.2334977	0.02348511	-0.01608236	12.67408	-8.683936	0	0
14.52778	0.06079341	0.233408	0.007999356	-0.005478388	-0.4673609	0.3200286	0	0
14.54441	0.06092451	0.2333182	0.00788103	-0.005396457	-0.003583239	0.002481116	0	0
14.56091	0.06097694	0.2332464	0.003178471	-0.004353575	-0.1419358	0.03147694	0	0
14.57748	0.0610556	0.2331925	0.004747174	-0.003251273	0.04744186	0.03333662	0	0
14.59404	0.06113425	0.2331386	0.004747945	-0.003251648	2.32729E-05	-1.129916E-05	0	0
14.61061	0.0612129	0.2330848	0.004747721	-0.003251648	-6.774266E-06	0	0	0
14.62747	0.0612129	0.2330848	0	0	-0.1420153	0.0972643	0	0
14.64374	0.0612129	0.2330848	0	0	0	0	0	0
14.66031	0.0612129	0.2330848	0	0	0	0	0	0
14.677	0.06123912	0.2330668	0.001569952	-0.00107534	0.04719649	-0.03232728	0	0
14.69344	0.06129156	0.2330309	0.003190274	-0.002184871	0.04890143	-0.03348571	0	0
14.71001	0.06131777	0.2330129	0.001582606	-0.001084007	-0.04871582	0.03335854	0	0
14.72657	0.06171102	0.2327077	0.0237336	-0.01842282	0.6685377	-0.5233015	0	0
14.74314	0.06186831	0.2326	0.00949422	-0.006502921	-0.4297208	0.3597227	0	0
14.75971	0.06226153	0.2322947	0.02373886	-0.01842903	0.4299413	-0.3599617	0	0
14.77627	0.06331001	0.2315764	0.06328291	-0.04335481	1.193511	-0.7523049	0	0
14.79308	0.06582581	0.2298522	0.1496742	-0.1025771	2.588372	-1.774361	0	0
14.8096	0.06611403	0.2296546	0.01745517	-0.01196647	-3.968108	2.719373	0	0
14.82597	0.06608783	0.2296367	-0.001599893	-0.001096316	-0.5793516	0.3304971	0	0
14.84262	0.06608783	0.2296367	0	0	0.04844522	0.03319675	0	0
14.87567	0.06608783	0.2296367	0	0	0	0	0	0
14.89224	0.06611403	0.2296187	0.001581658	-0.00108382	0.0318744	-0.02184171	0	0
14.90917	0.06611403	0.2296187	0	0	-0.04722483	0.03236049	0	0
14.92537	0.06611403	0.2296187	0	0	0	0	0	0
14.94194	0.06611403	0.2296187	0	0	0	0	0	0
14.95851	0.06606162	0.2296187	-0.003163498	0	-0.09547456	0	0	0
14.97508	0.06606162	0.2295828	0	-0.002168665	0.09548006	-0.0654542	0	0
14.99173	0.06603543	0.2295648	-0.001573239	-0.001079253	-0.04736185	0.0327964	0	0
15.01117	0.06595682	0.2295109	-0.004042864	-0.002771374	-0.06842259	-0.04688133	0	0
15.02775	0.06593062	0.2295289	-0.001580203	0.001082823	0.06835971	0.1069866	0	0
15.0443	0.06590442	0.2295109	-0.001583025	-0.001084757	-8.517342E-05	-0.0654158	0	0
15.06087	0.06564239	0.2293313	-0.01581841	-0.01084367	-0.4298475	-0.2946773	0	0
15.07744	0.06435836	0.2284152	-0.07749101	-0.05528867	-1.861283	-1.341353	0	0
15.094	0.06147507	0.2264389	-0.1740557	-0.1193032	-2.914245	-1.931907	0	0
15.11057	0.0568597	0.223204	-0.2786166	-0.1952774	-3.156018	-2.29317	0	0
15.12732	0.05281925	0.2202557	-0.2411886	-0.1759943	1.123372	0.5787677	0	0
15.14384	0.04504845	0.2109369	-0.4705089	-0.5642422	-6.893125	-11.67032	0	0
15.16035	0.03785034	0.1985072	-0.4360352	-0.7529445	1.043903	-5.714122	0	0
15.17684	0.03191022	0.1881877	-0.360205	-0.6257681	2.297953	3.853943	0	0
15.19341	0.02107583	0.1752127	-0.65389	-0.7830811	-8.883373	-4.758398	0	0
15.20997	0.01526197	0.1688243	-0.3509855	-0.385671	9.141938	11.99421	0	0
15.22654	0.002184207	0.1563	-0.789421	-0.7560104	-13.23353	-11.17815	0	0
15.2431	-0.01413064	0.1447491	-0.9847093	-0.6971729	-5.893815	1.775718	0	0
15.25967	-0.024837	0.1346863	-0.6463115	-0.6074671	10.21316	2.707405	0	0
15.27624	-0.03085862	0.1164586	-0.363487	-1.100287	8.536398	-14.87462	0	0
15.29294	-0.03206795	0.09994271	-0.07239508	-0.9887059	8.749162	3.353724	0	0
15.30937	-0.03264629	0.08240988	-0.03520251	-1.067191	1.122506	-2.368754	0	0
15.32597	-0.03369777	0.0598464	-0.0633577	-1.359586	-0.8525474	-8.853818	0	0
15.3425	-0.03495944	0.04552644	-0.0762951	-0.8659499	-0.3904739	14.89884	0	0
15.35907	-0.03619471	0.03180531	-0.07456573	-0.8282563	0.05224209	1.138675	0	0
15.37564	-0.03664149	0.02921175	-0.02696889	-0.1565567	1.436558	20.2731	0	0
15.3922	-0.03940065	0.02474796	-0.166534	-0.2694193	-4.212083	-3.406199	0	0
15.40902	-0.04118722	0.02358909	-0.1062352	-0.06891062	1.806149	6.0059	0	0
15.42533	-0.0439979	0.02155079	-0.1722812	-0.1249378	-1.993445	-1.691049	0	0
15.4419	-0.04523228	0.02055927	-0.07450747	-0.05984835	2.973497	1.979501	0	0
15.45847	-0.04481208	0.02025989	0.02536488	-0.01807183	3.01424	1.260854	0	0
15.47507	-0.03842844	0.01570988	0.3844102	-0.273992	10.82355	-7.714805	0	0
15.4916	-0.03477545	0.01310454	0.2210295	-0.1576401	-4.93098	3.511608	0	0
15.50859	-0.02715122	0.007662575	0.44868	-0.3202554	6.791534	-4.851328	0	0
15.52474	-0.01965536	0.002305953	0.4643455	-0.3318264	0.4727731	-0.3492031	0	0
15.5413	-0.0178139	0.0009889869	0.1111635	-0.07950138	-10.79798	7.714434	0	0
15.55787	-0.01128899	-0.003681029	0.393867	-0.2818989	8.532746	-6.108898	0	0
15.57444	-0.005236794	-0.008018006	0.3653325	-0.2617955	-0.8612226	0.6067584	0	0
15.591	-0.0009999997	-0.01105732	0.2557334	-0.1834533	-3.307803	2.364439	0	0
15.60766	0.005210479	-0.01551764	0.3727624	-0.267715	3.522007	-2.535869	0	0
15.62414	0.007684059	-0.01729593	0.15017	-0.1079596	-6.718238	4.821705	0	0
15.6407	0.01244673	-0.0207229	0.2874916	-0.2068644	4.156457	-2.993656	0	0
15.65727	0.01305189	-0.02115864	0.03652363	-0.02629805	-7.574011	5.449347	0	0
15.67383	0.01305189	-0.02115864	0	0	-1.102349	0.7937225	0	0
15.69072	0.01305189	-0.02115864	0	0	0	0	0	0
15.70697	0.01305189	-0.02115864	0	0	0	0	0	0
15.72374	0.01305189	-0.02115864	0	0	0	0	0	0
15.75948	0.01302558	-0.02113969	-0.0007363379	0.0005301778	-0.01402351	0.0100972	0	0
15.77604	0.01302558	-0.02113969	0	0	0.01407951	-0.01013753	0	0
15.79261	0.01299927	-0.02112075	-0.00158827	0.001143699	-0.04793823	0.03451987	0	0
15.80917	0.01299927	-0.02112075	0	0	0.04793547	-0.03451788	0	0
15.82581	0.01299927	-0.02112075	0	0	0	0	0	0
15.84231	0.01299927	-0.02112075	0	0	0	0	0	0
15.85888	0.01297296	-0.0211018	-0.001588031	0.001143567	-0.04803333	0.03458958	0	0
15.87544	0.01297296	-0.0211018	0	0	0.04792826	-0.03451391	0	0
15.89201	0.01297296	-0.0211018	0	0	0	0	0	0
15.90858	0.01294664	-0.02108286	-0.001587996	0.001143389	-0.04792444	0.03450654	0	0
15.92514	0.01292033	-0.02106391	-0.001588397	0.00114383	-1.210057E-05	1.332679E-05	0	0
15.9419	0.01292033	-0.02106391	0	0	0.04767173	-0.03432918	0	0
15.95841	0.01281509	-0.02098813	-0.006373572	0.004589252	-0.1915828	0.137948	0	0
15.97492	0.01273615	-0.02093129	-0.004781269	0.003442762	0.04821956	-0.03471904	0	0
15.99141	0.01268353	-0.0208934	-0.003191422	0.002297887	0.04817999	-0.0346952	0	0
16.00797	0.01268353	-0.0208934	0	0	0.09654795	-0.06951644	0	0
16.02455	0.01268353	-0.0208934	0	0	0	0	0	0
16.04111	0.01268353	-0.0208934	0	0	0	0	0	0
16.05798	0.01270984	-0.02091235	0.001559806	-0.001123091	0.04665872	-0.03359521	0	0
16.07425	0.01270984	-0.02091235	0	0	-0.04706961	0.03389106	0	0
16.09082	0.01270984	-0.02091235	0	0	0	0	0	0
16.10738	0.01270984	-0.02091235	0	0	0	0	0	0
16.12402	0.01270984	-0.02091235	0	0	0	0	0	0
16.14051	0.01268353	-0.0208934	-0.001596265	0.001149342	-0.04818092	0.03469121	0	0
16.15707	0.01265722	-0.02087446	-0.001588179	0.00114352	0.0002446584	-0.0001761594	0	0
16.17364	0.01263091	-0.0208934	-0.001587996	-0.001143389	5.519267E-06	-0.06901508	0	0
16.19057	0.0126046	-0.02087446	-0.001554007	0.001118916	0.001014572	0.06753013	0	0
16.20677	0.0126046	-0.02087446	0	0	0.04690543	-0.03377284	0	0
16.22334	0.0126046	-0.02087446	0	0	0	0	0	0
16.23991	0.01257828	-0.0208934	-0.001588306	-0.001143652	-0.04793792	-0.03451747	0	0
16.25647	0.01255197	-0.02087446	-0.001588179	0.00114352	3.822823E-06	0.06903097	0	0
16.27313	0.01255197	-0.02087446	0	0	0.04779926	-0.03441641	0	0
16.28964	0.01252566	-0.02085551	-0.001593867	0.001147503	-0.04805598	0.03459786	0	0
16.30617	0.01249935	-0.02083657	-0.001591477	0.001145895	7.234514E-05	-4.867874E-05	0	0
16.32274	0.01244673	-0.02083657	-0.003176358	0	-0.04788141	-0.03461904	0	0
16.33968	0.01242041	-0.02085551	-0.001553657	-0.001118664	0.0484351	-0.03339038	0	0
16.35587	0.01228886	-0.02083657	-0.008122304	0.001169644	-0.1982536	0.06906525	0	0
16.37244	0.01223623	-0.02083657	-0.003176414	0	0.150953	-0.03569859	0	0
16.38921	0.01218361	-0.02083657	-0.003138062	0	0.001150435	0	0	0
16.40572	0.01213098	-0.02083657	-0.003187367	0	-0.001481523	0	0	0
16.42224	0.01207836	-0.02087446	-0.003186319	-0.002294059	3.173194E-05	-0.06946276	0	0
16.43871	0.01205205	-0.0208934	-0.001597559	-0.001150274	0.04816512	0.03467519	0	0
16.45527	0.01205205	-0.0208934	0	0	0.04835918	0.03481957	0	0
16.47477	0.01205205	-0.0208934	0	0	0	0	0	0
16.49134	0.01205205	-0.0208934	0	0	0	0	0	0
16.50791	0.01205205	-0.0208934	0	0	0	0	0	0
16.52448	0.01205205	-0.0208934	0	0	0	0	0	0
16.54104	0.01205205	-0.0208934	0	0	0	0	0	0
16.55761	0.01205205	-0.0208934	0	0	0	0	0	0
16.65701	0.01205205	-0.0208934	0	0	0	0	0	0
16.67392	0.01205205	-0.0208934	0	0	0	0	0	0
16.69042	0.01205205	-0.0208934	0	0	0	0	0	0
16.70671	0.01205205	-0.0208934	0	0	0	0	0	0
16.72328	0.01205205	-0.0208934	0	0	0	0	0	0
16.73996	0.01205205	-0.0208934	0	0	0	0	0	0
16.75647	0.01205205	-0.0208934	0	0	0	0	0	0
16.77298	0.01207836	-0.02091235	0.001593499	-0.001147351	0.04825579	-0.03474513	0	0
16.78954	0.01207836	-0.02091235	0	0	-0.04818065	0.03469102	0	0
16.80611	0.01205205	-0.02093129	-0.001588179	-0.00114352	-0.04793961	-0.03451747	0	0
16.82398	0.01205205	-0.02093129	0	0	0.04612326	0.03320966	0	0
16.84055	0.01202574	-0.02095024	-0.001587813	-0.001143257	-0.04610753	-0.03319833	0	0
16.87368	0.01197311	-0.02102602	-0.001588116	-0.002286965	-6.082204E-06	-0.0230088	0	0
16.89057	0.01152581	-0.02134811	-0.02649018	-0.01907479	-0.497821	-0.335608	0	0
16.90681	0.01097324	-0.02174603	-0.03401846	-0.02449823	-0.227243	-0.1637081	0	0
16.92338	0.000736842	-0.02912627	-0.6179416	-0.4455231	-17.79803	-12.83288	0	0
16.93995	-0.006999886	-0.03471584	-0.4669361	-0.3373486	4.557357	3.264715	0	0
16.95651	-0.01702467	-0.04197479	-0.605167	-0.4382016	-4.171817	-3.043752	0	0
16.97313	-0.0243899	-0.04732069	-0.4431885	-0.3216792	4.881216	3.511399	0	0
16.98965	-0.02891299	-0.0506094	-0.2738657	-0.1991258	5.11017	3.698668	0	0
17.00621	-0.03742988	-0.05681448	-0.5141395	-0.3745824	-7.263185	-5.303838	0	0
17.02278	-0.04373525	-0.06141944	-0.3805929	-0.277956	4.030677	2.916357	0	0
17.03968	-0.05213692	-0.06757098	-0.4972225	-0.3640569	-3.485182	-2.572905	0	0
17.05591	-0.05769904	-0.07165378	-0.3425531	-0.2514463	4.667933	3.398593	0	0
17.07271	-0.06462043	-0.0767464	-0.4121762	-0.3032712	-2.107903	-1.569047	0	0
17.08905	-0.0691789	-0.08010805	-0.2789394	-0.2057041	4.021093	2.944582	0	0
17.10561	-0.07417943	-0.0838029	-0.3018675	-0.2230471	-0.6967421	-0.5270229	0	0
17.12218	-0.0783655	-0.08682442	-0.2527009	-0.1824005	1.484021	1.226858	0	0
17.13875	-0.08064053	-0.08851097	-0.1373209	-0.1018	3.482374	2.43267	0	0
17.15531	-0.08064053	-0.08851097	0	0	4.144353	3.072329	0	0
17.17188	-0.08061439	-0.08849158	0.00157806	0.001170166	0.04762595	0.03531568	0	0
17.18845	-0.08061439	-0.08845279	0	0.002341232	-0.04762595	0.03534283	0	0
17.26917	-0.08030064	-0.08825889	0.003886683	0.002402007	0.03994866	0.0006246744	0	0
17.28585	-0.08016991	-0.08812317	0.007840204	0.008140031	0.04059108	0.0589127	0	0
17.30236	-0.08006532	-0.08804561	0.006334289	0.004696795	-0.04537809	-0.1037558	0	0
17.31887	-0.07975154	-0.08781296	0.01900112	0.01408831	0.3835443	0.2843695	0	0
17.33798	-0.079307	-0.08748341	0.02326476	0.01724708	0.1196924	0.08867568	0	0
17.35455	-0.07810395	-0.08659188	0.0726076	0.0538066	1.383045	1.024738	0	0
17.37111	-0.07752851	-0.0861656	0.03473796	0.02573312	-1.142908	-0.8472593	0	0
17.38769	-0.07478134	-0.08409329	0.1657046	0.1249987	3.951445	2.994978	0	0
17.40425	-0.06752875	-0.07873585	0.4380702	0.3235991	8.220008	5.993773	0	0
17.42094	-0.06102938	-0.07394817	0.389344	0.2868059	-1.465496	-1.106599	0	0
17.43745	-0.05434119	-0.06907246	0.4050527	0.2952844	0.4730797	0.2553394	0	0
17.45395	-0.04594133	-0.06291765	0.5092439	0.3731372	3.156672	2.358699	0	0
17.47051	-0.04376152	-0.06128503	0.1315891	0.09855669	-11.42329	-8.305502	0	0
17.48708	-0.03183135	-0.05261886	0.7201064	0.523091	17.76251	12.81321	0	0
17.50365	-0.02552077	-0.04802784	0.3809071	0.2771146	-10.23705	-7.423582	0	0
17.52022	-0.0215756	-0.04516208	0.2381313	0.1729773	-4.308985	-3.142872	0	0
17.53678	-0.01305189	-0.03898146	0.514492	0.3730633	8.340582	6.038609	0	0
17.55335	-0.01170999	-0.03800974	0.08099724	0.05865311	-13.0829	-9.488918	0	0
17.57005	-0.007631431	-0.03513452	0.2442422	0.1721806	4.907251	3.412712	0	0
17.58648	-0.006947257	-0.03463972	0.04163235	0.03010864	-6.115128	-4.287988	0	0
17.60308	-0.006973571	-0.03465875	-0.001585974	-0.001146863	-1.308625	-0.9463981	0	0
17.61962	-0.006973571	-0.03465875	0	0	0.04786754	0.03461439	0	0
17.63618	-0.006973571	-0.03465875	0	0	0	0	0	0
17.65275	-0.006973571	-0.03465875	0	0	0	0	0	0
17.66932	-0.006973571	-0.03465875	0	0	0	0	0	0
17.68613	-0.006973571	-0.03465875	0	0	0	0	0	0
17.70264	-0.006973571	-0.03465875	0	0	0	0	0	0
17.71902	-0.006973571	-0.03465875	0	0	0	0	0	0
17.73567	-0.006999886	-0.03467778	-0.001580161	-0.001142883	-0.04784635	-0.03460584	0	0
17.75218	-0.006999886	-0.03467778	0	0	0.04764822	0.03446253	0	0
17.76872	-0.006999886	-0.03467778	0	0	0	0	0	0
17.78529	-0.006999886	-0.03471584	0	-0.002297159	0	-0.06938832	0	0
17.80185	-0.0070262	-0.03473487	-0.001588347	-0.00114858	-0.04793642	0.0346642	0	0
17.81873	-0.007078829	-0.03477293	-0.003118885	-0.002255576	-0.04576754	-0.03310242	0	0
17.83499	-0.007105144	-0.03483002	-0.001618534	-0.003511455	0.04528327	-0.03790468	0	0
17.85155	-0.007368288	-0.03502033	-0.01588339	-0.01148692	-0.4345667	-0.2429658	0	0
17.86826	-0.007447231	-0.03511549	-0.004724223	-0.005694627	0.3353366	0.1740603	0	0
17.88469	-0.007473545	-0.03513452	-0.001602368	-0.001158945	0.09422319	0.136895	0	0
17.90129	-0.007526174	-0.03517259	-0.003170097	-0.002292858	-0.04747267	-0.03433619	0	0
17.91782	-0.007499859	-0.03519162	0.001591646	-0.00115119	0.1437097	0.03445559	0	0
17.93481	-0.007526174	-0.03521065	-0.001548764	-0.001120175	-0.09367768	0.0009251848	0	0
17.95095	-0.007552488	-0.03522968	-0.001630172	-0.001179075	-0.002457038	-0.001777732	0	0
17.96783	-0.007552488	-0.03522968	0	0	0.04936349	0.03570377	0	0
17.98409	-0.007552488	-0.03522968	0	0	0	0	0	0
18.00086	-0.007552488	-0.03522968	0	0	0	0	0	0
18.01722	-0.007552488	-0.03522968	0	0	0	0	0	0
18.03622	-0.007552488	-0.03522968	0	0	0	0	0	0
18.05279	-0.007552488	-0.03522968	0	0	0	0	0	0
18.08593	-0.007552488	-0.03522968	0	0	0	0	0	0
18.10249	-0.007578802	-0.03524872	-0.00158853	-0.001148937	-0.0319613	-0.02311665	0	0
18.11906	-0.007578802	-0.03524872	0	0	0.04794746	0.03467897	0	0
18.13562	-0.007578802	-0.03524872	0	0	0	0	0	0
18.15219	-0.007605116	-0.03526775	-0.001588319	-0.001148804	-0.04793558	-0.03467099	0	0
18.16876	-0.007605116	-0.03526775	0	0	0.04793558	0.03467099	0	0
18.18549	-0.007657745	-0.03530582	-0.00314624	-0.002275825	-0.0944968	-0.06835402	0	0
18.202	-0.007657745	-0.03530582	0	0	0.09465405	0.06846777	0	0
18.21851	-0.007657745	-0.03530582	0	0	0	0	0	0
18.23502	-0.007684059	-0.03532485	-0.001593668	-0.001152653	-0.04825534	-0.03490165	0	0
18.25159	-0.007684059	-0.03532485	0	0	0.04817743	0.0348453	0	0
18.26816	-0.007657745	-0.03534388	0.001588347	-0.001148804	0.04793642	-0.03467099	0	0
18.28473	-0.007657745	-0.03534388	0	0	-0.04793642	0.03467099	0	0
18.33442	-0.007684059	-0.03536291	-0.0005294695	-0.0003829495	-0.007989941	-0.005778886	0	0
18.36756	-0.007736688	-0.03540098	-0.001588319	-0.001148917	-0.01278276	-0.00924699	0	0
18.38413	-0.007736688	-0.03540098	0	0	0.0319546	0.02311448	0	0
18.40069	-0.007763002	-0.03542002	-0.001588896	-0.001149201	-0.04795574	-0.03468496	0	0
18.41726	-0.007763002	-0.03542002	0	0	0.0479585	0.03468696	0	0
18.45039	-0.007789316	-0.03543905	-0.0007942054	-0.0005745477	-0.01597944	-0.01155992	0	0
18.46719	-0.007789316	-0.03543905	0	0	0.0159068	0.01150737	0	0
18.4837	-0.00781563	-0.03545808	-0.001593456	-0.00115252	-0.04783726	-0.03459988	0	0
18.5001	-0.00781563	-0.03545808	0	0	0.0484251	0.03502506	0	0
18.51666	-0.00781563	-0.03545808	0	0	0	0	0	0
18.53323	-0.00781563	-0.03545808	0	0	0	0	0	0
18.5498	-0.00781563	-0.03545808	0	0	0	0	0	0
18.56636	-0.00781563	-0.03545808	0	0	0	0	0	0
18.58293	-0.00781563	-0.03545808	0	0	0	0	0	0
18.5995	-0.00781563	-0.03545808	0	0	0	0	0	0
18.61606	-0.007841945	-0.03547712	-0.001588347	-0.001149029	-0.04793918	-0.03467977	0	0
18.63263	-0.007841945	-0.03547712	0	0	0.04793642	0.03467777	0	0
18.64932	-0.007841945	-0.03547712	0	0	0	0	0	0
18.66583	-0.007868258	-0.03549615	-0.001593612	-0.001152653	-0.04799584	-0.03471519	0	0
18.68235	-0.007868258	-0.03549615	0	0	0.04825084	0.03489963	0	0
18.6989	-0.007868258	-0.03549615	0	0	0	0	0	0
18.71547	-0.007868258	-0.03549615	0	0	0	0	0	0
18.73203	-0.007841945	-0.03551519	0.001588291	-0.001149029	0.04793473	-0.03467777	0	0
18.7489	-0.007868258	-0.03553422	-0.001560622	-0.001128791	-0.09419933	0.0006054168	0	0
18.76517	-0.007894573	-0.03555326	-0.001617206	-0.001169906	-0.001707814	-0.001240917	0	0
18.80122	-0.007920887	-0.03557229	-0.0007299675	-0.0005279638	0.01695777	0.01226943	0	0
18.81794	-0.007947201	-0.03559133	-0.001573078	-0.001138024	-0.01597517	-0.01155935	0	0
18.83446	-0.007947201	-0.03559133	0	0	0.04732305	0.03423527	0	0
18.85097	-0.007947201	-0.03559133	0	0	0	0	0	0
18.86748	-0.007947201	-0.03559133	0	0	0	0	0	0
18.88405	-0.007947201	-0.03559133	0	0	0	0	0	0
18.90062	-0.007947201	-0.03559133	0	0	0	0	0	0
18.91718	-0.007947201	-0.03559133	0	0	0	0	0	0
18.93375	-0.007947201	-0.03559133	0	0	0	0	0	0
18.95054	-0.007947201	-0.03559133	0	0	0	0	0	0
18.96688	-0.007973515	-0.03561036	-0.001609847	-0.001164582	-0.04858807	-0.03514918	0	0
18.98356	-0.007973515	-0.03561036	0	0	0.04874802	0.0352649	0	0
19.00002	-0.007973515	-0.03561036	0	0	0	0	0	0
19.01659	-0.007973515	-0.03561036	0	0	0	0	0	0
19.03315	-0.007973515	-0.03561036	0	0	0	0	0	0
19.04972	-0.007973515	-0.03561036	0	0	0	0	0	0
19.06662	-0.007999829	-0.03559133	-0.001556748	0.00112621	-0.04651417	0.03365009	0	0
19.08286	-0.008078772	-0.03553422	-0.004862962	0.003517736	-0.09977601	0.07217226	0	0
19.09942	-0.008105085	-0.03551519	-0.001588474	0.001148937	0.09983571	-0.07222221	0	0
19.11599	-0.01097324	-0.03336504	-0.1731423	0.1297979	-5.178102	3.883081	0	0
19.13255	-0.01444636	-0.03081728	-0.2096379	0.1537836	-1.101502	0.723932	0	0
19.14912	-0.02299595	-0.02457085	-0.5160537	0.3770352	-9.247647	6.737746	0	0
19.16571	-0.04244817	-0.01041524	-1.172384	0.8531573	-19.79328	14.35865	0	0
19.18225	-0.0557317	-0.0001590782	-0.8030898	0.6200625	11.14596	-7.035219	0	0
19.19882	-0.06509212	0.007794035	-0.5649313	0.4799956	7.193019	-4.230395	0	0
19.21539	-0.08299313	0.02670972	-1.080632	1.141885	-15.56387	19.97585	0	0
19.23195	-0.09033244	0.03788086	-0.4430014	0.6742913	19.24483	-14.11281	0	0
19.29822	-0.121426	0.1165317	-0.4692161	1.186878	-0.3164724	6.188101	0	0
19.31479	-0.1275149	0.1338484	-0.3675252	1.045234	1.227643	-1.709969	0	0
19.33136	-0.1304394	0.1418759	-0.1765224	0.484545	5.764478	-16.92163	0	0
19.34793	-0.134809	0.1585676	-0.2637193	1.007393	-2.631457	15.77869	0	0
19.36484	-0.1365657	0.1716483	-0.1038718	0.7734384	4.77419	-6.987569	0	0
19.38135	-0.1382699	0.1895777	-0.1032012	1.085721	0.0200633	9.342423	0	0
19.39762	-0.1401024	0.2024724	-0.1126037	0.7923745	-0.2867724	-8.946946	0	0
19.41419	-0.1420886	0.2185474	-0.1198894	0.9702907	-0.2218511	5.417548	0	0
19.43076	-0.1434809	0.2293672	-0.08403879	0.653084	1.081974	-9.573318	0	0
19.4474	-0.1458516	0.2377701	-0.1424742	0.5049889	-1.759736	-4.459763	0	0
19.46391	-0.1534936	0.243996	-0.4628681	0.3770966	-9.665053	-3.85802	0	0
19.4838	-0.1605278	0.2489096	-0.353624	0.247017	3.001065	-3.573444	0	0
19.50037	-0.1648841	0.2519571	-0.2629465	0.1839481	2.487113	-1.72986	0	0
19.51694	-0.1684669	0.2544662	-0.2162577	0.1514506	1.409072	-0.9807773	0	0
19.5335	-0.1684925	0.2544841	-0.001544331	0.001082921	6.480062	-4.538105	0	0
19.55007	-0.1684925	0.2544841	0	0	0.04660802	-0.03268262	0	0
19.56664	-0.1684925	0.2544841	0	0	0	0	0	0
19.5832	-0.1684925	0.2544841	0	0	0	0	0	0
19.59977	-0.168518	0.2545021	-0.001543432	0.001081122	-0.04658087	0.03262833	0	0
19.61634	-0.1685436	0.25452	-0.001543432	0.001081122	0	0	0	0
19.6329	-0.1686203	0.2545737	-0.004631728	0.003245538	-0.09321033	0.06532598	0	0
19.64947	-0.1687226	0.2546454	-0.006174627	0.004328086	-0.04656746	0.03267322	0	0
19.66605	-0.1689784	0.2548246	-0.01542369	0.01080791	-0.2790248	0.1954826	0	0
19.6826	-0.1691318	0.2549321	-0.009269129	0.006494512	0.1857557	-0.130186	0	0
19.69917	-0.1693875	0.2551113	-0.01543342	0.01081662	-0.1861244	0.1305015	0	0
19.71574	-0.1736031	0.2580677	-0.2544567	0.1784481	-7.213737	5.059127	0	0
19.7323	-0.1776341	0.2609338	-0.2433371	0.1730192	0.3356092	-0.1638529	0	0
19.74887	-0.1859834	0.2668433	-0.5039674	0.3566965	-7.866291	5.54371	0	0
19.76544	-0.1912393	0.2705489	-0.3172445	0.2236681	5.635307	-4.014804	0	0
19.78213	-0.1948892	0.2731261	-0.218601	0.1543544	2.965461	-2.083735	0	0
19.79857	-0.1963073	0.2741283	-0.08627749	0.06097503	3.99376	-2.818358	0	0
19.81516	-0.1963073	0.2741283	0	0	2.612432	-1.846288	0	0
19.8317	-0.196282	0.2741104	0.001530256	-0.001082618	0.04618321	-0.03267346	0	0
19.84827	-0.196282	0.2741104	0	0	-0.04621513	0.03269605	0	0
19.86484	-0.196282	0.2741104	0	0	0	0	0	0
19.89822	-0.1962566	0.2740925	0.0007584388	-0.0005356836	0.01518465	-0.01072488	0	0
19.91454	-0.1962566	0.2740925	0	0	-0.01525982	0.01077798	0	0
19.93111	-0.1962313	0.2740746	0.001528142	-0.001081122	0.04646444	-0.03287243	0	0
19.94767	-0.196206	0.2740567	0.001528142	-0.001079323	0	5.42929E-05	0	0
19.96424	-0.1961554	0.2740209	0.003056283	-0.002160445	0.0461194	-0.03262832	0	0
19.98081	-0.1961554	0.2740209	0	0	-0.09223881	0.06520236	0	0
19.99738	-0.1961554	0.2740209	0	0	0	0	0	0
20.01431	-0.1961554	0.2740209	0	0	0	0	0	0
20.03051	-0.1961554	0.2740209	0	0	0	0	0	0
20.06364	-0.1961301	0.274003	0.0007640708	-0.0005396615	0.01548605	-0.01093776	0	0
20.08021	-0.1961047	0.2739851	0.001528142	-0.001081122	0.01537313	-0.01089421	0	0
20.09678	-0.1960288	0.2739314	0.004584425	-0.003239768	0.09223881	-0.06514806	0	0
20.11334	-0.1959275	0.2738599	0.00611327	-0.004321388	0.04614329	-0.03264522	0	0
20.12991	-0.1958769	0.2738241	0.003055931	-0.002160196	-0.09227066	0.06522489	0	0
20.14648	-0.1958516	0.2738062	0.001528493	-0.001081371	-0.04610082	0.03256089	0	0
20.20136	-0.1947879	0.2730545	0.01937962	-0.01369461	0.2498499	-0.1765389	0	0
20.21795	-0.1940786	0.2725534	0.04276661	-0.03021145	0.3272269	-0.2311008	0	0
20.2345	-0.193141	0.2718913	0.05666134	-0.0400152	0.4193438	-0.2958778	0	0
20.25147	-0.1928875	0.2717123	0.01492985	-0.01054306	-1.24477	0.8790972	0	0
20.26763	-0.1928875	0.2717123	0	0	-0.4505839	0.3181901	0	0
20.2845	-0.1928621	0.2716944	0.001502778	-0.001060161	0.04550585	-0.03210289	0	0
20.30076	-0.1928621	0.2716944	0	0	-0.04535653	0.03199755	0	0
20.31752	-0.1928621	0.2716944	0	0	0	0	0	0
20.33403	-0.1928368	0.2716765	0.001536145	-0.001084869	0.04617225	-0.03260814	0	0
20.35055	-0.1928114	0.2716586	0.001534888	-0.001082814	-3.806854E-05	6.223725E-05	0	0
20.36703	-0.1927861	0.2716407	0.001537552	-0.001086501	8.072403E-05	-0.0001117302	0	0
20.3836	-0.192634	0.2715333	0.009181599	-0.006482081	0.2312836	-0.1632524	0	0
20.40016	-0.1920762	0.2711395	0.03366858	-0.02376849	0.7390611	-0.521735	0	0
20.41673	-0.1894885	0.269278	0.1561754	-0.11235	3.697049	-2.673241	0	0
20.43361	-0.1793162	0.2616503	0.602897	-0.4520811	13.35828	-10.15895	0	0
20.45012	-0.1724285	0.2561327	0.4171835	-0.3341956	-5.563212	3.531365	0	0
20.46643	-0.1611945	0.245646	0.6884698	-0.6426697	8.264027	-9.396854	0	0
20.48314	-0.1467274	0.2269599	0.8659575	-1.118495	5.374533	-14.40855	0	0
20.49957	-0.1360491	0.2024544	0.6500813	-1.491868	-6.515532	-11.26907	0	0
20.51616	-0.1313189	0.1809624	0.2850247	-1.295025	-11.05497	5.960972	0	0
20.5327	-0.1281621	0.1577151	0.1908953	-1.405798	-2.840993	-3.343306	0	0
20.54926	-0.1253136	0.1258086	0.1719551	-1.926099	-0.5721784	-15.71811	0	0
20.56583	-0.1235517	0.1019966	0.1063488	-1.437296	-1.980114	14.75295	0	0
20.5824	-0.1218408	0.07916764	0.1032656	-1.377959	-0.09305316	1.790798	0	0
20.59896	-0.1202849	0.05792034	0.0939155	-1.28249	-0.2821861	2.881267	0	0
20.6321	-0.1173271	0.01518522	0.08927325	-1.289823	-0.09340581	-0.1475395	0	0
20.64875	-0.1155618	-0.004661062	0.1059813	-1.191477	0.3355752	1.975231	0	0
20.66527	-0.1148866	-0.01822331	0.04088951	-0.8213612	-1.962442	11.15855	0	0
20.6818	-0.1141594	-0.03051321	0.0439914	-0.7434459	0.09387458	2.358004	0	0
20.69836	-0.1130164	-0.04495203	0.06899302	-0.8715294	0.7553768	-3.869801	0	0
20.7153	-0.1124187	-0.05307836	0.03528735	-0.4798438	-1.006062	11.69121	0	0
20.73181	-0.1090655	-0.05761982	0.2030582	-0.2750096	5.015696	6.123745	0	0
20.74806	-0.1078431	-0.0582911	0.07521915	-0.04130813	-3.901763	7.132779	0	0
20.76484	-0.1053194	-0.06015234	0.1504113	-0.1109272	2.27651	-2.10778	0	0
20.7812	-0.1045906	-0.06068983	0.04455676	-0.03286284	-3.194696	2.355986	0	0
20.79776	-0.1043564	-0.06086262	0.01414211	-0.01043061	-0.9238723	0.6813991	0	0
20.81437	-0.1038097	-0.06126582	0.03291712	-0.02427891	0.5659794	-0.4174619	0	0
20.8309	-0.1036535	-0.06138104	0.009452729	-0.006972097	-0.7081975	0.5223507	0	0
20.84746	-0.1036014	-0.06134263	0.003142629	0.002318296	-0.1906807	0.2807402	0	0
20.86441	-0.1034973	-0.06126582	0.006146308	0.004533326	0.08963475	0.06610015	0	0
20.8806	-0.103315	-0.06113141	0.01125716	0.008302161	0.1542547	0.1137502	0	0
20.89716	-0.1032369	-0.06107381	0.004714843	0.003476769	-0.1997239	-0.1473096	0	0
20.91373	-0.1032109	-0.06105461	0.001571315	0.001158923	-0.09487188	-0.06995274	0	0
20.9303	-0.1032109	-0.06105461	0	0	-0.04742237	-0.03497637	0	0
21.00138	-0.1027683	-0.06068983	0.0062269	0.005131663	0.07104099	0.05854574	0	0
21.01795	-0.1027422	-0.06067063	0.001571764	0.001158698	-0.05310916	-0.04532647	0	0
21.03454	-0.1027162	-0.06065143	0.001569776	0.001157457	-5.996073E-05	-3.742586E-05	0	0
21.05108	-0.1027162	-0.06061304	0	0.002320335	-0.04737594	0.03509572	0	0
21.06765	-0.1025599	-0.06049786	0.009431671	0.006953215	0.2848452	0.1399172	0	0
21.08422	-0.1025079	-0.06045946	0.003143166	0.00231713	-0.1897875	-0.1399173	0	0
21.10078	-0.1017526	-0.05990282	0.04559616	0.03360661	1.281308	0.9443729	0	0
21.11735	-0.1003981	-0.05890498	0.08175692	0.06022982	1.09146	0.8035825	0	0
21.13392	-0.09867845	-0.05763899	0.1038007	0.0764154	0.6652839	0.4884816	0	0
21.15048	-0.09867845	-0.05763899	0	0	-3.132713	-2.306221	0	0
21.16712	-0.09867845	-0.05763899	0	0	0	0	0	0
21.18364	-0.09865239	-0.05761982	0.001578019	0.001160958	0.04759456	0.03501561	0	0
21.20018	-0.09865239	-0.05761982	0	0	-0.04773185	-0.03511661	0	0
21.21675	-0.09865239	-0.05761982	0	0	0	0	0	0
21.23332	-0.09854815	-0.05750475	0.006292004	0.006945219	0.1898931	0.2096071	0	0
21.24989	-0.09095884	-0.05185319	0.4580917	0.3411293	13.63534	10.08569	0	0
21.26645	-0.08369873	-0.0465373	0.4382209	0.3208677	-0.5997016	-0.6114959	0	0
21.32665	-0.0575679	-0.02756908	0.4340827	0.315098	-0.05390736	-0.07516011	0	0
21.35979	-0.0499584	-0.0221061	0.229642	0.1648635	-2.190416	-1.60964	0	0
21.37635	-0.043315	-0.01739055	0.4010426	0.2846642	3.448587	2.410395	0	0
21.39292	-0.04271085	-0.01695533	0.03646628	0.02626994	-11.00357	-7.798803	0	0
21.40949	-0.04271085	-0.01699317	0	-0.00228423	-1.100554	-0.8617664	0	0
21.42605	-0.04271085	-0.01703102	0	-0.00228423	0	0	0	0
21.44262	-0.04271085	-0.01703102	0	0	0	0.06893819	0	0
21.45934	-0.04271085	-0.01703102	0	0	0	0	0	0
21.47585	-0.04271085	-0.01703102	0	0	0	0	0	0
21.49236	-0.04273712	-0.01704994	-0.001590424	-0.00114562	-0.04815711	-0.03468869	0	0
21.50889	-0.04273712	-0.01704994	0	0	0.04813487	0.03467267	0	0
21.52546	-0.04273712	-0.01704994	0	0	0	0	0	0
21.54202	-0.04276339	-0.01706886	-0.001585481	-0.001142171	-0.0478499	-0.03447079	0	0
21.55859	-0.04281592	-0.0171067	-0.003171186	-0.002284342	-0.04785668	-0.03447079	0	0
21.57516	-0.04286846	-0.01722024	-0.003170961	-0.006852915	6.780903E-06	-0.1378798	0	0
21.59172	-0.04307859	-0.01740947	-0.01268385	-0.01142227	-0.2870994	-0.1379035	0	0
21.60829	-0.04344633	-0.01771227	-0.0221965	-0.01827687	-0.2870926	-0.2068722	0	0
21.62487	-0.04376152	-0.01797724	-0.01901173	-0.01598273	0.09608334	0.06921355	0	0
21.64147	-0.04523228	-0.01903735	-0.08862263	-0.06387814	-2.098324	-1.443741	0	0
21.65799	-0.04588882	-0.01954861	-0.03972887	-0.03093755	1.476211	0.9945497	0	0
21.67456	-0.04586256	-0.01952967	0.001585031	0.001143071	1.248437	0.9694228	0	0
21.71071	-0.04583629	-0.01954861	0.000726471	-0.000523832	-0.01628555	-0.03161856	0	0
21.72728	-0.04581003	-0.01956754	0.001584848	-0.001142827	0.0162815	-0.01174094	0	0
21.74384	-0.04578377	-0.01958648	0.001585213	-0.001143202	1.101458E-05	-1.133781E-05	0	0
21.76041	-0.04573125	-0.01962435	0.003170652	-0.002286292	0.04785413	-0.03450249	0	0
21.77698	-0.04567873	-0.01966223	0.003170062	-0.002286141	-1.780704E-05	4.553656E-06	0	0
21.79357	-0.04565247	-0.01968116	0.001582523	-0.0011411	-0.04787068	0.0345276	0	0
21.81011	-0.04565247	-0.01968116	0	0	-0.04776338	0.03444045	0	0
21.82668	-0.04562621	-0.0197001	0.001585031	-0.001143071	0.04788042	-0.03452974	0	0
21.84324	-0.04562621	-0.0197001	0	0	-0.04783633	0.03449794	0	0
21.85981	-0.04557369	-0.01973798	0.003170287	-0.002286253	0.09567944	-0.06899927	0	0
21.87638	-0.04554743	-0.01979479	0.001585031	-0.003429212	-0.04784311	-0.03449455	0	0
21.89315	-0.0454949	-0.01983267	0.003132421	-0.002258946	0.04641975	0.03510648	0	0
21.90966	-0.04538986	-0.01990842	0.006361813	-0.004587937	0.09703873	-0.06998292	0	0
21.92617	-0.04536359	-0.01992736	0.00159075	-0.001147145	-0.1444817	0.1041972	0	0
21.94264	-0.04533733	-0.0199463	0.001594065	-0.001149422	0.0001004924	-6.903954E-05	0	0
21.96019	-0.04531107	-0.01996524	0.001496476	-0.001079314	-0.002868297	0.002060605	0	0
21.97578	-0.04531107	-0.01996524	0	0	-0.04516373	0.03257376	0	0
21.99234	-0.04528481	-0.01998418	0.001585438	-0.001143315	0.04931045	-0.03555948	0	0
22.00891	-0.04528481	-0.01998418	0	0	-0.04785138	0.03450729	0	0
22.02724	-0.04528481	-0.01998418	0	0	0	0	0	0
22.0438	-0.04525855	-0.02000312	0.001585031	-0.001143183	0.0454279	-0.03276429	0	0
22.06076	-0.04525855	-0.02000312	0	0	-0.04727303	0.03409506	0	0
22.07694	-0.04523228	-0.02002206	0.001623765	-0.001170954	0.04900252	-0.03533742	0	0
22.09379	-0.04523228	-0.02002206	0	0	-0.04916098	0.0354517	0	0
22.11007	-0.04520602	-0.020041	0.001613302	-0.001163522	0.04868954	-0.03511518	0	0
22.12664	-0.04520602	-0.020041	0	0	-0.04911932	0.03542514	0	0
22.14321	-0.04520602	-0.020041	0	0	0	0	0	0
22.15977	-0.04517976	-0.02005994	0.001585031	-0.001143183	0.04783633	-0.03450133	0	0
22.17636	-0.04517976	-0.02005994	0	0	-0.04781431	0.03448545	0	0
22.19291	-0.04517976	-0.02005994	0	0	0	0	0	0
22.20947	-0.04517976	-0.02005994	0	0	0	0	0	0
22.22604	-0.04517976	-0.02005994	0	0	0	0	0	0
22.24261	-0.04517976	-0.02005994	0	0	0	0	0	0
22.25917	-0.04517976	-0.02005994	0	0	0	0	0	0
22.27592	-0.04517976	-0.02005994	0	0	0	0	0	0
22.29231	-0.04517976	-0.02009782	0	-0.002311918	0	-0.06977784	0	0
22.3089	-0.04517976	-0.02009782	0	0	0	0.07010879	0	0
22.32544	-0.04517976	-0.02009782	0	0	0	0	0	0
22.342	-0.04517976	-0.02009782	0	0	0	0	0	0
22.36211	-0.04517976	-0.02009782	0	0	0	0	0	0
22.37868	-0.04517976	-0.02009782	0	0	0	0	0	0
22.39524	-0.0451535	-0.02011676	0.001585256	-0.001143295	0.04784311	-0.03450472	0	0
22.41202	-0.0451535	-0.02011676	0	0	-0.0475448	0.03428958	0	0
22.42841	-0.0451535	-0.02011676	0	0	0	0	0	0
22.44494	-0.0451535	-0.02011676	0	0	0	0	0	0
22.46151	-0.04512724	-0.0201357	0.001585438	-0.001143315	0.04789825	-0.03454109	0	0
22.47808	-0.04512724	-0.0201357	0	0	-0.04785138	0.03450729	0	0
22.49464	-0.04512724	-0.0201357	0	0	0	0	0	0
22.51121	-0.04512724	-0.0201357	0	0	0	0	0	0
22.5281	-0.04512724	-0.0201357	0	0	0	0	0	0
22.54435	-0.04512724	-0.0201357	0	0	0	0	0	0
22.56091	-0.04512724	-0.0201357	0	0	0	0	0	0
22.57763	-0.04512724	-0.0201357	0	0	0	0	0	0
22.59415	-0.0451535	-0.02015464	-0.001590015	-0.001146728	-0.04783805	-0.03450107	0	0
22.61061	-0.0451535	-0.02015464	0	0	0.04820876	0.03476843	0	0
22.62718	-0.04512724	-0.02017358	0.001585438	-0.001143315	0.04800059	-0.03461489	0	0
22.64375	-0.04512724	-0.02017358	0	0	-0.04785138	0.03450729	0	0
22.66031	-0.04512724	-0.02017358	0	0	0	0	0	0
22.67688	-0.04512724	-0.02017358	0	0	0	0	0	0
22.69345	-0.04512724	-0.02017358	0	0	0	0	0	0
22.71001	-0.04510098	-0.02019252	0.001585031	-0.001143295	0.04783633	-0.03450472	0	0
22.72674	-0.04510098	-0.02019252	0	0	-0.04760613	0.03433868	0	0
22.74325	-0.04510098	-0.02019252	0	0	0	0	0	0
22.75976	-0.04510098	-0.02019252	0	0	0	0	0	0
22.77628	-0.04510098	-0.02019252	0	0	0	0	0	0
22.79285	-0.04507471	-0.02021146	0.001585256	-0.001143295	0.04791483	-0.03455644	0	0
22.80942	-0.04510098	-0.0202304	-0.001585256	-0.001143183	-0.09568623	3.393965E-06	0	0
22.82598	-0.04510098	-0.0202304	0	0	0.04784311	0.03450133	0	0
22.84282	-0.04510098	-0.0202304	0	0	0	0	0	0
22.87568	-0.04507471	-0.02024934	0.0007992531	-0.0005764258	0.01608224	-0.0115986	0	0
22.89225	-0.04507471	-0.02024934	0	0	-0.01617036	0.01166216	0	0
22.90887	-0.04507471	-0.02024934	0	0	0	0	0	0
22.92538	-0.04507471	-0.02024934	0	0	0	0	0	0
22.94195	-0.04507471	-0.02024934	0	0	0	0	0	0
22.95852	-0.04504845	-0.02026828	0.001585438	-0.001143427	0.04785138	-0.03451068	0	0
22.97508	-0.04507471	-0.02028723	-0.001585256	-0.001143295	-0.09569725	3.973908E-06	0	0
22.99165	-0.04507471	-0.02028723	0	0	0.04784311	0.03450472	0	0
23.00822	-0.04507471	-0.02028723	0	0	0	0	0	0
23.02495	-0.04507471	-0.02028723	0	0	0	0	0	0
23.04135	-0.04507471	-0.02028723	0	0	0	0	0	0
23.05797	-0.04507471	-0.02028723	0	0	0	0	0	0
23.0935	-0.04504845	-0.02030617	0.0007392243	-0.0005331328	0.01417425	-0.01022255	0	0
23.10981	-0.04504845	-0.02030617	0	0	-0.01426135	0.01028537	0	0
23.12652	-0.04504845	-0.02030617	0	0	0	0	0	0
23.14303	-0.04504845	-0.02030617	0	0	0	0	0	0
23.15951	-0.04504845	-0.02030617	0	0	0	0	0	0
23.17607	-0.04504845	-0.02030617	0	0	0	0	0	0
23.19264	-0.04502219	-0.02032511	0.001585256	-0.001143295	0.04784311	-0.03450472	0	0
23.20958	-0.04502219	-0.02032511	0	0	-0.04730665	0.03411783	0	0
23.22577	-0.04502219	-0.02032511	0	0	0	0	0	0
23.24234	-0.04502219	-0.02032511	0	0	0	0	0	0
23.25912	-0.04502219	-0.02032511	0	0	0	0	0	0
23.27563	-0.04499592	-0.02034405	0.001590566	-0.001147125	0.04778333	-0.03446161	0	0
23.29204	-0.04499592	-0.02034405	0	0	-0.04831208	0.03484295	0	0
23.30865	-0.04502219	-0.02036299	-0.001581251	-0.001140407	-0.04788764	-0.03453683	0	0
23.32517	-0.04499592	-0.02038193	0.001589464	-0.001146444	0.09569788	-0.0001821954	0	0
23.34174	-0.04499592	-0.02038193	0	0	-0.04803096	0.03464361	0	0
23.35831	-0.04499592	-0.02038193	0	0	0	0	0	0
23.37487	-0.04496966	-0.02040087	0.001585031	-0.001143295	0.04783908	-0.03450671	0	0
23.39171	-0.04496966	-0.02040087	0	0	-0.04745119	0.03422692	0	0
23.40801	-0.04496966	-0.02040087	0	0	0	0	0	0
23.42474	-0.0449434	-0.02041982	0.001570072	-0.001132345	0.04754085	-0.03428673	0	0
23.44125	-0.0449434	-0.02041982	0	0	-0.04723261	0.03406443	0	0
23.45776	-0.0449434	-0.02041982	0	0	0	0	0	0
23.47428	-0.0449434	-0.02041982	0	0	0	0	0	0
23.49084	-0.04491714	-0.02043876	0.001585256	-0.001143408	0.04791483	-0.03455984	0	0
23.50741	-0.04491714	-0.02043876	0	0	-0.04784311	0.03450812	0	0
23.52398	-0.04491714	-0.02043876	0	0	0	0	0	0
23.54054	-0.04489087	-0.0204577	0.001585256	-0.001143295	0.04784311	-0.03450472	0	0
23.55711	-0.04489087	-0.0204577	0	0	-0.04784587	0.03450671	0	0
23.57368	-0.04489087	-0.0204577	0	0	0	0	0	0
23.59024	-0.04489087	-0.0204577	0	0	0	0	0	0
23.60686	-0.04486461	-0.02047664	0.001579981	-0.001139603	0.04760444	-0.03433597	0	0
23.68964	-0.04481208	-0.02051453	0.0006345406	-0.0004576568	-0.009511327	0.006860525	0	0
23.73935	-0.04478582	-0.02053347	0.0005283436	-0.000381136	-0.0008016042	0.0005776003	0	0
23.75591	-0.04475956	-0.02055241	0.001585256	-0.001143408	0.01594884	-0.01150271	0	0
23.77249	-0.04475956	-0.0205903	0	-0.002285388	-0.04782934	-0.03445511	0	0
23.7895	-0.0447333	-0.02060924	0.001544016	-0.001113662	0.04597131	0.0348868	0	0
23.80601	-0.04470703	-0.02062818	0.00159075	-0.001147371	0.001394233	-0.001005625	0	0
23.82218	-0.04465451	-0.02066607	0.003248297	-0.002343036	0.05071975	-0.03658649	0	0
23.84102	-0.04457572	-0.0207229	0.004182725	-0.003017001	0.02669224	-0.01925203	0	0
23.85759	-0.04441813	-0.02083657	0.009510664	-0.006859994	0.1504808	-0.1085404	0	0
23.87415	-0.04431308	-0.02091235	0.006341248	-0.004573969	-0.09564767	0.06898843	0	0
23.89072	-0.04150247	-0.02294011	0.169668	-0.12241	4.929494	-3.556503	0	0
23.90729	-0.03653637	-0.02652506	0.2997548	-0.2163884	3.926253	-2.836438	0	0
23.92385	-0.02678307	-0.03357428	0.5887102	-0.4254918	8.720694	-6.310751	0	0
23.94042	-0.0208917	-0.03783829	0.3556039	-0.257376	-7.035163	5.073742	0	0
23.95762	-0.01347287	-0.04321495	0.4313632	-0.3126226	2.24367	-1.63617	0	0
23.97363	-0.008289284	-0.04697674	0.3238045	-0.2349887	-3.239042	2.337883	0	0
23.99014	-0.003789456	-0.05024593	0.2724886	-0.1979672	-1.577875	1.138344	0	0
24.00669	-0.0009736839	-0.05233171	0.1701955	-0.1260718	-3.094337	2.174815	0	0
24.02325	0.001526315	-0.0541508	0.1509002	-0.1098007	-0.5827342	0.4914038	0	0
24.03982	0.006447279	-0.05773488	0.29703	-0.2163355	4.410205	-3.215227	0	0
24.05639	0.006315705	-0.05763899	-0.007941794	0.00578787	-9.204066	6.703695	0	0
24.07296	0.006263076	-0.05760064	-0.003176358	0.002314657	0.1438129	-0.1048158	0	0
24.08952	0.006210446	-0.05752393	-0.003177089	0.004630604	-2.207131E-05	0.06989545	0	0
24.10609	0.005999928	-0.05737052	-0.01270838	0.009260983	-0.2876882	0.1397612	0	0
24.12265	0.005789409	-0.05721712	-0.01270841	0.009260309	-8.714288E-07	-2.035208E-05	0	0
24.13925	0.005763094	-0.05719795	-0.00158582	0.001155487	0.3354295	-0.2444211	0	0
24.15579	0.005631519	-0.05710207	-0.007954671	0.005796313	-0.1922123	0.1400604	0	0
24.17277	0.005421	-0.05694869	-0.01239868	0.009033697	-0.1325788	0.0965814	0	0
24.18928	0.00536837	-0.05691034	-0.003187025	0.002321958	0.2750319	-0.200392	0	0
24.20548	0.005342055	-0.05689117	-0.001623897	0.001183231	0.04777481	-0.03480359	0	0
24.22205	0.005315739	-0.056872	-0.001588404	0.001157349	0.001083042	-0.0007897698	0	0
24.23932	0.005263109	-0.05683365	-0.003048306	0.002220892	-0.04315081	0.0314355	0	0
24.25518	0.005105219	-0.05671862	-0.009950719	0.007249501	-0.2083272	0.1517724	0	0
24.27184	0.004999958	-0.05664194	-0.00632006	0.004604338	0.1116363	-0.08133406	0	0
24.28835	0.004921013	-0.05658443	-0.004780565	0.003482599	0.04641395	-0.03381909	0	0
24.30489	0.004868383	-0.05654608	-0.003182642	0.002318519	0.04834788	-0.03522121	0	0
24.32145	0.004842068	-0.05652691	-0.001588741	0.001157391	0.04815391	-0.03507928	0	0
24.33802	0.004842068	-0.05652691	0	0	0.04795383	-0.03493414	0	0
24.35458	0.004842068	-0.05652691	0	0	0	0	0	0
24.38772	0.004842068	-0.05652691	0	0	0	0	0	0
24.40443	0.004842068	-0.05652691	0	0	0	0	0	0
24.42085	0.004842068	-0.05652691	0	0	0	0	0	0
24.43746	0.004868383	-0.05654608	0.001584909	-0.001154599	0.04799011	-0.03496057	0	0
24.45399	0.004868383	-0.05654608	0	0	-0.04783539	0.03484786	0	0
24.47055	0.004868383	-0.05654608	0	0	0	0	0	0
24.48749	0.004868383	-0.05654608	0	0	0	0	0	0
24.50368	0.004894698	-0.05656525	0.001625236	-0.001183977	0.04905255	-0.03573455	0	0
24.52051	0.004894698	-0.05656525	0	0	-0.04921972	0.03585634	0	0
24.53682	0.004894698	-0.05656525	0	0	0	0	0	0
24.5565	0.004894698	-0.05656525	0	0	0	0	0	0
24.57307	0.004894698	-0.0566036	0	-0.002313982	0	-0.06383882	0	0
24.58963	0.004894698	-0.0566036	0	0	0	0.06983612	0	0
24.6062	0.004894698	-0.0566036	0	0	0	0	0	0
24.62277	0.004894698	-0.05675697	0	-0.00925851	0	-0.2794224	0	0
24.63933	0.004684176	-0.05698703	-0.01270709	-0.01388684	-0.3835228	-0.1396913	0	0
24.6559	0.0003157895	-0.06044027	-0.2636763	-0.2084377	-7.574267	-5.871558	0	0
24.67263	-0.005078904	-0.0644551	-0.322432	-0.2399598	-1.764513	-0.9466523	0	0
24.68913	-0.0147884	-0.07209709	-0.5884372	-0.4631374	-8.004555	-6.715796	0	0
24.7056	-0.02959662	-0.08374483	-0.8992093	-0.7072936	-9.426327	-7.405738	0	0
24.72217	-0.04131858	-0.09270286	-0.7075388	-0.5407076	5.801992	5.042671	0	0
24.73873	-0.05706954	-0.1048502	-0.9508395	-0.7333009	-7.343252	-5.812813	0	0
24.7553	-0.06627123	-0.1153105	-0.5553512	-0.6313115	11.93586	3.078046	0	0
24.7722	-0.07454582	-0.1312305	-0.4898121	-0.9423818	1.958583	-9.296079	0	0
24.78871	-0.07883627	-0.1435655	-0.2598699	-0.7471226	6.883797	5.845488	0	0
24.80522	-0.08116341	-0.151685	-0.140921	-0.4916786	3.601911	7.735143	0	0
24.82157	-0.08683372	-0.1714361	-0.3467718	-1.207894	-6.263429	-21.79229	0	0
24.83814	-0.08858336	-0.1788896	-0.1056203	-0.4499433	7.326043	23.02609	0	0
24.85476	-0.09210707	-0.1895606	-0.2120323	-0.6421044	-3.206721	-5.790767	0	0
24.87127	-0.09674963	-0.2020524	-0.2810993	-0.7563617	-2.084447	-3.448292	0	0
24.88784	-0.0999292	-0.2108157	-0.1919194	-0.5289528	2.695646	6.873898	0	0
24.90441	-0.1044345	-0.2188159	-0.2719377	-0.4828945	-2.414958	1.390042	0	0
24.92097	-0.1091175	-0.2291328	-0.2826684	-0.6227253	-0.3238536	-4.220101	0	0
24.93754	-0.1127825	-0.2360879	-0.2212471	-0.4198636	1.853805	6.12273	0	0
24.95411	-0.1189101	-0.2451637	-0.3698588	-0.5478131	-4.485368	-3.861745	0	0
24.97067	-0.1224631	-0.2521333	-0.2144844	-0.4207353	4.68948	3.835438	0	0
24.98735	-0.1297925	-0.2602158	-0.4394239	-0.4845662	-6.766097	-1.92001	0	0
25.00381	-0.1359974	-0.2652032	-0.3770883	-0.3031	1.881292	5.47666	0	0
25.02037	-0.1415986	-0.2698039	-0.3380899	-0.2777008	1.180986	0.7691619	0	0
25.03694	-0.1456198	-0.2730458	-0.2427461	-0.1957038	2.877645	2.474817	0	0
25.0539	-0.1541104	-0.2800539	-0.5006748	-0.4132532	-7.693954	-6.489449	0	0
25.07007	-0.158527	-0.2836949	-0.2730313	-0.225084	6.870297	5.678958	0	0
25.08693	-0.1599123	-0.2848818	-0.08218064	-0.07041327	5.77751	4.682257	0	0
25.10343	-0.1624505	-0.2869821	-0.1538057	-0.1272719	-2.147063	-1.704419	0	0
25.11996	-0.167239	-0.2909984	-0.2898029	-0.2430668	-4.117917	-3.506201	0	0
25.13634	-0.1715344	-0.2946184	-0.2621689	-0.2209473	0.8397471	0.6721707	0	0
25.15291	-0.1735776	-0.2964098	-0.1233279	-0.1081266	4.213514	3.423857	0	0
25.16947	-0.1735776	-0.2964098	0	0	3.722045	3.263267	0	0
25.18604	-0.1735776	-0.2964525	0	-0.002575984	0	-0.07774337	0	0
25.20261	-0.1735265	-0.2967085	0.003082722	-0.01545769	0.09304208	-0.3887929	0	0
25.21917	-0.1735776	-0.2969219	-0.003082367	-0.01288172	-0.1860734	0.07774727	0	0
25.23603	-0.1743689	-0.2978826	-0.04695458	-0.05700225	-1.312731	-1.320161	0	0
25.25231	-0.1753387	-0.3001047	-0.05956905	-0.1365004	-0.3807276	-2.399398	0	0
25.26887	-0.17018	-0.3045144	0.3113793	-0.2661664	11.29341	-3.947642	0	0
25.28544	-0.1673925	-0.306852	0.1682521	-0.1410999	-4.319589	3.774516	0	0
25.30201	-0.1590401	-0.3138618	0.5042089	-0.4231613	10.13978	-8.513121	0	0
25.32254	-0.1569356	-0.3156294	0.1025039	-0.08609428	-10.82879	9.08634	0	0
25.33911	-0.1557802	-0.3166002	0.06973783	-0.0585897	-0.8831852	0.7413663	0	0
25.35567	-0.1558058	-0.3165786	-0.001549906	0.001304332	-2.151468	1.807606	0	0
25.37856	-0.1558058	-0.3165786	0	0	0.03928248	-0.03305838	0	0
25.39513	-0.1558058	-0.3165786	0	0	0	0	0	0
25.4117	-0.1558058	-0.3165786	0	0	0	0	0	0
25.42868	-0.1558315	-0.316557	-0.001512493	0.001270354	-0.04507884	0.03786204	0	0
25.44483	-0.1558315	-0.316557	0	0	0.04564713	-0.03833935	0	0
25.4614	-0.1558315	-0.316557	0	0	0	0	0	0
25.47796	-0.1558058	-0.3165354	0.001550627	0.001302383	0.04679803	0.039306	0	0
25.49471	-0.1558058	-0.3165354	0	0	-0.04654616	-0.03909446	0	0
25.5111	-0.1558315	-0.3165138	-0.001567774	0.001316785	-0.04731825	0.03974294	0	0
25.52773	-0.1558315	-0.3165138	0	0	0.04747677	-0.03987608	0	0
25.54423	-0.1558572	-0.3164923	-0.001556178	0.001307803	-0.04696554	0.03946958	0	0
25.5608	-0.1558572	-0.3164923	0	0	0.04706307	-0.03955155	0	0
25.57737	-0.1558829	-0.3164707	-0.001550627	0.001302383	-0.04679803	0.039306	0	0
25.59393	-0.1559342	-0.3164275	-0.003100355	0.002604766	-0.04677088	0.039306	0	0
25.6105	-0.1559599	-0.316406	-0.001549906	0.001302533	0.04679533	-0.03930374	0	0
25.62707	-0.1559856	-0.3163844	-0.001549728	0.001302383	5.386385E-06	-4.525547E-06	0	0
25.64363	-0.1560113	-0.3163628	-0.001550627	0.001300584	-2.714469E-05	-5.428939E-05	0	0
25.66033	-0.1559856	-0.3163413	0.001538758	0.001292414	0.09287962	-0.0002456316	0	0
25.67677	-0.1559856	-0.3163413	0	0	-0.04644249	-0.03900738	0	0
25.69335	-0.1559856	-0.3163413	0	0	0	0	0	0
25.7099	-0.1559856	-0.3163413	0	0	0	0	0	0
25.72647	-0.1559856	-0.3163413	0	0	0	0	0	0
25.74303	-0.1559856	-0.3163413	0	0	0	0	0	0
25.7596	-0.1560113	-0.3163197	-0.001550627	0.001302383	-0.04679803	0.039306	0	0
25.77617	-0.1560113	-0.3163197	0	0	0.04679803	-0.039306	0	0
25.79273	-0.1560113	-0.3163197	0	0	0	0	0	0
25.8093	-0.1559856	-0.3162118	0.001550627	0.006511916	0.04679803	0.19653	0	0
25.82587	-0.1559599	-0.3161471	0.001549728	0.00390715	-2.714469E-05	-0.078612	0	0
25.84246	-0.1558829	-0.3159529	0.004643668	0.01170168	0.09331084	0.2350771	0	0
25.859	-0.1558572	-0.3158019	0.001552952	0.009126744	-0.09328338	-0.07771632	0	0
25.87557	-0.1554463	-0.3148963	0.02480374	0.05466591	0.7022358	1.375404	0	0
25.89214	-0.1553435	-0.3139911	0.006200897	0.05463084	-0.5614027	-0.00105835	0	0
25.9087	-0.1567559	-0.311515	-0.08526284	0.1494765	-2.760381	2.862447	0	0
25.92552	-0.1578084	-0.3089564	-0.06258418	0.1521439	0.6793596	0.07990649	0	0
25.94184	-0.1570897	-0.2996131	0.04404679	0.5725964	3.218129	12.68928	0	0
25.96125	-0.1554463	-0.2709401	0.08464731	1.476856	1.136242	25.30654	0	0
25.97782	-0.1550096	-0.2585004	0.02635797	0.7508599	-1.619953	-20.17659	0	0
25.99457	-0.1541618	-0.2304106	0.05061002	1.67678	0.7278643	27.78915	0	0
26.01095	-0.1533651	-0.2075507	0.0486287	1.395407	-0.05979652	-8.491855	0	0
26.02759	-0.152594	-0.1919479	0.04634927	0.9377919	-0.06903155	-13.85871	0	0
26.0441	-0.1509997	-0.1602717	0.09655301	1.918385	1.514454	29.58074	0	0
26.06066	-0.1493532	-0.1357698	0.09947479	1.480302	0.08836778	-13.24959	0	0
26.07722	-0.1461092	-0.09431539	0.1957829	2.501904	2.907755	30.84444	0	0
26.09379	-0.1447953	-0.07813694	0.07930776	0.9765333	-3.515023	-46.03314	0	0
26.11065	-0.1422949	-0.04726337	0.1482943	1.831068	2.063724	25.5633	0	0
26.12692	-0.1403862	-0.02551934	0.1173176	1.336475	-0.9349885	-14.92858	0	0
26.14367	-0.1385539	-0.005264304	0.1093777	1.209094	-0.240443	-3.857455	0	0
26.16006	-0.1357132	0.01885619	0.1734179	1.47253	1.932848	7.950967	0	0
26.1767	-0.1334392	0.03577606	0.1366355	1.016603	-1.113813	-13.80599	0	0
26.19321	-0.130905	0.05183965	0.1534741	0.9728485	0.5078678	-1.319689	0	0
26.20978	-0.1292491	0.0619566	0.09996042	0.6107306	-1.617839	-10.94765	0	0
26.22674	-0.1251322	0.08279657	0.2427384	1.228762	4.258791	18.43468	0	0
26.24289	-0.121037	0.09177298	0.2535216	0.5556999	0.3256432	-20.32591	0	0
26.25946	-0.116107	0.1006213	0.2975765	0.5340877	1.3464	-0.660509	0	0
26.27602	-0.1117431	0.1038114	0.2634061	0.1925499	-1.031266	-10.30763	0	0
26.29259	-0.1108074	0.1043245	0.05647828	0.03097297	-6.245094	-4.876401	0	0
26.30916	-0.1107814	0.1042695	0.001568885	-0.003318087	-1.657073	-1.034847	0	0
26.32581	-0.1107814	0.1042695	0	0	-0.04723485	0.09989853	0	0
26.34232	-0.1107814	0.1042695	0	0	0	0	0	0
26.35886	-0.1107814	0.1042695	0	0	0	0	0	0
26.37584	-0.1107814	0.1042695	0	0	0	0	0	0
26.39199	-0.1108074	0.1042878	-0.00160965	0.001134921	-0.04858213	0.03425395	0	0
26.40856	-0.1108074	0.1042878	0	0	0.0491967	-0.03468727	0	0
26.42513	-0.1108074	0.1042878	0	0	0	0	0	0
26.4584	-0.1107554	0.1042512	0.001562321	-0.001101327	0.03134494	-0.02209599	0	0
26.47491	-0.1107034	0.1042145	0.003149008	-0.002220281	0.03186917	-0.02247459	0	0
26.49143	-0.1106254	0.1041596	0.004722421	-0.003328749	0.04764476	-0.03356572	0	0
26.50796	-0.1104695	0.1040496	0.009431769	-0.006649636	0.1424893	-0.100479	0	0
26.52453	-0.1102875	0.1038847	0.01098644	-0.009957699	0.04696875	-0.0999411	0	0
26.54109	-0.1101315	0.1037014	0.009415295	-0.01106261	-0.04742274	-0.03335017	0	0
26.55766	-0.1097935	0.1033898	0.020401	-0.01880675	0.3315494	-0.2337187	0	0
26.57448	-0.1078171	0.1018866	0.1174842	-0.08935569	2.90755	-2.112873	0	0
26.591	-0.1057097	0.1004013	0.1276275	-0.0899561	0.3042845	-0.01801162	0	0
26.60736	-0.09581101	0.09338974	0.6047996	-0.4283942	14.51303	-10.29348	0	0
26.62393	-0.09111543	0.09008211	0.283491	-0.1996951	-9.75721	6.944929	0	0
26.64053	-0.08197378	0.0836435	0.55046	-0.3876981	8.048339	-5.667743	0	0
26.65706	-0.07561869	0.07916764	0.3845238	-0.2708178	-5.007967	3.527453	0	0
26.67363	-0.06946699	0.07483466	0.3713173	-0.2615393	-0.3990557	0.2803657	0	0
26.6902	-0.06223531	0.06974	0.436505	-0.3075144	1.967369	-1.387532	0	0
26.70676	-0.05693839	0.06597032	0.3197232	-0.2275379	-3.524483	2.413695	0	0
26.72359	-0.05192696	0.06214165	0.2977932	-0.2275106	-0.6566676	0.0008183292	0	0
26.73989	-0.04428681	0.056086	0.4686054	-0.3714212	5.155417	-4.34348	0	0
26.762	-0.03706197	0.04875861	0.3268249	-0.3314633	-3.691221	1.040293	0	0
26.77857	-0.02959662	0.04162188	0.4506094	-0.4307738	3.200766	-2.567927	0	0
26.81215	-0.01570923	0.03178666	0.4134811	-0.2928326	-0.7402899	2.750368	0	0
26.82827	-0.008999757	0.02702724	0.4163942	-0.2953725	0.05861429	-0.05110551	0	0
26.84484	-0.0002368421	0.02076508	0.5289307	-0.3779849	3.443534	-2.527879	0	0
26.8614	0.006710425	0.01578483	0.4193379	-0.3006085	-3.307515	2.335222	0	0
26.87797	0.01539352	0.009483779	0.5241126	-0.3803321	3.162107	-2.406061	0	0
26.89454	0.0198132	0.006291335	0.2667722	-0.1926963	-7.766551	5.66286	0	0
26.9111	0.02830823	0.0002173801	0.51282	-0.3666669	7.426166	-5.250746	0	0
26.92767	0.03574792	-0.005151188	0.449061	-0.3240474	-1.924361	1.286332	0	0
26.94425	0.03861238	-0.007206743	0.1727794	-0.1239879	-8.335317	6.035724	0	0
26.9608	0.04268458	-0.01013201	0.2459972	-0.1767118	2.209844	-1.591304	0	0
26.97737	0.04257951	-0.01009425	-0.006342147	0.002279339	-7.618687	5.404142	0	0
26.99394	0.04252698	-0.01005649	-0.003171186	0.002279283	0.09569979	-1.693469E-06	0	0
27.02707	0.04239563	-0.01011313	-0.003963926	-0.00170949	-0.01594997	-0.08025429	0	0
27.04364	0.04231683	-0.01013201	-0.004757214	-0.001139773	-0.0159616	0.01146318	0	0
27.06033	0.04231683	-0.01013201	0	0	0.1430378	0.03427018	0	0
27.07685	0.04210668	-0.01028306	-0.01272283	-0.009144955	-0.3830936	-0.2753613	0	0
27.09337	0.0409245	-0.01113287	-0.07155378	-0.05143639	-1.780647	-1.280042	0	0
27.10991	0.03164732	-0.01784476	-0.5610051	-0.4058781	-14.80576	-10.72176	0	0
27.12647	0.01883988	-0.02703754	-0.7730592	-0.5548774	-6.405706	-4.500954	0	0
27.14304	0.01552507	-0.0294302	-0.2001052	-0.1444381	17.29278	12.38779	0	0
27.1596	-0.0005526315	-0.04105932	-0.9705636	-0.7020155	-23.25516	-16.82966	0	0
27.17617	-0.008841875	-0.04707228	-0.5003397	-0.3629431	14.1922	10.23382	0	0
27.19274	-0.01849789	-0.05409334	-0.5828382	-0.4237922	-2.489811	-1.836429	0	0
27.20944	-0.024574	-0.05852129	-0.3637812	-0.2651049	6.584245	4.769697	0	0
27.22595	-0.02822934	-0.06118902	-0.2214015	-0.1615823	4.28691	3.116962	0	0
27.24244	-0.03669405	-0.06737854	-0.5134134	-0.3754157	-8.849614	-6.480365	0	0
27.259	-0.04095078	-0.07049767	-0.2569367	-0.1882708	7.759242	5.661733	0	0
27.27557	-0.0439979	-0.07273325	-0.1839247	-0.1349401	2.203504	1.609524	0	0
27.29214	-0.04533733	-0.07371671	-0.08084805	-0.05936187	3.110861	2.280956	0	0
27.30871	-0.04536359	-0.07369743	-0.001585256	0.00116432	2.392156	1.826684	0	0
27.32527	-0.04536359	-0.07369743	0	0	0.04784311	-0.03513924	0	0
27.34184	-0.04538986	-0.07367814	-0.001585438	0.001164454	-0.04785138	0.03514531	0	0
27.35854	-0.04538986	-0.07367814	0	0	0.04765386	-0.03500024	0	0
27.37506	-0.0454949	-0.07356242	-0.006361813	0.007007967	-0.1915258	0.2109786	0	0
27.39154	-0.04554743	-0.07352385	-0.003186059	0.002339773	0.09624334	-0.1414727	0	0
27.40811	-0.04559994	-0.07344671	-0.003170062	0.00465593	0.0004840054	0.07007521	0	0
27.42467	-0.04562621	-0.07338885	-0.001585256	0.003492509	0.04782954	-0.03511209	0	0
27.44513	-0.04586256	-0.07306103	-0.01155699	0.01602976	-0.2693766	0.3386815	0	0
27.46169	-0.04607264	-0.0727911	-0.01268047	0.01629328	-0.03034972	0.007118772	0	0
27.47826	-0.04591507	-0.07240552	0.00951041	0.0232738	0.6697221	0.2106726	0	0
27.49483	-0.04502219	-0.07175015	0.05389487	0.03955809	1.339526	0.4914608	0	0
27.51139	-0.04502219	-0.07175015	0	0	-1.626551	-1.193866	0	0
27.52796	-0.04502219	-0.07175015	0	0	0	0	0	0
27.54469	-0.04499592	-0.07176942	0.001570251	-0.001152408	0.04716493	-0.03461437	0	0
27.56119	-0.04499592	-0.07180797	0	-0.002335533	-0.04725698	-0.03560634	0	0
27.57766	-0.0449434	-0.07184651	0.003188272	-0.002340041	0.0966842	-0.0001367139	0	0
27.59423	-0.0449434	-0.07188506	0	-0.002326841	-0.09649443	0.0003995278	0	0
27.6108	-0.0449434	-0.07188506	0	0	0	0.07022823	0	0
27.62736	-0.0449434	-0.07188506	0	0	0	0	0	0
27.64954	-0.0449434	-0.07188506	0	0	0	0	0	0
27.6661	-0.0449434	-0.07184651	0	0.002326841	0	0.06006275	0	0
27.68278	-0.04496966	-0.07182724	-0.001575281	0.0011561	-0.04739203	-0.03522151	0	0
27.69924	-0.04496966	-0.07182724	0	0	0.04754481	-0.03489317	0	0
27.7158	-0.04496966	-0.07182724	0	0	0	0	0	0
27.73237	-0.04496966	-0.07182724	0	0	0	0	0	0
27.74932	-0.04496966	-0.07182724	0	0	0	0	0	0
27.7655	-0.04496966	-0.07182724	0	0	0	0	0	0
27.78207	-0.04496966	-0.07182724	0	0	0	0	0	0
27.79864	-0.04496966	-0.07182724	0	0	0	0	0	0
27.8152	-0.04499592	-0.07184651	-0.001585031	-0.00116342	-0.04783633	-0.03511209	0	0
27.83177	-0.04499592	-0.07184651	0	0	0.04783633	0.03511209	0	0
27.84834	-0.04499592	-0.07184651	0	0	0	0	0	0
27.8649	-0.04499592	-0.07184651	0	0	0	0	0	0
27.88147	-0.04499592	-0.07184651	0	0	0	0	0	0
27.89804	-0.04496966	-0.07186579	0.001585031	-0.00116342	0.04783633	-0.03511209	0	0
27.91461	-0.0449434	-0.07188506	0.001585256	-0.00116342	6.78793E-06	0	0	0
27.93117	-0.0449434	-0.07188506	0	0	-0.04784311	0.03511209	0	0
27.94774	-0.0449434	-0.07188506	0	0	0	0	0	0
27.96431	-0.0449434	-0.07188506	0	0	0	0	0	0
27.98087	-0.0449434	-0.07188506	0	0	0	0	0	0
27.9975	-0.0449434	-0.07188506	0	0	0	0	0	0
28.01401	-0.0449434	-0.07188506	0	0	0	0	0	0
28.03057	-0.04499592	-0.07184651	-0.003170652	0.002327109	-0.09586705	0.07036188	0	0
28.04714	-0.04499592	-0.07184651	0	0	0.09569596	-0.07023632	0	0
28.06371	-0.04499592	-0.07184651	0	0	0	0	0	0
28.08028	-0.04499592	-0.07184651	0	0	0	0	0	0
28.09707	-0.04499592	-0.07184651	0	0	0	0	0	0
28.11658	-0.04499592	-0.07184651	0	0	0	0	0	0
28.13314	-0.04499592	-0.07184651	0	0	0	0	0	0
28.14971	-0.04499592	-0.07184651	0	0	0	0	0	0
28.16628	-0.04499592	-0.07184651	0	0	0	0	0	0
28.18285	-0.04499592	-0.07184651	0	0	0	0	0	0
28.19941	-0.04499592	-0.07184651	0	0	0	0	0	0
28.21598	-0.04499592	-0.07184651	0	0	0	0	0	0
28.23255	-0.04499592	-0.07184651	0	0	0	0	0	0
28.24911	-0.04499592	-0.07184651	0	0	0	0	0	0
28.26568	-0.04499592	-0.07184651	0	0	0	0	0	0
28.28225	-0.04499592	-0.07184651	0	0	0	0	0	0
28.29926	-0.04496966	-0.07186579	0.001544143	-0.001133408	0.04599339	-0.03375937	0	0
28.31538	-0.04496966	-0.07186579	0	0	-0.04660501	0.0342083	0	0
28.33195	-0.0449434	-0.07188506	0.001585256	-0.00116342	0.04848787	-0.03558528	0	0
28.34852	-0.0449434	-0.07188506	0	0	-0.04784311	0.03511209	0	0
28.36527	-0.0449434	-0.07188506	0	0	0	0	0	0
28.38166	-0.0449434	-0.07188506	0	0	0	0	0	0
28.39829	-0.0449434	-0.07188506	0	0	0	0	0	0
28.4148	-0.0449434	-0.07188506	0	0	0	0	0	0
28.43135	-0.0449434	-0.07188506	0	0	0	0	0	0
28.44792	-0.0449434	-0.07188506	0	0	0	0	0	0
28.46448	-0.04491714	-0.07190434	0.001585256	-0.00116342	0.04784311	-0.03511209	0	0
28.48105	-0.04491714	-0.07190434	0	0	-0.04784587	0.03511411	0	0
28.49786	-0.04491714	-0.07190434	0	0	0	0	0	0
28.51437	-0.04491714	-0.07190434	0	0	0	0	0	0
28.53088	-0.04491714	-0.07190434	0	0	0	0	0	0
28.54732	-0.04489087	-0.07192361	0.001598135	-0.001172872	0.04850825	-0.03560024	0	0
28.56388	-0.04489087	-0.07192361	0	0	-0.04842694	0.03554057	0	0
28.58045	-0.04489087	-0.07192361	0	0	0	0	0	0
28.59702	-0.04489087	-0.07192361	0	0	0	0	0	0
28.61359	-0.04491714	-0.07194289	-0.001585256	-0.00116342	-0.04784311	-0.03511209	0	0
28.63015	-0.04491714	-0.07194289	0	0	0.04784587	0.03511411	0	0
28.66329	-0.04489087	-0.07196216	0.0007926279	-0.0005817101	0.01594832	-0.01170448	0	0
28.67999	-0.04489087	-0.07196216	0	0	-0.01590315	0.01167133	0	0
28.6965	-0.04489087	-0.07196216	0	0	0	0	0	0
28.72955	-0.04489087	-0.07196216	0	0	0	0	0	0
28.74612	-0.04489087	-0.07196216	0	0	0	0	0	0
28.76269	-0.04489087	-0.07196216	0	0	0	0	0	0
28.77925	-0.04489087	-0.07196216	0	0	0	0	0	0
28.79912	-0.04489087	-0.07196216	0	0	0	0	0	0
28.81569	-0.04489087	-0.07196216	0	0	0	0	0	0
28.8326	-0.04489087	-0.07196216	0	0	0	0	0	0
28.84882	-0.04489087	-0.07196216	0	0	0	0	0	0
28.86539	-0.04489087	-0.07196216	0	0	0	0	0	0
28.88214	-0.04489087	-0.07196216	0	0	0	0	0	0
28.89865	-0.04489087	-0.07196216	0	0	0	0	0	0
28.94822	-0.04489087	-0.07196216	0	0	0	0	0	0
28.96479	-0.04489087	-0.07196216	0	0	0	0	0	0
28.98136	-0.04489087	-0.07196216	0	0	0	0	0	0
28.99792	-0.04489087	-0.07196216	0	0	0	0	0	0
29.01473	-0.04489087	-0.07196216	0	0	0	0	0	0
29.04762	-0.04489087	-0.07196216	0	0	0	0	0	0
29.06426	-0.04489087	-0.07196216	0	0	0	0	0	0
29.08078	-0.04486461	-0.07198144	0.001590015	-0.001166913	0.04794811	-0.03518915	0	0
29.09732	-0.04486461	-0.07198144	0	0	-0.0480975	0.03529879	0	0
29.11389	-0.04486461	-0.07198144	0	0	0	0	0	0
29.13045	-0.04486461	-0.07198144	0	0	0	0	0	0
29.14702	-0.04486461	-0.07198144	0	0	0	0	0	0
29.16359	-0.04486461	-0.07198144	0	0	0	0	0	0
29.18035	-0.04489087	-0.07200071	-0.001567213	-0.001150179	-0.04702786	-0.03451378	0	0
29.19672	-0.04489087	-0.07200071	0	0	0.04729857	0.03471246	0	0
29.21329	-0.04489087	-0.07200071	0	0	0	0	0	0
29.22985	-0.04489087	-0.07200071	0	0	0	0	0	0
29.24642	-0.04489087	-0.07200071	0	0	0	0	0	0
29.26299	-0.04489087	-0.07200071	0	0	0	0	0	0
29.27955	-0.04489087	-0.07200071	0	0	0	0	0	0
29.29643	-0.04489087	-0.07200071	0	0	0	0	0	0
29.31294	-0.04489087	-0.07200071	0	0	0	0	0	0
29.32945	-0.04489087	-0.07200071	0	0	0	0	0	0
29.34596	-0.04489087	-0.07200071	0	0	0	0	0	0
29.36239	-0.04489087	-0.07200071	0	0	0	0	0	0
29.37898	-0.04489087	-0.07200071	0	0	0	0	0	0
29.39552	-0.04489087	-0.07200071	0	0	0	0	0	0
29.41209	-0.04486461	-0.07201999	0.001585438	-0.001163554	0.04789549	-0.03515054	0	0
29.42865	-0.04486461	-0.07201999	0	0	-0.04785138	0.03511816	0	0
29.44522	-0.04486461	-0.07201999	0	0	0	0	0	0
29.50705	-0.04486461	-0.07201999	0	0	0	0	0	0
29.52409	-0.04486461	-0.07201999	0	0	0	0	0	0
29.54018	-0.04486461	-0.07201999	0	0	0	0	0	0
29.55675	-0.04486461	-0.07201999	0	0	0	0	0	0
29.65618	-0.04486461	-0.07201999	0	0	0	0	0	0
29.67272	-0.04486461	-0.07201999	0	0	0	0	0	0
29.68929	-0.04486461	-0.07201999	0	0	0	0	0	0
29.70926	-0.04486461	-0.07201999	0	0	0	0	0	0
29.72623	-0.04486461	-0.07201999	0	0	0	0	0	0
29.7424	-0.04486461	-0.07201999	0	0	0	0	0	0
29.75897	-0.04486461	-0.07201999	0	0	0	0	0	0
29.77577	-0.04486461	-0.07201999	0	0	0	0	0	0
29.7921	-0.04486461	-0.07201999	0	0	0	0	0	0
29.80881	-0.04486461	-0.07201999	0	0	0	0	0	0
29.82523	-0.04486461	-0.07201999	0	0	0	0	0	0
29.84181	-0.04486461	-0.07201999	0	0	0	0	0	0
29.8915	-0.04486461	-0.07201999	0	0	0	0	0	0
29.90807	-0.04486461	-0.07201999	0	0	0	0	0	0
29.92463	-0.04486461	-0.07201999	0	0	0	0	0	0
29.94139	-0.04483835	-0.07203926	0.001567748	-0.001150571	0.0470547	-0.03453348	0	0
29.95777	-0.04483835	-0.07203926	0	0	-0.04731745	0.03472631	0	0
29.97441	-0.04483835	-0.07203926	0	0	0	0	0	0
29.99092	-0.04483835	-0.07203926	0	0	0	0	0	0
30.00748	-0.04483835	-0.07203926	0	0	0	0	0	0
30.02403	-0.04483835	-0.07203926	0	0	0	0	0	0
30.0406	-0.04483835	-0.07203926	0	0	0	0	0	0
30.05717	-0.04483835	-0.07203926	0	0	0	0	0	0
30.07373	-0.04483835	-0.07203926	0	0	0	0	0	0
30.0903	-0.04483835	-0.07203926	0	0	0	0	0	0
30.107	-0.04483835	-0.07203926	0	0	0	0	0	0
30.12343	-0.04483835	-0.07203926	0	0	0	0	0	0
30.14	-0.04483835	-0.07203926	0	0	0	0	0	0
30.15656	-0.04483835	-0.07203926	0	0	0	0	0	0
30.17313	-0.04483835	-0.07203926	0	0	0	0	0	0
30.1897	-0.04483835	-0.07203926	0	0	0	0	0	0
30.20657	-0.04483835	-0.07203926	0	0	0	0	0	0
30.22283	-0.04483835	-0.07203926	0	0	0	0	0	0
30.23959	-0.04483835	-0.07203926	0	0	0	0	0	0
30.25611	-0.04483835	-0.07203926	0	0	0	0	0	0
30.27262	-0.04483835	-0.07203926	0	0	0	0	0	0
30.2891	-0.04483835	-0.07203926	0	0	0	0	0	0
30.30566	-0.04483835	-0.07203926	0	0	0	0	0	0
30.32223	-0.04483835	-0.07203926	0	0	0	0	0	0
30.37193	-0.04483835	-0.07203926	0	0	0	0	0	0
30.3885	-0.04483835	-0.07203926	0	0	0	0	0	0
30.40521	-0.04483835	-0.07203926	0	0	0	0	0	0
30.42163	-0.04483835	-0.07203926	0	0	0	0	0	0
30.4382	-0.04483835	-0.07203926	0	0	0	0	0	0
30.45476	-0.04483835	-0.07203926	0	0	0	0	0	0
30.47133	-0.04483835	-0.07203926	0	0	0	0	0	0
30.48991	-0.04483835	-0.07203926	0	0	0	0	0	0
30.50648	-0.04483835	-0.07203926	0	0	0	0	0	0
30.52304	-0.04483835	-0.07203926	0	0	0	0	0	0
30.53961	-0.04483835	-0.07203926	0	0	0	0	0	0
30.55631	-0.04483835	-0.07203926	0	0	0	0	0	0
30.57274	-0.04483835	-0.07203926	0	0	0	0	0	0
30.58931	-0.04483835	-0.07203926	0	0	0	0	0	0
30.60589	-0.04483835	-0.07203926	0	0	0	0	0	0
30.62245	-0.04483835	-0.07203926	0	0	0	0	0	0
30.63901	-0.04483835	-0.07203926	0	0	0	0	0	0
30.70528	-0.04483835	-0.07203926	0	0	0	0	0	0
30.72193	-0.04483835	-0.07203926	0	0	0	0	0	0
30.73844	-0.04481208	-0.07201999	0.001590566	0.001167318	0.04795921	0.0351973	0	0
30.75498	-0.04483835	-0.07200071	-0.001588364	0.001165702	-0.09619503	-4.889576E-05	0	0
30.77154	-0.04481208	-0.07201999	0.001585256	-0.00116342	0.09587387	-0.0703619	0	0
30.78811	-0.04481208	-0.07201999	0	0	-0.04784311	0.03511209	0	0
30.80468	-0.04483835	-0.07200071	-0.001585438	0.001163554	-0.04785138	0.03511816	0	0
30.8215	-0.04481208	-0.07201999	0.001560994	-0.001145615	0.09423266	-0.06915741	0	0
30.83781	-0.04481208	-0.07201999	0	0	-0.04711361	0.03457672	0	0
30.85452	-0.04483835	-0.07200071	-0.001571147	0.001153066	-0.04757615	0.03491617	0	0
30.87094	-0.04483835	-0.07200071	0	0	0.04741731	-0.03479959	0	0
30.88755	-0.04481208	-0.07198144	0.001581796	0.001160881	0.04790137	0.03515485	0	0
30.90408	-0.04481208	-0.07198144	0	0	-0.04774144	-0.03503748	0	0
30.92064	-0.04454945	-0.0717116	0.01585233	0.01628743	0.4789758	0.4921223	0	0
30.93721	-0.0440767	-0.07132617	0.02853573	0.02326481	0.3827856	0.2105776	0	0
30.95378	-0.04376152	-0.07109494	0.01902638	0.0139586	-0.2870091	-0.280878	0	0
30.97034	-0.04150247	-0.0693998	0.1363563	0.1023185	3.541227	2.66686	0	0
30.98691	-0.0385861	-0.06726309	0.1760324	0.1289724	1.197428	0.8044156	0	0
31.00348	-0.02533668	-0.05758146	0.7997366	0.5843842	18.82343	13.74436	0	0
31.02015	-0.01518304	-0.05018855	0.6091579	0.443531	-5.73418	-4.238028	0	0
31.03665	-0.004315763	-0.04226094	0.6582998	0.4802253	1.481229	1.106034	0	0
31.05318	0.003315777	-0.03669556	0.4618637	0.3368188	-5.94694	-4.341511	0	0
31.06974	0.02152299	-0.02339511	1.09899	0.8028166	19.25399	14.08249	0	0
31.08631	0.03172619	-0.01597157	0.6157956	0.4480341	-14.58199	-10.70674	0	0
31.10288	0.04334126	-0.007206743	0.7012486	0.5291681	2.579126	2.448769	0	0
31.11971	0.05053588	-0.001062752	0.4273312	0.3649282	-8.201221	-4.917424	0	0
31.13601	0.0544199	0.003039467	0.2382801	0.2516668	-5.705246	-3.418039	0	0
31.15273	0.05746298	0.007474767	0.1819839	0.2652417	-1.704812	0.4110901	0	0
31.16925	0.06286442	0.0154663	0.3270482	0.483874	4.364481	6.577888	0	0
31.19044	0.06642843	0.02934241	0.1682029	0.6548813	-4.212903	4.535464	0	0
31.20701	0.06847174	0.03609278	0.1233201	0.4074067	-1.188703	-6.554253	0	0
31.22358	0.07344659	0.04108236	0.300283	0.3011716	5.340444	-3.205996	0	0
31.2403	0.08176467	0.04673418	0.4973844	0.3379539	5.920587	1.104877	0	0
31.25671	0.08576279	0.04950126	0.2436555	0.1686324	-7.657995	-5.110428	0	0
31.27332	0.09474183	0.05562264	0.5405445	0.368512	8.991182	6.053287	0	0
31.28984	0.1036535	0.0619566	0.5393994	0.3833776	-0.03456011	0.4486689	0	0
31.30641	0.1072448	0.06447258	0.2167739	0.1518648	-9.750326	-6.996735	0	0
31.32298	0.1129904	0.06855772	0.3467614	0.2465515	3.922804	2.857486	0	0
31.33987	0.114549	0.06970305	0.09225065	0.06778962	-7.605411	-5.341848	0	0
31.35611	0.1149385	0.07005398	0.0239918	0.02161263	-2.060175	-1.393705	0	0
31.37289	0.1172752	0.07175276	0.1392442	0.1012335	3.490581	2.411431	0	0
31.3894	0.1204924	0.07418894	0.1948441	0.1475405	1.67003	1.390901	0	0
31.40581	0.1205443	0.07429965	0.003161878	0.006748398	-5.823195	-4.277181	0	0
31.42243	0.1204665	0.074355	-0.004681314	0.003330219	-0.2374872	-0.1035004	0	0
31.43894	0.1199996	0.07468708	-0.02827136	0.0201092	-0.7119491	0.5063906	0	0
31.45551	0.1188841	0.07548028	-0.06733267	0.04787787	-1.180776	0.839413	0	0
31.47208	0.1115612	0.08071538	-0.4420129	0.3159912	-11.30787	8.091675	0	0
31.48864	0.1041481	0.08607288	-0.4474532	0.3233796	-0.1641875	0.2229827	0	0
31.58805	0.09656712	0.1316072	-0.07626636	0.4580853	3.20075	1.161569	0	0
31.60461	0.1005023	0.1404024	0.2375307	0.5308749	2.705877	0.6276662	0	0
31.62118	0.1034452	0.1464942	0.1776523	0.3677452	-1.807237	-4.923547	0	0
31.63774	0.1038097	0.1506365	0.0220002	0.2500288	-4.69786	-3.552893	0	0
31.65431	0.1041221	0.1584406	0.01885577	0.4710588	-0.09489903	6.670701	0	0
31.67088	0.1045386	0.1657998	0.02513878	0.4442026	0.1896216	-0.810523	0	0
31.68745	0.1036535	0.1699649	-0.05342334	0.2514067	-2.37101	-5.818591	0	0
31.70413	0.1052413	0.1747967	0.09517236	0.2896109	4.468935	1.148969	0	0
31.72058	0.1063082	0.1756106	0.06486259	0.0494849	-0.9148032	-7.247434	0	0
31.73715	0.1065164	0.1757554	0.01256422	0.008734422	-1.584021	-1.234257	0	0
31.75371	0.1065164	0.1757554	0	0	-0.3791889	-0.2636054	0	0
31.77028	0.1065164	0.1757554	0	0	0	0	0	0
31.78684	0.1065164	0.1757554	0	0	0	0	0	0
31.80371	0.1064383	0.1758096	-0.004629613	0.003217796	-0.1385022	0.09626543	0	0
31.81998	0.1061781	0.1759905	-0.01598898	0.01111441	-0.3428263	0.2383202	0	0
31.8366	0.1053975	0.176533	-0.04697003	0.03264413	-0.9418412	0.6545156	0	0
31.85324	0.1007889	0.1797333	-0.2769931	0.192348	-6.916233	4.801905	0	0
31.86968	0.09961654	0.1805467	-0.07131365	0.04947735	6.218157	-4.319304	0	0
31.88626	0.09716673	0.1822454	-0.1476838	0.102406	-2.31231	1.602556	0	0
31.90281	0.09594138	0.1830946	-0.07406473	0.05132977	2.221957	-1.541573	0	0
31.91938	0.09596746	0.1830765	0.001574013	-0.001091016	2.28436	-1.583156	0	0
31.93595	0.09596746	0.1830765	0	0	-0.04749287	0.03291934	0	0
31.9528	0.09599353	0.1830585	0.001547292	-0.00107161	0.04628705	-0.03205709	0	0
31.96908	0.0960196	0.1830404	0.001602153	-0.001110838	0.00165618	-0.001184241	0	0
31.98587	0.0960196	0.1830043	0	-0.00215141	-0.04845069	-0.0314679	0	0
32.00221	0.09607175	0.1829681	0.003192042	-0.002211945	0.09634158	-0.001827077	0	0
32.01878	0.09607175	0.1829681	0	0	-0.09701174	0.06722488	0	0
32.03859	0.09607175	0.1829681	0	0	0	0	0	0
32.05516	0.09607175	0.1829681	0	0	0	0	0	0
32.07172	0.09607175	0.1829681	0	0	0	0	0	0
32.08842	0.09607175	0.1829681	0	0	0	0	0	0
32.10485	0.0961239	0.182932	0.003172412	-0.002198342	0.09575459	-0.06635374	0	0
32.12142	0.0961239	0.1828959	0	-0.002181132	-0.09611982	0.0005214442	0	0
32.13799	0.09614997	0.1828778	0.001574013	-0.001090116	0.0475038	0.03292692	0	0
32.15545	0.09617604	0.1828236	0.001493114	-0.003104859	-0.00237747	-0.05920993	0	0
32.17112	0.09614997	0.1828055	-0.001663579	-0.001152477	-0.09528018	0.05892978	0	0
32.18769	0.09614997	0.1827694	0	-0.002181132	0.05160305	-0.03190815	0	0
32.20425	0.09609783	0.182661	-0.003147576	-0.006543396	-0.09499402	-0.1316534	0	0
32.22082	0.09596746	0.1825345	-0.007869164	-0.007634412	-0.1424978	-0.03292691	0	0
32.23739	0.09531556	0.1820466	-0.03934852	-0.02944843	-0.9500488	-0.6583484	0	0
32.25401	0.09510694	0.1818659	-0.01254921	-0.01086992	0.8074105	0.559734	0	0
32.41843	0.08688596	0.1761352	-0.05000186	-0.03485581	-0.2068774	-0.132491	0	0
32.43513	0.08077126	0.1718293	-0.3659661	-0.2577082	-1.744485	-1.2304	0	0
32.45166	0.06983363	0.1642961	-0.6620259	-0.4559661	-8.909459	-5.966264	0	0
32.46816	0.06071476	0.1579509	-0.5524514	-0.3844122	3.317662	2.166484	0	0
32.48469	0.05090336	0.1511631	-0.5937212	-0.4107496	-1.249408	-0.7973424	0	0
32.50126	0.03792917	0.1421851	-0.7831236	-0.5419128	-5.723424	-3.963533	0	0
32.51782	0.0284397	0.1356151	-0.5727856	-0.3965694	6.348011	4.386473	0	0
32.53439	0.01670897	0.1274869	-0.7080681	-0.4906198	-4.082833	-2.838447	0	0
32.55124	0.009052385	0.1221766	-0.4545128	-0.3152298	7.588538	5.249165	0	0
32.56752	-0.0001842105	0.115508	-0.5670534	-0.4093983	-3.396484	-2.842012	0	0
32.58424	-0.005736779	0.1111731	-0.3321708	-0.2593244	7.116629	4.54704	0	0
32.60066	-0.009683908	0.1080613	-0.240408	-0.1895307	2.769406	2.106376	0	0
32.61723	-0.01691944	0.1010064	-0.4367374	-0.4258343	-5.951958	-7.163822	0	0
32.63379	-0.01820851	0.09232421	-0.07780874	-0.5240608	10.83249	-2.96448	0	0
32.65036	-0.01686682	0.0814522	0.08098464	-0.6562361	4.792394	-3.989058	0	0
32.66693	-0.01599864	0.07313713	0.05240383	-0.5018983	-0.8625706	4.657923	0	0
32.68382	-0.01499888	0.05067063	0.0592006	-1.33035	0.2031621	-24.76325	0	0
32.70006	-0.01497257	0.03640949	0.001619388	-0.8777818	-1.737804	13.65854	0	0
32.71663	-0.0158934	0.01880003	-0.05558154	-1.062909	-1.743185	-5.641698	0	0
32.73336	-0.01765606	0.004675191	-0.1053274	-0.8440261	-1.493766	6.572593	0	0
32.74977	-0.01955014	-0.002512909	-0.1154702	-0.4382133	-0.3060758	12.24605	0	0
32.76638	-0.02509999	-0.006188233	-0.3340666	-0.2212318	-6.62088	6.571972	0	0
32.7829	-0.02886041	-0.008508634	-0.2276605	-0.1404801	3.211711	2.437369	0	0
32.79946	-0.03338233	-0.01179398	-0.2730068	-0.1983495	-1.370763	-1.749321	0	0
32.81602	-0.03590561	-0.01360801	-0.1523408	-0.1095205	3.642545	2.681482	0	0
32.83259	-0.03690429	-0.01432635	-0.06028019	-0.04335899	2.778716	1.996989	0	0
