Time	Pos X	Pos Y	Vel X	Vel Y	Acc X	Acc YForce X	Force Y
0.01626514	-0.06375558	0.03624183	0.0009398033	-0.0005342307	-1.385683E-05	7.876905E-06	0	0
0.04046922	-0.06378179	0.0362232	-0.001082922	-0.0007697122	2.982708E-05	3.472406E-06	0	0
0.05703872	-0.06391283	0.03613004	-0.007908558	-0.00562183	-0.1674034	-0.1190015	0	0
0.07360545	-0.06433216	0.03575742	-0.02531134	-0.0224922	-0.5251889	-0.5091215	0	0
0.0901714	-0.06490869	0.03531023	-0.03480231	-0.02699483	-0.2864536	-0.1358972	0	0
0.1070753	-0.06598302	0.03450887	-0.06355527	-0.04740706	-0.8590716	-0.60987	0	0
0.123582	-0.06697861	0.03376326	-0.06031426	-0.0451698	0.09700548	0.06696273	0	0
0.1398704	-0.06697861	0.03376326	0	0	1.83912	1.377331	0	0
0.1566045	-0.06697861	0.03376326	0	0	0	0	0	0
0.1730039	-0.06697861	0.03376326	0	0	0	0	0	0
0.1895702	-0.06697861	0.03376326	0	0	0	0	0	0
0.2061385	-0.06697861	0.03376326	0	0	0	0	0	0
0.2227061	-0.06697861	0.03376326	0	0	0	0	0	0
0.23927	-0.06697861	0.03376326	0	0	0	0	0	0
0.2558376	-0.06697861	0.03376326	0	0	0	0	0	0
0.2724051	-0.06697861	0.03376326	0	0	0	0	0	0
0.2889706	-0.06697861	0.03376326	0	0	0	0	0	0
0.3227267	-0.06692621	0.03372597	0.001552314	-0.001104586	0.03084788	-0.02195055	0	0
0.3392346	-0.06684761	0.03367005	0.004761118	-0.003387936	0.06383909	-0.04542719	0	0
0.3558025	-0.06682142	0.0336514	0.001581143	-0.001125148	-0.09614193	0.06841211	0	0
0.3723696	-0.06679522	0.03363276	0.001581217	-0.0011252	2.230983E-06	-1.588038E-06	0	0
0.4055039	-0.06676903	0.03361412	0.0007906091	-0.0005627131	-0.01590715	0.01131733	0	0
0.4222968	-0.06674282	0.03359548	0.001560401	-0.001110072	0.01541829	-0.01096314	0	0
0.4388178	-0.06671663	0.03357683	0.001585638	-0.001128572	0.0007575587	-0.000555325	0	0
0.4553205	-0.06666423	0.03353954	0.003175221	-0.002259405	0.04813459	-0.03424305	0	0
0.4717712	-0.06661183	0.03350226	0.003185276	-0.00226656	0.0003051282	-0.0002171211	0	0
0.4883451	-0.06648083	0.03340904	0.007903785	-0.0056244	0.1428789	-0.1016772	0	0
0.5049027	-0.06624503	0.03324124	0.0142409	-0.01013417	0.1912714	-0.1361174	0	0
0.5214698	-0.06621883	0.0332226	0.001581669	-0.001125427	-0.382168	0.271964	0	0
0.5383757	-0.06619263	0.03320395	0.001549978	-0.001102878	-0.0009467656	0.0006736642	0	0
0.5546025	-0.06619263	0.03320395	0	0	-0.04678096	0.03328671	0	0
0.5711696	-0.06619263	0.03320395	0	0	0	0	0	0
0.5877352	0	0	3.995797	-2.004396	120.5999	-60.49607	0	0
0.6043039	-0.06616643	0.03318531	-3.993454	2.002889	-241.1174	120.9408	0	0
0.6209362	-0.06616643	0.03318531	0	0	120.2812	-60.3262	0	0
0.6374551	-0.06616643	0.03318531	0	0	0	0	0	0
0.6540017	-0.06616643	0.03318531	0	0	0	0	0	0
0.6709699	-0.06614023	0.03316666	0.001544283	-0.001098825	0.04607765	-0.03278628	0	0
0.6871359	-0.06614023	0.03316666	0	0	-0.04660689	0.03316285	0	0
0.703992	-0.06614023	0.03316666	0	0	0	0	0	0
0.7202698	-0.06614023	0.03316666	0	0	0	0	0	0
0.7368354	-0.06614023	0.03316666	0	0	0	0	0	0
0.75353	-0.06611403	0.03314802	0.001569138	-0.001116829	0.04717762	-0.0335785	0	0
0.7700407	-0.06611403	0.03314802	0	0	-0.04725562	0.03363401	0	0
0.7865514	-0.06611403	0.03314802	0	0	0	0	0	0
0.8031039	-0.06608783	0.03312937	0.001583065	-0.00112642	0.04788	-0.03406872	0	0
0.8200772	-0.06608783	0.03312937	0	0	-0.04721927	0.03359858	0	0
0.8362377	-0.06608783	0.03312937	0	0	0	0	0	0
0.8535983	-0.06606162	0.03311073	0.00150938	-0.00107399	0.04502773	-0.03203921	0	0
0.8693704	-0.06606162	0.03311073	0	0	-0.04555563	0.03241483	0	0
0.8859375	-0.06606162	0.03311073	0	0	0	0	0	0
0.9356373	-0.06600922	0.03307344	0.001054329	-0.0007503082	0.01591035	-0.01132252	0	0
0.9522029	-0.06598302	0.03305479	0.001581817	-0.001125533	0.00796024	-0.005662452	0	0
0.9687708	-0.06582581	0.03294291	0.009488638	-0.006752673	0.2386352	-0.1698323	0	0
0.9853371	-0.06530175	0.03256997	0.03163397	-0.02251207	0.6683509	-0.4756221	0	0
1.001904	-0.06053123	0.02917442	0.287958	-0.2049617	7.736194	-5.506569	0	0
1.035445	-0.05008965	0.02173784	0.311306	-0.2217149	0.4659552	-0.3343412	0	0
1.052239	-0.04313113	0.0167777	0.4143434	-0.2953504	2.04702	-1.462902	0	0
1.068579	-0.03855982	0.01351702	0.2797653	-0.1995544	-4.061646	2.891183	0	0
1.085265	-0.03658893	0.01211061	0.1181172	-0.084287	-4.894612	3.490227	0	0
1.101712	-0.03480173	0.01083497	0.1086633	-0.07756033	-0.2853293	0.2030202	0	0
1.118284	-0.03225197	0.009014489	0.1538609	-0.1098539	1.368837	-0.9780307	0	0
1.134846	-0.03191022	0.008732885	0.02063465	-0.01700304	-4.020847	2.802294	0	0
1.151412	-0.03130556	0.008263492	0.0365002	-0.02833487	0.478918	-0.342063	0	0
1.167979	-0.03072717	0.007625014	0.03491197	-0.03853888	-0.04793492	-0.3079712	0	0
1.184835	-0.03049055	0.007117902	0.01403774	-0.0300848	-0.6245435	0.2529407	0	0
1.201112	-0.03067459	0.006836141	-0.01130637	-0.01730994	-0.7649086	0.3855571	0	0
1.217678	-0.03075346	0.006441636	-0.004761203	-0.02381428	0.1992843	-0.1980413	0	0
1.23437	-0.03175248	0.005088697	-0.05985235	-0.08105579	-1.65651	-1.721168	0	0
1.250812	-0.03464403	0.001628721	-0.1758588	-0.2104299	-3.501145	-3.904588	0	0
1.267379	-0.03806056	-0.01383484	-0.2062281	-0.9334093	-0.9200265	-21.90238	0	0
1.283945	-0.03911162	-0.02477949	-0.06344558	-0.6606538	4.309357	8.232103	0	0
1.300512	-0.03976849	-0.03490615	-0.03964922	-0.6112505	0.7181964	1.491038	0	0
1.317078	-0.04037279	-0.04361572	-0.03647816	-0.5257529	0.09570681	2.580433	0	0
1.333646	-0.04108214	-0.05361453	-0.04281445	-0.603503	-0.1912329	-2.346546	0	0
1.350453	-0.04144993	-0.0602867	-0.02188376	-0.3969944	0.6271431	6.187588	0	0
1.366779	-0.04181771	-0.06655121	-0.022528	-0.3837229	-0.0194447	0.4005591	0	0
1.383475	-0.04208041	-0.07441112	-0.01573332	-0.4707502	0.2057612	-2.635422	0	0
1.400001	-0.04381405	-0.07757678	-0.1049063	-0.1915604	-2.684138	8.403715	0	0
1.416498	-0.04638775	-0.08086209	-0.1560045	-0.1991386	-1.547343	-0.2294815	0	0
1.433046	-0.04699169	-0.08382226	-0.03649773	-0.1788898	3.616481	0.6127639	0	0
1.449612	-0.04741181	-0.08502273	-0.02536025	-0.07246609	0.3363439	3.21392	0	0
1.466179	-0.04743807	-0.08500336	-0.001584817	0.001168825	0.7175751	2.222402	0	0
1.482746	-0.04741181	-0.08502273	0.001584852	-0.001168851	0.09566253	-0.07055247	0	0
1.499312	-0.04741181	-0.08502273	0	0	-0.04783281	0.03527738	0	0
1.515879	-0.0473593	-0.08506146	0.003169703	-0.002338151	0.09566562	-0.07056832	0	0
1.532445	-0.04720176	-0.0852164	0.009509765	-0.009352355	0.191351	-0.2116975	0	0
1.549012	-0.04691292	-0.08542945	0.01743449	-0.0128605	0.2391782	-0.1058803	0	0
1.565578	-0.04441813	-0.08727019	0.1505934	-0.1111125	4.018902	-2.965367	0	0
1.582146	-0.04344633	-0.08802622	0.05865744	-0.04563357	-2.774682	1.976192	0	0
1.615641	-0.04344633	-0.08798745	0	0.001157556	-1.171675	0.9346469	0	0
1.632151	-0.04347259	-0.08796806	-0.001590796	0.001174256	-0.03181276	0.0003339624	0	0
1.648413	-0.04347259	-0.08796806	0	0	0.0485421	-0.03583164	0	0
1.664977	-0.04347259	-0.08796806	0	0	0	0	0	0
1.681546	-0.04347259	-0.08796806	0	0	0	0	0	0
1.698198	-0.04347259	-0.08796806	0	0	0	0	0	0
1.714708	-0.04347259	-0.08796806	0	0	0	0	0	0
1.731246	-0.04347259	-0.08796806	0	0	0	0	0	0
1.747813	-0.04344633	-0.08798745	0.001585267	-0.001170174	0.04788722	-0.03534824	0	0
1.781754	-0.04344633	-0.08798745	0	0	-0.03138629	0.02316798	0	0
1.797978	-0.04344633	-0.08798745	0	0	0	0	0	0
1.864313	-0.04342006	-0.08800683	0.0003959762	-0.0002922508	0.004796262	-0.003539887	0	0
1.880824	-0.04336753	-0.08804561	0.003181744	-0.002348742	0.03362589	-0.02482308	0	0
1.897379	-0.04305233	-0.08831706	0.0190402	-0.0163972	0.4796065	-0.4248668	0	0
1.913945	-0.03995241	-0.09060609	0.1871166	-0.1381704	5.074583	-3.676589	0	0
1.930511	-0.03301432	-0.09573445	0.4188175	-0.3095725	6.993123	-5.173207	0	0
1.947373	-0.03093749	-0.097271	0.123169	-0.09112729	-8.844474	6.534901	0	0
1.963645	-0.01920816	-0.1060017	0.7208155	-0.5365375	18.03733	-13.44275	0	0
1.980212	-0.01368336	-0.1101044	0.3334948	-0.2476497	-11.79464	8.797174	0	0
1.996779	-0.009973354	-0.1129018	0.2239378	-0.1688573	-3.306531	2.378028	0	0
2.013345	-0.004184186	-0.1172117	0.349455	-0.2601561	3.788238	-2.755494	0	0
2.029933	-0.001210526	-0.1194282	0.1792686	-0.1336253	-5.133205	3.816458	0	0
2.046479	-0.001052631	-0.1195459	0.00954262	-0.007116355	-5.122415	3.818101	0	0
2.063045	-0.001052631	-0.1195459	0	0	-0.2881876	0.2149143	0	0
2.079972	-0.001052631	-0.1195459	0	0	0	0	0	0
2.096178	-0.001052631	-0.1195459	0	0	0	0	0	0
2.112745	-0.001078947	-0.1195263	-0.001588425	0.001184557	-0.04846675	0.03614375	0	0
2.12931	-0.001078947	-0.1195263	0	0	0.04794221	-0.03575258	0	0
2.146009	-0.001078947	-0.1195263	0	0	0	0	0	0
2.162443	-0.001078947	-0.1195263	0	0	0	0	0	0
2.179034	-0.001078947	-0.1195263	0	0	0	0	0	0
2.195576	-0.001078947	-0.1195263	0	0	0	0	0	0
2.212144	-0.001078947	-0.1195263	0	0	0	0	0	0
2.22871	-0.001078947	-0.1195263	0	0	0	0	0	0
2.245277	-0.001078947	-0.1195263	0	0	0	0	0	0
2.262091	-0.001105263	-0.1195459	-0.00156515	-0.001167206	-0.04688782	-0.03496643	0	0
2.278606	-0.001131578	-0.1195656	-0.001593378	-0.001188251	-0.000846924	-0.0006314302	0	0
2.294977	-0.001157894	-0.1195852	-0.00160751	-0.00119879	-0.0004297307	-0.0003204705	0	0
2.311629	-0.00118421	-0.1196048	-0.001580299	-0.001178502	0.000824009	0.0006143387	0	0
2.32811	-0.00118421	-0.1196048	0	0	0.04769557	0.03556881	0	0
2.344677	-0.00118421	-0.1196048	0	0	0	0	0	0
2.361243	-0.001210526	-0.1196244	-0.001588539	-0.001184642	-0.04794462	-0.03575438	0	0
2.377811	-0.001210526	-0.1196244	0	0	0.04794186	0.03575232	0	0
2.394377	-0.001210526	-0.1196244	0	0	0	0	0	0
2.427708	-0.001236841	-0.1196048	-0.0007895221	0.0005887834	-0.01582313	0.01180004	0	0
2.44422	-0.001236841	-0.1196048	0	0	0.01584016	-0.01181274	0	0
2.460742	-0.001236841	-0.1196048	0	0	0	0	0	0
2.496258	-0.001236841	-0.1196048	0	0	0	0	0	0
2.512702	-0.001236841	-0.1196048	0	0	0	0	0	0
2.529282	-0.001236841	-0.1196048	0	0	0	0	0	0
2.545834	-0.001236841	-0.1196048	0	0	0	0	0	0
2.562401	-0.001236841	-0.1196048	0	0	0	0	0	0
2.579321	-0.001236841	-0.1196048	0	0	0	0	0	0
2.595533	-0.001236841	-0.1196048	0	0	0	0	0	0
2.612101	-0.001236841	-0.1196048	0	0	0	0	0	0
2.628666	-0.001236841	-0.1196048	0	0	0	0	0	0
2.645234	-0.001236841	-0.1196048	0	0	0	0	0	0
2.661873	-0.001236841	-0.1196048	0	0	0	0	0	0
2.678388	-0.001236841	-0.1196048	0	0	0	0	0	0
2.728067	-0.001263157	-0.1195459	-0.0005297138	0.001185091	-0.008002495	0.01790342	0	0
2.744633	-0.001263157	-0.1195459	0	0	0.007996216	-0.01788937	0	0
2.7612	-0.001289473	-0.1195263	-0.001588418	0.001184557	-0.04793992	0.03575103	0	0
2.777767	-0.001289473	-0.1195263	0	0	0.04793992	-0.03575103	0	0
2.794335	-0.001289473	-0.1195263	0	0	0	0	0	0
2.810979	-0.001289473	-0.1195263	0	0	0	0	0	0
2.827467	-0.001289473	-0.1195263	0	0	0	0	0	0
2.844033	-0.001315789	-0.1195067	-0.001588516	0.001184625	-0.04805771	0.0358387	0	0
2.8606	-0.001315789	-0.1195067	0	0	0.04794359	-0.0357536	0	0
2.877167	-0.001315789	-0.1195067	0	0	0	0	0	0
2.894042	-0.001315789	-0.1195067	0	0	0	0	0	0
2.9103	-0.001315789	-0.1195067	0	0	0	0	0	0
2.927065	-0.001342105	-0.1194871	-0.001569654	0.001170559	-0.04753093	0.03544587	0	0
2.943434	-0.001421052	-0.1194282	-0.004823219	0.003596893	-0.09819562	0.07322903	0	0
2.960091	-0.001447367	-0.1194086	-0.001579846	0.001178165	0.09820881	-0.07323872	0	0
2.976598	-0.001578946	-0.1193105	-0.00797101	0.005943891	-0.1927124	0.1437006	0	0
2.993139	-0.001657893	-0.1192516	-0.004772678	0.003558753	0.09677653	-0.07217057	0	0
3.009702	-0.00173684	-0.1191927	-0.004766632	0.003554244	0.0001826413	-0.0001361862	0	0
3.042835	-0.001763156	-0.1191731	-0.0007942489	0.0005923084	0.07993487	-0.05960199	0	0
3.059404	-0.001763156	-0.1191731	0	0	0.01598009	-0.0119171	0	0
3.075969	-0.001789472	-0.1191535	-0.001588692	0.001184312	-0.04794751	0.03574312	0	0
3.092538	-0.001815788	-0.1191339	-0.001588196	0.001184387	1.496739E-05	2.255649E-06	0	0
3.109101	-0.001842103	-0.1191142	-0.001588875	0.001184448	-2.048823E-05	1.862247E-06	0	0
3.125669	-0.001894735	-0.119075	-0.003176698	0.002368562	-0.04792647	0.035741	0	0
3.142234	-0.00192105	-0.1190554	-0.001588578	0.001184676	0.04793096	-0.03573077	0	0
3.158801	-0.001947366	-0.1190358	-0.001588418	0.001184107	4.831198E-06	-1.717798E-05	0	0
3.175367	-0.001947366	-0.1190358	0	0	0.04794096	-0.03573823	0	0
3.19225	-0.001947366	-0.1190358	0	0	0	0	0	0
3.241634	-0.001947366	-0.1190358	0	0	0	0	0	0
3.258207	-0.001973682	-0.1190161	-0.001587892	0.001184165	-0.02407489	0.01795377	0	0
3.274807	-0.001973682	-0.1190161	0	0	0.04786654	-0.03569631	0	0
3.291334	-0.001973682	-0.1190161	0	0	0	0	0	0
3.324842	-0.001973682	-0.1190161	0	0	0	0	0	0
3.392399	-0.001973682	-0.1190161	0	0	0	0	0	0
3.408873	-0.001973682	-0.1190161	0	0	0	0	0	0
3.425439	-0.001973682	-0.1190161	0	0	0	0	0	0
3.442005	-0.001973682	-0.1190161	0	0	0	0	0	0
3.458572	-0.001973682	-0.1190161	0	0	0	0	0	0
3.475141	-0.001999997	-0.1189965	-0.001588281	0.001184005	-0.04793233	0.0357318	0	0
3.491963	-0.001999997	-0.1189965	0	0	0.04756681	-0.03545932	0	0
3.508274	-0.001999997	-0.1189965	0	0	0	0	0	0
3.541406	-0.002026313	-0.1189769	-0.0007942604	0.0005923169	-0.01606408	0.01197973	0	0
3.591105	-0.002052629	-0.1189573	-0.0005295005	0.0003947233	0.003196371	-0.002385492	0	0
3.607673	-0.002131576	-0.1188984	-0.004764911	0.003552516	-0.06391384	0.04765221	0	0
3.624239	-0.002263154	-0.1188003	-0.007942889	0.005922033	-0.09591295	0.07151318	0	0
3.640806	-0.002789466	-0.118408	-0.03176919	0.02368283	-0.7191256	0.5360566	0	0
3.657372	-0.004631546	-0.1170352	-0.1111945	0.0828644	-2.397165	1.786181	0	0
3.674089	-0.006315705	-0.1157808	-0.100747	0.075041	0.3138998	-0.235057	0	0
3.690505	-0.006315705	-0.1157808	0	0	3.040682	-2.26484	0	0
3.707117	-0.00634202	-0.1157612	-0.001584113	0.001179584	-0.04796254	0.03571453	0	0
3.723639	-0.00634202	-0.1157612	0	0	0.0478093	-0.03560042	0	0
3.740206	-0.006368335	-0.1157416	-0.001588325	0.001182741	-0.04800067	0.03574355	0	0
3.756772	-0.006499908	-0.1156436	-0.007942594	0.005914387	-0.1917805	0.1428075	0	0
3.773338	-0.00678937	-0.1154281	-0.01747291	0.01301019	-0.2876484	0.2141687	0	0
3.806473	-0.01105218	-0.112256	-0.1286492	0.09573141	-2.236881	1.664362	0	0
3.82304	-0.01376229	-0.1102021	-0.1635941	0.1239809	-0.7031012	0.5683855	0	0
3.839606	-0.01381491	-0.110163	-0.003176337	0.002360188	4.841663	-3.670704	0	0
3.856172	-0.01405171	-0.1099871	-0.01429408	0.0106222	-0.3355509	0.2493607	0	0
3.872739	-0.01641958	-0.108228	-0.1429331	0.10618	-3.882586	2.884127	0	0
3.889305	-0.02107583	-0.1047722	-0.2810599	0.2086027	-4.168853	3.091257	0	0
3.905873	-0.02875523	-0.099081	-0.4635096	0.3435049	-5.506305	4.071327	0	0
3.92244	-0.03685173	-0.09305248	-0.4887339	0.363903	-0.7612754	0.6156206	0	0
3.939006	-0.04076688	-0.09015977	-0.2363255	0.1746094	7.618031	-5.71314	0	0
3.955573	-0.04728053	-0.08531324	-0.3931761	0.2925459	-4.733897	3.559434	0	0
3.972139	-0.05129706	-0.08235145	-0.2424631	0.1787921	4.548822	-3.433317	0	0
3.988816	-0.0548397	-0.07974078	-0.2124275	0.156544	0.9035324	-0.6692694	0	0
4.005274	-0.05638753	-0.0786006	-0.09404583	0.06927685	3.572687	-2.63367	0	0
4.02184	-0.05623014	-0.07871653	0.009500838	-0.006998014	3.135445	-2.309641	0	0
4.038848	-0.0562039	-0.07873585	0.001542393	-0.001135878	-0.2370378	0.1746004	0	0
4.054972	-0.05607274	-0.07887111	0.008134806	-0.008388722	0.1989737	-0.218907	0	0
4.071539	-0.0560465	-0.07889043	0.001583502	-0.001166152	-0.2004037	0.2209377	0	0
4.088106	-0.0558104	-0.07906435	0.01425111	-0.01049777	0.3823147	-0.2816327	0	0
4.123911	-0.05578417	-0.07908367	0.000732682	-0.0005395752	-0.2581233	0.1901435	0	0
4.14038	-0.05578417	-0.07908367	0	0	-0.01401625	0.01032211	0	0
4.156945	-0.0558104	-0.07906435	-0.001583639	0.001166253	-0.0479392	0.03530427	0	0
4.173512	-0.0558104	-0.07906435	0	0	0.04779777	-0.03520012	0	0
4.190079	-0.0558104	-0.07906435	0	0	0	0	0	0
4.20697	-0.0558104	-0.07906435	0	0	0	0	0	0
4.223213	-0.05583664	-0.07904502	-0.001615019	0.001189821	-0.04874207	0.03590938	0	0
4.239991	-0.05583664	-0.07904502	0	0	0.04890889	-0.03603228	0	0
4.256346	-0.05583664	-0.07904502	0	0	0	0	0	0
4.273015	-0.05583664	-0.07904502	0	0	0	0	0	0
4.289479	-0.05583664	-0.07904502	0	0	0	0	0	0
4.306045	-0.05583664	-0.07904502	0	0	0	0	0	0
4.322613	-0.05583664	-0.07904502	0	0	0	0	0	0
4.339179	-0.05583664	-0.07904502	0	0	0	0	0	0
4.355745	-0.05583664	-0.07904502	0	0	0	0	0	0
4.372312	-0.05583664	-0.07904502	0	0	0	0	0	0
4.388879	-0.05583664	-0.07904502	0	0	0	0	0	0
4.405607	-0.05583664	-0.07904502	0	0	0	0	0	0
4.438578	-0.05583664	-0.07904502	0	0	0	0	0	0
4.455146	-0.05583664	-0.07904502	0	0	0	0	0	0
4.471714	-0.05583664	-0.07904502	0	0	0	0	0	0
4.488279	-0.05586287	-0.07902569	-0.001583685	0.001166736	-0.04779777	0.03521369	0	0
4.504845	-0.05586287	-0.07902569	0	0	0.0478012	-0.03521622	0	0
4.521412	-0.0558891	-0.07904502	-0.001583411	-0.001166535	-0.04778882	-0.0352071	0	0
4.538207	-0.0558891	-0.07904502	0	0	0.04746097	0.03496556	0	0
4.554545	-0.0558891	-0.07904502	0	0	0	0	0	0
4.571222	-0.0558891	-0.07904502	0	0	0	0	0	0
4.587734	-0.05591534	-0.07902569	-0.001588715	0.001170442	-0.04786899	0.03526616	0	0
4.604249	-0.05591534	-0.07902569	0	0	0.04810398	-0.03543928	0	0
4.621261	-0.05591534	-0.07902569	0	0	0	0	0	0
4.63738	-0.05594157	-0.07900637	-0.001627537	0.001198581	-0.0491241	0.03617688	0	0
4.653946	-0.05599404	-0.07900637	-0.003167096	0	-0.04710322	-0.03667089	0	0
4.670512	-0.05609897	-0.07900637	-0.006334192	0	-0.09558865	0	0	0
4.687079	-0.05691216	-0.07945085	-0.04908543	-0.02682959	-1.29029	-0.8097537	0	0
4.703645	-0.06587821	-0.08544882	-0.5412233	-0.3620591	-14.85339	-10.11768	0	0
4.720332	-0.07423177	-0.09116895	-0.5006198	-0.3428012	1.221059	0.5791368	0	0
4.736842	-0.09041075	-0.1009507	-0.979921	-0.5924567	-14.43812	-7.520441	0	0
4.753353	-0.1337493	-0.1107105	-2.624913	-0.59113	-49.81658	0.0401787	0	0
4.769912	-0.1550353	-0.112119	-1.285414	-0.08505429	40.50486	15.30313	0	0
4.786478	-0.1883714	-0.1131172	-2.012349	-0.06025302	-21.94497	0.7487087	0	0
4.803045	-0.2430458	-0.1137828	-3.300153	-0.04017825	-38.86766	0.6058838	0	0
4.819613	-0.2636383	-0.113959	-1.242961	-0.01063718	62.08616	0.8915513	0	0
4.836414	-0.3011578	-0.1146641	-2.233061	-0.0419617	-29.67118	-0.9387293	0	0
4.852925	-0.3255195	-0.1154281	-1.475529	-0.04627437	22.74029	-0.1294616	0	0
4.869434	-0.3411222	-0.11582	-0.9451017	-0.02373807	16.06404	0.682514	0	0
4.902457	-0.3428272	-0.1156044	-0.05162985	0.006527281	18.03813	0.6110211	0	0
4.919013	-0.3445302	-0.1146836	-0.1028622	0.05561591	-1.033345	0.9901064	0	0
4.935579	-0.3467897	-0.113959	-0.1363965	0.04374073	-1.012447	-0.3585276	0	0
4.952146	-0.348976	-0.1127061	-0.1319636	0.07562854	0.1337906	0.9624175	0	0
4.968712	-0.3491851	-0.11253	-0.01262341	0.01063239	3.601851	-1.961672	0	0
4.985517	-0.3491851	-0.11253	0	0	0.3782752	-0.3186121	0	0
5.002029	-0.3491618	-0.1125495	0.00140778	-0.001185332	0.04225398	-0.03557731	0	0
5.01854	-0.3490921	-0.1125691	0.004222021	-0.001185469	0.08522096	-4.145744E-06	0	0
5.035053	-0.3490224	-0.1125495	0.004221412	0.001185298	-1.845817E-05	0.07179063	0	0
5.051568	-0.3490224	-0.1125495	0	0	-0.1278145	-0.03588806	0	0
5.068112	-0.348883	-0.1125887	0.008428322	-0.002365568	0.2549433	-0.07155467	0	0
5.084679	-0.3487435	-0.1126278	0.008417163	-0.002362886	-0.0003370153	8.101221E-05	0	0
5.101245	-0.3486506	-0.112667	0.005611004	-0.002362954	-0.08469371	-2.051927E-06	0	0
5.117813	-0.3484646	-0.1127061	0.01122676	-0.002362368	0.1694887	1.767302E-05	0	0
5.134626	-0.3483948	-0.1127648	0.00414776	-0.00349236	-0.2120698	-0.03385185	0	0
5.150948	-0.3480693	-0.1129997	0.01994289	-0.01439067	0.476691	-0.3289068	0	0
5.167647	-0.3475809	-0.1134108	0.02924852	-0.02461737	0.2818099	-0.3097033	0	0
5.184157	-0.3466734	-0.1141744	0.05496751	-0.04625135	0.7744396	-0.6514336	0	0
5.200669	-0.3453459	-0.1152909	0.08039556	-0.06761733	0.7700244	-0.6470147	0	0
5.217213	-0.3453459	-0.1152909	0	0	-2.432118	2.045552	0	0
5.233782	-0.3453692	-0.1153105	-0.001406596	-0.001182656	-0.04247928	-0.03571627	0	0
5.250708	-0.3453459	-0.1153301	0.001376916	-0.001157701	0.08310362	0.0007450524	0	0
5.266914	-0.3453459	-0.1153301	0	0	-0.04155839	0.034942	0	0
5.28373	-0.3452993	-0.1153693	0.002770098	-0.002330126	0.08388662	-0.07056298	0	0
5.300046	-0.345276	-0.1153889	0.001428342	-0.00120094	-0.04049719	0.03408135	0	0
5.316752	-0.3452527	-0.1154085	0.001395034	-0.001172488	-0.001008657	0.0008615764	0	0
5.382879	-0.3452294	-0.1154281	0.0003524326	-0.0002963228	-0.01258674	0.01057746	0	0
5.399446	-0.3452294	-0.1154281	0	0	-0.004261886	0.003583363	0	0
5.416321	-0.3452061	-0.1154085	0.00138104	0.001161168	0.04129654	0.03472184	0	0
5.432582	-0.3452061	-0.1154085	0	0	-0.04167807	-0.03504262	0	0
5.449146	-0.3452061	-0.1154085	0	0	0	0	0	0
5.465716	-0.3451828	-0.1153889	0.001406515	0.001182138	0.04244933	0.03567752	0	0
5.482282	-0.3451828	-0.1153889	0	0	-0.04244688	-0.03567547	0	0
5.498847	-0.3451828	-0.1153889	0	0	0	0	0	0
5.515414	-0.3451828	-0.1153889	0	0	0	0	0	0
5.53198	-0.3451595	-0.1153693	0.001406839	0.00118286	0.04246033	0.03570034	0	0
5.565113	-0.345043	-0.1154673	0.003515996	-0.002956756	0.04243836	-0.08329324	0	0
5.58168	-0.3448798	-0.1156044	0.009849106	-0.008278647	0.1274261	-0.1070797	0	0
5.598247	-0.3446234	-0.1157808	0.01547614	-0.01064513	0.1698291	-0.07142266	0	0
5.614962	-0.3431773	-0.116996	0.08651405	-0.07270049	2.134406	-1.864516	0	0
5.63138	-0.3404911	-0.1192516	0.16362	-0.1373897	2.327163	-1.952409	0	0
5.647947	-0.3347511	-0.1241031	0.3464527	-0.2928286	5.542869	-4.71238	0	0
5.664515	-0.3316961	-0.1266997	0.184397	-0.1567249	-4.890709	4.107499	0	0
5.681079	-0.3315549	-0.1268177	0.008522728	-0.00712926	-5.308279	4.51513	0	0
5.697646	-0.331602	-0.1267784	-0.0028405	0.002375479	-0.3429774	0.2868825	0	0
5.714213	-0.3315785	-0.1267981	0.00141931	-0.001187255	0.1285632	-0.1075251	0	0
5.73078	-0.3315549	-0.1268177	0.00142119	-0.001188223	5.676096E-05	-2.920791E-05	0	0
5.747347	-0.3315549	-0.1268177	0	0	-0.04289223	0.03586116	0	0
5.76407	-0.3315314	-0.1268374	0.001406116	-0.00117711	0.04223791	-0.03535886	0	0
5.797046	-0.3315314	-0.1268374	0	0	-0.02829302	0.02368509	0	0
5.813612	-0.3314373	-0.1267193	0.005681001	0.007128234	0.1146694	0.1438814	0	0
5.83018	-0.3293417	-0.1248503	0.1264913	0.1128153	3.646113	3.189689	0	0
5.846747	-0.3218058	-0.1182314	0.4548532	0.3995053	9.90984	8.652196	0	0
5.863314	-0.3094403	-0.1064117	0.7464237	0.7134821	8.799741	9.475976	0	0
5.87988	-0.3026691	-0.1000741	0.408738	0.382558	-10.19196	-9.987886	0	0
5.896661	-0.2885813	-0.08854976	0.8395143	0.6867563	12.91794	9.122175	0	0
5.913013	-0.2773227	-0.07956682	0.6885079	0.5493418	-4.557581	-4.147357	0	0
5.92958	-0.2649133	-0.06976571	0.7490556	0.5916134	1.839298	1.284111	0	0
5.946147	-0.2458206	-0.05491708	1.152404	0.8962393	12.17308	9.19363	0	0
5.962713	-0.2306374	-0.0432722	0.9165659	0.7029671	-7.117918	-5.83322	0	0
5.979281	-0.2146167	-0.03119741	0.9669539	0.7287941	1.520758	0.7794825	0	0
5.996239	-0.1932677	-0.01557437	1.258953	0.9212911	8.709655	5.741733	0	0
6.012413	-0.1779145	-0.004736461	0.9492326	0.6700693	-9.348063	-7.582436	0	0
6.02898	-0.1587066	0.007625014	1.159426	0.7461616	6.419869	2.324063	0	0
6.045548	-0.1438933	0.01377949	0.8940777	0.3714635	-8.008111	-11.30825	0	0
6.062112	-0.1262461	0.01612206	1.065376	0.1414223	5.170091	-6.943058	0	0
6.078794	-0.1081553	0.01632813	1.084472	0.01235308	0.574374	-3.882244	0	0
6.095247	-0.08610238	0.01524144	1.340373	-0.06604912	7.723107	-2.366183	0	0
6.178082	-0.05675477	0.0002738452	0.3542912	-0.1806923	-9.931577	-1.154658	0	0
6.211385	-0.05830227	-0.001590008	-0.04646627	-0.05596529	-3.450687	1.073951	0	0
6.227779	-0.05901036	-0.002098514	-0.04319258	-0.03101841	0.0658725	0.5019757	0	0
6.244346	-0.05903658	-0.002079678	-0.001582828	0.00113692	1.262416	0.9755741	0	0
6.260919	-0.05903658	-0.002079678	0	0	0.04776228	-0.03430687	0	0
6.27748	-0.05903658	-0.002117349	0	-0.002274625	0	-0.06864931	0	0
6.294045	-0.05919392	-0.002268033	-0.009498188	-0.009096092	-0.2867219	-0.2059197	0	0
6.310614	-0.05932504	-0.002324541	-0.007913678	-0.003410549	0.04782062	0.17159	0	0
6.327179	-0.05940371	-0.00238105	-0.00474903	-0.003411391	0.095512	-2.539574E-05	0	0
6.343745	-0.05942993	-0.002399887	-0.001582919	-0.001137084	0.09556443	0.06864662	0	0
6.379507	-0.05953483	-0.002475234	-0.002933099	-0.002106925	-0.02580243	-0.01853402	0	0
6.396012	-0.05956105	-0.002531746	-0.001588681	-0.00342378	0.02572185	-0.02519452	0	0
6.412428	-0.05958727	-0.002550584	-0.001597356	-0.001147497	-0.0002635185	0.06914214	0	0
6.429036	-0.05963971	-0.002588259	-0.003157839	-0.002268533	-0.04725322	-0.03394628	0	0
6.445562	-0.05966594	-0.002644773	-0.00158671	-0.003419645	0.04741745	-0.03474113	0	0
6.462131	-0.05969216	-0.002701287	-0.001582691	-0.003411041	0.0001214266	0.0002600053	0	0
6.478697	-0.0597446	-0.002738964	-0.003165747	-0.002274312	-0.04777671	0.03430653	0	0
6.495262	-0.05971838	-0.002757803	0.001582965	-0.001137243	0.1433288	0.03431979	0	0
6.511828	-0.05971838	-0.002795481	0	-0.002274354	-0.04777809	-0.03432106	0	0
6.528395	-0.05971838	-0.002795481	0	0	0	0.06864312	0	0
6.544962	-0.05971838	-0.002795481	0	0	0	0	0	0
6.56153	-0.05971838	-0.002795481	0	0	0	0	0	0
6.578143	-0.05971838	-0.002795481	0	0	0	0	0	0
6.594664	-0.05969216	-0.00281432	0.001587213	-0.001140309	0.0479022	-0.0344146	0	0
6.611229	-0.05969216	-0.00281432	0	0	-0.04797262	0.0344652	0	0
6.627795	-0.05963971	-0.002851998	0.003165747	-0.002274397	0.09555206	-0.06864834	0	0
6.644362	-0.05958727	-0.002889677	0.003165656	-0.002274359	-2.747614E-06	1.124343E-06	0	0
6.660931	-0.0595086	-0.002983875	0.004747937	-0.005685349	0.04775197	-0.1029409	0	0
6.677495	-0.0595086	-0.003096917	0	-0.006824215	-0.1432972	-0.03437203	0	0
6.694063	-0.05956105	-0.003172281	-0.003165473	-0.004548808	-0.09553968	0.06867587	0	0
6.710736	-0.05971838	-0.003323013	-0.009436669	-0.00904071	-0.1886623	-0.1351341	0	0
6.727196	-0.06026903	-0.003718717	-0.03345372	-0.02404046	-0.7248778	-0.4527193	0	0
6.743762	-0.06396525	-0.006339103	-0.223117	-0.1581759	-5.74281	-4.061484	0	0
6.760329	-0.07260897	-0.01260639	-0.5217362	-0.3782941	-9.012605	-6.643372	0	0
6.776895	-0.0796731	-0.01775012	-0.4264406	-0.3105122	2.876192	2.04578	0	0
6.793463	-0.08874001	-0.02432428	-0.5472487	-0.3967943	-3.646101	-2.604075	0	0
6.810028	-0.09307242	-0.02751213	-0.2615348	-0.1924406	8.623112	6.167584	0	0
6.826818	-0.09966865	-0.03235709	-0.3928686	-0.2885642	-3.937428	-2.881813	0	0
6.843328	-0.1079732	-0.03839077	-0.5029997	-0.3654555	-3.307246	-2.309054	0	0
6.859841	-0.113458	-0.04241356	-0.3321451	-0.2436085	5.17375	3.689722	0	0
6.876352	-0.1201552	-0.04730158	-0.4056237	-0.2960472	-2.224985	-1.587881	0	0
6.892869	-0.1217631	-0.04844838	-0.09734803	-0.06943464	9.334001	6.861397	0	0
6.925995	-0.1249509	-0.05080072	-0.09623121	-0.07101006	0.022497	-0.03173492	0	0
6.942562	-0.1249509	-0.05080072	0	0	1.936492	1.428958	0	0
6.959411	-0.124925	-0.05078159	0.001537516	0.00113556	0.04601165	0.03398272	0	0
6.975697	-0.1248991	-0.05076245	0.001590728	0.00117486	0.001605936	0.001186092	0	0
6.992264	-0.1248732	-0.05074332	0.001564074	0.001154618	-0.0008113004	-0.0006161559	0	0
7.008946	-0.1248473	-0.05072419	0.001552898	0.00114692	-0.0003361319	-0.0002315012	0	0
7.091664	-0.1223594	-0.04888811	0.03007708	0.02219694	0.2869635	0.2117707	0	0
7.108526	-0.1223334	-0.04886899	0.001537226	0.001133809	-0.2866028	-0.21152	0	0
7.124802	-0.1223334	-0.04883075	0	0.002349564	-0.04638956	0.03668839	0	0
7.141365	-0.1222297	-0.04875427	0.006260796	0.004617326	0.190655	0.06905836	0	0
7.174573	-0.1192733	-0.04657551	0.08902664	0.06560788	1.662907	1.225404	0	0
7.191066	-0.1175607	-0.04531485	0.1038388	0.0764366	0.2980221	0.2178742	0	0
7.207631	-0.1127046	-0.0417459	0.2931655	0.2154597	5.727243	4.205532	0	0
7.224196	-0.1054235	-0.03640994	0.4395252	0.3221066	4.417717	3.219024	0	0
7.240763	-0.09930386	-0.0319388	0.3694021	0.2698946	-2.116475	-1.575873	0	0
7.257331	-0.09129812	-0.02614551	0.4832	0.3496633	3.434427	2.407425	0	0
7.273896	-0.084352	-0.02113969	0.4193167	0.3021863	-1.928056	-1.4329	0	0
7.290647	-0.0796731	-0.01775012	0.279332	0.2023584	-4.201769	-2.996428	0	0
7.307159	-0.07499069	-0.01440198	0.2835611	0.2027599	0.1271386	0.01207164	0	0
7.323596	-0.07205923	-0.01228518	0.178355	0.1287894	-3.192999	-2.245002	0	0
7.34018	-0.06797406	-0.009339097	0.2463189	0.1776367	2.058205	1.479282	0	0
7.356729	-0.06718819	-0.008772849	0.04749002	0.03421818	-6.000927	-4.328568	0	0
7.373296	-0.06443699	-0.006791756	0.1660581	0.1195755	3.5804	2.577537	0	0
7.389862	-0.06427974	-0.006678587	0.009492117	0.006831496	-4.725306	-3.40272	0	0
7.406428	-0.06427974	-0.006678587	0	0	-0.2864933	-0.2061898	0	0
7.423238	-0.06427974	-0.006678587	0	0	0	0	0	0
7.439561	-0.06427974	-0.006678587	0	0	0	0	0	0
7.456262	-0.06427974	-0.006678587	0	0	0	0	0	0
7.472698	-0.06427974	-0.006678587	0	0	0	0	0	0
7.490053	-0.06427974	-0.006678587	0	0	0	0	0	0
7.506798	-0.06427974	-0.006678587	0	0	0	0	0	0
7.523187	-0.06427974	-0.006678587	0	0	0	0	0	0
7.539821	-0.06427974	-0.006678587	0	0	0	0	0	0
7.55632	-0.06425353	-0.006697448	0.001588646	-0.001143166	0.04794682	-0.03450181	0	0
7.572887	-0.06425353	-0.006697448	0	0	-0.04804431	0.03457196	0	0
7.589454	-0.06425353	-0.006697448	0	0	0	0	0	0
7.60602	-0.06425353	-0.006697448	0	0	0	0	0	0
7.622882	-0.06422733	-0.00671631	0.001554016	-0.001118592	0.04648753	-0.03346207	0	0
7.639154	-0.06420112	-0.006735171	0.001610395	-0.001159146	0.001701564	-0.001223939	0	0
7.655904	-0.06420112	-0.006735171	0	0	-0.04876816	0.03510281	0	0
7.672287	-0.06417491	-0.006754033	0.001599836	-0.001151246	0.04828452	-0.03474568	0	0
7.688929	-0.06417491	-0.006754033	0	0	-0.04844348	0.03486006	0	0
7.705442	-0.0641487	-0.006772894	0.001587224	-0.001142171	0.0478729	-0.03444947	0	0
7.721988	-0.0641487	-0.006772894	0	0	-0.048011	0.03454885	0	0
7.738554	-0.0641487	-0.006772894	0	0	0	0	0	0
7.755477	-0.0641487	-0.006772894	0	0	0	0	0	0
7.771688	-0.0641487	-0.006772894	0	0	0	0	0	0
7.7885	-0.0641487	-0.006772894	0	0	0	0	0	0
7.804821	-0.0641487	-0.006772894	0	0	0	0	0	0
7.821388	-0.0641487	-0.006772894	0	0	0	0	0	0
7.837953	-0.0641487	-0.006772894	0	0	0	0	0	0
7.871087	-0.0641487	-0.006772894	0	0	0	0	0	0
7.90422	-0.0641225	-0.006791756	0.0007908518	-0.000569275	0.01193432	-0.008590624	0	0
7.920786	-0.06409629	-0.006810618	0.001582199	-0.001138555	0.01592254	-0.01145437	0	0
7.937353	-0.06409629	-0.006810618	0	0	-0.04775292	0.03436313	0	0
7.953919	-0.0641225	-0.00682948	-0.001582199	-0.001138583	-0.04775292	-0.03436398	0	0
7.970625	-0.0641225	-0.00682948	0	0	0.04755376	0.03422066	0	0
8.020185	-0.0641225	-0.00682948	0	0	0	0	0	0
8.036754	-0.0641225	-0.00682948	0	0	0	0	0	0
8.053682	-0.0641487	-0.006848342	-0.001547888	-0.001114209	-0.04620995	-0.03326309	0	0
8.069886	-0.0641487	-0.006886067	0	-0.002328123	0.04671805	-0.0366381	0	0
8.086452	-0.06417491	-0.006904929	-0.001582199	-0.001138611	-0.0482817	0.03629863	0	0
8.103019	-0.06417491	-0.006942654	0	-0.002277222	0.0477536	-0.03436532	0	0
8.119585	-0.06417491	-0.006942654	0	0	0	0.06873064	0	0
8.13625	-0.06420112	-0.006961517	-0.001572783	-0.001131835	-0.04732773	-0.03405885	0	0
8.152753	-0.06420112	-0.006961517	0	0	0.0474189	0.03412446	0	0
8.169765	-0.06420112	-0.006961517	0	0	0	0	0	0
8.185851	-0.06420112	-0.006961517	0	0	0	0	0	0
8.202418	-0.06420112	-0.006961517	0	0	0	0	0	0
8.218985	-0.06420112	-0.006961517	0	0	0	0	0	0
8.235813	-0.06420112	-0.006961517	0	0	0	0	0	0
8.252118	-0.06420112	-0.006961517	0	0	0	0	0	0
8.268686	-0.06420112	-0.006961517	0	0	0	0	0	0
8.285252	-0.06420112	-0.006961517	0	0	0	0	0	0
8.301861	-0.06420112	-0.006961517	0	0	0	0	0	0
8.318386	-0.06420112	-0.006961517	0	0	0	0	0	0
8.334952	-0.06420112	-0.006961517	0	0	0	0	0	0
8.35152	-0.06420112	-0.006961517	0	0	0	0	0	0
8.368084	-0.06420112	-0.006961517	0	0	0	0	0	0
8.384916	-0.06420112	-0.006961517	0	0	0	0	0	0
8.401429	-0.06420112	-0.006999243	0	-0.002284643	0	-0.06851485	0	0
8.41794	-0.06420112	-0.006999243	0	0	0	0.06918164	0	0
8.434452	-0.06420112	-0.006999243	0	0	0	0	0	0
8.450963	-0.06422733	-0.007018106	-0.001587048	-0.001142454	-0.04805904	-0.03459582	0	0
8.467486	-0.06422733	-0.007018106	0	0	0.04804239	0.03458383	0	0
8.484053	-0.06422733	-0.007018106	0	0	0	0	0	0
8.500619	-0.06422733	-0.007018106	0	0	0	0	0	0
8.51751	-0.06422733	-0.007018106	0	0	0	0	0	0
8.534021	-0.06422733	-0.007018106	0	0	0	0	0	0
8.550537	-0.06422733	-0.007018106	0	0	0	0	0	0
8.567045	-0.06422733	-0.007018106	0	0	0	0	0	0
8.583564	-0.06425353	-0.007036969	-0.001586315	-0.001141926	-0.0480313	-0.03457584	0	0
8.600019	-0.06425353	-0.007036969	0	0	0.0481077	0.03463084	0	0
8.616586	-0.06425353	-0.007036969	0	0	0	0	0	0
8.633152	-0.06425353	-0.007036969	0	0	0	0	0	0
8.64972	-0.06425353	-0.007036969	0	0	0	0	0	0
8.666285	-0.06430595	-0.007112423	-0.003164312	-0.004555193	-0.09550463	-0.1374839	0	0
8.699638	-0.06459422	-0.007659515	-0.008643027	-0.0164027	-0.1097539	-0.2373385	0	0
8.716152	-0.06462043	-0.00816896	-0.001586773	-0.03084959	0.1414997	-0.2897047	0	0
8.732552	-0.05906281	-0.01236076	0.3388922	-0.2556069	10.34475	-6.828787	0	0
8.749178	-0.05155953	-0.01799617	0.4512882	-0.3389447	3.403285	-2.52342	0	0
8.765686	-0.03958457	-0.02675282	0.7253985	-0.5304455	8.272668	-5.779506	0	0
8.782251	-0.03043796	-0.03344113	0.5521539	-0.4037537	-5.238181	3.830624	0	0
8.833578	-0.00118421	-0.05508952	0.5699514	-0.4217759	0.2621436	-0.2654547	0	0
8.850147	0.009552341	-0.0629945	0.6479849	-0.4770909	1.149311	-0.8147022	0	0
8.866713	0.0171036	-0.06855262	0.4558471	-0.3355273	-5.79873	4.272397	0	0
8.966113	0.04276339	-0.08779357	0.2581454	-0.1935699	-1.704827	1.224131	0	0
8.982844	0.0424219	-0.08804561	-0.02040984	-0.01506391	-2.398614	1.537099	0	0
8.999353	0.04210668	-0.08831706	-0.01909416	-0.01644231	0.03958089	-0.04146764	0	0
9.049385	0.01978689	-0.1047917	-0.4461132	-0.329284	-6.41741	-4.701508	0	0
9.065514	0.007841945	-0.1137045	-0.7406092	-0.5526096	-4.451256	-3.375528	0	0
9.08208	0.002026313	-0.1180353	-0.3510524	-0.2614231	11.91494	8.906199	0	0
9.098646	-0.009552341	-0.1266406	-0.6989292	-0.5194492	-10.49955	-7.787692	0	0
9.115214	-0.01773498	-0.132769	-0.4938768	-0.3698879	6.188495	4.513769	0	0
9.131945	-0.0278875	-0.1403967	-0.6068342	-0.4559217	-3.392268	-2.583715	0	0
9.148458	-0.03522227	-0.1459251	-0.4441847	-0.3347919	4.892716	3.643749	0	0
9.164969	-0.04163382	-0.1507704	-0.3882985	-0.2934466	1.692251	1.251947	0	0
9.18148	-0.04838326	-0.1558848	-0.4087853	-0.3097537	-0.6203839	-0.4938117	0	0
9.198047	-0.05234687	-0.1588949	-0.2392576	-0.1817028	5.125207	3.871269	0	0
9.214615	-0.05625637	-0.161869	-0.2359642	-0.1795072	0.09939621	0.06626459	0	0
9.231518	-0.05785641	-0.1630877	-0.09466066	-0.07209945	4.221657	3.208968	0	0
9.248026	-0.05780395	-0.1630477	0.00317758	0.00242183	2.928322	2.230439	0	0
9.264315	-0.05769904	-0.1629278	0.006440738	0.007360583	0.09949607	0.1505861	0	0
9.281052	-0.05767281	-0.1629079	0.001567174	0.00119391	-0.1475686	-0.1867232	0	0
9.297564	-0.05764659	-0.1628879	0.00158831	0.001210184	0.0006356872	0.0004894507	0	0
9.314075	-0.05764659	-0.1628479	0	0.002420508	-0.04809726	0.03665106	0	0
9.330586	-0.05764659	-0.1628079	0	0.002420368	0	-4.230351E-06	0	0
9.363716	-0.05759413	-0.162728	0.00158346	0.002412184	0.03189784	-0.0001648523	0	0
9.38028	-0.05759413	-0.162728	0	0	-0.03186417	-0.0485407	0	0
9.397133	-0.05759413	-0.1626481	0	0.00474294	0	0.141933	0	0
9.413414	-0.05767281	-0.1621487	-0.004832932	0.03067614	-0.1458624	0.7826881	0	0
9.43016	-0.05764659	-0.1620887	0.001566148	0.003578115	0.1937548	-0.8204886	0	0
9.446669	-0.05767281	-0.1619889	-0.001588585	0.006050163	-0.09486602	0.07433698	0	0
9.463189	-0.05767281	-0.1618291	0	0.009671932	0.04809587	0.1096524	0	0
9.479683	-0.05780395	-0.1613298	-0.007950952	0.03026977	-0.2408336	0.6239066	0	0
9.496247	-0.05730561	-0.1607907	0.03008548	0.03254541	1.150591	0.06883752	0	0
9.513213	-0.05607274	-0.1598127	0.07266767	0.0576465	1.269964	0.7486107	0	0
9.529381	-0.05368521	-0.1579576	0.1476734	0.1147428	2.263744	1.723219	0	0
9.546237	-0.05226814	-0.1568412	0.08406802	0.0662279	-1.926046	-1.469087	0	0
9.562513	-0.04714924	-0.1529581	0.314499	0.2385744	6.954822	5.201728	0	0
9.579264	-0.04360392	-0.1502735	0.2116565	0.1602692	-3.11392	-2.370967	0	0
9.612286	-0.0395583	-0.1472149	0.1225133	0.09262503	-1.791023	-1.359074	0	0
9.628799	-0.03958457	-0.147195	-0.001591059	0.001201923	-2.505349	-1.845598	0	0
9.645348	-0.03963712	-0.1471553	-0.003175517	0.002398859	-0.04792385	0.03620279	0	0
9.661914	-0.04005751	-0.1467981	-0.0253759	0.02156432	-0.670414	0.5787645	0	0
9.678482	-0.04089823	-0.1461631	-0.05074348	0.03832366	-0.7655951	0.5057978	0	0
9.695344	-0.043315	-0.1443386	-0.1433267	0.1082067	-2.769458	2.090424	0	0
9.777884	-0.04896084	-0.1401196	-0.06840164	0.05111411	0.7537625	-0.5743639	0	0
9.794916	-0.04901335	-0.14008	-0.003082788	0.002323628	0.655995	-0.4900011	0	0
9.811015	-0.04906585	-0.1400405	-0.00326134	0.002458385	-0.005389182	0.004067326	0	0
9.827582	-0.04906585	-0.1400405	0	0	0.09983835	-0.07525775	0	0
9.844451	-0.04906585	-0.1400405	0	0	0	0	0	0
9.860715	-0.04906585	-0.1400405	0	0	0	0	0	0
9.877474	-0.0490921	-0.1400603	-0.001566457	-0.001180789	-0.0474355	-0.03575668	0	0
9.89385	-0.04911835	-0.1401196	-0.001603037	-0.003625087	-0.001103948	-0.07376696	0	0
9.910497	-0.04917086	-0.1401592	-0.003154093	-0.002377542	-0.04696913	0.03777821	0	0
9.927011	-0.04914461	-0.140179	0.001589706	-0.001198314	0.143057	0.03556155	0	0
9.943557	-0.04914461	-0.1402186	0	-0.002392831	-0.04808537	-0.03613174	0	0
9.960114	-0.04911835	-0.1402384	0.001585494	-0.001195139	0.04789441	0.03617976	0	0
9.976681	-0.04914461	-0.1402582	-0.001584672	-0.00119452	-0.09570611	1.869381E-05	0	0
9.993557	-0.04911835	-0.1403175	0.001555569	-0.003517744	0.09389971	-0.06946924	0	0
10.00981	-0.04911835	-0.1403571	0	-0.002435362	-0.04694851	0.03266728	0	0
10.02658	-0.04914461	-0.1403769	-0.001565655	-0.001180184	-0.04740848	0.03800715	0	0
10.04295	-0.04914461	-0.1403769	0	0	0.04725156	0.03561803	0	0
10.0596	-0.04917086	-0.1403967	-0.001576414	-0.001188295	-0.04774116	-0.0359871	0	0
10.07608	-0.04919711	-0.1404165	-0.001593018	-0.001201714	-0.0005011235	-0.000405033	0	0
10.09265	-0.04922336	-0.1404363	-0.001584399	-0.001194313	0.0002607917	0.0002239459	0	0
10.10964	-0.04930212	-0.1404957	-0.004635273	-0.003494927	-0.09090861	-0.06855267	0	0
10.12578	-0.04940713	-0.1406144	-0.006504955	-0.007356036	-0.05642873	-0.1165318	0	0
10.14235	-0.04964339	-0.1407926	-0.01426078	-0.01075365	-0.2371082	-0.1038707	0	0
10.15892	-0.04972214	-0.140852	-0.00475434	-0.003584871	0.2869298	0.216373	0	0
10.1755	-0.04974839	-0.1408718	-0.001582352	-0.001193838	0.09567845	0.07212207	0	0
10.19205	-0.04974839	-0.1408322	0	0.002392969	0.04775687	0.1082532	0	0
10.20871	-0.04987964	-0.1406936	-0.007878916	0.008317889	-0.2372876	0.1784395	0	0
10.22522	-0.0499059	-0.1405946	-0.001589889	0.005994066	0.1895958	-0.0700565	0	0
10.24175	-0.05011589	-0.1403571	-0.01270331	0.01436754	-0.3363331	0.253412	0	0
10.25832	-0.05019464	-0.1402977	-0.004753841	0.003584665	0.2401921	-0.3258028	0	0
10.27488	-0.05045713	-0.1400603	-0.01584401	0.01433431	-0.3347213	0.3244436	0	0
10.29145	-0.05071962	-0.1398624	-0.01584379	0.01194451	6.801984E-06	-0.07212435	0	0
10.30802	-0.05074587	-0.1398426	-0.001584356	0.001194451	0.4303505	-0.3244374	0	0
10.32458	-0.05071962	-0.1398228	0.001584539	0.001194588	0.09564295	4.14959E-06	0	0
10.3413	-0.05071962	-0.1391106	0	0.04259314	-0.04760226	1.243683	0	0
10.35781	-0.04964339	-0.1354932	0.06518667	0.2190984	1.961579	5.311346	0	0
10.37433	-0.04919711	-0.1213717	0.02702923	0.8552812	-1.155552	19.26602	0	0
10.39085	-0.04956464	-0.1126278	-0.02224281	0.5291848	-1.491541	-9.871442	0	0
10.40742	-0.04982714	-0.09487903	-0.01584035	1.071011	0.1934548	16.37166	0	0
10.42399	-0.0499059	-0.0838029	-0.004752971	0.6684796	0.3345505	-12.14597	0	0
10.44055	-0.04993214	-0.07254046	-0.001584721	0.6799588	0.09562348	0.3464628	0	0
10.45712	-0.0490396	-0.06791741	0.05388349	0.2790964	1.674371	-12.10049	0	0
10.47369	-0.04720176	-0.062034	0.1109068	0.3550416	1.720919	2.291966	0	0
10.49025	-0.04607264	-0.06113141	0.06816955	0.0544925	-1.289814	-9.07059	0	0
10.52338	-0.04410296	-0.05984525	0.05944997	0.03881986	-0.1754618	-0.3153766	0	0
10.53995	-0.0440767	-0.05986444	0.001585389	-0.001158182	-1.164282	-0.8043906	0	0
10.55696	-0.0440767	-0.05986444	0	0	-0.04722328	0.03449825	0	0
10.57311	-0.0440767	-0.05986444	0	0	0	0	0	0
10.58965	-0.0440767	-0.05986444	0	0	0	0	0	0
10.60622	-0.0440767	-0.05986444	0	0	0	0	0	0
10.623	-0.0440767	-0.05986444	0	0	0	0	0	0
10.63935	-0.0440767	-0.05986444	0	0	0	0	0	0
10.65602	-0.0440767	-0.05986444	0	0	0	0	0	0
10.67248	-0.04410296	-0.05988363	-0.001595954	-0.001166126	-0.04816875	-0.03519578	0	0
10.68905	-0.04410296	-0.05988363	0	0	0.04832593	0.03531063	0	0
10.75532	-0.04410296	-0.05992202	0	-0.0005792534	0	-0.006993002	0	0
10.77211	-0.04405043	-0.05999879	0.003128772	-0.004572786	0.03767043	-0.04808215	0	0
10.78862	-0.0439979	-0.06003718	0.003181358	-0.002324708	0.001579094	0.06750711	0	0
10.80513	-0.0439979	-0.06007556	0	-0.00232444	-0.09632964	8.128621E-06	0	0
10.82164	-0.04394537	-0.06015234	0.003181358	-0.004649868	0.09632964	-0.07041259	0	0
10.83815	-0.04391911	-0.06017153	0.001591118	-0.001162757	-0.04816267	0.1056121	0	0
10.85472	-0.04391911	-0.06017153	0	0	-0.04810864	0.03515684	0	0
10.87128	-0.04391911	-0.06020992	0	-0.002317438	0	-0.06994446	0	0
10.88785	-0.04391911	-0.06020992	0	0	0	0.06994647	0	0
10.90442	-0.04391911	-0.06020992	0	0	0	0	0	0
10.92098	-0.04391911	-0.06020992	0	0	0	0	0	0
10.93755	-0.04391911	-0.06020992	0	0	0	0	0	0
10.95427	-0.04391911	-0.06020992	0	0	0	0	0	0
10.97068	-0.04391911	-0.06020992	0	0	0	0	0	0
10.98726	-0.04391911	-0.06020992	0	0	0	0	0	0
11.00382	-0.04394537	-0.06019073	-0.00158626	0.001159207	-0.04787343	0.03498495	0	0
11.02038	-0.04394537	-0.06019073	0	0	0.04788997	-0.03499704	0	0
11.03695	-0.04394537	-0.06019073	0	0	0	0	0	0
11.05352	-0.04394537	-0.06019073	0	0	0	0	0	0
11.07032	-0.04397164	-0.06017153	-0.001563343	0.001142519	-0.04685006	0.03423888	0	0
11.08665	-0.04397164	-0.06017153	0	0	0.04718449	-0.03448329	0	0
11.10334	-0.04397164	-0.06017153	0	0	0	0	0	0
11.11978	-0.04397164	-0.06017153	0	0	0	0	0	0
11.13636	-0.04397164	-0.06017153	0	0	0	0	0	0
11.15292	-0.04397164	-0.06017153	0	0	0	0	0	0
11.1864	-0.04397164	-0.06017153	0	0	0	0	0	0
11.20291	-0.04394537	-0.06019073	0.001590792	-0.00116258	0.03181996	-0.02325461	0	0
11.21918	-0.04394537	-0.06019073	0	0	-0.04852273	0.0354613	0	0
11.23593	-0.04397164	-0.06017153	-0.00156797	0.001145902	-0.04747859	0.03469823	0	0
11.25232	-0.0439979	-0.06019073	-0.001603159	-0.001171784	-0.001061988	-0.06994789	0	0
11.26888	-0.0439979	-0.06019073	0	0	0.04865652	0.03556411	0	0
11.28547	-0.04402417	-0.06020992	-0.001583657	-0.001157141	-0.04776875	-0.0349035	0	0
11.30202	-0.04405043	-0.06019073	-0.001587266	0.001159942	-0.0001089118	0.06993374	0	0
11.31899	-0.0440767	-0.06020992	-0.001546791	-0.001130364	0.001207296	-0.06831542	0	0
11.33515	-0.0440767	-0.06020992	0	0	0.04668089	0.03411347	0	0
11.35172	-0.04410296	-0.06022912	-0.001585663	-0.001158832	-0.04845934	-0.03541497	0	0
11.36853	-0.04418176	-0.0602867	-0.004686658	-0.003425198	-0.09290633	-0.06790072	0	0
11.38485	-0.04439187	-0.06040188	-0.01287444	-0.007056952	-0.247122	-0.1096129	0	0
11.40155	-0.04504845	-0.06084342	-0.03931434	-0.02643834	-0.8007001	-0.5869419	0	0
11.41806	-0.04688666	-0.06218766	-0.1113137	-0.08140096	-2.167704	-1.654774	0	0
11.43458	-0.04966964	-0.06418598	-0.1685337	-0.1210164	-1.732537	-1.199497	0	0
11.45112	-0.05748921	-0.06984275	-0.4727797	-0.3420139	-9.204948	-6.686269	0	0
11.46769	-0.06645463	-0.07639889	-0.5410293	-0.3956382	-2.061261	-1.61955	0	0
11.48425	-0.08228745	-0.08783235	-0.955891	-0.690284	-12.52055	-8.892426	0	0
11.50082	-0.09656712	-0.09775744	-0.8620219	-0.5991486	2.833462	2.750946	0	0
11.51738	-0.1019349	-0.1012625	-0.3240206	-0.2115752	16.23831	11.698	0	0
11.53395	-0.1207777	-0.1100653	-1.137352	-0.5313382	-24.54708	-9.650742	0	0
11.55051	-0.1683646	-0.1125495	-2.87268	-0.149969	-52.37535	11.51041	0	0
11.56708	-0.2011629	-0.1105932	-1.979713	0.1180842	26.95135	8.090327	0	0
11.58365	-0.2544913	-0.1061383	-3.219091	0.2689113	-37.40557	4.5521	0	0
11.61678	-0.2990203	-0.1020615	-1.343927	0.1230439	37.72982	-2.93497	0	0
11.63335	-0.319056	-0.1003273	-1.209288	0.1046676	2.708935	-0.3697312	0	0
11.64991	-0.3312961	-0.09783527	-0.7388979	0.1504376	14.19683	1.381381	0	0
11.66648	-0.3308725	-0.09818558	0.02557243	-0.0211456	23.07375	-5.17884	0	0
11.68305	-0.330896	-0.09816612	-0.00142119	0.001174731	-0.8147161	0.6736678	0	0
11.69962	-0.3309431	-0.09824397	-0.002840091	-0.004698562	-0.04282128	-0.1772512	0	0
11.71618	-0.3313902	-0.09857485	-0.02699493	-0.01997587	-0.7290155	-0.4610834	0	0
11.73275	-0.3317667	-0.09892526	-0.02272286	-0.02115145	0.1289464	-0.03548312	0	0
11.74931	-0.3318137	-0.09892526	-0.002840419	0	0.6000705	0.6383705	0	0
11.76588	-0.3317902	-0.09894472	0.001421027	-0.001175045	0.128607	-0.03546192	0	0
11.78245	-0.3317902	-0.09894472	0	0	-0.04288791	0.03546396	0	0
11.79901	-0.3317902	-0.09894472	0	0	0	0	0	0
11.81558	-0.3317902	-0.09894472	0	0	0	0	0	0
11.83215	-0.3317667	-0.09896419	0.001419391	-0.001175181	0.04283978	-0.03546906	0	0
11.84887	-0.3317432	-0.09898366	0.001406197	-0.001164256	-0.0003963884	0.0003281892	0	0
11.86528	-0.3317196	-0.09900313	0.001434486	-0.001186174	0.0008537719	-0.0006615035	0	0
11.88185	-0.3316961	-0.0990226	0.001419391	-0.001175181	-0.000457694	0.0003333574	0	0
11.91498	-0.3315549	-0.09913941	0.004260995	-0.003525643	0.05717757	-0.04729503	0	0
11.93155	-0.3313196	-0.09929517	0.01420209	-0.009401803	0.2000268	-0.1182354	0	0
11.94811	-0.3309196	-0.09962619	0.02414805	-0.01998052	0.3001697	-0.3192663	0	0
11.96468	-0.3299306	-0.1004831	0.0596954	-0.05172909	1.072852	-0.9582013	0	0
11.98125	-0.3290825	-0.1011845	0.05119589	-0.0423342	-0.256523	0.2835464	0	0
11.99782	-0.3287053	-0.1014963	0.02276161	-0.01881781	-0.8581235	0.7097055	0	0
12.01448	-0.3287289	-0.1014768	-0.001414521	0.001169528	-0.7274597	0.6014189	0	0
12.03099	-0.3287289	-0.1014768	0	0	0.0426351	-0.03525076	0	0
12.04751	-0.3287289	-0.1014768	0	0	0	0	0	0
12.06408	-0.3287289	-0.1014768	0	0	0	0	0	0
12.08103	-0.3287289	-0.1014768	0	0	0	0	0	0
12.09721	-0.3287289	-0.1014768	0	0	0	0	0	0
12.11378	-0.3287289	-0.1014768	0	0	0	0	0	0
12.13035	-0.3287289	-0.1014768	0	0	0	0	0	0
12.14691	-0.3287289	-0.1014768	0	0	0	0	0	0
12.16359	-0.3287289	-0.1014768	0	0	0	0	0	0
12.1801	-0.3287289	-0.1014768	0	0	0	0	0	0
12.19661	-0.3287289	-0.1014768	0	0	0	0	0	0
12.21318	-0.3287289	-0.1014768	0	0	0	0	0	0
12.22975	-0.3287289	-0.1014768	0	0	0	0	0	0
12.24631	-0.3287289	-0.1014768	0	0	0	0	0	0
12.26288	-0.3287289	-0.1014768	0	0	0	0	0	0
12.27945	-0.3287289	-0.1014768	0	0	0	0	0	0
12.29601	-0.3287289	-0.1014768	0	0	0	0	0	0
12.31269	-0.3287289	-0.1014768	0	0	0	0	0	0
12.3292	-0.3287289	-0.1014768	0	0	0	0	0	0
12.34571	-0.3287289	-0.1014768	0	0	0	0	0	0
12.36228	-0.3287289	-0.1014768	0	0	0	0	0	0
12.37924	-0.3287289	-0.1014768	0	0	0	0	0	0
12.42877	-0.3286818	-0.1015158	0.0009518377	-0.0007868304	0.01431485	-0.01183328	0	0
12.44528	-0.3286818	-0.1015158	0	0	-0.01441221	0.01191376	0	0
12.4618	-0.3286346	-0.1015547	0.002854194	-0.002359401	0.08641334	-0.07143303	0	0
12.47825	-0.328611	-0.1015742	0.001433553	-0.001185264	-0.04309833	0.03562008	0	0
12.49482	-0.3285639	-0.1016132	0.002844669	-0.002351527	0.04273764	-0.03532193	0	0
12.51138	-0.3285167	-0.1016522	0.002849254	-0.00235383	0.0001383916	-6.949445E-05	0	0
12.52795	-0.3284696	-0.1016912	0.002845979	-0.00235306	-9.88779E-05	2.324513E-05	0	0
12.54451	-0.328446	-0.1017106	0.001422989	-0.00117608	-0.04294838	0.03552336	0	0
12.56108	-0.3283753	-0.1017301	0.004268231	-0.001176327	0.0858671	-7.441212E-06	0	0
12.57788	-0.3283753	-0.1017301	0	0	-0.1279098	0.03525201	0	0
12.59439	-0.3283517	-0.1017496	0.001429479	-0.001180403	0.04291203	-0.03543494	0	0
12.61078	-0.3283517	-0.1017496	0	0	-0.04345066	0.03587971	0	0
12.62735	-0.3283517	-0.1017496	0	0	0	0	0	0
12.64393	-0.3283281	-0.1017691	0.001421271	-0.001175109	0.04287061	-0.03544549	0	0
12.66048	-0.3283281	-0.1017691	0	0	-0.04289529	0.03546589	0	0
12.69396	-0.3283281	-0.1017691	0	0	0	0	0	0
12.71018	-0.3283281	-0.1017691	0	0	0	0	0	0
12.72675	-0.3283281	-0.1017691	0	0	0	0	0	0
12.74331	-0.3283281	-0.1017691	0	0	0	0	0	0
12.75988	-0.3283281	-0.1017691	0	0	0	0	0	0
12.77652	-0.3283045	-0.1017886	0.001416466	-0.001171136	0.04265327	-0.03526579	0	0
12.79303	-0.3283045	-0.1017886	0	0	-0.04272444	0.03532463	0	0
12.80958	-0.3282574	-0.1018276	0.002849259	-0.002355322	0.08618928	-0.0712478	0	0
12.82615	-0.3282574	-0.1018276	0	0	-0.0860453	0.07112879	0	0
12.84271	-0.3281395	-0.101925	0.007118136	-0.005882311	0.2148319	-0.1775336	0	0
12.85928	-0.3280451	-0.102003	0.005693757	-0.004706119	-0.04298907	0.03549855	0	0
12.87585	-0.3277621	-0.1022369	0.0170829	-0.01411718	0.3437251	-0.2840264	0	0
12.8926	-0.3265822	-0.1032117	0.07042056	-0.05817998	1.600612	-1.322282	0	0
12.90911	-0.3217821	-0.1072123	0.290719	-0.2422981	6.622318	-5.534711	0	0
12.92555	-0.3204553	-0.1083453	0.08075123	-0.06895132	-6.373713	5.262056	0	0
12.94211	-0.3174893	-0.1107888	0.1790376	-0.147498	2.978548	-2.38034	0	0
12.95868	-0.3159685	-0.1120799	0.09180171	-0.07793611	-2.632936	2.099503	0	0
12.97525	-0.3158496	-0.1121777	0.007175286	-0.005904906	-2.55403	2.173906	0	0
12.99181	-0.3158496	-0.1121777	0	0	-0.2165381	0.1782002	0	0
13.00868	-0.3158496	-0.1121777	0	0	0	0	0	0
13.02519	-0.3158496	-0.1121777	0	0	0	0	0	0
13.04172	-0.3158496	-0.1121777	0	0	0	0	0	0
13.05808	-0.3158496	-0.1121777	0	0	0	0	0	0
13.14091	-0.3121359	-0.109557	0.04483267	0.03163893	0.4519628	0.3189553	0	0
13.15748	-0.3033164	-0.1036017	0.5323815	0.3594784	4.90494	3.298199	0	0
13.17405	-0.2974575	-0.09962619	0.353642	0.2399645	-5.394526	-3.60704	0	0
13.19061	-0.2802901	-0.09441256	1.036226	0.3146955	20.60042	2.255386	0	0
13.20718	-0.2626814	-0.09175134	1.062986	0.1606496	0.807668	-4.649382	0	0
13.22374	-0.2410119	-0.08961652	1.308048	0.1288656	7.396646	-0.9593285	0	0
13.24035	-0.2055047	-0.08707637	2.138542	0.1529895	25.03768	0.7272869	0	0
13.25688	-0.1861105	-0.08599123	1.17327	0.06564654	-29.13282	-2.636091	0	0
13.27387	-0.1473711	-0.08386098	2.279398	0.1253424	32.99369	1.780612	0	0
13.29001	-0.1204406	-0.08227406	1.668564	0.09832237	-18.43449	-0.8154422	0	0
13.30658	-0.09693211	-0.08068807	1.419217	0.09574709	-7.624264	-0.0787442	0	0
13.32341	-0.07137853	-0.07778924	1.518553	0.1722664	2.974856	2.291549	0	0
13.33992	-0.05641376	-0.07510571	0.9063534	0.16253	-18.36313	-0.2920446	0	0
13.35693	-0.04657156	-0.07030503	0.5785566	0.2821995	-9.778379	3.569814	0	0
13.38942	-0.03080604	-0.06099701	0.4852457	0.2864908	-1.885015	0.08668916	0	0
13.40598	-0.03025392	-0.06059384	0.03332578	0.02433536	-9.212137	-5.343894	0	0
13.43911	-0.0303328	-0.06065143	-0.002380824	-0.001738348	-0.7185012	-0.5246645	0	0
13.45568	-0.03035909	-0.06070903	-0.001587146	-0.003476745	0.01597099	-0.03498132	0	0
13.47253	-0.03038538	-0.06072823	-0.00156062	-0.00113948	0.0007938716	0.06995092	0	0
13.48903	-0.03038538	-0.06072823	0	0	0.04679656	0.03416829	0	0
13.50538	-0.03041167	-0.06070903	-0.001607953	0.001174039	-0.04894369	0.035736	0	0
13.52205	-0.03046426	-0.06074743	-0.003155177	-0.002303961	-0.04686255	-0.1053422	0	0
13.53856	-0.03056942	-0.06082422	-0.006368665	-0.004650502	-0.09685503	-0.0707251	0	0
13.55508	-0.03114782	-0.06124662	-0.03501081	-0.02556843	-0.8670669	-0.6332362	0	0
13.57164	-0.03230455	-0.06209162	-0.06982441	-0.05100702	-1.052191	-0.7688447	0	0
13.58821	-0.03306689	-0.06264868	-0.04601249	-0.03362257	0.7186452	0.5246636	0	0
13.60511	-0.03311946	-0.06268711	-0.003111594	-0.002274162	1.282022	0.9367948	0	0
13.62134	-0.03314575	-0.06270632	-0.001619172	-0.001183462	0.04504528	0.03292025	0	0
13.63791	-0.03317204	-0.06268711	-0.001586696	0.001159889	0.0009900415	0.07143801	0	0
13.65448	-0.03317204	-0.06268711	0	0	0.04788934	-0.03500754	0	0
13.67115	-0.03317204	-0.06268711	0	0	0	0	0	0
13.68766	-0.03317204	-0.06268711	0	0	0	0	0	0
13.70418	-0.03319832	-0.0626679	-0.00159146	0.001162921	-0.04818569	0.03521052	0	0
13.72074	-0.03319832	-0.0626679	0	0	0.04810374	-0.03515064	0	0
13.73731	-0.03322461	-0.06264868	-0.001586921	0.001159889	-0.04789475	0.03500653	0	0
13.75388	-0.03322461	-0.06264868	0	0	0.04789613	-0.03500754	0	0
13.77072	-0.03322461	-0.06264868	0	0	0	0	0	0
13.78701	-0.03322461	-0.06264868	0	0	0	0	0	0
13.82025	-0.03322461	-0.06264868	0	0	0	0	0	0
13.83671	-0.03322461	-0.06264868	0	0	0	0	0	0
13.85328	-0.03322461	-0.06264868	0	0	0	0	0	0
13.86984	-0.03322461	-0.06264868	0	0	0	0	0	0
13.88641	-0.03322461	-0.06264868	0	0	0	0	0	0
13.91955	-0.03322461	-0.06264868	0	0	0	0	0	0
13.93611	-0.03319832	-0.06262948	0.001587104	0.001159573	0.03193382	0.02333155	0	0
13.95268	-0.03319832	-0.06262948	0	0	-0.0479044	-0.03500002	0	0
13.96924	-0.03319832	-0.06262948	0	0	0	0	0	0
13.98581	-0.03319832	-0.06262948	0	0	0	0	0	0
14.00239	-0.03319832	-0.06262948	0	0	0	0	0	0
14.01894	-0.03319832	-0.06262948	0	0	0	0	0	0
14.03591	-0.03319832	-0.06262948	0	0	0	0	0	0
14.05242	-0.03322461	-0.06264868	-0.001592881	-0.001163794	-0.04758703	-0.03476813	0	0
14.06984	-0.03322461	-0.06264868	0	0	0.04695559	0.03430679	0	0
14.08644	-0.03319832	-0.0626679	0.001582821	-0.001156892	0.04651517	-0.0339982	0	0
14.10297	-0.03319832	-0.0626679	0	0	-0.04776688	0.03491307	0	0
14.11954	-0.03319832	-0.0626679	0	0	0	0	0	0
14.15267	-0.03319832	-0.0626679	0	0	0	0	0	0
14.20237	-0.03319832	-0.0626679	0	0	0	0	0	0
14.21894	-0.03319832	-0.0626679	0	0	0	0	0	0
14.23551	-0.03319832	-0.0626679	0	0	0	0	0	0
14.29041	-0.03319832	-0.0626679	0	0	0	0	0	0
14.3071	-0.03319832	-0.0626679	0	0	0	0	0	0
14.32355	-0.03319832	-0.0626679	0	0	0	0	0	0
14.34012	-0.03319832	-0.0626679	0	0	0	0	0	0
14.35668	-0.03319832	-0.0626679	0	0	0	0	0	0
14.37325	-0.03319832	-0.0626679	0	0	0	0	0	0
14.38981	-0.03319832	-0.0626679	0	0	0	0	0	0
14.40638	-0.03319832	-0.0626679	0	0	0	0	0	0
14.42318	-0.03319832	-0.0626679	0	0	0	0	0	0
14.44019	-0.03319832	-0.0626679	0	0	0	0	0	0
14.45608	-0.03319832	-0.0626679	0	0	0	0	0	0
14.47273	-0.03319832	-0.0626679	0	0	0	0	0	0
14.48921	-0.03319832	-0.0626679	0	0	0	0	0	0
14.50578	-0.03319832	-0.0626679	0	0	0	0	0	0
14.52235	-0.03319832	-0.0626679	0	0	0	0	0	0
14.53891	-0.03319832	-0.0626679	0	0	0	0	0	0
14.55548	-0.03319832	-0.0626679	0	0	0	0	0	0
14.57205	-0.03322461	-0.06264868	-0.001586921	0.001159889	-0.04789613	0.03500754	0	0
14.58861	-0.03322461	-0.06264868	0	0	0.04789613	-0.03500754	0	0
14.60532	-0.03322461	-0.06264868	0	0	0	0	0	0
14.62183	-0.03322461	-0.06264868	0	0	0	0	0	0
14.63833	-0.03322461	-0.06264868	0	0	0	0	0	0
14.65488	-0.03322461	-0.06264868	0	0	0	0	0	0
14.67186	-0.03322461	-0.06264868	0	0	0	0	0	0
14.68801	-0.0332509	-0.06262948	-0.001627354	0.001189149	-0.04911648	0.03589067	0	0
14.70458	-0.0332509	-0.06262948	0	0	0.04973781	-0.03634469	0	0
14.72114	-0.0332509	-0.06262948	0	0	0	0	0	0
14.7379	-0.0332509	-0.06262948	0	0	0	0	0	0
14.75441	-0.0332509	-0.06262948	0	0	0	0	0	0
14.77092	-0.0332509	-0.06262948	0	0	0	0	0	0
14.78743	-0.03322461	-0.06264868	0.001592012	-0.001163324	0.04820935	-0.03522781	0	0
14.80398	-0.03322461	-0.06264868	0	0	-0.04816623	0.0351963	0	0
14.82096	-0.03322461	-0.06264868	0	0	0	0	0	0
14.83711	-0.03322461	-0.06264868	0	0	0	0	0	0
14.85398	-0.03322461	-0.06264868	0	0	0	0	0	0
14.8705	-0.03322461	-0.06264868	0	0	0	0	0	0
14.88701	-0.03322461	-0.06264868	0	0	0	0	0	0
14.90338	-0.03322461	-0.06264868	0	0	0	0	0	0
14.93651	-0.03319832	-0.0626679	0.000793392	-0.0005798946	0.01602859	-0.01171538	0	0
14.95308	-0.03319832	-0.0626679	0	0	-0.01596369	0.01166795	0	0
14.96964	-0.03319832	-0.0626679	0	0	0	0	0	0
14.98621	-0.03319832	-0.0626679	0	0	0	0	0	0
15.08561	-0.03317204	-0.06268711	0.0002644519	-0.0001932418	0.002280448	-0.001666382	0	0
15.10217	-0.03317204	-0.06268711	0	0	-0.002280448	0.001666382	0	0
15.11874	-0.03317204	-0.06268711	0	0	0	0	0	0
15.13568	-0.03317204	-0.06268711	0	0	0	0	0	0
15.15187	-0.03319832	-0.0626679	-0.001623138	0.001186068	-0.04899203	0.03579973	0	0
15.16844	-0.03319832	-0.0626679	0	0	0.04954539	-0.03620408	0	0
15.18522	-0.03319832	-0.0626679	0	0	0	0	0	0
15.20172	-0.03319832	-0.0626679	0	0	0	0	0	0
15.21824	-0.03317204	-0.06268711	0.001591736	-0.001163122	0.04821214	-0.03522985	0	0
15.23475	-0.03317204	-0.06268711	0	0	-0.04819404	0.03521662	0	0
15.25127	-0.03317204	-0.06268711	0	0	0	0	0	0
15.26784	-0.03317204	-0.06272553	0	-0.002319329	0	-0.07009634	0	0
15.28441	-0.03317204	-0.06272553	0	0	0	0.0699995	0	0
15.30097	-0.03319832	-0.06274474	-0.001586696	-0.001159889	-0.04788797	-0.03500653	0	0
15.3178	-0.03319832	-0.06274474	0	0	0.04750783	0.03472865	0	0
15.33411	-0.03322461	-0.06280237	-0.001612542	-0.003534934	-0.04866521	-0.1066814	0	0
15.35083	-0.0332509	-0.06286001	-0.001572036	-0.003447071	0.001226583	0.002660574	0	0
15.36724	-0.03327718	-0.06287923	-0.001601819	-0.001170944	-0.0008989702	0.06870156	0	0
15.38385	-0.03322461	-0.06295608	0.003164466	-0.004626059	0.1443328	-0.1046279	0	0
15.40037	-0.03319832	-0.06305215	0.001591318	-0.005815065	-0.04747907	-0.03588532	0	0
15.41694	-0.03301432	-0.06330194	0.01110732	-0.01507811	0.2876075	-0.2799622	0	0
15.43389	-0.03283031	-0.06351332	0.01085326	-0.01246757	-0.007579369	0.07787853	0	0
15.45007	-0.03219939	-0.06408988	0.0389955	-0.03563633	0.8493589	-0.6992547	0	0
15.46692	-0.02957033	-0.06616648	0.1560852	-0.123286	3.545716	-2.654209	0	0
15.48321	-0.02780862	-0.06776343	0.1081358	-0.0980228	-1.447076	0.7624217	0	0
15.49993	-0.02281183	-0.0726947	0.2987349	-0.2948175	5.772563	-5.960206	0	0
15.51634	-0.02289074	-0.07757678	-0.004809526	-0.297578	-9.161516	-0.08331595	0	0
15.53291	-0.02701974	-0.09091662	-0.249227	-0.8051943	-7.412591	-15.39477	0	0
15.54947	-0.03130556	-0.1017496	-0.2587075	-0.6539194	-0.2861287	4.565618	0	0
15.56604	-0.0359319	-0.1124908	-0.2792624	-0.6483772	-0.6203829	0.1672723	0	0
15.58261	-0.04299979	-0.124988	-0.4266436	-0.7543728	-4.448232	-3.199138	0	0
15.59917	-0.04838326	-0.1338346	-0.3249655	-0.534016	3.068828	6.650767	0	0
15.61602	-0.05845963	-0.1424163	-0.5981904	-0.5094592	-8.177685	0.7349896	0	0
15.63231	-0.06296927	-0.1457069	-0.2768564	-0.2020117	9.698157	9.279052	0	0
15.64887	-0.07232102	-0.1527193	-0.56444	-0.4232502	-8.752597	-6.733387	0	0
15.66555	-0.07459816	-0.154411	-0.1365365	-0.1014321	12.87081	9.679893	0	0
15.68201	-0.07823473	-0.1570206	-0.2210054	-0.1585919	-2.549423	-1.725185	0	0
15.69857	-0.07904548	-0.1576784	-0.04893978	-0.03970878	5.210797	3.600229	0	0
15.71559	-0.07907163	-0.1576585	-0.001536756	0.001171612	1.411491	1.217271	0	0
15.7321	-0.07904548	-0.1576784	0.001583981	-0.001207616	0.09308026	-0.07096376	0	0
15.74827	-0.07904548	-0.1576784	0	0	-0.04846301	0.03694787	0	0
15.76484	-0.07907163	-0.1576585	-0.001578783	0.001203653	-0.04822376	0.03676547	0	0
15.79797	-0.07917624	-0.1572997	-0.003157202	0.01083028	-0.0317609	0.1937067	0	0
15.81454	-0.07922854	-0.1571801	-0.00315702	0.007218872	3.658783E-06	-0.07266448	0	0
15.86424	-0.07943775	-0.1569409	-0.004209372	0.004812766	-0.01588048	-0.03630925	0	0
15.94707	-0.0794116	-0.1569608	0.0003157093	-0.0002406946	0.03414279	-0.03812954	0	0
15.96376	-0.07938544	-0.1569409	0.001566964	0.001194643	0.01257245	0.01442209	0	0
15.98027	-0.07938544	-0.1569409	0	0	-0.04719463	-0.03598087	0	0
15.99677	-0.07935929	-0.1568811	0.001585079	0.003623555	0.04801607	0.1097667	0	0
16.01334	-0.07935929	-0.1568811	0	0	-0.0479399	-0.1095925	0	0
16.02991	-0.07933315	-0.1567814	0.001577152	0.006011967	0.0475876	0.1813997	0	0
16.04647	-0.0794116	-0.1566818	-0.004737807	0.006017992	-0.1905859	0.0001818406	0	0
16.06304	-0.07959464	-0.1561836	-0.01104867	0.03006904	-0.190517	0.7260711	0	0
16.07961	-0.07975154	-0.1550283	-0.009471251	0.06974399	0.04760935	1.197461	0	0
16.09617	-0.08137255	-0.1512873	-0.09784468	0.2258034	-2.667269	4.710153	0	0
16.11274	-0.08299313	-0.1470759	-0.0978186	0.2542013	0.0007872313	0.8570499	0	0
16.12938	-0.08876612	-0.1411489	-0.3469403	0.3561968	-7.502097	3.071513	0	0
16.1459	-0.09056735	-0.1369751	-0.1090615	0.2527184	7.174654	-3.121007	0	0
16.16244	-0.09176784	-0.1316841	-0.07255358	0.3197713	1.104226	2.028094	0	0
16.17941	-0.09471574	-0.1282353	-0.1736769	0.2031873	-3.016829	-3.478067	0	0
16.19557	-0.09458534	-0.1283337	0.008069782	-0.006093603	5.485442	-6.316475	0	0
16.21214	-0.09461142	-0.1283141	-0.001574013	0.001188155	-0.2946804	0.2225048	0	0
16.22871	-0.09458534	-0.1283337	0.001574013	-0.001188155	0.0950076	-0.07171717	0	0
16.24546	-0.0945071	-0.1284322	0.004669714	-0.005877384	0.09289902	-0.1407193	0	0
16.26184	-0.09429844	-0.1286292	0.01273807	-0.01202441	0.2434894	-0.1855069	0	0
16.27849	-0.09424628	-0.1287474	0.00313449	-0.007100726	-0.2908075	0.1490948	0	0
16.295	-0.09419411	-0.1288656	0.003158657	-0.007156495	0.0007288617	-0.00168195	0	0
16.31154	-0.09416803	-0.1288853	0.001576822	-0.001190837	-0.04785281	0.1804699	0	0
16.32811	-0.09416803	-0.1288853	0	0	-0.04762423	0.03596643	0	0
16.34468	-0.09416803	-0.1288853	0	0	0	0	0	0
16.36155	-0.09416803	-0.1288853	0	0	0	0	0	0
16.37781	-0.09419411	-0.1288656	-0.001604197	0.00121151	-0.04841755	0.03656556	0	0
16.39457	-0.09422019	-0.1288459	-0.001555921	0.001175387	0.001462037	-0.001093983	0	0
16.41108	-0.09422019	-0.1288459	0	0	0.04676396	-0.03532683	0	0
16.4276	-0.09422019	-0.1288459	0	0	0	0	0	0
16.44461	-0.09422019	-0.1288459	0	0	0	0	0	0
16.46065	-0.09422019	-0.1288459	0	0	0	0	0	0
16.47721	-0.09419411	-0.1288656	0.001574013	-0.001189054	0.04827636	-0.03646934	0	0
16.49378	-0.09422019	-0.1289247	-0.001574194	-0.003567573	-0.09501854	-0.07178798	0	0
16.62674	-0.09398545	-0.1292596	0.001765568	-0.002518878	0.02233614	0.007013617	0	0
16.64288	-0.09398545	-0.129299	0	-0.002441695	-0.01184155	0.0005176624	0	0
16.65945	-0.09401153	-0.1292793	-0.001574463	0.001189054	-0.04813527	0.1110011	0	0
16.67601	-0.09401153	-0.1293187	0	-0.002378108	0.04751737	-0.1076572	0	0
16.7093	-0.09403761	-0.1293384	-0.0007837573	-0.0005919036	-0.01572277	0.03583263	0	0
16.72581	-0.09406369	-0.1293581	-0.001578921	-0.001192762	-0.01596808	-0.01206614	0	0
16.74228	-0.09408978	-0.1293778	-0.001584128	-0.001197259	-0.0001578965	-0.0001363549	0	0
16.77541	-0.09411586	-0.1294369	-0.0007872313	-0.001783581	0.01606628	-0.01182087	0	0
16.79198	-0.09411586	-0.1294369	0	0	0.01583973	0.0358871	0	0
16.80854	-0.09411586	-0.1294369	0	0	0	0	0	0
16.82511	-0.09408978	-0.1294566	0.001574463	-0.001189954	0.04751737	-0.03591287	0	0
16.84168	-0.09408978	-0.1294566	0	0	-0.04751737	0.03591287	0	0
16.85825	-0.09408978	-0.1294566	0	0	0	0	0	0
16.87481	-0.09406369	-0.1294763	0.001574463	-0.001189054	0.04751737	-0.03588573	0	0
16.89138	-0.09408978	-0.129496	-0.001574644	-0.001189191	-0.09504569	-4.132021E-06	0	0
16.90795	-0.09406369	-0.1295157	0.001574463	-0.001189054	0.09504569	4.132021E-06	0	0
16.92451	-0.09406369	-0.1295157	0	0	-0.04751737	0.03588573	0	0
16.94108	-0.09406369	-0.1295157	0	0	0	0	0	0
16.95765	-0.09406369	-0.1295157	0	0	0	0	0	0
16.97421	-0.09406369	-0.1295157	0	0	0	0	0	0
16.99078	-0.09406369	-0.1295157	0	0	0	0	0	0
17.00751	-0.09406369	-0.1295157	0	0	0	0	0	0
17.02391	-0.09406369	-0.1295157	0	0	0	0	0	0
17.04053	-0.09406369	-0.1295157	0	0	0	0	0	0
17.05705	-0.09406369	-0.1295157	0	0	0	0	0	0
17.07362	-0.09408978	-0.1295354	-0.001574463	-0.001189954	-0.04759134	-0.03596878	0	0
17.09018	-0.09408978	-0.1295354	0	0	0.04751737	0.03591287	0	0
17.10675	-0.09408978	-0.1295354	0	0	0	0	0	0
17.12359	-0.09408978	-0.1295354	0	0	0	0	0	0
17.13988	-0.09408978	-0.1295354	0	0	0	0	0	0
17.15645	-0.09408978	-0.1295354	0	0	0	0	0	0
17.17302	-0.09408978	-0.1295354	0	0	0	0	0	0
17.18964	-0.09408978	-0.1295354	0	0	0	0	0	0
17.20615	-0.09408978	-0.1295354	0	0	0	0	0	0
17.22272	-0.09408978	-0.1295354	0	0	0	0	0	0
17.23928	-0.09408978	-0.1295354	0	0	0	0	0	0
17.25585	-0.09408978	-0.1295354	0	0	0	0	0	0
17.27242	-0.09408978	-0.1295354	0	0	0	0	0	0
17.28922	-0.09408978	-0.1295354	0	0	0	0	0	0
17.30573	-0.09408978	-0.1295354	0	0	0	0	0	0
17.32224	-0.09408978	-0.1295354	0	0	0	0	0	0
17.35526	-0.09408978	-0.1295354	0	0	0	0	0	0
17.37182	-0.09408978	-0.1295354	0	0	0	0	0	0
17.40529	-0.09408978	-0.1295354	0	0	0	0	0	0
17.43832	-0.09408978	-0.1295354	0	0	0	0	0	0
17.45483	-0.09408978	-0.1295354	0	0	0	0	0	0
17.47136	-0.09408978	-0.1295354	0	0	0	0	0	0
17.48779	-0.09408978	-0.1295354	0	0	0	0	0	0
17.50437	-0.09408978	-0.1295354	0	0	0	0	0	0
17.52138	-0.09408978	-0.1295354	0	0	0	0	0	0
17.53749	-0.09408978	-0.1295354	0	0	0	0	0	0
17.55405	-0.09411586	-0.1295551	-0.001574644	-0.001189191	-0.0481914	-0.03639476	0	0
17.57093	-0.09411586	-0.1295551	0	0	0.04708645	0.03556029	0	0
17.58719	-0.09411586	-0.1295551	0	0	0	0	0	0
17.65347	-0.09411586	-0.1295551	0	0	0	0	0	0
17.67002	-0.09411586	-0.1295551	0	0	0	0	0	0
17.68659	-0.09411586	-0.1295551	0	0	0	0	0	0
17.70351	-0.09411586	-0.1295551	0	0	0	0	0	0
17.72002	-0.09411586	-0.1295551	0	0	0	0	0	0
17.73629	-0.09411586	-0.1295551	0	0	0	0	0	0
17.75304	-0.09411586	-0.1295551	0	0	0	0	0	0
17.76942	-0.09408978	-0.1295748	0.001592429	-0.001202623	0.04805961	-0.03629523	0	0
17.78607	-0.09406369	-0.1295945	0.001567066	-0.001184363	-0.0007679925	0.0005528943	0	0
17.80256	-0.09406369	-0.1295945	0	0	-0.04729141	0.03574209	0	0
17.81912	-0.09403761	-0.1296142	0.001574194	-0.001189191	0.04762166	-0.03597476	0	0
17.83569	-0.09401153	-0.1296339	0.001574644	-0.001189191	1.357391E-05	0	0	0
17.85226	-0.09398545	-0.1296142	0.001574463	0.001189054	-5.470712E-06	0.07177972	0	0
17.86882	-0.09398545	-0.1296142	0	0	-0.04751737	-0.03588573	0	0
17.88564	-0.09398545	-0.1296142	0	0	0	0	0	0
17.90196	-0.09398545	-0.1295748	0	0.002415437	0	0.07289803	0	0
17.93509	-0.09390719	-0.1294763	0.00236183	0.002973256	0.04776205	0.0112805	0	0
17.95168	-0.09377677	-0.1293384	0.007859644	0.008311782	0.1105611	0.1073578	0	0
17.96822	-0.09369851	-0.1292793	0.004732009	0.003573334	-0.09439766	-0.1430149	0	0
17.98479	-0.09364634	-0.1292399	0.003148563	0.002378734	-0.04782705	-0.03608216	0	0
18.00136	-0.09356809	-0.1291808	0.004723931	0.003567573	0.04754472	0.03587924	0	0
18.01792	-0.09341156	-0.1290625	0.009448762	0.007136046	0.1426121	0.1077091	0	0
18.03474	-0.0931246	-0.1288459	0.01706205	0.0128838	0.2280497	0.1721693	0	0
18.05125	-0.09064565	-0.1270146	0.1501309	0.1109065	3.992356	2.940893	0	0
18.06777	-0.08450877	-0.1224325	0.3716637	0.2775026	6.708268	5.044724	0	0
18.08428	-0.08202606	-0.1205274	0.1503236	0.1153501	-6.701659	-4.909598	0	0
18.10076	-0.07213777	-0.1131563	0.6001756	0.4473918	13.63543	10.06449	0	0
18.11732	-0.06336243	-0.1066069	0.529741	0.3953669	-2.131731	-1.574555	0	0
18.13389	-0.05688593	-0.1017886	0.3909227	0.290834	-4.189786	-3.154994	0	0
18.15046	-0.05116583	-0.0975434	0.3452658	0.2562416	-1.377929	-1.043998	0	0
18.16734	-0.0454949	-0.09330501	0.3359547	0.2510884	-0.27838	-0.1540697	0	0
18.18385	-0.04102959	-0.08988813	0.2704296	0.2069342	-1.962302	-1.322301	0	0
18.20016	-0.03672033	-0.08666939	0.264245	0.1973739	-0.1884417	-0.2912986	0	0
18.23589	-0.02804528	-0.0800114	0.2428051	0.1863499	-0.4120184	-0.2118513	0	0
18.2524	-0.02141778	-0.07491276	0.4013767	0.3087855	3.035421	2.343697	0	0
18.26897	-0.01502519	-0.07003536	0.3858132	0.2943663	-0.4704635	-0.4358757	0	0
18.28553	-0.00552626	-0.06293686	0.5734223	0.4285154	5.662053	4.048628	0	0
18.3021	0.001605262	-0.05765817	0.4305091	0.3186594	-4.313627	-3.315844	0	0
18.31866	0.008447167	-0.05252314	0.4129782	0.3099512	-0.5291119	-0.2628276	0	0
18.33545	0.0142885	-0.04758824	0.3478974	0.2939119	-1.951003	-0.4808281	0	0
18.35196	0.01734037	-0.04434108	0.1848495	0.1966785	-4.896276	-2.919887	0	0
18.36848	0.01791913	-0.03492517	0.0350474	0.570183	-4.536181	11.31015	0	0
18.38499	0.01418326	-0.02512094	-0.2262271	0.5936986	-7.910781	0.7119951	0	0
18.4015	0.01081537	-0.01882909	-0.2039909	0.381093	0.6733383	-6.437942	0	0
18.41807	0.006078872	-0.0153096	-0.2859613	0.2124857	-2.478437	-5.097969	0	0
18.43464	0.005078904	-0.01459104	-0.06035127	0.04336727	6.809316	-5.104299	0	0
18.4512	0.005105219	-0.01460995	0.001588741	-0.001141535	1.869461	-1.343356	0	0
18.46777	0.005105219	-0.01460995	0	0	-0.04794831	0.03445158	0	0
18.48433	0.005078904	-0.01462886	-0.001588559	-0.001141347	-0.04794003	-0.03444393	0	0
18.50108	0.005078904	-0.01462886	0	0	0.04769296	0.03426642	0	0
18.51747	0.005052588	-0.01460995	-0.001605781	0.001153701	-0.04846816	0.03482277	0	0
18.5506	0.003499986	-0.0134568	-0.04686034	0.03480402	-0.9138552	0.6795231	0	0
18.56762	0.001289473	-0.01186954	-0.1298538	0.09324169	-1.654719	1.165127	0	0
18.58373	-0.007315659	-0.005697953	-0.5341029	0.383058	-12.20026	8.746674	0	0
18.6003	-0.0161828	0.0006502547	-0.5352215	0.3831785	-0.03423036	0.003688058	0	0
18.61687	-0.02575746	0.007493548	-0.5779943	0.4131096	-1.290961	0.9033725	0	0
18.63343	-0.03811311	0.0163094	-0.7457888	0.5321258	-5.064337	3.592125	0	0
18.65018	-0.04659782	0.02235503	-0.5066551	0.3610081	7.178226	-5.136549	0	0
18.66669	-0.05591534	0.02898776	-0.5642902	0.4016935	-1.732948	1.22331	0	0
18.6832	-0.0599806	0.03187992	-0.2462016	0.175156	9.632093	-6.85982	0	0
18.69971	-0.067031	0.0368938	-0.426989	0.3036524	-5.474451	3.891021	0	0
18.71626	-0.06886462	0.03819741	-0.1107922	0.07876763	9.563758	-6.801915	0	0
18.73283	-0.06883842	0.03817879	0.001581208	-0.001123845	3.393193	-2.41238	0	0
18.7494	-0.06889081	0.03821604	-0.003162331	0.002248174	-0.1431685	0.1017736	0	0
18.76596	-0.06925748	0.03851394	-0.02213197	0.0179813	-0.5725377	0.4748539	0	0
18.78253	-0.06949318	0.03871873	-0.01422728	0.0123614	0.2385641	-0.1696089	0	0
18.7991	-0.0708025	0.03972392	-0.07903073	0.06067347	-1.955772	1.458061	0	0
18.81566	-0.07901933	0.04560077	-0.4960258	0.3547682	-12.58566	8.876308	0	0
18.83223	-0.08704267	0.05133868	-0.4842896	0.346341	0.3542218	-0.2543481	0	0
18.8488	-0.09732313	0.05867976	-0.6206017	0.4431595	-4.114146	2.922154	0	0
18.86536	-0.1038357	0.06330729	-0.3931012	0.2793178	6.866376	-4.945036	0	0
18.89886	-0.1142373	0.07070034	-0.3105766	0.2207466	1.648567	-1.170058	0	0
18.91506	-0.1182873	0.07358003	-0.2498676	0.177664	1.221514	-0.8668565	0	0
18.93163	-0.1205702	0.07527738	-0.1377972	0.102452	3.419296	-2.294736	0	0
18.9482	-0.1229037	0.07708468	-0.1408661	0.1091011	-0.09262474	0.2006802	0	0
18.96476	-0.1256244	0.07957306	-0.1642226	0.150199	-0.704942	1.24041	0	0
18.98141	-0.1269711	0.08270451	-0.08089625	0.1881051	2.508729	1.141248	0	0
18.99793	-0.1295338	0.08739743	-0.1551637	0.2841489	-2.239463	2.896107	0	0
19.01446	-0.129068	0.09401424	0.02816825	0.4001284	5.546699	3.508954	0	0
19.03103	-0.1273336	0.1036098	0.1046853	0.5791863	2.311419	5.408961	0	0
19.0476	-0.1249768	0.1125636	0.1422579	0.540458	1.133943	-1.168824	0	0
19.06416	-0.1240181	0.1160199	0.05787187	0.2086432	-2.546923	-10.01476	0	0
19.08073	-0.12407	0.1214645	-0.003128238	0.3286368	-1.841093	3.621621	0	0
19.0973	-0.12521	0.1225235	-0.06880999	0.06392111	-1.982279	-7.989135	0	0
19.11386	-0.1265568	0.1234727	-0.08130577	0.05730381	-0.3771451	-0.199722	0	0
19.13052	-0.1309309	0.1265566	-0.2625676	0.1851193	-5.455733	3.847071	0	0
19.14703	-0.1328446	0.1279428	-0.115897	0.08395302	4.421692	-3.049869	0	0
19.16356	-0.134809	0.1293287	-0.1188317	0.08383271	-0.08881375	-0.003640858	0	0
19.18013	-0.140025	0.1331925	-0.3148757	0.2332488	-5.92344	4.514583	0	0
19.1967	-0.1415212	0.1342855	-0.09030466	0.06596783	6.777567	-5.048549	0	0
19.21358	-0.1446407	0.1366348	-0.1848023	0.1391729	-2.82511	2.188545	0	0
19.23009	-0.1454137	0.1375815	-0.04681904	0.05734101	4.132466	-2.450786	0	0
19.2466	-0.1405668	0.1410028	0.2935396	0.2072005	10.30705	4.53818	0	0
19.26311	-0.133801	0.1458035	0.409797	0.2907782	3.520615	2.530979	0	0
19.27962	-0.1270747	0.1505638	0.4074098	0.2883287	-0.07229722	-0.07418264	0	0
19.29613	-0.1189879	0.1564815	0.4897563	0.3583868	2.493692	2.121562	0	0
19.31266	-0.1152761	0.1594381	0.2245334	0.1788519	-8.026621	-5.433387	0	0
19.32923	-0.1113792	0.1646947	0.2352164	0.3172895	0.3227662	4.18263	0	0
19.3458	-0.1116132	0.1695666	-0.01411889	0.2940724	-7.524955	-0.7006947	0	0
19.37919	-0.1191954	0.1869238	-0.2270433	0.5197412	-4.261642	4.516719	0	0
19.3955	-0.1235258	0.1918156	-0.2655985	0.3000373	-0.7757623	-4.42062	0	0
19.41207	-0.1257798	0.1933853	-0.1360563	0.09474927	3.940897	-6.245216	0	0
19.42863	-0.1297408	0.1961811	-0.2391111	0.1687743	-3.110378	2.234208	0	0
19.4452	-0.1315516	0.1974795	-0.1093021	0.07836784	3.917867	-2.728629	0	0
19.46177	-0.1329997	0.19903	-0.08739442	0.09357823	0.6611386	0.4590238	0	0
19.47833	-0.1334133	0.2049406	-0.02496942	0.3568086	1.88399	7.944309	0	0
19.4949	-0.1312671	0.2101088	0.129558	0.3119882	4.664183	-1.352839	0	0
19.51147	-0.1301289	0.2162632	0.0686964	0.371435	-1.836806	1.79411	0	0
19.52803	-0.1289645	0.2246599	0.07029361	0.5068824	0.04820392	4.087808	0	0
19.54881	-0.1293009	0.2266545	-0.01618785	0.09597702	-2.315571	-11.00213	0	0
19.56538	-0.1327411	0.2355803	-0.2076546	0.5387621	-5.126325	11.85512	0	0
19.58195	-0.1385281	0.2397441	-0.3493004	0.2513294	-4.27488	-8.674737	0	0
19.59852	-0.1424754	0.2427762	-0.2382624	0.1830172	3.351135	-2.061665	0	0
19.61536	-0.1457744	0.2452515	-0.1958105	0.1469206	1.270451	-1.080256	0	0
19.63165	-0.148298	0.2472959	-0.1549644	0.125538	1.232808	-0.6453653	0	0
19.64838	-0.1526454	0.250792	-0.2597794	0.2089091	-3.174288	2.524865	0	0
19.66478	-0.1553949	0.2533193	-0.1676793	0.1541272	2.779747	-1.653418	0	0
19.68141	-0.1569613	0.2568136	-0.09421335	0.2101676	2.224634	1.69697	0	0
19.7543	-0.1345247	0.2741283	0.3078098	0.2375416	4.490996	0.3057945	0	0
19.77097	-0.127955	0.2786729	0.3940986	0.2726205	0.9634595	0.3916739	0	0
19.78743	-0.1254431	0.2804082	0.1525832	0.1054067	-7.28937	-5.046812	0	0
19.804	-0.1254172	0.2804261	0.00156322	0.001079323	-4.572267	-3.158608	0	0
19.82057	-0.1253654	0.2803903	0.003126619	-0.002158149	0.04717805	-0.09769586	0	0
19.83713	-0.1253654	0.2803903	0	0	-0.09436697	0.06513682	0	0
19.8537	-0.1253136	0.2803545	0.003127339	-0.002160445	0.09439957	-0.06521361	0	0
19.87026	-0.1252877	0.2803366	0.0015634	-0.001079447	-0.04720249	0.03262645	0	0
19.88683	-0.1252359	0.2803009	0.003127339	-0.002158646	0.04720249	-0.03257215	0	0
19.9034	-0.1251841	0.2802651	0.003127339	-0.002160445	0	-5.428939E-05	0	0
19.92008	-0.1251581	0.2802472	0.001553211	-0.001071796	-0.04734103	0.03274052	0	0
19.93653	-0.1251581	0.2802472	0	0	-0.0468787	0.03234873	0	0
19.9531	-0.1251581	0.2802472	0	0	0	0	0	0
19.96967	-0.1251322	0.2802293	0.00156322	-0.001079323	0.04717806	-0.03257403	0	0
19.98623	-0.1251322	0.2802293	0	0	-0.04717806	0.03257403	0	0
20.00314	-0.1251322	0.2802293	0	0	0	0	0	0
20.01937	-0.1250804	0.2801935	0.003192392	-0.002205385	0.09635212	-0.0665625	0	0
20.03593	-0.1250804	0.2801577	0	-0.002158895	-0.097344	0.001417617	0	0
20.05267	-0.1250545	0.2801398	0.001548079	-0.001070035	0.04648297	0.03269436	0	0
20.06918	-0.1250286	0.280122	0.001568275	-0.001082814	0.0006073618	-0.0003842932	0	0
20.08569	-0.1249768	0.2800862	0.003138629	-0.002166128	0.04755213	-0.032804	0	0
20.1022	-0.124925	0.2800504	0.003139265	-0.002168684	1.928837E-05	-7.744261E-05	0	0
20.11876	-0.1248991	0.2800325	0.001563669	-0.001079323	-0.04764209	0.03293956	0	0
20.13573	-0.1248991	0.2799968	0	-0.002108163	-0.04663328	-0.03068307	0	0
20.1519	-0.1247955	0.2799252	0.006409347	-0.004425578	0.1934456	-0.06994376	0	0
20.16847	-0.1247955	0.2798894	0	-0.002160196	-0.1957786	0.06919788	0	0
20.18526	-0.1247695	0.2798715	0.001542805	-0.001064615	0.04623986	0.03283599	0	0
20.21817	-0.1247436	0.2798178	0.0007873185	-0.001631246	-0.01520099	-0.01140107	0	0
20.2348	-0.1247695	0.2798	-0.001557215	-0.001074868	-0.04732649	0.01123098	0	0
20.25131	-0.1247695	0.2797642	0	-0.002167933	0.04698062	-0.03297736	0	0
20.26787	-0.1247436	0.2797463	0.00156493	-0.001080194	0.0473305	0.0328981	0	0
20.35263	-0.1216594	0.2712111	0.03638655	-0.1006925	0.3436852	-0.9831613	0	0
20.3694	-0.1205443	0.2610234	0.0665089	-0.6076578	0.2966841	-4.993253	0	0
20.38577	-0.1212186	0.2451439	-0.04119178	-0.9701055	-3.250413	-10.93869	0	0
20.40242	-0.1216594	0.2359752	-0.02646953	-0.5505688	0.4458324	12.70479	0	0
20.41893	-0.1230074	0.2221794	-0.08163151	-0.8354079	-1.663164	-8.588057	0	0
20.43594	-0.1240441	0.2042201	-0.06093776	-1.055711	0.6172546	-6.571205	0	0
20.45203	-0.1247177	0.191563	-0.04187848	-0.7868106	0.5758399	8.124301	0	0
20.4686	-0.1250286	0.1740369	-0.01876322	-1.057757	0.7078474	-8.297055	0	0
20.48516	-0.1253136	0.1600002	-0.01720189	-0.8473517	0.04712094	6.35004	0	0
20.50199	-0.1255726	0.139438	-0.0153965	-1.222144	0.05406988	-11.22467	0	0
20.5185	-0.1254172	0.1225965	0.009411455	-1.01984	0.7441222	6.068171	0	0
20.53502	-0.1256503	0.110917	-0.01411881	-0.7073413	-0.7124826	9.462275	0	0
20.55143	-0.126013	0.08032849	-0.02208867	-1.86327	-0.2420355	-35.10423	0	0
20.56804	-0.1261424	0.06783712	-0.007797246	-0.7521624	0.4327609	33.64563	0	0
20.58457	-0.1258834	0.04310981	0.01566917	-1.495988	0.7081772	-22.44741	0	0
20.60113	-0.1250545	0.01956747	0.05003958	-1.421182	1.038556	2.260378	0	0
20.6177	-0.1245105	0.00852636	0.03284353	-0.6665193	-0.5190374	22.77839	0	0
20.63427	-0.1229296	-0.01198289	0.09541845	-1.237941	1.888624	-17.24653	0	0
20.65083	-0.1215816	-0.02990516	0.08137909	-1.081915	-0.4237334	4.70916	0	0
20.66761	-0.1204406	-0.03770495	0.06801076	-0.4649087	-0.4009411	18.50516	0	0
20.68412	-0.118936	-0.05156611	0.09110884	-0.8393673	0.6938262	-11.24809	0	0
20.70063	-0.1174569	-0.05948062	0.08959059	-0.4793762	-0.04597436	10.90095	0	0
20.7171	-0.1149126	-0.06682055	0.1544987	-0.4457072	1.96822	1.020951	0	0
20.73367	-0.1107294	-0.06949609	0.2524946	-0.161496	2.966402	8.603266	0	0
20.75023	-0.107557	-0.07180797	0.1914881	-0.1395452	-1.841179	0.6624741	0	0
20.76718	-0.1063863	-0.07267541	0.06908149	-0.0511866	-3.6524	2.636467	0	0
20.78337	-0.1044865	-0.07408319	0.1173735	-0.08697598	1.457539	-1.080188	0	0
20.79993	-0.1019349	-0.0759742	0.1540131	-0.1141416	1.118665	-0.8294078	0	0
20.8165	-0.1011015	-0.07659195	0.05030725	-0.03728746	-3.129849	2.319461	0	0
20.83307	-0.1010233	-0.07657264	0.004717092	0.001165219	-1.375914	1.160504	0	0
20.84974	-0.1009712	-0.07653403	0.003125	0.002316487	-0.04790052	0.03463766	0	0
20.8662	-0.1009452	-0.07651472	0.001582233	0.001172644	-0.04656349	-0.03452322	0	0
20.88277	-0.1008931	-0.07647611	0.003144877	0.002330438	0.0473105	0.03505326	0	0
20.89934	-0.100867	-0.07641819	0.001572214	0.003496107	-0.04746308	0.03517996	0	0
20.9159	-0.100841	-0.07639889	0.001572395	0.001165353	5.463685E-06	-0.07034634	0	0
20.93247	-0.1006847	-0.07628305	0.009434183	0.006991765	0.2372829	0.1758516	0	0
20.94904	-0.1006326	-0.07616723	0.003144877	0.006991315	-0.1898116	-1.357586E-05	0	0
20.9656	-0.1005023	-0.07587768	0.007862874	0.01747895	0.1423976	0.3165357	0	0
20.98233	-0.10032	-0.07558817	0.01089938	0.01730382	0.09119576	-0.005259855	0	0
20.99885	-0.1002418	-0.07553027	0.004731704	0.00350525	-0.1855002	-0.4150081	0	0
21.01536	-0.0999292	-0.0751829	0.0189382	0.0210423	0.4301645	0.5310115	0	0
21.03187	-0.09930386	-0.07464264	0.03787172	0.03271964	0.573395	0.3536443	0	0
21.04844	-0.09594138	-0.07215492	0.20296	0.150159	4.990704	3.550254	0	0
21.06539	-0.09085445	-0.06839862	0.3000018	0.2215279	2.894735	2.128917	0	0
21.09814	-0.07765929	-0.05869395	0.4029626	0.2963677	2.071577	1.505781	0	0
21.1147	-0.07234719	-0.05476381	0.3207128	0.2372786	-1.668056	-1.198349	0	0
21.13127	-0.06692621	-0.05068593	0.3272112	0.2461412	0.1961428	0.2675046	0	0
21.14795	-0.05922015	-0.04373024	0.461948	0.4169656	4.05237	5.137746	0	0
21.16446	-0.05197945	-0.03755257	0.4385132	0.3741345	-0.7060034	-1.290341	0	0
21.18097	-0.04940713	-0.03538195	0.1558039	0.1314727	-8.56126	-7.348507	0	0
21.2141	-0.02846599	-0.01631207	0.6321139	0.5756295	9.595527	8.947785	0	0
21.23067	-0.01989211	-0.01015089	0.5175204	0.3718895	-2.30589	-4.099729	0	0
21.24724	-0.01394646	-0.005961941	0.3588801	0.2528455	-4.787776	-3.592756	0	0
21.26403	-0.01086799	-0.003756406	0.1832847	0.1313122	-5.263122	-3.642718	0	0
21.28055	-0.008631364	-0.002230361	0.1354242	0.09239949	-1.436744	-1.168136	0	0
21.29706	-0.008631364	-0.002230361	0	0	-4.100801	-2.797964	0	0
21.3135	-0.008605051	-0.002249197	0.001600081	-0.001145368	0.04855607	-0.03475736	0	0
21.33007	-0.008552423	-0.002286869	0.003176639	-0.002273886	0.04775655	-0.03418468	0	0
21.34664	-0.008499796	-0.002324541	0.003176583	-0.0022739	-1.693469E-06	-4.286374E-07	0	0
21.3632	-0.008394539	-0.002399887	0.006353278	-0.004547885	0.09587284	-0.068629	0	0
21.37977	-0.008341912	-0.002475234	0.003176583	-0.004547983	-0.09587284	-2.965328E-06	0	0
21.39634	-0.007973515	-0.002851998	0.02223647	-0.02274151	0.5752286	-0.5490816	0	0
21.4129	-0.007868258	-0.003040396	0.006353334	-0.01137172	-0.4793541	0.3431408	0	0
21.42965	-0.007920887	-0.003191122	-0.003142685	-0.009000434	-0.285048	0.07118048	0	0
21.44616	-0.007947201	-0.003209963	-0.001593796	-0.001141208	0.04657397	0.2363213	0	0
21.46268	-0.007999829	-0.003247646	-0.003185073	-0.002280571	-0.04817179	-0.03449129	0	0
21.47917	-0.0081314	-0.003304171	-0.007980213	-0.003428447	-0.1452611	-0.03477307	0	0
21.49574	-0.008157713	-0.003323013	-0.001588474	-0.001137425	0.1933817	0.06931475	0	0
21.5123	-0.00826297	-0.003360697	-0.006353278	-0.002274617	-0.1438103	-0.03432249	0	0
21.52887	-0.008420854	-0.003473752	-0.009531014	-0.006824791	-0.09590978	-0.1373324	0	0
21.54544	-0.009341833	-0.004171009	-0.05559042	-0.04208653	-1.390156	-1.064263	0	0
21.562	-0.01055224	-0.005038075	-0.07306027	-0.0523362	-0.5272412	-0.3093358	0	0
21.57857	-0.01115743	-0.005471694	-0.03652946	-0.0261733	1.102502	0.7895979	0	0
21.59514	-0.01115743	-0.005471694	0	0	1.102461	0.7899119	0	0
21.61179	-0.01115743	-0.005471694	0	0	0	0	0	0
21.62827	-0.01113112	-0.005490548	0.001596876	-0.001144231	0.04819658	-0.03453494	0	0
21.64484	-0.01113112	-0.005490548	0	0	-0.04832455	0.03462664	0	0
21.72767	-0.01123637	-0.005565967	-0.001270617	-0.0009104749	-0.01278268	-0.009159571	0	0
21.74424	-0.01126268	-0.005622532	-0.001588179	-0.003414259	-0.003194737	-0.0251886	0	0
21.76081	-0.01128899	-0.005716809	-0.001588235	-0.005690562	-1.696983E-06	-0.06869897	0	0
21.77737	-0.01134162	-0.00575452	-0.003176836	-0.00227651	-0.04794683	0.1030422	0	0
21.79394	-0.01142056	-0.005886514	-0.004764649	-0.007967175	-0.04792305	-0.1717545	0	0
21.81051	-0.01147318	-0.006075085	-0.003176414	-0.01138219	0.04793303	-0.1030654	0	0
21.82707	-0.01142056	-0.006263668	0.003176414	-0.01138287	0.1917287	-2.034974E-05	0	0
21.84364	-0.01144687	-0.006622004	-0.001588179	-0.02162924	-0.1437957	-0.3092362	0	0
21.86021	-0.01299927	-0.007734984	-0.093703	-0.06717957	-2.780031	-1.374712	0	0
21.87677	-0.02104952	-0.01351351	-0.4859703	-0.3488325	-11.83933	-8.500793	0	0
21.89334	-0.02857117	-0.01892375	-0.4540076	-0.3265631	0.9646924	0.6721314	0	0
21.92651	-0.0447333	-0.03058922	-0.4872971	-0.3517203	-0.6693504	-0.5058335	0	0
21.94304	-0.04856704	-0.033327	-0.2318591	-0.1655769	5.139423	3.745214	0	0
21.95961	-0.05413128	-0.0373621	-0.3358579	-0.2435589	-3.141765	-2.355808	0	0
21.97618	-0.05809246	-0.04023944	-0.2391248	-0.1736966	2.919579	2.108571	0	0
22.00931	-0.06304791	-0.04369207	-0.1495472	-0.1041947	1.802304	1.398381	0	0
22.04259	-0.06522314	-0.04504751	-0.06536274	-0.04072906	1.267537	0.9555801	0	0
22.07558	-0.06522314	-0.04504751	0	0	0.9863542	0.6146204	0	0
22.09214	-0.06522314	-0.04504751	0	0	0	0	0	0
22.10871	-0.06522314	-0.04504751	0	0	0	0	0	0
22.12528	-0.06522314	-0.04504751	0	0	0	0	0	0
22.14184	-0.06517074	-0.04497113	0.003164045	0.004611345	0.09549655	0.1391787	0	0
22.15867	-0.06511833	-0.04493294	0.003113844	0.00226898	-0.001503275	-0.07014357	0	0
22.17519	-0.06506592	-0.04489475	0.003173913	0.002312751	0.001801558	0.001312753	0	0
22.1917	-0.06501351	-0.04485657	0.003173913	0.002312751	0	0	0	0
22.20821	-0.06501351	-0.04485657	0	0	-0.09611531	-0.07003682	0	0
22.22468	-0.0649611	-0.04481838	0.003182451	0.002318643	0.09649651	0.0703046	0	0
22.24125	-0.06490869	-0.04481838	0.003163316	0	-0.0005792085	-0.07018283	0	0
22.25781	-0.06488249	-0.04483747	0.001581658	-0.001152402	-0.04773453	-0.03477957	0	0
22.27438	-0.06488249	-0.04483747	0	0	-0.04773453	0.03477957	0	0
22.29095	-0.06488249	-0.04483747	0	0	0	0	0	0
22.30751	-0.06488249	-0.04483747	0	0	0	0	0	0
22.32429	-0.06488249	-0.04487566	0	-0.002275944	0	-0.06825203	0	0
22.34064	-0.06485628	-0.04489475	0.001602774	-0.001167684	0.04837461	0.03344931	0	0
22.35732	-0.06485628	-0.04493294	0	-0.002290526	-0.04853106	-0.033999	0	0
22.37383	-0.06483007	-0.04495203	0.001586956	-0.001156263	0.04782286	0.03418097	0	0
22.39034	-0.06485628	-0.04497113	-0.00158659	-0.001156221	-0.09608756	1.254823E-06	0	0
22.44005	-0.06483007	-0.04499023	0.0005271991	-0.0003841943	0.03192103	0.01165863	0	0
22.45661	-0.06483007	-0.04499023	0	0	-0.007955451	0.005797503	0	0
22.47341	-0.06483007	-0.04499023	0	0	0	0	0	0
22.48992	-0.06483007	-0.04499023	0	0	0	0	0	0
22.50632	-0.06485628	-0.04497113	-0.001597846	0.001164424	-0.04855289	0.03538273	0	0
22.52288	-0.06485628	-0.04500932	0	-0.002305029	0.04846862	-0.1052414	0	0
22.53945	-0.06485628	-0.04500932	0	0	0	0.06956592	0	0
22.55602	-0.06488249	-0.04502841	-0.001582108	-0.001152627	-0.04774811	-0.03478635	0	0
22.57297	-0.06490869	-0.04504751	-0.001545711	-0.001126431	0.001085824	0.0007815098	0	0
22.58915	-0.06488249	-0.04510479	0.001619698	-0.003540816	0.09554324	-0.07287468	0	0
22.60571	-0.06490869	-0.04512389	-0.001581658	-0.001152627	-0.09776518	0.07293213	0	0
22.62228	-0.06488249	-0.04514299	0.00158184	-0.00115276	0.09548006	-4.005531E-06	0	0
22.63885	-0.06488249	-0.04518118	0	-0.002305254	-0.04774278	-0.03478435	0	0
22.65553	-0.06485628	-0.04520027	0.001570895	-0.001144458	0.0472411	0.03490831	0	0
22.68855	-0.06480387	-0.04527666	0.00158714	-0.002313357	0.0003268238	-0.02351648	0	0
22.70511	-0.06477766	-0.04533395	0.001582204	-0.003459076	-9.953696E-05	-0.02310779	0	0
22.72168	-0.06467284	-0.04541034	0.00632781	-0.004611489	0.1432557	-0.0347879	0	0
22.73825	-0.06441078	-0.04563951	0.01581838	-0.0138331	0.2864424	-0.2783248	0	0
22.7551	-0.06370316	-0.04615523	0.04198169	-0.03059668	0.782806	-0.501566	0	0
22.77138	-0.06226153	-0.04720604	0.08856715	-0.06455657	1.406033	-1.024971	0	0
22.78795	-0.06231396	-0.04720604	-0.00316444	0	-2.792902	1.965519	0	0
22.88769	-0.06231396	-0.04720604	0	0	0.02720603	0	0	0
22.9042	-0.06231396	-0.04720604	0	0	0	0	0	0
22.92071	-0.06231396	-0.04720604	0	0	0	0	0	0
22.93704	-0.06231396	-0.04720604	0	0	0	0	0	0
22.95361	-0.06231396	-0.04720604	0	0	0	0	0	0
22.97018	-0.06231396	-0.04720604	0	0	0	0	0	0
22.98676	-0.06231396	-0.04720604	0	0	0	0	0	0
23.00331	-0.06234017	-0.04722514	-0.001583974	-0.001154498	-0.04780718	-0.03484482	0	0
23.01987	-0.06234017	-0.04722514	0	0	0.04783196	0.03486288	0	0
23.03644	-0.06234017	-0.04722514	0	0	0	0	0	0
23.05336	-0.06234017	-0.04722514	0	0	0	0	0	0
23.06958	-0.06234017	-0.04722514	0	0	0	0	0	0
23.08633	-0.06234017	-0.04722514	0	0	0	0	0	0
23.10334	-0.06231396	-0.04724425	0.001541169	-0.001123518	0.04564548	-0.03327572	0	0
23.11935	-0.06231396	-0.04724425	0	0	-0.04666837	0.03402142	0	0
23.13586	-0.06231396	-0.04724425	0	0	0	0	0	0
23.16898	-0.06236638	-0.04732069	-0.001583223	-0.002308402	-0.0319047	-0.04651834	0	0
23.18554	-0.06244502	-0.04741624	-0.004748413	-0.0057694	-0.06371798	-0.06967285	0	0
23.20241	-0.06254987	-0.04756913	-0.006215111	-0.009062324	-0.04387107	-0.09849613	0	0
23.21867	-0.06286442	-0.04787493	-0.01934022	-0.01880218	-0.3961166	-0.2939494	0	0
23.23543	-0.06558999	-0.04993989	-0.1626619	-0.1232367	-4.340446	-3.162765	0	0
23.25194	-0.06745016	-0.05141302	-0.1126559	-0.0892161	1.503127	1.022624	0	0
23.26846	-0.07004312	-0.05330813	-0.1569998	-0.114746	-1.34263	-0.7729868	0	0
23.28496	-0.07415326	-0.05635439	-0.2490056	-0.1845523	-2.786204	-2.113935	0	0
23.30151	-0.08220904	-0.06237974	-0.4869765	-0.3642363	-7.200627	-5.436959	0	0
23.31807	-0.08623298	-0.06537797	-0.2429139	-0.1809939	7.371765	5.534728	0	0
23.33464	-0.0945071	-0.07151888	-0.4994266	-0.3706665	-7.742015	-5.724661	0	0
23.35121	-0.1004763	-0.07609002	-0.3603019	-0.2759141	4.198792	2.859633	0	0
23.36777	-0.1063863	-0.08051405	-0.3567275	-0.2670353	0.1078747	0.2679626	0	0
23.38453	-0.1146009	-0.08663063	-0.4901364	-0.3649541	-4.003014	-2.938112	0	0
23.40091	-0.1196105	-0.09041203	-0.3059735	-0.2309575	5.558366	4.044258	0	0
23.41755	-0.1241736	-0.09386844	-0.2740721	-0.2076018	0.9660687	0.7072778	0	0
23.43407	-0.1272301	-0.09616226	-0.1850844	-0.1389029	2.683335	2.071549	0	0
23.4506	-0.1298184	-0.09814665	-0.1565393	-0.1200128	0.863731	0.5715854	0	0
23.46717	-0.1296114	-0.09826343	0.01249352	-0.007048068	5.106123	3.412424	0	0
23.48374	-0.1293268	-0.0984386	0.01718102	-0.01057332	0.1414609	-0.1063861	0	0
23.50031	-0.1253395	-0.1014378	0.2406997	-0.1810544	6.746194	-5.145424	0	0
23.51687	-0.1192733	-0.1060017	0.3662003	-0.2755078	3.788052	-2.850938	0	0
23.53364	-0.1096635	-0.1132346	0.5731168	-0.4313645	6.20759	-4.675772	0	0
23.55	-0.1023777	-0.1187218	0.4452096	-0.3353015	-3.860468	2.899354	0	0
23.58317	-0.08730383	-0.1300478	0.4544318	-0.3414437	0.1861722	-0.1239947	0	0
23.5997	-0.08542319	-0.1314671	0.1137649	-0.08586268	-6.854233	5.142299	0	0
23.64972	-0.07205923	-0.1413271	0.2672017	-0.1971421	2.305744	-1.672231	0	0
23.6991	-0.0740224	-0.1389325	-0.03975226	0.04848807	-3.088082	2.471139	0	0
23.71577	-0.07582802	-0.1374099	-0.1083636	0.09137745	-1.038815	0.6493701	0	0
23.73224	-0.07645594	-0.1368565	-0.03812518	0.03360235	2.11992	-1.743757	0	0
23.7488	-0.07724076	-0.1359871	-0.04737194	0.05247848	-0.2798894	0.5713604	0	0
23.76537	-0.07881011	-0.1346835	-0.09471543	0.07867269	-1.428747	0.7904972	0	0
23.78231	-0.08262724	-0.1316446	-0.2253179	0.1793814	-3.897393	3.005314	0	0
23.7985	-0.08252269	-0.1317235	0.006457646	-0.004872688	6.995804	-5.56144	0	0
23.81534	-0.08244428	-0.1317827	0.004657231	-0.003513722	-0.05451551	0.04114868	0	0
23.83185	-0.08231359	-0.1318813	0.007915842	-0.005973096	0.0977207	-0.07375281	0	0
23.8482	-0.08215676	-0.1319996	0.009589766	-0.007236631	0.05093547	-0.03844783	0	0
23.86487	-0.08207835	-0.1320588	0.004704575	-0.003549999	-0.1479378	0.111642	0	0
23.88134	-0.08202606	-0.1320983	0.003175044	-0.002395423	-0.04616133	0.03484516	0	0
23.8979	-0.08199993	-0.132118	0.001577792	-0.00119099	-0.04835547	0.0364632	0	0
23.91447	-0.08199993	-0.132118	0	0	-0.04762061	0.03594622	0	0
23.93104	-0.08199993	-0.132118	0	0	0	0	0	0
23.9476	-0.08202606	-0.1320983	-0.00157761	0.001190853	-0.04761512	0.03594209	0	0
23.96444	-0.08202606	-0.1320983	0	0	0.04722365	-0.03564659	0	0
23.98074	-0.08202606	-0.1320983	0	0	0	0	0	0
23.99731	-0.08207835	-0.1320588	-0.003155671	0.002380807	-0.09602323	0.07244506	0	0
24.01387	-0.08210448	-0.1320391	-0.001577792	0.00119099	0.04762321	-0.0359108	0	0
24.03044	-0.08210448	-0.1319996	0	0.002381081	0.04762335	0.03592115	0	0
24.047	-0.08207835	-0.1319405	0.00157761	0.00357166	0.04761512	0.03593381	0	0
24.06357	-0.08202606	-0.1318616	0.003155671	0.004762513	0.04762596	0.03594003	0	0
24.08053	-0.08194765	-0.1318024	0.004624666	0.003488822	0.04381979	-0.03799392	0	0
24.0967	-0.0815294	-0.1314869	0.02585559	0.01950592	0.6407874	0.4834248	0	0
24.11327	-0.08124184	-0.13127	0.01735731	0.01309309	-0.2595412	-0.1958508	0	0
24.12984	-0.08066668	-0.1308362	0.03471687	0.02618168	0.5239125	0.3950145	0	0
24.14657	-0.08006532	-0.1303828	0.03594222	0.02709794	0.03679881	0.02751654	0	0
24.16308	-0.07883627	-0.129496	0.07443398	0.05370834	1.157884	0.8004771	0	0
24.1796	-0.07881011	-0.1295157	0.001583883	-0.001192762	-2.205731	-1.662277	0	0
24.1961	-0.07881011	-0.1295157	0	0	-0.04796459	0.0361203	0	0
24.21312	-0.07881011	-0.1295157	0	0	0	0	0	0
24.22924	-0.07881011	-0.1295157	0	0	0	0	0	0
24.24614	-0.07883627	-0.129496	-0.001547427	0.001165308	-0.04686329	0.03529096	0	0
24.26237	-0.07883627	-0.129496	0	0	0.04670412	-0.03517109	0	0
24.27894	-0.07883627	-0.129496	0	0	0	0	0	0
24.31207	-0.07881011	-0.1295157	0.0007895253	-0.0005945613	0.01588589	-0.01196306	0	0
24.3287	-0.07881011	-0.1295157	0	0	-0.0158658	0.01194793	0	0
24.3452	-0.07881011	-0.1295157	0	0	0	0	0	0
24.36177	-0.07881011	-0.1295157	0	0	0	0	0	0
24.37834	-0.07881011	-0.1295157	0	0	0	0	0	0
24.39525	-0.07881011	-0.1295157	0	0	0	0	0	0
24.49432	-0.07883627	-0.1295354	-0.0002640415	-0.00019899	-0.002276535	-0.001715668	0	0
24.51087	-0.07883627	-0.1295354	0	0	0.00228367	0.001721045	0	0
24.52744	-0.07883627	-0.1295354	0	0	0	0	0	0
24.54401	-0.07883627	-0.1295354	0	0	0	0	0	0
24.56087	-0.07883627	-0.1295354	0	0	0	0	0	0
24.57738	-0.07883627	-0.1295354	0	0	0	0	0	0
24.59371	-0.07883627	-0.1295354	0	0	0	0	0	0
24.61028	-0.07883627	-0.1295354	0	0	0	0	0	0
24.62692	-0.07883627	-0.1295354	0	0	0	0	0	0
24.64343	-0.07883627	-0.1295354	0	0	0	0	0	0
24.65998	-0.07883627	-0.1295354	0	0	0	0	0	0
24.67695	-0.07883627	-0.1295748	0	-0.002320927	0	-0.06923271	0	0
24.69311	-0.07883627	-0.1295748	0	0	0	0.07004975	0	0
24.70997	-0.07883627	-0.1295748	0	0	0	0	0	0
24.72624	-0.07883627	-0.1295748	0	0	0	0	0	0
24.74281	-0.07883627	-0.1295748	0	0	0	0	0	0
24.75951	-0.07886242	-0.1295551	-0.001565891	0.001179548	-0.0470717	0.035458	0	0
24.77594	-0.07886242	-0.1295551	0	0	0.04726139	-0.03560089	0	0
24.79253	-0.07886242	-0.1295551	0	0	0	0	0	0
24.80908	-0.07886242	-0.1295551	0	0	0	0	0	0
24.82564	-0.07886242	-0.1295551	0	0	0	0	0	0
24.84221	-0.07886242	-0.1295551	0	0	0	0	0	0
24.85878	-0.07886242	-0.1295551	0	0	0	0	0	0
24.87534	-0.07886242	-0.1295551	0	0	0	0	0	0
24.89211	-0.07886242	-0.1295551	0	0	0	0	0	0
24.90848	-0.07886242	-0.1295551	0	0	0	0	0	0
24.92513	-0.07886242	-0.1295551	0	0	0	0	0	0
24.94164	-0.07888857	-0.1295748	-0.001583798	-0.001193037	-0.04776062	-0.03597695	0	0
24.95818	-0.07888857	-0.1295748	0	0	0.04792325	0.03609945	0	0
24.97474	-0.07888857	-0.1295748	0	0	0	0	0	0
24.99131	-0.07888857	-0.1295748	0	0	0	0	0	0
25.00788	-0.07888857	-0.1295748	0	0	0	0	0	0
25.02444	-0.07888857	-0.1295748	0	0	0	0	0	0
25.04121	-0.07888857	-0.1295748	0	0	0	0	0	0
25.05772	-0.07888857	-0.1295748	0	0	0	0	0	0
25.07423	-0.07888857	-0.1295748	0	0	0	0	0	0
25.09071	-0.07888857	-0.1295748	0	0	0	0	0	0
25.10728	-0.07888857	-0.1295748	0	0	0	0	0	0
25.12384	-0.07888857	-0.1295748	0	0	0	0	0	0
25.1586	-0.07891472	-0.1295945	-0.0007524799	-0.0005672541	-0.01466221	-0.01105305	0	0
25.1753	-0.07891472	-0.1295945	0	0	0.01462254	0.01102315	0	0
25.19182	-0.07891472	-0.1295945	0	0	0	0	0	0
25.2083	-0.07891472	-0.1295945	0	0	0	0	0	0
25.22486	-0.07891472	-0.1295945	0	0	0	0	0	0
25.24143	-0.07891472	-0.1295945	0	0	0	0	0	0
25.258	-0.07891472	-0.1295945	0	0	0	0	0	0
25.27456	-0.07891472	-0.1295945	0	0	0	0	0	0
25.29113	-0.07891472	-0.1295945	0	0	0	0	0	0
25.32441	-0.07891472	-0.1295945	0	0	0	0	0	0
25.34093	-0.07894088	-0.1296142	-0.001583432	-0.001192762	-0.0317977	-0.02395246	0	0
25.35743	-0.07894088	-0.1296142	0	0	0.04795647	0.03612447	0	0
25.37396	-0.07891472	-0.1295945	0.001581788	0.001191523	0.04788178	0.03606821	0	0
25.39053	-0.07891472	-0.1295945	0	0	-0.04778797	-0.03599755	0	0
25.44023	-0.07891472	-0.1295945	0	0	0	0	0	0
25.4568	-0.07891472	-0.1295945	0	0	0	0	0	0
25.47337	-0.07894088	-0.1296142	-0.001578328	-0.001188917	-0.04763404	-0.0358816	0	0
25.48993	-0.07894088	-0.1296142	0	0	0.0476313	0.03587953	0	0
25.50654	-0.07894088	-0.1296142	0	0	0	0	0	0
25.52307	-0.07894088	-0.1296142	0	0	0	0	0	0
25.53963	-0.07894088	-0.1296142	0	0	0	0	0	0
25.5562	-0.07894088	-0.1296142	0	0	0	0	0	0
25.57276	-0.07894088	-0.1296142	0	0	0	0	0	0
25.58933	-0.07894088	-0.1296142	0	0	0	0	0	0
25.6059	-0.07894088	-0.1296142	0	0	0	0	0	0
25.62262	-0.07891472	-0.1296339	0.001563569	-0.0011778	0.04696422	-0.03537704	0	0
25.63913	-0.07894088	-0.1296536	-0.001584164	-0.001194216	-0.09471525	-0.0004939595	0	0
25.65564	-0.07894088	-0.1296536	0	0	0.04797586	0.03616641	0	0
25.67216	-0.07896703	-0.1296339	-0.001582884	0.001193251	-0.04791771	0.03612258	0	0
25.68873	-0.07896703	-0.1296339	0	0	0.04783485	-0.03606012	0	0
25.7053	-0.07896703	-0.1296339	0	0	0	0	0	0
25.72187	-0.07896703	-0.1296339	0	0	0	0	0	0
25.73843	-0.07896703	-0.1296339	0	0	0	0	0	0
25.755	-0.07896703	-0.1296733	0	-0.002379008	0	-0.0717986	0	0
25.77157	-0.07896703	-0.1297127	0	-0.002379008	0	0	0	0
25.78824	-0.07894088	-0.1297324	0.001568757	-0.001181708	0.04719847	0.03602261	0	0
25.80475	-0.07888857	-0.1297719	0.00316723	-0.002386702	0.0481699	-0.03631244	0	0
25.82127	-0.07888857	-0.1297719	0	0	-0.09589078	0.07225957	0	0
25.83784	-0.07841781	-0.130166	0.02841543	-0.02379098	0.8589143	-0.7191308	0	0
25.8544	-0.07813011	-0.1303828	0.01736541	-0.01308679	-0.3334903	0.323053	0	0
25.87097	-0.0753047	-0.1325125	0.1705617	-0.1285631	4.623738	-3.485282	0	0
25.90432	-0.06178967	-0.1427927	0.4051791	-0.3082002	4.69977	-3.598425	0	0
25.93724	-0.05287173	-0.149578	0.2709531	-0.206157	-2.025474	1.539834	0	0
25.95386	-0.04260578	-0.1573993	0.6175212	-0.4704692	6.996053	-5.33558	0	0
25.97037	-0.03771894	-0.1611101	0.2960265	-0.2247879	-9.703287	7.415103	0	0
25.98739	-0.03283031	-0.164827	0.2872736	-0.2184129	-0.2610834	0.1901539	0	0
26.00351	-0.03235712	-0.165147	0.02935558	-0.01985249	-7.783532	5.992219	0	0
26.02007	-0.03262001	-0.1649069	-0.01586945	0.01448888	-1.383692	1.050699	0	0
26.03664	-0.03264629	-0.164887	-0.001586605	0.001207043	0.4310819	-0.4008698	0	0
26.05321	-0.03267258	-0.164867	-0.00158683	0.001207043	-6.78793E-06	0	0	0
26.06977	-0.03267258	-0.164867	0	0	0.04789338	-0.03643072	0	0
26.08645	-0.03267258	-0.164867	0	0	0	0	0	0
26.10296	-0.03264629	-0.164887	0.001592329	-0.001211226	0.04797099	-0.03648977	0	0
26.11947	-0.03267258	-0.164867	-0.001592697	0.001211506	-0.09646859	0.07338011	0	0
26.13604	-0.03275144	-0.164727	-0.00476004	0.0084502	-0.09576698	0.2188674	0	0
26.15261	-0.03283031	-0.164587	-0.004759716	0.008448328	9.752696E-06	-5.649256E-05	0	0
26.16917	-0.03301432	-0.1642471	-0.01110819	0.02052029	-0.1915973	0.3643327	0	0
26.18603	-0.03348748	-0.1638072	-0.02807518	0.02609707	-0.5077101	0.1668763	0	0
26.20254	-0.03422347	-0.1630477	-0.04457891	0.04600223	-0.4946665	0.5966176	0	0
26.26857	-0.03490687	-0.1607308	-0.01034906	0.03508641	0.4146844	-0.1322419	0	0
26.28514	-0.03101637	-0.157818	0.2348041	0.1757988	2.967832	1.703468	0	0
26.3017	-0.02286444	-0.1514862	0.4921081	0.3822323	7.76545	6.230176	0	0
26.31827	-0.01641958	-0.1465401	0.3890125	0.2985452	-3.111609	-2.525826	0	0
26.33484	-0.01028911	-0.1417231	0.3700357	0.2907535	-0.572723	-0.2351566	0	0
26.35165	-0.004368393	-0.1371135	0.3521852	0.2742007	-0.5347866	-0.4959098	0	0
26.36797	0.001157894	-0.1326901	0.3385565	0.2709891	-0.4113174	-0.09692501	0	0
26.38467	0.007841945	-0.1276052	0.4003161	0.3045411	1.87037	1.016111	0	0
26.40118	0.01094693	-0.1251256	0.1880669	0.150183	-6.391712	-4.648369	0	0
26.41769	0.01728775	-0.1198011	0.3840592	0.3225053	5.935558	5.21872	0	0
26.43424	0.02078648	-0.1111995	0.211427	0.5197906	-5.222073	5.967824	0	0
26.45081	0.02202275	-0.1041089	0.07461311	0.4279428	-4.131192	-2.773409	0	0
26.46738	0.02320636	-0.0990226	0.0714343	0.3069723	-0.09592549	-3.650477	0	0
26.48394	0.03127927	-0.08955833	0.4873941	0.5713961	12.55441	7.980787	0	0
26.50051	0.04129231	-0.08221602	0.6044577	0.4432337	3.533596	-3.868618	0	0
26.51726	0.04625645	-0.07856196	0.2962261	0.2180489	-9.249734	-6.75758	0	0
26.53364	0.05570547	-0.07161524	0.5769863	0.4241884	8.473358	6.221304	0	0
26.55021	0.06218288	-0.06682055	0.3909328	0.289375	-5.647287	-4.091997	0	0
26.5668	0.06627123	-0.0638208	0.2464326	0.1808152	-4.357764	-3.273892	0	0
26.58334	0.07342042	-0.05854047	0.4321728	0.3191989	5.605973	4.176669	0	0
26.59991	0.07826088	-0.05499372	0.2921709	0.2140828	-4.228428	-3.174786	0	0
26.61648	0.07933315	-0.05416996	0.06472205	0.04972216	-6.864421	-4.960414	0	0
26.63334	0.07933315	-0.05416996	0	0	-1.93571	-1.487093	0	0
26.64961	0.079307	-0.0541508	-0.001607944	0.001177785	-0.04853064	0.03554766	0	0
26.66618	0.07933315	-0.05413165	0.00157851	0.001156225	0.09705569	-0.000656682	0	0
26.68274	0.079307	-0.05411249	-0.001578692	0.001156133	-0.09529002	-2.772249E-06	0	0
26.69939	0.079307	-0.05407419	0	0.002300571	0.04752737	0.03445392	0	0
26.73244	0.08145098	-0.05135561	0.06487346	0.08225996	1.305307	1.608848	0	0
26.74901	0.08440425	-0.04453199	0.1782601	0.4118746	2.28529	6.643333	0	0
26.76558	0.08586729	-0.03142551	0.0882987	0.7910177	-2.714884	11.4419	0	0
26.78245	0.08607626	-0.02443808	0.01238554	0.4141333	-2.270026	-11.26995	0	0
26.79896	0.0874344	-0.008395405	0.08225235	0.9715816	2.092803	16.69791	0	0
26.81547	0.09001921	0.002926629	0.15656	0.6857679	2.250253	-8.655272	0	0
26.83198	0.09534164	0.01104136	0.3223385	0.4914469	5.020254	-5.884604	0	0
26.8485	0.1066725	0.01825711	0.6862226	0.4370027	11.01883	-1.648633	0	0
26.86501	0.1144191	0.02379472	0.4690992	0.3353317	-6.574369	-3.07854	0	0
26.88154	0.1242254	0.03074199	0.5932087	0.4202573	3.755795	2.570014	0	0
26.89811	0.1284727	0.03380054	0.2563644	0.1846145	-10.17711	-7.119501	0	0
26.91467	0.1342921	0.03799259	0.3512612	0.2530327	2.863991	2.064865	0	0
26.93155	0.142527	0.04392792	0.4879029	0.3516576	4.085522	2.948838	0	0
26.94781	0.148787	0.04844294	0.3851255	0.2777723	-3.102009	-2.229991	0	0
26.96458	0.1569613	0.05434351	0.487344	0.351785	3.094938	2.240932	0	0
26.98094	0.1627323	0.05851307	0.3527255	0.2548437	-4.062793	-2.925697	0	0
26.9976	0.1692596	0.06323329	0.391733	0.283282	1.181192	0.8611474	0	0
27.01411	0.1730158	0.06595184	0.2275374	0.1646799	-4.950021	-3.575509	0	0
27.03064	0.1756193	0.06783712	0.1575085	0.1140584	-2.119698	-1.53226	0	0
27.04764	0.17952	0.07066341	0.229527	0.1663063	2.148296	1.558544	0	0
27.06377	0.1796983	0.07075574	0.01104978	0.005721103	-6.594037	-4.846749	0	0
27.08034	0.1797748	0.07070034	0.004613207	-0.003343653	-0.1968052	-0.2771647	0	0
27.09691	0.1799021	0.070608	0.007688378	-0.005573354	0.09280885	-0.06729252	0	0
27.11348	0.1799276	0.07058954	0.001537136	-0.001114401	-0.1856449	0.1345715	0	0
27.19631	0.1804625	0.07020172	0.006457199	-0.004681851	0.04949688	-0.03588931	0	0
27.21288	0.1806153	0.07009091	0.009223714	-0.006688655	0.02783174	-0.02018887	0	0
27.22944	0.1807681	0.0699801	0.009222816	-0.006688655	-2.712361E-05	0	0	0
27.27914	0.1830844	0.06829906	0.04660666	-0.03382383	0.5641395	-0.4094824	0	0
27.29581	0.1853734	0.06663582	0.1373069	-0.0997734	1.366585	-0.9936652	0	0
27.31232	0.1896916	0.06349228	0.26155	-0.1904022	3.74449	-2.731408	0	0
27.32884	0.1922283	0.06164199	0.1535797	-0.1120187	-3.269088	2.373268	0	0
27.34541	0.1929128	0.06114227	0.04131649	-0.03016326	-3.393188	2.474105	0	0
27.36198	0.1977498	0.05760541	0.2919587	-0.2134854	7.564397	-5.532672	0	0
27.37888	0.1999246	0.05601187	0.1286964	-0.09429736	-4.878404	3.56143	0	0
27.39511	0.2062864	0.05133868	0.3918908	-0.2878738	7.943681	-5.842484	0	0
27.41168	0.2116001	0.04742149	0.3207361	-0.2364421	-2.169306	1.568006	0	0
27.42841	0.2161487	0.04405805	0.2718611	-0.2010272	-1.467785	1.063561	0	0
27.44481	0.21941	0.04164049	0.1988467	-0.1474011	-2.203706	1.618531	0	0
27.46194	0.2190841	0.04188231	-0.0190284	0.01411861	-6.498055	4.817273	0	0
27.47795	0.2189336	0.04199392	-0.009396593	0.006971125	0.290655	-0.2156868	0	0
27.49451	0.2186076	0.04223572	-0.01968376	0.01460019	-0.3158305	0.234223	0	0
27.51147	0.218106	0.0426077	-0.02958292	0.02193739	-0.2953402	0.2189045	0	0
27.53164	0.2180308	0.04266349	-0.003729029	0.002764835	0.6961935	-0.5162786	0	0
27.54821	0.2180308	0.04266349	0	0	0.1014785	-0.07523979	0	0
27.565	0.2180308	0.04266349	0	0	0	0	0	0
27.58152	0.2180308	0.04266349	0	0	0	0	0	0
27.59791	0.2180308	0.04266349	0	0	0	0	0	0
27.61454	0.2180308	0.04266349	0	0	0	0	0	0
27.63104	0.2180308	0.04266349	0	0	0	0	0	0
27.64761	0.2180308	0.04266349	0	0	0	0	0	0
27.66418	0.2180308	0.04266349	0	0	0	0	0	0
27.68074	0.2180308	0.04266349	0	0	0	0	0	0
27.69731	0.2180308	0.04266349	0	0	0	0	0	0
27.71411	0.2180057	0.04268209	-0.00149401	0.0011072	-0.04478254	0.03318801	0	0
27.73062	0.2179053	0.04275648	-0.006077091	0.004505251	-0.1375969	0.102019	0	0
27.74701	0.2177047	0.04290525	-0.01224186	0.009075044	-0.1873471	0.1388759	0	0
27.76364	0.2168013	0.04357466	-0.05432013	0.04025288	-1.274179	0.944101	0	0
27.78016	0.2134105	0.0460839	-0.2053285	0.1519478	-4.556131	3.369991	0	0
27.79671	0.2090832	0.04924135	-0.2613475	0.1906933	-1.693875	1.171565	0	0
27.81368	0.2044957	0.0526188	-0.2703995	0.1990736	-0.2700166	0.249984	0	0
27.82984	0.1984328	0.05695695	-0.3750673	0.2683704	-3.159245	2.091624	0	0
27.8467	0.1935972	0.06034629	-0.2868921	0.201085	2.670355	-2.037716	0	0
27.86298	0.1889046	0.06332579	-0.2882853	0.1830461	-0.04204835	-0.5444477	0	0
27.87972	0.1867712	0.06406569	-0.1274108	0.04418748	4.871749	-4.205042	0	0
28.01232	0.1691574	0.05237765	-0.1328394	-0.08814834	-0.03635067	-0.8861397	0	0
28.02864	0.157295	0.04381637	-0.7264649	-0.5243056	-3.986101	-2.928726	0	0
28.04521	0.1541361	0.04152887	-0.1906988	-0.1380896	16.28759	11.74118	0	0
28.06185	0.1382441	0.03018222	-0.9548431	-0.6817453	-23.01027	-16.37081	0	0
28.07836	0.1266863	0.02220542	-0.7000491	-0.4831497	7.685274	5.99018	0	0
28.09491	0.1212445	0.01868771	-0.3288467	-0.2125738	11.22876	8.184843	0	0
28.11148	0.1090915	0.01332954	-0.733641	-0.3234574	-12.22445	-3.348595	0	0
28.12804	0.09521125	0.01271075	-0.8378124	-0.03734981	-3.14408	8.635242	0	0
28.14461	0.07310633	0.01289827	-1.334256	0.01131884	-14.9827	1.468823	0	0
28.16118	0.05562676	0.01205435	-1.055068	-0.05093961	8.4259	-1.878964	0	0
28.17775	0.03932182	0.009821627	-0.9841681	-0.1347672	2.139774	-2.529922	0	0
28.19431	0.02047082	0.004092438	-1.137849	-0.3458146	-4.638087	-6.369421	0	0
28.21088	0.008105085	-0.001627673	-0.7464834	-0.3453063	11.8121	0.01533986	0	0
28.22747	-0.005552575	-0.01084957	-0.823146	-0.5558032	-2.312083	-6.348425	0	0
28.24401	-0.01465685	-0.01739055	-0.5503585	-0.3954059	8.232741	4.840803	0	0
28.26058	-0.02057604	-0.02165128	-0.3572835	-0.2571785	5.831381	4.174834	0	0
28.27715	-0.03401319	-0.03134947	-0.811068	-0.5853835	-13.69524	-9.905247	0	0
28.29371	-0.03837589	-0.03450653	-0.2633631	-0.1905823	16.53072	11.91581	0	0
28.31028	-0.04636149	-0.04029663	-0.4820119	-0.3494915	-6.599215	-4.796167	0	0
28.32685	-0.05071962	-0.04350121	-0.2630876	-0.1934511	6.607529	4.70958	0	0
28.34341	-0.05599404	-0.0473398	-0.3183643	-0.2316976	-1.66835	-1.154348	0	0
28.35998	-0.05735807	-0.04837191	-0.08233301	-0.06229853	7.123439	5.112474	0	0
28.37655	-0.06021659	-0.05049461	-0.1725406	-0.1281264	-2.72247	-1.986691	0	0
28.39311	-0.06118669	-0.05124079	-0.0585553	-0.04503947	3.440083	2.50757	0	0
28.42912	-0.06241881	-0.05229342	-0.03422454	-0.02923872	0.4628396	0.3005749	0	0
28.44563	-0.0623926	-0.05231256	0.001587633	-0.001159196	0.6819662	0.5347145	0	0
28.46216	-0.06236638	-0.05233171	0.001585436	-0.001157816	-6.649894E-05	4.173753E-05	0	0
28.49529	-0.06234017	-0.05235085	0.0007910994	-0.000577696	-0.01599312	0.01168011	0	0
28.51186	-0.06234017	-0.05235085	0	0	-0.01591756	0.01162371	0	0
28.52869	-0.06234017	-0.05235085	0	0	0	0	0	0
28.54499	-0.06234017	-0.05235085	0	0	0	0	0	0
28.56171	-0.06234017	-0.05235085	0	0	0	0	0	0
28.57822	-0.06234017	-0.05235085	0	0	0	0	0	0
28.59469	-0.06234017	-0.05235085	0	0	0	0	0	0
28.61126	-0.06234017	-0.05235085	0	0	0	0	0	0
28.62783	-0.06234017	-0.05235085	0	0	0	0	0	0
28.6444	-0.06234017	-0.05235085	0	0	0	0	0	0
28.72723	-0.06234017	-0.05235085	0	0	0	0	0	0
28.74384	-0.06234017	-0.05235085	0	0	0	0	0	0
28.76036	-0.06234017	-0.05235085	0	0	0	0	0	0
28.77693	-0.06234017	-0.05235085	0	0	0	0	0	0
28.7935	-0.06234017	-0.05235085	0	0	0	0	0	0
28.81039	-0.06234017	-0.05235085	0	0	0	0	0	0
28.82663	-0.06234017	-0.05235085	0	0	0	0	0	0
28.84319	-0.06234017	-0.05235085	0	0	0	0	0	0
28.85976	-0.06234017	-0.05235085	0	0	0	0	0	0
28.87644	-0.06234017	-0.05235085	0	0	0	0	0	0
28.90946	-0.06231396	-0.05233171	0.0007937708	0.0005795643	0.01597131	0.0116613	0	0
28.92603	-0.06231396	-0.05233171	0	0	-0.0160051	-0.01168597	0	0
28.9426	-0.06231396	-0.05233171	0	0	0	0	0	0
28.95916	-0.06231396	-0.05233171	0	0	0	0	0	0
28.97573	-0.06231396	-0.05233171	0	0	0	0	0	0
28.99252	-0.06231396	-0.05233171	0	0	0	0	0	0
29.00903	-0.06231396	-0.05233171	0	0	0	0	0	0
29.02543	-0.06231396	-0.05233171	0	0	0	0	0	0
29.04205	-0.06231396	-0.05233171	0	0	0	0	0	0
29.05856	-0.06231396	-0.05233171	0	0	0	0	0	0
29.07513	-0.06231396	-0.05233171	0	0	0	0	0	0
29.0917	-0.06231396	-0.05233171	0	0	0	0	0	0
29.10826	-0.06228774	-0.05235085	0.001582333	-0.001155325	0.04775764	-0.03486979	0	0
29.12483	-0.06228774	-0.05235085	0	0	-0.04775214	0.03486578	0	0
29.1414	-0.06228774	-0.05235085	0	0	0	0	0	0
29.15796	-0.06228774	-0.05235085	0	0	0	0	0	0
29.17453	-0.06228774	-0.05235085	0	0	0	0	0	0
29.1911	-0.06228774	-0.05235085	0	0	0	0	0	0
29.22469	-0.06226153	-0.05236999	0.0007803184	-0.0005699341	0.01555735	-0.01136288	0	0
29.2412	-0.06223531	-0.05238913	0.001588	-0.001159463	0.0161219	-0.01176742	0	0
29.25771	-0.06223531	-0.05238913	0	0	-0.04809482	0.03511598	0	0
29.27393	-0.06223531	-0.05238913	0	0	0	0	0	0
29.2905	-0.06223531	-0.05238913	0	0	0	0	0	0
29.30707	-0.06223531	-0.05238913	0	0	0	0	0	0
29.32363	-0.06223531	-0.05238913	0	0	0	0	0	0
29.3402	-0.06223531	-0.05238913	0	0	0	0	0	0
29.35678	-0.06223531	-0.05238913	0	0	0	0	0	0
29.37333	-0.06223531	-0.05238913	0	0	0	0	0	0
29.3899	-0.06223531	-0.05238913	0	0	0	0	0	0
29.40647	-0.06223531	-0.05238913	0	0	0	0	0	0
29.42303	-0.06223531	-0.05238913	0	0	0	0	0	0
29.4396	-0.06223531	-0.05238913	0	0	0	0	0	0
29.45617	-0.0622091	-0.05240828	0.001582333	-0.00115555	0.04775489	-0.03487458	0	0
29.47274	-0.0622091	-0.05240828	0	0	-0.04775214	0.03487257	0	0
29.4893	-0.0622091	-0.05240828	0	0	0	0	0	0
29.50587	-0.0622091	-0.05240828	0	0	0	0	0	0
29.52243	-0.06218288	-0.05242742	0.001582333	-0.00115555	0.04775489	-0.03487458	0	0
29.539	-0.06215667	-0.05244656	0.001582108	-0.001155325	-6.784417E-06	6.78793E-06	0	0
29.55557	-0.06215667	-0.05248485	0	-0.002311367	-0.04775086	-0.0348914	0	0
29.57213	-0.06215667	-0.05248485	0	0	0	0.0697612	0	0
29.5887	-0.06213046	-0.05250399	0.001582333	-0.001155325	0.04775489	-0.03486779	0	0
29.60546	-0.06210424	-0.05252314	0.001564679	-0.001142658	-0.0005297936	0.0003801509	0	0
29.62183	-0.06210424	-0.05252314	0	0	-0.04722483	0.03448748	0	0
29.6384	-0.06210424	-0.05252314	0	0	0	0	0	0
29.65497	-0.06207803	-0.05250399	0.001582515	0.001155683	0.04776039	0.03487859	0	0
29.67154	-0.06210424	-0.05252314	-0.001582333	-0.00115555	-0.09552078	-0.06975718	0	0
29.6881	-0.06207803	-0.05254228	0.001582333	-0.00115555	0.09550978	0	0	0
29.70467	-0.06205181	-0.05252314	0.001582333	0.00115555	0	0.06974915	0	0
29.75506	-0.06205181	-0.05252314	0	0	-0.02363056	-0.01725699	0	0
29.77158	-0.0620256	-0.05254228	0.001587633	-0.001159421	0.02372932	-0.01732911	0	0
29.78797	-0.06205181	-0.05252314	-0.0015989	0.001167649	-0.09683307	0.07071552	0	0
29.8046	-0.06205181	-0.05252314	0	0	0.04841374	-0.03535572	0	0
29.82111	-0.06205181	-0.05252314	0	0	0	0	0	0
29.83768	-0.06205181	-0.05252314	0	0	0	0	0	0
29.85424	-0.06205181	-0.05252314	0	0	0	0	0	0
29.88771	-0.06205181	-0.05252314	0	0	0	0	0	0
29.90428	-0.06205181	-0.05252314	0	0	0	0	0	0
29.92118	-0.06205181	-0.05252314	0	0	0	0	0	0
29.93742	-0.06205181	-0.05252314	0	0	0	0	0	0
29.95421	-0.06205181	-0.05252314	0	0	0	0	0	0
29.97072	-0.0620256	-0.05250399	0.001587633	0.001159421	0.04767337	0.03481504	0	0
29.98712	-0.0620256	-0.05250399	0	0	-0.04823976	-0.03522867	0	0
30.00375	-0.0620256	-0.05250399	0	0	0	0	0	0
30.02026	-0.0620256	-0.05250399	0	0	0	0	0	0
30.03682	-0.0620256	-0.05250399	0	0	0	0	0	0
30.05338	-0.0620256	-0.05250399	0	0	0	0	0	0
30.06995	-0.0620256	-0.05250399	0	0	0	0	0	0
30.08652	-0.0620256	-0.05250399	0	0	0	0	0	0
30.10331	-0.0620256	-0.05250399	0	0	0	0	0	0
30.11983	-0.0620256	-0.05250399	0	0	0	0	0	0
30.13622	-0.0620256	-0.05250399	0	0	0	0	0	0
30.15278	-0.0620256	-0.05250399	0	0	0	0	0	0
30.18591	-0.0620256	-0.05250399	0	0	0	0	0	0
30.20248	-0.0620256	-0.05250399	0	0	0	0	0	0
30.21905	-0.0620256	-0.05250399	0	0	0	0	0	0
30.23562	-0.0620256	-0.05250399	0	0	0	0	0	0
30.25218	-0.0620256	-0.05250399	0	0	0	0	0	0
30.26875	-0.0620256	-0.05250399	0	0	0	0	0	0
30.28532	-0.0620256	-0.05250399	0	0	0	0	0	0
30.30188	-0.0620256	-0.05250399	0	0	0	0	0	0
30.31845	-0.0620256	-0.05250399	0	0	0	0	0	0
30.33502	-0.0620256	-0.05250399	0	0	0	0	0	0
30.352	-0.0620256	-0.05250399	0	0	0	0	0	0
30.36815	-0.0620256	-0.05250399	0	0	0	0	0	0
30.38472	-0.0620256	-0.05250399	0	0	0	0	0	0
30.40129	-0.0620256	-0.05250399	0	0	0	0	0	0
30.41785	-0.0620256	-0.05250399	0	0	0	0	0	0
30.43456	-0.0620256	-0.05250399	0	0	0	0	0	0
30.45107	-0.0620256	-0.05250399	0	0	0	0	0	0
30.46758	-0.0620256	-0.05250399	0	0	0	0	0	0
30.48412	-0.0620256	-0.05250399	0	0	0	0	0	0
30.50068	-0.0620256	-0.05250399	0	0	0	0	0	0
30.51725	-0.0620256	-0.05250399	0	0	0	0	0	0
30.53382	-0.0620256	-0.05250399	0	0	0	0	0	0
30.55039	-0.0620256	-0.05250399	0	0	0	0	0	0
30.64128	-0.0620256	-0.05250399	0	0	0	0	0	0
30.67442	-0.0620256	-0.05250399	0	0	0	0	0	0
30.69098	-0.0620256	-0.05250399	0	0	0	0	0	0
30.70755	-0.0620256	-0.05250399	0	0	0	0	0	0
30.72411	-0.0620256	-0.05250399	0	0	0	0	0	0
30.74068	-0.0620256	-0.05250399	0	0	0	0	0	0
30.75729	-0.0620256	-0.05250399	0	0	0	0	0	0
30.77382	-0.0620256	-0.05250399	0	0	0	0	0	0
30.79038	-0.0620256	-0.05250399	0	0	0	0	0	0
30.80695	-0.0620256	-0.05250399	0	0	0	0	0	0
30.82352	-0.0620256	-0.05250399	0	0	0	0	0	0
30.84008	-0.0620256	-0.05250399	0	0	0	0	0	0
30.85665	-0.0620256	-0.05250399	0	0	0	0	0	0
30.87337	-0.06199938	-0.05252314	0.001568608	-0.001145527	0.04713177	-0.03441952	0	0
30.88988	-0.06192074	-0.05258057	0.0047629	-0.003478264	0.0961438	-0.07021216	0	0
30.90639	-0.06171102	-0.05273373	0.01270129	-0.009275596	0.2403837	-0.1755499	0	0
30.92292	-0.06087207	-0.05338473	0.05075578	-0.03938524	1.151735	-0.9112812	0	0
30.93949	-0.05874811	-0.05493624	0.1282024	-0.09364926	2.340039	-1.639579	0	0
30.95605	-0.05510206	-0.05763899	0.2200762	-0.1631386	2.772756	-2.097191	0	0
30.97262	-0.05216316	-0.05978767	0.1773921	-0.1296946	-1.288208	1.00934	0	0
30.98945	-0.04814697	-0.06276395	0.2386265	-0.176839	1.833493	-1.411608	0	0
31.00596	-0.04297353	-0.06655121	0.313352	-0.2293916	2.241286	-1.576239	0	0
31.02247	-0.04184398	-0.06737854	0.06841578	-0.0501111	-7.41781	5.429448	0	0
31.03899	-0.04100332	-0.06799439	0.05090057	-0.0372887	-0.5303503	0.388255	0	0
31.05545	-0.03819195	-0.07005462	0.1707563	-0.1251335	3.634199	-2.663581	0	0
31.07202	-0.03811311	-0.07011241	0.004757918	-0.003487611	-5.025174	3.682515	0	0
31.08858	-0.03806056	-0.07015093	0.003172676	-0.002325309	-0.04784271	0.03507832	0	0
31.10515	-0.03803428	-0.07017019	0.001586155	-0.001162971	-0.04788404	0.03508148	0	0
31.12172	-0.03803428	-0.07017019	0	0	-0.04787026	0.03509852	0	0
31.13828	-0.03792917	-0.07024724	0.006345126	-0.004651069	0.1915073	-0.1403776	0	0
31.15485	-0.03790289	-0.07026651	0.001586155	-0.001162971	-0.1436343	0.1052771	0	0
31.17142	-0.03779778	-0.07057473	0.006344621	-0.01860438	0.1436108	-0.5263828	0	0
31.18798	-0.03782406	-0.07097933	-0.001586338	-0.02442429	-0.2393706	-0.1756554	0	0
31.2046	-0.04097705	-0.07398674	-0.1897688	-0.1810068	-5.671524	-4.719149	0	0
31.22112	-0.0480157	-0.07923827	-0.4261293	-0.3179345	-7.133782	-4.132724	0	0
31.23768	-0.05906281	-0.08734772	-0.6668047	-0.4894879	-7.274486	-5.185252	0	0
31.25425	-0.06446319	-0.09134366	-0.3259679	-0.241195	10.28647	7.493494	0	0
31.27082	-0.07433645	-0.09863325	-0.5958828	-0.4399502	-8.145577	-5.9981	0	0
31.33719	-0.09914752	-0.1171528	-0.373808	-0.2790194	2.67744	1.940258	0	0
31.37222	-0.1046687	-0.1213128	-0.1576202	-0.1187598	2.131981	1.580434	0	0
31.38878	-0.1065164	-0.1227469	-0.1115898	-0.08660886	0.8923021	0.623247	0	0
31.40535	-0.1085714	-0.1242997	-0.1240394	-0.09372976	-0.3758383	-0.2149711	0	0
31.42192	-0.1085454	-0.1242407	0.001569516	0.003560417	3.790885	2.936224	0	0
31.43848	-0.1084934	-0.1242407	0.003139931	0	0.04739522	-0.1074536	0	0
31.45505	-0.1084673	-0.124221	0.001569696	0.001186942	-0.04739249	0.03582405	0	0
31.47162	-0.1084153	-0.1241817	0.003139569	0.002373338	0.04737886	0.03580549	0	0
31.48818	-0.1083893	-0.1241621	0.001569516	0.001186806	-0.04738158	-0.03580755	0	0
31.50482	-0.1083893	-0.1241621	0	0	-0.04727555	-0.0357479	0	0
31.52132	-0.1083633	-0.1241424	0.001575588	0.001191056	0.04754315	0.03593995	0	0
31.53788	-0.1083633	-0.1241424	0	0	-0.0476501	-0.0360208	0	0
31.55445	-0.1083633	-0.1241424	0	0	0	0	0	0
31.57101	-0.1083633	-0.1241424	0	0	0	0	0	0
31.58758	-0.1083633	-0.1241424	0	0	0	0	0	0
31.60415	-0.1083373	-0.1241227	0.001570146	0.001186493	0.04738983	0.03581048	0	0
31.6209	-0.1083113	-0.1241031	0.001552535	0.001173966	-0.0005286324	-0.0003760235	0	0
31.63741	-0.1082853	-0.1240834	0.001575225	0.001190781	0.0006821706	0.0005055754	0	0
31.65392	-0.1082853	-0.1240834	0	0	-0.04770238	-0.03606032	0	0
31.67043	-0.1082853	-0.1240834	0	0	0	0	0	0
31.68698	-0.1082853	-0.1240834	0	0	0	0	0	0
31.70355	-0.1082593	-0.1240638	0.001570146	0.001186942	0.04741167	0.03584056	0	0
31.72011	-0.1082593	-0.1240638	0	0	-0.04738983	-0.03582405	0	0
31.73668	-0.1082593	-0.1240638	0	0	0	0	0	0
31.75325	-0.1081813	-0.1240048	0.004709896	0.003559967	0.1421449	0.10744	0	0
31.76982	-0.1081032	-0.1239851	0.004709446	0.001186806	-1.357586E-05	-0.07162216	0	0
31.78638	-0.1080512	-0.1239458	0.003139569	0.002372888	-0.04737626	0.03579399	0	0
31.80303	-0.1080252	-0.1239655	0.001562948	-0.001181053	-0.04747322	-0.1070118	0	0
31.81954	-0.1080252	-0.1239655	0	0	-0.04714272	0.03562374	0	0
31.83608	-0.1079992	-0.1239851	0.001571956	-0.001188311	0.04755122	-0.03594605	0	0
31.85265	-0.1079732	-0.1240048	0.001569965	-0.001186806	-6.012109E-05	4.544677E-05	0	0
31.86922	-0.1079472	-0.1240244	0.001569965	-0.001186806	0	0	0	0
31.90235	-0.1076871	-0.1241031	0.007850276	-0.002373386	0.1263601	-0.02387405	0	0
31.91892	-0.107557	-0.1242014	0.007850276	-0.005933579	0	-0.07163121	0	0
31.93549	-0.1065944	-0.1248896	0.05810041	-0.04154269	1.516552	-1.074685	0	0
31.95205	-0.1026381	-0.1278414	0.2388074	-0.1781715	5.453748	-4.123466	0	0
31.96862	-0.09836572	-0.1310728	0.2578786	-0.1950445	0.5755693	-0.5092273	0	0
31.98519	-0.08463941	-0.1414261	0.8284267	-0.6248561	17.21819	-12.97099	0	0
32.00218	-0.07661291	-0.1475126	0.4725124	-0.3583074	-10.60658	7.943403	0	0
32.01869	-0.06889081	-0.153376	0.4677224	-0.3551384	-0.142997	0.09460589	0	0
32.03489	-0.05935127	-0.160631	0.5886851	-0.4477079	3.697485	-2.829587	0	0
32.05171	-0.05525947	-0.1637473	0.2432839	-0.1852824	-10.45915	7.946549	0	0
32.08459	-0.04168636	-0.1740651	0.4127737	-0.3137784	3.410141	-2.585344	0	0
32.10116	-0.0393481	-0.175853	0.1411377	-0.1079152	-5.493154	4.163063	0	0
32.11776	-0.0351697	-0.1790506	0.2517451	-0.1926524	3.335066	-2.555019	0	0
32.1343	-0.03519599	-0.1790305	-0.001589533	0.00121738	-7.645654	5.851001	0	0
32.16743	-0.0353274	-0.1788896	-0.003966519	0.004251673	-0.04785812	0.0610923	0	0
32.18431	-0.03535368	-0.1788292	-0.001556983	0.003576977	0.04818043	-0.01349104	0	0
32.20056	-0.0353274	-0.1788091	0.001616909	0.001237606	0.09578823	-0.07060239	0	0
32.21733	-0.0353274	-0.1788091	0	0	-0.04896187	-0.03747613	0	0
32.23384	-0.0353274	-0.1788091	0	0	0	0	0	0
32.25035	-0.0353274	-0.1788091	0	0	0	0	0	0
32.26686	-0.0353274	-0.1788091	0	0	0	0	0	0
32.28343	-0.03535368	-0.1787487	-0.00158638	0.003643615	-0.04795987	0.1101547	0	0
32.29996	-0.03537997	-0.1786884	-0.0015899	0.003651181	-0.0001063314	0.0002285882	0	0
32.31653	-0.03540625	-0.178628	-0.001586745	0.003644454	9.530588E-05	-0.0002032606	0	0
32.3828	-0.03537997	-0.1786079	0.000396595	0.0003037845	0.02394404	-0.0403305	0	0
32.39997	-0.03540625	-0.1785878	-0.001530693	0.001171615	-0.0230982	0.01040079	0	0
32.41593	-0.03551138	-0.1784268	-0.006585321	0.01008251	-0.152549	0.2689314	0	0
32.4325	-0.0357742	-0.1781854	-0.01586403	0.01457176	-0.2852201	0.137996	0	0
32.44907	-0.03587933	-0.1780245	-0.00634552	0.009713908	0.2872691	-0.1466103	0	0
32.46564	-0.03587933	-0.1780245	0	0	0.1914861	-0.2931326	0	0
32.4822	-0.03585305	-0.1780043	0.001586745	0.001214518	0.04788807	0.03665423	0	0
32.49877	-0.03585305	-0.1780043	0	0	-0.04789358	-0.03665845	0	0
32.51533	-0.03582677	-0.1779842	0.001586745	0.001214518	0.04789358	0.03665845	0	0
32.5319	-0.03580049	-0.1779239	0.00158638	0.003642715	-1.102639E-05	0.07329158	0	0
32.54847	-0.03574792	-0.1778032	0.00317276	0.007284531	0.04787704	0.1099102	0	0
32.56508	-0.03561651	-0.1776222	0.007908452	0.01089374	0.1427099	0.1087633	0	0
32.5816	-0.03553766	-0.1775216	0.004773429	0.006087616	-0.0946152	-0.1450491	0	0
32.59817	-0.03551138	-0.1775015	0.00158638	0.001214238	-0.0963295	-0.1472993	0	0
32.61473	-0.0354851	-0.1774814	0.00158638	0.001213339	0	-2.714469E-05	0	0
32.6313	-0.03545881	-0.1774613	0.00158697	0.001214518	1.78151E-05	3.558803E-05	0	0
32.66465	-0.03543253	-0.1774412	0.0007880188	0.0006031611	-0.01600614	-0.01224788	0	0
32.681	-0.03543253	-0.1774412	0	0	-0.01585497	-0.01213563	0	0
32.69757	-0.03543253	-0.1774412	0	0	0	0	0	0
32.71419	-0.03543253	-0.1774412	0	0	0	0	0	0
32.7307	-0.03535368	-0.1773808	0.004774757	0.003652691	0.1441024	0.1102384	0	0
32.74727	-0.03519599	-0.17722	0.009518505	0.00971031	0.1433977	0.1831145	0	0
32.76384	-0.03390805	-0.1760339	0.07774004	0.0715924	2.05893	1.867605	0	0
32.7804	-0.03193651	-0.1736033	0.1190026	0.1467079	1.245305	2.26699	0	0
