Time	Pos X	Pos Y	Vel X	Vel Y	Acc X	Acc YForce X	Force Y
0.01675701	-0.06517074	-0.08194518	0.001083835	0.001362807	-1.802992E-05	-2.267069E-05	0	0
0.09126014	-0.06517074	-0.08194518	0	0	1.804731E-05	2.269255E-05	0	0
0.10783	-0.06514453	-0.08196452	0.001581404	-0.00116728	0.01736413	-0.01281697	0	0
0.1248424	-0.06514453	-0.08196452	0	0	-0.0470904	0.0347588	0	0
0.140967	-0.06514453	-0.08196452	0	0	0	0	0	0
0.1575377	-0.06514453	-0.08196452	0	0	0	0	0	0
0.1743611	-0.06514453	-0.08196452	0	0	0	0	0	0
0.1908836	-0.06514453	-0.08196452	0	0	0	0	0	0
0.2072328	-0.06514453	-0.08196452	0	0	0	0	0	0
0.2238023	-0.06514453	-0.08196452	0	0	0	0	0	0
0.2404117	-0.06514453	-0.08196452	0	0	0	0	0	0
0.2569318	-0.06514453	-0.08196452	0	0	0	0	0	0
0.2734954	-0.06514453	-0.08196452	0	0	0	0	0	0
0.290811	-0.06514453	-0.08196452	0	0	0	0	0	0
0.3074764	-0.06514453	-0.08196452	0	0	0	0	0	0
0.3405199	-0.06514453	-0.08196452	0	0	0	0	0	0
0.3570874	-0.06514453	-0.08196452	0	0	0	0	0	0
0.3736522	-0.06514453	-0.08196452	0	0	0	0	0	0
0.3902173	-0.06514453	-0.08196452	0	0	0	0	0	0
0.4067868	-0.06514453	-0.08196452	0	0	0	0	0	0
0.4233512	-0.06514453	-0.08196452	0	0	0	0	0	0
0.4399183	-0.06514453	-0.08196452	0	0	0	0	0	0
0.4565691	-0.06514453	-0.08196452	0	0	0	0	0	0
0.4730727	-0.06514453	-0.08196452	0	0	0	0	0	0
0.4900922	-0.06514453	-0.08196452	0	0	0	0	0	0
0.5166692	-0.06514453	-0.08196452	0	0	0	0	0	0
0.5332394	-0.06514453	-0.08196452	0	0	0	0	0	0
0.5498065	-0.06514453	-0.08196452	0	0	0	0	0	0
0.5663725	-0.06514453	-0.08196452	0	0	0	0	0	0
0.5829388	-0.06514453	-0.08196452	0	0	0	0	0	0
0.5996701	-0.06514453	-0.08196452	0	0	0	0	0	0
0.6160699	-0.06514453	-0.08196452	0	0	0	0	0	0
0.6326824	-0.06514453	-0.08196452	0	0	0	0	0	0
0.6492065	-0.06514453	-0.08196452	0	0	0	0	0	0
0.6657724	-0.06514453	-0.08196452	0	0	0	0	0	0
0.6823383	-0.06514453	-0.08196452	0	0	0	0	0	0
0.6989173	-0.06514453	-0.08196452	0	0	0	0	0	0
0.7154694	-0.06514453	-0.08196452	0	0	0	0	0	0
0.7320362	-0.06514453	-0.08196452	0	0	0	0	0	0
0.7487695	-0.06514453	-0.08196452	0	0	0	0	0	0
0.765281	-0.06514453	-0.08196452	0	0	0	0	0	0
0.7817388	-0.06514453	-0.08196452	0	0	0	0	0	0
0.7983059	-0.06511833	-0.08198387	0.001581669	-0.001167926	0.04789323	-0.035365	0	0
0.8148718	-0.06511833	-0.08198387	0	0	-0.04773694	0.03524959	0	0
0.8318297	-0.06511833	-0.08198387	0	0	0	0	0	0
0.8480057	-0.06514453	-0.08200321	-0.001619919	-0.001195709	-0.04889014	-0.03608723	0	0
0.8648463	-0.06514453	-0.08200321	0	0	0.04906375	0.03621538	0	0
0.8813618	-0.06514453	-0.08200321	0	0	0	0	0	0
0.8977063	-0.06514453	-0.08200321	0	0	0	0	0	0
0.9143831	-0.06514453	-0.08200321	0	0	0	0	0	0
0.9474068	-0.06514453	-0.08200321	0	0	0	0	0	0
0.9639751	-0.06514453	-0.08200321	0	0	0	0	0	0
0.9805395	-0.06514453	-0.08200321	0	0	0	0	0	0
0.9974394	-0.06517074	-0.08198387	-0.001550525	0.001144488	-0.04633377	0.0342003	0	0
1.013673	-0.06517074	-0.08198387	0	0	0.04679687	-0.03454214	0	0
1.03024	-0.06517074	-0.08198387	0	0	0	0	0	0
1.046806	-0.06517074	-0.08198387	0	0	0	0	0	0
1.063493	-0.06517074	-0.08198387	0	0	0	0	0	0
1.080002	-0.06517074	-0.08198387	0	0	0	0	0	0
1.113072	-0.06517074	-0.08198387	0	0	0	0	0	0
1.129637	-0.06514453	-0.08200321	0.001581817	-0.001167585	0.03186842	-0.02352301	0	0
1.146206	-0.06517074	-0.08198387	-0.001581521	0.001167367	-0.09547044	0.07046951	0	0
1.162772	-0.06517074	-0.08198387	0	0	0.04773024	-0.03523108	0	0
1.179571	-0.06517074	-0.08198387	0	0	0	0	0	0
1.195903	-0.06517074	-0.08198387	0	0	0	0	0	0
1.212472	-0.06517074	-0.08198387	0	0	0	0	0	0
1.22911	-0.06517074	-0.08198387	0	0	0	0	0	0
1.245606	-0.06517074	-0.08198387	0	0	0	0	0	0
1.262176	-0.06517074	-0.08198387	0	0	0	0	0	0
1.27874	-0.06517074	-0.08198387	0	0	0	0	0	0
1.295306	-0.06517074	-0.08198387	0	0	0	0	0	0
1.319962	-0.06517074	-0.08198387	0	0	0	0	0	0
1.336532	-0.06517074	-0.08198387	0	0	0	0	0	0
1.369709	-0.06517074	-0.08198387	0	0	0	0	0	0
1.386233	-0.06517074	-0.08198387	0	0	0	0	0	0
1.402798	-0.06517074	-0.08198387	0	0	0	0	0	0
1.419365	-0.06517074	-0.08198387	0	0	0	0	0	0
1.435931	-0.06517074	-0.08198387	0	0	0	0	0	0
1.4525	-0.06517074	-0.08198387	0	0	0	0	0	0
1.469064	-0.06517074	-0.08198387	0	0	0	0	0	0
1.485633	-0.06517074	-0.08198387	0	0	0	0	0	0
1.5022	-0.06517074	-0.08198387	0	0	0	0	0	0
1.518766	-0.06519694	-0.08196452	-0.001581738	0.001167976	-0.04773883	0.03525099	0	0
1.535332	-0.06517074	-0.08194518	0.001581817	0.001167585	0.09548349	-1.179896E-05	0	0
1.5519	-0.06522314	-0.08190649	-0.003163179	0.002335284	-0.1432084	0.03524224	0	0
1.568466	-0.06522314	-0.08190649	0	0	0.09546666	-0.07048029	0	0
1.585033	-0.06522314	-0.08190649	0	0	0	0	0	0
1.601599	-0.06524935	-0.08192583	-0.001581738	-0.001167527	-0.04773831	-0.03523704	0	0
1.618164	-0.06524935	-0.08192583	0	0	0.04774174	0.03523957	0	0
1.634732	-0.06524935	-0.08192583	0	0	0	0	0	0
1.651299	-0.06524935	-0.08192583	0	0	0	0	0	0
1.667866	-0.06522314	-0.08194518	0.001581669	-0.001167926	0.04773573	-0.03524871	0	0
1.684433	-0.06522314	-0.08194518	0	0	-0.04773573	0.03524871	0	0
1.700999	-0.06519694	-0.08192583	0.001581738	0.001167976	0.04773883	0.03525099	0	0
1.717566	-0.06519694	-0.08192583	0	0	-0.04773883	-0.03525099	0	0
1.734133	-0.06519694	-0.08192583	0	0	0	0	0	0
1.7507	-0.06519694	-0.08192583	0	0	0	0	0	0
1.767523	-0.06519694	-0.08192583	0	0	0	0	0	0
1.783832	-0.06519694	-0.08192583	0	0	0	0	0	0
1.800399	-0.06519694	-0.08192583	0	0	0	0	0	0
1.81704	-0.06522314	-0.08194518	-0.001574724	-0.001162797	-0.04742101	-0.03501631	0	0
1.883232	-0.06519694	-0.08196452	0.0003958695	-0.0002922028	0.02378997	0.01051024	0	0
1.899798	-0.06519694	-0.08196452	0	0	-0.004783421	0.003530782	0	0
1.916366	-0.06519694	-0.08196452	0	0	0	0	0	0
1.932932	-0.06519694	-0.08196452	0	0	0	0	0	0
1.9495	-0.06519694	-0.08196452	0	0	0	0	0	0
1.966066	-0.06519694	-0.08196452	0	0	0	0	0	0
1.982638	-0.06519694	-0.08196452	0	0	0	0	0	0
1.999199	-0.06519694	-0.08196452	0	0	0	0	0	0
2.016199	-0.06519694	-0.08196452	0	0	0	0	0	0
2.032691	-0.06519694	-0.08196452	0	0	0	0	0	0
2.048899	-0.06519694	-0.08196452	0	0	0	0	0	0
2.065466	-0.06519694	-0.08196452	0	0	0	0	0	0
2.082212	-0.06519694	-0.08196452	0	0	0	0	0	0
2.098599	-0.06519694	-0.08196452	0	0	0	0	0	0
2.143753	-0.06517074	-0.08198387	0.0005803262	-0.0004285207	0.009429936	-0.006963192	0	0
2.160266	-0.06517074	-0.08198387	0	0	-0.009410687	0.006948977	0	0
2.17665	-0.06517074	-0.08198387	0	0	0	0	0	0
2.193216	-0.06517074	-0.08198387	0	0	0	0	0	0
2.209783	-0.06517074	-0.08198387	0	0	0	0	0	0
2.226349	-0.06517074	-0.08198387	0	0	0	0	0	0
2.242916	-0.06517074	-0.08198387	0	0	0	0	0	0
2.259483	-0.06517074	-0.08198387	0	0	0	0	0	0
2.276847	-0.06517074	-0.08198387	0	0	0	0	0	0
2.292863	-0.06517074	-0.08198387	0	0	0	0	0	0
2.30918	-0.06517074	-0.08198387	0	0	0	0	0	0
2.325876	-0.06517074	-0.08198387	0	0	0	0	0	0
2.342314	-0.06517074	-0.08198387	0	0	0	0	0	0
2.35888	-0.06517074	-0.08198387	0	0	0	0	0	0
2.375448	-0.06517074	-0.08198387	0	0	0	0	0	0
2.392014	-0.06517074	-0.08198387	0	0	0	0	0	0
2.408581	-0.06517074	-0.08198387	0	0	0	0	0	0
2.425448	-0.06517074	-0.08198387	0	0	0	0	0	0
2.441714	-0.06517074	-0.08198387	0	0	0	0	0	0
2.45828	-0.06517074	-0.08198387	0	0	0	0	0	0
2.474986	-0.06517074	-0.08198387	0	0	0	0	0	0
2.491416	-0.06517074	-0.08198387	0	0	0	0	0	0
2.507981	-0.06517074	-0.08198387	0	0	0	0	0	0
2.524547	-0.06517074	-0.08198387	0	0	0	0	0	0
2.541531	-0.06517074	-0.08198387	0	0	0	0	0	0
2.557682	-0.06517074	-0.08198387	0	0	0	0	0	0
2.574556	-0.06517074	-0.08194518	0	0.002292853	0	0.06942724	0	0
2.590816	-0.06524935	-0.08184846	-0.004834727	0.005948672	-0.1459134	0.1103336	0	0
2.607381	-0.06532796	-0.08167437	-0.004745657	0.01050962	0.00271353	0.1389495	0	0
2.623947	-0.06545898	-0.08130688	-0.007908517	0.02218208	-0.09546356	0.3523058	0	0
2.640514	-0.06653323	-0.08012739	-0.06484587	0.07119849	-1.718447	1.479382	0	0
2.65708	-0.06930985	-0.07634097	-0.1676021	0.2285555	-3.101323	4.749249	0	0
2.673649	-0.07344659	-0.0673593	-0.2496726	0.5420877	-2.476822	9.46215	0	0
2.690215	-0.07488602	-0.05811847	-0.08688871	0.5578097	4.912758	0.4744816	0	0
2.706782	-0.07656059	-0.02766401	-0.1010831	1.838341	-0.4284114	38.64873	0	0
2.723659	-0.07690068	-0.005207745	-0.02015156	1.330589	2.419968	-15.18251	0	0
2.74017	-0.07684836	0.02732606	0.003168949	1.970322	0.6984521	19.16009	0	0
2.756689	-0.07666524	0.03555246	0.01108571	0.498009	0.2396803	-44.57435	0	0
2.773204	-0.07574952	0.07546183	0.05544939	2.41662	1.343005	58.08142	0	0
2.789614	-0.07501686	0.0974291	0.04464493	1.338584	-0.3281498	-32.74182	0	0
2.806182	-0.07425794	0.1166414	0.04580761	1.159639	0.03525585	-5.426143	0	0
2.822753	-0.07276604	0.1378181	0.09003079	1.277936	1.334495	3.569784	0	0
2.839315	-0.07174507	0.1509997	0.06164349	0.7958691	-0.8567551	-14.54924	0	0
2.861501	-0.06957175	0.169114	0.09795992	0.8164836	0.9372402	0.5320095	0	0
2.87827	-0.0682622	0.1740007	0.07809612	0.2914196	-0.5099263	-13.47899	0	0
2.894637	-0.06386042	0.1847024	0.2689353	0.6538429	5.759288	10.93748	0	0
2.911203	-0.06142264	0.1888737	0.1471594	0.2518053	-3.697686	-12.20774	0	0
2.927807	-0.05945616	0.1987416	0.1184294	0.5942817	-0.8661377	10.32481	0	0
2.944336	-0.05901036	0.2065077	0.02697192	0.4698648	-2.760312	-3.755074	0	0
2.960902	-0.06008548	0.2142662	-0.06489941	0.4683412	-2.776038	-0.04603751	0	0
3.043886	-0.06855032	0.2205794	-0.1020054	0.07607682	-0.372736	-3.940366	0	0
3.060399	-0.06855032	0.2205794	0	0	1.025205	-0.7646099	0	0
3.076908	-0.0686027	0.2206513	-0.003173109	0.004356876	-0.09608958	0.131937	0	0
3.093436	-0.06862889	0.2208131	-0.00158459	0.009790645	0.04808415	0.1644791	0	0
3.110002	-0.06870747	0.2212266	-0.004742862	0.02496006	-0.09543359	0.4583746	0	0
3.126569	-0.07360364	0.225199	-0.295542	0.2397794	-8.776588	6.483447	0	0
3.143136	-0.0821829	0.2313788	-0.5178602	0.3730266	-6.709769	4.021523	0	0
3.159702	-0.08806113	0.2354187	-0.3548312	0.2438628	4.920435	-3.898339	0	0
3.176269	-0.09239408	0.2383982	-0.261545	0.1798483	2.815505	-1.932045	0	0
3.192837	-0.09255063	0.2385059	-0.009448344	0.006498856	7.608129	-5.231583	0	0
3.209502	-0.09247236	0.2384521	0.004696576	-0.0032306	0.4256236	-0.2927614	0	0
3.226014	-0.09247236	0.2384521	0	0	-0.1415637	0.09737639	0	0
3.242535	-0.09242018	0.2384162	0.003158506	-0.002172713	0.09561631	-0.06577376	0	0
3.259102	-0.09236799	0.2383803	0.003150006	-0.002165966	-0.0002569035	0.00020391	0	0
3.27567	-0.0923419	0.2383265	0.001574799	-0.003249428	-0.04753949	-0.03269871	0	0
3.292238	-0.09228972	0.2382906	0.003149779	-0.00216671	0.04753094	0.03267509	0	0
3.308803	-0.09228972	0.2382906	0	0	-0.095066	0.0653952	0	0
3.32537	-0.09231581	0.2383085	-0.001574912	0.001082921	-0.04753402	0.03268473	0	0
3.341936	-0.09231581	0.2383085	0	0	0.04753231	-0.03268356	0	0
3.358502	-0.09231581	0.2383085	0	0	0	0	0	0
3.375069	-0.09231581	0.2383085	0	0	0	0	0	0
3.391636	-0.09228972	0.2382906	0.00157489	-0.001082905	0.04753128	-0.03268285	0	0
3.408204	-0.09228972	0.2382906	0	0	-0.04752957	0.03268167	0	0
3.424769	-0.09231581	0.2383085	-0.001575071	0.00108303	-0.04753779	0.03268732	0	0
3.441664	-0.09231581	0.2383085	0	0	0.04707272	-0.03236753	0	0
3.457902	-0.09231581	0.2383085	0	0	0	0	0	0
3.474469	-0.09231581	0.2383085	0	0	0	0	0	0
3.491035	-0.09231581	0.2383085	0	0	0	0	0	0
3.507719	-0.09231581	0.2383085	0	0	0	0	0	0
3.524287	-0.09231581	0.2383085	0	0	0	0	0	0
3.540854	-0.09231581	0.2383085	0	0	0	0	0	0
3.557421	-0.09231581	0.2383085	0	0	0	0	0	0
3.579643	-0.09228972	0.2382906	0.001174121	-0.0008073341	0.03026923	-0.02081334	0	0
3.596211	-0.09228972	0.2382906	0	0	-0.0302683	0.0208127	0	0
3.612779	-0.09231581	0.2382726	-0.00157489	-0.001082905	-0.04752889	-0.0326812	0	0
3.629344	-0.09228972	0.2382547	0.001575116	-0.001083961	0.09507284	-3.185451E-05	0	0
3.645911	-0.09226362	0.2382367	0.001574912	-0.001082921	-6.155913E-06	3.138391E-05	0	0
3.662477	-0.09223753	0.2382188	0.001575003	-0.001082983	2.737034E-06	-1.879735E-06	0	0
3.679044	-0.09221143	0.2382008	0.001575453	-0.001083883	1.357313E-05	-2.714977E-05	0	0
3.695611	-0.09221143	0.2382008	0	0	-0.04754862	0.03271259	0	0
3.712358	-0.09218534	0.2381829	0.001557962	-0.001071266	0.046765	-0.03215595	0	0
3.728744	-0.09218534	0.2381829	0	0	-0.04702143	0.03233226	0	0
3.745388	-0.09215925	0.2381649	0.001567603	-0.00107879	0.04745993	-0.03266089	0	0
3.761894	-0.09210707	0.238129	0.003161608	-0.002173944	0.04808469	-0.03303637	0	0
3.778444	-0.09205488	0.2380932	0.003153092	-0.002168988	-0.0002576556	0.0001499305	0	0
3.79501	-0.0919766	0.2380393	0.004725459	-0.003249849	0.0474801	-0.03263829	0	0
3.811579	-0.0919766	0.2380393	0	0	-0.1426136	0.09807993	0	0
3.828144	-0.0919766	0.2380393	0	0	0	0	0	0
3.844711	-0.0919766	0.2380393	0	0	0	0	0	0
3.861277	-0.0919766	0.2380393	0	0	0	0	0	0
3.877844	-0.09195051	0.2380214	0.001574958	-0.001083851	0.04753437	-0.03271211	0	0
3.89441	-0.09195051	0.2380214	0	0	-0.04753437	0.03271211	0	0
3.910978	-0.09192441	0.2380034	0.001575294	-0.001082874	0.04754281	-0.03268144	0	0
3.927544	-0.09189831	0.2379855	0.001575025	-0.001083898	-8.102066E-06	-3.091153E-05	0	0
3.944111	-0.09187222	0.2379675	0.001575003	-0.001082983	-6.816479E-07	2.762079E-05	0	0
3.960678	-0.09184612	0.2379496	0.001575339	-0.001082905	1.015049E-05	2.35053E-06	0	0
3.977244	-0.09179394	0.2378778	0.003150142	-0.004333918	0.04752969	-0.09812001	0	0
3.993811	-0.09135031	0.2375009	0.02677755	-0.02274943	0.7131126	-0.5558093	0	0
4.010377	-0.0893927	0.2357598	0.1181701	-0.1050994	2.758331	-2.485418	0	0
4.027078	-0.07690068	0.2216401	0.7479916	-0.8454515	18.93244	-22.255	0	0
4.04359	-0.07056684	0.2123228	0.3835811	-0.564266	-10.97188	8.466093	0	0
4.060101	-0.06268094	0.1938905	0.4776162	-1.116367	2.847531	-16.71849	0	0
4.076643	-0.05714823	0.1713587	0.3344555	-1.362058	-4.331194	-7.433152	0	0
4.093625	-0.05161202	0.1375087	0.3260214	-1.993393	-0.2515877	-18.8326	0	0
4.109776	-0.0477794	0.1108255	0.2372859	-1.652016	-2.678157	10.30323	0	0
4.126651	-0.04389284	0.07551717	0.2303174	-2.092369	-0.2109959	-13.33324	0	0
4.14291	-0.04187025	0.05033656	0.1243967	-1.5487	-3.196739	16.4082	0	0
4.159477	-0.03992614	0.02022246	0.1173503	-1.817743	-0.2146602	-8.196042	0	0
4.176183	-0.03890142	0.0007631693	0.06133844	-1.164809	-1.683416	19.62367	0	0
4.19261	-0.03787661	-0.02085551	0.06238525	-1.316042	0.03159416	-4.56442	0	0
4.209177	-0.03700941	-0.03382159	0.05234598	-0.7826563	-0.3042776	16.16626	0	0
4.225745	-0.03661521	-0.04165053	0.02379276	-0.4725288	-0.8617254	9.359533	0	0
4.242311	-0.03651008	-0.05832947	0.006346026	-1.006859	-0.5265585	-16.12657	0	0
4.258876	-0.03651008	-0.06359018	0	-0.3175649	-0.1915427	20.80502	0	0
4.297989	-0.03916417	-0.08219668	-0.06785692	-0.4757106	-1.21872	-2.840319	0	0
4.314782	-0.04184398	-0.08765787	-0.1595809	-0.3252109	-1.640688	2.692022	0	0
4.331124	-0.04557369	-0.09041203	-0.2282259	-0.1685309	-2.07168	4.728545	0	0
4.347804	-0.04827825	-0.09233387	-0.1621509	-0.1152232	2.000973	1.614337	0	0
4.364317	-0.05087711	-0.09425709	-0.1573795	-0.1164645	0.1437464	-0.03739742	0	0
4.380825	-0.05085086	-0.09427652	0.001590031	-0.001177065	4.81413	3.491288	0	0
4.397389	-0.05085086	-0.09427652	0	0	-0.04807787	0.035591	0	0
4.413956	-0.05085086	-0.09427652	0	0	0	0	0	0
4.430524	-0.05085086	-0.09427652	0	0	0	0	0	0
4.447089	-0.05085086	-0.09427652	0	0	0	0	0	0
4.463656	-0.05085086	-0.09427652	0	0	0	0	0	0
4.480398	-0.05085086	-0.09427652	0	0	0	0	0	0
4.49691	-0.05087711	-0.09425709	-0.001589664	0.001176793	-0.04780416	0.03538838	0	0
4.513421	-0.05085086	-0.09423766	0.001589801	0.001176895	0.09628206	3.088201E-06	0	0
4.529923	-0.05085086	-0.09423766	0	0	-0.04815633	-0.03564908	0	0
4.54649	-0.05085086	-0.09423766	0	0	0	0	0	0
4.563056	-0.05085086	-0.09423766	0	0	0	0	0	0
4.59648	-0.05082461	-0.09425709	0.0007853181	-0.0005813539	0.0157093	-0.01162925	0	0
4.612757	-0.05082461	-0.09425709	0	0	-0.01580109	0.0116972	0	0
4.629504	-0.05082461	-0.09425709	0	0	0	0	0	0
4.64589	-0.05082461	-0.09425709	0	0	0	0	0	0
4.662457	-0.05082461	-0.09425709	0	0	0	0	0	0
4.679023	-0.05082461	-0.09425709	0	0	0	0	0	0
4.69559	-0.05082461	-0.09425709	0	0	0	0	0	0
4.712562	-0.05082461	-0.09425709	0	0	0	0	0	0
4.728723	-0.05082461	-0.09425709	0	0	0	0	0	0
4.745595	-0.05082461	-0.09425709	0	0	0	0	0	0
4.79512	-0.05082461	-0.09425709	0	0	0	0	0	0
4.811557	-0.05082461	-0.09425709	0	0	0	0	0	0
4.828125	-0.05085086	-0.09427652	-0.001584356	-0.001172864	-0.04800456	-0.03553673	0	0
4.844692	-0.05085086	-0.09427652	0	0	0.04781597	0.03539712	0	0
4.861257	-0.05082461	-0.09429596	0.001584539	-0.001173449	0.04782423	-0.03541681	0	0
4.87818	-0.05082461	-0.09429596	0	0	-0.0473169	0.0350411	0	0
4.89439	-0.05082461	-0.09429596	0	0	0	0	0	0
4.910958	-0.05082461	-0.09429596	0	0	0	0	0	0
4.927524	-0.05082461	-0.09429596	0	0	0	0	0	0
4.944092	-0.05082461	-0.09429596	0	0	0	0	0	0
4.960657	-0.05082461	-0.09429596	0	0	0	0	0	0
4.977252	-0.05082461	-0.09429596	0	0	0	0	0	0
5.00036	-0.05082461	-0.09429596	0	0	0	0	0	0
5.016928	-0.05082461	-0.09429596	0	0	0	0	0	0
5.033496	-0.05082461	-0.09429596	0	0	0	0	0	0
5.050064	-0.05082461	-0.09429596	0	0	0	0	0	0
5.066629	-0.05082461	-0.09429596	0	0	0	0	0	0
5.083196	-0.05082461	-0.09429596	0	0	0	0	0	0
5.099839	-0.05082461	-0.09429596	0	0	0	0	0	0
5.116329	-0.05082461	-0.09429596	0	0	0	0	0	0
5.132895	-0.05082461	-0.09429596	0	0	0	0	0	0
5.149463	-0.05082461	-0.09429596	0	0	0	0	0	0
5.166028	-0.05082461	-0.09429596	0	0	0	0	0	0
5.182895	-0.05082461	-0.09429596	0	0	0	0	0	0
5.215918	-0.05082461	-0.09429596	0	0	0	0	0	0
5.232295	-0.05082461	-0.09429596	0	0	0	0	0	0
5.248942	-0.05082461	-0.09429596	0	0	0	0	0	0
5.26543	-0.05082461	-0.09429596	0	0	0	0	0	0
5.281996	-0.05082461	-0.09429596	0	0	0	0	0	0
5.298563	-0.05082461	-0.09429596	0	0	0	0	0	0
5.315128	-0.05082461	-0.09429596	0	0	0	0	0	0
5.332003	-0.05082461	-0.09429596	0	0	0	0	0	0
5.348263	-0.05082461	-0.09429596	0	0	0	0	0	0
5.365025	-0.05082461	-0.09429596	0	0	0	0	0	0
5.381536	-0.05082461	-0.09429596	0	0	0	0	0	0
5.398048	-0.05082461	-0.09429596	0	0	0	0	0	0
5.414559	-0.05082461	-0.09429596	0	0	0	0	0	0
5.431096	-0.05082461	-0.09429596	0	0	0	0	0	0
5.447662	-0.05082461	-0.09429596	0	0	0	0	0	0
5.46423	-0.05082461	-0.09429596	0	0	0	0	0	0
5.480795	-0.05082461	-0.09429596	0	0	0	0	0	0
5.497361	-0.05082461	-0.09429596	0	0	0	0	0	0
5.514129	-0.05082461	-0.09429596	0	0	0	0	0	0
5.530495	-0.05082461	-0.09429596	0	0	0	0	0	0
5.547152	-0.05082461	-0.09429596	0	0	0	0	0	0
5.563667	-0.05082461	-0.09429596	0	0	0	0	0	0
5.580195	-0.05082461	-0.09429596	0	0	0	0	0	0
5.596763	-0.05082461	-0.09429596	0	0	0	0	0	0
5.613329	-0.05082461	-0.09429596	0	0	0	0	0	0
5.629896	-0.05082461	-0.09429596	0	0	0	0	0	0
5.646723	-0.05082461	-0.09429596	0	0	0	0	0	0
5.712729	-0.05082461	-0.09429596	0	0	0	0	0	0
5.729296	-0.05082461	-0.09429596	0	0	0	0	0	0
5.745865	-0.05082461	-0.09429596	0	0	0	0	0	0
5.767989	-0.05082461	-0.09429596	0	0	0	0	0	0
5.784821	-0.05082461	-0.09429596	0	0	0	0	0	0
5.825321	-0.05082461	-0.09429596	0	0	0	0	0	0
5.841887	-0.05082461	-0.09429596	0	0	0	0	0	0
5.858455	-0.05082461	-0.09429596	0	0	0	0	0	0
5.875389	-0.05082461	-0.09429596	0	0	0	0	0	0
5.891588	-0.05082461	-0.09429596	0	0	0	0	0	0
5.908408	-0.05082461	-0.09429596	0	0	0	0	0	0
5.92492	-0.05082461	-0.09429596	0	0	0	0	0	0
5.941288	-0.05082461	-0.09429596	0	0	0	0	0	0
5.957944	-0.05082461	-0.09429596	0	0	0	0	0	0
5.974461	-0.05082461	-0.09429596	0	0	0	0	0	0
5.990988	-0.05082461	-0.09429596	0	0	0	0	0	0
6.007555	-0.05082461	-0.09429596	0	0	0	0	0	0
6.024121	-0.05082461	-0.09429596	0	0	0	0	0	0
6.040688	-0.05082461	-0.09429596	0	0	0	0	0	0
6.057255	-0.05082461	-0.09429596	0	0	0	0	0	0
6.073823	-0.05082461	-0.09429596	0	0	0	0	0	0
6.090388	-0.05082461	-0.09429596	0	0	0	0	0	0
6.106955	-0.05082461	-0.09429596	0	0	0	0	0	0
6.12356	-0.05082461	-0.09429596	0	0	0	0	0	0
6.140089	-0.05082461	-0.09429596	0	0	0	0	0	0
6.156655	-0.05082461	-0.09429596	0	0	0	0	0	0
6.173223	-0.05082461	-0.09429596	0	0	0	0	0	0
6.189788	-0.05082461	-0.09429596	0	0	0	0	0	0
6.206355	-0.05082461	-0.09429596	0	0	0	0	0	0
6.222921	-0.05082461	-0.09429596	0	0	0	0	0	0
6.239489	-0.05082461	-0.09429596	0	0	0	0	0	0
6.256154	-0.05082461	-0.09429596	0	0	0	0	0	0
6.272624	-0.05082461	-0.09429596	0	0	0	0	0	0
6.28919	-0.05082461	-0.09429596	0	0	0	0	0	0
6.322321	-0.05082461	-0.09429596	0	0	0	0	0	0
6.338888	-0.05082461	-0.09429596	0	0	0	0	0	0
6.355454	-0.05082461	-0.09429596	0	0	0	0	0	0
6.372022	-0.05082461	-0.09429596	0	0	0	0	0	0
6.38859	-0.05082461	-0.09429596	0	0	0	0	0	0
6.405155	-0.05082461	-0.09429596	0	0	0	0	0	0
6.421721	-0.05082461	-0.09429596	0	0	0	0	0	0
6.438288	-0.05082461	-0.09429596	0	0	0	0	0	0
6.459208	-0.05082461	-0.09429596	0	0	0	0	0	0
6.475808	-0.05082461	-0.09429596	0	0	0	0	0	0
6.492344	-0.05082461	-0.09429596	0	0	0	0	0	0
6.525845	-0.05082461	-0.09429596	0	0	0	0	0	0
6.542358	-0.05082461	-0.09429596	0	0	0	0	0	0
6.558868	-0.05082461	-0.09429596	0	0	0	0	0	0
6.575175	-0.05082461	-0.09429596	0	0	0	0	0	0
6.591743	-0.05082461	-0.09429596	0	0	0	0	0	0
6.608402	-0.05082461	-0.09429596	0	0	0	0	0	0
6.624914	-0.05082461	-0.09429596	0	0	0	0	0	0
6.641442	-0.05082461	-0.09429596	0	0	0	0	0	0
6.658439	-0.05082461	-0.09429596	0	0	0	0	0	0
6.674576	-0.05082461	-0.09429596	0	0	0	0	0	0
6.691464	-0.05082461	-0.09429596	0	0	0	0	0	0
6.707709	-0.05082461	-0.09429596	0	0	0	0	0	0
6.724526	-0.05082461	-0.09429596	0	0	0	0	0	0
6.741001	-0.05082461	-0.09429596	0	0	0	0	0	0
6.757517	-0.05082461	-0.09429596	0	0	0	0	0	0
6.790543	-0.05082461	-0.09429596	0	0	0	0	0	0
6.807108	-0.05082461	-0.09429596	0	0	0	0	0	0
6.823674	-0.05082461	-0.09429596	0	0	0	0	0	0
6.840241	-0.05082461	-0.09429596	0	0	0	0	0	0
6.856808	-0.05082461	-0.09429596	0	0	0	0	0	0
6.873375	-0.05082461	-0.09429596	0	0	0	0	0	0
6.889943	-0.05082461	-0.09429596	0	0	0	0	0	0
6.906508	-0.05082461	-0.09429596	0	0	0	0	0	0
6.923125	-0.05082461	-0.09429596	0	0	0	0	0	0
6.940136	-0.05082461	-0.09429596	0	0	0	0	0	0
6.956208	-0.05082461	-0.09429596	0	0	0	0	0	0
6.97316	-0.05082461	-0.09429596	0	0	0	0	0	0
6.989342	-0.05082461	-0.09429596	0	0	0	0	0	0
7.00591	-0.05082461	-0.09429596	0	0	0	0	0	0
7.022698	-0.05082461	-0.09429596	0	0	0	0	0	0
7.039041	-0.05082461	-0.09429596	0	0	0	0	0	0
7.055718	-0.05082461	-0.09429596	0	0	0	0	0	0
7.072174	-0.05082461	-0.09429596	0	0	0	0	0	0
7.089242	-0.05082461	-0.09429596	0	0	0	0	0	0
7.105309	-0.05082461	-0.09429596	0	0	0	0	0	0
7.121874	-0.05082461	-0.09429596	0	0	0	0	0	0
7.20483	-0.05079836	-0.09431539	0.0003164159	-0.0002342358	0.003179399	-0.002353639	0	0
7.221275	-0.05079836	-0.09431539	0	0	-0.003183242	0.002356485	0	0
7.238351	-0.05079836	-0.09431539	0	0	0	0	0	0
7.254858	-0.05079836	-0.09431539	0	0	0	0	0	0
7.270977	-0.05079836	-0.09431539	0	0	0	0	0	0
7.294282	-0.05082461	-0.09433482	-0.001126279	-0.0008337596	-0.02856839	-0.02114856	0	0
7.310851	-0.05082461	-0.09433482	0	0	0.02824589	0.02090982	0	0
7.327416	-0.05082461	-0.09433482	0	0	0	0	0	0
7.343982	-0.05082461	-0.09433482	0	0	0	0	0	0
7.360549	-0.05082461	-0.09433482	0	0	0	0	0	0
7.377116	-0.05082461	-0.09433482	0	0	0	0	0	0
7.393957	-0.05082461	-0.09433482	0	0	0	0	0	0
7.41025	-0.05082461	-0.09433482	0	0	0	0	0	0
7.426816	-0.05082461	-0.09433482	0	0	0	0	0	0
7.443383	-0.05082461	-0.09433482	0	0	0	0	0	0
7.459949	-0.05082461	-0.09433482	0	0	0	0	0	0
7.476515	-0.05082461	-0.09433482	0	0	0	0	0	0
7.493527	-0.05082461	-0.09433482	0	0	0	0	0	0
7.509649	-0.05082461	-0.09433482	0	0	0	0	0	0
7.526216	-0.05082461	-0.09433482	0	0	0	0	0	0
7.542782	-0.05082461	-0.09433482	0	0	0	0	0	0
7.55935	-0.05082461	-0.09433482	0	0	0	0	0	0
7.575916	-0.05082461	-0.09433482	0	0	0	0	0	0
7.592597	-0.05082461	-0.09433482	0	0	0	0	0	0
7.609111	-0.05082461	-0.09433482	0	0	0	0	0	0
7.625621	-0.05082461	-0.09433482	0	0	0	0	0	0
7.642183	-0.05082461	-0.09433482	0	0	0	0	0	0
7.65875	-0.05082461	-0.09433482	0	0	0	0	0	0
7.675316	-0.05085086	-0.09435426	-0.001584447	-0.001173382	-0.04782078	-0.03541426	0	0
7.691882	-0.05085086	-0.09435426	0	0	0.04782216	0.03541528	0	0
7.708683	-0.05085086	-0.09435426	0	0	0	0	0	0
7.725048	-0.05087711	-0.09437369	-0.001603883	-0.00118732	-0.04835866	-0.03579886	0	0
7.741582	-0.05090336	-0.09439313	-0.001587509	-0.001175649	0.0004976972	0.0003547392	0	0
7.75822	-0.05108709	-0.09452917	-0.011043	-0.00817657	-0.2850433	-0.2110483	0	0
7.774725	-0.05221565	-0.09536503	-0.06837597	-0.05064199	-1.729864	-1.281277	0	0
7.791282	-0.05552182	-0.09781581	-0.1996874	-0.1480235	-3.971675	-2.945423	0	0
7.80785	-0.05796132	-0.09966514	-0.1472442	-0.1116226	1.583218	1.098913	0	0
7.824762	-0.05798755	-0.09964567	-0.001550737	0.001151599	4.351697	3.368437	0	0
7.840981	-0.05798755	-0.09964567	0	0	0.04680539	-0.03475832	0	0
7.857783	-0.05796132	-0.09966514	0.001560948	-0.001159181	0.04727141	-0.03510439	0	0
7.874115	-0.05798755	-0.09964567	-0.001605793	0.001192483	-0.09557517	0.07097542	0	0
7.890682	-0.05798755	-0.09964567	0	0	0.04880991	-0.03624691	0	0
7.907248	-0.05798755	-0.09964567	0	0	0	0	0	0
7.923833	-0.05798755	-0.09964567	0	0	0	0	0	0
7.940382	-0.05798755	-0.09964567	0	0	0	0	0	0
7.956949	-0.05798755	-0.09964567	0	0	0	0	0	0
7.973515	-0.05798755	-0.09964567	0	0	0	0	0	0
7.990377	-0.05798755	-0.09964567	0	0	0	0	0	0
8.006889	-0.05798755	-0.09964567	0	0	0	0	0	0
8.023216	-0.05796132	-0.09962619	0.001606308	0.001192866	0.04891421	0.03632436	0	0
8.061668	-0.05796132	-0.09958725	0	0.001012796	-0.02932341	-0.003287213	0	0
8.078236	-0.05796132	-0.09958725	0	0	0	-0.01840799	0	0
8.09495	-0.05796132	-0.09958725	0	0	0	0	0	0
8.11137	-0.05796132	-0.09958725	0	0	0	0	0	0
8.127935	-0.05796132	-0.09958725	0	0	0	0	0	0
8.144502	-0.05796132	-0.09958725	0	0	0	0	0	0
8.161068	-0.05796132	-0.0995483	0	0.002350811	0	0.0709517	0	0
8.178008	-0.05796132	-0.09950936	0	0.002298933	0	-0.001548313	0	0
8.194201	-0.05688593	-0.09610391	0.06640947	0.2102984	2.004299	6.277617	0	0
8.210769	-0.05549559	-0.09103308	0.08392096	0.3060762	0.5345288	2.923565	0	0
8.227335	-0.05318663	-0.08583625	0.139377	0.3136995	1.673714	0.230076	0	0
8.244055	-0.04743807	-0.07063252	0.3438175	0.9093234	6.14192	17.89408	0	0
8.260468	-0.04181771	-0.05579855	0.3424385	0.9038091	-0.04161929	-0.1664304	0	0
8.293601	-0.01734037	-0.01451541	0.738749	1.245963	7.9988	6.905753	0	0
8.310169	-0.0009210524	0.003171107	0.9910148	1.067499	5.075598	-3.590704	0	0
8.326735	0.02015517	0.01793881	1.272236	0.8914317	8.487278	-5.313725	0	0
8.343625	0.03382919	0.0275128	0.8096136	0.5668582	-13.82785	-9.70155	0	0
8.359867	0.07137853	0.05406538	2.311863	1.634807	45.34188	32.23354	0	0
8.376648	0.0828886	0.06221567	0.6859047	0.4856897	-49.23732	-34.79761	0	0
8.393001	0.1044084	0.07745342	1.315984	0.9318212	19.01637	13.46466	0	0
8.409672	0.1183392	0.0871767	0.8356211	0.583239	-14.54594	-10.55547	0	0
8.426136	0.1302065	0.09548331	0.7207927	0.5045244	-3.465427	-2.375543	0	0
8.442702	0.1430684	0.1043611	0.7763919	0.5358977	1.683267	0.9498268	0	0
8.459268	0.1457228	0.106175	0.1602386	0.1094955	-18.59715	-12.86995	0	0
8.475834	0.1583987	0.1149046	0.7651582	0.5269549	18.25809	12.60004	0	0
8.4924	0.1613739	0.1170618	0.1795971	0.1302116	-17.67329	-11.97443	0	0
8.508967	0.1629886	0.1182496	0.09746197	0.07169808	-2.478914	-1.765993	0	0
8.525535	0.1631679	0.1184141	0.01082561	0.009926175	-2.614691	-1.86428	0	0
8.5421	0.1631679	0.1184141	0	0	-0.3267364	-0.2995898	0	0
8.558666	0.1631679	0.1184141	0	0	0	0	0	0
8.575288	0.1631679	0.1184141	0	0	0	0	0	0
8.5918	0.1631679	0.1184141	0	0	0	0	0	0
8.608366	0.1631679	0.1184141	0	0	0	0	0	0
8.624934	0.1631679	0.1184141	0	0	0	0	0	0
8.6415	0.1631679	0.1184141	0	0	0	0	0	0
8.658066	0.1631423	0.1184323	-0.001546219	0.001102772	-0.04666902	0.03328459	0	0
8.674632	0.1631423	0.1184323	0	0	0.04666768	-0.03328364	0	0
8.691367	0.1631423	0.1184323	0	0	0	0	0	0
8.707767	0.1631423	0.1184323	0	0	0	0	0	0
8.724392	0.1631167	0.1184141	-0.001541617	-0.00109885	-0.04668059	-0.03327349	0	0
8.763109	0.1631167	0.1184141	0	0	0.02785584	0.01985538	0	0
8.779931	0.1631167	0.1184141	0	0	0	0	0	0
8.79624	0.1631167	0.1184141	0	0	0	0	0	0
8.812806	0.1631167	0.1184141	0	0	0	0	0	0
8.829469	0.1631167	0.1184141	0	0	0	0	0	0
8.84594	0.1630142	0.1184871	-0.006222497	0.00443708	-0.1878008	0.1339152	0	0
8.862506	0.1628348	0.118615	-0.01082713	0.007720302	-0.1393773	0.0993796	0	0
8.879072	0.1623223	0.119017	-0.03093788	0.02426278	-0.6069784	0.4992817	0	0
8.895638	0.1618353	0.1193641	-0.02939526	0.02095267	0.04655911	-0.09990519	0	0
8.912205	0.1554463	0.1239473	-0.3856679	0.2766595	-10.75295	7.71769	0	0
8.929035	0.1496877	0.1282528	-0.3421519	0.2558186	1.303002	-0.624038	0	0
8.945338	0.1326894	0.1413848	-1.042642	0.8054886	-21.14145	16.58955	0	0
8.961907	0.1258834	0.1469304	-0.4107628	0.3346928	19.2223	-14.32201	0	0
8.978473	0.1127046	0.1570257	-0.7955702	0.609429	-11.61351	8.291553	0	0
8.995039	0.1038357	0.1632088	-0.5353548	0.3732307	7.853994	-7.129095	0	0
9.011605	0.09667141	0.1681906	-0.4324642	0.3007185	3.105423	-2.188548	0	0
9.028172	0.09035854	0.1726075	-0.3810456	0.2666036	1.551863	-1.02962	0	0
9.044739	0.0878	0.1743806	-0.1544425	0.1070327	6.839091	-4.815997	0	0
9.061307	0.08785223	0.1743444	0.003152341	-0.002183705	4.756221	-3.296159	0	0
9.078139	0.08785223	0.1743444	0	0	-0.09437996	0.06537933	0	0
9.094439	0.08785223	0.1743444	0	0	0	0	0	0
9.111005	0.08787835	0.1743263	0.001576352	-0.001091978	0.0479637	-0.03322564	0	0
9.127572	0.08787835	0.1743263	0	0	-0.04757577	0.03295691	0	0
9.193838	0.08806113	0.1741635	0.002758352	-0.002456915	0.03330004	-0.02966096	0	0
9.210732	0.0882178	0.174055	0.009273567	-0.006425522	0.07834517	-0.04772232	0	0
9.226972	0.08824392	0.1740369	0.001608105	-0.001113974	-0.2313508	0.1603075	0	0
9.243538	0.08824392	0.1740369	0	0	-0.04901946	0.03395699	0	0
9.260266	0.08824392	0.1740369	0	0	0	0	0	0
9.27678	0.08824392	0.1740369	0	0	0	0	0	0
9.293239	0.08832225	0.1739826	0.004759568	-0.003298289	0.1443503	-0.100032	0	0
9.309805	0.08855724	0.1738198	0.01418492	-0.009828702	0.2854023	-0.1977428	0	0
9.326371	0.08918385	0.1733855	0.03782436	-0.02621197	0.7134807	-0.4944765	0	0
9.342938	0.08954933	0.1731322	0.02206046	-0.01528951	-0.4757689	0.32965	0	0
9.359504	0.08957544	0.1731141	0.001575993	-0.00109294	-0.6182581	0.428478	0	0
9.376349	0.08960155	0.173096	0.001549762	-0.001073865	-0.0007850981	0.0005709367	0	0
9.392637	0.08962765	0.1730779	0.001602846	-0.001110648	0.001602106	-0.001110136	0	0
9.409204	0.08967986	0.1730417	0.003151355	-0.002184856	0.04713294	-0.03269633	0	0
9.425889	0.08973207	0.1730056	0.003129287	-0.002168353	-0.0006636757	0.0004962986	0	0
9.442336	0.08978428	0.1729694	0.003174196	-0.002200691	0.001355451	-0.0009760425	0	0
9.458904	0.08981039	0.1729513	0.001575721	-0.001091852	-0.04841627	0.03358566	0	0
9.475471	0.08981039	0.1729513	0	0	-0.04755535	0.03295217	0	0
9.492036	0.08981039	0.1729513	0	0	0	0	0	0
9.508602	0.08981039	0.1729513	0	0	0	0	0	0
9.525168	0.08981039	0.1729513	0	0	0	0	0	0
9.541735	0.08981039	0.1729513	0	0	0	0	0	0
9.558303	0.08981039	0.1729513	0	0	0	0	0	0
9.578766	0.08981039	0.1729513	0	0	0	0	0	0
9.595333	0.08981039	0.1729513	0	0	0	0	0	0
9.612015	0.08981039	0.1729513	0	0	0	0	0	0
9.628467	0.08978428	0.1729332	-0.001586865	-0.00110048	-0.04789305	-0.0332135	0	0
9.645037	0.08978428	0.1729332	0	0	0.04805487	0.03332572	0	0
9.661601	0.08978428	0.1729332	0	0	0	0	0	0
9.678168	0.08978428	0.1729332	0	0	0	0	0	0
9.694735	0.08978428	0.1729332	0	0	0	0	0	0
9.711585	0.08975817	0.1729151	-0.001549324	-0.001073561	-0.04636369	-0.03212644	0	0
9.727868	0.08975817	0.1729151	0	0	0.04676003	0.03240107	0	0
9.77391	0.08973207	0.172897	-0.0005668667	-0.0003929067	-0.009095403	-0.006304207	0	0
9.790477	0.08973207	0.172897	0	0	0.009054117	0.006275591	0	0
9.807045	0.08973207	0.172897	0	0	0	0	0	0
9.823667	0.08973207	0.172897	0	0	0	0	0	0
9.840178	0.08970597	0.1729151	-0.001581182	0.001095636	-0.04772291	0.03306827	0	0
9.85719	0.08970597	0.1729151	0	0	0.04716628	-0.03268258	0	0
9.873311	0.08967986	0.172897	-0.001619439	-0.001122146	-0.04887618	-0.0338674	0	0
9.939577	0.08887056	0.1722998	-0.01221296	-0.009011612	-0.1285824	-0.09576109	0	0
9.956143	0.08463941	0.1692951	-0.2554073	-0.1813772	-2.935983	-2.080897	0	0
9.972772	0.07841781	0.1645497	-0.3741581	-0.2853776	-3.57742	-3.133057	0	0
9.989284	0.07284456	0.1604716	-0.3375285	-0.2469804	1.105291	1.15863	0	0
10.00584	0.05895791	0.1500916	-0.8385864	-0.6268276	-15.15074	-11.48563	0	0
10.02241	0.04536359	0.1355787	-0.8206017	-0.8760533	0.5429214	-7.523595	0	0
10.03898	0.04121349	0.1257721	-0.2505152	-0.5919573	17.20623	8.574526	0	0
10.05583	0.03685173	0.10218	-0.2588363	-1.400011	-0.2490021	-24.18041	0	0
10.07211	0.03285659	0.07691874	-0.2453847	-1.551564	0.4059936	-4.574147	0	0
10.08885	0.03017505	0.06473149	-0.1601344	-0.7277892	2.581252	24.9427	0	0
10.10536	0.01923447	0.03737805	-0.6627783	-1.657066	-15.11587	-27.9459	0	0
10.12181	0.01257828	0.02822235	-0.4047034	-0.5566769	7.831314	33.39146	0	0
10.13837	-0.004736807	0.01501656	-1.045201	-0.7971488	-19.40118	-7.284084	0	0
10.15494	-0.01668266	0.006573142	-0.7210532	-0.5096459	9.783086	8.677104	0	0
10.17151	-0.02725641	-0.0009874364	-0.6382692	-0.4563837	2.498498	1.607503	0	0
10.18807	-0.03892769	-0.009357973	-0.7045208	-0.5052757	-1.99959	-1.475646	0	0
10.20493	-0.04583629	-0.01432635	-0.4098321	-0.2947342	8.816832	6.299218	0	0
10.22121	-0.05161202	-0.01848832	-0.3548537	-0.2557065	1.659297	1.177892	0	0
10.23777	-0.05119208	-0.01822331	0.02534936	0.01599716	11.57651	8.272896	0	0
10.25447	-0.05108709	-0.0181476	0.006289547	0.004535941	-0.5730821	-0.3446109	0	0
10.27098	-0.05108709	-0.0181476	0	0	-0.1894046	-0.1365962	0	0
10.28749	-0.05108709	-0.0181476	0	0	0	0	0	0
10.30404	-0.05106084	-0.01816652	0.001585817	-0.001143562	0.04796774	-0.03459042	0	0
10.32061	-0.0510346	-0.01818545	0.001584223	-0.001142574	-4.813635E-05	2.981543E-05	0	0
10.33717	-0.05095585	-0.01824224	0.004753069	-0.003427638	0.09563873	-0.06896534	0	0
10.35374	-0.05092961	-0.01829903	0.001584131	-0.00342775	-0.09563873	-3.393965E-06	0	0
10.37031	-0.05090336	-0.01831795	0.001584083	-0.001142311	-1.468483E-06	0.06896874	0	0
10.38687	-0.05090336	-0.01831795	0	0	-0.04781047	0.034477	0	0
10.42801	-0.05087711	-0.01833688	0.0006380175	-0.0004601314	0.01105692	-0.007974131	0	0
10.4446	-0.05087711	-0.01833688	0	0	-0.01105253	0.007970969	0	0
10.46161	-0.05085086	-0.01835581	0.001542967	-0.001112771	0.04592574	-0.03312115	0	0
10.47772	-0.05085086	-0.01835581	0	0	-0.04659096	0.0336009	0	0
10.49428	-0.05082461	-0.01837474	0.001584539	-0.00114264	0.04849989	-0.03497417	0	0
10.51085	-0.05079836	-0.01839367	0.001584447	-0.001142687	-2.75476E-06	-1.40549E-06	0	0
10.52742	-0.05077212	-0.0184126	0.001584223	-0.001142687	-6.784807E-06	0	0	0
10.54398	-0.05077212	-0.0184126	0	0	-0.04781331	0.03448734	0	0
10.56068	-0.05077212	-0.0184126	0	0	0	0	0	0
10.57712	-0.05077212	-0.0184126	0	0	0	0	0	0
10.59368	-0.05077212	-0.0184126	0	0	0	0	0	0
10.61025	-0.05077212	-0.0184126	0	0	0	0	0	0
10.62682	-0.05077212	-0.0184126	0	0	0	0	0	0
10.65995	-0.05077212	-0.0184126	0	0	0	0	0	0
10.67652	-0.05077212	-0.0184126	0	0	0	0	0	0
10.69308	-0.05077212	-0.0184126	0	0	0	0	0	0
10.70965	-0.05077212	-0.0184126	0	0	0	0	0	0
10.7263	-0.05077212	-0.0184126	0	0	0	0	0	0
10.74282	-0.05077212	-0.0184126	0	0	0	0	0	0
10.75935	-0.05077212	-0.0184126	0	0	0	0	0	0
10.77592	-0.05077212	-0.0184126	0	0	0	0	0	0
10.79248	-0.05077212	-0.0184126	0	0	0	0	0	0
10.80936	-0.05077212	-0.0184126	0	0	0	0	0	0
10.82562	-0.05077212	-0.0184126	0	0	0	0	0	0
10.84218	-0.05077212	-0.0184126	0	0	0	0	0	0
10.85889	-0.05074587	-0.01843153	0.001570883	-0.001132904	0.04720689	-0.0340451	0	0
10.8754	-0.05074587	-0.01843153	0	0	-0.04728549	0.03410179	0	0
10.89188	-0.05071962	-0.01845046	0.001592976	-0.001148837	0.04828736	-0.03482433	0	0
10.97471	-0.05056213	-0.01856405	0.001901337	-0.001371269	0.003105067	-0.002239794	0	0
10.99148	-0.05056213	-0.01856405	0	0	-0.01908958	0.01376765	0	0
11.00785	-0.05056213	-0.01856405	0	0	0	0	0	0
11.02451	-0.05056213	-0.01856405	0	0	0	0	0	0
11.04102	-0.05056213	-0.01856405	0	0	0	0	0	0
11.05755	-0.05056213	-0.01856405	0	0	0	0	0	0
11.07411	-0.05056213	-0.01856405	0	0	0	0	0	0
11.09068	-0.05056213	-0.01856405	0	0	0	0	0	0
11.10757	-0.05056213	-0.01856405	0	0	0	0	0	0
11.12381	-0.05056213	-0.01856405	0	0	0	0	0	0
11.14038	-0.05056213	-0.01856405	0	0	0	0	0	0
11.15695	-0.05056213	-0.01856405	0	0	0	0	0	0
11.17351	-0.05056213	-0.01856405	0	0	0	0	0	0
11.19013	-0.05056213	-0.01856405	0	0	0	0	0	0
11.20665	-0.05056213	-0.01856405	0	0	0	0	0	0
11.22321	-0.05056213	-0.01856405	0	0	0	0	0	0
11.24523	-0.05053588	-0.01858298	0.001192213	-0.0008598116	0.0308986	-0.02228374	0	0
11.26218	-0.05053588	-0.01858298	0	0	-0.03059985	0.02206829	0	0
11.27837	-0.05053588	-0.01858298	0	0	0	0	0	0
11.29493	-0.05050964	-0.01860191	0.001584447	-0.001142799	0.04837002	-0.03488738	0	0
11.31171	-0.05050964	-0.01860191	0	0	-0.04752055	0.03427469	0	0
11.32807	-0.05048339	-0.01862084	0.001604678	-0.001157277	0.04843067	-0.03492768	0	0
11.34473	-0.05045713	-0.01863977	0.001575241	-0.001135998	-0.0008913985	0.0006443671	0	0
11.36124	-0.05045713	-0.01863977	0	0	-0.04747939	0.03424013	0	0
11.37776	-0.05043089	-0.0186587	0.001588838	-0.001145966	0.04809935	-0.03469215	0	0
11.39433	-0.05043089	-0.0186587	0	0	-0.04801894	0.03463416	0	0
11.41128	-0.05040464	-0.01867763	0.001548697	-0.001116903	0.04620778	-0.03332455	0	0
11.42746	-0.05040464	-0.01867763	0	0	-0.0467411	0.03370918	0	0
11.44403	-0.05040464	-0.01867763	0	0	0	0	0	0
11.4606	-0.05037839	-0.01869657	0.001584356	-0.001142733	0.04781735	-0.03448875	0	0
11.47716	-0.05040464	-0.0187155	-0.001584447	-0.001142799	-0.09563743	-1.98514E-06	0	0
11.51035	-0.05040464	-0.0187155	0	0	0.03184798	0.02297068	0	0
11.52686	-0.05037839	-0.01873443	0.001589297	-0.001146297	0.03197794	-0.02306442	0	0
11.54343	-0.05037839	-0.01873443	0	0	-0.04803973	0.03464915	0	0
11.56	-0.05037839	-0.01873443	0	0	0	0	0	0
11.57656	-0.05037839	-0.01873443	0	0	0	0	0	0
11.59313	-0.05037839	-0.01873443	0	0	0	0	0	0
11.60992	-0.05037839	-0.01873443	0	0	0	0	0	0
11.62643	-0.05037839	-0.01873443	0	0	0	0	0	0
11.64294	-0.05037839	-0.01873443	0	0	0	0	0	0
11.6594	-0.05037839	-0.01873443	0	0	0	0	0	0
11.67596	-0.05035214	-0.01875336	0.001584265	-0.001142667	0.04797477	-0.0346023	0	0
11.69253	-0.05035214	-0.01875336	0	0	-0.04781322	0.03448577	0	0
11.7091	-0.05035214	-0.01875336	0	0	0	0	0	0
11.72566	-0.05035214	-0.01875336	0	0	0	0	0	0
11.74252	-0.05035214	-0.01875336	0	0	0	0	0	0
11.7588	-0.05035214	-0.01875336	0	0	0	0	0	0
11.77536	-0.05032589	-0.01877229	0.001584539	-0.001142865	0.04824079	-0.03479416	0	0
11.79205	-0.05032589	-0.01877229	0	0	-0.04765277	0.03437005	0	0
11.80856	-0.05032589	-0.01877229	0	0	0	0	0	0
11.82507	-0.05032589	-0.01877229	0	0	0	0	0	0
11.84802	-0.05032589	-0.01877229	0	0	0	0	0	0
11.86458	-0.05032589	-0.01877229	0	0	0	0	0	0
11.88115	-0.05032589	-0.01877229	0	0	0	0	0	0
11.89772	-0.05032589	-0.01877229	0	0	0	0	0	0
11.91965	-0.05032589	-0.01877229	0	0	0	0	0	0
11.93621	-0.05032589	-0.01877229	0	0	0	0	0	0
11.95278	-0.05032589	-0.01877229	0	0	0	0	0	0
11.96935	-0.05032589	-0.01877229	0	0	0	0	0	0
11.98591	-0.05032589	-0.01877229	0	0	0	0	0	0
12.00248	-0.05032589	-0.01877229	0	0	0	0	0	0
12.01905	-0.05032589	-0.01877229	0	0	0	0	0	0
12.03572	-0.05032589	-0.01877229	0	0	0	0	0	0
12.05225	-0.05032589	-0.01877229	0	0	0	0	0	0
12.06875	-0.05032589	-0.01877229	0	0	0	0	0	0
12.08531	-0.05032589	-0.01877229	0	0	0	0	0	0
12.10227	-0.05032589	-0.01877229	0	0	0	0	0	0
12.11845	-0.05032589	-0.01877229	0	0	0	0	0	0
12.13501	-0.05032589	-0.01877229	0	0	0	0	0	0
12.15181	-0.05032589	-0.01877229	0	0	0	0	0	0
12.16831	-0.05032589	-0.01877229	0	0	0	0	0	0
12.18471	-0.05032589	-0.01877229	0	0	0	0	0	0
12.20134	-0.05029964	-0.01879122	0.001579127	-0.0011388	0.0478178	-0.03448419	0	0
12.21785	-0.05029964	-0.01879122	0	0	-0.04765541	0.03436708	0	0
12.23441	-0.05029964	-0.01879122	0	0	0	0	0	0
12.25098	-0.05029964	-0.01879122	0	0	0	0	0	0
12.26789	-0.05029964	-0.01879122	0	0	0	0	0	0
12.28411	-0.05029964	-0.01879122	0	0	0	0	0	0
12.30091	-0.05029964	-0.01879122	0	0	0	0	0	0
12.31742	-0.05029964	-0.01879122	0	0	0	0	0	0
12.33393	-0.05029964	-0.01879122	0	0	0	0	0	0
12.35044	-0.05032589	-0.01881016	-0.001590073	-0.001146807	-0.04815482	-0.03473065	0	0
12.36695	-0.05032589	-0.01881016	0	0	0.04816316	0.03473667	0	0
12.38351	-0.05032589	-0.01881016	0	0	0	0	0	0
12.40008	-0.05032589	-0.01881016	0	0	0	0	0	0
12.41666	-0.05029964	-0.01882909	0.00158285	-0.001141485	0.0477444	-0.03443125	0	0
12.43321	-0.05029964	-0.01882909	0	0	-0.04777188	0.03445107	0	0
12.44978	-0.05029964	-0.01882909	0	0	0	0	0	0
12.46635	-0.05029964	-0.01882909	0	0	0	0	0	0
12.48303	-0.05029964	-0.01882909	0	0	0	0	0	0
12.49955	-0.05029964	-0.01882909	0	0	0	0	0	0
12.51606	-0.05029964	-0.01882909	0	0	0	0	0	0
12.53261	-0.05029964	-0.01882909	0	0	0	0	0	0
12.54918	-0.05029964	-0.01882909	0	0	0	0	0	0
12.56575	-0.05029964	-0.01882909	0	0	0	0	0	0
12.58261	-0.05029964	-0.01882909	0	0	0	0	0	0
12.59912	-0.05029964	-0.01882909	0	0	0	0	0	0
12.61545	-0.05029964	-0.01882909	0	0	0	0	0	0
12.63654	-0.05029964	-0.01882909	0	0	0	0	0	0
12.65315	-0.05029964	-0.01882909	0	0	0	0	0	0
12.66968	-0.05027339	-0.01884802	0.001588563	-0.001145767	0.04794154	-0.03457833	0	0
12.68624	-0.05027339	-0.01884802	0	0	-0.04800648	0.03462517	0	0
12.70319	-0.05027339	-0.01884802	0	0	0	0	0	0
12.71938	-0.05027339	-0.01884802	0	0	0	0	0	0
12.73621	-0.05027339	-0.01884802	0	0	0	0	0	0
12.75251	-0.05027339	-0.01884802	0	0	0	0	0	0
12.76908	-0.05027339	-0.01884802	0	0	0	0	0	0
12.78564	-0.05027339	-0.01884802	0	0	0	0	0	0
12.80221	-0.05027339	-0.01884802	0	0	0	0	0	0
12.81878	-0.05027339	-0.01884802	0	0	0	0	0	0
12.83534	-0.05027339	-0.01884802	0	0	0	0	0	0
12.85191	-0.05027339	-0.01884802	0	0	0	0	0	0
12.86847	-0.05027339	-0.01884802	0	0	0	0	0	0
12.88504	-0.05027339	-0.01884802	0	0	0	0	0	0
12.90161	-0.05027339	-0.01884802	0	0	0	0	0	0
12.91817	-0.05027339	-0.01884802	0	0	0	0	0	0
12.93474	-0.05027339	-0.01884802	0	0	0	0	0	0
12.95186	-0.05027339	-0.01884802	0	0	0	0	0	0
12.96788	-0.05024714	-0.01886695	0.001638983	-0.001182133	0.04945748	-0.03567172	0	0
12.98444	-0.05024714	-0.01886695	0	0	-0.05031172	0.03628784	0	0
13.00101	-0.05024714	-0.01886695	0	0	0	0	0	0
13.01757	-0.05024714	-0.01886695	0	0	0	0	0	0
13.03414	-0.05024714	-0.01886695	0	0	0	0	0	0
13.05071	-0.05024714	-0.01886695	0	0	0	0	0	0
13.06727	-0.05024714	-0.01886695	0	0	0	0	0	0
13.08385	-0.05024714	-0.01886695	0	0	0	0	0	0
13.10041	-0.05024714	-0.01886695	0	0	0	0	0	0
13.11697	-0.05024714	-0.01886695	0	0	0	0	0	0
13.13354	-0.05024714	-0.01886695	0	0	0	0	0	0
13.15011	-0.05024714	-0.01886695	0	0	0	0	0	0
13.16667	-0.05024714	-0.01886695	0	0	0	0	0	0
13.18324	-0.05024714	-0.01886695	0	0	0	0	0	0
13.19981	-0.05024714	-0.01886695	0	0	0	0	0	0
13.21638	-0.05024714	-0.01886695	0	0	0	0	0	0
13.23294	-0.05024714	-0.01886695	0	0	0	0	0	0
13.24957	-0.0502209	-0.01888589	0.001578088	-0.001138324	0.04754469	-0.03429547	0	0
13.26607	-0.0502209	-0.01888589	0	0	-0.04762817	0.03435569	0	0
13.2831	-0.0502209	-0.01888589	0	0	0	0	0	0
13.29921	-0.0502209	-0.01888589	0	0	0	0	0	0
13.31612	-0.0502209	-0.01888589	0	0	0	0	0	0
13.33234	-0.0502209	-0.01888589	0	0	0	0	0	0
13.34914	-0.0502209	-0.01888589	0	0	0	0	0	0
13.36566	-0.0502209	-0.01888589	0	0	0	0	0	0
13.3874	-0.0502209	-0.01888589	0	0	0	0	0	0
13.40418	-0.0502209	-0.01888589	0	0	0	0	0	0
13.4207	-0.0502209	-0.01888589	0	0	0	0	0	0
13.43721	-0.0502209	-0.01888589	0	0	0	0	0	0
13.45366	-0.0502209	-0.01888589	0	0	0	0	0	0
13.47023	-0.0502209	-0.01888589	0	0	0	0	0	0
13.4868	-0.0502209	-0.01888589	0	0	0	0	0	0
13.50336	-0.05019464	-0.01890482	0.001584581	-0.001142733	0.0478255	-0.03448974	0	0
13.51993	-0.05019464	-0.01890482	0	0	-0.04782413	0.03448875	0	0
13.5365	-0.05019464	-0.01890482	0	0	0	0	0	0
13.55306	-0.05019464	-0.01890482	0	0	0	0	0	0
13.5698	-0.05019464	-0.01890482	0	0	0	0	0	0
13.58631	-0.05019464	-0.01890482	0	0	0	0	0	0
13.66903	-0.0502209	-0.01892375	-0.000317373	-0.0002288985	-0.003198332	-0.00230673	0	0
13.6856	-0.0502209	-0.01892375	0	0	0.003196612	0.002305489	0	0
13.70217	-0.0502209	-0.01892375	0	0	0	0	0	0
13.71873	-0.0502209	-0.01892375	0	0	0	0	0	0
13.7353	-0.0502209	-0.01892375	0	0	0	0	0	0
13.75187	-0.0502209	-0.01892375	0	0	0	0	0	0
13.76843	-0.0502209	-0.01892375	0	0	0	0	0	0
13.785	-0.0502209	-0.01892375	0	0	0	0	0	0
13.80157	-0.0502209	-0.01892375	0	0	0	0	0	0
13.81848	-0.0502209	-0.01892375	0	0	0	0	0	0
13.8347	-0.0502209	-0.01892375	0	0	0	0	0	0
13.85127	-0.0502209	-0.01892375	0	0	0	0	0	0
13.86783	-0.0502209	-0.01892375	0	0	0	0	0	0
13.88453	-0.0502209	-0.01892375	0	0	0	0	0	0
13.90097	-0.0502209	-0.01892375	0	0	0	0	0	0
13.91755	-0.0502209	-0.01892375	0	0	0	0	0	0
13.9341	-0.0502209	-0.01892375	0	0	0	0	0	0
13.95067	-0.0502209	-0.01892375	0	0	0	0	0	0
13.96723	-0.0502209	-0.01892375	0	0	0	0	0	0
13.9838	-0.0502209	-0.01892375	0	0	0	0	0	0
14.00036	-0.0502209	-0.01892375	0	0	0	0	0	0
14.01693	-0.0502209	-0.01892375	0	0	0	0	0	0
14.0335	-0.0502209	-0.01892375	0	0	0	0	0	0
14.05006	-0.0502209	-0.01892375	0	0	0	0	0	0
14.06663	-0.0502209	-0.01892375	0	0	0	0	0	0
14.0832	-0.0502209	-0.01892375	0	0	0	0	0	0
14.12169	-0.0502209	-0.01892375	0	0	0	0	0	0
14.13807	-0.0502209	-0.01892375	0	0	0	0	0	0
14.15472	-0.0502209	-0.01892375	0	0	0	0	0	0
14.17123	-0.0502209	-0.01892375	0	0	0	0	0	0
14.18777	-0.0502209	-0.01892375	0	0	0	0	0	0
14.20433	-0.0502209	-0.01892375	0	0	0	0	0	0
14.2209	-0.0502209	-0.01892375	0	0	0	0	0	0
14.23746	-0.0502209	-0.01892375	0	0	0	0	0	0
14.25429	-0.0502209	-0.01892375	0	0	0	0	0	0
14.2708	-0.0502209	-0.01892375	0	0	0	0	0	0
14.28717	-0.0502209	-0.01892375	0	0	0	0	0	0
14.30382	-0.0502209	-0.01892375	0	0	0	0	0	0
14.32033	-0.0502209	-0.01892375	0	0	0	0	0	0
14.33686	-0.0502209	-0.01892375	0	0	0	0	0	0
14.35343	-0.0502209	-0.01892375	0	0	0	0	0	0
14.37	-0.0502209	-0.01892375	0	0	0	0	0	0
14.38656	-0.05019464	-0.01894269	0.001584672	-0.001142911	0.04782826	-0.03449512	0	0
14.40313	-0.05019464	-0.01894269	0	0	-0.04782826	0.03449512	0	0
14.4197	-0.05019464	-0.01894269	0	0	0	0	0	0
14.43641	-0.05019464	-0.01894269	0	0	0	0	0	0
14.45283	-0.05019464	-0.01894269	0	0	0	0	0	0
14.53572	-0.05019464	-0.01894269	0	0	0	0	0	0
14.55223	-0.05019464	-0.01894269	0	0	0	0	0	0
14.56901	-0.05019464	-0.01894269	0	0	0	0	0	0
14.58537	-0.05019464	-0.01894269	0	0	0	0	0	0
14.60193	-0.05019464	-0.01894269	0	0	0	0	0	0
14.6185	-0.05019464	-0.01894269	0	0	0	0	0	0
14.63507	-0.05019464	-0.01894269	0	0	0	0	0	0
14.65164	-0.05019464	-0.01894269	0	0	0	0	0	0
14.6682	-0.05019464	-0.01894269	0	0	0	0	0	0
14.68477	-0.05019464	-0.01894269	0	0	0	0	0	0
14.70133	-0.05019464	-0.01894269	0	0	0	0	0	0
14.7179	-0.05019464	-0.01894269	0	0	0	0	0	0
14.73447	-0.05019464	-0.01894269	0	0	0	0	0	0
14.75115	-0.05019464	-0.01894269	0	0	0	0	0	0
14.7676	-0.05019464	-0.01894269	0	0	0	0	0	0
14.78417	-0.05019464	-0.01894269	0	0	0	0	0	0
14.80073	-0.05019464	-0.01894269	0	0	0	0	0	0
14.8173	-0.05019464	-0.01894269	0	0	0	0	0	0
14.83387	-0.05019464	-0.01894269	0	0	0	0	0	0
14.86727	-0.05019464	-0.01894269	0	0	0	0	0	0
14.88356	-0.05019464	-0.01894269	0	0	0	0	0	0
14.90013	-0.05019464	-0.01894269	0	0	0	0	0	0
14.91675	-0.05019464	-0.01894269	0	0	0	0	0	0
14.94034	-0.05019464	-0.01894269	0	0	0	0	0	0
14.95691	-0.05019464	-0.01894269	0	0	0	0	0	0
14.97348	-0.05019464	-0.01894269	0	0	0	0	0	0
14.99004	-0.05019464	-0.01894269	0	0	0	0	0	0
15.00681	-0.05019464	-0.01894269	0	0	0	0	0	0
15.02336	-0.05019464	-0.01894269	0	0	0	0	0	0
15.03984	-0.05019464	-0.01894269	0	0	0	0	0	0
15.07288	-0.05019464	-0.01894269	0	0	0	0	0	0
15.08944	-0.05019464	-0.01894269	0	0	0	0	0	0
15.10601	-0.05019464	-0.01894269	0	0	0	0	0	0
15.12257	-0.05019464	-0.01894269	0	0	0	0	0	0
15.13914	-0.05019464	-0.01894269	0	0	0	0	0	0
15.15592	-0.0502209	-0.01892375	-0.001564943	0.001128682	-0.04693423	0.03385032	0	0
15.17244	-0.0502209	-0.01892375	0	0	0.04699741	-0.03389589	0	0
15.18884	-0.0502209	-0.01888589	0	0.002308972	0	0.07013302	0	0
15.20541	-0.05032589	-0.01877229	-0.006338015	0.006857019	-0.1922611	0.1379632	0	0
15.23854	-0.05113958	-0.01682288	-0.02455718	0.05883328	-0.3665774	1.045785	0	0
15.25511	-0.05266179	-0.01470449	-0.09188604	0.1278739	-1.354685	1.389127	0	0
15.27168	-0.05764659	-0.003944856	-0.3008656	0.6494154	-6.307014	15.74015	0	0
15.28824	-0.0597446	0.01664658	-0.1266511	1.243045	5.257954	17.91628	0	0
15.30481	-0.0607672	0.03698693	-0.06172734	1.227817	1.959572	-0.459619	0	0
15.32153	-0.0623926	0.06763384	-0.09717518	1.832238	-1.064731	18.15472	0	0
15.33805	-0.06359833	0.09162597	-0.07301344	1.452851	0.7268806	-11.41344	0	0
15.35456	-0.06433216	0.1072922	-0.04444758	0.9488947	0.8650073	-15.26039	0	0
15.38764	-0.06632363	0.1604898	-0.06019287	1.607911	-0.3174781	13.28798	0	0
15.40421	-0.06734537	0.1809624	-0.06167607	1.2358	-0.02987246	-7.494509	0	0
15.42111	-0.06755494	0.1942513	-0.01240334	0.7865001	1.472475	-13.42695	0	0
15.43734	-0.06847174	0.2048686	-0.05646899	0.6539637	-1.330019	-4.000302	0	0
15.45413	-0.06962412	0.2103069	-0.06864898	0.3239653	-0.3688454	-9.993311	0	0
15.47047	-0.0768222	0.2181338	-0.4403322	0.4788027	-11.21774	4.673135	0	0
15.48715	-0.08009146	0.2203816	-0.1959905	0.134755	7.398095	-10.41696	0	0
15.50361	-0.08356807	0.2227727	-0.2112961	0.1453189	-0.4619237	0.3188194	0	0
15.52018	-0.08738218	0.2253967	-0.2301799	0.1583588	-0.5718214	0.3948629	0	0
15.53674	-0.08803502	0.2258459	-0.03941743	0.027124	5.757553	-3.960902	0	0
15.55331	-0.08800891	0.2258279	0.001576352	-0.001084782	1.237409	-0.8514897	0	0
15.56987	-0.08800891	0.2258279	0	0	-0.04757714	0.03274067	0	0
15.58644	-0.08800891	0.2258279	0	0	0	0	0	0
15.60323	-0.08803502	0.2258459	-0.001555135	0.001070181	-0.04661608	0.03207931	0	0
15.61975	-0.08803502	0.2258459	0	0	0.04669483	-0.0321335	0	0
15.63614	-0.08803502	0.2258459	0	0	0	0	0	0
15.65271	-0.08803502	0.2258459	0	0	0	0	0	0
15.66927	-0.08806113	0.2258639	-0.001575993	0.001084845	-0.04756493	0.03274162	0	0
15.69064	-0.08808725	0.2258819	-0.001222502	0.0008412764	0.009320396	-0.006422082	0	0
15.70721	-0.08811336	0.2258998	-0.001575808	0.001084408	-0.00931387	0.006409431	0	0
15.72377	-0.08813947	0.2259178	-0.001576265	0.001084132	-1.380775E-05	-8.309242E-06	0	0
15.74034	-0.08813947	0.2259178	0	0	0.04758	-0.03272483	0	0
15.75691	-0.08813947	0.2259178	0	0	0	0	0	0
15.77347	-0.08813947	0.2259178	0	0	0	0	0	0
15.79004	-0.08813947	0.2259178	0	0	0	0	0	0
15.8066	-0.08811336	0.2258998	0.001575993	-0.001083945	0.04756904	-0.03271729	0	0
15.82317	-0.08811336	0.2258998	0	0	-0.04756767	0.03271635	0	0
15.83974	-0.08808725	0.2258819	0.001576261	-0.00108472	0.04757303	-0.03273785	0	0
15.8563	-0.08808725	0.2258819	0	0	-0.04757166	0.0327369	0	0
15.87292	-0.08808725	0.2258819	0	0	0	0	0	0
15.88944	-0.08808725	0.2258819	0	0	0	0	0	0
15.906	-0.08806113	0.2258639	0.001576261	-0.00108472	0.04765121	-0.03279164	0	0
15.92257	-0.08806113	0.2258639	0	0	-0.04757303	0.03273785	0	0
15.93914	-0.08806113	0.2258639	0	0	0	0	0	0
15.9557	-0.08803502	0.2258459	0.001575902	-0.001084782	0.04756356	-0.03274067	0	0
15.97227	-0.08803502	0.2258459	0	0	-0.04756356	0.03274067	0	0
15.98884	-0.08803502	0.2258459	0	0	0	0	0	0
16.00552	-0.08803502	0.2258459	0	0	0	0	0	0
16.02197	-0.08803502	0.2258459	0	0	0	0	0	0
16.03854	-0.08803502	0.2258459	0	0	0	0	0	0
16.05511	-0.0879828	0.22581	0.003152886	-0.002169689	0.09515428	-0.06548135	0	0
16.07167	-0.0879828	0.22581	0	0	-0.09515975	0.06548512	0	0
16.08824	-0.08795668	0.225792	0.001576261	-0.00108472	0.04757166	-0.0327369	0	0
16.10509	-0.08795668	0.225792	0	0	-0.04716442	0.03245666	0	0
16.12137	-0.08793058	0.225774	0.001603691	-0.00110391	0.04840227	-0.033318	0	0
16.13811	-0.08790446	0.2257561	0.001559919	-0.001073473	-0.001325621	0.0009217782	0	0
16.1545	-0.08785223	0.2257201	0.003186271	-0.002192663	0.04908624	-0.03377917	0	0
16.17114	-0.08782612	0.2257022	0.001569755	-0.001079347	-0.04894432	0.03370863	0	0
16.18764	-0.08774778	0.2256483	0.004749014	-0.00326808	0.09595573	-0.0660599	0	0
16.28722	-0.08675537	0.2248935	0.009965995	-0.007579508	0.04494472	-0.0371433	0	0
16.3036	-0.08380327	0.2227547	0.180139	-0.130512	1.467428	-1.060067	0	0
16.32024	-0.07993458	0.219986	0.2325771	-0.1664445	1.587978	-1.08814	0	0
16.33673	-0.07242573	0.2143562	0.4551741	-0.3412723	6.718765	-5.276921	0	0
16.3533	-0.06847174	0.2104509	0.2386635	-0.235726	-6.548249	3.192194	0	0
16.36987	-0.05961349	0.1930786	0.5346847	-1.048589	8.933938	-24.53227	0	0
16.38644	-0.05701708	0.1822273	0.1567197	-0.6549863	-11.40701	11.87896	0	0
16.403	-0.05350152	0.1621394	0.2121994	-1.212507	1.67438	-16.82601	0	0
16.41957	-0.04922336	0.1297662	0.2582303	-1.954051	1.389215	-22.37983	0	0
16.43614	-0.0449434	0.09362853	0.2583391	-2.181276	0.00328384	-6.857687	0	0
16.45271	-0.04244817	0.06567452	0.1506123	-1.687307	-3.2512	14.90801	0	0
16.46935	-0.04029397	0.03836499	0.1294466	-1.641038	-0.6373512	1.393275	0	0
16.48584	-0.0385861	0.01289827	0.103564	-1.544286	-0.7811857	2.920176	0	0
16.50241	-0.03648381	-0.01648233	0.1268949	-1.773417	0.7057538	-6.93116	0	0
16.51897	-0.03601074	-0.02269367	0.02855417	-0.3749172	-2.967929	42.20681	0	0
16.54461	-0.03351376	-0.05794585	0.09739152	-1.374966	1.630992	-23.69458	0	0
16.56141	-0.03372405	-0.06324429	-0.01251583	-0.3153491	-2.589686	24.96717	0	0
16.57793	-0.03296174	-0.06961164	0.04616192	-0.3855768	1.761267	-2.10795	0	0
16.59431	-0.03472288	-0.07765403	-0.1074905	-0.4908651	-4.670578	-3.200451	0	0
16.61095	-0.03601074	-0.08119084	-0.07739694	-0.2125521	0.9112689	8.42764	0	0
16.62745	-0.03771894	-0.08430625	-0.1035603	-0.1888732	-0.7896129	0.7146324	0	0
16.64401	-0.04250071	-0.08771603	-0.2886278	-0.2058143	-5.597592	-0.5124061	0	0
16.66058	-0.04255324	-0.08779357	-0.003170961	-0.004680664	8.615106	6.070226	0	0
16.67715	-0.04252698	-0.08777419	0.001585481	0.001170166	0.1435497	0.1765784	0	0
16.69371	-0.04255324	-0.0877548	-0.001585481	0.001170166	-0.0956998	0	0	0
16.71028	-0.04250071	-0.0877548	0.003170961	0	0.1435497	-0.03531568	0	0
16.72685	-0.04250071	-0.0877548	0	0	-0.0956998	0	0	0
16.74355	-0.04247444	-0.08773541	0.001572849	0.001160679	0.04727546	0.03488677	0	0
16.76006	-0.04247444	-0.08773541	0	0	-0.04735963	-0.03494888	0	0
16.77657	-0.04244817	-0.08771603	0.001591159	0.001174357	0.04819329	0.03556912	0	0
16.79312	-0.04244817	-0.08771603	0	0	-0.04813489	-0.03552602	0	0
16.80968	-0.04239563	-0.08767726	0.003171186	0.002340332	0.09576171	0.07067204	0	0
16.82625	-0.04236937	-0.08765787	0.001585481	0.001170166	-0.04785668	-0.03531568	0	0
16.84282	-0.04236937	-0.0876191	0	0.002339882	-0.0478499	0.03530211	0	0
16.85963	-0.04236937	-0.0876191	0	0	0	-0.07010127	0	0
16.87595	-0.04236937	-0.0876191	0	0	0	0	0	0
16.89265	-0.04234309	-0.08763848	0.001572849	-0.001160233	0.04762494	-0.03513116	0	0
16.90916	-0.04234309	-0.08763848	0	0	-0.0473569	0.03493344	0	0
16.92568	-0.04234309	-0.08759972	0	0.002347721	0	0.07109582	0	0
16.94269	-0.04234309	-0.08759972	0	0	0	-0.07003196	0	0
16.95878	-0.04234309	-0.08759972	0	0	0	0	0	0
16.97535	-0.04234309	-0.08759972	0	0	0	0	0	0
16.99192	-0.04234309	-0.08759972	0	0	0	0	0	0
17.04162	-0.04234309	-0.08759972	0	0	0	0	0	0
17.14102	-0.04234309	-0.08759972	0	0	0	0	0	0
17.15759	-0.04234309	-0.08759972	0	0	0	0	0	0
17.17415	-0.04231683	-0.0876191	0.001585481	-0.001170166	0.0478499	-0.03531568	0	0
17.19072	-0.04231683	-0.0876191	0	0	-0.0478499	0.03531568	0	0
17.20729	-0.04231683	-0.0876191	0	0	0	0	0	0
17.22389	-0.04231683	-0.0876191	0	0	0	0	0	0
17.24042	-0.04231683	-0.0876191	0	0	0	0	0	0
17.25741	-0.04231683	-0.0876191	0	0	0	0	0	0
17.27356	-0.04231683	-0.0876191	0	0	0	0	0	0
17.29012	-0.04231683	-0.0876191	0	0	0	0	0	0
17.31171	-0.04231683	-0.0876191	0	0	0	0	0	0
17.32828	-0.04231683	-0.0876191	0	0	0	0	0	0
17.34484	-0.04231683	-0.0876191	0	0	0	0	0	0
17.36141	-0.04231683	-0.0876191	0	0	0	0	0	0
17.37799	-0.04231683	-0.0876191	0	0	0	0	0	0
17.39454	-0.04231683	-0.0876191	0	0	0	0	0	0
17.41111	-0.04231683	-0.0876191	0	0	0	0	0	0
17.42768	-0.04231683	-0.0876191	0	0	0	0	0	0
17.44425	-0.04231683	-0.0876191	0	0	0	0	0	0
17.46081	-0.04231683	-0.0876191	0	0	0	0	0	0
17.47738	-0.04231683	-0.0876191	0	0	0	0	0	0
17.49395	-0.04231683	-0.0876191	0	0	0	0	0	0
17.51059	-0.04231683	-0.0876191	0	0	0	0	0	0
17.5271	-0.04231683	-0.0876191	0	0	0	0	0	0
17.54365	-0.04231683	-0.0876191	0	0	0	0	0	0
17.56021	-0.04231683	-0.0876191	0	0	0	0	0	0
17.57678	-0.04234309	-0.08763848	-0.001585481	-0.001169716	-0.0478499	-0.03530211	0	0
17.59335	-0.04234309	-0.08763848	0	0	0.0478499	0.03530211	0	0
17.60991	-0.04234309	-0.08763848	0	0	0	0	0	0
17.62648	-0.04234309	-0.08763848	0	0	0	0	0	0
17.64319	-0.04234309	-0.08763848	0	0	0	0	0	0
17.6597	-0.04234309	-0.08763848	0	0	0	0	0	0
17.67621	-0.04234309	-0.08763848	0	0	0	0	0	0
17.69275	-0.04234309	-0.08763848	0	0	0	0	0	0
17.70931	-0.04234309	-0.08763848	0	0	0	0	0	0
17.84185	-0.04234309	-0.08763848	0	0	0	0	0	0
17.85842	-0.04234309	-0.08763848	0	0	0	0	0	0
17.87535	-0.04234309	-0.08763848	0	0	0	0	0	0
17.89155	-0.04234309	-0.08763848	0	0	0	0	0	0
17.90812	-0.04234309	-0.08763848	0	0	0	0	0	0
17.92468	-0.04234309	-0.08763848	0	0	0	0	0	0
17.94125	-0.04234309	-0.08763848	0	0	0	0	0	0
17.95842	-0.04234309	-0.08763848	0	0	0	0	0	0
17.97442	-0.04234309	-0.08763848	0	0	0	0	0	0
17.99095	-0.04234309	-0.08763848	0	0	0	0	0	0
18.00752	-0.04234309	-0.08763848	0	0	0	0	0	0
18.02408	-0.04234309	-0.08763848	0	0	0	0	0	0
18.04065	-0.04234309	-0.08763848	0	0	0	0	0	0
18.05722	-0.04234309	-0.08763848	0	0	0	0	0	0
18.07378	-0.04234309	-0.08763848	0	0	0	0	0	0
18.09035	-0.04234309	-0.08763848	0	0	0	0	0	0
18.10692	-0.04234309	-0.08763848	0	0	0	0	0	0
18.12353	-0.04234309	-0.08763848	0	0	0	0	0	0
18.14005	-0.04234309	-0.08763848	0	0	0	0	0	0
18.17357	-0.04234309	-0.08763848	0	0	0	0	0	0
18.18975	-0.04234309	-0.08763848	0	0	0	0	0	0
18.20659	-0.04234309	-0.08763848	0	0	0	0	0	0
18.22814	-0.04234309	-0.08763848	0	0	0	0	0	0
18.24471	-0.04234309	-0.08763848	0	0	0	0	0	0
18.26128	-0.04234309	-0.08763848	0	0	0	0	0	0
18.27814	-0.04234309	-0.08763848	0	0	0	0	0	0
18.29441	-0.04234309	-0.08763848	0	0	0	0	0	0
18.35256	-0.04234309	-0.08763848	0	0	0	0	0	0
18.36921	-0.04234309	-0.08763848	0	0	0	0	0	0
18.38569	-0.04234309	-0.08763848	0	0	0	0	0	0
18.40883	-0.04234309	-0.08763848	0	0	0	0	0	0
18.4254	-0.04234309	-0.08763848	0	0	0	0	0	0
18.44197	-0.04234309	-0.08763848	0	0	0	0	0	0
18.45853	-0.04234309	-0.08763848	0	0	0	0	0	0
18.4751	-0.04234309	-0.08763848	0	0	0	0	0	0
18.49179	-0.04234309	-0.08763848	0	0	0	0	0	0
18.5083	-0.04234309	-0.08763848	0	0	0	0	0	0
18.5248	-0.04234309	-0.08763848	0	0	0	0	0	0
18.59106	-0.04234309	-0.08763848	0	0	0	0	0	0
18.60763	-0.04234309	-0.08763848	0	0	0	0	0	0
18.6242	-0.04234309	-0.08763848	0	0	0	0	0	0
18.6409	-0.04234309	-0.08763848	0	0	0	0	0	0
18.65733	-0.04234309	-0.08763848	0	0	0	0	0	0
18.67392	-0.04234309	-0.08763848	0	0	0	0	0	0
18.69047	-0.04234309	-0.08763848	0	0	0	0	0	0
18.70703	-0.04234309	-0.08763848	0	0	0	0	0	0
18.7236	-0.04234309	-0.08763848	0	0	0	0	0	0
18.74017	-0.04234309	-0.08763848	0	0	0	0	0	0
18.75698	-0.04234309	-0.08763848	0	0	0	0	0	0
18.7733	-0.04234309	-0.08763848	0	0	0	0	0	0
18.80652	-0.04234309	-0.08763848	0	0	0	0	0	0
18.82303	-0.04234309	-0.08763848	0	0	0	0	0	0
18.83957	-0.04234309	-0.08763848	0	0	0	0	0	0
18.85655	-0.04234309	-0.08763848	0	0	0	0	0	0
18.87306	-0.04234309	-0.08763848	0	0	0	0	0	0
18.88927	-0.04234309	-0.08763848	0	0	0	0	0	0
18.90583	-0.04234309	-0.08763848	0	0	0	0	0	0
18.9224	-0.04234309	-0.08763848	0	0	0	0	0	0
18.94463	-0.04234309	-0.08763848	0	0	0	0	0	0
18.96163	-0.04234309	-0.08763848	0	0	0	0	0	0
18.97776	-0.04234309	-0.08763848	0	0	0	0	0	0
18.99433	-0.04231683	-0.08765787	0.001585481	-0.001170166	0.04848344	-0.03578326	0	0
19.01089	-0.04231683	-0.08765787	0	0	-0.0478499	0.03531568	0	0
19.02767	-0.04231683	-0.08765787	0	0	0	0	0	0
19.04419	-0.04231683	-0.08765787	0	0	0	0	0	0
19.0607	-0.04231683	-0.08765787	0	0	0	0	0	0
19.07721	-0.04231683	-0.08765787	0	0	0	0	0	0
19.09373	-0.04231683	-0.08765787	0	0	0	0	0	0
19.11073	-0.04231683	-0.08765787	0	0	0	0	0	0
19.12686	-0.04231683	-0.08765787	0	0	0	0	0	0
19.14343	-0.04231683	-0.08765787	0	0	0	0	0	0
19.16027	-0.04231683	-0.08765787	0	0	0	0	0	0
19.17657	-0.04231683	-0.08765787	0	0	0	0	0	0
19.19313	-0.04231683	-0.08765787	0	0	0	0	0	0
19.2097	-0.04231683	-0.08765787	0	0	0	0	0	0
19.22632	-0.04231683	-0.08765787	0	0	0	0	0	0
19.24283	-0.04231683	-0.08765787	0	0	0	0	0	0
19.2594	-0.04231683	-0.08765787	0	0	0	0	0	0
19.29253	-0.04231683	-0.08765787	0	0	0	0	0	0
19.3091	-0.04231683	-0.08765787	0	0	0	0	0	0
19.32589	-0.04231683	-0.08765787	0	0	0	0	0	0
19.3424	-0.04231683	-0.08765787	0	0	0	0	0	0
19.3588	-0.04231683	-0.08765787	0	0	0	0	0	0
19.37537	-0.04231683	-0.08765787	0	0	0	0	0	0
19.39194	-0.04231683	-0.08765787	0	0	0	0	0	0
19.4085	-0.04231683	-0.08765787	0	0	0	0	0	0
19.42507	-0.04231683	-0.08765787	0	0	0	0	0	0
19.44164	-0.04231683	-0.08765787	0	0	0	0	0	0
19.4582	-0.04231683	-0.08765787	0	0	0	0	0	0
19.47477	-0.04231683	-0.08765787	0	0	0	0	0	0
19.49134	-0.04231683	-0.08765787	0	0	0	0	0	0
19.50802	-0.04231683	-0.08765787	0	0	0	0	0	0
19.52453	-0.04231683	-0.08765787	0	0	0	0	0	0
19.54104	-0.04231683	-0.08765787	0	0	0	0	0	0
19.5576	-0.04231683	-0.08765787	0	0	0	0	0	0
19.57417	-0.04231683	-0.08765787	0	0	0	0	0	0
19.59792	-0.04231683	-0.08765787	0	0	0	0	0	0
19.6146	-0.04231683	-0.08765787	0	0	0	0	0	0
19.63111	-0.04231683	-0.08765787	0	0	0	0	0	0
19.64762	-0.04231683	-0.08765787	0	0	0	0	0	0
19.66419	-0.04231683	-0.08765787	0	0	0	0	0	0
19.68075	-0.04231683	-0.08765787	0	0	0	0	0	0
19.69732	-0.04231683	-0.08765787	0	0	0	0	0	0
19.71389	-0.04231683	-0.08765787	0	0	0	0	0	0
19.73046	-0.04231683	-0.08765787	0	0	0	0	0	0
19.7472	-0.04231683	-0.08765787	0	0	0	0	0	0
19.76359	-0.04231683	-0.08765787	0	0	0	0	0	0
19.78022	-0.04231683	-0.08765787	0	0	0	0	0	0
19.79672	-0.04231683	-0.08765787	0	0	0	0	0	0
19.84642	-0.04231683	-0.08765787	0	0	0	0	0	0
19.86299	-0.04231683	-0.08765787	0	0	0	0	0	0
19.87956	-0.04231683	-0.08765787	0	0	0	0	0	0
19.89612	-0.04231683	-0.08765787	0	0	0	0	0	0
19.91281	-0.04231683	-0.08765787	0	0	0	0	0	0
19.92925	-0.04231683	-0.08765787	0	0	0	0	0	0
19.94583	-0.04231683	-0.08765787	0	0	0	0	0	0
19.96285	-0.04231683	-0.08765787	0	0	0	0	0	0
19.97896	-0.04231683	-0.08765787	0	0	0	0	0	0
19.99552	-0.04231683	-0.08765787	0	0	0	0	0	0
20.01238	-0.04231683	-0.08765787	0	0	0	0	0	0
20.02866	-0.04231683	-0.08765787	0	0	0	0	0	0
20.0454	-0.04231683	-0.08765787	0	0	0	0	0	0
20.06192	-0.04231683	-0.08765787	0	0	0	0	0	0
20.07836	-0.04231683	-0.08765787	0	0	0	0	0	0
20.09492	-0.04231683	-0.08765787	0	0	0	0	0	0
20.11149	-0.04231683	-0.08765787	0	0	0	0	0	0
20.12806	-0.04231683	-0.08765787	0	0	0	0	0	0
20.14462	-0.04231683	-0.08765787	0	0	0	0	0	0
20.16119	-0.04231683	-0.08765787	0	0	0	0	0	0
20.17776	-0.04231683	-0.08765787	0	0	0	0	0	0
20.19433	-0.04231683	-0.08765787	0	0	0	0	0	0
20.21089	-0.04231683	-0.08765787	0	0	0	0	0	0
20.22746	-0.04231683	-0.08765787	0	0	0	0	0	0
20.24403	-0.04231683	-0.08765787	0	0	0	0	0	0
20.2606	-0.04231683	-0.08765787	0	0	0	0	0	0
20.27716	-0.04231683	-0.08765787	0	0	0	0	0	0
20.29373	-0.04231683	-0.08765787	0	0	0	0	0	0
20.3103	-0.04231683	-0.08765787	0	0	0	0	0	0
20.33328	-0.04231683	-0.08765787	0	0	0	0	0	0
20.34985	-0.04231683	-0.08765787	0	0	0	0	0	0
20.36664	-0.04231683	-0.08765787	0	0	0	0	0	0
20.38299	-0.04231683	-0.08765787	0	0	0	0	0	0
20.39955	-0.04231683	-0.08765787	0	0	0	0	0	0
20.41612	-0.04231683	-0.08765787	0	0	0	0	0	0
20.43269	-0.04231683	-0.08765787	0	0	0	0	0	0
20.44925	-0.04231683	-0.08765787	0	0	0	0	0	0
20.46582	-0.04231683	-0.08765787	0	0	0	0	0	0
20.48239	-0.04231683	-0.08765787	0	0	0	0	0	0
20.49896	-0.04231683	-0.08765787	0	0	0	0	0	0
20.51552	-0.04231683	-0.08765787	0	0	0	0	0	0
20.53226	-0.04231683	-0.08765787	0	0	0	0	0	0
20.54865	-0.04231683	-0.08765787	0	0	0	0	0	0
20.56528	-0.04231683	-0.08765787	0	0	0	0	0	0
20.58179	-0.04231683	-0.08765787	0	0	0	0	0	0
20.59836	-0.04231683	-0.08765787	0	0	0	0	0	0
20.61492	-0.04231683	-0.08765787	0	0	0	0	0	0
20.63149	-0.04231683	-0.08765787	0	0	0	0	0	0
20.64805	-0.04231683	-0.08765787	0	0	0	0	0	0
20.66462	-0.04231683	-0.08765787	0	0	0	0	0	0
20.68119	-0.04231683	-0.08765787	0	0	0	0	0	0
20.6979	-0.04231683	-0.08765787	0	0	0	0	0	0
20.71432	-0.04231683	-0.08765787	0	0	0	0	0	0
20.73089	-0.04231683	-0.08765787	0	0	0	0	0	0
20.74746	-0.04231683	-0.08765787	0	0	0	0	0	0
20.76443	-0.04231683	-0.08765787	0	0	0	0	0	0
20.78059	-0.04231683	-0.08765787	0	0	0	0	0	0
20.79745	-0.04231683	-0.08765787	0	0	0	0	0	0
20.81396	-0.04231683	-0.08765787	0	0	0	0	0	0
20.83049	-0.04231683	-0.08765787	0	0	0	0	0	0
20.84686	-0.04231683	-0.08765787	0	0	0	0	0	0
20.86349	-0.04234309	-0.08763848	-0.001578936	0.001165336	-0.04784519	0.03531221	0	0
20.88	-0.04234309	-0.08763848	0	0	0.0476332	-0.03515575	0	0
20.89655	-0.04234309	-0.08763848	0	0	0	0	0	0
20.91312	-0.04234309	-0.08763848	0	0	0	0	0	0
20.92969	-0.04234309	-0.08763848	0	0	0	0	0	0
20.94625	-0.04234309	-0.08763848	0	0	0	0	0	0
20.96282	-0.04234309	-0.08763848	0	0	0	0	0	0
20.97939	-0.04234309	-0.08763848	0	0	0	0	0	0
20.99595	-0.04234309	-0.08763848	0	0	0	0	0	0
21.01252	-0.04236937	-0.0876191	-0.001585705	0.001169716	-0.04785668	0.03530211	0	0
21.05013	-0.04236937	-0.0876191	0	0	0.02927243	-0.02159319	0	0
21.10765	-0.04239563	-0.08763848	-0.0004565839	-0.0003368529	-0.004799436	-0.003540869	0	0
21.12422	-0.04239563	-0.08763848	0	0	0.006162002	0.004546126	0	0
21.14079	-0.04239563	-0.08763848	0	0	0	0	0	0
21.1577	-0.04239563	-0.08763848	0	0	0	0	0	0
21.17421	-0.04239563	-0.08763848	0	0	0	0	0	0
21.19049	-0.04239563	-0.08763848	0	0	0	0	0	0
21.20705	-0.04239563	-0.08763848	0	0	0	0	0	0
21.22362	-0.04239563	-0.08763848	0	0	0	0	0	0
21.24019	-0.04239563	-0.08763848	0	0	0	0	0	0
21.25677	-0.04239563	-0.08763848	0	0	0	0	0	0
21.27332	-0.04239563	-0.08763848	0	0	0	0	0	0
21.28989	-0.04239563	-0.08763848	0	0	0	0	0	0
21.3068	-0.04239563	-0.08763848	0	0	0	0	0	0
21.32302	-0.04239563	-0.08763848	0	0	0	0	0	0
21.33959	-0.04239563	-0.08763848	0	0	0	0	0	0
21.35615	-0.04239563	-0.08763848	0	0	0	0	0	0
21.37272	-0.04239563	-0.08763848	0	0	0	0	0	0
21.38929	-0.04239563	-0.08763848	0	0	0	0	0	0
21.40587	-0.04239563	-0.08763848	0	0	0	0	0	0
21.42242	-0.04239563	-0.08763848	0	0	0	0	0	0
21.4394	-0.04239563	-0.08763848	0	0	0	0	0	0
21.45555	-0.04239563	-0.08763848	0	0	0	0	0	0
21.47242	-0.04239563	-0.08763848	0	0	0	0	0	0
21.48869	-0.04239563	-0.08763848	0	0	0	0	0	0
21.50525	-0.04239563	-0.08763848	0	0	0	0	0	0
21.52182	-0.04239563	-0.08763848	0	0	0	0	0	0
21.53839	-0.04239563	-0.08763848	0	0	0	0	0	0
21.55495	-0.04239563	-0.08763848	0	0	0	0	0	0
21.58809	-0.04239563	-0.08763848	0	0	0	0	0	0
21.60501	-0.04239563	-0.08763848	0	0	0	0	0	0
21.62122	-0.04239563	-0.08763848	0	0	0	0	0	0
21.63803	-0.04239563	-0.08763848	0	0	0	0	0	0
21.65455	-0.04239563	-0.08763848	0	0	0	0	0	0
21.67106	-0.04239563	-0.08763848	0	0	0	0	0	0
21.68757	-0.04239563	-0.08763848	0	0	0	0	0	0
21.70405	-0.04239563	-0.08763848	0	0	0	0	0	0
21.72062	-0.04239563	-0.08763848	0	0	0	0	0	0
21.73719	-0.04239563	-0.08763848	0	0	0	0	0	0
21.76212	-0.04239563	-0.08763848	0	0	0	0	0	0
21.77868	-0.04239563	-0.08763848	0	0	0	0	0	0
21.79525	-0.04239563	-0.08763848	0	0	0	0	0	0
21.81182	-0.04239563	-0.08763848	0	0	0	0	0	0
21.82867	-0.04239563	-0.08763848	0	0	0	0	0	0
21.84495	-0.04239563	-0.08763848	0	0	0	0	0	0
21.86169	-0.04239563	-0.08763848	0	0	0	0	0	0
21.8782	-0.04239563	-0.08763848	0	0	0	0	0	0
21.89465	-0.04236937	-0.08765787	0.001597064	-0.001178715	0.04845611	-0.0357631	0	0
21.91123	-0.04236937	-0.08765787	0	0	-0.04836375	0.03569493	0	0
21.92778	-0.04236937	-0.08765787	0	0	0	0	0	0
21.94435	-0.04231683	-0.08769664	0.003170821	-0.002340063	0.0957176	-0.0706395	0	0
21.97749	-0.04168636	-0.08816195	0.01902855	-0.0140437	0.3190581	-0.2354777	0	0
21.99405	-0.03848099	-0.09048966	0.1934765	-0.1405009	3.510035	-2.544421	0	0
22.01062	-0.0353274	-0.09281939	0.1903512	-0.1406232	-0.09432204	-0.003691735	0	0
22.02719	-0.02862376	-0.09773798	0.4046326	-0.2968862	6.467025	-4.716028	0	0
22.04375	-0.02204906	-0.1026073	0.3968498	-0.2939123	-0.2348859	0.08975471	0	0
22.06032	-0.01794544	-0.1056504	0.2477233	-0.1837008	-4.500906	3.32638	0	0
22.07689	-0.01415695	-0.1084625	0.2286739	-0.1697424	-0.5749435	0.4212885	0	0
22.09345	-0.01318345	-0.1091856	0.05876071	-0.04364423	-5.127991	3.805652	0	0
22.11002	-0.01323607	-0.1091465	-0.003176301	0.00235967	-1.869263	1.3884	0	0
22.12688	-0.01326238	-0.1091269	-0.00156028	0.001158929	0.04834032	-0.03591796	0	0
22.14316	-0.01328869	-0.1091465	-0.001616845	-0.001200902	-0.001707045	-0.07121575	0	0
22.15972	-0.01328869	-0.1091465	0	0	0.04923578	0.03656958	0	0
22.17642	-0.01328869	-0.1091465	0	0	0	0	0	0
22.19293	-0.013315	-0.109166	-0.001593627	-0.00118415	-0.04799078	-0.03565971	0	0
22.20942	-0.013315	-0.109166	0	0	0.04828754	0.03588022	0	0
22.22599	-0.01336762	-0.1092442	-0.003176301	-0.00471889	-0.09607666	-0.1427368	0	0
22.24256	-0.01339394	-0.1092638	-0.001588123	-0.00117961	0.04793133	0.1068157	0	0
22.25912	-0.01365705	-0.1094592	-0.01588317	-0.01179971	-0.4314502	-0.3205337	0	0
22.276	-0.01473578	-0.1102217	-0.06393454	-0.04518903	-1.437041	-0.9985524	0	0
22.29226	-0.0185505	-0.1129018	-0.2345785	-0.1648111	-5.150046	-3.610202	0	0
22.30882	-0.03125298	-0.1215092	-0.766723	-0.519542	-16.20944	-10.80532	0	0
22.32539	-0.0502209	-0.1346243	-1.145037	-0.7917197	-11.41821	-8.214812	0	0
22.34204	-0.05754167	-0.1400207	-0.4397566	-0.3241588	21.2353	14.07779	0	0
22.35855	-0.06836697	-0.1481281	-0.655605	-0.4910035	-6.509446	-5.031618	0	0
22.37509	-0.07933315	-0.1564626	-0.6629887	-0.5038828	-0.2233936	-0.3896638	0	0
22.39166	-0.1263237	-0.1929603	-2.836358	-2.203007	-65.64532	-51.32103	0	0
22.44789	-0.1323533	-0.197806	-0.1072181	-0.08616697	37.48639	29.07608	0	0
22.46446	-0.1384248	-0.2026626	-0.3664778	-0.2931468	-3.561089	-2.842993	0	0
22.48103	-0.1586553	-0.2192465	-1.221112	-1.001002	-25.79291	-21.36311	0	0
22.5038	-0.1646792	-0.2242351	-0.2645361	-0.2190687	24.31618	19.87676	0	0
22.52037	-0.1732201	-0.2317304	-0.5155296	-0.4524207	-6.38026	-5.931815	0	0
22.53693	-0.1855767	-0.2423827	-0.7458464	-0.6429734	-6.950974	-5.750891	0	0
22.55369	-0.1943573	-0.2499878	-0.5240226	-0.4538693	6.656719	5.674832	0	0
22.57007	-0.2024006	-0.257706	-0.4911511	-0.4712977	0.9921214	-0.5260204	0	0
22.58663	-0.2066141	-0.2702667	-0.2543263	-0.7581668	7.188769	-8.707852	0	0
22.60322	-0.2066141	-0.2770532	0	-0.4090703	7.670284	10.52848	0	0
22.61977	-0.2029309	-0.2892548	0.222654	-0.7375926	6.720098	-9.915392	0	0
22.63675	-0.1979775	-0.2960685	0.2917322	-0.4012932	2.060704	10.0323	0	0
22.6529	-0.1921016	-0.3011954	0.3637595	-0.3173947	2.173915	2.532209	0	0
22.66977	-0.1845089	-0.3075604	0.4501065	-0.3773233	2.614838	-1.814811	0	0
22.68603	-0.1789085	-0.3122897	0.3443437	-0.2907895	-3.192113	2.611743	0	0
22.7026	-0.1769712	-0.3139265	0.1169384	-0.09879224	-6.926503	5.848015	0	0
22.71917	-0.1700777	-0.3197534	0.416088	-0.3517172	9.028355	-7.633291	0	0
22.73573	-0.1648073	-0.3242123	0.318126	-0.2691346	-2.956501	2.492348	0	0
22.75233	-0.1608611	-0.327553	0.2376951	-0.2012329	-2.424895	2.047156	0	0
22.76887	-0.1607073	-0.3276833	0.009304887	-0.00788009	-6.892435	5.835064	0	0
22.78543	-0.1607329	-0.3276616	-0.001548107	0.001311528	-0.3278838	0.2776913	0	0
22.802	-0.1607329	-0.3276616	0	0	0.04672466	-0.03958429	0	0
22.81888	-0.1607329	-0.3276616	0	0	0	0	0	0
22.83514	-0.1607329	-0.3276616	0	0	0	0	0	0
22.8517	-0.1607329	-0.3276616	0	0	0	0	0	0
22.86827	-0.1607329	-0.3276616	0	0	0	0	0	0
22.88493	-0.1607586	-0.3276399	-0.001539598	0.00130432	-0.04633714	0.03925598	0	0
22.9014	-0.1607586	-0.3276399	0	0	0.04647052	-0.03936898	0	0
22.91797	-0.1607842	-0.3276182	-0.001547929	0.001309579	-0.04684874	0.03963496	0	0
22.93454	-0.1608099	-0.3275965	-0.00154703	0.001311378	2.714469E-05	5.428939E-05	0	0
22.9511	-0.1608355	-0.3275747	-0.001547929	0.001311378	-2.714469E-05	0	0	0
22.96767	-0.1608355	-0.3275747	0	0	0.0467139	-0.03957517	0	0
22.98424	-0.1608611	-0.327553	-0.001548107	0.001309729	-0.04672197	0.03952771	0	0
23.0008	-0.1608611	-0.327553	0	0	0.04672466	-0.03952999	0	0
23.01737	-0.1608868	-0.3275313	-0.001547929	0.001311378	-0.04671659	0.03957745	0	0
23.03394	-0.1608868	-0.3275313	0	0	0.04671659	-0.03957745	0	0
23.05051	-0.1608868	-0.3275313	0	0	0	0	0	0
23.06707	-0.1608868	-0.3275313	0	0	0	0	0	0
23.08364	-0.1608868	-0.3275313	0	0	0	0	0	0
23.10021	-0.1608868	-0.3275313	0	0	0	0	0	0
23.11677	-0.1609124	-0.3275096	-0.00154703	0.001309579	-0.04668945	0.03952316	0	0
23.13334	-0.1609124	-0.3275096	0	0	0.04668945	-0.03952316	0	0
23.15012	-0.1609124	-0.3275096	0	0	0	0	0	0
23.16648	-0.1609124	-0.3275096	0	0	0	0	0	0
23.18314	-0.1608868	-0.3275313	0.001537999	-0.001301934	0.0465751	-0.03942636	0	0
23.20817	-0.1608868	-0.3275313	0	0	-0.03689228	0.03122975	0	0
23.22473	-0.1608868	-0.3275313	0	0	0	0	0	0
23.2413	-0.1608868	-0.3275313	0	0	0	0	0	0
23.25787	-0.1608868	-0.3275313	0	0	0	0	0	0
23.27444	-0.1608868	-0.3275313	0	0	0	0	0	0
23.291	-0.1608868	-0.3275313	0	0	0	0	0	0
23.34075	-0.1608868	-0.3275313	0	0	0	0	0	0
23.35727	-0.1608868	-0.3275313	0	0	0	0	0	0
23.37383	-0.1608868	-0.3275313	0	0	0	0	0	0
23.39079	-0.1608868	-0.3275313	0	0	0	0	0	0
23.40697	-0.1608868	-0.3275313	0	0	0	0	0	0
23.42353	-0.1608868	-0.3275313	0	0	0	0	0	0
23.4401	-0.1608868	-0.3275313	0	0	0	0	0	0
23.45667	-0.1608868	-0.3275313	0	0	0	0	0	0
23.47323	-0.1608868	-0.3275313	0	0	0	0	0	0
23.48986	-0.1608868	-0.3275313	0	0	0	0	0	0
23.50637	-0.1609124	-0.3274662	-0.001552212	0.003945507	-0.04684316	0.1190688	0	0
23.52293	-0.1609381	-0.3274445	-0.001548286	0.00130988	0.0001187125	-0.07968556	0	0
23.5395	-0.161015	-0.3273359	-0.004642888	0.00655329	-0.09340604	0.1582646	0	0
23.55607	-0.1610406	-0.3272708	-0.001547929	0.003930535	0.09340604	-0.07915491	0	0
23.57292	-0.1610919	-0.3271405	-0.003043108	0.007731138	-0.04474339	0.1137335	0	0
23.5892	-0.1611432	-0.3270102	-0.003148608	0.007999166	-0.003183996	0.008089091	0	0
23.60577	-0.1611688	-0.3266847	-0.001547208	0.01965314	0.04874846	0.3547603	0	0
23.62234	-0.1593223	-0.3237789	0.1114545	0.1753954	3.410594	4.700581	0	0
23.6389	-0.1573207	-0.3207048	0.1208176	0.1855482	0.2825798	0.3064131	0	0
23.65548	-0.1531852	-0.3133017	0.2495055	0.4466467	3.882915	7.878153	0	0
23.67204	-0.1475256	-0.3048359	0.3418088	0.5112926	2.785878	1.951132	0	0
23.6886	-0.1426559	-0.2939152	0.2939357	0.6591786	-1.44523	4.464491	0	0
23.70517	-0.1328187	-0.2730458	0.5937761	1.259676	9.049203	18.12305	0	0
23.72202	-0.1213223	-0.2534259	0.6820683	1.164023	2.641701	-2.861949	0	0
23.7383	-0.1101055	-0.2390051	0.6890227	0.8858423	0.2098834	-8.3955	0	0
23.75488	-0.09813116	-0.2243584	0.7226077	0.8838736	1.022367	-0.05993076	0	0
23.77144	-0.08954933	-0.214945	0.5181789	0.5683897	-6.170027	-9.521871	0	0
23.78807	-0.07410092	-0.2023168	0.9285129	0.7590046	12.35971	5.741531	0	0
23.80457	-0.04756935	-0.1813863	1.608486	1.268921	20.5228	15.39018	0	0
23.82159	-0.03388176	-0.1677487	0.80397	0.8010368	-24.00124	-13.95845	0	0
23.8377	-0.02557337	-0.1519436	0.5158072	0.9812223	-8.697274	5.43832	0	0
23.85427	-0.02010255	-0.1300083	0.3302191	1.324013	-5.679854	10.49098	0	0
23.87084	-0.01881357	-0.1143899	0.07780334	0.9427338	-7.617923	-11.50702	0	0
23.88765	-0.01802436	-0.09950936	0.04693404	0.8849437	-0.9247172	-1.731154	0	0
23.90397	-0.01726144	-0.08252558	0.04675514	1.040841	-0.005399512	4.705245	0	0
23.92642	-0.01731406	-0.06936129	-0.002343551	0.586346	-1.26645	-11.72321	0	0
23.94299	-0.01784021	-0.0622837	-0.03175863	0.4272044	-0.7538728	-4.078607	0	0
23.95955	-0.01563031	-0.05817601	0.1333902	0.2479405	4.9842	-5.410194	0	0
23.9762	-0.01676159	-0.057313	-0.06794789	0.05183512	-6.061391	-5.903859	0	0
23.99269	-0.01784021	-0.05652691	-0.06542223	0.04767848	0.07622033	-0.1254404	0	0
24.00926	-0.01799806	-0.0564119	-0.009528596	0.00694332	1.691059	-1.23244	0	0
24.02582	-0.01839266	-0.05612437	-0.02381852	0.01735507	-0.4312957	0.3142452	0	0
24.04239	-0.02320636	-0.05258057	-0.2905552	0.2139043	-8.05013	5.931867	0	0
24.05896	-0.027309	-0.04959563	-0.2476358	0.1801714	1.29531	-1.018061	0	0
24.07553	-0.03432861	-0.04449381	-0.4237048	0.3079466	-5.313772	3.856263	0	0
24.09209	-0.04538986	-0.03646706	-0.667658	0.4844951	-7.362521	5.328244	0	0
24.1088	-0.04743807	-0.03502033	-0.1225858	0.08658743	16.38054	-11.95794	0	0
24.19149	-0.05670231	-0.02865143	-0.1120317	0.07701847	0.1061768	-0.09626577	0	0
24.20837	-0.05672854	-0.02870841	-0.001554069	-0.003375757	1.109533	-0.8074042	0	0
24.22488	-0.05678101	-0.02882237	-0.003177297	-0.006901478	-0.04861414	-0.105592	0	0
24.24119	-0.05678101	-0.02886035	0	-0.002329244	0.09681052	0.1393135	0	0
24.25776	-0.05675477	-0.02895532	0.001583457	-0.00573233	0.0481659	-0.1035157	0	0
24.27433	-0.05672854	-0.02897431	0.00158305	-0.001146312	-1.228573E-05	0.1383983	0	0
24.29089	-0.05672854	-0.02905029	0	-0.004586527	-0.04777654	-0.1038259	0	0
24.30747	-0.05670231	-0.02910727	0.001582321	-0.003437576	0.04774355	0.03466741	0	0
24.32403	-0.05670231	-0.02910727	0	0	-0.04775729	0.1037522	0	0
24.34059	-0.05670231	-0.02910727	0	0	0	0	0	0
24.37373	-0.05667608	-0.02912627	0.0007917284	-0.0005732217	0.01592961	-0.01153324	0	0
24.3905	-0.05667608	-0.02912627	0	0	-0.01586325	0.0114852	0	0
24.40686	-0.05659739	-0.02918325	0.004810285	-0.00348338	0.1451747	-0.1051286	0	0
24.42343	-0.05638753	-0.02933522	0.01266844	-0.009173728	0.2386708	-0.1728294	0	0
24.44004	-0.0562826	-0.0294492	0.006316652	-0.006861616	-0.1914549	0.06969141	0	0
24.45656	-0.05617767	-0.02967717	0.006349911	-0.0137953	0.001003699	-0.2092469	0	0
24.47313	-0.05594157	-0.03003816	0.01425253	-0.02179179	0.2388176	-0.2416547	0	0
24.4897	-0.05557429	-0.0304562	0.02216884	-0.02523289	0.2389287	-0.1038584	0	0
24.50626	-0.05418376	-0.03188176	0.08393311	-0.08604701	1.864049	-1.835374	0	0
24.52283	-0.05431494	-0.03201484	-0.007919545	-0.008034011	-2.772278	2.354572	0	0
24.5394	-0.05449861	-0.03214794	-0.01108622	-0.008033536	-0.09557599	1.433558E-05	0	0
24.55596	-0.05497088	-0.03252823	-0.02850605	-0.0229545	-0.5257313	-0.4503157	0	0
24.57253	-0.05630883	-0.03353624	-0.080759	-0.06084369	-1.576997	-1.143498	0	0
24.5891	-0.05662362	-0.03395475	-0.01900036	-0.02526156	1.863879	1.073871	0	0
24.60567	-0.05657115	-0.0339928	0.003166689	-0.002296709	0.6690028	0.6930804	0	0
24.62223	-0.05649246	-0.03408793	0.004750468	-0.00574266	0.0478013	-0.104005	0	0
24.6388	-0.05638753	-0.03416403	0.006333603	-0.004593419	0.04778185	0.03468616	0	0
24.66072	-0.0559678	-0.03446847	0.01914368	-0.01388528	0.3327968	-0.241396	0	0
24.67729	-0.05394761	-0.03593398	0.1219394	-0.08845817	2.670561	-1.93735	0	0
24.69422	-0.04607264	-0.04168868	0.4651067	-0.3398807	10.24417	-7.505427	0	0
24.71043	-0.03863866	-0.04709138	0.4587508	-0.3334009	-0.191809	0.1955486	0	0
24.72699	-0.03135814	-0.05238913	0.4395035	-0.3198096	-0.587343	0.4147459	0	0
24.74356	-0.02265402	-0.05873232	0.5252607	-0.3827871	2.588008	-1.900554	0	0
24.76013	-0.01657743	-0.06316743	0.366826	-0.2677349	-4.781293	3.472084	0	0
24.77669	-0.008947129	-0.06874514	0.4606718	-0.336749	2.832762	-2.08321	0	0
24.79326	-0.007184087	-0.07003536	0.1064175	-0.07787766	-10.69265	7.813652	0	0
24.80983	-0.002157891	-0.07371671	0.3033468	-0.2221814	5.942998	-4.354845	0	0
24.82639	-0.0005	-0.07493205	0.100082	-0.07336643	-6.134543	4.491245	0	0
24.84296	-0.0005	-0.07485487	0	0.004658628	-3.020656	2.354936	0	0
24.85953	-0.0005263158	-0.07483558	-0.001588425	0.001164769	-0.04793876	-0.1054449	0	0
24.87609	-0.0005263158	-0.07483558	0	0	0.04793876	-0.03515281	0	0
24.89287	-0.0005789473	-0.07479699	-0.003138188	0.002300747	-0.09413091	0.06901161	0	0
24.90923	-0.0005789473	-0.07479699	0	0	0.09471069	-0.06943668	0	0
24.92589	-0.0005789473	-0.07479699	0	0	0	0	0	0
24.9424	-0.0005526315	-0.07477769	0.001593746	0.001168671	0.04804127	0.03522798	0	0
24.95893	-0.0005526315	-0.07477769	0	0	-0.04824097	-0.03537442	0	0
24.9755	-0.0005526315	-0.07477769	0	0	0	0	0	0
24.99206	-0.0005263158	-0.0747584	0.001588421	0.001164769	0.04793865	0.03515281	0	0
25.00863	-0.0005526315	-0.07473911	-0.001588421	0.00116432	-0.0958773	-1.357235E-05	0	0
25.0252	-0.0005526315	-0.07477769	0	-0.002329089	0.04793865	-0.1054313	0	0
25.04176	-0.0005526315	-0.07477769	0	0	0	0.0702961	0	0
25.05833	-0.0005526315	-0.07477769	0	0	0	0	0	0
25.0749	-0.0005526315	-0.07477769	0	0	0	0	0	0
25.09146	-0.0005526315	-0.07477769	0	0	0	0	0	0
25.10803	-0.0005526315	-0.07477769	0	0	0	0	0	0
25.1246	-0.0005526315	-0.07477769	0	0	0	0	0	0
25.14136	-0.0005526315	-0.07477769	0	0	0	0	0	0
25.15793	-0.0005526315	-0.07477769	0	0	0	0	0	0
25.17449	-0.0005526315	-0.07477769	0	0	0	0	0	0
25.19108	-0.0005526315	-0.07477769	0	0	0	0	0	0
25.20763	-0.0005526315	-0.07477769	0	0	0	0	0	0
25.2242	-0.0005526315	-0.07477769	0	0	0	0	0	0
25.24076	-0.0005526315	-0.07477769	0	0	0	0	0	0
25.25733	-0.0005526315	-0.07477769	0	0	0	0	0	0
25.2739	-0.0005526315	-0.07477769	0	0	0	0	0	0
25.29046	-0.0005526315	-0.07477769	0	0	0	0	0	0
25.30716	-0.0005526315	-0.07477769	0	0	0	0	0	0
25.3236	-0.0005526315	-0.07477769	0	0	0	0	0	0
25.34019	-0.0005526315	-0.07477769	0	0	0	0	0	0
25.35673	-0.0005526315	-0.07477769	0	0	0	0	0	0
25.37918	-0.0005263158	-0.07479699	0.001172319	-0.0008596472	0.03006864	-0.02204896	0	0
25.39574	-0.0005526315	-0.07481628	-0.001588421	-0.00116432	-0.07076134	-0.007809149	0	0
25.41231	-0.0005526315	-0.07481628	0	0	0.04793865	0.03513924	0	0
25.42888	-0.0005526315	-0.07481628	0	0	0	0	0	0
25.44545	-0.0005526315	-0.07481628	0	0	0	0	0	0
25.46201	-0.0005526315	-0.07481628	0	0	0	0	0	0
25.47858	-0.0005526315	-0.07481628	0	0	0	0	0	0
25.4953	-0.0005526315	-0.07481628	0	0	0	0	0	0
25.51171	-0.0005526315	-0.07481628	0	0	0	0	0	0
25.52833	-0.0005526315	-0.07481628	0	0	0	0	0	0
25.54485	-0.0005526315	-0.07481628	0	0	0	0	0	0
25.56141	-0.0005526315	-0.07481628	0	0	0	0	0	0
25.62768	-0.0005526315	-0.07481628	0	0	0	0	0	0
25.66771	-0.0005526315	-0.07481628	0	0	0	0	0	0
25.68428	-0.0005526315	-0.07481628	0	0	0	0	0	0
25.70085	-0.0005526315	-0.07481628	0	0	0	0	0	0
25.71746	-0.0005526315	-0.07481628	0	0	0	0	0	0
25.73398	-0.0005526315	-0.07481628	0	0	0	0	0	0
25.75055	-0.0005526315	-0.07481628	0	0	0	0	0	0
25.76711	-0.0005263158	-0.07483558	0.001588787	-0.001165038	0.04795245	-0.03516293	0	0
25.78368	-0.0005263158	-0.07483558	0	0	-0.04795521	0.03516496	0	0
25.80025	-0.0005263158	-0.07483558	0	0	0	0	0	0
25.81681	-0.0005263158	-0.07483558	0	0	0	0	0	0
25.83338	-0.0005263158	-0.07483558	0	0	0	0	0	0
25.84995	-0.0005263158	-0.07483558	0	0	0	0	0	0
25.86651	-0.0005263158	-0.07483558	0	0	0	0	0	0
25.88308	-0.0005263158	-0.07483558	0	0	0	0	0	0
25.9166	-0.0005526315	-0.07485487	-0.0007850818	-0.0005756906	-0.01567437	-0.01149382	0	0
25.93278	-0.0005526315	-0.07485487	0	0	0.01579648	0.01158336	0	0
25.94935	-0.0005526315	-0.07485487	0	0	0	0	0	0
25.96592	-0.0005526315	-0.07485487	0	0	0	0	0	0
25.98248	-0.0005263158	-0.07487416	0.001588421	-0.00116432	0.04794141	-0.03514126	0	0
25.99916	-0.0005263158	-0.07487416	0	0	-0.04777913	0.03502231	0	0
26.01562	-0.0005263158	-0.07487416	0	0	0	0	0	0
26.03218	-0.0005263158	-0.07487416	0	0	0	0	0	0
26.04875	-0.0005263158	-0.07487416	0	0	0	0	0	0
26.06532	-0.0005526315	-0.07485487	-0.001588604	0.001164454	-0.04794693	0.03514531	0	0
26.08222	-0.0005263158	-0.07487416	0.0015567	-0.001141067	0.09397338	-0.0688829	0	0
26.09845	-0.0005263158	-0.07487416	0	0	-0.04698399	0.03443947	0	0
26.11524	-0.0005263158	-0.07487416	0	0	0	0	0	0
26.13158	-0.0005263158	-0.07487416	0	0	0	0	0	0
26.16982	0	0	0.01376608	1.958375	0.2522416	35.88412	0	0
26.18626	-0.0005263158	-0.07487416	-0.03200801	-4.553489	-0.8371871	-119.099	0	0
26.20283	-0.0005263158	-0.07487416	0	0	0.9696316	137.9407	0	0
26.21939	-0.0005263158	-0.07487416	0	0	0	0	0	0
26.23596	-0.0005263158	-0.07487416	0	0	0	0	0	0
26.25253	-0.0005263158	-0.07487416	0	0	0	0	0	0
26.2691	-0.0005263158	-0.07487416	0	0	0	0	0	0
26.28566	-0.0005263158	-0.07487416	0	0	0	0	0	0
26.30238	-0.0005263158	-0.07487416	0	0	0	0	0	0
26.31889	-0.0005263158	-0.07487416	0	0	0	0	0	0
26.33536	-0.0005263158	-0.07487416	0	0	0	0	0	0
26.35193	-0.0005263158	-0.07487416	0	0	0	0	0	0
26.38506	-0.0005263158	-0.07487416	0	0	0	0	0	0
26.40163	-0.0005263158	-0.07487416	0	0	0	0	0	0
26.4182	-0.0005263158	-0.07487416	0	0	0	0	0	0
26.43497	-0.0005263158	-0.07487416	0	0	0	0	0	0
26.45133	-0.0005263158	-0.07487416	0	0	0	0	0	0
26.4679	-0.0005263158	-0.07487416	0	0	0	0	0	0
26.48446	-0.0005263158	-0.07487416	0	0	0	0	0	0
26.50103	-0.0005263158	-0.07487416	0	0	0	0	0	0
26.51759	-0.0005	-0.07489346	0.001588974	-0.001165172	0.04795808	-0.03516698	0	0
26.53416	-0.0005	-0.07489346	0	0	-0.0479636	0.03517103	0	0
26.55073	-0.0005	-0.07489346	0	0	0	0	0	0
26.5673	-0.0005	-0.07489346	0	0	0	0	0	0
26.58408	-0.0005	-0.07489346	0	0	0	0	0	0
26.60059	-0.0005	-0.07489346	0	0	0	0	0	0
26.62293	-0.0005	-0.07489346	0	0	0	0	0	0
26.63962	-0.0005	-0.07489346	0	0	0	0	0	0
26.65606	-0.0005	-0.07489346	0	0	0	0	0	0
26.67263	-0.0005	-0.07489346	0	0	0	0	0	0
26.6892	-0.0004736842	-0.07491276	0.001588425	-0.001164769	0.04794151	-0.03515483	0	0
26.70576	-0.0004736842	-0.07491276	0	0	-0.04793876	0.03515281	0	0
26.7886	-0.0004736842	-0.07491276	0	0	0	0	0	0
26.82174	-0.0004736842	-0.07491276	0	0	0	0	0	0
26.8383	-0.0004736842	-0.07491276	0	0	0	0	0	0
26.85487	-0.0004736842	-0.07491276	0	0	0	0	0	0
26.87144	-0.0004736842	-0.07491276	0	0	0	0	0	0
26.888	-0.0004736842	-0.07491276	0	0	0	0	0	0
26.90481	-0.0004736842	-0.07491276	0	0	0	0	0	0
26.92114	-0.0004736842	-0.07491276	0	0	0	0	0	0
26.94499	-0.0004736842	-0.07491276	0	0	0	0	0	0
26.96156	-0.0004736842	-0.07491276	0	0	0	0	0	0
26.97813	-0.0004736842	-0.07491276	0	0	0	0	0	0
26.99469	-0.0004736842	-0.07491276	0	0	0	0	0	0
27.01126	-0.0004736842	-0.07491276	0	0	0	0	0	0
27.02783	-0.0004736842	-0.07491276	0	0	0	0	0	0
27.0444	-0.0004736842	-0.07491276	0	0	0	0	0	0
27.06096	-0.0004736842	-0.07491276	0	0	0	0	0	0
27.07753	-0.0004736842	-0.07491276	0	0	0	0	0	0
27.0941	-0.0004736842	-0.07491276	0	0	0	0	0	0
27.11066	-0.0004736842	-0.07491276	0	0	0	0	0	0
27.12723	-0.0004736842	-0.07491276	0	0	0	0	0	0
27.1438	-0.0004736842	-0.07491276	0	0	0	0	0	0
27.16036	-0.0004736842	-0.07491276	0	0	0	0	0	0
27.17693	-0.0004736842	-0.07491276	0	0	0	0	0	0
27.19352	-0.0004736842	-0.07491276	0	0	0	0	0	0
27.21006	-0.0004736842	-0.07491276	0	0	0	0	0	0
27.22663	-0.0004736842	-0.07491276	0	0	0	0	0	0
27.2432	-0.0004736842	-0.07491276	0	0	0	0	0	0
27.25977	-0.0004736842	-0.07491276	0	0	0	0	0	0
27.27633	-0.0004473684	-0.07493205	0.00158824	-0.001164635	0.04793043	-0.03514674	0	0
27.2929	-0.0004473684	-0.07493205	0	0	-0.04793594	0.03515079	0	0
27.3096	-0.0004473684	-0.07493205	0	0	0	0	0	0
27.32611	-0.0004473684	-0.07493205	0	0	0	0	0	0
27.34262	-0.0004210526	-0.07495134	0.001593746	-0.00116822	0.04826047	-0.03537506	0	0
27.35917	-0.0004210526	-0.07495134	0	0	-0.0482187	0.03534444	0	0
27.37573	-0.0004210526	-0.07495134	0	0	0	0	0	0
27.3923	-0.0004210526	-0.07495134	0	0	0	0	0	0
27.40917	-0.0004210526	-0.07495134	0	0	0	0	0	0
27.42543	-0.0004210526	-0.07495134	0	0	0	0	0	0
27.442	-0.0004210526	-0.07495134	0	0	0	0	0	0
27.45857	-0.0004473684	-0.07497064	-0.001588425	-0.001164769	-0.04793876	-0.03515281	0	0
27.47513	-0.0004210526	-0.07498994	0.001588425	-0.001164769	0.09587751	0	0	0
27.4917	-0.0004210526	-0.07498994	0	0	-0.04793876	0.03515281	0	0
27.5414	-0.0003947368	-0.07500923	0.000529515	-0.0003882863	0.007990857	-0.005859589	0	0
27.55828	-0.000368421	-0.07502853	0.001559166	-0.001143314	0.01546579	-0.01134084	0	0
27.57453	-0.000368421	-0.07502853	0	0	-0.04705843	0.03450728	0	0
27.60767	-0.0003421053	-0.07504783	0.0007942115	-0.0005823847	0.01608077	-0.01179182	0	0
27.62423	-0.0003421053	-0.07504783	0	0	-0.01597957	0.0117176	0	0
27.6408	-0.0003421053	-0.07504783	0	0	0	0	0	0
27.65737	-0.0003421053	-0.07504783	0	0	0	0	0	0
27.67393	-0.0003421053	-0.07504783	0	0	0	0	0	0
27.6905	-0.0003157895	-0.07506713	0.001588425	-0.001164769	0.04793876	-0.03515281	0	0
27.7129	-0.0003157895	-0.07506713	0	0	-0.04076719	0.029894	0	0
27.72947	-0.0003157895	-0.07506713	0	0	0	0	0	0
27.74604	-0.0003157895	-0.07506713	0	0	0	0	0	0
27.76261	-0.0003157895	-0.07506713	0	0	0	0	0	0
27.77917	-0.0003157895	-0.07506713	0	0	0	0	0	0
27.79574	-0.0002894737	-0.07508641	0.00158824	-0.001164186	0.0479387	-0.03513924	0	0
27.81247	-0.0002894737	-0.07508641	0	0	-0.04769433	0.03496011	0	0
27.82898	-0.0002894737	-0.07508641	0	0	0	0	0	0
27.84543	-0.0002894737	-0.07508641	0	0	0	0	0	0
27.862	-0.0002894737	-0.07508641	0	0	0	0	0	0
27.87857	-0.0002631579	-0.07510571	0.001588425	-0.001164769	0.04793876	-0.03515281	0	0
27.89514	-0.0002631579	-0.07510571	0	0	-0.04793876	0.03515281	0	0
27.9117	-0.0002631579	-0.07510571	0	0	0	0	0	0
27.92827	-0.0002631579	-0.07510571	0	0	0	0	0	0
27.94484	-0.0002631579	-0.07510571	0	0	0	0	0	0
27.9614	-0.0002368421	-0.07512501	0.001588424	-0.001164769	0.04793873	-0.03515281	0	0
27.97797	-0.0002368421	-0.07512501	0	0	-0.04793873	0.03515281	0	0
27.99454	-0.0002368421	-0.07512501	0	0	0	0	0	0
28.01111	-0.0002368421	-0.07512501	0	0	0	0	0	0
28.02767	-0.0002368421	-0.07512501	0	0	0	0	0	0
28.04424	-0.0002368421	-0.07512501	0	0	0	0	0	0
28.0608	-0.0002368421	-0.07512501	0	0	0	0	0	0
28.07737	-0.0002368421	-0.07512501	0	0	0	0	0	0
28.09394	-0.0002368421	-0.07512501	0	0	0	0	0	0
28.1105	-0.0002368421	-0.07512501	0	0	0	0	0	0
28.12707	-0.0002368421	-0.07512501	0	0	0	0	0	0
28.14364	-0.0002368421	-0.07512501	0	0	0	0	0	0
28.16021	-0.0002368421	-0.07512501	0	0	0	0	0	0
28.17677	-0.0002368421	-0.07512501	0	0	0	0	0	0
28.19334	-0.0002368421	-0.07512501	0	0	0	0	0	0
28.20991	-0.0002368421	-0.07512501	0	0	0	0	0	0
28.22647	-0.0002368421	-0.07512501	0	0	0	0	0	0
28.24304	-0.0002368421	-0.07512501	0	0	0	0	0	0
28.25961	-0.0002105263	-0.07514431	0.001588424	-0.001164769	0.04793873	-0.03515281	0	0
28.27618	-0.0002105263	-0.07514431	0	0	-0.04793597	0.03515079	0	0
28.29274	-0.0002105263	-0.07514431	0	0	0	0	0	0
28.30931	-0.0002105263	-0.07514431	0	0	0	0	0	0
28.32588	-0.0002105263	-0.07514431	0	0	0	0	0	0
28.34244	-0.0002105263	-0.07514431	0	0	0	0	0	0
28.35901	-0.0002105263	-0.07514431	0	0	0	0	0	0
28.37558	-0.0002105263	-0.07514431	0	0	0	0	0	0
28.39215	-0.0001842105	-0.0751636	0.001588424	-0.001164769	0.04793873	-0.03515281	0	0
28.41515	-0.0001842105	-0.0751636	0	0	-0.04013647	0.02943152	0	0
28.43172	-0.0001842105	-0.0751636	0	0	0	0	0	0
28.44842	-0.0001842105	-0.0751636	0	0	0	0	0	0
28.46494	-0.0001842105	-0.0751636	0	0	0	0	0	0
28.48145	-0.0001842105	-0.0751636	0	0	0	0	0	0
28.49799	-0.0001842105	-0.0751636	0	0	0	0	0	0
28.51455	-0.0001842105	-0.0751636	0	0	0	0	0	0
28.53112	-0.0001842105	-0.0751636	0	0	0	0	0	0
28.54769	-0.0001842105	-0.0751636	0	0	0	0	0	0
28.64709	-0.0002105263	-0.07514431	-0.0002647424	0.000194132	-0.002282878	0.001674003	0	0
28.66365	-0.0002631579	-0.07510571	-0.003177214	0.002329807	-0.0251147	0.01841627	0	0
28.68022	-0.0002894737	-0.07508641	-0.001588425	0.001164769	0.04795251	-0.03516293	0	0
28.69679	-0.0003157895	-0.07506713	-0.001588423	0.00116432	5.270132E-08	-1.357235E-05	0	0
28.71362	-0.0004473684	-0.07497064	-0.007815256	0.005730819	-0.1864132	0.1367076	0	0
28.72993	-0.001131578	-0.074469	-0.04197556	0.03077509	-1.030901	0.755794	0	0
28.74715	-0.004921013	-0.07169233	-0.2199441	0.1611617	-5.307855	3.888738	0	0
28.77966	-0.01757714	-0.06243737	-0.389336	0.2847072	-3.40582	2.484026	0	0
28.79619	-0.04966964	-0.0392292	-1.941802	1.404243	-31.66093	22.83177	0	0
28.81276	-0.07020024	-0.02582292	-1.238944	0.8090182	21.2355	-17.98359	0	0
28.82933	-0.09784445	-0.0157446	-1.668608	0.6083289	-12.96577	-6.056117	0	0
28.84621	-0.1487098	-0.008659611	-3.013003	0.4196783	-40.19217	-5.639919	0	0
28.86272	-0.2074962	-0.003662185	-3.560654	0.3026907	-16.4007	-3.503467	0	0
28.87923	-0.2491847	-4.613627E-05	-2.52417	0.2189457	31.38412	-2.535748	0	0
28.89559	-0.2735211	0.001967354	-1.48796	0.1231077	31.5233	-2.915557	0	0
28.91226	-0.3019976	0.004881951	-1.707833	0.1747984	-6.656851	1.564983	0	0
28.92877	-0.3168716	0.01027204	-0.901327	0.326625	24.30961	4.57634	0	0
28.94529	-0.3147317	0.01121021	0.1295109	0.05677843	31.21316	-8.170795	0	0
28.96186	-0.3136129	0.01025327	0.06752605	-0.05776082	-1.873187	-3.461384	0	0
28.97842	-0.3136367	0.01023451	-0.001437464	-0.001132858	-2.081443	1.709134	0	0
28.99499	-0.3136844	0.01027204	-0.002874597	0.002265454	-0.04337525	0.1025672	0	0
29.01156	-0.3137796	0.0103471	-0.005747395	0.004530796	-0.08670122	0.06836815	0	0
29.02812	-0.3138034	0.0104034	-0.001437298	0.003398069	0.130079	-0.03418577	0	0
29.04469	-0.313851	0.01044093	-0.002874597	0.002265342	-0.04337775	-0.03418577	0	0
29.06136	-0.3138748	0.0104597	-0.001428582	0.001125746	0.04350809	-0.03428847	0	0
29.07787	-0.313851	0.01047846	0.001442113	0.001136465	0.08651822	0.0003230695	0	0
29.09439	-0.3138034	0.01051599	0.002883228	0.002272086	0.04363105	0.03438197	0	0
29.11096	-0.3134939	0.01075992	0.01868308	0.01472377	0.4775553	0.3763557	0	0
29.12752	-0.3101564	0.01338578	0.2014485	0.1584973	5.51587	4.339094	0	0
29.14442	-0.3091061	0.01421064	0.06217014	0.04882184	-4.162218	-3.277561	0	0
29.16093	-0.3086045	0.01460426	0.03037643	0.02383813	-0.9517021	-0.7478538	0	0
29.17744	-0.3086045	0.01456677	0	-0.002269961	-0.9197804	-0.7905377	0	0
29.19395	-0.3084373	0.01458551	0.01012845	0.001135243	0.3067013	0.1031135	0	0
29.21653	-0.3083656	0.01456677	0.003174364	-0.0008300946	-0.177903	-0.05027826	0	0
29.2331	-0.3083178	0.01456677	0.00288539	0	-0.007381876	0.02120486	0	0
29.24967	-0.3082222	0.0144918	0.005767183	-0.004525231	0.08697268	-0.1365717	0	0
29.26651	-0.3081028	0.01439808	0.007095676	-0.005565787	0.03976892	-0.03114942	0	0
29.28302	-0.308055	0.0143606	0.00289539	-0.002270542	-0.1259528	0.09881363	0	0
29.29953	-0.3079832	0.01430436	0.004342584	-0.00340556	0.04382523	-0.03437166	0	0
29.31593	-0.3079355	0.01426688	0.002912089	-0.002285118	-0.04345761	0.03403838	0	0
29.3325	-0.3078399	0.0141919	0.005770781	-0.00452568	0.08669971	-0.0679528	0	0
29.34907	-0.307816	0.01417315	0.001442529	-0.001131304	-0.1306194	0.1024366	0	0
29.36563	-0.307816	0.01417315	0	0	-0.04353812	0.03414478	0	0
29.3822	-0.307816	0.01417315	0	0	0	0	0	0
29.39877	-0.307816	0.01417315	0	0	0	0	0	0
29.41533	-0.307816	0.01417315	0	0	0	0	0	0
29.43213	-0.307816	0.01417315	0	0	0	0	0	0
29.44847	-0.307816	0.01417315	0	0	0	0	0	0
29.46526	-0.307816	0.01417315	0	0	0	0	0	0
29.51518	-0.307816	0.01421064	0	0.0007509465	0	0.01125632	0	0
29.53153	-0.3077921	0.01422939	0.001462394	0.001146826	0.0220682	0.005974	0	0
29.54821	-0.3077682	0.01424813	0.001432798	0.001123672	-0.0008961399	-0.0007010741	0	0
29.56466	-0.3077682	0.01424813	0	0	-0.04324441	-0.03391444	0	0
29.58123	-0.3077682	0.01424813	0	0	0	0	0	0
29.59779	-0.3077443	0.01426688	0.001442861	0.001131564	0.04354564	0.03415068	0	0
29.61475	-0.3077204	0.01428562	0.001409431	0.001105292	-0.0009972212	-0.0007837093	0	0
29.63093	-0.3077204	0.01428562	0	0	-0.04253916	-0.03335969	0	0
29.64749	-0.3077204	0.01428562	0	0	0	0	0	0
29.66406	-0.3077204	0.01428562	0	0	0	0	0	0
29.68062	-0.3076726	0.01424813	0.00288539	-0.002262812	0.08708627	-0.06829574	0	0
29.69731	-0.3058789	0.01287952	0.1075119	-0.08203326	3.146584	-2.399053	0	0
29.71382	-0.3005096	0.008789208	0.3250989	-0.2476617	6.553962	-4.988913	0	0
29.73033	-0.2872022	-0.0001214305	0.8063923	-0.5399608	14.57665	-8.85269	0	0
29.7469	-0.2682928	-0.004095623	1.140981	-0.2397999	10.11596	9.075068	0	0
29.76346	-0.2299639	-0.005320864	2.313805	-0.07396421	35.39183	5.004355	0	0
29.78003	-0.1954211	-0.005584822	2.085487	-0.01593619	-6.891855	1.751591	0	0
29.79659	-0.1717643	-0.005660242	1.427925	-0.004552382	-19.84753	0.3436036	0	0
29.81316	-0.1273336	-0.006207092	2.682151	-0.03301172	37.85479	-0.858954	0	0
29.82973	-0.09815722	-0.006904929	1.761091	-0.04212157	-27.79925	-0.2749516	0	0
29.84629	-0.0677907	-0.00826331	1.832927	-0.08199204	2.167993	-1.203293	0	0
29.86286	-0.05664985	-0.008735103	0.6723858	-0.02847415	-35.02317	1.61508	0	0
29.87944	-0.04496966	-0.008753976	0.7046929	-0.001138667	0.9747493	0.8247493	0	0
29.89599	-0.03916417	-0.009263591	0.3507026	-0.03078523	-10.68529	-0.8948897	0	0
29.91256	-0.03940065	-0.00932022	-0.01427382	-0.003418137	-11.01945	0.8262736	0	0
29.92913	-0.03940065	-0.00932022	0	0	0.4307848	0.1031596	0	0
29.9457	-0.03947948	-0.00937685	-0.004757243	-0.0034178	-0.1435656	-0.1031435	0	0
29.96227	-0.0395583	-0.009433481	-0.004757243	-0.003417856	0	-1.693274E-06	0	0
29.97883	-0.03961085	-0.009508991	-0.003172591	-0.004558829	0.04782765	-0.0344366	0	0
29.99985	-0.03971595	-0.009584501	-0.004999234	-0.003591849	-0.04859876	0.02572699	0	0
30.01654	-0.03976849	-0.009622257	-0.003149381	-0.002262794	0.04905696	0.03524569	0	0
30.03299	-0.03989987	-0.009678893	-0.00798666	-0.003443107	-0.1459894	-0.03562193	0	0
30.04955	-0.04000496	-0.009754408	-0.006344227	-0.004558641	0.04974916	-0.03378941	0	0
30.06657	-0.04053042	-0.01013201	-0.03087115	-0.02218419	-0.7302613	-0.5247806	0	0
30.08272	-0.04205414	-0.01118953	-0.09435045	-0.06548297	-1.913716	-1.305332	0	0
30.09925	-0.04349886	-0.01219071	-0.08740471	-0.06057105	0.2125469	0.1503101	0	0
30.11611	-0.04349886	-0.01215293	0	0.002241773	2.618136	1.881506	0	0
30.13238	-0.04349886	-0.01215293	0	0	0	-0.06766073	0	0
30.19865	-0.04376152	-0.011964	-0.003963647	0.002850957	-0.04801841	0.03453849	0	0
30.21522	-0.04376152	-0.011964	0	0	0.04785034	-0.03441761	0	0
30.23178	-0.04376152	-0.011964	0	0	0	0	0	0
30.24835	-0.04376152	-0.011964	0	0	0	0	0	0
30.26492	-0.04376152	-0.011964	0	0	0	0	0	0
30.28149	-0.04376152	-0.011964	0	0	0	0	0	0
30.29824	-0.04373525	-0.01198289	0.001568328	-0.001127979	0.04707479	-0.03385733	0	0
30.31462	-0.04370899	-0.011964	0.001602972	0.00115306	0.001045637	0.06884586	0	0
30.33119	-0.04370899	-0.011964	0	0	-0.04864663	-0.0349928	0	0
30.36432	-0.04370899	-0.011964	0	0	0	0	0	0
30.38089	-0.04368272	-0.01198289	0.001585481	-0.001140316	0.03189993	-0.0229432	0	0
30.39746	-0.04365645	-0.01200179	0.001585663	-0.001140447	5.509362E-06	-3.963367E-06	0	0
30.41432	-0.04365645	-0.01200179	0	0	-0.0474322	0.03411439	0	0
30.43059	-0.04365645	-0.01200179	0	0	0	0	0	0
30.44715	-0.04363019	-0.01202068	0.001585256	-0.001140316	0.04827944	-0.03472867	0	0
30.48029	-0.04360392	-0.01203957	0.0007926491	-0.0005701205	-0.01594605	0.01147148	0	0
30.49685	-0.04360392	-0.01203957	0	0	-0.01594874	0.01147129	0	0
30.51342	-0.04360392	-0.01203957	0	0	0	0	0	0
30.52999	-0.04360392	-0.01203957	0	0	0	0	0	0
30.54656	-0.04360392	-0.01203957	0	0	0	0	0	0
30.56312	-0.04357766	-0.01205846	0.001585663	-0.001140447	0.04785816	-0.03442075	0	0
30.57994	-0.04357766	-0.01205846	0	0	-0.04749724	0.03416117	0	0
30.59703	-0.04355139	-0.01207735	0.001536607	-0.001105376	0.04531326	-0.03259662	0	0
30.61282	-0.04355139	-0.01207735	0	0	-0.04673266	0.03361769	0	0
30.62948	-0.04355139	-0.01207735	0	0	0	0	0	0
30.64599	-0.04355139	-0.01207735	0	0	0	0	0	0
30.66253	-0.04355139	-0.01207735	0	0	0	0	0	0
30.67909	-0.04355139	-0.01207735	0	0	0	0	0	0
30.69566	-0.04355139	-0.01207735	0	0	0	0	0	0
30.71222	-0.04355139	-0.01207735	0	0	0	0	0	0
30.72879	-0.04355139	-0.01207735	0	0	0	0	0	0
30.74557	-0.04355139	-0.01207735	0	0	0	0	0	0
30.76193	-0.04352513	-0.01209625	0.001606191	-0.001155269	0.04846937	-0.03486206	0	0
30.77849	-0.04352513	-0.01209625	0	0	-0.04879798	0.03509842	0	0
30.81211	-0.04352513	-0.01209625	0	0	0	0	0	0
30.83366	-0.04349886	-0.01215293	0.0012185	-0.002629253	0.02208549	-0.0476556	0	0
30.85023	-0.04347259	-0.01217182	0.001585481	-0.001140372	0.00962596	0.03905356	0	0
30.86714	-0.04344633	-0.01219071	0.001552721	-0.001116968	-0.0009784332	0.0006990149	0	0
30.88336	-0.04342006	-0.01220961	0.001619413	-0.001164836	0.002012751	-0.001444642	0	0
30.89993	-0.04339379	-0.0122285	0.001585481	-0.001140372	-0.00103491	0.0007461202	0	0
30.91668	-0.04336753	-0.01224739	0.001568506	-0.001128219	-0.0005095314	0.0003648166	0	0
30.93307	-0.043315	-0.01228518	0.003205426	-0.00230581	0.04940232	-0.03553978	0	0
30.9497	-0.0432362	-0.01234186	0.00473681	-0.00340722	0.04637208	-0.03335197	0	0
30.9662	-0.04315739	-0.01239854	0.004776238	-0.003435581	0.00118994	-0.0008559257	0	0
30.98277	-0.04307859	-0.01245523	0.004756989	-0.003421848	-0.000582149	0.0004153419	0	0
30.99933	-0.04297353	-0.01253081	0.006341923	-0.004561995	0.04783613	-0.03441169	0	0
31.01625	-0.04289472	-0.01258749	0.004658299	-0.003350967	-0.05028218	0.0361679	0	0
31.03246	-0.04284219	-0.01262528	0.003239587	-0.002330449	-0.04281928	0.03080107	0	0
31.04903	-0.04276339	-0.01271977	0.004756667	-0.005702873	0.0462757	-0.1028695	0	0
31.06579	-0.04273712	-0.01273866	0.001567078	-0.001127303	-0.09570006	0.1372849	0	0
31.08217	-0.04273712	-0.01273866	0	0	-0.04729452	0.03402207	0	0
31.09873	-0.04271085	-0.01271977	0.001585481	0.001140541	0.04813251	0.03462489	0	0
31.1153	-0.04271085	-0.01271977	0	0	-0.04785265	-0.03442357	0	0
31.13187	-0.04271085	-0.01271977	0	0	0	0	0	0
31.14843	-0.04271085	-0.01271977	0	0	0	0	0	0
31.16536	-0.04273712	-0.01270087	-0.001552066	0.001116559	-0.0463426	0.03333893	0	0
31.18157	-0.04273712	-0.01270087	0	0	0.04684415	-0.03369975	0	0
31.19814	-0.04273712	-0.01270087	0	0	0	0	0	0
31.2147	-0.04273712	-0.01270087	0	0	0	0	0	0
31.2314	-0.04273712	-0.01270087	0	0	0	0	0	0
31.24783	-0.04273712	-0.01270087	0	0	0	0	0	0
31.26443	-0.04271085	-0.01271977	0.001582929	-0.001138762	0.04793293	-0.03448302	0	0
31.28097	-0.04271085	-0.01271977	0	0	-0.0477729	0.03436789	0	0
31.29753	-0.04271085	-0.01271977	0	0	0	0	0	0
31.3141	-0.04271085	-0.01271977	0	0	0	0	0	0
31.33067	-0.04271085	-0.01271977	0	0	0	0	0	0
31.34749	-0.04271085	-0.01271977	0	0	0	0	0	0
31.3638	-0.04271085	-0.01271977	0	0	0	0	0	0
31.38051	-0.04271085	-0.01271977	0	0	0	0	0	0
31.39702	-0.04273712	-0.01273866	-0.001591159	-0.001144626	-0.04789997	-0.03445761	0	0
31.4135	-0.04271085	-0.01275756	0.001593737	-0.001146537	0.09654274	-5.792623E-05	0	0
31.43007	-0.04271085	-0.01275756	0	0	-0.04822401	0.03469242	0	0
31.44664	-0.04268458	-0.01277645	0.001585481	-0.001140597	0.0478499	-0.03442329	0	0
31.4632	-0.04268458	-0.01277645	0	0	-0.0478499	0.03442329	0	0
31.48008	-0.04268458	-0.01277645	0	0	0	0	0	0
31.49634	-0.04268458	-0.01277645	0	0	0	0	0	0
31.5131	-0.04268458	-0.01277645	0	0	0	0	0	0
31.52947	-0.04268458	-0.01277645	0	0	0	0	0	0
31.54604	-0.04268458	-0.01277645	0	0	0	0	0	0
31.56719	-0.04268458	-0.01277645	0	0	0	0	0	0
31.58376	-0.04268458	-0.01277645	0	0	0	0	0	0
31.60032	-0.04268458	-0.01277645	0	0	0	0	0	0
31.61718	-0.04268458	-0.01277645	0	0	0	0	0	0
31.66659	-0.04268458	-0.01277645	0	0	0	0	0	0
31.68323	-0.04268458	-0.01277645	0	0	0	0	0	0
31.69972	-0.04268458	-0.01277645	0	0	0	0	0	0
31.71629	-0.04271085	-0.01279535	-0.001585298	-0.001140522	-0.04794374	-0.0344925	0	0
31.73286	-0.04271085	-0.01279535	0	0	0.04784714	0.034423	0	0
31.74943	-0.04268458	-0.01281425	0.001585116	-0.001140335	0.04783888	-0.03441536	0	0
31.76599	-0.04268458	-0.01281425	0	0	-0.04783613	0.03441338	0	0
31.78256	-0.04268458	-0.01281425	0	0	0	0	0	0
31.79913	-0.04268458	-0.01281425	0	0	0	0	0	0
31.81569	-0.04268458	-0.01285204	0	-0.00228125	0	-0.06884827	0	0
31.83234	-0.04265832	-0.01287094	0.001577851	-0.001135108	0.04750479	0.03450721	0	0
31.85757	-0.04263205	-0.01288984	0.001041312	-0.0007490523	-0.01281261	0.009219065	0	0
31.87414	-0.04260578	-0.01290873	0.001585481	-0.001140653	0.01301971	-0.009369403	0	0
31.89087	-0.04260578	-0.01290873	0	0	-0.04760601	0.03424952	0	0
31.90727	-0.04260578	-0.01290873	0	0	0	0	0	0
31.9239	-0.04260578	-0.01290873	0	0	0	0	0	0
32.02326	-0.04260578	-0.01294653	0	-0.0003803711	0	-0.003279352	0	0
32.03998	-0.04260578	-0.01294653	0	0	0	0.003276712	0	0
32.0564	-0.04260578	-0.01294653	0	0	0	0	0	0
32.07301	-0.04260578	-0.01294653	0	0	0	0	0	0
32.08953	-0.04257951	-0.01296543	0.001589507	-0.00114355	0.0479714	-0.0345124	0	0
32.1061	-0.04257951	-0.01296543	0	0	-0.04803223	0.03455616	0	0
32.12267	-0.04257951	-0.01296543	0	0	0	0	0	0
32.13923	-0.04257951	-0.01296543	0	0	0	0	0	0
32.16754	-0.04257951	-0.01296543	0	0	0	0	0	0
32.18411	-0.04257951	-0.01296543	0	0	0	0	0	0
32.20068	-0.04257951	-0.01296543	0	0	0	0	0	0
32.21724	-0.04257951	-0.01296543	0	0	0	0	0	0
32.23381	-0.04257951	-0.01296543	0	0	0	0	0	0
32.25037	-0.04257951	-0.01296543	0	0	0	0	0	0
32.28351	-0.04257951	-0.01296543	0	0	0	0	0	0
32.30017	-0.04257951	-0.01296543	0	0	0	0	0	0
32.31664	-0.04257951	-0.01296543	0	0	0	0	0	0
32.33321	-0.04257951	-0.01296543	0	0	0	0	0	0
32.34977	-0.04257951	-0.01296543	0	0	0	0	0	0
32.36634	-0.04257951	-0.01296543	0	0	0	0	0	0
32.38291	-0.04257951	-0.01296543	0	0	0	0	0	0
32.40418	-0.04257951	-0.01296543	0	0	0	0	0	0
32.42075	-0.04257951	-0.01296543	0	0	0	0	0	0
32.43731	-0.04257951	-0.01296543	0	0	0	0	0	0
32.45388	-0.04257951	-0.01296543	0	0	0	0	0	0
32.47044	-0.04257951	-0.01296543	0	0	0	0	0	0
32.48701	-0.04257951	-0.01296543	0	0	0	0	0	0
32.50358	-0.04257951	-0.01296543	0	0	0	0	0	0
32.52032	-0.04257951	-0.01296543	0	0	0	0	0	0
32.53683	-0.04257951	-0.01296543	0	0	0	0	0	0
32.55334	-0.04257951	-0.01296543	0	0	0	0	0	0
32.56984	-0.04257951	-0.01296543	0	0	0	0	0	0
32.58641	-0.04257951	-0.01296543	0	0	0	0	0	0
32.60298	-0.04257951	-0.01296543	0	0	0	0	0	0
32.61954	-0.04257951	-0.01296543	0	0	0	0	0	0
32.63611	-0.04257951	-0.01296543	0	0	0	0	0	0
32.65268	-0.04257951	-0.01296543	0	0	0	0	0	0
32.66943	-0.04257951	-0.01296543	0	0	0	0	0	0
32.68581	-0.04257951	-0.01296543	0	0	0	0	0	0
32.70238	-0.04257951	-0.01296543	0	0	0	0	0	0
32.71895	-0.04257951	-0.01296543	0	0	0	0	0	0
32.73552	-0.04257951	-0.01296543	0	0	0	0	0	0
32.75209	-0.04257951	-0.01296543	0	0	0	0	0	0
32.76865	-0.04257951	-0.01296543	0	0	0	0	0	0
32.78522	-0.04257951	-0.01296543	0	0	0	0	0	0
32.80178	-0.04257951	-0.01296543	0	0	0	0	0	0
32.81854	-0.04257951	-0.01296543	0	0	0	0	0	0
32.83505	-0.04257951	-0.01296543	0	0	0	0	0	0
32.85156	-0.04257951	-0.01296543	0	0	0	0	0	0
32.90118	-0.04257951	-0.01296543	0	0	0	0	0	0
32.91775	-0.04257951	-0.01296543	0	0	0	0	0	0
32.93431	-0.04257951	-0.01296543	0	0	0	0	0	0
32.95088	-0.04257951	-0.01296543	0	0	0	0	0	0
32.96745	-0.04257951	-0.01296543	0	0	0	0	0	0
32.98415	-0.04257951	-0.01296543	0	0	0	0	0	0
33.00066	-0.04257951	-0.01296543	0	0	0	0	0	0
33.01718	-0.04257951	-0.01296543	0	0	0	0	0	0
33.03371	-0.04257951	-0.01296543	0	0	0	0	0	0
33.05028	-0.04257951	-0.01296543	0	0	0	0	0	0
33.06684	-0.04257951	-0.01296543	0	0	0	0	0	0
33.08341	-0.04257951	-0.01296543	0	0	0	0	0	0
33.10023	-0.04257951	-0.01296543	0	0	0	0	0	0
33.11655	-0.04257951	-0.01296543	0	0	0	0	0	0
33.13326	-0.04257951	-0.01296543	0	0	0	0	0	0
33.14968	-0.04257951	-0.01296543	0	0	0	0	0	0
33.17128	-0.04257951	-0.01296543	0	0	0	0	0	0
33.18784	-0.04257951	-0.01296543	0	0	0	0	0	0
33.20441	-0.04257951	-0.01296543	0	0	0	0	0	0
33.22133	-0.04257951	-0.01296543	0	0	0	0	0	0
33.23755	-0.04257951	-0.01296543	0	0	0	0	0	0
33.25435	-0.04257951	-0.01296543	0	0	0	0	0	0
33.27068	-0.04257951	-0.01296543	0	0	0	0	0	0
33.28725	-0.04257951	-0.01296543	0	0	0	0	0	0
33.30388	-0.04257951	-0.01296543	0	0	0	0	0	0
33.3204	-0.04257951	-0.01296543	0	0	0	0	0	0
33.33695	-0.04257951	-0.01296543	0	0	0	0	0	0
33.35352	-0.04257951	-0.01296543	0	0	0	0	0	0
33.37008	-0.04257951	-0.01296543	0	0	0	0	0	0
33.38694	-0.04257951	-0.01296543	0	0	0	0	0	0
33.40321	-0.04257951	-0.01296543	0	0	0	0	0	0
33.41978	-0.04257951	-0.01296543	0	0	0	0	0	0
33.43648	-0.04257951	-0.01296543	0	0	0	0	0	0
33.45299	-0.04257951	-0.01296543	0	0	0	0	0	0
33.46951	-0.04257951	-0.01296543	0	0	0	0	0	0
33.48605	-0.04257951	-0.01296543	0	0	0	0	0	0
33.50262	-0.04257951	-0.01296543	0	0	0	0	0	0
33.51918	-0.04257951	-0.01296543	0	0	0	0	0	0
33.53575	-0.04257951	-0.01296543	0	0	0	0	0	0
33.55232	-0.04257951	-0.01296543	0	0	0	0	0	0
33.56889	-0.04257951	-0.01296543	0	0	0	0	0	0
33.58545	-0.04257951	-0.01296543	0	0	0	0	0	0
33.60202	-0.04257951	-0.01296543	0	0	0	0	0	0
33.61858	-0.04257951	-0.01296543	0	0	0	0	0	0
33.63515	-0.04257951	-0.01296543	0	0	0	0	0	0
33.65172	-0.04257951	-0.01296543	0	0	0	0	0	0
33.66865	-0.04257951	-0.01296543	0	0	0	0	0	0
33.68516	-0.04257951	-0.01296543	0	0	0	0	0	0
33.70167	-0.04257951	-0.01296543	0	0	0	0	0	0
33.71798	-0.04257951	-0.01296543	0	0	0	0	0	0
33.73455	-0.04257951	-0.01296543	0	0	0	0	0	0
33.75112	-0.04257951	-0.01296543	0	0	0	0	0	0
33.76768	-0.04257951	-0.01296543	0	0	0	0	0	0
33.78425	-0.04257951	-0.01296543	0	0	0	0	0	0
33.80082	-0.04257951	-0.01296543	0	0	0	0	0	0
33.81738	-0.04257951	-0.01296543	0	0	0	0	0	0
33.83395	-0.04257951	-0.01296543	0	0	0	0	0	0
33.85077	-0.04257951	-0.01296543	0	0	0	0	0	0
33.86708	-0.04257951	-0.01296543	0	0	0	0	0	0
33.90656	-0.04257951	-0.01296543	0	0	0	0	0	0
33.92312	-0.04257951	-0.01296543	0	0	0	0	0	0
33.93983	-0.04257951	-0.01296543	0	0	0	0	0	0
33.95634	-0.04257951	-0.01296543	0	0	0	0	0	0
33.97282	-0.04257951	-0.01296543	0	0	0	0	0	0
33.98939	-0.04257951	-0.01296543	0	0	0	0	0	0
34.00596	-0.04257951	-0.01296543	0	0	0	0	0	0
34.0229	-0.04257951	-0.01296543	0	0	0	0	0	0
34.03941	-0.04257951	-0.01296543	0	0	0	0	0	0
34.05566	-0.04257951	-0.01296543	0	0	0	0	0	0
34.07243	-0.04257951	-0.01296543	0	0	0	0	0	0
34.08879	-0.04257951	-0.01296543	0	0	0	0	0	0
34.10545	-0.04257951	-0.01296543	0	0	0	0	0	0
34.12197	-0.04257951	-0.01296543	0	0	0	0	0	0
34.1385	-0.04257951	-0.01296543	0	0	0	0	0	0
34.15506	-0.04257951	-0.01296543	0	0	0	0	0	0
34.17163	-0.04257951	-0.01296543	0	0	0	0	0	0
34.1882	-0.04257951	-0.01296543	0	0	0	0	0	0
34.20476	-0.04257951	-0.01296543	0	0	0	0	0	0
34.22133	-0.04257951	-0.01296543	0	0	0	0	0	0
34.2379	-0.04257951	-0.01296543	0	0	0	0	0	0
34.25446	-0.04257951	-0.01296543	0	0	0	0	0	0
34.27103	-0.04257951	-0.01296543	0	0	0	0	0	0
34.2876	-0.04257951	-0.01296543	0	0	0	0	0	0
34.30416	-0.04257951	-0.01296543	0	0	0	0	0	0
34.32073	-0.04257951	-0.01296543	0	0	0	0	0	0
34.33762	-0.04257951	-0.01296543	0	0	0	0	0	0
34.35413	-0.04257951	-0.01296543	0	0	0	0	0	0
34.37064	-0.04257951	-0.01296543	0	0	0	0	0	0
34.387	-0.04257951	-0.01296543	0	0	0	0	0	0
34.40356	-0.04257951	-0.01296543	0	0	0	0	0	0
34.42013	-0.04257951	-0.01296543	0	0	0	0	0	0
34.4367	-0.04257951	-0.01296543	0	0	0	0	0	0
34.45327	-0.04257951	-0.01296543	0	0	0	0	0	0
34.46983	-0.04257951	-0.01296543	0	0	0	0	0	0
34.48673	-0.04257951	-0.01296543	0	0	0	0	0	0
34.50297	-0.04257951	-0.01296543	0	0	0	0	0	0
34.51975	-0.04257951	-0.01296543	0	0	0	0	0	0
34.54316	-0.04257951	-0.01296543	0	0	0	0	0	0
34.55978	-0.04257951	-0.01296543	0	0	0	0	0	0
34.5763	-0.04257951	-0.01296543	0	0	0	0	0	0
34.59286	-0.04257951	-0.01296543	0	0	0	0	0	0
34.60943	-0.04257951	-0.01296543	0	0	0	0	0	0
34.62633	-0.04257951	-0.01296543	0	0	0	0	0	0
34.64257	-0.04257951	-0.01296543	0	0	0	0	0	0
34.65913	-0.04257951	-0.01296543	0	0	0	0	0	0
34.6757	-0.04257951	-0.01296543	0	0	0	0	0	0
34.69238	-0.04257951	-0.01296543	0	0	0	0	0	0
34.70888	-0.04257951	-0.01296543	0	0	0	0	0	0
34.7254	-0.04257951	-0.01296543	0	0	0	0	0	0
34.74196	-0.04257951	-0.01296543	0	0	0	0	0	0
34.75853	-0.04257951	-0.01296543	0	0	0	0	0	0
34.7751	-0.04257951	-0.01296543	0	0	0	0	0	0
34.79194	-0.04257951	-0.01296543	0	0	0	0	0	0
34.80846	-0.04257951	-0.01296543	0	0	0	0	0	0
34.82479	-0.04257951	-0.01296543	0	0	0	0	0	0
34.84136	-0.04257951	-0.01296543	0	0	0	0	0	0
34.85794	-0.04257951	-0.01296543	0	0	0	0	0	0
34.8745	-0.04257951	-0.01296543	0	0	0	0	0	0
34.89152	-0.04257951	-0.01296543	0	0	0	0	0	0
34.90763	-0.04257951	-0.01296543	0	0	0	0	0	0
34.9242	-0.04257951	-0.01296543	0	0	0	0	0	0
34.94077	-0.04257951	-0.01296543	0	0	0	0	0	0
34.95756	-0.04257951	-0.01296543	0	0	0	0	0	0
34.9739	-0.04257951	-0.01296543	0	0	0	0	0	0
34.99047	-0.04257951	-0.01296543	0	0	0	0	0	0
35.00703	-0.04257951	-0.01296543	0	0	0	0	0	0
35.02361	-0.04257951	-0.01296543	0	0	0	0	0	0
35.04016	-0.04257951	-0.01296543	0	0	0	0	0	0
35.05673	-0.04257951	-0.01296543	0	0	0	0	0	0
35.0733	-0.04257951	-0.01296543	0	0	0	0	0	0
35.08987	-0.04257951	-0.01296543	0	0	0	0	0	0
35.10667	-0.04257951	-0.01296543	0	0	0	0	0	0
35.123	-0.04257951	-0.01296543	0	0	0	0	0	0
35.13957	-0.04257951	-0.01296543	0	0	0	0	0	0
35.15614	-0.04257951	-0.01296543	0	0	0	0	0	0
35.1727	-0.04265832	-0.01309771	-0.004756667	-0.007984854	-0.1435565	-0.2409834	0	0
35.18927	-0.04405043	-0.01504485	-0.08402822	-0.1175295	-2.39242	-3.306062	0	0
35.20584	-0.04825199	-0.02345199	-0.2536065	-0.5074562	-5.117883	-11.76801	0	0
35.2224	-0.04961714	-0.0392292	-0.08240047	-0.952314	5.167008	-13.42584	0	0
35.23897	-0.04885583	-0.06732082	0.04595263	-1.695613	3.873704	-22.43282	0	0
35.2793	-0.04426055	-0.1295157	0.1139449	-1.542188	1.195022	2.696581	0	0
35.2956	-0.04276339	-0.1422183	0.09184944	-0.7792891	-0.3901771	13.47184	0	0
35.31234	-0.03637868	-0.157818	0.3815163	-0.9321575	8.768409	-4.627429	0	0
35.32877	-0.02870264	-0.1613298	0.4669826	-0.2136462	2.576413	21.65978	0	0
35.3454	-0.0245214	-0.1617891	0.2515116	-0.02762879	-6.517184	5.626324	0	0
35.36187	-0.02491589	-0.1614895	-0.02394964	0.01818695	-8.323018	1.384315	0	0
35.37888	-0.0248896	-0.1614696	0.001546443	0.001174153	0.7615822	-0.5081816	0	0
35.395	-0.0249422	-0.1614296	-0.003261252	0.002476053	-0.1450965	0.0392914	0	0
35.41157	-0.02502109	-0.1613697	-0.004762288	0.003615732	-0.04590918	0.0348571	0	0
35.42814	-0.02531038	-0.1611501	-0.01746165	0.01325858	-0.3832674	0.2910218	0	0
35.44471	-0.02599414	-0.160631	-0.04125286	0.03131743	-0.7178547	0.5448915	0	0
35.46143	-0.02612563	-0.1605312	-0.007864303	0.005969441	1.002819	-0.7613224	0	0
35.47795	-0.02644121	-0.1602518	-0.0191051	0.01691776	-0.3381968	0.329397	0	0
35.4944	-0.02678307	-0.1599923	-0.02077839	0.01576991	-0.05075108	-0.03481457	0	0
35.51097	-0.02807157	-0.1590146	-0.07777422	0.05901379	-1.726099	1.309626	0	0
35.52754	-0.02970179	-0.1577781	-0.0984002	0.07463429	-0.6224933	0.4714277	0	0
35.5441	-0.0296492	-0.1572997	0.00317484	0.02888664	3.065894	-1.380826	0	0
35.56067	-0.02796639	-0.1559844	0.1015748	0.07938961	2.970057	1.524358	0	0
35.57724	-0.020918	-0.1505319	0.4254417	0.3291117	9.774324	7.536628	0	0
35.5938	-0.01523566	-0.1462028	0.3429866	0.261305	-2.488502	-2.04641	0	0
35.61037	-0.001289473	-0.1356315	0.8417937	0.638085	15.05403	11.37124	0	0
35.62694	0.009999666	-0.1272902	0.6812569	0.5033685	-4.844451	-4.065284	0	0
35.64356	0.02133887	-0.1190554	0.6822361	0.4954568	0.02950092	-0.2383652	0	0
35.66007	0.03561651	-0.1093224	0.8647872	0.5895197	5.510035	2.839153	0	0
35.67664	0.0498534	-0.1009702	0.8593401	0.5041401	-0.1646761	-2.581221	0	0
35.69321	0.05376393	-0.09923676	0.2360401	0.10463	-18.81123	-12.05724	0	0
35.70977	0.06716199	-0.0952095	0.8087089	0.2430856	17.28318	4.178597	0	0
35.72634	0.09228972	-0.09200376	1.516712	0.1934992	21.36759	-1.496519	0	0
35.74291	0.1229556	-0.0902762	1.850568	0.1042516	10.07462	-2.693188	0	0
35.75966	0.1464956	-0.08928675	1.405666	0.05908359	-13.35337	-1.355683	0	0
35.77616	0.176053	-0.08744464	1.791101	0.111627	11.59239	1.580305	0	0
35.79317	0.1953705	-0.08511956	1.135416	0.1366605	-19.56338	0.7469134	0	0
35.80919	0.2174788	-0.08223537	1.380887	0.1801464	7.433154	1.316802	0	0
35.8262	0.2303131	-0.07892907	0.7543573	0.1943329	-18.97204	0.4295842	0	0
35.84231	0.2402921	-0.07551097	0.6194472	0.2121798	-4.073	0.5388065	0	0
35.85888	0.2497284	-0.07009314	0.5695758	0.3270209	-1.526206	3.514467	0	0
35.87547	0.2547378	-0.06622419	0.3018101	0.233101	-8.07375	-2.8319	0	0
35.89201	0.2577175	-0.06393611	0.1801867	0.1383633	-3.670602	-2.859192	0	0
35.90858	0.2616258	-0.06161148	0.2359076	0.1403154	1.683212	0.05896916	0	0
35.92527	0.263859	-0.05990282	0.1338107	0.1023801	-3.069981	-1.140685	0	0
35.94171	0.2679502	-0.05677614	0.2487804	0.1901282	3.469791	2.648241	0	0
35.95829	0.2684396	-0.05639273	0.02951888	0.02312651	-6.639492	-5.057004	0	0
35.98243	0.2684396	-0.05639273	0	0	-0.7250255	-0.5680199	0	0
35.99899	0.2684396	-0.05639273	0	0	0	0	0	0
36.01556	0.2684396	-0.05639273	0	0	0	0	0	0
36.03213	0.2684641	-0.0564119	0.001475075	-0.001156899	0.04451784	-0.03491529	0	0
36.04869	0.2684641	-0.0564119	0	0	-0.04451784	0.03491529	0	0
36.06526	0.2684641	-0.0564119	0	0	0	0	0	0
36.08183	0.2684641	-0.05645024	0	-0.002314249	0	-0.06984416	0	0
36.0984	0.2684641	-0.05645024	0	0	0	0.06984416	0	0
36.11496	0.2684641	-0.05645024	0	0	0	0	0	0
36.13153	0.2684396	-0.05646941	-0.001475075	-0.001157124	-0.04451784	-0.03492208	0	0
36.1481	0.2684152	-0.05648857	-0.001476874	-0.001156899	-5.42929E-05	6.78793E-06	0	0
36.16466	0.2683662	-0.05652691	-0.002954428	-0.002314782	-0.0445978	-0.03494897	0	0
36.18123	0.2682439	-0.05658443	-0.007384369	-0.003471373	-0.1337113	-0.03491001	0	0
36.1978	0.2679013	-0.05685282	-0.02067803	-0.01620064	-0.4012035	-0.38417	0	0
36.21436	0.2676321	-0.05702538	-0.01625295	-0.01041787	0.1335645	0.1745445	0	0
36.23098	0.2675342	-0.05710207	-0.005888954	-0.004613238	0.3122827	0.1749021	0	0
36.24749	0.2674852	-0.05710207	-0.00296579	0	0.08822129	0.1392278	0	0
36.26406	0.2674363	-0.05714042	-0.002953748	-0.002314698	0.000364057	-0.06997858	0	0
36.28063	0.2673384	-0.05721712	-0.005911093	-0.004629621	-0.08925286	-0.06986452	0	0
36.2972	0.2670936	-0.05740887	-0.01477593	-0.01157417	-0.2675414	-0.2095868	0	0
36.31376	0.2669956	-0.05748558	-0.005912892	-0.004629846	0.2674871	0.20958	0	0
36.33213	0.2669711	-0.05750475	-0.0013321	-0.0010441	0.1311233	0.1026405	0	0
36.3487	0.2669222	-0.05750475	-0.002954866	0	-0.04644593	0.02988369	0	0
36.36527	0.2669222	-0.05750475	0	0	0.08916776	0	0	0
36.38184	0.2669222	-0.05750475	0	0	0	0	0	0
36.3984	0.2668977	-0.05748558	-0.001478673	0.001157574	-0.04462643	0.03493565	0	0
36.41497	0.2668732	-0.05750475	-0.001476874	-0.001157574	5.428939E-05	-0.06987131	0	0
36.4481	0.2668487	-0.05748558	-0.0007393363	0.000578787	0.01483928	0.03493565	0	0
36.53094	0.2667263	-0.0573897	-0.001477953	0.001157439	-0.006368999	0.004989644	0	0
36.54751	0.2667018	-0.05737052	-0.001478673	0.001157574	-7.238819E-06	1.357352E-06	0	0
36.56423	0.2666773	-0.05735135	-0.001464844	0.001146525	0.000415395	-0.0003318817	0	0
36.58064	0.2666038	-0.05737052	-0.00447752	-0.001168651	-0.0909332	-0.0698802	0	0
36.59726	0.2664814	-0.0573897	-0.007367711	-0.001154119	-0.08751835	0.000440032	0	0
36.61377	0.2662854	-0.05750475	-0.01186309	-0.00696562	-0.1356709	-0.1753914	0	0
36.63034	0.2654035	-0.05800339	-0.05323581	-0.0300976	-1.250503	-0.6991709	0	0
36.64691	0.2597095	-0.05903929	-0.3436888	-0.06252721	-8.76589	-0.9787276	0	0
36.68004	0.2428723	-0.05612437	-0.508148	0.08797248	-3.308925	3.02806	0	0
36.70177	0.178042	-0.03917202	-2.983652	0.7801889	-45.12158	12.61719	0	0
36.71834	0.1435325	-0.02783489	-2.082519	0.6841534	23.52856	-2.507484	0	0
36.73491	0.09732313	-0.0122285	-2.789843	0.9422204	-21.34708	7.78848	0	0
36.75148	0.06307412	-0.0009874364	-2.066799	0.6783556	21.82151	-7.963456	0	0
36.76804	0.02943886	0.009296071	-2.030696	0.6208567	1.089584	-1.735321	0	0
36.78489	0.007578802	0.0154663	-1.29737	0.3661962	21.94736	-7.621615	0	0
36.8014	-0.0440767	0.02631746	-3.128016	0.6570954	-54.86996	8.719128	0	0
36.81774	-0.07234719	0.02937974	-1.730316	0.1874289	42.54513	-14.29636	0	0
36.83431	-0.08087584	0.03020088	-0.5147899	0.04956442	36.9398	-4.189698	0	0
36.85088	-0.1156916	0.03284968	-2.101483	0.1598818	-47.88649	3.329386	0	0
36.86744	-0.1315258	0.0342852	-0.9557531	0.08664805	34.57819	-2.210199	0	0
36.88401	-0.134964	0.03299885	-0.2075313	-0.07764403	22.58138	-4.958345	0	0
36.90058	-0.1331806	0.03201048	0.1076427	-0.05965823	9.511971	0.5428123	0	0
36.91714	-0.1325084	0.03174936	0.04057445	-0.01576149	-2.024123	1.324806	0	0
36.93371	-0.1324567	0.03182397	0.003122661	0.004504513	-1.130427	0.6116996	0	0
36.95051	-0.1323792	0.03187992	0.004615671	0.003329845	0.0447449	-0.03520429	0	0
36.96684	-0.1323274	0.03191723	0.003167156	0.002284349	-0.04371628	-0.03155315	0	0
36.98341	-0.1322757	0.03195453	0.003121042	0.002251513	-0.001401707	-0.0009981131	0	0
36.99998	-0.1321464	0.03193588	0.007804405	-0.001125644	0.1413442	-0.1019228	0	0
37.01654	-0.1320689	0.03191723	0.004682463	-0.001125869	-0.09422039	-6.78793E-06	0	0
37.03311	-0.1319913	0.03189857	0.004683363	-0.001125869	2.715172E-05	0	0	0
37.04968	-0.1318878	0.03197318	0.006242984	0.004503251	0.04706948	0.1698872	0	0
37.06625	-0.1316292	0.03215969	0.01561061	0.01125756	0.2827155	0.2038456	0	0
37.08311	-0.1315258	0.03215969	0.00613511	0	-0.2834583	-0.3367686	0	0
37.09938	-0.1312671	0.03197318	0.01589702	-0.01146345	0.2946489	-0.3460074	0	0
37.11594	-0.1306722	0.03161879	0.03591088	-0.02139106	0.6094928	-0.3023308	0	0
37.13251	-0.1274631	0.02937974	0.1937016	-0.1351495	4.762134	-3.433236	0	0
37.14915	-0.1209852	0.02482272	0.3892158	-0.2738013	5.887074	-4.174909	0	0
37.16565	-0.1162368	0.02151338	0.28787	-0.2006297	-3.058269	2.208069	0	0
37.24849	-0.04680789	-0.002042009	0.8381478	-0.2843612	5.539844	-0.8429551	0	0
37.26505	-0.02673047	-0.004001393	1.211875	-0.1182686	3.759706	1.670895	0	0
37.28175	-0.01334131	-0.005528257	0.8017104	-0.09142495	-12.32912	0.8068923	0	0
37.29818	-0.003052622	-0.007923662	0.6262175	-0.1457954	-5.296998	-1.641093	0	0
37.31475	0.006157817	-0.01181287	0.5559433	-0.2347531	-2.129707	-2.695921	0	0
37.33132	0.01042068	-0.01487467	0.2573067	-0.1848103	-9.01287	1.507277	0	0
37.34789	0.01199942	-0.01600941	0.09529343	-0.06849305	-4.889569	3.510461	0	0
37.38102	0.01189418	-0.01597157	-0.003176386	0.001141778	-1.981217	1.401056	0	0
37.39758	0.01186786	-0.01595266	-0.001588545	0.001141984	0.03194988	4.16021E-06	0	0
37.41415	0.0117363	-0.01582025	-0.007941007	0.007991938	-0.1917398	0.2067558	0	0
37.43072	0.01168368	-0.01578243	-0.003176414	0.00228333	0.1437957	-0.1722861	0	0
37.44728	0.01165737	-0.01576351	-0.001588235	0.001141721	0.04793133	-0.03445382	0	0
37.46385	0.01165737	-0.01576351	0	0	0.04793303	-0.03445722	0	0
37.48042	0.01165737	-0.01576351	0	0	0	0	0	0
37.51355	0.01168368	-0.01578243	0.0007941176	-0.0005708607	0.01597768	-0.01148574	0	0
