Time	Pos X	Pos Y	Vel X	Vel Y	Acc X	Acc YForce X	Force Y
0.01636067	-0.03072717	-0.06555104	0.0004956305	0.001057341	-7.996673E-06	-1.70595E-05	0	0
0.03750342	-0.03072717	-0.06555104	0	0	7.99727E-06	1.706077E-05	0	0
0.0540745	-0.03072717	-0.06555104	0	0	0	0	0	0
0.07064083	-0.03072717	-0.06555104	0	0	0	0	0	0
0.08755653	-0.03075346	-0.06557027	-0.00155425	-0.001136811	-0.04642043	-0.03395285	0	0
0.1037743	-0.03075346	-0.06557027	0	0	0.04690878	0.03431004	0	0
0.120341	-0.03075346	-0.06557027	0	0	0	0	0	0
0.1370925	-0.03075346	-0.06557027	0	0	0	0	0	0
0.1534733	-0.03075346	-0.06557027	0	0	0	0	0	0
0.1866076	-0.03075346	-0.06557027	0	0	0	0	0	0
0.2031727	-0.03075346	-0.06557027	0	0	0	0	0	0
0.2197422	-0.03075346	-0.06557027	0	0	0	0	0	0
0.2363074	-0.03075346	-0.06557027	0	0	0	0	0	0
0.2528749	-0.03075346	-0.06557027	0	0	0	0	0	0
0.2696868	-0.03075346	-0.06557027	0	0	0	0	0	0
0.2860072	-0.03075346	-0.06557027	0	0	0	0	0	0
0.3027081	-0.03077975	-0.0655895	-0.001574124	-0.001151428	-0.04766987	-0.03486919	0	0
0.3192228	-0.03077975	-0.0655895	0	0	0.04739113	0.0346653	0	0
0.3357082	-0.03075346	-0.06560872	0.001594704	-0.001166482	0.04832429	-0.03534788	0	0
0.3522738	-0.03077975	-0.06562796	-0.00158699	-0.001161289	-0.09626623	0.0001571296	0	0
0.3688393	-0.03077975	-0.06562796	0	0	0.04790027	0.03505129	0	0
0.4019748	-0.03077975	-0.06562796	0	0	0	0	0	0
0.418789	-0.03077975	-0.06562796	0	0	0	0	0	0
0.4351075	-0.03077975	-0.06562796	0	0	0	0	0	0
0.451673	-0.03077975	-0.06562796	0	0	0	0	0	0
0.4683388	-0.03077975	-0.06562796	0	0	0	0	0	0
0.4848077	-0.03077975	-0.06562796	0	0	0	0	0	0
0.5013752	-0.03077975	-0.06562796	0	0	0	0	0	0
0.5179408	-0.03077975	-0.06562796	0	0	0	0	0	0
0.5345071	-0.03080604	-0.06564719	-0.001587028	-0.001160785	-0.0479003	-0.03503526	0	0
0.5513802	-0.03080604	-0.06564719	0	0	0.04745982	0.03471309	0	0
0.5678952	-0.03080604	-0.06564719	0	0	0	0	0	0
0.5842077	-0.03080604	-0.06564719	0	0	0	0	0	0
0.6007745	-0.03080604	-0.06564719	0	0	0	0	0	0
0.6174293	-0.03080604	-0.06564719	0	0	0	0	0	0
0.6339056	-0.03080604	-0.06564719	0	0	0	0	0	0
0.6504739	-0.03080604	-0.06564719	0	0	0	0	0	0
0.6670402	-0.03083233	-0.06562796	-0.001587028	0.001160785	-0.04789634	0.03503236	0	0
0.6836078	-0.03083233	-0.06562796	0	0	0.04789745	-0.03503318	0	0
0.7005088	-0.03080604	-0.06560872	0.001555595	0.001138235	0.04647924	0.03400904	0	0
0.7167408	-0.03080604	-0.06560872	0	0	-0.04694999	-0.03435349	0	0
0.7333071	-0.03080604	-0.06560872	0	0	0	0	0	0
0.7500247	-0.03080604	-0.06560872	0	0	0	0	0	0
0.766535	-0.03080604	-0.06560872	0	0	0	0	0	0
0.7830504	-0.03080604	-0.06560872	0	0	0	0	0	0
0.7995741	-0.03083233	-0.06562796	-0.001591121	-0.001164229	-0.04815865	-0.03523787	0	0
0.816568	-0.03083233	-0.06562796	0	0	0.04747121	0.03473487	0	0
0.8327068	-0.03083233	-0.06562796	0	0	0	0	0	0
0.8495972	-0.03080604	-0.06564719	0.001556578	-0.001138513	0.04712734	-0.0344699	0	0
0.8661071	-0.03080604	-0.06564719	0	0	-0.04660372	0.03408692	0	0
0.8824054	-0.03080604	-0.06564719	0	0	0	0	0	0
0.8989717	-0.03080604	-0.06564719	0	0	0	0	0	0
0.9321759	-0.03080604	-0.06564719	0	0	0	0	0	0
0.948745	-0.03080604	-0.06564719	0	0	0	0	0	0
0.9653113	-0.03080604	-0.06564719	0	0	0	0	0	0
0.9821875	-0.03080604	-0.06564719	0	0	0	0	0	0
0.9984459	-0.03080604	-0.06564719	0	0	0	0	0	0
1.015013	-0.03080604	-0.06564719	0	0	0	0	0	0
1.031578	-0.03080604	-0.06564719	0	0	0	0	0	0
1.048231	-0.03080604	-0.06564719	0	0	0	0	0	0
1.064743	-0.03080604	-0.06564719	0	0	0	0	0	0
1.081278	-0.03080604	-0.06564719	0	0	0	0	0	0
1.097844	-0.03080604	-0.06564719	0	0	0	0	0	0
1.114412	-0.03080604	-0.06564719	0	0	0	0	0	0
1.131294	-0.03080604	-0.06564719	0	0	0	0	0	0
1.147543	-0.03080604	-0.06564719	0	0	0	0	0	0
1.16411	-0.03080604	-0.06564719	0	0	0	0	0	0
1.180678	-0.03080604	-0.06564719	0	0	0	0	0	0
1.197243	-0.03080604	-0.06564719	0	0	0	0	0	0
1.213847	-0.03080604	-0.06564719	0	0	0	0	0	0
1.230376	-0.03080604	-0.06564719	0	0	0	0	0	0
1.246943	-0.03080604	-0.06564719	0	0	0	0	0	0
1.26351	-0.03080604	-0.06564719	0	0	0	0	0	0
1.280078	-0.03080604	-0.06564719	0	0	0	0	0	0
1.296643	-0.03080604	-0.06564719	0	0	0	0	0	0
1.31321	-0.03080604	-0.06564719	0	0	0	0	0	0
1.329933	-0.03080604	-0.06564719	0	0	0	0	0	0
1.346346	-0.03083233	-0.06566642	-0.00160188	-0.001171648	-0.04834241	-0.03535863	0	0
1.362952	-0.03083233	-0.06566642	0	0	0.04851345	0.03548373	0	0
1.379478	-0.03085862	-0.06568565	-0.001590937	-0.001163644	-0.04801787	-0.03512125	0	0
1.396043	-0.0309112	-0.06576258	-0.00317416	-0.004643906	-0.04784476	-0.105173	0	0
1.41261	-0.03112153	-0.06595491	-0.01269529	-0.0116091	-0.2873669	-0.2102237	0	0
1.429501	-0.03209424	-0.06666664	-0.05758801	-0.04213703	-1.341764	-0.9124254	0	0
1.445744	-0.03214682	-0.06674359	-0.003236784	-0.004737406	1.640353	1.128743	0	0
1.46231	-0.03212053	-0.06676283	0.001586765	-0.001161289	0.1470211	0.1089996	0	0
1.478878	-0.03212053	-0.06680131	0	-0.002322643	-0.04788952	-0.03505037	0	0
1.495547	-0.03212053	-0.06683978	0	-0.00230811	0	0.0004372252	0	0
1.512058	-0.03209424	-0.06685903	0.001592306	-0.001165631	0.04799047	0.03443316	0	0
1.545145	-0.03206795	-0.06695522	0.0007945354	-0.002907254	-0.01608475	-0.03511481	0	0
1.561712	-0.03201537	-0.06703219	0.003173819	-0.00464582	0.04791714	-0.03501352	0	0
1.578277	-0.03183135	-0.06716688	0.01110926	-0.008131229	0.2395162	-0.1052005	0	0
1.59512	-0.03130556	-0.06759023	0.03121704	-0.02513492	0.6018888	-0.5089735	0	0
1.61141	-0.02880782	-0.06941906	0.1533258	-0.1122644	3.685354	-2.629647	0	0
1.627976	-0.02365348	-0.07319602	0.3111319	-0.2279888	4.802843	-3.522082	0	0
1.644544	-0.01694575	-0.07811762	0.4048827	-0.2970705	2.829487	-2.08495	0	0
1.661111	-0.007289344	-0.08525513	0.5828657	-0.4308243	5.371576	-4.036728	0	0
1.694245	0.002736835	-0.09264459	0.3025961	-0.2230185	-5.639117	4.181123	0	0
1.743943	0.0292811	-0.1123538	0.5341076	-0.3965773	2.794945	-2.095305	0	0
1.76051	0.0341709	-0.1159963	0.2951447	-0.2198585	-3.606125	2.666816	0	0
1.777077	0.03861238	-0.1192712	0.2681014	-0.1976821	-0.8161844	0.6692976	0	0
1.793645	0.04000496	-0.1203114	0.08405293	-0.06278556	-5.554614	4.071201	0	0
1.81021	0.03997869	-0.1202918	-0.001586124	0.001185152	-2.584694	1.930716	0	0
1.826777	0.03997869	-0.1202918	0	0	0.04787191	-0.03576988	0	0
1.843345	0.03997869	-0.1202918	0	0	0	0	0	0
1.860306	0.03997869	-0.1202918	0	0	0	0	0	0
1.876816	0.03997869	-0.1202918	0	0	0	0	0	0
1.893043	0.03995241	-0.1203114	-0.001619158	-0.001209834	-0.04945882	-0.03695562	0	0
1.909611	0.03995241	-0.1203114	0	0	0.04937252	0.03689114	0	0
1.942865	0.03997869	-0.1202918	0.0007900913	0.0005903561	0.01585814	0.0118492	0	0
1.959373	0.03995241	-0.1203114	-0.001591634	-0.001189268	-0.04786151	-0.03576211	0	0
1.975888	0.03995241	-0.1203114	0	0	0.04819843	0.03601385	0	0
1.992443	0.03995241	-0.1203114	0	0	0	0	0	0
2.009011	0.03995241	-0.1203114	0	0	0	0	0	0
2.025577	0.03995241	-0.1203114	0	0	0	0	0	0
2.042145	0.03995241	-0.1203114	0	0	0	0	0	0
2.05871	0.03995241	-0.1203114	0	0	0	0	0	0
2.075277	0.03995241	-0.1203114	0	0	0	0	0	0
2.091843	0.03989987	-0.1203114	-0.003171864	0	-0.0957298	0	0	0
2.108412	0.03989987	-0.1203114	0	0	0.09572636	0	0	0
2.124992	0.03984732	-0.1203114	-0.003169398	0	-0.09561133	0	0	0
2.141545	0.03984732	-0.1203114	0	0	0.09565674	0	0	0
2.15811	0.03979477	-0.1203114	-0.003172271	0	-0.0957869	0	0	0
2.174677	0.03974222	-0.1203507	-0.003171952	-0.002369632	9.641592E-06	-0.0715213	0	0
2.191244	0.03971595	-0.1203703	-0.00158593	-0.001185007	0.04786692	0.03575258	0	0
2.207812	0.03963712	-0.1203507	-0.004757449	0.001184921	-0.09571317	0.071522	0	0
2.224377	0.03953202	-0.1202722	-0.006344543	0.004740191	-0.04789998	0.1073013	0	0
2.241077	0.03942693	-0.1201937	-0.006293545	0.004702089	0.001533091	-0.001145423	0	0
2.257584	0.03932182	-0.1201151	-0.006366852	0.00475669	-0.002207573	0.001644268	0	0
2.274097	0.039243	-0.1200562	-0.004773522	0.003565872	0.0482531	-0.03606326	0	0
2.290643	0.03916417	-0.1199974	-0.004764049	0.003559078	0.0002865618	-0.0002055261	0	0
2.307212	0.03911162	-0.1199581	-0.003171812	0.002369359	0.04808219	-0.03592698	0	0
2.32378	0.0390328	-0.1198992	-0.004757585	0.003553967	-0.04785565	0.03574923	0	0
2.340344	0.03884887	-0.1197618	-0.0111041	0.008294231	-0.1915507	0.1430707	0	0
2.356912	0.03827078	-0.1193301	-0.03489188	0.02605958	-0.7179632	0.536194	0	0
2.390178	0.03206795	-0.1147032	-0.1864624	0.1390871	-3.041523	2.26809	0	0
2.406691	0.02625712	-0.1103781	-0.351902	0.2619285	-3.323518	2.467762	0	0
2.423201	0.01639327	-0.1030557	-0.5974382	0.4435055	-7.435335	5.498521	0	0
2.439744	0.008605051	-0.09732936	-0.4707956	0.3461564	3.831511	-2.945249	0	0
2.456311	-0.001026315	-0.0902568	-0.5813254	0.4268826	-3.338197	2.438076	0	0
2.472877	-0.007394602	-0.08568127	-0.3844404	0.2762152	5.942257	-4.547348	0	0
2.489444	-0.01463053	-0.08055272	-0.4367618	0.3095597	-1.579165	1.006405	0	0
2.506011	-0.01699836	-0.07885178	-0.1429223	0.1026688	8.868093	-6.24398	0	0
2.522579	-0.02065496	-0.07628305	-0.220703	0.1550421	-2.347376	1.580595	0	0
2.539144	-0.02147038	-0.07568467	-0.04922564	0.03612287	5.175421	-3.589145	0	0
2.555798	-0.02144408	-0.07570397	0.001579501	-0.001158733	1.529418	-1.12231	0	0
2.572307	-0.02139147	-0.07570397	0.003186397	0	0.04845404	0.03494021	0	0
2.588844	-0.02139147	-0.07570397	0	0	-0.09642306	0	0	0
2.60541	-0.02139147	-0.07570397	0	0	0	0	0	0
2.621982	-0.02139147	-0.07570397	0	0	0	0	0	0
2.638545	-0.02139147	-0.07570397	0	0	0	0	0	0
2.655115	-0.02139147	-0.07570397	0	0	0	0	0	0
2.671878	-0.02141778	-0.07568467	-0.001569234	0.001151201	-0.04707773	0.03453656	0	0
2.68839	-0.02139147	-0.07570397	0.001592979	-0.001168621	0.09503233	-0.06971639	0	0
2.704902	-0.02136517	-0.07572328	0.001593048	-0.001169123	2.090393E-06	-1.519677E-05	0	0
2.721428	-0.02131256	-0.07576188	0.003183317	-0.002335838	0.04813504	-0.0353147	0	0
2.737946	-0.02125995	-0.07580048	0.003184946	-0.00233695	4.929493E-05	-3.36736E-05	0	0
2.837344	-0.03243599	-0.08820072	-0.1124373	-0.1247535	-0.9974679	-1.056082	0	0
2.854009	-0.04158128	-0.09495679	-0.5487731	-0.405405	-3.759477	-2.418098	0	0
2.87052	-0.05449861	-0.104538	-0.7823262	-0.5802801	-7.039733	-5.271066	0	0
2.887043	-0.05762036	-0.1068608	-0.1889346	-0.1405759	17.96288	13.31053	0	0
2.90361	-0.0742056	-0.1192516	-1.001087	-0.7479115	-24.54366	-18.35399	0	0
2.920177	-0.08722548	-0.1290035	-0.7859043	-0.5886406	6.494326	4.806874	0	0
2.936744	-0.09630641	-0.135829	-0.5481414	-0.4120057	7.175904	5.331007	0	0
2.95331	-0.1044345	-0.1419608	-0.4906381	-0.3701338	1.735527	1.263751	0	0
2.97009	-0.1133281	-0.1486643	-0.5300037	-0.3994834	-1.180494	-0.8801362	0	0
2.986444	-0.1174049	-0.1517845	-0.2492997	-0.1908013	8.471906	6.298217	0	0
3.003111	-0.12464	-0.1573395	-0.4340852	-0.3332889	-5.596086	-4.315126	0	0
3.019622	-0.1298443	-0.1613498	-0.315193	-0.2428777	3.58338	2.724971	0	0
3.089154	-0.1319654	-0.1625882	-0.03050603	-0.01781058	3.308673	2.615762	0	0
3.105721	-0.1309567	-0.1617292	0.06088371	0.05184708	1.061456	0.8090467	0	0
3.122287	-0.1278514	-0.159254	0.1874478	0.1494121	3.819823	2.944602	0	0
3.138856	-0.123137	-0.1556258	0.284539	0.2189793	2.930174	2.099514	0	0
3.155421	-0.1158474	-0.1500748	0.4400465	0.3350925	4.693262	3.504328	0	0
3.171988	-0.1107814	-0.1462028	0.3057821	0.2337139	-4.052313	-3.059767	0	0
3.188596	-0.1072448	-0.1435061	0.2129475	0.1623782	-2.79833	-2.150287	0	0
3.205121	-0.09760987	-0.1361847	0.5830696	0.443063	11.17103	8.471633	0	0
3.221767	-0.09341156	-0.1330058	0.2522088	0.1909697	-9.974487	-7.599877	0	0
3.254823	-0.08014376	-0.1230416	0.4013763	0.3014336	3.001241	2.222528	0	0
3.271807	-0.0751477	-0.1192908	0.2941548	0.2208368	-2.142706	-1.61064	0	0
3.287956	-0.07077632	-0.1160551	0.2706894	0.2003656	-0.7082074	-0.6178389	0	0
3.304833	-0.06957175	-0.115193	0.07137389	0.05108503	-6.035112	-4.520094	0	0
3.321094	-0.06674282	-0.1131563	0.1739715	0.1252493	3.096089	2.238055	0	0
3.337859	-0.06650703	-0.1129801	0.01406403	0.01050836	-4.841833	-3.474236	0	0
3.354367	-0.06653323	-0.1129606	-0.001586963	0.001185709	-0.4703883	-0.2801909	0	0
3.370789	-0.06650703	-0.112941	0.001595165	0.001191837	0.09663484	0.0001861016	0	0
3.387383	-0.06653323	-0.1129214	-0.001578664	0.001179508	-0.09612944	-0.0003734322	0	0
3.403921	-0.06650703	-0.112941	0.001584012	-0.001183504	0.09545731	-0.07132148	0	0
3.420907	-0.06650703	-0.112941	0	0	-0.04724903	0.03530239	0	0
3.437055	-0.06653323	-0.1129214	-0.001622298	0.001212109	-0.04896105	0.03658153	0	0
3.453938	-0.06653323	-0.1129214	0	0	0.04911443	-0.03669613	0	0
3.470187	-0.06650703	-0.1129018	0.001612229	0.001204586	0.04866101	0.03635736	0	0
3.486754	-0.06648083	-0.1128823	0.001581704	0.001181893	-0.0009302131	-0.0006915517	0	0
3.503465	-0.06645463	-0.1128627	0.001567538	0.001171195	-0.0004256702	-0.0003214582	0	0
3.586154	-0.06634983	-0.1129801	0.001267397	-0.001420303	-0.003019501	-0.02607121	0	0
3.652575	-0.06634983	-0.1130193	0	-0.0005894724	-0.008499797	0.005571964	0	0
3.668988	-0.06634983	-0.1130193	0	0	0	0.007116309	0	0
3.685597	-0.06634983	-0.1130193	0	0	0	0	0	0
3.702121	-0.06634983	-0.1130193	0	0	0	0	0	0
3.718688	-0.06632363	-0.1130389	0.001581704	-0.001181443	0.04779885	-0.03570303	0	0
3.735631	-0.06632363	-0.1130389	0	0	-0.04720132	0.03525671	0	0
3.751823	-0.06634983	-0.1130584	-0.001618267	-0.001208754	-0.048838	-0.03647922	0	0
3.768388	-0.06634983	-0.1130976	0	-0.002363608	0.04940176	-0.03525487	0	0
3.784955	-0.06634983	-0.1130976	0	0	0	0.07133845	0	0
3.80152	-0.06637603	-0.1131172	-0.001581413	-0.001181562	-0.04772989	-0.03566167	0	0
3.818087	-0.06642843	-0.1131563	-0.003162957	-0.002363336	-0.04773488	-0.03566882	0	0
3.834654	-0.06642843	-0.1131563	0	0	0.09545961	0.07132664	0	0
3.851224	-0.06645463	-0.1131759	-0.00158143	-0.001181239	-0.04772423	-0.0356473	0	0
3.867789	-0.06645463	-0.1131759	0	0	0.04772732	0.03564961	0	0
3.884356	-0.06645463	-0.1131759	0	0	0	0	0	0
3.90092	-0.06645463	-0.1131759	0	0	0	0	0	0
3.917488	-0.06645463	-0.1131759	0	0	0	0	0	0
3.934269	-0.06645463	-0.1131759	0	0	0	0	0	0
3.950621	-0.06645463	-0.1131759	0	0	0	0	0	0
3.967189	-0.06645463	-0.1131759	0	0	0	0	0	0
3.983809	-0.06645463	-0.1131759	0	0	0	0	0	0
4.000324	-0.06648083	-0.1131954	-0.001586207	-0.001185144	-0.04787149	-0.03576747	0	0
4.016888	-0.06648083	-0.1131954	0	0	0.04795223	0.03582779	0	0
4.033454	-0.06650703	-0.113215	-0.001581704	-0.001181893	-0.04774141	-0.0356737	0	0
4.05002	-0.06650703	-0.1132542	0	-0.002363472	0.04773866	-0.03566218	0	0
4.083154	-0.06653323	-0.1132738	-0.0007906269	-0.0005907215	-0.01590821	0.03566952	0	0
4.099721	-0.06655943	-0.1132933	-0.001581613	-0.001181825	-0.01591481	-0.01189313	0	0
4.116287	-0.06655943	-0.1132933	0	0	0.04773453	0.03566857	0	0
4.132854	-0.06658563	-0.1133129	-0.001581299	-0.001181477	-0.04772714	-0.03565961	0	0
4.149421	-0.06658563	-0.1133129	0	0	0.04772439	0.03565756	0	0
4.165988	-0.06658563	-0.1133129	0	0	0	0	0	0
4.182554	-0.06658563	-0.1133129	0	0	0	0	0	0
4.199458	-0.06658563	-0.1133129	0	0	0	0	0	0
4.215687	-0.06658563	-0.1133129	0	0	0	0	0	0
4.232479	-0.06658563	-0.1133129	0	0	0	0	0	0
4.248991	-0.06661183	-0.1133325	-0.001586505	-0.001185818	-0.04763677	-0.03560564	0	0
4.265504	-0.06661183	-0.1133325	0	0	0.04803983	0.0359069	0	0
4.365073	-0.06663803	-0.1133521	-0.0002631716	-0.0001965743	-0.002267124	-0.001693413	0	0
4.381356	-0.06663803	-0.1133521	0	0	0.002271621	0.001696773	0	0
4.398101	-0.06663803	-0.1133521	0	0	0	0	0	0
4.41461	-0.06666423	-0.1133716	-0.00158678	-0.001186023	-0.04771676	-0.03566543	0	0
4.431054	-0.06666423	-0.1133716	0	0	0.04815314	0.0359916	0	0
4.447621	-0.06666423	-0.1133716	0	0	0	0	0	0
4.464187	-0.06666423	-0.1133716	0	0	0	0	0	0
4.480755	-0.06666423	-0.1133716	0	0	0	0	0	0
4.497322	-0.06666423	-0.1133716	0	0	0	0	0	0
4.51389	-0.06669043	-0.1133912	-0.001581613	-0.001181825	-0.04773247	-0.03566703	0	0
4.530454	-0.06669043	-0.1133912	0	0	0.04773728	0.03567062	0	0
4.547203	-0.06671663	-0.1134108	-0.001564057	-0.001168594	-0.04695063	-0.03507944	0	0
4.563715	-0.06671663	-0.1134108	0	0	0.047024	0.03513426	0	0
4.580228	-0.06674282	-0.1134304	-0.001586322	-0.001185681	-0.04803289	-0.03590172	0	0
4.596739	-0.06676903	-0.11345	-0.001587048	-0.001185886	-2.198951E-05	-6.221782E-06	0	0
4.613287	-0.06684761	-0.1135087	-0.004749229	-0.003549315	-0.09565368	-0.071492	0	0
4.63026	-0.06697861	-0.1136066	-0.007717686	-0.005767414	-0.08855467	-0.0661701	0	0
4.64642	-0.06731918	-0.1138611	-0.02107462	-0.01575087	-0.4031246	-0.3013099	0	0
4.662987	-0.06760734	-0.1140765	-0.01739379	-0.01300172	0.1124714	0.08400302	0	0
4.679555	-0.06760734	-0.1140765	0	0	0.5249457	0.3923927	0	0
4.696121	-0.06763352	-0.1140961	-0.001580895	-0.001182411	-0.04771288	-0.03568625	0	0
4.712821	-0.06763352	-0.1140961	0	0	0.04752207	0.03554353	0	0
4.729332	-0.06763352	-0.1140961	0	0	0	0	0	0
4.745821	-0.06763352	-0.1140961	0	0	0	0	0	0
4.762387	-0.06763352	-0.1140961	0	0	0	0	0	0
4.778954	-0.06763352	-0.1140961	0	0	0	0	0	0
4.795522	-0.06763352	-0.1140961	0	0	0	0	0	0
4.812089	-0.06763352	-0.1140961	0	0	0	0	0	0
4.828654	-0.06763352	-0.1140961	0	0	0	0	0	0
4.845222	-0.06763352	-0.1140961	0	0	0	0	0	0
4.861788	-0.06763352	-0.1140961	0	0	0	0	0	0
4.878354	-0.06763352	-0.1140961	0	0	0	0	0	0
4.91199	-0.06763352	-0.1140961	0	0	0	0	0	0
4.928555	-0.06763352	-0.1140961	0	0	0	0	0	0
4.945484	-0.06763352	-0.1140961	0	0	0	0	0	0
4.961688	-0.06763352	-0.1140961	0	0	0	0	0	0
4.978255	-0.06763352	-0.1140961	0	0	0	0	0	0
4.994823	-0.06763352	-0.1140961	0	0	0	0	0	0
5.011389	-0.06763352	-0.1140961	0	0	0	0	0	0
5.027955	-0.06763352	-0.1140961	0	0	0	0	0	0
5.094223	-0.06763352	-0.1140961	0	0	0	0	0	0
5.11079	-0.06763352	-0.1140961	0	0	0	0	0	0
5.127354	-0.06763352	-0.1140961	0	0	0	0	0	0
5.143924	-0.06765972	-0.1141157	-0.001580981	-0.001181689	-0.04771478	-0.03566395	0	0
5.160488	-0.06765972	-0.1141157	0	0	0.04771478	0.03566395	0	0
5.177055	-0.06765972	-0.1141157	0	0	0	0	0	0
5.193659	-0.06765972	-0.1141157	0	0	0	0	0	0
5.210187	-0.06765972	-0.1141157	0	0	0	0	0	0
5.226755	-0.06765972	-0.1141157	0	0	0	0	0	0
5.243321	-0.06765972	-0.1141157	0	0	0	0	0	0
5.259888	-0.06765972	-0.1141157	0	0	0	0	0	0
5.276455	-0.06765972	-0.1141157	0	0	0	0	0	0
5.309742	-0.06765972	-0.1141157	0	0	0	0	0	0
5.326156	-0.06765972	-0.1141157	0	0	0	0	0	0
5.342766	-0.06765972	-0.1141157	0	0	0	0	0	0
5.359288	-0.06765972	-0.1141157	0	0	0	0	0	0
5.375854	-0.06765972	-0.1141157	0	0	0	0	0	0
5.392421	-0.06765972	-0.1141157	0	0	0	0	0	0
5.408989	-0.06768592	-0.1141353	-0.001581163	-0.001182274	-0.0477189	-0.0356806	0	0
5.425557	-0.06768592	-0.1141353	0	0	0.04771822	0.03568009	0	0
5.442122	-0.06768592	-0.1141353	0	0	0	0	0	0
5.458688	-0.06768592	-0.1141353	0	0	0	0	0	0
5.475255	-0.06768592	-0.1141353	0	0	0	0	0	0
5.491821	-0.06768592	-0.1141353	0	0	0	0	0	0
5.508389	-0.06768592	-0.1141353	0	0	0	0	0	0
5.524956	-0.06768592	-0.1141353	0	0	0	0	0	0
5.541522	-0.06768592	-0.1141353	0	0	0	0	0	0
5.558088	-0.06768592	-0.1141353	0	0	0	0	0	0
5.574655	-0.06768592	-0.1141353	0	0	0	0	0	0
5.591221	-0.06768592	-0.1141353	0	0	0	0	0	0
5.607956	-0.06768592	-0.1141353	0	0	0	0	0	0
5.624357	-0.06768592	-0.1141353	0	0	0	0	0	0
5.657488	-0.06768592	-0.1141353	0	0	0	0	0	0
5.674055	-0.06768592	-0.1141353	0	0	0	0	0	0
5.690621	-0.06771211	-0.1141548	-0.001581299	-0.001181927	-0.04772508	-0.03567165	0	0
5.707188	-0.06771211	-0.1141548	0	0	0.04772577	0.03567216	0	0
5.724036	-0.06773831	-0.1141744	-0.001554894	-0.00116219	-0.04653369	-0.03478115	0	0
5.740322	-0.06776451	-0.114194	-0.001608523	-0.001202732	-0.001618592	-0.001223605	0	0
5.757058	-0.06776451	-0.114194	0	0	0.04871006	0.03642171	0	0
5.77357	-0.0677907	-0.1142136	-0.001586551	-0.001185852	-0.04771876	-0.03566693	0	0
5.806593	-0.06786928	-0.1143115	-0.002379532	-0.002965221	-0.01600841	-0.03592126	0	0
5.823156	-0.06792168	-0.1143507	-0.003163236	-0.00236478	-0.01580469	0.01210891	0	0
5.839724	-0.06797406	-0.1143899	-0.003161876	-0.002364099	4.105554E-05	2.054183E-05	0	0
5.856289	-0.06802645	-0.114429	-0.003162781	-0.002364889	-2.730749E-05	-2.384311E-05	0	0
5.872855	-0.06807884	-0.1144682	-0.003162331	-0.002364439	1.35704E-05	1.357742E-05	0	0
5.889421	-0.06807884	-0.1144682	0	0	0.09544621	0.07136406	0	0
5.905988	-0.06810503	-0.1144878	-0.001581299	-0.001182377	-0.04772577	-0.03568574	0	0
5.922556	-0.06810503	-0.1144878	0	0	0.04772302	0.03568368	0	0
5.939123	-0.06810503	-0.1144878	0	0	0	0	0	0
5.955699	-0.06810503	-0.1144878	0	0	0	0	0	0
5.972255	-0.06813123	-0.1145074	-0.001582347	-0.00118271	-0.04775945	-0.03569733	0	0
5.988821	-0.06815742	-0.1144878	-0.00158085	0.001181927	4.520719E-05	0.07139261	0	0
6.005388	-0.06815742	-0.1144878	0	0	0.04771219	-0.03567216	0	0
6.021956	-0.06815742	-0.1144878	0	0	0	0	0	0
6.038523	-0.06818362	-0.1144682	-0.001581299	0.001182377	-0.04772302	0.03568368	0	0
6.055268	-0.06818362	-0.1144682	0	0	0.04746958	-0.03549418	0	0
6.071655	-0.06818362	-0.1144682	0	0	0	0	0	0
6.088222	-0.06820981	-0.1144486	-0.001581254	0.001182343	-0.04798474	0.03587938	0	0
6.104788	-0.06820981	-0.1144486	0	0	0.0477244	-0.03568471	0	0
6.121355	-0.06820981	-0.1144486	0	0	0	0	0	0
6.204191	-0.06820981	-0.1144094	0	0.0004728334	0	0.004756737	0	0
6.220754	-0.06820981	-0.1144094	0	0	0	-0.004756896	0	0
6.237324	-0.06820981	-0.1144094	0	0	0	0	0	0
6.253909	-0.0682622	-0.1143703	-0.003158603	0.002361652	-0.09526788	0.07123072	0	0
6.270455	-0.06847174	-0.1142136	-0.01266427	0.009469383	-0.2869146	0.2145364	0	0
6.28702	-0.06915271	-0.1137045	-0.0411085	0.03073411	-0.8590544	0.6422238	0	0
6.303945	-0.07399623	-0.1100848	-0.2861778	0.2138667	-7.317646	5.468247	0	0
6.320476	-0.08270565	-0.1035432	-0.5268539	0.3957162	-7.193841	5.435506	0	0
6.33698	-0.09953837	-0.09103308	-1.01993	0.7580159	-14.92595	10.96721	0	0
6.353287	-0.1194549	-0.07678502	-1.22132	0.8737198	-6.137865	3.526359	0	0
6.386421	-0.1417018	-0.06191876	-0.6714327	0.4486776	11.12212	-8.596982	0	0
6.403013	-0.1725051	-0.05110685	-1.856459	0.651614	-23.83112	4.08109	0	0
6.419554	-0.2134105	-0.04732069	-2.473044	0.2289019	-18.60935	-12.75803	0	0
6.436121	-0.2452016	-0.04621254	-1.918854	0.06688665	16.73872	-4.893503	0	0
6.452687	-0.2739358	-0.04520027	-1.73455	0.06110553	5.562477	-0.1744795	0	0
6.469253	-0.3091777	-0.04310045	-2.127452	0.1267599	-11.859	1.981654	0	0
6.48607	-0.3163013	-0.04170775	-0.4235784	0.08281241	51.04033	-1.316469	0	0
6.502386	-0.3147554	-0.04069702	0.09474275	0.06194769	15.64341	-0.6297168	0	0
6.518953	-0.3143509	-0.04109745	0.02441788	-0.02417054	-2.138628	-2.618915	0	0
6.535521	-0.3143033	-0.04109745	0.002872715	0	-0.6502252	0.7294579	0	0
6.552087	-0.3143271	-0.04107838	-0.001435582	0.001151119	-0.1300265	0.03474135	0	0
6.568653	-0.3143271	-0.04107838	0	0	0.0433297	-0.03474385	0	0
6.585219	-0.3143033	-0.04105932	0.001435582	0.001151119	0.0433297	0.03474385	0	0
6.601786	-0.3143033	-0.04105932	0	0	-0.04332783	-0.03474235	0	0
6.618352	-0.3143033	-0.04105932	0	0	0	0	0	0
6.635176	-0.3143033	-0.04105932	0	0	0	0	0	0
6.651487	-0.3143033	-0.04105932	0	0	0	0	0	0
6.668052	-0.3142795	-0.04107838	0.001437464	-0.001151186	0.04372316	-0.03501546	0	0
6.684712	-0.3139939	-0.04130723	0.01714466	-0.01373639	0.4727513	-0.3787864	0	0
6.701222	-0.3137796	-0.04151702	0.01297834	-0.01270645	-0.1256041	0.03104995	0	0
6.717752	-0.3134224	-0.04180312	0.02160618	-0.01730802	0.2611292	-0.1392705	0	0
6.734319	-0.3128984	-0.04222278	0.03163047	-0.02533154	0.3028779	-0.2424258	0	0
6.750887	-0.3126602	-0.04241356	0.01437977	-0.01151492	-0.5206273	0.4169864	0	0
6.767452	-0.3115161	-0.04332945	0.06906484	-0.05528974	1.65047	-1.321184	0	0
6.784019	-0.3113969	-0.04346304	0.007195901	-0.008064131	-1.86737	1.425395	0	0
6.800586	-0.3113969	-0.04346304	0	0	-0.217179	0.243383	0	0
6.817152	-0.3113492	-0.04350121	0.00287836	-0.002304038	0.08687159	-0.06953799	0	0
6.833719	-0.3113015	-0.04353938	0.002880077	-0.002303971	5.179709E-05	2.002737E-06	0	0
6.850287	-0.3113015	-0.04353938	0	0	-0.08691838	0.06953198	0	0
6.866852	-0.3113015	-0.04353938	0	0	0	0	0	0
6.883419	-0.3113015	-0.04353938	0	0	0	0	0	0
6.899986	-0.3113015	-0.04353938	0	0	0	0	0	0
6.916553	-0.3113015	-0.04353938	0	0	0	0	0	0
6.933119	-0.3113015	-0.04353938	0	0	0	0	0	0
6.999434	-0.3113015	-0.04353938	0	0	0	0	0	0
7.082218	-0.3112777	-0.04355847	0.0002879985	-0.0002305338	0.001931588	-0.001546176	0	0
7.098785	-0.3112777	-0.04355847	0	0	-0.002898773	0.002320377	0	0
7.115514	-0.3112777	-0.04355847	0	0	0	0	0	0
7.168764	-0.31123	-0.04359664	0.0008954636	-0.0007168606	0.01279623	-0.01024398	0	0
7.185332	-0.31123	-0.04359664	0	0	-0.01282568	0.01026756	0	0
7.218588	-0.3112061	-0.04361572	0.000717814	-0.0005738703	0.01440706	-0.011518	0	0
7.235098	-0.31123	-0.04363481	-0.001445848	-0.001156137	-0.04347625	-0.01169997	0	0
7.25161	-0.31123	-0.04363481	0	0	0.04378386	0.03501069	0	0
7.268166	-0.31123	-0.04363481	0	0	0	0	0	0
7.285133	-0.31123	-0.04363481	0	0	0	0	0	0
7.301298	-0.31123	-0.04363481	0	0	0	0	0	0
7.317867	-0.31123	-0.04363481	0	0	0	0	0	0
7.334434	-0.31123	-0.04363481	0	0	0	0	0	0
7.350998	-0.31123	-0.04363481	0	0	0	0	0	0
7.367695	-0.3111823	-0.04363481	0.002857622	0	0.08591556	0	0	0
7.384203	-0.3098462	-0.04466563	0.08093587	-0.06244336	2.351398	-1.880539	0	0
7.400716	-0.3058789	-0.0476838	0.2402541	-0.1827764	4.824759	-3.64414	0	0
7.417264	-0.2944719	-0.05424657	0.6892991	-0.3965752	13.58211	-6.466698	0	0
7.433832	-0.274838	-0.06141944	1.185107	-0.4329551	14.97193	-1.098567	0	0
7.450398	-0.2348233	-0.06714763	2.415432	-0.3457743	37.13234	2.631199	0	0
7.466966	-0.1883461	-0.07045914	2.805208	-0.1998715	11.76346	4.403356	0	0
7.483532	-0.1554976	-0.07257902	1.982849	-0.1279634	-24.81882	2.170191	0	0
7.500098	-0.1266345	-0.07417963	1.742382	-0.09662448	-7.257955	0.9458911	0	0
7.516797	-0.09562848	-0.0760128	1.856778	-0.1097779	3.439016	-0.3954231	0	0
7.533231	-0.07823473	-0.07620583	1.058357	-0.01174572	-24.09708	2.958702	0	0
7.54982	-0.06634983	-0.0759742	0.7164254	0.01396324	-10.35408	0.7784973	0	0
7.566365	-0.0591677	-0.07558817	0.4341016	0.02333235	-8.52067	0.2827642	0	0
7.583344	-0.05880056	-0.07493205	0.02162425	0.0386443	-12.30428	0.4567583	0	0
7.599497	-0.05885301	-0.07489346	-0.003246906	0.002389228	-0.7506778	-1.094275	0	0
7.616064	-0.05887923	-0.07487416	-0.001583007	0.001164769	0.05085177	-0.0374217	0	0
7.63263	-0.05887923	-0.07487416	0	0	0.04777662	-0.03515382	0	0
7.64939	-0.05887923	-0.07487416	0	0	0	0	0	0
7.665904	-0.05887923	-0.07487416	0	0	0	0	0	0
7.68233	-0.05882679	-0.07491276	0.003192899	-0.002349488	0.09693103	-0.07132647	0	0
7.698928	-0.05874811	-0.07497064	0.004740065	-0.003487435	0.0468493	-0.03445785	0	0
7.715464	-0.05874811	-0.07497064	0	0	-0.1430575	0.1052525	0	0
7.732453	-0.05874811	-0.07500923	0	-0.002271739	0	-0.06776255	0	0
7.748598	-0.05874811	-0.07500923	0	0	0	0.06856318	0	0
7.765163	-0.05880056	-0.07504783	-0.003166063	-0.00232974	-0.09679025	-0.07122289	0	0
7.781986	-0.05893168	-0.07514431	-0.007794342	-0.005734924	-0.1386185	-0.1019864	0	0
7.798297	-0.05901036	-0.0752022	-0.004823487	-0.003549268	0.08966316	0.06596514	0	0
7.815008	-0.05903658	-0.07522149	-0.001569188	-0.001154765	0.09855106	0.07251355	0	0
7.831519	-0.05903658	-0.07522149	0	0	0.04723379	0.03475934	0	0
7.848034	-0.05903658	-0.07522149	0	0	0	0	0	0
7.864565	-0.05906281	-0.0752022	-0.001586477	0.001167323	-0.0480071	0.03532341	0	0
7.881133	-0.05908903	-0.0751829	-0.001582782	0.001164769	0.0001116416	-7.714776E-05	0	0
7.897697	-0.05908903	-0.0751829	0	0	0.04777259	-0.03515585	0	0
7.914264	-0.05911525	-0.0751636	-0.001583053	0.001164803	-0.04778144	0.03515736	0	0
7.930831	-0.05911525	-0.0751636	0	0	0.04777731	-0.03515433	0	0
7.963964	-0.05914148	-0.07514431	-0.0007914253	0.0005824098	-0.01592397	0.01171845	0	0
7.98063	-0.05914148	-0.07514431	0	0	0.01589225	-0.01169511	0	0
7.997136	-0.05914148	-0.07514431	0	0	0	0	0	0
8.013664	-0.0591677	-0.07512501	-0.001586752	0.001167525	-0.04803413	0.03534329	0	0
8.030231	-0.0591677	-0.07512501	0	0	0.04794623	-0.03527862	0	0
8.047171	-0.0591677	-0.07512501	0	0	0	0	0	0
8.063363	-0.0591677	-0.07512501	0	0	0	0	0	0
8.079932	-0.0591677	-0.07512501	0	0	0	0	0	0
8.096497	-0.0591677	-0.07512501	0	0	0	0	0	0
8.12963	-0.0591677	-0.07512501	0	0	0	0	0	0
8.146195	-0.0591677	-0.07512501	0	0	0	0	0	0
8.162763	-0.0591677	-0.07512501	0	0	0	0	0	0
8.179331	-0.0591677	-0.07512501	0	0	0	0	0	0
8.195896	-0.0591677	-0.07512501	0	0	0	0	0	0
8.212463	-0.0591677	-0.07512501	0	0	0	0	0	0
8.22903	-0.0591677	-0.07512501	0	0	0	0	0	0
8.245596	-0.0591677	-0.07512501	0	0	0	0	0	0
8.262162	-0.0591677	-0.07512501	0	0	0	0	0	0
8.278728	-0.0591677	-0.07512501	0	0	0	0	0	0
8.295348	-0.0591677	-0.07512501	0	0	0	0	0	0
8.311862	-0.0591677	-0.07512501	0	0	0	0	0	0
8.328431	-0.0591677	-0.07512501	0	0	0	0	0	0
8.344995	-0.0591677	-0.07512501	0	0	0	0	0	0
8.361562	-0.0591677	-0.07512501	0	0	0	0	0	0
8.378127	-0.0591677	-0.07512501	0	0	0	0	0	0
8.394916	-0.0591677	-0.07512501	0	0	0	0	0	0
8.411262	-0.0591677	-0.07512501	0	0	0	0	0	0
8.427828	-0.0591677	-0.07512501	0	0	0	0	0	0
8.444394	-0.0591677	-0.07512501	0	0	0	0	0	0
8.46096	-0.0591677	-0.07512501	0	0	0	0	0	0
8.477528	-0.0591677	-0.07512501	0	0	0	0	0	0
8.494097	-0.0591677	-0.07512501	0	0	0	0	0	0
8.511001	-0.0591677	-0.07512501	0	0	0	0	0	0
8.52751	-0.0591677	-0.07512501	0	0	0	0	0	0
8.544021	-0.0591677	-0.07512501	0	0	0	0	0	0
8.560361	-0.0591677	-0.07512501	0	0	0	0	0	0
8.577043	-0.0591677	-0.07512501	0	0	0	0	0	0
8.593496	-0.05914148	-0.07514431	0.001593926	-0.001172803	0.04810339	-0.03539425	0	0
8.610063	-0.05914148	-0.07514431	0	0	-0.04827149	0.03551795	0	0
8.626627	-0.05914148	-0.07514431	0	0	0	0	0	0
8.643194	-0.05914148	-0.07514431	0	0	0	0	0	0
8.676613	-0.05914148	-0.07514431	0	0	0	0	0	0
8.709603	-0.05914148	-0.07514431	0	0	0	0	0	0
8.72617	-0.05914148	-0.07514431	0	0	0	0	0	0
8.742736	-0.05914148	-0.07514431	0	0	0	0	0	0
8.759302	-0.05914148	-0.07514431	0	0	0	0	0	0
8.775868	-0.05914148	-0.07514431	0	0	0	0	0	0
8.792435	-0.05914148	-0.07514431	0	0	0	0	0	0
8.858703	-0.05914148	-0.07514431	0	0	0	0	0	0
8.875271	-0.05914148	-0.07514431	0	0	0	0	0	0
8.891835	-0.05914148	-0.07514431	0	0	0	0	0	0
8.908402	-0.05914148	-0.07514431	0	0	0	0	0	0
8.924969	-0.05914148	-0.07514431	0	0	0	0	0	0
8.941535	-0.05914148	-0.07514431	0	0	0	0	0	0
8.958102	-0.05914148	-0.07514431	0	0	0	0	0	0
8.974669	-0.05914148	-0.07514431	0	0	0	0	0	0
8.991235	-0.05914148	-0.07514431	0	0	0	0	0	0
9.007803	-0.05914148	-0.07514431	0	0	0	0	0	0
9.024369	-0.0591677	-0.0751636	-0.001583098	-0.001164836	-0.047778	-0.03515483	0	0
9.040936	-0.0591677	-0.0751636	0	0	0.04778075	0.03515686	0	0
9.057503	-0.0591677	-0.0751636	0	0	0	0	0	0
9.074393	-0.0591677	-0.0751636	0	0	0	0	0	0
9.090635	-0.0591677	-0.0751636	0	0	0	0	0	0
9.107419	-0.0591677	-0.0751636	0	0	0	0	0	0
9.12377	-0.0591677	-0.0751636	0	0	0	0	0	0
9.140441	-0.0591677	-0.0751636	0	0	0	0	0	0
9.156903	-0.0591677	-0.0751636	0	0	0	0	0	0
9.17347	-0.0591677	-0.0751636	0	0	0	0	0	0
9.190037	-0.0591677	-0.0751636	0	0	0	0	0	0
9.206606	-0.0591677	-0.0751636	0	0	0	0	0	0
9.223501	-0.0591677	-0.0751636	0	0	0	0	0	0
9.240012	-0.0591677	-0.0751636	0	0	0	0	0	0
9.256305	-0.0591677	-0.0751636	0	0	0	0	0	0
9.272871	-0.0591677	-0.0751636	0	0	0	0	0	0
9.289437	-0.0591677	-0.0751636	0	0	0	0	0	0
9.306004	-0.0591677	-0.0751636	0	0	0	0	0	0
9.32258	-0.0591677	-0.0751636	0	0	0	0	0	0
9.33914	-0.05914148	-0.0751829	0.001583737	-0.001165306	0.04779451	-0.03516698	0	0
9.356094	-0.05914148	-0.0751829	0	0	-0.04725594	0.0347707	0	0
9.372271	-0.05914148	-0.0751829	0	0	0	0	0	0
9.388838	-0.05914148	-0.0751829	0	0	0	0	0	0
9.405404	-0.05914148	-0.0751829	0	0	0	0	0	0
9.422144	-0.0591677	-0.0752022	-0.001566684	-0.001152759	-0.04703891	-0.03461102	0	0
9.455105	-0.0591677	-0.0752022	0	0	0.03152234	0.023194	0	0
9.471676	-0.05914148	-0.07522149	0.001582643	-0.001164501	0.03195196	-0.02351011	0	0
9.488236	-0.0591677	-0.07524079	-0.001583645	-0.001165239	-0.09556701	-2.226647E-05	0	0
9.504803	-0.0591677	-0.07524079	0	0	0.04780551	0.03517508	0	0
9.521372	-0.05914148	-0.07526009	0.001582825	-0.001164635	0.04776837	-0.03514776	0	0
9.537938	-0.0591677	-0.07527939	-0.001583098	-0.001165286	-0.09554499	-1.964297E-05	0	0
9.554504	-0.0591677	-0.07527939	0	0	0.04778075	0.03517044	0	0
9.653904	-0.05919392	-0.07529869	-0.0002638072	-0.0001941357	-0.002274869	-0.001674076	0	0
9.670815	-0.05919392	-0.07529869	0	0	0.002268117	0.001669108	0	0
9.687037	-0.05922015	-0.07531799	-0.001616561	-0.001189628	-0.04879073	-0.0359051	0	0
9.703603	-0.05922015	-0.07531799	0	0	0.04930447	0.03628316	0	0
9.720172	-0.05922015	-0.07531799	0	0	0	0	0	0
9.736863	-0.05922015	-0.07531799	0	0	0	0	0	0
9.753876	-0.05924637	-0.07529869	-0.001541566	0.001134277	-0.04573864	0.03365428	0	0
9.769886	-0.05927259	-0.07527939	-0.001637842	0.001205288	-0.002915431	0.002150344	0	0
9.786437	-0.05927259	-0.07527939	0	0	0.05030027	-0.03701596	0	0
9.803003	-0.05927259	-0.07527939	0	0	0	0	0	0
9.819572	-0.05927259	-0.07527939	0	0	0	0	0	0
9.836437	-0.05924637	-0.07529869	0.001554857	-0.001144219	0.04650539	-0.03422331	0	0
9.852951	-0.05924637	-0.07529869	0	0	-0.04658245	0.03428002	0	0
9.869474	-0.05924637	-0.07529869	0	0	0	0	0	0
9.885838	-0.05924637	-0.07529869	0	0	0	0	0	0
9.902482	-0.05922015	-0.07531799	0.00157566	-0.001159364	0.04773626	-0.03512412	0	0
9.918995	-0.05922015	-0.07531799	0	0	-0.0475207	0.03496552	0	0
9.935541	-0.05922015	-0.07531799	0	0	0	0	0	0
9.952104	-0.05922015	-0.07531799	0	0	0	0	0	0
9.968672	-0.05922015	-0.07531799	0	0	0	0	0	0
9.985236	-0.05922015	-0.07531799	0	0	0	0	0	0
10.0018	-0.05922015	-0.07531799	0	0	0	0	0	0
10.01856	-0.05922015	-0.07531799	0	0	0	0	0	0
10.03507	-0.05922015	-0.07531799	0	0	0	0	0	0
10.05159	-0.05922015	-0.07531799	0	0	0	0	0	0
10.06809	-0.05922015	-0.07531799	0	0	0	0	0	0
10.08464	-0.05922015	-0.07531799	0	0	0	0	0	0
10.1012	-0.05922015	-0.07531799	0	0	0	0	0	0
10.11777	-0.05922015	-0.07531799	0	0	0	0	0	0
10.13434	-0.05922015	-0.07531799	0	0	0	0	0	0
10.1509	-0.05922015	-0.07531799	0	0	0	0	0	0
10.18404	-0.05922015	-0.07531799	0	0	0	0	0	0
10.2006	-0.05922015	-0.07531799	0	0	0	0	0	0
10.23429	-0.05922015	-0.07531799	0	0	0	0	0	0
10.25122	-0.05922015	-0.07531799	0	0	0	0	0	0
10.26742	-0.05922015	-0.07531799	0	0	0	0	0	0
10.28399	-0.05922015	-0.07531799	0	0	0	0	0	0
10.30076	-0.05922015	-0.07531799	0	0	0	0	0	0
10.36682	-0.05914148	-0.07541448	0.001190913	-0.001460699	0.01437707	-0.017634	0	0
10.38339	-0.0591677	-0.07547237	-0.001583098	-0.003494509	-0.03357336	-0.02461484	0	0
10.39995	-0.05958727	-0.07593559	-0.02532665	-0.02796147	-0.7166231	-0.738457	0	0
10.41652	-0.06053123	-0.07666918	-0.05698052	-0.04428223	-0.9553708	-0.4925897	0	0
10.43309	-0.06152751	-0.07744158	-0.06013561	-0.04662226	-0.09522343	-0.07062428	0	0
10.44987	-0.06152751	-0.07740296	0	0.002301529	1.803219	1.467022	0	0
10.46638	-0.06155372	-0.07742227	-0.001587725	-0.001169641	-0.04768978	-0.104262	0	0
10.48279	-0.06155372	-0.07742227	0	0	0.04823276	0.03553199	0	0
10.53248	-0.06139642	-0.07753815	0.003164997	-0.002331622	0.04787773	-0.03527104	0	0
10.54905	-0.0612129	-0.07767335	0.01107595	-0.008159642	0.1193783	-0.08794627	0	0
10.56595	-0.06089829	-0.07790513	0.01862255	-0.01371984	0.2255174	-0.1661571	0	0
10.58219	-0.06013792	-0.078504	0.04682568	-0.03687984	0.8512211	-0.6990107	0	0
10.59875	-0.05368521	-0.08326094	0.3895092	-0.2871462	10.44624	-7.629026	0	0
10.61548	-0.04680789	-0.08833645	0.4110928	-0.3033897	0.6482435	-0.4878591	0	0
10.63199	-0.03719337	-0.09544279	0.5822778	-0.4303765	5.149773	-3.820155	0	0
10.64851	-0.03004359	-0.1007364	0.432932	-0.3205376	-4.521973	3.325761	0	0
10.66502	-0.02191754	-0.1067631	0.4921891	-0.3650349	1.794321	-1.34739	0	0
10.68158	-0.01663005	-0.110691	0.3191723	-0.2370995	-5.230841	3.867888	0	0
10.69815	-0.01334131	-0.1131367	0.1985083	-0.1476249	-3.641751	2.700429	0	0
10.71472	-0.00678937	-0.1180157	0.3954989	-0.2945102	5.945358	-4.433137	0	0
10.73129	-0.005210479	-0.1191927	0.09530201	-0.07104734	-9.06022	6.744318	0	0
10.74785	-0.004421024	-0.1197815	0.04764889	-0.03553422	-1.438133	1.071757	0	0
10.76442	-0.004421024	-0.1197815	0	0	-1.438088	1.072456	0	0
10.7811	-0.004473655	-0.1197422	-0.003155374	0.002353577	-0.09491251	0.07079473	0	0
10.79755	-0.004473655	-0.119703	0	0.002385455	0.09523213	0.0009621009	0	0
10.81412	-0.004473655	-0.119703	0	0	0	-0.07224059	0	0
10.83068	-0.00449997	-0.1196833	-0.001588559	0.001184693	-0.04794555	0.03575618	0	0
10.84725	-0.00449997	-0.1196833	0	0	0.04794279	-0.03575412	0	0
10.86382	-0.004473655	-0.119703	0.00158865	-0.001184762	0.04794693	-0.03575721	0	0
10.88067	-0.00449997	-0.1196833	-0.001561588	0.00116458	-0.09427392	0.07030632	0	0
10.89695	-0.00449997	-0.1196833	0	0	0.04713018	-0.0351481	0	0
10.91352	-0.00460523	-0.1196048	-0.006352827	0.004738132	-0.1933818	0.14423	0	0
10.94672	-0.004736807	-0.1195067	-0.003962997	0.002955438	0.04801715	-0.0358184	0	0
10.96322	-0.004921013	-0.1193693	-0.01116434	0.008325476	-0.1448942	0.1080475	0	0
10.97979	-0.004999958	-0.1193105	-0.00476543	0.003553876	0.1935206	-0.1443062	0	0
10.99635	-0.004999958	-0.1193105	0	0	0.1438292	-0.1072624	0	0
11.01292	-0.004999958	-0.1193105	0	0	0	0	0	0
11.04605	-0.004973643	-0.1193301	0.0007942476	-0.0005923126	0.01598121	-0.01191804	0	0
11.06262	-0.004973643	-0.1193301	0	0	-0.0159806	0.01191758	0	0
11.07919	-0.004973643	-0.1193301	0	0	0	0	0	0
11.09575	-0.004973643	-0.1193301	0	0	0	0	0	0
11.11234	-0.004973643	-0.1193301	0	0	0	0	0	0
11.12889	-0.004973643	-0.1193301	0	0	0	0	0	0
11.14586	-0.004973643	-0.1193301	0	0	0	0	0	0
11.16202	-0.004999958	-0.1193105	-0.001628238	0.001214264	-0.04913891	0.03664549	0	0
11.17859	-0.004999958	-0.1193105	0	0	0.04975177	-0.03710254	0	0
11.19539	-0.004999958	-0.1193105	0	0	0	0	0	0
11.24793	-0.004999958	-0.1193105	0	0	0	0	0	0
11.26449	-0.004999958	-0.1193105	0	0	0	0	0	0
11.28105	-0.004999958	-0.1193105	0	0	0	0	0	0
11.29762	-0.004999958	-0.1193105	0	0	0	0	0	0
11.31448	-0.004999958	-0.1193105	0	0	0	0	0	0
11.33076	-0.004999958	-0.1193105	0	0	0	0	0	0
11.43015	-0.004999958	-0.1193105	0	0	0	0	0	0
11.44672	-0.004999958	-0.1193105	0	0	0	0	0	0
11.46358	-0.004999958	-0.1193105	0	0	0	0	0	0
11.47985	-0.004999958	-0.1193105	0	0	0	0	0	0
11.4966	-0.004999958	-0.1193105	0	0	0	0	0	0
11.51299	-0.004999958	-0.1193105	0	0	0	0	0	0
11.52955	-0.004999958	-0.1193105	0	0	0	0	0	0
11.54614	-0.004999958	-0.1193105	0	0	0	0	0	0
11.56269	-0.004999958	-0.1193105	0	0	0	0	0	0
11.57926	-0.004999958	-0.1193105	0	0	0	0	0	0
11.59582	-0.005026273	-0.1192908	-0.00158865	0.001184312	-0.04794693	0.03574363	0	0
11.61268	-0.005026273	-0.1192908	0	0	0.0475229	-0.03542752	0	0
11.62895	-0.005026273	-0.1192908	0	0	0	0	0	0
11.64571	-0.005026273	-0.1192908	0	0	0	0	0	0
11.66222	-0.005026273	-0.1192908	0	0	0	0	0	0
11.69522	-0.005026273	-0.1192908	0	0	0	0	0	0
11.71179	-0.005026273	-0.1192908	0	0	0	0	0	0
11.72835	-0.005026273	-0.1192908	0	0	0	0	0	0
11.74492	-0.005026273	-0.1192908	0	0	0	0	0	0
11.76149	-0.005026273	-0.1192908	0	0	0	0	0	0
11.7783	-0.005026273	-0.1192908	0	0	0	0	0	0
11.79462	-0.005026273	-0.1192908	0	0	0	0	0	0
11.81132	-0.005026273	-0.1192908	0	0	0	0	0	0
11.84448	-0.005026273	-0.1192908	0	0	0	0	0	0
11.86105	-0.005026273	-0.1192908	0	0	0	0	0	0
11.87761	-0.005026273	-0.1192908	0	0	0	0	0	0
11.89418	-0.005026273	-0.1192908	0	0	0	0	0	0
11.91074	-0.005026273	-0.1192908	0	0	0	0	0	0
11.92731	-0.005026273	-0.1192908	0	0	0	0	0	0
11.94392	-0.005026273	-0.1192908	0	0	0	0	0	0
11.96044	-0.005026273	-0.1192908	0	0	0	0	0	0
11.97701	-0.005026273	-0.1192908	0	0	0	0	0	0
11.99358	-0.005026273	-0.1192908	0	0	0	0	0	0
12.01014	-0.005026273	-0.1192908	0	0	0	0	0	0
12.02671	-0.005026273	-0.1192908	0	0	0	0	0	0
12.04328	-0.005026273	-0.1192908	0	0	0	0	0	0
12.05984	-0.005026273	-0.1192908	0	0	0	0	0	0
12.07641	-0.005026273	-0.1192908	0	0	0	0	0	0
12.09298	-0.005026273	-0.1192908	0	0	0	0	0	0
12.10954	-0.005026273	-0.1192908	0	0	0	0	0	0
12.12611	-0.005026273	-0.1192908	0	0	0	0	0	0
12.14268	-0.005026273	-0.1192908	0	0	0	0	0	0
12.15924	-0.005026273	-0.1192908	0	0	0	0	0	0
12.17581	-0.005026273	-0.1192908	0	0	0	0	0	0
12.19259	-0.005026273	-0.1192908	0	0	0	0	0	0
12.20894	-0.005026273	-0.1192908	0	0	0	0	0	0
12.22551	-0.005026273	-0.1192908	0	0	0	0	0	0
12.24208	-0.005026273	-0.1192908	0	0	0	0	0	0
12.25864	-0.005026273	-0.1192908	0	0	0	0	0	0
12.27521	-0.005026273	-0.1192908	0	0	0	0	0	0
12.29216	-0.005026273	-0.1192908	0	0	0	0	0	0
12.30834	-0.005026273	-0.1192908	0	0	0	0	0	0
12.32491	-0.005026273	-0.1192908	0	0	0	0	0	0
12.34148	-0.005026273	-0.1192908	0	0	0	0	0	0
12.35822	-0.005026273	-0.1192908	0	0	0	0	0	0
12.37472	-0.005026273	-0.1192908	0	0	0	0	0	0
12.39118	-0.005026273	-0.1192908	0	0	0	0	0	0
12.40774	-0.005026273	-0.1192908	0	0	0	0	0	0
12.44088	-0.005026273	-0.1192908	0	0	0	0	0	0
12.47401	-0.005026273	-0.1192908	0	0	0	0	0	0
12.50931	-0.005026273	-0.1192908	0	0	0	0	0	0
12.52557	-0.005026273	-0.1192908	0	0	0	0	0	0
12.54213	-0.005026273	-0.1192908	0	0	0	0	0	0
12.5587	-0.005026273	-0.1192908	0	0	0	0	0	0
12.57536	-0.005026273	-0.1192908	0	0	0	0	0	0
12.59188	-0.005026273	-0.1192908	0	0	0	0	0	0
12.6084	-0.005026273	-0.1192908	0	0	0	0	0	0
12.62497	-0.005026273	-0.1192908	0	0	0	0	0	0
12.64153	-0.005026273	-0.1192908	0	0	0	0	0	0
12.6581	-0.005026273	-0.1192908	0	0	0	0	0	0
12.67467	-0.005026273	-0.1192908	0	0	0	0	0	0
12.69124	-0.005026273	-0.1192908	0	0	0	0	0	0
12.70796	-0.005026273	-0.1192908	0	0	0	0	0	0
12.72437	-0.005026273	-0.1192908	0	0	0	0	0	0
12.74093	-0.005026273	-0.1192908	0	0	0	0	0	0
12.7575	-0.005026273	-0.1192908	0	0	0	0	0	0
12.77407	-0.005026273	-0.1192908	0	0	0	0	0	0
12.79063	-0.005026273	-0.1192908	0	0	0	0	0	0
12.8072	-0.005026273	-0.1192908	0	0	0	0	0	0
12.82404	-0.005026273	-0.1192908	0	0	0	0	0	0
12.84055	-0.005026273	-0.1192908	0	0	0	0	0	0
12.8569	-0.005026273	-0.1192908	0	0	0	0	0	0
12.87347	-0.005026273	-0.1192908	0	0	0	0	0	0
12.89003	-0.005026273	-0.1192908	0	0	0	0	0	0
12.9066	-0.005026273	-0.1192908	0	0	0	0	0	0
12.92317	-0.005026273	-0.1192908	0	0	0	0	0	0
12.93974	-0.005026273	-0.1192908	0	0	0	0	0	0
12.9563	-0.005052588	-0.1192712	-0.001588467	0.001184625	-0.04794279	0.03575412	0	0
12.97287	-0.005342055	-0.1190554	-0.01747322	0.01302908	-0.4794305	0.3574869	0	0
12.98943	-0.006078872	-0.1184668	-0.04447697	0.03552796	-0.8150216	0.6790568	0	0
13.00617	-0.007710373	-0.1172509	-0.09748991	0.07265785	-1.591915	1.114966	0	0
13.02268	-0.007657745	-0.1172509	0.003188045	0	3.02853	-2.185647	0	0
13.03919	-0.007578802	-0.1171921	0.004781225	0.003562171	0.0482503	0.1078823	0	0
13.0557	-0.007473545	-0.1171136	0.006374249	0.004749314	0.04823861	0.03594806	0	0
13.07227	-0.007420917	-0.1170744	0.00317685	0.002367002	-0.09665905	-0.07201856	0	0
13.08883	-0.006841999	-0.1166039	0.03494557	0.02840087	0.9588372	0.7857491	0	0
13.1054	-0.005868354	-0.115722	0.05876593	0.05323095	0.7188997	0.7493731	0	0
13.12225	-0.005447315	-0.1152126	0.02499387	0.03024071	-1.010719	-0.6880444	0	0
13.13876	-0.002868413	-0.1027048	0.1561752	0.757457	3.932463	21.79998	0	0
13.15528	-0.002552626	-0.09355757	0.01911929	0.5538151	-4.149494	-6.165444	0	0
13.17167	-0.001868419	-0.05470633	0.04174579	2.370446	0.6875991	55.20578	0	0
13.18823	-0.001342105	-0.02185974	0.03177023	1.982739	-0.3026923	-11.76434	0	0
13.2048	-0.001289473	0.02921175	0.003176301	3.082149	-0.8629166	33.17836	0	0
13.22137	-0.001447367	0.04232872	-0.009532174	0.7918785	-0.3835426	-69.1205	0	0
13.2545	-0.00155263	0.1362342	-0.003177117	2.834318	0.1278787	41.0987	0	0
13.27107	-0.0008421051	0.1604898	0.04288986	1.464152	0.9269406	-27.56992	0	0
13.28763	0.00118421	0.1816491	0.1223157	1.277254	2.397213	-5.640924	0	0
13.3042	0.003815771	0.1897763	0.158823	0.4905004	1.101763	-23.74358	0	0
13.37047	0.01086799	0.1890903	0.1064244	-0.0103513	-0.6325726	-6.046433	0	0
13.38703	0.01071012	0.1891986	-0.009529467	0.006537999	-1.399862	0.2038975	0	0
13.4036	0.01057855	0.189325	-0.007941633	0.007627655	0.04792231	0.03288683	0	0
13.42017	0.01042068	0.1894333	-0.009528426	0.006536347	-0.04788816	-0.03293479	0	0
13.43673	0.01036805	0.1894694	-0.003176892	0.002179584	0.1916897	-0.1314874	0	0
13.4533	0.01036805	0.1894694	0	0	0.09588707	-0.06578565	0	0
13.46987	0.01034174	0.1894514	-0.001588327	-0.001090179	-0.04793855	-0.03290356	0	0
13.48643	0.01031542	0.1894694	-0.001588327	0.001090179	0	0.06580713	0	0
13.503	0.01005229	0.189686	-0.01588355	0.01307495	-0.4314554	0.361722	0	0
13.51957	0.009736534	0.1898665	-0.01905812	0.01089424	-0.09580875	-0.06581403	0	0
13.53613	0.009736534	0.1898665	0	0	0.5751917	-0.3287983	0	0
13.5527	0.009736534	0.1898665	0	0	0	0	0	0
13.56927	0.009736534	0.1898665	0	0	0	0	0	0
13.58607	0.009710222	0.1898485	-0.001565703	-0.001073764	-0.04691678	-0.03217568	0	0
13.6024	0.009631281	0.1897943	-0.004834729	-0.003316468	-0.09866223	-0.06768689	0	0
13.61897	0.009578655	0.1897582	-0.003176344	-0.002179208	0.05041291	0.03457134	0	0
13.63561	0.009578655	0.1897582	0	0	0.09564202	0.06561753	0	0
13.65212	0.009578655	0.1897582	0	0	0	0	0	0
13.66867	0.009578655	0.1897582	0	0	0	0	0	0
13.68523	0.009552341	0.1897763	-0.001588383	0.00108928	-0.04796924	0.0328963	0	0
13.7018	0.009473401	0.1898304	-0.004765092	0.003268738	-0.09587879	0.06577998	0	0
13.71837	0.009368147	0.1899026	-0.006352799	0.004357516	-0.04791711	0.03285938	0	0
13.73494	0.009210266	0.1900109	-0.009528046	0.006535971	-0.09581811	0.06573834	0	0
13.75169	0.009131325	0.190029	-0.004712251	0.001077187	0.1445216	-0.1638176	0	0
13.7682	0.008999757	0.1899748	-0.007966219	-0.00327784	-0.09781085	-0.1309075	0	0
13.78471	0.008552423	0.1898485	-0.02709632	-0.00765319	-0.579265	-0.1324869	0	0
13.80123	0.008210341	0.1898665	-0.02071724	0.001092866	0.1931829	0.2648637	0	0
13.81777	0.006420964	0.1897221	-0.1081689	-0.008729498	-2.645693	-0.2971579	0	0
13.83434	-0.002999991	0.1875558	-0.5685846	-0.1307449	-13.90498	-3.684979	0	0
13.85128	-0.03283031	0.1822454	-1.761126	-0.3135143	-35.59044	-5.454607	0	0
13.86777	-0.05790887	0.1803478	-1.520221	-0.1150268	7.205201	5.936542	0	0
13.88429	-0.08571055	0.1789379	-1.68354	-0.08537985	-4.947496	0.8981084	0	0
13.9006	-0.1224371	0.1776542	-2.251424	-0.07869318	-17.29961	0.2036979	0	0
13.91717	-0.1474999	0.1766777	-1.512616	-0.05893415	22.46864	0.6009121	0	0
13.93373	-0.1622711	0.1760809	-0.8916423	-0.03602538	18.74049	0.6913682	0	0
13.95033	-0.1869745	0.175068	-1.488444	-0.06103025	-17.99597	-0.7539973	0	0
13.96686	-0.1992168	0.1747605	-0.7404377	-0.01859913	22.57747	1.280721	0	0
13.98343	-0.2016177	0.1753574	-0.1449281	0.03603258	17.99116	1.650498	0	0
14.01656	-0.2051768	0.1764607	-0.1074178	0.03329808	0.7547392	-0.05502038	0	0
14.03339	-0.2051263	0.1764607	0.002998711	0	2.210134	-0.6665056	0	0
14.0499	-0.2051263	0.1764607	0	0	-0.08995754	0	0	0
14.06641	-0.2050002	0.1764064	0.007636563	-0.003285057	0.2312373	-0.09947248	0	0
14.08283	-0.204975	0.1764245	0.001536632	0.001101873	-0.1852211	0.1332068	0	0
14.09943	-0.2049246	0.1764607	0.00303812	0.002178291	0.04547203	0.03259895	0	0
14.11596	-0.2048236	0.1764607	0.006104685	0	0.09255445	-0.06574475	0	0
14.13253	-0.2046723	0.1764969	0.009135944	0.002183705	0.09158374	0.06597649	0	0
14.14947	-0.2037134	0.1768586	0.05661104	0.02135296	1.416897	0.5721076	0	0
14.16598	-0.1996718	0.1793898	0.2447649	0.1532999	5.624907	3.944587	0	0
14.18223	-0.1928368	0.1842328	0.4206535	0.2980498	5.368902	4.418411	0	0
14.19901	-0.1879143	0.1877002	0.2934698	0.2067256	-3.851491	-2.76556	0	0
14.21537	-0.1834152	0.1908231	0.2750055	0.1908809	-0.5572714	-0.4782078	0	0
14.23193	-0.1804115	0.1929523	0.1812889	0.1285157	-2.846066	-1.893962	0	0
14.24854	-0.1769967	0.1953335	0.2056139	0.1433714	0.7332023	0.4477783	0	0
14.26507	-0.1724029	0.1985793	0.2779982	0.1964257	2.184689	1.601276	0	0
14.28163	-0.1664969	0.2028148	0.356511	0.2556686	2.372663	1.790323	0	0
14.2982	-0.1586296	0.2083805	0.4748971	0.3359658	3.573104	2.423516	0	0
14.31476	-0.1469849	0.216605	0.7029163	0.4964596	6.88203	4.84399	0	0
14.33133	-0.1371855	0.2235456	0.5914243	0.4188865	-3.364738	-2.341093	0	0
14.34811	-0.1244845	0.2324743	0.7569577	0.5321372	4.963804	3.396018	0	0
14.36446	-0.1157435	0.2385598	0.5345639	0.3721631	-6.712631	-4.828583	0	0
14.38103	-0.1081813	0.2438166	0.4564855	0.3173231	-2.371908	-1.665962	0	0
14.3976	-0.1008931	0.2488737	0.4399394	0.3052645	-0.4993902	-0.363948	0	0
14.41416	-0.09901723	0.2502004	0.1132273	0.08007857	-9.860476	-6.796321	0	0
14.43073	-0.0990954	0.2502183	-0.004718169	0.00108106	-3.559499	-2.384081	0	0
14.4473	-0.09919964	0.25029	-0.006291916	0.004328335	-0.04749578	0.09800296	0	0
14.46386	-0.09940809	0.2504334	-0.01258366	0.008657168	-0.1899015	0.1306557	0	0
14.4807	-0.09969471	0.2506306	-0.01702096	0.01171101	-0.132836	0.0914204	0	0
14.497	-0.09972076	0.2506486	-0.001598988	0.001101048	0.4654494	-0.3202184	0	0
14.51373	-0.09972076	0.2506486	0	0	0.04841922	-0.033341	0	0
14.53013	-0.09972076	0.2506127	0	-0.002185556	0	-0.06596211	0	0
14.5467	-0.09977287	0.250541	-0.003145327	-0.004328086	-0.09539568	-0.06498149	0	0
14.56326	-0.09977287	0.250541	0	0	0.09493163	0.1306294	0	0
14.58029	-0.09977287	0.250541	0	0	0	0	0	0
14.5964	-0.09977287	0.250541	0	0	0	0	0	0
14.6133	-0.09977287	0.250541	0	0	0	0	0	0
14.62953	-0.09977287	0.250541	0	0	0	0	0	0
14.6461	-0.09979893	0.2504872	-0.001572664	-0.003246963	-0.04794608	-0.09899075	0	0
14.66266	-0.09979893	0.2504514	0	-0.002164167	0.04746445	0.03267979	0	0
14.67923	-0.09982498	0.2504334	-0.001572754	-0.001082983	-0.04746855	0.03263208	0	0
14.72893	-0.09985103	0.2503797	-0.0005242413	-0.001081763	0.01582277	1.841112E-05	0	0
14.7455	-0.09985103	0.2503438	0	-0.002164043	0.007911045	-0.0163321	0	0
14.7624	-0.09990314	0.2502721	-0.003082339	-0.004241412	-0.0920843	-0.062061	0	0
14.77863	-0.09998131	0.2502183	-0.004816981	-0.00331509	-0.05235462	0.02795806	0	0
14.7952	-0.09998131	0.2502183	0	0	0.1468903	0.1010912	0	0
14.81177	-0.1000074	0.2501645	-0.001572483	-0.003244791	-0.04745625	-0.09792517	0	0
14.82833	-0.1000595	0.2501287	-0.003145421	-0.002164416	-0.04747273	0.03260671	0	0
14.84496	-0.1001116	0.2500928	-0.003132524	-0.002155234	0.0003884495	0.0002765833	0	0
14.86147	-0.1002158	0.2499853	-0.006315654	-0.006519297	-0.09606427	-0.1317039	0	0
14.87803	-0.1006066	0.2496805	-0.02358952	-0.01839828	-0.522409	-0.3592529	0	0
14.895	-0.1009452	0.2494474	-0.01995918	-0.01373676	0.1082645	0.1390166	0	0
14.91151	-0.1014661	0.2490171	-0.03154961	-0.02605821	-0.3462029	-0.3680383	0	0
14.92802	-0.1031588	0.24778	-0.1025187	-0.07492924	-2.149088	-1.479914	0	0
14.9443	-0.1036014	0.2474393	-0.02718973	-0.02092884	2.297369	1.646895	0	0
14.96105	-0.1036014	0.2474393	0	0	0.8232653	0.6336947	0	0
14.97743	-0.1036275	0.2474572	-0.001588875	0.001094114	-0.04795511	0.03302232	0	0
14.99407	-0.1036014	0.2474393	0.001564829	-0.001077555	0.09550885	-0.06576826	0	0
15.01056	-0.1036275	0.2474572	-0.001577945	0.001086587	-0.09485184	0.06531584	0	0
15.06062	-0.1036014	0.2474752	0.0005201089	0.0003581517	0.03152631	-0.0109458	0	0
15.0934	-0.1035754	0.2474572	0.0007941602	-0.0005468659	0.003308545	-0.01092602	0	0
15.10996	-0.1035754	0.2474572	0	0	-0.01609372	0.01108228	0	0
15.12653	-0.1035233	0.2474214	0.003143079	-0.002164942	0.09486103	-0.06533997	0	0
15.1431	-0.103315	0.2472421	0.01257259	-0.01082353	0.2845913	-0.2613244	0	0
15.1597	-0.1031067	0.2470986	0.01254821	-0.008641955	-0.0007351808	0.06577772	0	0
15.17623	-0.1029766	0.2470089	0.007873785	-0.005422831	-0.1410784	0.09715617	0	0
15.1928	-0.1029245	0.2469731	0.00314326	-0.002165067	-0.1429156	0.0984215	0	0
15.20936	-0.1028724	0.2469372	0.003143709	-0.002165067	1.357664E-05	0	0	0
15.24274	-0.1017266	0.2457178	0.03432692	-0.03653244	0.6243407	-0.6880929	0	0
15.25906	-0.09628034	0.234575	0.333712	-0.6827604	6.02387	-13.00263	0	0
15.27563	-0.09625427	0.225217	0.001573473	-0.5648177	-10.09895	3.586145	0	0
15.29228	-0.09674963	0.2067058	-0.02975947	-1.112089	-0.9433766	-16.47733	0	0
15.33911	-0.09768806	0.1279793	-0.02003876	-1.681071	0.1531386	-8.963655	0	0
15.35582	-0.1015964	0.1047276	-0.2338058	-1.390983	-3.363913	4.564939	0	0
15.37233	-0.1051112	0.09770438	-0.2128779	-0.4253686	0.6298479	29.06115	0	0
15.38884	-0.1127565	0.09146059	-0.4631273	-0.3782261	-7.578938	1.427735	0	0
15.40538	-0.1221001	0.08483995	-0.5650855	-0.4004057	-3.08563	-0.6712373	0	0
15.42194	-0.1263496	0.08178373	-0.2565463	-0.1845062	9.321659	6.522809	0	0
15.43851	-0.1287574	0.07996	-0.145341	-0.1100865	3.356569	2.246249	0	0
15.45507	-0.1332582	0.0752036	-0.2716683	-0.2870972	-3.812675	-5.342349	0	0
15.47164	-0.1360491	0.07025713	-0.1684483	-0.2985524	3.115095	-0.3457062	0	0
15.48841	-0.1366173	0.06682065	-0.03388645	-0.2049253	4.036341	2.808454	0	0
15.50493	-0.1373663	0.05680872	-0.04533875	-0.6061009	-0.3440368	-12.05166	0	0
15.52134	-0.1367723	0.04357466	0.0361953	-0.8064689	2.476096	-6.084949	0	0
15.55448	-0.1345764	0.02551411	0.06625788	-0.544943	0.606688	5.277811	0	0
15.57104	-0.1312671	0.008319822	0.1998503	-1.038387	2.687936	-9.928308	0	0
15.58761	-0.1268935	-0.0006108844	0.2640256	-0.5391206	1.93743	15.07267	0	0
15.60417	-0.1233184	-0.005019224	0.2158019	-0.2661032	-1.45552	8.240392	0	0
15.62074	-0.1219964	-0.006282527	0.07980164	-0.0762575	-4.104733	5.729885	0	0
15.63731	-0.1220483	-0.006244809	-0.003129767	0.002276772	-2.503019	2.370305	0	0
15.65387	-0.1220223	-0.006263668	0.001564659	-0.001138386	0.1416862	-0.1030756	0	0
15.67054	-0.1220483	-0.006282527	-0.001554902	-0.001131287	-0.09385948	0.0002135801	0	0
15.68701	-0.1220483	-0.006282527	0	0	0.04692839	0.0341433	0	0
15.70357	-0.1220483	-0.006282527	0	0	0	0	0	0
15.72014	-0.1221001	-0.006244809	-0.003130217	0.002276772	-0.09447557	0.06871707	0	0
15.73709	-0.122152	-0.006207092	-0.003059149	0.002225372	0.002120501	-0.001533634	0	0
15.7536	-0.122152	-0.006207092	0	0	0.09143056	-0.066511	0	0
15.76984	-0.1221779	-0.006188233	-0.001595801	0.001161015	-0.04872231	0.03544761	0	0
15.78662	-0.1221779	-0.006188233	0	0	0.04831992	-0.03515486	0	0
15.80313	-0.1221779	-0.006188233	0	0	0	0	0	0
15.81954	-0.122152	-0.006169375	0.001580031	0.001149542	0.0480018	0.03492342	0	0
15.8361	-0.122152	-0.005867657	0	0.01821277	-0.04792127	0.5175163	0	0
15.86924	-0.1221001	-0.005716809	0.001564794	0.004552621	0.03148431	-0.274848	0	0
15.88581	-0.1220742	-0.005735664	0.001565109	-0.001138189	6.338334E-06	-0.1145015	0	0
15.90237	-0.1219964	-0.00575452	0.004695146	-0.001138255	0.09447287	-1.978227E-06	0	0
15.91894	-0.1219705	-0.005773376	0.001564838	-0.001138021	-0.09447287	7.061977E-06	0	0
15.95207	-0.1218668	-0.005848801	0.003130172	-0.002276594	0.03149579	-0.02290901	0	0
15.96864	-0.1218668	-0.005811088	0	0.002276098	-0.06298161	0.09160385	0	0
15.9852	-0.1218149	-0.005773376	0.003130397	0.002276566	0.09447557	1.412395E-05	0	0
16.00177	-0.1217631	-0.005735664	0.003129676	0.002276013	-2.175511E-05	-1.666767E-05	0	0
16.01834	-0.1217112	-0.005697953	0.003130758	0.0022768	3.263454E-05	2.373101E-05	0	0
16.0349	-0.1216594	-0.005660242	0.003130037	0.002276219	-2.175761E-05	-1.751994E-05	0	0
16.05147	-0.1216334	-0.005641387	0.001565018	0.001138096	-0.04723235	-0.03434864	0	0
16.06804	-0.1216075	-0.005660242	0.001565018	-0.001138096	0	-0.06869558	0	0
16.08484	-0.121426	-0.005792232	0.01080506	-0.007857464	0.2769361	-0.2013882	0	0
16.10134	-0.1213741	-0.005867657	0.003141611	-0.004569526	-0.2301045	0.0987244	0	0
16.11774	-0.1211926	-0.005999655	0.01107119	-0.008050847	0.2410078	-0.1058096	0	0
16.13437	-0.1204665	-0.006527701	0.04366863	-0.03175592	0.9870882	-0.7178172	0	0
16.15088	-0.1146269	-0.01077403	0.3537415	-0.2572271	9.35748	-6.804343	0	0
16.16744	-0.1083893	-0.01534742	0.3765865	-0.276114	0.6907757	-0.5710915	0	0
16.18401	-0.09888694	-0.02225772	0.5734333	-0.4170106	5.940847	-4.252267	0	0
16.20057	-0.09150689	-0.02762604	0.445563	-0.3241066	-3.859131	2.803847	0	0
16.21714	-0.08241814	-0.0342782	0.5485983	-0.4015251	3.109968	-2.336761	0	0
16.23371	-0.07802548	-0.03743828	0.2651411	-0.1907434	-8.554755	6.361403	0	0
16.25027	-0.07182361	-0.04195572	0.3743457	-0.2726727	3.2958	-2.472633	0	0
16.26684	-0.06637603	-0.04592601	0.3288167	-0.2396475	-1.374068	0.996704	0	0
16.29997	-0.06066232	-0.05016942	0.17245	-0.1280737	-3.146224	2.244956	0	0
16.31655	-0.0607672	-0.05009291	-0.006326588	0.004615721	-3.59644	2.669306	0	0
16.33311	-0.06079341	-0.05007378	-0.001583104	0.001154825	0.1431421	-0.104438	0	0
16.35003	-0.06081963	-0.05005465	-0.001549379	0.001130444	0.00100721	-0.0007281523	0	0
16.36624	-0.06084585	-0.05003553	-0.001617568	0.001179965	-0.002058178	0.001494729	0	0
16.38281	-0.06084585	-0.05003553	0	0	0.04934952	-0.03599893	0	0
16.39938	-0.06084585	-0.05003553	0	0	0	0	0	0
16.41607	-0.06084585	-0.05003553	0	0	0	0	0	0
16.43251	-0.06084585	-0.05003553	0	0	0	0	0	0
16.44909	-0.06084585	-0.05007378	0	-0.002306687	0	-0.06984512	0	0
16.46564	-0.06084585	-0.05007378	0	0	0	0.06961995	0	0
16.48221	-0.06084585	-0.05007378	0	0	0	0	0	0
16.49878	-0.06084585	-0.05007378	0	0	0	0	0	0
16.51564	-0.06084585	-0.05007378	0	0	0	0	0	0
16.53191	-0.06084585	-0.05007378	0	0	0	0	0	0
16.54848	-0.06087207	-0.05009291	-0.001582557	-0.001154426	-0.04820006	-0.03516043	0	0
16.56517	-0.06087207	-0.05009291	0	0	0.04757272	0.03470281	0	0
16.58169	-0.06087207	-0.05009291	0	0	0	0	0	0
16.63131	-0.06089829	-0.05007378	-0.0005283708	0.0003854299	-0.007989458	0.005828058	0	0
16.64787	-0.06089829	-0.05007378	0	0	0.007982781	-0.005823188	0	0
16.66444	-0.06089829	-0.05007378	0	0	0	0	0	0
16.68101	-0.06089829	-0.05007378	0	0	0	0	0	0
16.69757	-0.06089829	-0.05007378	0	0	0	0	0	0
16.71414	-0.06089829	-0.05007378	0	0	0	0	0	0
16.73079	-0.06089829	-0.05007378	0	0	0	0	0	0
16.7473	-0.06089829	-0.05007378	0	0	0	0	0	0
16.76384	-0.06089829	-0.05007378	0	0	0	0	0	0
16.79734	-0.06089829	-0.05007378	0	0	0	0	0	0
16.81354	-0.06089829	-0.05007378	0	0	0	0	0	0
16.83011	-0.06089829	-0.05007378	0	0	0	0	0	0
16.84688	-0.06089829	-0.05007378	0	0	0	0	0	0
16.86338	-0.06087207	-0.05009291	0.001588226	-0.001158561	0.04772943	-0.03481713	0	0
16.87981	-0.06087207	-0.05009291	0	0	-0.04822702	0.0351801	0	0
16.89637	-0.06087207	-0.05009291	0	0	0	0	0	0
16.91294	-0.06087207	-0.05009291	0	0	0	0	0	0
16.92951	-0.06087207	-0.05009291	0	0	0	0	0	0
16.94608	-0.06087207	-0.05009291	0	0	0	0	0	0
16.96264	-0.06087207	-0.05009291	0	0	0	0	0	0
16.97921	-0.06087207	-0.05009291	0	0	0	0	0	0
16.99578	-0.06087207	-0.05009291	0	0	0	0	0	0
17.01234	-0.06087207	-0.05009291	0	0	0	0	0	0
17.04699	-0.06089829	-0.05011204	-0.0007567352	-0.000552122	-0.01477588	-0.01078064	0	0
17.06356	-0.06089829	-0.05011204	0	0	0.01477588	0.01078064	0	0
17.08013	-0.06089829	-0.05011204	0	0	0	0	0	0
17.09669	-0.06089829	-0.05011204	0	0	0	0	0	0
17.11326	-0.06089829	-0.05011204	0	0	0	0	0	0
17.12983	-0.06089829	-0.05011204	0	0	0	0	0	0
17.14639	-0.06089829	-0.05011204	0	0	0	0	0	0
17.1631	-0.06089829	-0.05011204	0	0	0	0	0	0
17.17953	-0.06089829	-0.05011204	0	0	0	0	0	0
17.19612	-0.06089829	-0.05011204	0	0	0	0	0	0
17.21266	-0.06092451	-0.05013116	-0.001585478	-0.001156556	-0.04784982	-0.03490494	0	0
17.22923	-0.06092451	-0.05013116	0	0	0.04788565	0.03493108	0	0
17.24579	-0.06092451	-0.05013116	0	0	0	0	0	0
17.26236	-0.06092451	-0.05013116	0	0	0	0	0	0
17.27918	-0.06092451	-0.05013116	0	0	0	0	0	0
17.29549	-0.06089829	-0.05015029	0.001607542	-0.00117288	0.04851572	-0.03539759	0	0
17.31206	-0.06092451	-0.05016942	-0.001582557	-0.001154651	-0.09703144	0.0005544649	0	0
17.32863	-0.06092451	-0.05016942	0	0	0.04775893	0.03484543	0	0
17.34523	-0.06092451	-0.05016942	0	0	0	0	0	0
17.37833	-0.06089829	-0.0502268	0.0007922364	-0.00173396	0.01594105	-0.03489002	0	0
17.39489	-0.06089829	-0.0502268	0	0	-0.01595268	0.03491548	0	0
17.41146	-0.06089829	-0.0502268	0	0	0	0	0	0
17.42829	-0.06089829	-0.0502268	0	0	0	0	0	0
17.44459	-0.06089829	-0.0502268	0	0	0	0	0	0
17.46116	-0.06089829	-0.0502268	0	0	0	0	0	0
17.47773	-0.06089829	-0.0502268	0	0	0	0	0	0
17.49434	-0.06089829	-0.0502268	0	0	0	0	0	0
17.51086	-0.06089829	-0.0502268	0	0	0	0	0	0
17.52743	-0.06089829	-0.0502268	0	0	0	0	0	0
17.54437	-0.06092451	-0.05024593	-0.001547635	-0.001129171	-0.04618661	-0.03369825	0	0
17.56056	-0.06092451	-0.05024593	0	0	0.0467131	0.03408237	0	0
17.57713	-0.06092451	-0.05024593	0	0	0	0	0	0
17.59369	-0.06092451	-0.05024593	0	0	0	0	0	0
17.65996	-0.06092451	-0.05028419	0	-0.0005772858	0	-0.006969169	0	0
17.67653	-0.06095073	-0.05026506	-0.001582557	0.001154426	-0.01910511	0.02090575	0	0
17.69309	-0.06092451	-0.05028419	0.001582557	-0.001154426	0.09552336	-0.06968129	0	0
17.70966	-0.06092451	-0.05028419	0	0	-0.04776168	0.03484064	0	0
17.72623	-0.06092451	-0.05028419	0	0	0	0	0	0
17.7428	-0.06092451	-0.05028419	0	0	0	0	0	0
17.77604	-0.06095073	-0.05030332	-0.0007888267	-0.0005755364	-0.0158378	-0.01155543	0	0
17.7925	-0.06095073	-0.05034158	0	-0.002324287	0.01587244	-0.03518762	0	0
17.80906	-0.06097694	-0.05036071	-0.001582557	-0.001154651	-0.04791614	0.03541384	0	0
17.82563	-0.06095073	-0.05037984	0.001582557	-0.001154651	0.09552336	0	0	0
17.8422	-0.06097694	-0.05039896	-0.001582375	-0.001154518	-0.09551236	4.012096E-06	0	0
17.8591	-0.06095073	-0.0504181	0.001551478	-0.001132195	0.0936366	0.0006669796	0	0
17.87561	-0.06092451	-0.05043723	0.001588042	-0.001158653	0.001094444	-0.0007919203	0	0
17.8919	-0.06092451	-0.05047549	0	-0.002349057	-0.04842056	-0.03629628	0	0
17.90846	-0.06092451	-0.05047549	0	0	0	0.07149969	0	0
17.92514	-0.06089829	-0.05049461	0.00157188	-0.001146861	0.04727887	-0.03449517	0	0
17.9416	-0.06087207	-0.05055201	0.00159338	-0.003487869	0.0006488762	-0.07065176	0	0
17.95816	-0.06087207	-0.05055201	0	0	-0.04825498	0.1056289	0	0
17.97473	-0.06084585	-0.05057114	0.001582557	-0.001154876	0.04776443	-0.03485622	0	0
17.9913	-0.06087207	-0.05059027	-0.001582557	-0.001154651	-0.09552336	6.784417E-06	0	0
18.00786	-0.06087207	-0.05059027	0	0	0.04776168	0.03484743	0	0
18.02443	-0.06087207	-0.05059027	0	0	0	0	0	0
18.05774	-0.06087207	-0.05059027	0	0	0	0	0	0
18.07413	-0.06089829	-0.05057114	-0.001599313	0.001166876	-0.03217824	0.02347759	0	0
18.09076	-0.06089829	-0.05057114	0	0	0.04843185	-0.03533639	0	0
18.10727	-0.06089829	-0.05057114	0	0	0	0	0	0
18.12383	-0.06089829	-0.05057114	0	0	0	0	0	0
18.1404	-0.06089829	-0.05057114	0	0	0	0	0	0
18.15696	-0.06089829	-0.05057114	0	0	0	0	0	0
18.17353	-0.06089829	-0.05057114	0	0	0	0	0	0
18.1901	-0.06089829	-0.05057114	0	0	0	0	0	0
18.20666	-0.06089829	-0.05057114	0	0	0	0	0	0
18.22323	-0.06089829	-0.05057114	0	0	0	0	0	0
18.2398	-0.06089829	-0.05057114	0	0	0	0	0	0
18.25638	-0.06089829	-0.05057114	0	0	0	0	0	0
18.27293	-0.06089829	-0.05057114	0	0	0	0	0	0
18.2895	-0.06089829	-0.05057114	0	0	0	0	0	0
18.30606	-0.06089829	-0.05057114	0	0	0	0	0	0
18.32263	-0.06102938	-0.05074332	-0.007911876	-0.01039178	-0.2387809	-0.3136247	0	0
18.3392	-0.06134399	-0.05108772	-0.01898979	-0.02078776	-0.3343129	-0.3137332	0	0
18.35577	-0.06213046	-0.05265715	-0.04747133	-0.09473083	-0.8595744	-2.231606	0	0
18.37233	-0.06304791	-0.05451476	-0.05539012	-0.1121515	-0.2390172	-0.5258181	0	0
18.3889	-0.06131777	-0.05696786	0.1044312	-0.1480696	4.823974	-1.084136	0	0
18.40548	-0.0562039	-0.06070903	0.3083543	-0.2255836	6.151223	-2.338164	0	0
18.42203	-0.05035214	-0.0649934	0.3536201	-0.258903	1.366203	-1.005639	0	0
18.4386	-0.04095078	-0.07196216	0.5674673	-0.4206356	6.45764	-4.883911	0	0
18.45517	-0.03866493	-0.07371671	0.1379583	-0.1058928	-12.96186	9.49841	0	0
18.4883	-0.02849229	-0.08854976	0.3070287	-0.4476878	3.401703	-6.87693	0	0
18.5561	-0.03493315	-0.1495979	-0.09499191	-0.9003577	-3.98289	-4.484683	0	0
18.57267	-0.03837589	-0.1582168	-0.207828	-0.5202963	-1.337402	4.504716	0	0
18.58924	-0.04171263	-0.1620688	-0.2013137	-0.232398	0.1965688	8.687287	0	0
18.6058	-0.05184823	-0.170193	-0.6120673	-0.4906038	-12.39657	-7.792664	0	0
18.62237	-0.05701708	-0.174266	-0.3119927	-0.2458464	9.058356	7.388493	0	0
18.63894	-0.0610556	-0.1777227	-0.2437653	-0.208652	2.059106	1.122528	0	0
18.65567	-0.06451561	-0.1837245	-0.206799	-0.3587151	1.11015	-4.506601	0	0
18.67207	-0.06551138	-0.1870344	-0.06071337	-0.2018085	4.409127	4.735721	0	0
18.68864	-0.06836697	-0.190936	-0.1723634	-0.2355011	-3.386565	-1.021962	0	0
18.7052	-0.06941461	-0.1921909	-0.06323574	-0.07574239	3.293479	4.821527	0	0
18.72177	-0.07012168	-0.1927375	-0.04268404	-0.0330014	0.620287	1.29	0	0
18.73834	-0.07263515	-0.194723	-0.1517133	-0.1198408	-3.290697	-2.62097	0	0
18.7549	-0.0752262	-0.1966494	-0.1563957	-0.1162773	-0.1413167	0.1075487	0	0
18.77175	-0.0751477	-0.1965074	0.004660957	0.008430953	4.82074	3.73276	0	0
18.78804	-0.0751477	-0.1964668	0	0.002490743	-0.1406761	-0.1792862	0	0
18.80477	-0.0751477	-0.1964668	0	0	0	-0.07542695	0	0
18.82128	-0.07517386	-0.1964465	-0.0015847	0.001228233	-0.04766994	0.03694692	0	0
18.83774	-0.07517386	-0.1964465	0	0	0.04806429	-0.03725256	0	0
18.85431	-0.07517386	-0.1964465	0	0	0	0	0	0
18.87087	-0.0751477	-0.1964668	0.001579591	-0.001224273	0.04767491	-0.03695076	0	0
18.88743	-0.0751477	-0.1964668	0	0	-0.04768039	0.03695502	0	0
18.904	-0.0751477	-0.1964668	0	0	0	0	0	0
18.92057	-0.0751477	-0.1964668	0	0	0	0	0	0
18.93714	-0.0751477	-0.1964668	0	0	0	0	0	0
18.9537	-0.07512153	-0.1964871	0.001579591	-0.001224273	0.04767491	-0.03695076	0	0
18.97027	-0.07509536	-0.1965074	0.001579228	-0.001224891	-1.097593E-05	-1.863519E-05	0	0
18.9869	-0.07509536	-0.1965074	0	0	-0.04757355	0.0368993	0	0
19.00341	-0.07509536	-0.1965074	0	0	0	0	0	0
19.01997	-0.07509536	-0.1965074	0	0	0	0	0	0
19.03654	-0.07509536	-0.1965074	0	0	0	0	0	0
19.06967	-0.07509536	-0.1965074	0	0	0	0	0	0
19.08646	-0.07509536	-0.1965074	0	0	0	0	0	0
19.10298	-0.07509536	-0.1965074	0	0	0	0	0	0
19.11949	-0.07509536	-0.1965074	0	0	0	0	0	0
19.136	-0.07509536	-0.1965074	0	0	0	0	0	0
19.15251	-0.07509536	-0.1965074	0	0	0	0	0	0
19.16907	-0.07509536	-0.1965074	0	0	0	0	0	0
19.18564	-0.07509536	-0.1965074	0	0	0	0	0	0
19.20255	-0.07509536	-0.1965074	0	0	0	0	0	0
19.21877	-0.07509536	-0.1965074	0	0	0	0	0	0
19.23534	-0.07509536	-0.1965074	0	0	0	0	0	0
19.2686	-0.07509536	-0.1965074	0	0	0	0	0	0
19.28511	-0.07512153	-0.1964871	-0.001585066	0.001229419	-0.0318476	0.02470184	0	0
19.30162	-0.07512153	-0.1964465	0	0.002456466	0.0480032	0.03716069	0	0
19.31817	-0.07512153	-0.1964465	0	0	0	-0.07429453	0	0
19.33474	-0.07509536	-0.1964262	0.001579409	0.001225032	0.04768863	0.03698856	0	0
19.3513	-0.07512153	-0.1964059	-0.001579591	0.001224273	-0.09534431	-2.289477E-05	0	0
19.36787	-0.07512153	-0.1964059	0	0	0.04767491	-0.03695076	0	0
19.38444	-0.07512153	-0.1963654	0	0.002448265	0	0.07388877	0	0
19.45073	-0.07509536	-0.196264	0.0003947387	0.00152995	0.004764199	-0.01108336	0	0
19.46724	-0.07509536	-0.1962234	0	0.002457368	-0.004767381	0.01120072	0	0
19.48345	-0.0750692	-0.1961625	0.001613781	0.003752316	0.04931145	0.03956903	0	0
19.50002	-0.07504302	-0.1961423	0.001580041	0.001224273	-0.001029287	-0.07712222	0	0
19.51658	-0.07501686	-0.196122	0.001579409	0.001224132	-1.906492E-05	-4.251485E-06	0	0
19.53328	-0.07496452	-0.1960408	0.003133924	0.00485883	0.04672972	0.1092614	0	0
19.5498	-0.07480751	-0.195392	0.009509104	0.03929804	0.1919613	1.03699	0	0
19.56628	-0.07451965	-0.1934667	0.01745771	0.116761	0.2408598	2.347294	0	0
19.58289	-0.07279221	-0.185177	0.104005	0.499101	2.614863	11.55168	0	0
19.59942	-0.07192833	-0.1765766	0.0522763	0.5204411	-1.561176	0.6440446	0	0
19.61598	-0.07106434	-0.1636073	0.05215665	0.7829151	-0.003616023	7.931981	0	0
19.63255	-0.07059303	-0.1576186	0.02844826	0.3614806	-0.7155617	-12.71965	0	0
19.64912	-0.06805264	-0.1470164	0.1533381	0.6399504	3.769182	8.404235	0	0
19.66569	-0.06545898	-0.1394271	0.156554	0.4580926	0.09705722	-5.48848	0	0
19.6824	-0.06024281	-0.1291019	0.3120465	0.6176796	4.671796	4.794817	0	0
19.69891	-0.0575679	-0.1200955	0.1620735	0.5457031	-4.5145	-2.166644	0	0
19.71539	-0.0560465	-0.1097915	0.09232042	0.6252595	-2.114769	2.411988	0	0
19.73195	-0.05402632	-0.09491791	0.1219526	0.897878	0.8967267	8.249962	0	0
19.74894	-0.05323911	-0.0868438	0.04634209	0.4753151	-2.25352	-12.5942	0	0
19.76508	-0.05195321	-0.07001609	0.07964389	1.042241	1.005108	17.11083	0	0
19.78165	-0.05050964	-0.05685282	0.0871342	0.7945365	0.2289708	-7.572055	0	0
19.79822	-0.04809446	-0.04048729	0.1457969	0.9879397	1.770546	5.837255	0	0
19.81498	-0.04599386	-0.02925923	0.1252784	0.6696317	-0.6155648	-9.549384	0	0
19.83136	-0.04528481	-0.02582292	0.04330182	0.2098564	-2.473488	-13.87285	0	0
19.86448	-0.03396062	-0.00315344	0.3418827	0.6844028	6.032228	9.587259	0	0
19.88105	-0.02891299	0.001703976	0.3046755	0.2931942	-0.7487831	-7.872945	0	0
19.89761	-0.02386389	0.00523905	0.3047996	0.2134021	0.003747266	-2.408268	0	0
19.91418	-0.02120735	0.007136686	0.1603493	0.1145415	-4.35977	-2.98379	0	0
19.93075	-0.02107583	0.007042768	0.007938533	-0.005668863	-4.599766	-3.627956	0	0
19.94731	-0.02097061	0.006930064	0.006351648	-0.006803638	-0.04789505	-0.03424955	0	0
19.99702	-0.02102322	0.006516783	-0.001058446	-0.008314909	-0.1118185	-0.02280513	0	0
20.01358	-0.02133887	0.006291335	-0.01905691	-0.01361118	-0.2716052	-0.07992314	0	0
20.03015	-0.02233839	0.005577321	-0.06033135	-0.04309802	-1.245808	-0.8900171	0	0
20.04671	-0.02260141	0.005351811	-0.01587628	-0.01361181	1.341657	0.8898956	0	0
20.06328	-0.02262772	0.005295431	-0.001587617	-0.0034031	0.4312327	0.3080994	0	0
20.07985	-0.02283813	0.005069903	-0.01270082	-0.01361291	-0.3353972	-0.3081325	0	0
20.09642	-0.02310115	0.004881951	-0.015874	-0.0113435	-0.09576128	0.06848675	0	0
20.11298	-0.02315376	0.004844359	-0.003175487	-0.002269313	0.383242	0.2738596	0	0
20.14612	-0.02315376	0.004844359	0	0	0.06389582	0.04566218	0	0
20.16268	-0.02318006	0.004825563	-0.001587617	-0.001134526	-0.03194414	-0.02282758	0	0
20.17925	-0.02318006	0.004825563	0	0	0.04791437	0.03424006	0	0
20.19582	-0.02318006	0.004825563	0	0	0	0	0	0
20.21239	-0.02320636	0.004806767	-0.001587687	-0.001134657	-0.04791649	-0.034244	0	0
20.22895	-0.02320636	0.004769174	0	-0.00226908	0.04791925	-0.03423893	0	0
20.2623	-0.02375869	0.004336831	-0.01656157	-0.01296383	-0.3317808	-0.2142498	0	0
20.29533	-0.02546818	0.003077079	-0.05175934	-0.03814234	-0.5302654	-0.3793222	0	0
20.31184	-0.02557337	0.002926629	-0.00637231	-0.009113681	0.9162478	0.5860143	0	0
20.32836	-0.02557337	0.002926629	0	0	0.1929387	0.275941	0	0
20.34492	-0.02554707	0.002907823	0.001587392	-0.001135172	0.04797662	-0.03430895	0	0
20.36149	-0.02554707	0.002907823	0	0	-0.0479131	0.03426352	0	0
20.37806	-0.02554707	0.002907823	0	0	0	0	0	0
20.3949	-0.02554707	0.002907823	0	0	0	0	0	0
20.41119	-0.02554707	0.002907823	0	0	0	0	0	0
20.42792	-0.02554707	0.002907823	0	0	0	0	0	0
20.44444	-0.02554707	0.002907823	0	0	0	0	0	0
20.46095	-0.02552077	0.002889016	0.001592709	-0.001138989	0.0482263	-0.03448792	0	0
20.47746	-0.02554707	0.002870209	-0.001592894	-0.001139121	-0.09646932	-3.983696E-06	0	0
20.49402	-0.02554707	0.002870209	0	0	0.04815678	0.0344382	0	0
20.51098	-0.02554707	0.002870209	0	0	0	0	0	0
20.52716	-0.02552077	0.002851402	0.001626145	-0.0011629	0.04907999	-0.03509841	0	0
20.56052	-0.02546818	0.002776173	0.001576682	-0.002255104	-0.0009986107	-0.02205051	0	0
20.57703	-0.02536298	0.002700942	0.006370838	-0.00455614	0.09613027	-0.04613934	0	0
20.59342	-0.02533668	0.002682134	0.001604012	-0.001147143	-0.1448554	0.1035934	0	0
20.60999	-0.02533668	0.002682134	0	0	-0.04866128	0.03480114	0	0
20.62656	-0.02531038	0.00262571	0.001587027	-0.003405	0.04789104	-0.1027513	0	0
20.64312	-0.02531038	0.00262571	0	0	-0.04790207	0.1027749	0	0
20.65969	-0.02528408	0.002569284	0.001587504	-0.00340584	0.04792201	-0.1028121	0	0
20.67626	-0.02523149	0.002531667	0.003174784	-0.002270598	0.04790419	0.03426169	0	0
20.69282	-0.02523149	0.002494049	0	-0.002270626	-0.09581516	-8.50248E-07	0	0
20.70939	-0.02520519	0.00247524	0.001587209	-0.001135182	0.04789931	0.03426579	0	0
20.72613	-0.02520519	0.00247524	0	0	-0.04764972	0.03407939	0	0
20.74265	-0.02520519	0.002437621	0	-0.00227826	0	-0.06851351	0	0
20.75916	-0.02520519	0.002437621	0	0	0	0.06898837	0	0
20.77566	-0.02520519	0.002437621	0	0	0	0	0	0
20.79222	-0.02517889	0.002418812	0.001587575	-0.001135472	0.0480126	-0.03433977	0	0
20.80879	-0.02520519	0.002400002	-0.001587392	-0.001135355	-0.0958262	3.520651E-06	0	0
20.8257	-0.02517889	0.002381193	0.001554989	-0.001112166	0.09385931	0.0006926428	0	0
20.84192	-0.02517889	0.002381193	0	0	-0.04692965	0.03356523	0	0
20.87524	-0.02517889	0.002381193	0	0	0	0	0	0
20.89162	-0.02517889	0.002381193	0	0	0	0	0	0
20.90819	-0.02517889	0.002381193	0	0	0	0	0	0
20.92477	-0.02517889	0.002381193	0	0	0	0	0	0
20.94132	-0.02517889	0.002381193	0	0	0	0	0	0
20.97481	-0.02517889	0.002381193	0	0	0	0	0	0
20.99132	-0.02517889	0.002381193	0	0	0	0	0	0
21.00759	-0.02517889	0.002381193	0	0	0	0	0	0
21.02435	-0.02517889	0.002381193	0	0	0	0	0	0
21.04072	-0.02517889	0.002381193	0	0	0	0	0	0
21.05737	-0.02517889	0.002381193	0	0	0	0	0	0
21.07388	-0.02517889	0.002381193	0	0	0	0	0	0
21.09042	-0.02517889	0.002381193	0	0	0	0	0	0
21.10699	-0.02517889	0.002381193	0	0	0	0	0	0
21.12356	-0.02517889	0.002381193	0	0	0	0	0	0
21.14043	-0.02517889	0.002381193	0	0	0	0	0	0
21.23952	-0.02520519	0.002362383	-0.0002653903	-0.0001898182	-0.002288577	-0.001636887	0	0
21.25609	-0.02520519	0.002362383	0	0	0.00229454	0.001641151	0	0
21.27266	-0.02520519	0.002362383	0	0	0	0	0	0
21.28922	-0.02520519	0.002362383	0	0	0	0	0	0
21.30579	-0.02520519	0.002362383	0	0	0	0	0	0
21.32236	-0.02520519	0.002362383	0	0	0	0	0	0
21.33893	-0.02520519	0.002362383	0	0	0	0	0	0
21.35558	-0.02517889	0.002343573	0.00157921	-0.001129503	0.04754025	-0.03400236	0	0
21.37209	-0.02517889	0.002343573	0	0	-0.04761955	0.03405907	0	0
21.38862	-0.02517889	0.002305953	0	-0.002275468	0	-0.06886403	0	0
21.40519	-0.02515259	0.002249522	0.001587504	-0.003406164	0.04796067	-0.03415986	0	0
21.42176	-0.02512629	0.002230712	0.001587392	-0.001135411	-3.393965E-06	0.06853143	0	0
21.43864	-0.02512629	0.002230712	0	0	-0.04745413	0.03394244	0	0
21.45489	-0.02512629	0.002230712	0	0	0	0	0	0
21.47166	-0.02509999	0.002211901	0.001568075	-0.001121581	0.04748588	-0.03396473	0	0
21.48802	-0.02512629	0.002193091	-0.001607378	-0.001149721	-0.09584087	-0.0008493131	0	0
21.50459	-0.02512629	0.002193091	0	0	0.04881423	0.03491571	0	0
21.52119	-0.02512629	0.002193091	0	0	0	0	0	0
21.53773	-0.02512629	0.002193091	0	0	0	0	0	0
21.57086	-0.02512629	0.002193091	0	0	0	0	0	0
21.58742	-0.02509999	0.00217428	0.001587392	-0.001135411	0.03194084	-0.02284627	0	0
21.60399	-0.02509999	0.002136658	0	-0.002271126	-0.04791034	-0.03427792	0	0
21.62056	-0.02507369	0.002117847	0.001587392	-0.001135439	0.04791034	0.03427707	0	0
21.63713	-0.02507369	0.002117847	0	0	-0.04790482	0.03426566	0	0
21.65379	-0.02507369	0.002117847	0	0	0	0	0	0
21.67026	-0.02507369	0.002117847	0	0	0	0	0	0
21.68682	-0.02507369	0.002117847	0	0	0	0	0	0
21.70339	-0.02507369	0.002117847	0	0	0	0	0	0
21.73667	-0.02507369	0.002117847	0	0	0	0	0	0
21.76987	-0.02507369	0.002117847	0	0	0	0	0	0
21.78638	-0.02509999	0.002099036	-0.001592894	-0.001139389	-0.0320417	-0.02291927	0	0
21.80293	-0.02507369	0.002080224	0.001588855	-0.0011365	0.09623588	8.736964E-05	0	0
21.83607	-0.02504739	0.002061413	0.0007937065	-0.0005676941	-0.01600273	0.01144748	0	0
21.85264	-0.02504739	0.002061413	0	0	-0.01596879	0.01142159	0	0
21.8692	-0.02507369	0.002042601	-0.001587504	-0.001135468	-0.04791097	-0.03426848	0	0
21.88577	-0.02504739	0.00202379	0.00158787	-0.001135743	0.09584402	-8.317226E-06	0	0
21.90247	-0.02504739	0.00202379	0	0	-0.0477379	0.03414511	0	0
21.9189	-0.02504739	0.00202379	0	0	0	0	0	0
21.9355	-0.02504739	0.00202379	0	0	0	0	0	0
21.95204	-0.02504739	0.00202379	0	0	0	0	0	0
21.9686	-0.02504739	0.00202379	0	0	0	0	0	0
21.98517	-0.02507369	0.002042601	-0.001587504	0.001135482	-0.04791097	0.0342689	0	0
22.00174	-0.02507369	0.002042601	0	0	0.04791097	-0.0342689	0	0
22.0183	-0.02507369	0.002042601	0	0	0	0	0	0
22.03487	-0.02507369	0.002042601	0	0	0	0	0	0
22.05158	-0.02507369	0.002042601	0	0	0	0	0	0
22.06809	-0.02507369	0.002042601	0	0	0	0	0	0
22.08457	-0.02507369	0.002042601	0	0	0	0	0	0
22.10114	-0.02507369	0.002042601	0	0	0	0	0	0
22.11771	-0.02507369	0.002042601	0	0	0	0	0	0
22.13427	-0.02509999	0.002061413	-0.001587392	0.001135468	-0.04791034	0.03427045	0	0
22.15084	-0.02509999	0.002061413	0	0	0.04790482	-0.03426651	0	0
22.20054	-0.02588895	0.001572279	-0.01587514	-0.009842156	-0.2395632	-0.1485227	0	0
22.21711	-0.027309	0.0006314352	-0.08571421	-0.05678942	-1.053934	-0.7084765	0	0
22.23371	-0.03398691	-0.004039085	-0.402292	-0.2813625	-9.544996	-6.771002	0	0
22.25024	-0.0473593	-0.0133056	-0.8086487	-0.5603604	-12.26316	-8.41969	0	0
22.26681	-0.06278579	-0.02360368	-0.931252	-0.6216646	-3.703799	-1.851975	0	0
22.28338	-0.07449348	-0.03087429	-0.7066773	-0.4388552	6.778068	5.517515	0	0
22.29994	-0.0878	-0.03709546	-0.8031836	-0.3755107	-2.912566	1.911743	0	0
22.31651	-0.1089095	-0.04292871	-1.274169	-0.3520956	-14.21436	0.706667	0	0
22.34964	-0.1499193	-0.0468812	-1.23775	-0.1192932	0.7327805	4.684174	0	0
22.3663	-0.1724285	-0.04997814	-1.351347	-0.1859255	-2.281552	-1.338282	0	0
22.38277	-0.2016935	-0.05576021	-1.77646	-0.3509865	-12.8314	-4.982125	0	0
22.39934	-0.2212142	-0.06132343	-1.178277	-0.3357965	18.10425	0.4597329	0	0
22.41591	-0.2326068	-0.06562796	-0.6876547	-0.2598221	14.80702	2.292913	0	0
22.43248	-0.256536	-0.07587768	-1.444369	-0.6186743	-22.83768	-10.83018	0	0
22.44905	-0.2607662	-0.07757678	-0.2553061	-0.1025459	35.88392	15.57589	0	0
22.46587	-0.2723497	-0.08254493	-0.688327	-0.2952218	-12.9656	-5.769142	0	0
22.48218	-0.2855798	-0.09118836	-0.8115567	-0.5302034	-3.719507	-7.092574	0	0
22.49874	-0.2914085	-0.09590945	-0.3518215	-0.2849656	13.98675	7.46099	0	0
22.51531	-0.2973853	-0.1007364	-0.3607619	-0.2913552	-0.2698218	-0.1928381	0	0
22.54844	-0.3009897	-0.1038553	-0.1087814	-0.09412821	5.069859	3.968214	0	0
22.56501	-0.3010858	-0.1040113	-0.005795298	-0.009417809	2.072004	1.704311	0	0
22.58158	-0.3010138	-0.1040699	0.004346575	-0.003532491	0.3060823	0.1776192	0	0
22.59814	-0.3009658	-0.1041089	0.002898316	-0.002354994	-0.04371356	0.03554103	0	0
22.61498	-0.3008938	-0.1041674	0.004277136	-0.003476501	0.04128254	-0.03357846	0	0
22.63128	-0.3008697	-0.1041869	0.001473643	-0.001196649	-0.08460959	0.06880606	0	0
22.648	-0.3008217	-0.1042259	0.002870552	-0.002332435	0.04229761	-0.03439094	0	0
22.66442	-0.3007737	-0.1042649	0.002925602	-0.002377619	0.001661289	-0.001363565	0	0
22.68104	-0.3006777	-0.104343	0.005776678	-0.004694223	0.08630899	-0.07012922	0	0
22.69754	-0.3006297	-0.104382	0.002908698	-0.002363882	-0.08657075	0.070342	0	0
22.71411	-0.3005096	-0.1044795	0.007245855	-0.005887707	0.1311372	-0.1065455	0	0
22.73068	-0.3003415	-0.1046161	0.01014564	-0.00824333	0.08751556	-0.07109283	0	0
22.74758	-0.2999093	-0.1049673	0.02558021	-0.02078293	0.4611969	-0.3746928	0	0
22.76381	-0.2997651	-0.1050844	0.008876131	-0.007210938	-0.504101	0.4095798	0	0
22.78038	-0.2997651	-0.1050844	0	0	-0.2705925	0.2198284	0	0
22.79695	-0.2997651	-0.1050844	0	0	0	0	0	0
22.81362	-0.2997651	-0.1050844	0	0	0	0	0	0
22.83013	-0.2997651	-0.1050844	0	0	0	0	0	0
22.84665	-0.2997651	-0.1050844	0	0	0	0	0	0
22.86321	-0.2997651	-0.1050844	0	0	0	0	0	0
22.87978	-0.2997651	-0.1050844	0	0	0	0	0	0
22.89635	-0.2997651	-0.1050844	0	0	0	0	0	0
22.91291	-0.2997651	-0.1050844	0	0	0	0	0	0
22.9297	-0.2997651	-0.1050844	0	0	0	0	0	0
22.94604	-0.2997651	-0.1050844	0	0	0	0	0	0
23.02888	-0.2997651	-0.1050844	0	0	0	0	0	0
23.0623	-0.2997651	-0.1050844	0	0	0	0	0	0
23.07858	-0.2997651	-0.1050844	0	0	0	0	0	0
23.09532	-0.2997651	-0.1050844	0	0	0	0	0	0
23.11172	-0.2997651	-0.1050844	0	0	0	0	0	0
23.12834	-0.2997651	-0.1050844	0	0	0	0	0	0
23.14486	-0.2997651	-0.1050844	0	0	0	0	0	0
23.16141	-0.2997651	-0.1050844	0	0	0	0	0	0
23.17798	-0.2997651	-0.1050844	0	0	0	0	0	0
23.21111	-0.2997651	-0.1050844	0	0	0	0	0	0
23.22768	-0.2997651	-0.1050844	0	0	0	0	0	0
23.24442	-0.2997411	-0.1051039	0.001434531	-0.001165334	0.0430637	-0.03498258	0	0
23.26094	-0.2997171	-0.1051234	0.001454748	-0.001181757	0.0006078907	-0.0004938191	0	0
23.27745	-0.299645	-0.1051429	0.004363739	-0.00118162	0.08808254	4.13481E-06	0	0
23.29396	-0.2995249	-0.1052405	0.007274578	-0.005909918	0.08814359	-0.1431783	0	0
23.31051	-0.2984915	-0.1060798	0.06243338	-0.05070653	1.668345	-1.354928	0	0
23.32708	-0.2962543	-0.1078959	0.1350258	-0.1096097	2.191725	-1.778419	0	0
23.34365	-0.2933148	-0.1102803	0.1774708	-0.1439564	1.281067	-1.036644	0	0
23.37702	-0.2805574	-0.1206059	0.3822236	-0.309365	4.099968	-3.31214	0	0
23.39353	-0.2770062	-0.1234347	0.2151159	-0.1713578	-3.349873	2.766519	0	0
23.41004	-0.2714463	-0.1276839	0.3367642	-0.2573721	3.684291	-2.605063	0	0
23.42655	-0.2691734	-0.1287277	0.1376505	-0.06321203	-6.029742	5.87973	0	0
23.44306	-0.2665549	-0.1263454	0.1585837	0.1442745	0.6338814	6.282933	0	0
23.45961	-0.2609136	-0.1218235	0.3409402	0.2732916	5.516231	3.90273	0	0
23.47659	-0.2527158	-0.1151342	0.4827569	0.3939249	4.229877	3.598053	0	0
23.51522	-0.2232673	-0.09171251	0.7622566	0.6062554	5.025666	3.8179	0	0
23.54836	-0.2066141	-0.07887111	0.5025944	0.3875543	-3.618088	-3.047343	0	0
23.56515	-0.1817101	-0.06001798	1.483396	1.12298	19.64631	14.73121	0	0
23.5815	-0.173501	-0.05384435	0.502153	0.3776413	-29.61227	-22.49306	0	0
23.59817	-0.1541618	-0.0394579	1.159709	0.8627062	19.91156	14.68833	0	0
23.61469	-0.1436614	-0.03176769	0.6357818	0.4656296	-15.78489	-11.96314	0	0
23.6312	-0.1372113	-0.02701856	0.3907189	0.2876849	-7.420788	-5.388371	0	0
23.64776	-0.1226964	-0.01653909	0.8761252	0.632542	14.67578	10.42641	0	0
23.66433	-0.1151463	-0.01115175	0.4557755	0.3252176	-12.68691	-9.275604	0	0
23.6809	-0.1084673	-0.006376822	0.4030488	0.2881491	-1.591205	-1.118666	0	0
23.69746	0	0	6.54861	0.3849944	185.4734	2.922799	0	0
23.71403	-0.09906935	0.0004620552	-5.980526	0.02789292	-378.1954	-10.77921	0	0
23.73059	-0.09854815	0.0008384435	0.03146319	0.02272146	181.4631	-0.156093	0	0
23.74716	-0.09857421	0.0008572618	-0.001573113	0.001135875	-0.997095	-0.6514917	0	0
23.76379	-0.09857421	0.0008948981	0	0.002263131	0.04738664	0.03395614	0	0
23.7803	-0.09862634	0.0008948981	-0.003157131	0	-0.09526595	-0.06828963	0	0
23.79686	-0.09862634	0.0008948981	0	0	0.09546925	0	0	0
23.81343	-0.09865239	0.000913716	-0.001572845	0.001135985	-0.04748221	0.03429396	0	0
23.82999	-0.09865239	0.000913716	0	0	0.04747128	-0.03428606	0	0
23.84656	-0.09865239	0.000913716	0	0	0	0	0	0
23.86312	-0.09865239	0.000913716	0	0	0	0	0	0
23.87969	-0.09860028	0.000913716	0.003145777	0	0.09495067	0	0	0
23.89639	-0.09854815	0.0009513517	0.003122501	0.002254563	-0.0006998217	0.06778531	0	0
23.91283	-0.09839179	0.001064256	0.009510495	0.0068671	0.19279	0.1392066	0	0
23.92941	-0.09729706	0.001892105	0.0660243	0.04992884	1.711402	1.304035	0	0
23.94596	-0.09565455	0.003039467	0.09923352	0.06931875	1.002314	0.5852224	0	0
23.96253	-0.09565455	0.003039467	0	0	-2.996253	-2.093008	0	0
23.97909	-0.09565455	0.003039467	0	0	0	0	0	0
23.99566	-0.09562848	0.003020661	0.001573832	-0.001135014	0.0474956	-0.03425281	0	0
24.01223	-0.09565455	0.003001855	-0.001574194	-0.001135275	-0.0950076	-7.887631E-06	0	0
24.02898	-0.09562848	0.002983049	0.001556806	-0.001122736	0.09397985	0.0003763829	0	0
24.04549	-0.09562848	0.002983049	0	0	-0.04680669	0.03375598	0	0
24.062	-0.09562848	0.002983049	0	0	0	0	0	0
24.09506	-0.09560241	0.002964242	0.0007885064	-0.0005688234	0.01590568	-0.01147425	0	0
24.11163	-0.09562848	0.002945436	-0.001573925	-0.00113542	-0.0476053	-0.01141747	0	0
24.12819	-0.09562848	0.002945436	0	0	0.04750663	0.03427098	0	0
24.14506	-0.09562848	0.002945436	0	0	0	0	0	0
24.16157	-0.09562848	0.002945436	0	0	0	0	0	0
24.17808	-0.09560241	0.002926629	0.001578834	-0.001138961	0.04780894	-0.03448906	0	0
24.19446	-0.09560241	0.002926629	0	0	-0.04800023	0.03462705	0	0
24.21103	-0.09560241	0.002926629	0	0	0	0	0	0
24.22762	-0.09560241	0.002926629	0	0	0	0	0	0
24.24416	-0.09560241	0.002926629	0	0	0	0	0	0
24.26073	-0.09560241	0.002926629	0	0	0	0	0	0
24.27729	-0.09560241	0.002926629	0	0	0	0	0	0
24.29386	-0.09560241	0.002926629	0	0	0	0	0	0
24.31068	-0.09560241	0.002926629	0	0	0	0	0	0
24.3272	-0.09560241	0.002926629	0	0	0	0	0	0
24.34356	-0.09560241	0.002926629	0	0	0	0	0	0
24.36021	-0.09560241	0.002926629	0	0	0	0	0	0
24.37672	-0.09560241	0.002926629	0	0	0	0	0	0
24.39326	-0.09560241	0.002926629	0	0	0	0	0	0
24.40983	-0.09560241	0.002926629	0	0	0	0	0	0
24.42676	-0.09560241	0.002926629	0	0	0	0	0	0
24.44327	-0.09560241	0.002926629	0	0	0	0	0	0
24.47629	-0.09560241	0.002926629	0	0	0	0	0	0
24.49266	-0.09562848	0.002907823	-0.001592818	-0.001149063	-0.03224928	-0.02326472	0	0
24.50923	-0.09562848	0.002907823	0	0	0.04836085	0.03488764	0	0
24.52583	-0.09565455	0.002889016	-0.001570577	-0.001132709	-0.04734561	-0.03414591	0	0
24.54236	-0.09565455	0.002889016	0	0	0.04740284	0.03418719	0	0
24.55893	-0.09562848	0.002870209	0.001574013	-0.001135186	0.04755855	-0.03429948	0	0
24.5755	-0.09562848	0.002870209	0	0	-0.0475038	0.03425999	0	0
24.60863	-0.09562848	0.002870209	0	0	0	0	0	0
24.6252	-0.09562848	0.002870209	0	0	0	0	0	0
24.64176	-0.09562848	0.002870209	0	0	0	0	0	0
24.65833	-0.09560241	0.002851402	0.001573563	-0.001135186	0.04749023	-0.03425999	0	0
24.6749	-0.09560241	0.002851402	0	0	-0.04749296	0.03426196	0	0
24.69146	-0.09560241	0.002851402	0	0	0	0	0	0
24.70803	-0.09560241	0.002851402	0	0	0	0	0	0
24.7246	-0.09560241	0.002851402	0	0	0	0	0	0
24.74116	-0.09557633	0.002832595	0.001574013	-0.0011352	0.04750653	-0.03426239	0	0
24.75773	-0.09557633	0.002832595	0	0	-0.0475038	0.03426042	0	0
24.7743	-0.09557633	0.002832595	0	0	0	0	0	0
24.79086	-0.09557633	0.002832595	0	0	0	0	0	0
24.824	-0.09555025	0.002813787	0.0007870064	-0.0005676073	0.0158346	-0.01142028	0	0
24.84057	-0.09555025	0.002813787	0	0	-0.0158346	0.01142028	0	0
24.85713	-0.09555025	0.002813787	0	0	0	0	0	0
24.8737	-0.09555025	0.002813787	0	0	0	0	0	0
24.89027	-0.09552418	0.00279498	0.001574013	-0.0011352	0.0475038	-0.03426042	0	0
24.90683	-0.09552418	0.00279498	0	0	-0.0475038	0.03426042	0	0
24.9234	-0.09552418	0.00279498	0	0	0	0	0	0
24.93997	-0.0954981	0.002776173	0.001574194	-0.001135359	0.04750927	-0.03426521	0	0
24.95654	-0.0954981	0.002776173	0	0	-0.04751201	0.03426718	0	0
24.9731	-0.0954981	0.002776173	0	0	0	0	0	0
24.98967	-0.0954981	0.002776173	0	0	0	0	0	0
25.00624	-0.0954981	0.002776173	0	0	0	0	0	0
25.0228	-0.0954981	0.002776173	0	0	0	0	0	0
25.03937	-0.0954981	0.002776173	0	0	0	0	0	0
25.05593	-0.0954981	0.002776173	0	0	0	0	0	0
25.0725	-0.0954981	0.002776173	0	0	0	0	0	0
25.08907	-0.0954981	0.002776173	0	0	0	0	0	0
25.10563	-0.0954981	0.002776173	0	0	0	0	0	0
25.1222	-0.0954981	0.002776173	0	0	0	0	0	0
25.13877	-0.0954981	0.002776173	0	0	0	0	0	0
25.15534	-0.0954981	0.002776173	0	0	0	0	0	0
25.1719	-0.0954981	0.002776173	0	0	0	0	0	0
25.18847	-0.0954981	0.002776173	0	0	0	0	0	0
25.2216	-0.09547202	0.002757365	0.0007870064	-0.0005676073	0.0158346	-0.01142028	0	0
25.23834	-0.09547202	0.002757365	0	0	-0.0157801	0.01138097	0	0
25.25485	-0.09547202	0.002757365	0	0	0	0	0	0
25.2713	-0.09547202	0.002757365	0	0	0	0	0	0
25.28788	-0.09544595	0.002738558	0.001573469	-0.001134851	0.04764923	-0.03436658	0	0
25.30444	-0.09541987	0.00271975	0.001574557	-0.001135621	3.281184E-05	-2.32448E-05	0	0
25.40384	-0.08693819	-0.003473752	0.08532909	-0.06230914	0.7222642	-0.527535	0	0
25.42047	-0.07964694	-0.008735103	0.4383345	-0.3163012	3.04227	-2.188954	0	0
25.43697	-0.07187597	-0.01434526	0.4709549	-0.3399996	0.9844856	-0.7152197	0	0
25.45354	-0.06160615	-0.02176498	0.6199585	-0.4479072	4.506278	-3.263419	0	0
25.4701	-0.05654492	-0.02542448	0.3055317	-0.2209131	-9.490513	6.851485	0	0
25.48667	-0.04651904	-0.03268036	0.6051632	-0.4379659	9.043416	-6.551045	0	0
25.50353	-0.03803428	-0.0387909	0.5032765	-0.3624482	-3.048101	2.259231	0	0
25.5198	-0.03482801	-0.04107838	0.1970006	-0.1405488	-9.243425	6.696938	0	0
25.53656	-0.03451261	-0.04126909	0.01882788	-0.01138363	-5.394653	3.910819	0	0
25.55294	-0.03493315	-0.04092583	-0.02567377	0.02095538	-1.34314	0.9760495	0	0
25.56957	-0.03495944	-0.04086863	-0.001579875	0.003438288	0.7297175	-0.5305299	0	0
25.58609	-0.0351697	-0.04071608	-0.01273423	0.009238369	-0.3364842	0.1749662	0	0
25.6192	-0.03543253	-0.04052542	-0.007936349	0.005757236	0.09667455	-0.07014282	0	0
25.63613	-0.03543253	-0.04052542	0	0	0.1586023	-0.1150543	0	0
25.65234	-0.03540625	-0.04054448	0.001621285	-0.001176149	0.04893328	-0.0354983	0	0
25.68558	-0.03540625	-0.04054448	0	0	-0.03278134	0.02378099	0	0
25.70217	-0.03540625	-0.04054448	0	0	0	0	0	0
25.71872	-0.03540625	-0.04054448	0	0	0	0	0	0
25.73528	-0.03540625	-0.04054448	0	0	0	0	0	0
25.75185	-0.03540625	-0.04054448	0	0	0	0	0	0
25.76842	-0.03540625	-0.04054448	0	0	0	0	0	0
25.78498	-0.03540625	-0.04054448	0	0	0	0	0	0
25.80155	-0.03540625	-0.04054448	0	0	0	0	0	0
25.81812	-0.03540625	-0.04054448	0	0	0	0	0	0
25.83469	-0.03543253	-0.04052542	-0.00158638	0.001150828	-0.04787704	0.03473206	0	0
25.85129	-0.03543253	-0.04052542	0	0	0.04783024	-0.03469811	0	0
25.86782	-0.03545881	-0.04050635	-0.001589674	0.001153218	-0.04797923	0.03480619	0	0
25.88439	-0.0354851	-0.04048729	-0.001586605	0.001150828	9.273095E-05	-7.219832E-05	0	0
25.90096	-0.0354851	-0.04048729	0	0	0.04788107	-0.03473007	0	0
25.91782	-0.0354851	-0.04048729	0	0	0	0	0	0
25.93434	-0.0354851	-0.04048729	0	0	0	0	0	0
25.95065	-0.0354851	-0.04048729	0	0	0	0	0	0
25.96722	-0.0354851	-0.04048729	0	0	0	0	0	0
25.98379	-0.0354851	-0.04048729	0	0	0	0	0	0
26.00035	-0.0354851	-0.04044915	0	0.002301656	0	0.06946412	0	0
26.01692	-0.03572164	-0.04020131	-0.01427765	0.01495987	-0.4309002	0.3820255	0	0
26.03349	-0.03716709	-0.03907674	-0.0872473	0.0678793	-2.202229	1.597112	0	0
26.05006	-0.04391911	-0.03418306	-0.4075059	0.2953488	-9.664868	6.864648	0	0
26.06662	-0.04969589	-0.02996216	-0.3487274	0.2548038	1.77394	-1.223652	0	0
26.08319	-0.0557317	-0.02559523	-0.3643221	0.2635879	-0.4706776	0.2651204	0	0
26.09975	-0.0573843	-0.02440015	-0.09976252	0.07214385	7.984884	-5.778125	0	0
26.11632	-0.05754167	-0.02428635	-0.009498074	0.006867864	2.724186	-1.970033	0	0
26.13289	-0.05751544	-0.02430532	0.001583414	-0.001144889	0.33444	-0.2418254	0	0
26.14946	-0.05751544	-0.02430532	0	0	-0.04778754	0.03455281	0	0
26.16602	-0.05748921	-0.02432428	0.001583414	-0.001144889	0.04778754	-0.03455281	0	0
26.18259	-0.05741053	-0.02441911	0.004749471	-0.005723897	0.09555729	-0.1382027	0	0
26.19916	-0.05725315	-0.02453291	0.009499392	-0.006868992	0.1433529	-0.03455903	0	0
26.21572	-0.05659739	-0.02500712	0.03958192	-0.02862309	0.9078926	-0.6565399	0	0
26.23255	-0.05617767	-0.02531065	0.02494363	-0.01803862	-0.4383528	0.3169584	0	0
26.24886	-0.0562039	-0.02532962	-0.001608268	-0.001163151	-0.8012457	0.5092441	0	0
26.26543	-0.05617767	-0.02534859	0.001583821	-0.001145358	0.09709759	0.0005412249	0	0
26.28199	-0.05617767	-0.02534859	0	0	-0.04780533	0.03457095	0	0
26.2986	-0.05617767	-0.02534859	0	0	0	0	0	0
26.31513	-0.05617767	-0.02534859	0	0	0	0	0	0
26.3317	-0.05617767	-0.02534859	0	0	0	0	0	0
26.34826	-0.05617767	-0.02534859	0	0	0	0	0	0
26.36483	-0.05615144	-0.02536756	0.001583414	-0.001145226	0.04779029	-0.03456498	0	0
26.38139	-0.05615144	-0.02536756	0	0	-0.04779304	0.03456698	0	0
26.39796	-0.05617767	-0.02538654	-0.001583232	-0.001145207	-0.04778479	-0.0345644	0	0
26.41453	-0.05617767	-0.02538654	0	0	0.04778203	0.03456241	0	0
26.43315	-0.05612521	-0.02542448	0.002817357	-0.002037648	0.08006432	-0.05790635	0	0
26.44972	-0.05607274	-0.02546242	0.003166549	-0.002290037	0.009922881	-0.007172084	0	0
26.46629	-0.05607274	-0.02550037	0	-0.002290413	-0.09556114	-1.13477E-05	0	0
26.48285	-0.05599404	-0.02559523	0.004750918	-0.005726693	0.1433912	-0.1037131	0	0
26.49942	-0.05586287	-0.0256901	0.007917284	-0.005726258	0.09556663	1.311284E-05	0	0
26.51599	-0.05570547	-0.0258419	0.009500966	-0.009162328	0.04779563	-0.1037008	0	0
26.53255	-0.05557429	-0.02597472	0.007917509	-0.008017459	-0.04778883	0.03455222	0	0
26.54912	-0.05512829	-0.02637324	0.02692057	-0.02405418	0.5735134	-0.483989	0	0
26.56569	-0.05386889	-0.02732228	0.07601807	-0.05728451	1.481766	-1.002893	0	0
26.58231	-0.05321287	-0.02783489	0.03946976	-0.03084151	-1.101255	0.796767	0	0
26.59882	-0.04982714	-0.03070325	0.2050477	-0.1737145	4.997439	-4.312164	0	0
26.61539	-0.04607264	-0.03372646	0.2266486	-0.1825028	0.6530461	-0.2656903	0	0
26.63195	-0.04386658	-0.03578168	0.1331579	-0.1240531	-2.821719	1.764117	0	0
26.64852	-0.03556395	-0.04226094	0.5011479	-0.3910887	11.10596	-8.059149	0	0
26.66509	-0.02988584	-0.04649909	0.3426919	-0.2557859	-4.781936	4.083212	0	0
26.68165	-0.02210166	-0.05231256	0.4699077	-0.3509425	3.83938	-2.871833	0	0
26.69822	-0.01820851	-0.05526197	0.234991	-0.1780262	-7.090208	5.218923	0	0
26.7149	-0.01302558	-0.05915441	0.3107319	-0.2333635	2.278126	-1.664428	0	0
26.73141	-0.006894628	-0.0638208	0.3713046	-0.2826073	1.824938	-1.483619	0	0
26.74792	-0.002368417	-0.06732082	0.2741178	-0.211969	-2.942929	2.139009	0	0
26.76449	0.002394732	-0.07119128	0.2875373	-0.2336486	0.4057022	-0.6554242	0	0
26.78106	0.004473655	-0.0727911	0.1254984	-0.09657636	-4.890906	4.137325	0	0
26.79762	0.004026294	-0.07400603	-0.02700272	-0.07333326	-4.602759	0.7015185	0	0
26.81419	0.0008947366	-0.07626375	-0.1890212	-0.1362762	-4.889728	-1.899623	0	0
26.83076	-0.01123637	-0.08517766	-0.7323194	-0.5381067	-16.39771	-12.12797	0	0
26.84732	-0.01962906	-0.09136306	-0.5065253	-0.3733088	6.814477	4.973611	0	0
26.86401	-0.03106895	-0.09982093	-0.6856192	-0.5068998	-5.385534	-4.017215	0	0
26.88052	-0.0393481	-0.1059627	-0.5014628	-0.3719999	5.547633	4.0638	0	0
26.89703	-0.05029964	-0.1141157	-0.6632505	-0.4937659	-4.899402	-3.687428	0	0
26.91359	-0.05300294	-0.1161335	-0.1632468	-0.1218528	15.11886	11.24572	0	0
26.93016	-0.06365074	-0.1241424	-0.6427765	-0.4834732	-14.4764	-10.91687	0	0
26.97986	-0.09088055	-0.1446954	-0.5478228	-0.413496	1.432813	1.055927	0	0
26.99643	-0.09680177	-0.1492006	-0.3574876	-0.2719936	2.872164	2.135277	0	0
27.01299	-0.103289	-0.1541522	-0.3915703	-0.2988816	-1.028738	-0.8115771	0	0
27.02956	-0.104929	-0.1554067	-0.09900151	-0.07572953	8.830253	6.735132	0	0
27.04613	-0.1070888	-0.1570605	-0.1303633	-0.0998212	-0.946556	-0.7271299	0	0
27.06269	-0.1070888	-0.1570206	0	0.002405991	3.934373	3.085223	0	0
27.07926	-0.1070888	-0.1570206	0	0	0	-0.07260877	0	0
27.09583	-0.1070627	-0.1570405	0.001570596	-0.001202684	0.04740068	-0.03629708	0	0
27.11239	-0.1070627	-0.1570405	0	0	-0.04740614	0.03630126	0	0
27.12896	-0.1070627	-0.1570405	0	0	0	0	0	0
27.14553	-0.1070627	-0.1570405	0	0	0	0	0	0
27.17866	-0.1070627	-0.1570405	0	0	0	0	0	0
27.19524	-0.1070888	-0.1570206	-0.001568789	0.001201301	-0.03155442	0.02416281	0	0
27.21179	-0.1070888	-0.1570206	0	0	0.04734889	-0.03625742	0	0
27.24493	-0.1070627	-0.1570007	0.0007852075	0.0006017226	0.01580447	0.01211133	0	0
27.26149	-0.1070627	-0.1570007	0	0	-0.01579841	-0.01210668	0	0
27.27806	-0.1070627	-0.1570007	0	0	0	0	0	0
27.29463	-0.1070627	-0.1570007	0	0	0	0	0	0
27.31119	-0.1070627	-0.1570007	0	0	0	0	0	0
27.32784	-0.1070627	-0.1570007	0	0	0	0	0	0
27.34435	-0.1070627	-0.1570007	0	0	0	0	0	0
27.36089	-0.1070367	-0.1570206	0.00157295	-0.001205388	0.04759502	-0.03647316	0	0
27.37746	-0.1070367	-0.1570206	0	0	-0.04750729	0.03640592	0	0
27.39403	-0.1070107	-0.1570007	0.001570596	0.001203584	0.04740068	0.03632423	0	0
27.41059	-0.1069847	-0.1569409	0.001569965	0.003609436	-1.90333E-05	0.07261295	0	0
27.42741	-0.1065684	-0.156622	0.02475568	0.01896321	0.6945488	0.4599361	0	0
27.44392	-0.1061521	-0.1562633	0.02521262	0.02172194	0.01371061	0.08277738	0	0
27.46043	-0.1052413	-0.1555262	0.05516038	0.04464144	0.9068531	0.6940289	0	0
27.47695	-0.104981	-0.1549685	0.0157599	0.03376935	-1.193023	-0.3292005	0	0
27.49343	-0.1051112	-0.1543911	-0.007895679	0.03503555	-0.7169394	0.03837537	0	0
27.50999	-0.1022995	-0.1502537	0.1697309	0.2497652	5.375015	6.49776	0	0
27.52656	-0.09818328	-0.1471156	0.2484861	0.189434	2.377108	-1.821009	0	0
27.54313	-0.08581504	-0.1376472	0.7465484	0.5715178	15.03242	11.53197	0	0
27.56	-0.07907163	-0.1325125	0.3995805	0.304254	-10.37476	-7.991514	0	0
27.57652	-0.07475517	-0.1291414	0.2614151	0.2041646	-4.13816	-2.997751	0	0
27.59283	-0.06425353	-0.1210968	0.6438123	0.4931791	11.65008	8.805093	0	0
27.60954	-0.05898413	-0.1170352	0.3153389	0.2430596	-9.947131	-7.574346	0	0
27.62596	-0.05623014	-0.1148991	0.1676988	0.1300727	-4.456042	-3.410149	0	0
27.64253	-0.05116583	-0.1104954	0.3056821	0.2658071	4.182642	4.114474	0	0
27.65909	-0.05037839	-0.1069779	0.04753001	0.2123163	-7.791044	-1.614355	0	0
27.67566	-0.04917086	-0.1040503	0.07288668	0.1767095	0.7652658	-1.074617	0	0
27.69223	-0.04867205	-0.1037578	0.03010448	0.01765794	-1.291095	-4.799909	0	0
27.72536	-0.04867205	-0.1037578	0	0	-0.6057265	-0.3552921	0	0
27.74193	-0.04867205	-0.1037578	0	0	0	0	0	0
27.75864	-0.04867205	-0.1037578	0	0	0	0	0	0
27.77506	-0.0486458	-0.1037773	0.00159894	-0.00118803	0.04825609	-0.03585482	0	0
27.79163	-0.0486458	-0.1038163	0	-0.002354273	-0.04847374	-0.03535604	0	0
27.8082	-0.04859329	-0.1038943	0.003169387	-0.004709446	0.09565229	-0.07107926	0	0
27.82476	-0.04854079	-0.1039333	0.003169387	-0.002354723	0	0.07106569	0	0
27.84133	-0.04840952	-0.1040699	0.007922444	-0.008240582	0.1434393	-0.1776254	0	0
27.85822	-0.04835701	-0.1041479	0.003109601	-0.004620609	-0.1438606	0.1082046	0	0
27.87446	-0.04822574	-0.1042454	0.008080806	-0.006004535	0.1500485	-0.04177178	0	0
27.89124	-0.04812072	-0.1043234	0.006258303	-0.004649938	-0.05518431	0.0410164	0	0
27.9076	-0.04809446	-0.104382	0.001605695	-0.003579096	-0.1404241	0.03231993	0	0
27.92416	-0.04798944	-0.104499	0.006338999	-0.007065518	0.1437867	-0.1059093	0	0
27.94078	-0.04793693	-0.1045771	0.003160878	-0.004697367	-0.09578355	0.07137235	0	0
27.97387	-0.04780566	-0.1047136	0.003967384	-0.004127592	0.01622692	0.01146388	0	0
27.99043	-0.0477794	-0.1047332	0.001584624	-0.001177676	-0.04798359	0.05940488	0	0
28.00733	-0.04775314	-0.1047527	0.001554384	-0.001154761	-0.0009037365	0.0006848268	0	0
28.02357	-0.04772689	-0.1047722	0.001616822	-0.001201605	0.001884609	-0.001413932	0	0
28.1064	-0.04806821	-0.1051039	-0.004120311	-0.004004466	-0.05790567	-0.02828966	0	0
28.12297	-0.04814697	-0.1052405	-0.004754741	-0.008246078	-0.006382378	-0.0426707	0	0
28.13954	-0.04819948	-0.1052795	-0.003169612	-0.002356072	0.04784203	0.177771	0	0
28.15643	-0.04835701	-0.1054747	-0.009322705	-0.01154987	-0.1838696	-0.2747335	0	0
28.17295	-0.04859329	-0.1056894	-0.01430991	-0.01300248	-0.1492767	-0.0434795	0	0
28.18924	-0.04869831	-0.1058455	-0.006445633	-0.009584535	0.2397316	0.1041915	0	0
28.2058	-0.04869831	-0.1058455	0	0	0.1961556	0.2916796	0	0
28.22248	-0.04867205	-0.1059822	0.001574294	-0.008192671	0.04735418	-0.2464325	0	0
28.23899	-0.04867205	-0.1060212	0	-0.002364689	-0.04743582	0.1756058	0	0
28.25551	-0.04861955	-0.1060993	0.003179411	-0.004728737	0.09627627	-0.07158612	0	0
28.27207	-0.04859329	-0.1061188	0.001584988	-0.001178397	-0.04820024	0.1073287	0	0
28.28903	-0.04856704	-0.1061383	0.001548045	-0.001151094	-0.001102001	0.0008144387	0	0
28.30521	-0.04856704	-0.1061383	0	0	-0.0467201	0.03474008	0	0
28.32206	-0.04856704	-0.1061383	0	0	0	0	0	0
28.33857	-0.04859329	-0.1061188	-0.001590257	0.001182481	-0.04766479	0.03544253	0	0
28.35491	-0.04856704	-0.1061383	0.001606967	-0.001194907	0.09734414	-0.07238304	0	0
28.37159	-0.04856704	-0.1061383	0	0	-0.04866644	0.03618734	0	0
28.3881	-0.04856704	-0.1061383	0	0	0	0	0	0
28.40461	-0.04856704	-0.1061383	0	0	0	0	0	0
28.42117	-0.04856704	-0.1061383	0	0	0	0	0	0
28.45431	-0.04859329	-0.1061188	-0.0007923362	0.0005891644	-0.01594306	0.01185492	0	0
28.47087	-0.04861955	-0.1060993	-0.001584806	0.001178261	-0.01594514	0.0118531	0	0
28.48744	-0.04861955	-0.1060993	0	0	0.04782954	-0.03555999	0	0
28.50419	-0.0486458	-0.1060798	-0.001567616	0.001165646	-0.04705613	0.03498995	0	0
28.52058	-0.0486458	-0.1060798	0	0	0.04730803	-0.03517725	0	0
28.53721	-0.04867205	-0.1060603	-0.001578403	0.001173667	-0.04779863	0.03554205	0	0
28.55372	-0.04869831	-0.1060407	-0.001590115	0.001182208	-0.0003533731	0.0002576985	0	0
28.57027	-0.04872456	-0.1059822	-0.001585859	0.003538084	0.0001287033	0.07124812	0	0
28.58684	-0.04875081	-0.1058846	-0.001584581	0.005891305	3.85894E-05	0.07104897	0	0
28.60341	-0.04877707	-0.1056699	-0.001584806	0.01295997	-6.78793E-06	0.2133328	0	0
28.62027	-0.04882957	-0.1053966	-0.003113953	0.01620563	-0.04574423	0.09709361	0	0
28.63678	-0.04872456	-0.1052405	0.006360518	0.0094565	0.2839136	-0.2022457	0	0
28.65329	-0.04854079	-0.1049868	0.01113119	0.01536552	0.1444781	0.1789525	0	0
28.6698	-0.04825199	-0.1046941	0.01749216	0.0177275	0.1926398	0.07153182	0	0
28.68631	-0.04675537	-0.1034262	0.09063859	0.07678757	2.215087	1.788511	0	0
28.70281	-0.0447333	-0.1018081	0.1225749	0.09808802	0.967516	0.6453005	0	0
28.71937	-0.03940065	-0.0977769	0.3219162	0.2433515	6.02932	4.393672	0	0
28.73594	-0.03474917	-0.09425709	0.2807643	0.2124562	-1.242037	-0.9324759	0	0
28.75251	-0.02846599	-0.08957773	0.379253	0.2824467	2.972394	2.112318	0	0
28.76907	-0.02520519	-0.08721204	0.1968453	0.1428095	-5.505391	-4.214501	0	0
28.8024	-0.01668266	-0.08090077	0.2557528	0.1893953	1.180781	0.9337963	0	0
28.83534	-0.01315714	-0.0783108	0.1070166	0.0786178	-2.244498	-1.671684	0	0
28.85193	-0.01110481	-0.0767271	0.123708	0.09546062	0.3369681	0.3400263	0	0
28.86847	-0.009210266	-0.07479699	0.1145393	0.1166898	-0.2767428	0.6407705	0	0
28.88504	-0.009210266	-0.07464264	0	0.009316807	-3.45959	-3.243136	0	0
28.91817	-0.004421024	-0.07082519	0.1445396	0.1152108	2.908143	2.130591	0	0
29.00103	-0.01805067	-0.0371526	-0.164492	0.406384	-2.664215	2.510255	0	0
29.01757	-0.02270662	-0.03382159	-0.2814875	0.2013849	-1.177022	-2.062374	0	0
29.03414	-0.02394279	-0.03292759	-0.0746154	0.05396166	6.248448	-4.452832	0	0
29.0507	-0.02389019	-0.03300367	0.00317574	-0.004592902	2.348012	-1.767384	0	0
29.06727	-0.02389019	-0.03300367	0	0	-0.09585506	0.13863	0	0
29.08384	-0.02389019	-0.03307974	0	-0.004591845	0	-0.1385822	0	0
29.1004	-0.02391649	-0.03317484	-0.001587504	-0.0057402	-0.04791097	-0.03465742	0	0
29.11697	-0.02396909	-0.03328896	-0.003175009	-0.00688833	-0.04791097	-0.03465063	0	0
29.13354	-0.0240743	-0.03344113	-0.006350017	-0.009185039	-0.09582195	-0.06931484	0	0
29.15014	-0.0242584	-0.03361233	-0.01109071	-0.01031343	-0.1429346	-0.03402171	0	0
29.16667	-0.0242584	-0.03365038	0	-0.002301254	0.3347376	0.241822	0	0
29.18324	-0.0242847	-0.0336694	-0.001587687	-0.001148262	-0.04796895	0.03483545	0	0
29.1998	-0.024311	-0.03372646	-0.001587504	-0.003444615	5.516389E-06	-0.06930805	0	0
29.21637	-0.024311	-0.03376452	0	-0.002296445	0.04790822	0.03464983	0	0
29.23294	-0.024311	-0.03384061	0	-0.004593498	0	-0.06932519	0	0
29.24971	-0.0242584	-0.03387866	0.003136373	-0.002268761	0.09408185	0.06973518	0	0
29.26622	-0.0242847	-0.03389768	-0.001593006	-0.001152335	-0.1421031	0.03354514	0	0
29.28264	-0.0242847	-0.03389768	0	0	0.04837779	0.03499509	0	0
29.29921	-0.0242847	-0.03389768	0	0	0	0	0	0
29.31577	-0.024311	-0.03391671	-0.001587504	-0.001148355	-0.04791097	-0.03465742	0	0
29.33234	-0.024311	-0.03391671	0	0	0.04791097	0.03465742	0	0
29.34891	-0.0242847	-0.03393573	0.001587687	-0.001148262	0.04791925	-0.03465661	0	0
29.36547	-0.024311	-0.03395475	-0.001587687	-0.001148487	-0.09584402	-6.788712E-06	0	0
29.38204	-0.024311	-0.03395475	0	0	0.04791925	0.0346634	0	0
29.39881	-0.0242847	-0.03397378	0.00156783	-0.001134123	0.04702216	-0.03401447	0	0
29.41533	-0.0242847	-0.03397378	0	0	-0.04710029	0.03407099	0	0
29.43184	-0.024311	-0.0339928	-0.001592822	-0.001152202	-0.04823251	-0.03489	0	0
29.44836	-0.024311	-0.0339928	0	0	0.04821858	0.03487993	0	0
29.46487	-0.024311	-0.0339928	0	0	0	0	0	0
29.48144	-0.024311	-0.0339928	0	0	0	0	0	0
29.498	-0.024311	-0.0339928	0	0	0	0	0	0
29.51457	-0.024311	-0.0339928	0	0	0	0	0	0
29.53114	-0.0243373	-0.03397378	-0.001587322	0.001148223	-0.0479027	0.03465143	0	0
29.54771	-0.0243373	-0.03397378	0	0	0.0479027	-0.03465143	0	0
29.56427	-0.0243373	-0.03401183	0	-0.002296974	0	-0.0693268	0	0
29.58084	-0.0243373	-0.03401183	0	0	0	0.0693308	0	0
29.61397	-0.0243636	-0.03403085	-0.0007937978	-0.0005742104	-0.01597247	-0.01155402	0	0
29.71337	-0.0244688	-0.03410696	-0.001058338	-0.000765622	-0.001996015	-0.001444245	0	0
29.73005	-0.0244688	-0.03410696	0	0	0.009117216	0.006595571	0	0
29.74651	-0.0244951	-0.03412598	-0.001598361	-0.001156208	-0.04823864	-0.03489444	0	0
29.76307	-0.0244951	-0.03412598	0	0	0.04840303	0.03501335	0	0
29.77964	-0.0244951	-0.03412598	0	0	0	0	0	0
29.79621	-0.0244951	-0.03416403	0	-0.002296709	0	-0.06931483	0	0
29.81278	-0.0244688	-0.03418306	0.001587504	-0.00114858	0.04791097	0.03465063	0	0
29.82935	-0.0244425	-0.03420209	0.001587322	-0.001148223	-5.515754E-06	1.077504E-05	0	0
29.84591	-0.0243899	-0.03424014	0.003175627	-0.002297463	0.04793793	-0.03468615	0	0
29.86265	-0.0243636	-0.03425917	0.001570866	-0.001136319	-0.04818217	0.03486279	0	0
29.87904	-0.0243373	-0.0342782	0.001604685	-0.00116101	0.001020729	-0.000745229	0	0
29.89567	-0.0243373	-0.0342782	0	0	-0.04859735	0.03516081	0	0
29.91218	-0.0243373	-0.0342782	0	0	0	0	0	0
29.92874	-0.0243636	-0.03425917	-0.00158787	0.001148844	-0.04801322	0.03473818	0	0
29.94531	-0.0243636	-0.03425917	0	0	0.04792753	-0.03467618	0	0
29.96188	-0.0243636	-0.03425917	0	0	0	0	0	0
29.97873	-0.0243636	-0.03425917	0	0	0	0	0	0
29.99501	-0.0243636	-0.03425917	0	0	0	0	0	0
30.01158	-0.0243636	-0.03425917	0	0	0	0	0	0
30.02814	-0.0243636	-0.03425917	0	0	0	0	0	0
30.04478	-0.0243636	-0.03425917	0	0	0	0	0	0
30.06129	-0.0243636	-0.03425917	0	0	0	0	0	0
30.07784	-0.0243636	-0.03425917	0	0	0	0	0	0
30.09441	-0.0243636	-0.03425917	0	0	0	0	0	0
30.11098	-0.0243899	-0.03420209	-0.001587504	0.003445289	-0.04791097	0.103979	0	0
30.12754	-0.024574	-0.0340689	-0.01111231	0.008038933	-0.287459	0.1386365	0	0
30.14411	-0.02544188	-0.033327	-0.05237914	0.04477618	-1.245364	1.108669	0	0
30.16086	-0.02859746	-0.03100733	-0.188411	0.1385006	-4.082885	2.813063	0	0
30.17725	-0.03382919	-0.02722736	-0.319317	0.2307093	-3.950978	2.783025	0	0
30.19388	-0.04058297	-0.02223877	-0.4059761	0.2998693	-2.624444	2.094486	0	0
30.21039	-0.06068854	-0.007716116	-1.21764	0.8795256	-24.4862	17.48701	0	0
30.22741	-0.07336807	0.001440577	-0.7453444	0.5382603	14.08847	-10.17986	0	0
30.24392	-0.08928828	0.01287952	-0.9640533	0.6926891	-6.523664	4.606313	0	0
30.26008	-0.104018	0.023533	-0.9115432	0.6592885	1.607146	-1.022273	0	0
30.27665	-0.1135619	0.03049943	-0.5760747	0.4204946	10.25073	-7.296701	0	0
30.29321	-0.119403	0.0347698	-0.3525672	0.2577595	6.745471	-4.911354	0	0
30.32944	-0.1347831	0.05013239	-0.4245124	0.4240286	-1.362669	3.149196	0	0
30.34601	-0.1338527	0.06162348	0.05615071	0.6935239	9.103601	5.104153	0	0
30.36258	-0.131474	0.0708296	0.1436118	0.5558103	2.639733	-4.156446	0	0
30.37914	-0.1297925	0.07737967	0.1014834	0.3953177	-1.271513	-4.843954	0	0
30.39571	-0.1258834	0.09660316	0.2359807	1.160466	4.059137	23.09221	0	0
30.41228	-0.1255985	0.09981431	0.01719811	0.1938253	-6.603251	-29.17495	0	0
30.44541	-0.1258057	0.1209349	-0.006253418	0.6373843	-0.4718276	8.924082	0	0
30.46208	-0.1264273	0.1273957	-0.03730006	0.3876961	-0.6234156	-5.013731	0	0
30.47859	-0.1269711	0.1325913	-0.03293107	0.3146205	0.1316822	-2.202509	0	0
30.49511	-0.1276443	0.1384552	-0.04075491	0.3550104	-0.2368602	1.222771	0	0
30.51168	-0.1277738	0.1413484	-0.0078134	0.1746345	0.9956668	-5.451918	0	0
30.52824	-0.1276184	0.1416395	0.009375719	0.01756778	0.5187687	-4.740282	0	0
30.54481	-0.1276184	0.1416395	0	0	-0.2829435	-0.5301662	0	0
30.56138	-0.1276184	0.1416395	0	0	0	0	0	0
30.57817	-0.1277479	0.1417304	-0.007711304	0.005418418	-0.2312104	0.1624621	0	0
30.59451	-0.1283174	0.142167	-0.03483677	0.02670342	-0.8186482	0.6423826	0	0
30.61108	-0.1323274	0.1450582	-0.2419915	0.1744756	-6.292875	4.488972	0	0
30.6277	-0.1379601	0.1495285	-0.3390916	0.2691164	-2.926275	2.852161	0	0
30.64421	-0.1466759	0.1591116	-0.5276622	0.5801756	-5.692057	9.389407	0	0
30.66078	-0.1472424	0.1643685	-0.03419655	0.3173066	14.91515	-7.945293	0	0
30.67735	-0.1464441	0.1741997	0.04818173	0.5933408	2.486038	8.33025	0	0
30.69392	-0.1448726	0.1797875	0.09485271	0.3372822	1.408452	-7.727421	0	0
30.71048	-0.1431716	0.1844495	0.1026878	0.2814317	0.2364778	-1.685667	0	0
30.72727	-0.14312	0.1882419	0.003072272	0.2259145	-2.986803	-1.664589	0	0
30.74361	-0.1427848	0.1912923	0.02050394	0.1866176	0.5261191	-1.186052	0	0
30.76029	-0.1442026	0.193223	-0.08499946	0.1157492	-3.194581	-2.145853	0	0
30.7768	-0.1500994	0.1974254	-0.3571619	0.254538	-8.200191	4.181675	0	0
30.79331	-0.1555747	0.2013732	-0.3316368	0.2391143	0.7730187	-0.4671024	0	0
30.82645	-0.1670343	0.2096768	-0.3458515	0.2506031	-0.2863299	0.2314211	0	0
30.84302	-0.1709467	0.2126467	-0.2361269	0.179245	2.207579	-1.435672	0	0
30.85958	-0.1745221	0.2154537	-0.2158346	0.169448	0.6124232	-0.2956733	0	0
30.87615	-0.1745986	0.2191409	-0.004621301	0.2225618	6.374797	1.603069	0	0
30.89272	-0.1715599	0.2236893	0.1834368	0.2745763	5.675931	1.569891	0	0
30.9094	-0.1706911	0.2305886	0.05208095	0.4135837	-3.950908	4.181051	0	0
30.92585	-0.1722497	0.233408	-0.09472724	0.1713597	-4.43068	-7.310336	0	0
30.95898	-0.1772516	0.2369265	-0.1509595	0.106191	-1.134007	-1.314222	0	0
30.97555	-0.1772516	0.2369624	0	0.00216699	3.037428	-2.093047	0	0
30.99246	-0.1772516	0.2369624	0	0	0	-0.06473658	0	0
31.00868	-0.1772516	0.2369624	0	0	0	0	0	0
31.02548	-0.1772516	0.2369624	0	0	0	0	0	0
31.04199	-0.1772516	0.2369624	0	0	0	0	0	0
31.07495	-0.1772516	0.2369983	0	0.001089202	0	0.02201786	0	0
31.09153	-0.177838	0.2403542	-0.0353661	0.202397	-0.7139235	4.063734	0	0
31.10808	-0.1773281	0.2421842	0.03080527	0.1105615	1.997171	-2.77176	0	0
31.12465	-0.1736797	0.2493757	0.2202197	0.4340803	5.719172	9.768314	0	0
31.15778	-0.1698732	0.2609697	0.11488	0.3499062	-2.119438	-1.693587	0	0
31.17459	-0.1702055	0.2613458	-0.01977825	0.02238655	-2.696601	-6.558749	0	0
31.19092	-0.1702055	0.2613458	0	0	0.5969086	-0.6756275	0	0
31.20748	-0.17018	0.2613279	0.00154271	-0.001081246	0.04689381	-0.03286668	0	0
31.22405	-0.1701544	0.26131	0.001543432	-0.001081122	2.178798E-05	3.756064E-06	0	0
31.24062	-0.1701033	0.2612742	0.00308542	-0.002162493	0.04653998	-0.03263772	0	0
31.25718	-0.1700777	0.2612562	0.001543432	-0.001081122	-0.04653998	0.03263772	0	0
31.27375	-0.1700777	0.2612562	0	0	-0.04657819	0.03262645	0	0
31.29032	-0.1700522	0.2612383	0.00154271	-0.001081246	0.04655908	-0.03263208	0	0
31.30688	-0.1700522	0.2612383	0	0	-0.04656444	0.03263584	0	0
31.3237	-0.1700266	0.2612204	0.001520673	-0.00106518	0.04555571	-0.03191023	0	0
31.34002	-0.1700266	0.2612204	0	0	-0.04589135	0.03214534	0	0
31.35671	-0.170001	0.2612025	0.001530725	-0.001072846	0.04636284	-0.03249454	0	0
31.37323	-0.1699755	0.2611846	0.001548423	-0.001084618	0.0005329385	-0.0003544778	0	0
31.38974	-0.1699755	0.2611846	0	0	-0.04688806	0.0328435	0	0
31.40628	-0.1699755	0.2611846	0	0	0	0	0	0
31.42285	-0.1699499	0.2611667	0.001542532	-0.001081122	0.0465859	-0.03265088	0	0
31.43942	-0.1699243	0.2611488	0.001543432	-0.001081122	2.714821E-05	0	0	0
31.45598	-0.1698732	0.261113	0.003085965	-0.002162244	0.04655373	-0.03262833	0	0
31.47255	-0.1698221	0.2610771	0.003085609	-0.002161995	-1.072234E-05	7.511263E-06	0	0
31.48912	-0.1697965	0.2610592	0.001542888	-0.001081371	-0.04656211	0.03261518	0	0
31.50569	-0.1697965	0.2610592	0	0	-0.04656713	0.03263772	0	0
31.52225	-0.1697454	0.2610234	0.003087575	-0.002162742	0.09318856	-0.06527543	0	0
31.53882	-0.1696176	0.260898	0.007715361	-0.007567854	0.1396829	-0.1631454	0	0
31.55538	-0.1695409	0.2608443	0.004629396	-0.003243366	-0.09313459	0.1305133	0	0
31.57195	-0.1693619	0.2607189	0.01080312	-0.007567854	0.1863235	-0.1305133	0	0
31.58852	-0.1692852	0.2606652	0.00462993	-0.003243739	-0.1863181	0.1305095	0	0
31.60509	-0.1692596	0.2606473	0.001543254	-0.001080998	-0.09315605	0.06527168	0	0
31.62165	-0.1692596	0.2606473	0	0	-0.04657551	0.03262457	0	0
31.67135	-0.1692341	0.2606294	0.000514497	-0.0003603878	0.007764223	-0.005438576	0	0
31.68795	-0.1692341	0.2606294	0	0	-0.007760202	0.00543576	0	0
31.70449	-0.1692341	0.2606294	0	0	0	0	0	0
31.72105	-0.1692085	0.2606114	0.001543787	-0.001081371	0.04663992	-0.03266969	0	0
31.73799	-0.1692085	0.2606114	0	0	-0.04608228	0.03227908	0	0
31.7545	-0.1692085	0.2606114	0	0	0	0	0	0
31.77101	-0.1691829	0.2605935	0.001548423	-0.001084618	0.04688806	-0.0328435	0	0
31.78732	-0.1691829	0.2605935	0	0	-0.04717962	0.03304773	0	0
31.82045	-0.1691829	0.2605935	0	0	0	0	0	0
31.83705	-0.1691574	0.2605756	0.001540063	-0.001078762	0.03096474	-0.02168976	0	0
31.85359	-0.1691062	0.2605398	0.003093274	-0.002166734	0.0468733	-0.03283317	0	0
31.87015	-0.1690551	0.260504	0.003087575	-0.002162742	-0.0001722013	0.0001206282	0	0
31.88672	-0.1689017	0.2603965	0.009259526	-0.006485985	0.1862806	-0.1304833	0	0
31.90328	-0.1688505	0.2603607	0.003088119	-0.002162493	-0.1862534	0.1304832	0	0
31.91985	-0.1687226	0.2602711	0.007717171	-0.005406786	0.1397051	-0.09791297	0	0
31.93642	-0.1686971	0.2602532	0.00154361	-0.001081246	-0.1863185	0.130545	0	0
31.95299	-0.1686459	0.2602174	0.003086864	-0.002162244	0.04657819	-0.03262645	0	0
31.96955	-0.1686203	0.2601995	0.001544331	-0.001081122	-0.04655373	0.03262833	0	0
31.98612	-0.1684925	0.2601099	0.007718059	-0.005405609	0.1863235	-0.1305133	0	0
32.00269	-0.1684157	0.2600562	0.004631728	-0.003243739	-0.09315101	0.06524913	0	0
32.01925	-0.16816	0.259877	0.01543882	-0.01081302	0.3261773	-0.2284544	0	0
32.03582	-0.1681344	0.2598591	0.001544331	-0.001081122	-0.4193364	0.2937092	0	0
32.05239	-0.1680832	0.2598233	0.003087763	-0.002162244	0.04658087	-0.03262833	0	0
32.06922	-0.1680321	0.2597875	0.003038784	-0.002127946	-0.00146637	0.001026842	0	0
32.08574	-0.1679809	0.2597516	0.003097749	-0.002169237	0.001768155	-0.001238172	0	0
32.10224	-0.1677763	0.2596084	0.01239853	-0.008680956	0.281671	-0.1972052	0	0
32.11865	-0.1674948	0.2594113	0.01714864	-0.0120075	0.1443055	-0.1010583	0	0
32.13527	-0.1671878	0.2591605	0.01847667	-0.01509233	0.04020972	-0.09340153	0	0
32.15179	-0.1663945	0.2586052	0.04802793	-0.03362082	0.8918588	-0.5591909	0	0
32.16835	-0.1652426	0.257799	0.0695478	-0.04867249	0.6505195	-0.4549937	0	0
32.18492	-0.1651401	0.2577273	0.006181823	-0.004326287	-1.912609	1.338525	0	0
32.20148	-0.1651401	0.2577273	0	0	-0.1865893	0.1305826	0	0
32.21805	-0.1651401	0.2577273	0	0	0	0	0	0
32.23462	-0.1651401	0.2577273	0	0	0	0	0	0
32.25118	-0.1651401	0.2577273	0	0	0	0	0	0
32.26775	-0.1651401	0.2577273	0	0	0	0	0	0
32.28437	-0.1651401	0.2576915	0	-0.002155296	0	-0.06494229	0	0
32.30088	-0.1651145	0.2576736	0.001550586	-0.001086674	0.04680217	0.03225479	0	0
32.36715	-0.1626555	0.255416	0.03710735	-0.03406703	0.4295388	-0.3984149	0	0
32.38372	-0.1522855	0.2468834	0.6259354	-0.515026	7.108347	-5.806148	0	0
32.40028	-0.1477573	0.242543	0.2733179	-0.2619886	-10.64202	7.636683	0	0
32.41685	-0.1381408	0.2335516	0.5805864	-0.5428464	9.274451	-8.477282	0	0
32.43347	-0.1278255	0.2255584	0.6204896	-0.4808103	1.202342	1.869241	0	0
32.44998	-0.1200256	0.2201479	0.4724401	-0.3277125	-4.468143	4.620498	0	0
32.46655	-0.112029	0.2143202	0.4827862	-0.3518396	0.3128235	-0.7295001	0	0
32.48311	-0.1038097	0.2082724	0.4961158	-0.3650441	0.4023325	-0.3985598	0	0
32.49968	-0.09200269	0.1996789	0.7126725	-0.5187038	6.535696	-4.637456	0	0
32.51625	-0.08419522	0.192375	0.4712599	-0.4408684	-7.285849	2.349077	0	0
32.54938	-0.08134641	0.1641873	0.0859872	-0.8508024	-7.752296	-8.248521	0	0
32.56594	-0.08129413	0.1549754	0.003155671	-0.556034	-1.666702	5.931207	0	0
32.58258	-0.08126798	0.1411847	0.001571907	-0.8291643	-0.04770472	-8.226987	0	0
32.59909	-0.08087584	0.1169887	0.02374655	-1.465197	0.6690011	-19.18888	0	0
32.61565	-0.08100656	0.1016666	-0.007895756	-0.925482	-0.9568395	16.32057	0	0
32.64912	-0.08129413	0.07494535	-0.008589878	-0.7981783	-0.01387313	2.544366	0	0
32.66564	-0.08189537	0.04905569	-0.03640825	-1.567757	-0.5564609	-15.39415	0	0
32.68191	-0.08186923	0.03586921	0.001606086	-0.8103035	1.159422	23.10201	0	0
32.69848	-0.08066668	0.02571964	0.07258628	-0.6126297	2.161346	6.019166	0	0
32.71517	-0.07760698	0.01653419	0.183333	-0.5503793	3.330076	1.871824	0	0
32.73161	-0.07663907	0.01156665	0.05887018	-0.3021372	-3.756729	7.492826	0	0
32.74819	-0.07674371	0.008338599	-0.006310476	-0.1946662	-1.973746	3.254346	0	0
32.76474	-0.07556636	0.005389397	0.07113084	-0.1781783	2.337184	0.4976039	0	0
32.78131	-0.07572336	0.00279498	-0.009474275	-0.1565632	-2.433508	0.652571	0	0
32.79788	-0.07480751	-0.007131287	0.05529341	-0.5992886	1.954693	-13.36148	0	0
32.81445	-0.07394388	-0.01209625	0.05212861	-0.2996856	-0.09552502	9.043078	0	0
32.83101	-0.0725828	-0.01905629	0.08215537	-0.4201089	0.9062095	-3.634382	0	0
32.84777	-0.07226866	-0.02371745	0.01874991	-0.2782092	-1.902846	4.258517	0	0
32.86427	-0.06873366	-0.03288955	0.2141617	-0.5556765	5.875219	-8.342283	0	0
32.88073	-0.06535416	-0.03991536	0.205406	-0.4270284	-0.2656553	3.903278	0	0
32.89728	-0.06215667	-0.044112	0.1931787	-0.2535432	-0.3704716	5.256368	0	0
32.91385	-0.05725315	-0.04764558	0.2959774	-0.2132871	3.1039	1.215493	0	0
32.93041	-0.05400008	-0.05005465	0.1963554	-0.145412	-3.006597	2.048472	0	0
32.94698	-0.05247809	-0.05116425	0.09186771	-0.06697582	-3.153445	2.367209	0	0
32.96354	-0.05253058	-0.05112598	-0.003168768	0.002310508	-2.868537	2.091306	0	0
32.98011	-0.05253058	-0.05112598	0	0	0.09564461	-0.0697393	0	0
32.99668	-0.05253058	-0.05112598	0	0	0	0	0	0
33.01324	-0.05255682	-0.05114512	-0.001584131	-0.001155101	-0.04780918	-0.034861	0	0
33.02989	-0.05253058	-0.05112598	0.001576508	0.001149542	0.09515823	0.06938649	0	0
33.04638	-0.05253058	-0.05112598	0	0	-0.04757912	-0.03469325	0	0
33.06295	-0.05253058	-0.05112598	0	0	0	0	0	0
33.07951	-0.05253058	-0.05112598	0	0	0	0	0	0
33.09608	-0.05253058	-0.05112598	0	0	0	0	0	0
33.11296	-0.05250433	-0.05110685	0.001555127	0.001133731	0.0465002	0.03389993	0	0
33.12922	-0.05250433	-0.05110685	0	0	-0.04693383	-0.03421606	0	0
33.14578	-0.05250433	-0.05110685	0	0	0	0	0	0
33.16249	-0.05250433	-0.05110685	0	0	0	0	0	0
33.17891	-0.05250433	-0.05110685	0	0	0	0	0	0
33.19548	-0.05247809	-0.05108772	0.001583907	0.001154876	0.04800689	0.03500332	0	0
33.21205	-0.05245185	-0.05106858	0.001584131	0.001155101	6.784417E-06	6.78793E-06	0	0
33.22861	-0.05245185	-0.05106858	0	0	-0.04781469	-0.03486502	0	0
33.24518	-0.05245185	-0.05106858	0	0	0	0	0	0
33.26176	-0.05245185	-0.05106858	0	0	0	0	0	0
33.27832	-0.05245185	-0.05106858	0	0	0	0	0	0
33.29508	-0.05245185	-0.05106858	0	0	0	0	0	0
33.31161	-0.05245185	-0.05106858	0	0	0	0	0	0
33.32802	-0.05245185	-0.05106858	0	0	0	0	0	0
33.34459	-0.05245185	-0.05106858	0	0	0	0	0	0
33.41085	-0.0524256	-0.05101118	0.0003960557	0.0008662066	0.004781634	0.01045783	0	0
33.44419	-0.0524256	-0.05093465	0	0.002295592	-0.00397624	0.01435046	0	0
33.4607	-0.0524256	-0.05089638	0	0.002317221	0	0.0004338404	0	0
33.47721	-0.05245185	-0.05087725	-0.001589989	0.001159146	-0.04815228	-0.03507191	0	0
33.49372	-0.05250433	-0.05083898	-0.003178283	0.002316996	-0.04810095	0.03506507	0	0
33.51025	-0.05250433	-0.05083898	0	0	0.09620877	-0.07013701	0	0
33.52681	-0.05250433	-0.05083898	0	0	0	0	0	0
33.54341	-0.05250433	-0.05083898	0	0	0	0	0	0
33.56027	-0.05247809	-0.05081985	0.001556314	0.001134757	0.04651446	0.03391514	0	0
33.57652	-0.05247809	-0.05081985	0	0	-0.04701294	-0.0342786	0	0
33.59329	-0.05247809	-0.05081985	0	0	0	0	0	0
33.60965	-0.05250433	-0.05083898	-0.001604597	-0.001169962	-0.0484324	-0.03531357	0	0
33.62632	-0.05250433	-0.05083898	0	0	0.04858905	0.03542779	0	0
33.64283	-0.05250433	-0.05083898	0	0	0	0	0	0
33.65935	-0.05250433	-0.05083898	0	0	0	0	0	0
33.67591	-0.05250433	-0.05083898	0	0	0	0	0	0
33.69248	-0.05250433	-0.05083898	0	0	0	0	0	0
33.70905	-0.05247809	-0.05081985	0.001583907	0.001154876	0.0478024	0.03485421	0	0
33.72589	-0.05250433	-0.05080072	-0.001557723	0.001135785	-0.09402437	-0.000571364	0	0
33.74218	-0.05250433	-0.05080072	0	0	0.04701218	-0.03427805	0	0
33.75891	-0.05250433	-0.05080072	0	0	0	0	0	0
33.77542	-0.05253058	-0.05078159	-0.001589622	0.001158878	-0.04782072	0.03486263	0	0
33.79189	-0.05255682	-0.05076245	-0.001594411	0.00116237	-0.0001452542	0.0001058953	0	0
33.80845	-0.05255682	-0.05076245	0	0	0.04827503	-0.03519383	0	0
33.82502	-0.05255682	-0.05076245	0	0	0	0	0	0
33.84159	-0.05255682	-0.05076245	0	0	0	0	0	0
33.85815	-0.05255682	-0.05076245	0	0	0	0	0	0
33.87472	-0.05255682	-0.05076245	0	0	0	0	0	0
33.89128	-0.05255682	-0.05076245	0	0	0	0	0	0
33.90785	-0.05255682	-0.05076245	0	0	0	0	0	0
33.92442	-0.05255682	-0.05076245	0	0	0	0	0	0
33.94099	-0.05255682	-0.05076245	0	0	0	0	0	0
33.95755	-0.05255682	-0.05076245	0	0	0	0	0	0
33.97412	-0.05255682	-0.05076245	0	0	0	0	0	0
33.99069	-0.05255682	-0.05076245	0	0	0	0	0	0
34.00726	-0.05255682	-0.05076245	0	0	0	0	0	0
34.02382	-0.05255682	-0.05076245	0	0	0	0	0	0
34.04039	-0.05255682	-0.05076245	0	0	0	0	0	0
34.05696	-0.05258306	-0.05078159	-0.001583907	-0.001154876	-0.0478024	-0.03485421	0	0
34.07352	-0.05258306	-0.05078159	0	0	0.0478024	0.03485421	0	0
34.09015	-0.05258306	-0.05078159	0	0	0	0	0	0
34.10666	-0.05258306	-0.05078159	0	0	0	0	0	0
34.14149	-0.05258306	-0.05078159	0	0	0	0	0	0
34.15821	-0.05258306	-0.05078159	0	0	0	0	0	0
34.17471	-0.05258306	-0.05078159	0	0	0	0	0	0
34.19119	-0.05258306	-0.05078159	0	0	0	0	0	0
