Time	Pos X	Pos Y	Vel X	Vel Y	Acc X	Acc YForce X	Force Y
0.01627146	-0.04202787	-0.03057022	0.0006859389	0.000498938	-1.119826E-05	-8.145388E-06	0	0
0.05659225	-0.04940713	-0.03591494	-0.1830138	-0.132555	0.003000146	0.00217301	0	0
0.07316215	-0.05536442	-0.04023944	-0.3595248	-0.2609853	-3.102634	-2.257493	0	0
0.08972888	-0.05932504	-0.04308137	-0.2390712	-0.1715444	3.635058	2.699155	0	0
0.1062932	-0.06223531	-0.04523847	-0.1756947	-0.130225	1.912902	1.247148	0	0
0.12286	-0.06241881	-0.04533395	-0.01107621	-0.005763531	4.968698	3.756636	0	0
0.1394263	-0.06244502	-0.04535305	-0.001582193	-0.001152914	0.2865419	0.1391545	0	0
0.1561032	-0.06244502	-0.04535305	0	0	0.04759447	0.03468119	0	0
0.1726194	-0.06241881	-0.04537214	0.001586995	-0.001156188	0.04781102	-0.03483219	0	0
0.1891285	-0.0623926	-0.04546763	0.001587904	-0.005783879	2.752346E-05	-0.1401256	0	0
0.2056948	-0.0623926	-0.04550583	0	-0.002305603	-0.04800856	0.1051619	0	0
0.2222612	-0.0641225	-0.04718693	-0.1044227	-0.1014769	-3.151654	-2.993157	0	0
0.2388299	-0.06548518	-0.04821899	-0.08224429	-0.06228983	0.6693345	1.182648	0	0
0.2553958	-0.06577341	-0.04842927	-0.01739868	-0.01269337	1.957033	1.496815	0	0
0.2719622	-0.06577341	-0.04842927	0	0	0.5251278	0.3831119	0	0
0.288703	-0.06577341	-0.04842927	0	0	0	0	0	0
0.305216	-0.06577341	-0.04842927	0	0	0	0	0	0
0.3217259	-0.06574721	-0.04844838	0.0015867	-0.001157758	0.04804841	-0.03505922	0	0
0.3382413	-0.06572101	-0.0484675	0.001586621	-0.001157598	-2.379399E-06	4.871598E-06	0	0
0.3547958	-0.06558999	-0.04860132	0.007913919	-0.008083818	0.191331	-0.2094418	0	0
0.3713622	-0.06517074	-0.04894547	0.02530789	-0.02077382	0.525167	-0.3831424	0	0
0.3882731	-0.06433216	-0.04978688	0.0495878	-0.04975522	0.7252645	-0.8657028	0	0
0.4044937	-0.06257609	-0.05198716	0.1082622	-0.1356482	1.770956	-2.592486	0	0
0.4212949	-0.05717446	-0.05658443	0.321502	-0.2736268	6.457556	-4.178417	0	0
0.4376295	-0.05379017	-0.05909685	0.2071854	-0.1538098	-3.449939	3.615936	0	0
0.4541951	-0.04376152	-0.06643578	0.6053914	-0.4430235	12.10346	-8.790641	0	0
0.4707626	-0.0401626	-0.06907246	0.2172272	-0.1591469	-11.71531	8.567767	0	0
0.4873286	-0.03511713	-0.07277182	0.3045685	-0.2233112	2.636045	-1.93654	0	0
0.5038937	-0.0278875	-0.07807899	0.4364355	-0.320381	3.980155	-2.929868	0	0
0.5208659	-0.02644121	-0.07914164	0.08521616	-0.06261172	-10.4725	7.686049	0	0
0.5373777	-0.02099691	-0.08318352	0.3297201	-0.2447865	7.302118	-5.440655	0	0
0.5535931	-0.01628803	-0.08668876	0.2903959	-0.2161679	-1.201576	0.8744605	0	0
0.5704022	-0.01294664	-0.08918977	0.1987844	-0.1487886	-2.774046	2.040281	0	0
0.5869094	-0.0119468	-0.09004335	0.0605704	-0.05170991	-4.148545	2.913854	0	0
0.6032953	-0.01199942	-0.09000455	-0.003211505	0.002368048	-1.939069	1.644054	0	0
0.6199366	-0.01205205	-0.09004335	-0.003162272	-0.002331704	0.001490685	-0.1422993	0	0
0.6364263	-0.01207836	-0.09006275	-0.001595642	-0.001176568	0.04728585	0.03486563	0	0
0.6529954	-0.01213098	-0.09010156	-0.00317606	-0.00234232	-0.04780624	-0.03526293	0	0
0.6699711	-0.01220992	-0.09015977	-0.004649892	-0.003429101	-0.04393626	-0.03239792	0	0
0.6861269	-0.01226254	-0.09019858	-0.00325731	-0.00240178	0.04203199	0.0310074	0	0
0.7026956	-0.01234148	-0.0902568	-0.004764108	-0.00351378	-0.04604495	-0.03398067	0	0
0.71926	-0.01236779	-0.0902762	-0.001588453	-0.001171268	0.09584542	0.07070008	0	0
0.7358259	-0.01242041	-0.09031501	-0.003176609	-0.002342766	-0.04793668	-0.03536034	0	0
0.752528	-0.01242041	-0.09031501	0	0	0.09548533	0.07042094	0	0
0.7689613	-0.01249935	-0.0902956	-0.004803368	0.001181063	-0.1449618	0.03564353	0	0
0.7855284	-0.01249935	-0.0902956	0	0	0.1455548	-0.03578935	0	0
0.8053586	-0.01252566	-0.09031501	-0.001326853	-0.0009787494	-0.03645474	-0.02689073	0	0
0.8219265	-0.01252566	-0.09031501	0	0	0.03645391	0.02689011	0	0
0.8384929	-0.01255197	-0.09033441	-0.001588265	-0.001171129	-0.04793418	-0.03534492	0	0
0.8550955	-0.01255197	-0.09033441	0	0	0.04788405	0.03530796	0	0
0.8716267	-0.01255197	-0.09033441	0	0	0	0	0	0
0.8881955	-0.01257828	-0.09035382	-0.001588036	-0.00117141	-0.04797699	-0.03539008	0	0
0.9047626	-0.01263091	-0.09039263	-0.003176325	-0.002342598	-0.04793266	-0.03534506	0	0
0.9213265	-0.01265722	-0.09045085	-0.001588493	-0.003514791	0.04792576	-0.03538051	0	0
0.937894	-0.01270984	-0.09048966	-0.003176301	-0.002342539	-0.04792443	0.03538184	0	0
0.9546692	-0.01276246	-0.09052847	-0.003136925	-0.00231354	0.001180929	0.0008697198	0	0
0.9710268	-0.01292033	-0.0906449	-0.009651171	-0.007118287	-0.1966106	-0.1450151	0	0
0.9875967	-0.01315714	-0.09081957	-0.01429107	-0.01054148	-0.1409128	-0.1039617	0	0
1.004209	-0.01397278	-0.09142131	-0.04909907	-0.03622244	-1.049002	-0.7739419	0	0
1.020729	-0.02112843	-0.09670684	-0.4331569	-0.319952	-11.59179	-8.563639	0	0
1.086995	-0.05746298	-0.1237099	-0.5483091	-0.4074915	-1.390957	-1.057415	0	0
1.103773	-0.06564239	-0.1298507	-0.487498	-0.3659949	0.7322689	0.4996885	0	0
1.120127	-0.07315867	-0.1354735	-0.4596233	-0.3438366	0.8413342	0.6688006	0	0
1.136794	-0.08166011	-0.1418618	-0.5100755	-0.3832887	-1.527922	-1.194791	0	0
1.153307	-0.0870949	-0.1459449	-0.329122	-0.2472685	5.453691	4.099466	0	0
1.169826	-0.09080225	-0.1487636	-0.2244257	-0.1706291	3.169515	2.320136	0	0
1.186394	-0.09497654	-0.1519436	-0.2519445	-0.1919317	-0.8316944	-0.6438248	0	0
1.202959	-0.09922569	-0.1551478	-0.2565179	-0.1934358	-0.1380316	-0.04539694	0	0
1.236366	-0.09886087	-0.154869	0.01092052	0.008345674	5.351835	4.037944	0	0
1.252876	-0.09875663	-0.1547893	0.006313537	0.004823938	-0.09229228	-0.07055136	0	0
1.269226	-0.09865239	-0.1547097	0.006375728	0.004871455	0.001892594	0.001446055	0	0
1.285793	-0.09865239	-0.1546699	0	0.002404158	-0.1936902	-0.07495481	0	0
1.302359	-0.09862634	-0.1546101	0.001572788	0.003605224	0.04746838	0.03624944	0	0
1.318926	-0.09865239	-0.1545504	-0.001572675	0.003605864	-0.09493436	1.931763E-05	0	0
1.335492	-0.09854815	-0.1544708	0.006292502	0.004806966	0.2373817	0.03625087	0	0
1.352059	-0.09852209	-0.1544508	0.001573125	0.001202554	-0.1424372	-0.108786	0	0
1.368626	-0.09849603	-0.1544309	0.001573193	0.001201707	2.048384E-06	-2.558196E-05	0	0
1.385193	-0.09841785	-0.1543712	0.004718822	0.003604887	0.09493701	0.07252943	0	0
1.401759	-0.09836572	-0.1543314	0.003146476	0.002403483	-0.04745506	-0.03625963	0	0
1.418495	-0.09833966	-0.1543115	0.001557313	0.001189577	-0.04772082	-0.03645227	0	0
1.434892	-0.0983136	-0.1542916	0.001589364	0.00121406	0.0009673359	0.0007389158	0	0
1.451518	-0.0983136	-0.1542916	0	0	-0.04812849	-0.03676367	0	0
1.519578	-0.0980269	-0.1540726	0.004212462	0.003217585	0.04974267	0.03799471	0	0
1.536145	-0.09792265	-0.153993	0.006292813	0.004805617	0.02458257	0.01876506	0	0
1.552712	-0.0977402	-0.1538138	0.01101277	0.0108131	0.1424482	0.1813054	0	0
1.569279	-0.09669748	-0.1530178	0.06293893	0.04804911	1.567146	1.123793	0	0
1.585845	-0.09489831	-0.1516453	0.1086069	0.0828527	1.378323	1.05042	0	0
1.602625	-0.0937246	-0.1507108	0.06994707	0.05568876	-1.159362	-0.814613	0	0
1.618979	-0.08907942	-0.146937	0.284034	0.2307521	6.461204	5.283459	0	0
1.635545	-0.08443038	-0.1430899	0.2806446	0.2322334	-0.1029587	0.04499967	0	0
1.652112	-0.0772146	-0.137153	0.4355581	0.3583654	4.675599	3.806915	0	0
1.668678	-0.07344659	-0.1339926	0.2274438	0.1907695	-6.281083	-5.058197	0	0
1.685245	-0.06794787	-0.1291414	0.3319131	0.292827	3.152981	3.080188	0	0
1.721264	-0.05460356	-0.1154477	0.3704776	0.3801777	0.7333624	1.661103	0	0
1.737829	-0.05129706	-0.1119625	0.1996107	0.2103977	-3.249413	-3.228742	0	0
1.754731	-0.04901335	-0.1102999	0.1351127	0.09836498	-1.92721	-3.347553	0	0
1.770963	-0.0483045	-0.1098893	0.04367178	0.02529662	-2.75977	-2.205271	0	0
1.787529	-0.04835701	-0.1099675	-0.003169478	-0.004720825	-1.428177	-0.9152238	0	0
1.804096	-0.04838326	-0.1101826	-0.001584593	-0.01298165	0.04783281	-0.2493167	0	0
1.820663	-0.04835701	-0.1102412	0.001584627	-0.003540731	0.09564894	0.2849327	0	0
1.837229	-0.04812072	-0.1105736	0.01426371	-0.02006665	0.3826761	-0.4987803	0	0
1.853802	-0.04806821	-0.110691	0.003168563	-0.007080264	-0.33481	0.3918807	0	0
1.870363	-0.04809446	-0.1109452	-0.001585422	-0.01535214	-0.1434797	-0.2496529	0	0
1.88693	-0.04806821	-0.1110821	0.001584817	-0.008264076	0.09569696	0.2139605	0	0
1.903497	-0.04806821	-0.1111213	0	-0.002361435	-0.04782971	0.1781414	0	0
1.920062	-0.04806821	-0.1111213	0	0	0	0.0712721	0	0
1.93663	-0.04806821	-0.1111213	0	0	0	0	0	0
1.953373	-0.04806821	-0.1111213	0	0	0	0	0	0
1.969763	-0.04806821	-0.1111213	0	0	0	0	0	0
1.986329	-0.04809446	-0.1111408	-0.001584852	-0.001180544	-0.04808958	-0.03582155	0	0
2.002908	-0.04814697	-0.1111799	-0.003167154	-0.002359805	-0.04773783	-0.03557815	0	0
2.019463	-0.04833075	-0.111356	-0.01110166	-0.0106345	-0.2394707	-0.2497379	0	0
2.03603	-0.04848828	-0.1115516	-0.009508025	-0.01180762	0.04811399	-0.03541834	0	0
2.052599	-0.04856704	-0.1116886	-0.004753783	-0.008265102	0.1434761	0.1069081	0	0
2.069163	-0.0486458	-0.1117473	-0.00475479	-0.00354349	-3.038538E-05	0.1425047	0	0
2.085966	-0.0486458	-0.1117473	0	0	0.1425011	0.1061985	0	0
2.102298	-0.0486458	-0.1117473	0	0	0	0	0	0
2.118989	-0.0486458	-0.1117473	0	0	0	0	0	0
2.13543	-0.0486458	-0.1117473	0	0	0	0	0	0
2.218263	-0.04867205	-0.111806	-0.0003169299	-0.0007086062	-0.003192487	-0.007137905	0	0
2.235072	-0.04867205	-0.111806	0	0	0.003180692	0.007111535	0	0
2.251396	-0.04867205	-0.111806	0	0	0	0	0	0
2.268096	-0.04869831	-0.1118255	-0.001572226	-0.001171585	-0.04760883	-0.03547695	0	0
2.284529	-0.04867205	-0.1118451	0.001597682	-0.001190554	0.09567076	-0.0005724969	0	0
2.301096	-0.04867205	-0.1118451	0	0	-0.04841391	0.03607688	0	0
2.317662	-0.04869831	-0.1118255	-0.001584897	0.001181027	-0.04783436	0.03564501	0	0
2.334229	-0.04869831	-0.1118255	0	0	0.04783436	-0.03564501	0	0
2.350796	-0.04869831	-0.1118255	0	0	0	0	0	0
2.367363	-0.04869831	-0.1118255	0	0	0	0	0	0
2.383929	-0.04869831	-0.1118255	0	0	0	0	0	0
2.400496	-0.04869831	-0.1118255	0	0	0	0	0	0
2.417064	-0.04869831	-0.1118255	0	0	0	0	0	0
2.433712	-0.04869831	-0.1118255	0	0	0	0	0	0
2.450223	-0.04869831	-0.1118255	0	0	0	0	0	0
2.466763	-0.04869831	-0.1118255	0	0	0	0	0	0
2.483329	-0.04869831	-0.1118255	0	0	0	0	0	0
2.522275	-0.04872456	-0.1118451	-0.000674062	-0.000502366	-0.01214254	-0.009049614	0	0
2.538525	-0.04872456	-0.1118451	0	0	0.01221209	0.009101447	0	0
2.555092	-0.04872456	-0.1118451	0	0	0	0	0	0
2.57181	-0.04872456	-0.1118451	0	0	0	0	0	0
2.588227	-0.04872456	-0.1118451	0	0	0	0	0	0
2.604832	-0.04872456	-0.1118451	0	0	0	0	0	0
2.62136	-0.04872456	-0.1118451	0	0	0	0	0	0
2.637925	-0.04875081	-0.1118646	-0.001584741	-0.001181078	-0.04788787	-0.03568995	0	0
2.654492	-0.04875081	-0.1118646	0	0	0.04782998	0.03564681	0	0
2.671059	-0.04875081	-0.1118646	0	0	0	0	0	0
2.687891	-0.04875081	-0.1118646	0	0	0	0	0	0
2.704401	-0.04875081	-0.1118646	0	0	0	0	0	0
2.720915	-0.04877707	-0.1118842	-0.001589885	-0.001184744	-0.04814357	-0.03587543	0	0
2.737425	-0.04877707	-0.1118842	0	0	0.04814322	0.03587517	0	0
2.753938	-0.04877707	-0.1118842	0	0	0	0	0	0
2.770459	-0.04880332	-0.1119038	-0.001589063	-0.0011843	-0.04810409	-0.0358511	0	0
2.787461	-0.04880332	-0.1119038	0	0	0.04740307	0.03532865	0	0
2.803592	-0.04880332	-0.1119038	0	0	0	0	0	0
2.820161	-0.04880332	-0.1119038	0	0	0	0	0	0
2.836726	-0.04882957	-0.1119233	-0.001584809	-0.001181129	-0.04783033	-0.03564706	0	0
2.853294	-0.04882957	-0.1119233	0	0	0.04783101	0.03564758	0	0
2.870019	-0.04882957	-0.1119233	0	0	0	0	0	0
2.886426	-0.04882957	-0.1119233	0	0	0	0	0	0
2.903044	-0.04882957	-0.1119233	0	0	0	0	0	0
2.919559	-0.04882957	-0.1119233	0	0	0	0	0	0
2.936126	-0.04882957	-0.1119233	0	0	0	0	0	0
2.952693	-0.04885583	-0.1119429	-0.001584806	-0.001180959	-0.04783023	-0.03564193	0	0
2.969589	-0.04885583	-0.1119429	0	0	0.04735961	0.03529124	0	0
2.985826	-0.04885583	-0.1119429	0	0	0	0	0	0
3.002394	-0.04885583	-0.1119429	0	0	0	0	0	0
3.01896	-0.04885583	-0.1119429	0	0	0	0	0	0
3.035636	-0.04885583	-0.1119429	0	0	0	0	0	0
3.068661	-0.04885583	-0.1119429	0	0	0	0	0	0
3.151718	-0.04888208	-0.1119233	-0.000316072	0.0002355627	-0.002722835	0.002029279	0	0
3.168059	-0.04888208	-0.1119233	0	0	0.003179851	-0.002369885	0	0
3.184742	-0.04888208	-0.1119233	0	0	0	0	0	0
3.201192	-0.04888208	-0.1119233	0	0	0	0	0	0
3.217766	-0.04888208	-0.1119233	0	0	0	0	0	0
3.234326	-0.04888208	-0.1119233	0	0	0	0	0	0
3.267461	-0.04888208	-0.1119233	0	0	0	0	0	0
3.284026	-0.04888208	-0.1119233	0	0	0	0	0	0
3.302846	-0.04888208	-0.1119233	0	0	0	0	0	0
3.319414	-0.04888208	-0.1119233	0	0	0	0	0	0
3.335982	-0.04888208	-0.1119233	0	0	0	0	0	0
3.352548	-0.04888208	-0.1119233	0	0	0	0	0	0
3.369115	-0.04888208	-0.1119233	0	0	0	0	0	0
3.385681	-0.04888208	-0.1119233	0	0	0	0	0	0
3.402247	-0.04888208	-0.1119233	0	0	0	0	0	0
3.418814	-0.04888208	-0.1119233	0	0	0	0	0	0
3.435422	-0.04888208	-0.1119233	0	0	0	0	0	0
3.451947	-0.04888208	-0.1119233	0	0	0	0	0	0
3.468515	-0.04888208	-0.1119233	0	0	0	0	0	0
3.485081	-0.04888208	-0.1119233	0	0	0	0	0	0
3.501647	-0.04888208	-0.1119233	0	0	0	0	0	0
3.518214	-0.04888208	-0.1119233	0	0	0	0	0	0
3.534781	-0.04888208	-0.1119233	0	0	0	0	0	0
3.551501	-0.04888208	-0.1119233	0	0	0	0	0	0
3.567916	-0.04888208	-0.1119233	0	0	0	0	0	0
3.584481	-0.04888208	-0.1119233	0	0	0	0	0	0
3.601047	-0.04888208	-0.1119233	0	0	0	0	0	0
3.617614	-0.04888208	-0.1119233	0	0	0	0	0	0
3.634182	-0.04888208	-0.1119233	0	0	0	0	0	0
3.651071	-0.04888208	-0.1119233	0	0	0	0	0	0
3.667314	-0.04888208	-0.1119233	0	0	0	0	0	0
3.684095	-0.04888208	-0.1119233	0	0	0	0	0	0
3.700448	-0.04888208	-0.1119233	0	0	0	0	0	0
3.717119	-0.04888208	-0.1119233	0	0	0	0	0	0
3.832982	-0.04888208	-0.1119233	0	0	0	0	0	0
3.849713	-0.04888208	-0.1119233	0	0	0	0	0	0
3.866224	-0.04888208	-0.1119233	0	0	0	0	0	0
3.882736	-0.04888208	-0.1119233	0	0	0	0	0	0
3.899248	-0.04888208	-0.1119233	0	0	0	0	0	0
3.915815	-0.04888208	-0.1119233	0	0	0	0	0	0
3.932381	-0.04888208	-0.1119233	0	0	0	0	0	0
3.94895	-0.04888208	-0.1119233	0	0	0	0	0	0
3.965515	-0.04888208	-0.1119233	0	0	0	0	0	0
3.982083	-0.04888208	-0.1119233	0	0	0	0	0	0
3.998648	-0.04888208	-0.1119233	0	0	0	0	0	0
4.015214	-0.04888208	-0.1119233	0	0	0	0	0	0
4.031781	-0.04888208	-0.1119233	0	0	0	0	0	0
4.048363	-0.04888208	-0.1119233	0	0	0	0	0	0
4.064917	-0.04888208	-0.1119233	0	0	0	0	0	0
4.081484	-0.04888208	-0.1119233	0	0	0	0	0	0
4.09805	-0.04888208	-0.1119233	0	0	0	0	0	0
4.114907	-0.04888208	-0.1119233	0	0	0	0	0	0
4.131181	-0.04888208	-0.1119233	0	0	0	0	0	0
4.147925	-0.04888208	-0.1119233	0	0	0	0	0	0
4.167062	-0.04888208	-0.1119233	0	0	0	0	0	0
4.18363	-0.04888208	-0.1119233	0	0	0	0	0	0
4.247911	-0.04888208	-0.1119233	0	0	0	0	0	0
4.264505	-0.04888208	-0.1119233	0	0	0	0	0	0
4.281045	-0.04888208	-0.1119233	0	0	0	0	0	0
4.297612	-0.04888208	-0.1119233	0	0	0	0	0	0
4.314179	-0.04888208	-0.1119233	0	0	0	0	0	0
4.330745	-0.04888208	-0.1119233	0	0	0	0	0	0
4.347313	-0.04888208	-0.1119233	0	0	0	0	0	0
4.363878	-0.04888208	-0.1119233	0	0	0	0	0	0
4.380586	-0.04888208	-0.1119233	0	0	0	0	0	0
4.397012	-0.04888208	-0.1119233	0	0	0	0	0	0
4.413578	-0.04888208	-0.1119233	0	0	0	0	0	0
4.430145	-0.04888208	-0.1119233	0	0	0	0	0	0
4.446712	-0.04888208	-0.1119233	0	0	0	0	0	0
4.463278	-0.04888208	-0.1119233	0	0	0	0	0	0
4.479845	-0.04888208	-0.1119233	0	0	0	0	0	0
4.496412	-0.04888208	-0.1119233	0	0	0	0	0	0
4.512978	-0.04888208	-0.1119233	0	0	0	0	0	0
4.529545	-0.04888208	-0.1119233	0	0	0	0	0	0
4.546205	-0.04888208	-0.1119233	0	0	0	0	0	0
4.562678	-0.04888208	-0.1119233	0	0	0	0	0	0
4.579247	-0.04885583	-0.1119429	0.001584399	-0.001180823	0.04794974	-0.03573606	0	0
4.595813	-0.04885583	-0.1119429	0	0	-0.04781725	0.03563732	0	0
4.612378	-0.04882957	-0.1119625	0.001584988	-0.001181545	0.04784055	-0.03566321	0	0
4.628946	-0.0486458	-0.1120994	0.0110922	-0.008266927	0.2869405	-0.2138465	0	0
4.645774	-0.04817323	-0.1124517	0.02808258	-0.02093133	0.5087587	-0.3792217	0	0
4.662079	-0.04636149	-0.1138024	0.1111123	-0.08283695	2.505913	-1.868369	0	0
4.678645	-0.04402417	-0.1155456	0.1410932	-0.1052323	0.912071	-0.6813049	0	0
4.695212	-0.04039906	-0.118251	0.2188121	-0.1632984	2.345661	-1.752515	0	0
4.711779	-0.03256743	-0.1241031	0.4727455	-0.3532508	7.663949	-5.73294	0	0
4.728346	-0.02517889	-0.1296339	0.445973	-0.3338418	-0.8080198	0.5857826	0	0
4.744911	-0.01760344	-0.135276	0.4573074	-0.3405944	0.3420922	-0.2038059	0	0
4.761479	-0.008394539	-0.1421985	0.5558186	-0.4178179	2.97316	-2.330676	0	0
4.778045	-0.0006578946	-0.1479891	0.4670386	-0.3495637	-2.679464	2.059974	0	0
4.844312	0.007105144	-0.153774	0.1171479	-0.08729704	-4.224083	3.166236	0	0
4.86094	0.01339394	-0.1584561	0.3781989	-0.2815744	3.149167	-2.343648	0	0
4.877444	0.02162821	-0.164667	0.4989171	-0.3763182	3.643491	-2.859538	0	0
4.894011	0.03559023	-0.1753105	0.8427492	-0.6424428	10.39662	-8.046942	0	0
4.910578	0.03937438	-0.1782055	0.2284249	-0.1747552	-18.54088	14.11525	0	0
4.927144	0.05549559	-0.1905921	0.9731624	-0.7477188	22.47784	-17.29332	0	0
4.943712	0.07158798	-0.2030492	0.9712827	-0.7518716	-0.05673004	-0.1253346	0	0
4.980142	0.08722548	-0.215252	0.4292493	-0.3349651	-10.22742	7.866448	0	0
4.996708	0.1110154	-0.2340216	1.436042	-1.133004	18.99747	-15.05842	0	0
5.013276	0.1216853	-0.2424864	0.6440194	-0.5109224	-23.90365	18.77472	0	0
5.029841	0.1284209	-0.2478862	0.4066107	-0.3259688	-7.165316	5.582153	0	0
5.046563	0.1337752	-0.2521541	0.3201984	-0.2552336	-2.595973	2.125007	0	0
5.062976	0.1365915	-0.2543855	0.1715836	-0.135945	-4.485076	3.600032	0	0
5.079541	0.1417792	-0.2585422	0.313181	-0.2509428	4.293685	-3.487098	0	0
5.096107	0.1445376	-0.2607809	0.1665066	-0.1351315	-4.427089	3.495542	0	0
5.112675	0.1484524	-0.2639236	0.2362894	-0.189691	2.10605	-1.646607	0	0
5.129241	0.1512569	-0.2662106	0.1692929	-0.1380537	-2.022015	1.558459	0	0
5.146125	0.1588092	-0.2723928	0.4472989	-0.3661481	8.311058	-6.818938	0	0
5.162376	0.1619891	-0.2750063	0.1956802	-0.1608256	-7.593758	6.196555	0	0
5.178941	0.167546	-0.2795886	0.3354518	-0.2766228	4.259259	-3.528687	0	0
5.195511	0.1723008	-0.2835253	0.2869561	-0.237586	-1.463581	1.178116	0	0
5.21218	0.1777106	-0.2880225	0.3245469	-0.2697975	1.130946	-0.9691064	0	0
5.228646	0.1804115	-0.2902752	0.1640279	-0.1368039	-4.844335	4.013639	0	0
5.245213	0.1837967	-0.2931057	0.2043429	-0.1708541	1.220451	-1.030795	0	0
5.261777	0.1865425	-0.2954073	0.1657584	-0.1389451	-1.1646	0.9631131	0	0
5.278739	0.1866187	-0.2954713	0.004494406	-0.003772279	-4.809989	4.031771	0	0
5.29491	0.1866442	-0.2954926	0.001571116	-0.00131771	-0.08822887	0.07408223	0	0
5.311478	0.1867712	-0.2955992	0.00766859	-0.006436363	0.1862495	-0.156351	0	0
5.328044	0.1868728	-0.2956845	0.006135229	-0.005150318	-0.04627761	0.03881348	0	0
5.34477	0.1892854	-0.2977118	0.1442466	-0.1212082	4.148448	-3.486029	0	0
5.361287	0.1927607	-0.3006393	0.2104111	-0.1772475	1.990375	-1.685786	0	0
5.377743	0.1932423	-0.3010457	0.02926518	-0.02469431	-5.493716	4.626569	0	0
5.394815	0.1931916	-0.3010029	-0.002969374	0.002506773	-0.9613989	0.8112751	0	0
5.427841	0.193141	-0.3009602	-0.001534999	0.001294958	0.02863169	-0.02418915	0	0
5.444009	0.1930649	-0.3009388	-0.004702983	0.001323434	-0.06439795	0.0005788504	0	0
5.460577	0.1929635	-0.3008532	-0.006119586	0.005164412	-0.04327314	0.1173309	0	0
5.477365	0.1929128	-0.3008104	-0.003019727	0.002547506	0.0929347	-0.07845563	0	0
5.49371	0.1928368	-0.3007463	-0.00465313	0.003925623	-0.04929905	0.04159404	0	0
5.510385	0.1928114	-0.3007249	-0.001520053	0.001283243	0.09488417	-0.08002358	0	0
5.526844	0.1927861	-0.3007035	-0.001539957	0.001298236	-0.0006007178	0.0004524865	0	0
5.54341	0.1927607	-0.3006821	-0.001530029	0.001291664	0.0003006391	-0.0001989785	0	0
5.559976	0.19271	-0.3006393	-0.003061044	0.002581604	-0.04620948	0.03893325	0	0
5.576544	0.19271	-0.3006393	0	0	0.09238517	-0.0779152	0	0
5.593109	0.1926847	-0.3006607	-0.001530117	-0.00128994	-0.046181	-0.03893213	0	0
5.609958	0.1926847	-0.3006607	0	0	0.04579283	0.03860489	0	0
5.626244	0.1926847	-0.3006607	0	0	0	0	0	0
5.660357	0.1926847	-0.3006607	0	0	0	0	0	0
5.677005	0.1926847	-0.3006607	0	0	0	0	0	0
5.713165	0.1926847	-0.3006607	0	0	0	0	0	0
5.729732	0.1926847	-0.3006607	0	0	0	0	0	0
5.746296	0.1926847	-0.3006607	0	0	0	0	0	0
5.762863	0.1926847	-0.3006607	0	0	0	0	0	0
5.77943	0.1926847	-0.3006607	0	0	0	0	0	0
5.795996	0.1926847	-0.3006607	0	0	0	0	0	0
5.812563	0.1926847	-0.3006607	0	0	0	0	0	0
5.829131	0.1926847	-0.3006607	0	0	0	0	0	0
5.845699	0.1926847	-0.3006607	0	0	0	0	0	0
5.862264	0.1926847	-0.3006607	0	0	0	0	0	0
5.878831	0.1926847	-0.3006607	0	0	0	0	0	0
5.895397	0.1926847	-0.3006607	0	0	0	0	0	0
5.912169	0.1926593	-0.3006393	-0.00151128	0.00127406	-0.04533326	0.03821745	0	0
5.929193	0.1926086	-0.3005966	-0.00297865	0.002512114	-0.04341866	0.03663335	0	0
5.945096	0.1924819	-0.3005324	-0.007969673	0.004034495	-0.1515739	0.04623363	0	0
5.961663	0.1922537	-0.3003399	-0.01377475	0.01161778	-0.1787817	0.2335459	0	0
5.978231	0.1921776	-0.3002758	-0.004590324	0.003870838	0.2771826	-0.2337999	0	0
5.994796	0.1921523	-0.3002544	-0.001531104	0.001291813	0.09233142	-0.07783849	0	0
6.011365	0.1920508	-0.3001689	-0.006121755	0.005160369	-0.1385501	0.1167566	0	0
6.02793	0.1918987	-0.3000406	-0.009184297	0.007745035	-0.0924277	0.07800536	0	0
6.044764	0.19129	-0.2995276	-0.03615943	0.03047632	-0.8076718	0.6806053	0	0
6.061065	0.1907573	-0.2990788	-0.03267781	0.02753057	0.1050738	-0.08890166	0	0
6.077787	0.1887015	-0.2973488	-0.1229397	0.1034561	-2.733275	2.299148	0	0
6.094296	0.1882191	-0.2969433	-0.02922365	0.02456531	2.820158	-2.374029	0	0
6.110763	0.1882191	-0.2969433	0	0	0.8862057	-0.7449416	0	0
6.127331	0.1881429	-0.2968793	-0.004598683	0.003863865	-0.1392072	0.1169635	0	0
6.143898	0.1876857	-0.2964951	-0.02759379	0.02318566	-0.6939839	0.5831245	0	0
6.160463	0.1860088	-0.2950874	-0.1012297	0.08497949	-2.222463	1.865049	0	0
6.177031	0.178042	-0.2884261	-0.4808677	0.402065	-11.45799	9.570074	0	0
6.193597	0.1728626	-0.2841187	-0.312643	0.2600131	5.077105	-4.287198	0	0
6.210163	0.1608355	-0.2741839	-0.7260216	0.5997165	-12.47669	10.25301	0	0
6.22673	0.1462123	-0.2622259	-0.8826605	0.7217847	-4.727574	3.684186	0	0
6.243299	0.138399	-0.2558884	-0.4715822	0.3825116	12.40601	-10.23899	0	0
6.259913	0.1225149	-0.2431087	-0.9560425	0.7691914	-14.59982	11.65308	0	0
6.276431	0.1107034	-0.2336912	-0.7150819	0.5701501	7.272728	-6.007511	0	0
6.292998	0.09432452	-0.2207438	-0.9886045	0.7814803	-8.267181	6.387424	0	0
6.375995	0.02391649	-0.1662873	-0.8483266	0.6561311	1.40892	-1.258979	0	0
6.392397	0.01089431	-0.1564028	-0.793904	0.6026165	0.5475162	-0.5383812	0	0
6.408963	-0.001473683	-0.1470561	-0.7465978	0.5642172	1.434891	-1.164729	0	0
6.425531	-0.01660374	-0.135671	-0.9131994	0.6871645	-5.028119	3.710613	0	0
6.442097	-0.02704603	-0.1278414	-0.6303708	0.4726486	8.536029	-6.474291	0	0
6.458663	-0.03661521	-0.1206845	-0.5776464	0.4320341	1.591386	-1.225871	0	0
6.47523	-0.04517976	-0.1142919	-0.5169575	0.3858535	1.831672	-1.393794	0	0
6.491797	-0.05602027	-0.1062164	-0.6543344	0.4874376	-4.146043	3.065814	0	0
6.508588	-0.06336243	-0.1007559	-0.4372713	0.3252102	6.507061	-4.86321	0	0
6.524929	-0.069886	-0.09587056	-0.3992094	0.2989568	1.148792	-0.7923844	0	0
6.559623	-0.08192151	-0.08690194	-0.3469028	0.258505	1.024909	-0.7926234	0	0
6.576191	-0.08646806	-0.0834932	-0.2744147	0.2057404	1.41406	-1.029304	0	0
6.592757	-0.09161127	-0.07960548	-0.3104805	0.2346903	-1.088501	0.8737345	0	0
6.609322	-0.09476791	-0.07719053	-0.1905566	0.1457834	3.619727	-2.683524	0	0
6.625888	-0.09565455	-0.07641819	-0.05352131	0.04662089	4.136091	-2.992989	0	0
6.642455	-0.1045125	-0.06920724	-0.5346846	0.4352662	-14.52216	11.72985	0	0
6.659022	-0.1097675	-0.06524336	-0.3171919	0.2392603	6.564037	-5.915555	0	0
6.675589	-0.1160032	-0.06063224	-0.3764046	0.2783442	-1.787093	1.179589	0	0
6.692157	-0.1197402	-0.05786913	-0.22555	0.1667669	4.552733	-3.367362	0	0
6.708729	-0.1222816	-0.0559902	-0.1533577	0.113383	2.178393	-1.610851	0	0
6.725289	-0.122489	-0.05583687	-0.01252295	0.009258701	4.250708	-3.142703	0	0
6.741857	-0.1224631	-0.05585604	0.001564524	-0.001156866	0.4252402	-0.3144013	0	0
6.758422	-0.1224371	-0.0558752	0.001565199	-0.001156808	2.03717E-05	1.7603E-06	0	0
6.775032	-0.1223334	-0.05595187	0.006242912	-0.004615906	0.1410032	-0.1042698	0	0
6.791558	-0.1218408	-0.05635439	0.02980557	-0.0243556	0.7110918	-0.5957193	0	0
6.8083	-0.1208036	-0.0571596	0.06195174	-0.04809435	0.966252	-0.7135412	0	0
6.824811	-0.120259	-0.05763899	0.03298686	-0.02903504	-0.8710403	0.5731573	0	0
6.841258	-0.1199477	-0.05786913	0.01892577	-0.01399364	-0.4266486	0.4563936	0	0
6.857824	-0.1199477	-0.05786913	0	0	-0.5732848	0.4238844	0	0
6.87439	-0.1198959	-0.05790749	0.003131747	-0.002315639	0.0945231	-0.06989116	0	0
6.890958	-0.119844	-0.05794585	0.003131116	-0.002314948	-1.904302E-05	2.0863E-05	0	0
6.907531	-0.119818	-0.05796503	0.001565422	-0.001157432	-0.0472432	0.03492685	0	0
6.940657	-0.1184949	-0.05894336	0.03994225	-0.02953323	0.7721877	-0.5709551	0	0
6.957224	-0.1157695	-0.06095861	0.1645111	-0.1216446	2.506763	-1.853604	0	0
6.97379	-0.1092215	-0.06580105	0.3952601	-0.2923067	6.964318	-5.150817	0	0
6.990357	-0.1031588	-0.07028577	0.3659541	-0.2707061	-0.8844939	0.6519375	0	0
7.006925	-0.097271	-0.07464264	0.3553794	-0.2629735	-0.3191459	0.2333676	0	0
7.02349	-0.08934049	-0.08051405	0.4787421	-0.3544401	3.723255	-2.760586	0	0
7.040057	-0.08160783	-0.08620435	0.4667577	-0.343477	-0.3617162	0.3308912	0	0
7.056626	-0.07632513	-0.09012096	0.3188277	-0.2363801	-4.464344	3.232053	0	0
7.07319	-0.0746505	-0.09136306	0.1010983	-0.07498632	-6.571275	4.871013	0	0
7.089756	-0.06820981	-0.09614281	0.3887829	-0.2885224	8.683337	-6.445272	0	0
7.122898	-0.06632363	-0.0975434	0.05691279	-0.04226077	-6.676406	4.954175	0	0
7.139545	-0.06634983	-0.09752394	-0.001574092	0.001169044	-1.174707	0.8722864	0	0
7.156047	-0.06637603	-0.09750447	-0.001587422	0.001179279	-0.0004021214	0.0003087623	0	0
7.17259	-0.06637603	-0.09750447	0	0	0.04803846	-0.03568728	0	0
7.189573	-0.06637603	-0.09750447	0	0	0	0	0	0
7.205724	-0.06634983	-0.09752394	0.001621963	-0.001204939	0.04895164	-0.03636567	0	0
7.222599	-0.06637603	-0.0975434	-0.001552345	-0.001153221	-0.09611479	0.001565971	0	0
7.238856	-0.06637603	-0.09758231	0	-0.002393728	0.04685325	-0.03744126	0	0
7.255621	-0.06637603	-0.09766014	0	-0.004642304	0	-0.0680934	0	0
7.271989	-0.06640223	-0.09771851	-0.001600872	-0.003566344	-0.0483158	0.03247347	0	0
7.288556	-0.06637603	-0.09773798	0.001581704	-0.001174697	0.09663159	0.07261686	0	0
7.307812	-0.06634983	-0.09783527	0.001360445	-0.005052917	-0.006176535	-0.1082624	0	0
7.324379	-0.06634983	-0.09783527	0	0	-0.0379765	0.1410509	0	0
7.340947	-0.06634983	-0.09783527	0	0	0	0	0	0
7.357514	-0.06634983	-0.09783527	0	0	0	0	0	0
7.3742	-0.06634983	-0.09783527	0	0	0	0	0	0
7.456913	-0.06653323	-0.09793258	-0.002217242	-0.001176404	-0.02230635	-0.0118351	0	0
7.473479	-0.06653323	-0.0979715	0	-0.002349597	0.02233346	-0.01181714	0	0
7.490046	-0.06655943	-0.09799096	-0.001581704	-0.001174697	-0.04773934	0.0354611	0	0
7.506613	-0.06655943	-0.09799096	0	0	0.04773591	0.03545243	0	0
7.523179	-0.06655943	-0.09799096	0	0	0	0	0	0
7.539816	-0.06655943	-0.09799096	0	0	0	0	0	0
7.556313	-0.06655943	-0.09799096	0	0	0	0	0	0
7.572881	-0.06655943	-0.09799096	0	0	0	0	0	0
7.589446	-0.06655943	-0.09799096	0	0	0	0	0	0
7.606012	-0.06655943	-0.09799096	0	0	0	0	0	0
7.622579	-0.06655943	-0.09799096	0	0	0	0	0	0
7.639149	-0.06655943	-0.09799096	0	0	0	0	0	0
7.656209	-0.06655943	-0.09799096	0	0	0	0	0	0
7.673414	-0.06655943	-0.09799096	0	0	0	0	0	0
7.689345	-0.06653323	-0.0979715	0.00164486	0.001221602	0.04964054	0.03686696	0	0
7.706435	-0.06653323	-0.0979715	0	0	-0.0498133	-0.03699526	0	0
7.722478	-0.06650703	-0.09799096	0.001632809	-0.001212997	0.0492797	-0.03660938	0	0
7.739046	-0.06650703	-0.09799096	0	0	-0.05006944	0.03719607	0	0
7.755969	-0.06650703	-0.09799096	0	0	0	0	0	0
7.772183	-0.06650703	-0.09799096	0	0	0	0	0	0
7.788745	-0.06650703	-0.09799096	0	0	0	0	0	0
7.805506	-0.06650703	-0.09799096	0	0	0	0	0	0
7.821881	-0.06650703	-0.09799096	0	0	0	0	0	0
7.839027	-0.06648083	-0.0979715	0.001528259	0.001135005	0.04559084	0.03385933	0	0
7.855042	-0.06648083	-0.0979715	0	0	-0.0460858	-0.03422692	0	0
7.871578	-0.06648083	-0.0979715	0	0	0	0	0	0
7.888144	-0.06648083	-0.0979715	0	0	0	0	0	0
7.90471	-0.06645463	-0.09795204	0.001581299	0.001174731	0.04772645	0.03545549	0	0
7.921278	-0.06645463	-0.09795204	0	0	-0.04772439	-0.03545396	0	0
7.937844	-0.06642843	-0.09793258	0.001581749	0.001174731	0.04773797	0.03545396	0	0
7.957527	-0.06642843	-0.09793258	0	0	-0.04363604	-0.03240754	0	0
7.974123	-0.06640223	-0.09795204	0.001578392	-0.001172571	0.04350679	-0.03232075	0	0
7.990662	-0.06640223	-0.09795204	0	0	-0.04763527	0.03538775	0	0
8.007228	-0.06637603	-0.0979715	0.001581749	-0.001174731	0.0477806	-0.03548562	0	0
8.023796	-0.06624503	-0.0980688	0.007906485	-0.005872978	0.1908809	-0.1417934	0	0
8.040362	-0.06598302	-0.09826343	0.01581614	-0.01174821	0.2387139	-0.1773148	0	0
8.056931	-0.06551138	-0.09861378	0.02846477	-0.0211451	0.3817253	-0.2835906	0	0
8.073496	-0.06123912	-0.1017886	0.2579189	-0.191666	6.925138	-5.146479	0	0
8.090062	-0.05447238	-0.1068217	0.408465	-0.3038159	4.544014	-3.38508	0	0
8.106628	-0.04974839	-0.110339	0.2851567	-0.212316	-3.721666	2.761633	0	0
8.123232	-0.04641401	-0.1128235	0.2008243	-0.1496401	-2.542448	1.889549	0	0
8.139763	-0.03992614	-0.1176627	0.3924673	-0.2927299	5.783795	-4.318458	0	0
8.156329	-0.03871748	-0.1185649	0.07295879	-0.05446218	-9.653621	7.199015	0	0
8.189464	-0.03164732	-0.1238475	0.2133778	-0.1594297	2.82529	-2.111992	0	0
8.206287	-0.03025392	-0.1248896	0.08282331	-0.06194377	-2.613273	1.951349	0	0
8.222805	-0.03030651	-0.1248503	-0.003183413	0.002381189	-2.579577	1.929281	0	0
8.239166	-0.03046426	-0.1247323	-0.009641647	0.007211854	-0.196425	0.1469231	0	0
8.255833	-0.03067459	-0.124575	-0.01261999	0.009439285	-0.09017714	0.06744141	0	0
8.272305	-0.03085862	-0.124398	-0.0111728	0.01074445	0.04367121	0.03938539	0	0
8.349889	-0.03093749	-0.1242997	-0.001016596	0.001267144	0.1079802	-0.1007622	0	0
8.366328	-0.03093749	-0.1242997	0	0	0.01081212	-0.01347685	0	0
8.382915	-0.03093749	-0.1242997	0	0	0	0	0	0
8.399463	-0.0309112	-0.1242014	0.001588771	0.005940868	0.04794921	0.1792957	0	0
8.416437	-0.03093749	-0.1240638	-0.001548871	0.0081079	-0.09359781	0.0646439	0	0
8.432596	-0.03101637	-0.1239655	-0.004880968	0.006083459	-0.1005658	-0.06109951	0	0
8.44946	-0.03133185	-0.1237296	-0.01870761	0.01398854	-0.4186988	0.239382	0	0
8.465729	-0.03141072	-0.1236706	-0.004847835	0.003624828	0.4183128	-0.3127955	0	0
8.482295	-0.03141072	-0.1236706	0	0	0.1476423	-0.1103952	0	0
8.498994	-0.03143701	-0.1236509	-0.001574547	0.001177452	-0.04733327	0.03539601	0	0
8.515429	-0.0314633	-0.123592	-0.001599629	0.003588228	-0.000757006	0.07275946	0	0
8.531996	-0.03148959	-0.1235723	-0.00158683	0.001186356	0.0003878312	-0.07277982	0	0
8.548562	-0.03185764	-0.1231792	-0.0222169	0.02372893	-0.6226345	0.6803559	0	0
8.565128	-0.03290917	-0.1223539	-0.06347392	0.04981857	-1.245211	0.7874322	0	0
8.581697	-0.0346966	-0.1210182	-0.1078772	0.08061031	-1.340054	0.9292696	0	0
8.598263	-0.0351697	-0.1206255	-0.02855993	0.02370601	2.393799	-1.717375	0	0
8.615076	-0.03514342	-0.1206452	0.001563165	-0.001167665	0.9024672	-0.7451983	0	0
8.63159	-0.03514342	-0.1206452	0	0	-0.04690371	0.0350365	0	0
8.647962	-0.03514342	-0.1206059	0	0.002398315	0	0.07292914	0	0
8.664529	-0.03480173	-0.1203507	0.02062429	0.01540509	0.6261367	0.394875	0	0
8.681123	-0.03453889	-0.1201544	0.01583962	0.01182965	-0.1442853	-0.10782	0	0
8.697662	-0.0343549	-0.1200562	0.01112435	0.005934041	-0.1423111	-0.177935	0	0
8.714229	-0.03430233	-0.120017	0.003173392	0.00237015	-0.2401679	-0.1076514	0	0
8.730796	-0.03411834	-0.1199188	0.01110578	0.005923685	0.239407	0.107249	0	0
8.747681	-0.03335604	-0.119389	0.04514659	0.03138282	1.0176	0.7610638	0	0
8.763928	-0.02909705	-0.1163295	0.2621284	0.1882997	6.5489	4.736034	0	0
8.782824	-0.02283813	-0.1117081	0.3312445	0.2445802	1.966717	1.601474	0	0
8.799392	-0.01976059	-0.1094983	0.1857505	0.1333769	-4.102661	-3.135726	0	0
8.816216	-0.01962906	-0.1095179	0.007817592	-0.001162	-5.328463	-4.028965	0	0
8.832525	-0.01960275	-0.1095374	0.001613004	-0.001198303	-0.1872602	-0.001095678	0	0
8.849092	-0.01960275	-0.1095374	0	0	-0.04906325	0.03644917	0	0
8.865752	-0.01957645	-0.109557	0.001578913	-0.001173507	0.04751902	-0.03531792	0	0
8.882224	-0.01957645	-0.1095961	0	-0.002373332	-0.0476558	-0.0362139	0	0
8.898792	-0.01955014	-0.1096156	0.00158775	-0.001179992	0.04805532	0.03611799	0	0
8.915358	-0.01955014	-0.1096156	0	0	-0.04791977	0.03561325	0	0
8.931925	-0.01955014	-0.1096156	0	0	0	0	0	0
8.948813	-0.01955014	-0.1096156	0	0	0	0	0	0
8.965057	-0.01955014	-0.1096156	0	0	0	0	0	0
9.031371	-0.01970797	-0.109772	-0.002380096	-0.002358412	-0.0288295	-0.02856684	0	0
9.047894	-0.01994472	-0.1100653	-0.014329	-0.01774892	-0.1442475	-0.1857946	0	0
9.06446	-0.01994472	-0.1101435	0	-0.004720961	0.4330485	0.3937285	0	0
9.081024	-0.01989211	-0.1101826	0.003176119	-0.002360977	0.0958665	0.07123265	0	0
9.097592	-0.01989211	-0.1102217	0	-0.002359984	-0.09586099	2.997824E-05	0	0
9.114158	-0.01989211	-0.1102217	0	0	0	0.07122651	0	0
9.130942	-0.01989211	-0.1102217	0	0	0	0	0	0
9.147291	-0.01986581	-0.1102412	0.001609052	-0.001196279	0.04856269	-0.03610481	0	0
9.180476	-0.01986581	-0.1102412	0	0	-0.0324839	0.02415074	0	0
9.196991	-0.0198395	-0.1102608	0.001592885	-0.001183808	0.03205013	-0.02381917	0	0
9.213557	-0.0198132	-0.1102803	0.001587821	-0.001180578	-0.0001530806	9.76478E-05	0	0
9.230124	-0.0198395	-0.1102999	-0.001587821	-0.001180128	-0.09584656	1.357313E-05	0	0
9.246691	-0.0198395	-0.110339	0	-0.00236057	0.0479219	-0.03562682	0	0
9.26326	-0.0198395	-0.1104172	0	-0.004720595	0	-0.07122161	0	0
9.279824	-0.0198395	-0.1104563	0	-0.002360977	0	0.07121546	0	0
9.296557	-0.0198395	-0.1104563	0	0	0	0.07090545	0	0
9.313074	-0.0198395	-0.1104563	0	0	0	0	0	0
9.329581	-0.0198395	-0.1104563	0	0	0	0	0	0
9.346092	-0.0198395	-0.1104563	0	0	0	0	0	0
9.362659	-0.0198395	-0.1104563	0	0	0	0	0	0
9.379225	-0.0198395	-0.1104563	0	0	0	0	0	0
9.396129	-0.0198395	-0.1104563	0	0	0	0	0	0
9.412361	-0.0198395	-0.1104563	0	0	0	0	0	0
9.428926	-0.0198395	-0.1104563	0	0	0	0	0	0
9.445493	-0.0198395	-0.1104563	0	0	0	0	0	0
9.462181	-0.0198395	-0.1104563	0	0	0	0	0	0
9.478626	-0.01986581	-0.1104759	-0.001599628	-0.001189272	-0.04827825	-0.03589334	0	0
9.495202	-0.01986581	-0.1104759	0	0	0.04844278	0.03601567	0	0
9.511762	-0.01986581	-0.1104759	0	0	0	0	0	0
9.528326	-0.01986581	-0.1104759	0	0	0	0	0	0
9.544894	-0.01986581	-0.1104759	0	0	0	0	0	0
9.581259	-0.01986581	-0.1104759	0	0	0	0	0	0
9.59736	-0.01986581	-0.1104759	0	0	0	0	0	0
9.61393	-0.01986581	-0.1104759	0	0	0	0	0	0
9.630494	-0.01986581	-0.1104759	0	0	0	0	0	0
9.64731	-0.01986581	-0.1104759	0	0	0	0	0	0
9.66363	-0.01986581	-0.1104759	0	0	0	0	0	0
9.680193	-0.01986581	-0.1104759	0	0	0	0	0	0
9.69676	-0.01986581	-0.1104759	0	0	0	0	0	0
9.713331	-0.01986581	-0.1104759	0	0	0	0	0	0
9.729894	-0.01986581	-0.1104759	0	0	0	0	0	0
9.746879	-0.01986581	-0.1104759	0	0	0	0	0	0
9.763028	-0.01986581	-0.1104759	0	0	0	0	0	0
9.779593	-0.01986581	-0.1104759	0	0	0	0	0	0
9.79616	-0.01986581	-0.1104759	0	0	0	0	0	0
9.812928	-0.01986581	-0.1104759	0	0	0	0	0	0
9.829432	-0.01986581	-0.1104759	0	0	0	0	0	0
9.845948	-0.01986581	-0.1104759	0	0	0	0	0	0
9.862426	-0.01986581	-0.1104759	0	0	0	0	0	0
9.878992	-0.01986581	-0.1104759	0	0	0	0	0	0
9.895558	-0.01986581	-0.1104759	0	0	0	0	0	0
9.912127	-0.01986581	-0.1104759	0	0	0	0	0	0
9.928693	-0.01986581	-0.1104759	0	0	0	0	0	0
9.945258	-0.01986581	-0.1104759	0	0	0	0	0	0
9.962027	-0.01986581	-0.1104759	0	0	0	0	0	0
9.978539	-0.01986581	-0.1104759	0	0	0	0	0	0
10.07779	-0.0198395	-0.1104954	0.000265042	-0.0001969752	0.002289491	-0.001701515	0	0
10.09436	-0.0198395	-0.1104954	0	0	-0.002288435	0.00170073	0	0
10.11092	-0.0198395	-0.1104954	0	0	0	0	0	0
10.12749	-0.0198395	-0.1104954	0	0	0	0	0	0
10.14415	-0.0198395	-0.1104954	0	0	0	0	0	0
10.16067	-0.0198395	-0.1104954	0	0	0	0	0	0
10.17719	-0.0198395	-0.1104954	0	0	0	0	0	0
10.19376	-0.0198395	-0.1104954	0	0	0	0	0	0
10.21032	-0.0198395	-0.1104954	0	0	0	0	0	0
10.22689	-0.0198395	-0.1104954	0	0	0	0	0	0
10.24345	-0.0198132	-0.110515	0.001587912	-0.001180646	0.04792604	-0.035634	0	0
10.26002	-0.0198132	-0.110515	0	0	-0.04792466	0.03563298	0	0
10.27659	-0.0198132	-0.110515	0	0	0	0	0	0
10.29326	-0.0198132	-0.110515	0	0	0	0	0	0
10.31312	-0.01986581	-0.110515	-0.002648138	0	-0.07248171	0	0	0
10.32979	-0.01986581	-0.110515	0	0	0.07249495	0	0	0
10.3463	-0.01989211	-0.1105345	-0.001593437	-0.001184669	-0.04803748	-0.03571433	0	0
10.36283	-0.01991842	-0.1105541	-0.00159121	-0.001182647	6.740381E-05	6.121661E-05	0	0
10.37939	-0.01997103	-0.1105541	-0.003175571	0	-0.04786847	0.03573143	0	0
10.39596	-0.01999733	-0.1105345	-0.001588024	0.001180196	0.047915	0.03562043	0	0
10.41284	-0.02007625	-0.1104759	-0.004674239	0.00347487	-0.09226841	0.06860378	0	0
10.42909	-0.02015517	-0.1104172	-0.004855935	0.00360986	-0.005483622	0.004074009	0	0
10.44587	-0.02026039	-0.110339	-0.006273499	0.004663423	-0.04292547	0.03190311	0	0
10.46238	-0.02031299	-0.1102999	-0.003185912	0.00236834	0.09276173	-0.06895217	0	0
10.47879	-0.02044452	-0.110163	-0.008012203	0.00833763	-0.146569	0.1812805	0	0
10.4954	-0.02065496	-0.1098893	-0.01267069	0.01648139	-0.1410645	0.2466026	0	0
10.51193	-0.02065496	-0.1098502	0	0.002366249	0.3824244	-0.4260204	0	0
10.52849	-0.02065496	-0.1098111	0	0.002359984	0	-0.0001893251	0	0
10.54506	-0.02060235	-0.109772	0.003175936	0.002359942	0.09585271	-1.278922E-06	0	0
10.56163	-0.02057604	-0.1097524	0.001587729	0.00118006	-0.04793495	-0.03561095	0	0
10.5782	-0.02057604	-0.1097524	0	0	-0.04791638	-0.03561325	0	0
10.59497	-0.02057604	-0.1097524	0	0	0	0	0	0
10.61133	-0.02078648	-0.1095961	-0.01286787	0.009563342	-0.3883978	0.2886555	0	0
10.62789	-0.020918	-0.1094983	-0.007938189	0.005899061	0.1497391	-0.1113026	0	0
10.64451	-0.02123365	-0.1092638	-0.01899796	0.01411739	-0.3332953	0.247666	0	0
10.66103	-0.03198908	-0.1012819	-0.6511483	0.4832302	-19.07943	14.15867	0	0
10.67759	-0.04071433	-0.09482072	-0.5266873	0.3900223	3.761979	-2.817317	0	0
10.69416	-0.0499059	-0.08802622	-0.5548359	0.4101403	-0.8495751	0.6071956	0	0
10.71073	-0.06247124	-0.07875517	-0.7584455	0.5596015	-6.145126	4.51088	0	0
10.72729	-0.07271368	-0.07121055	-0.6182707	0.4554205	4.230606	-3.144281	0	0
10.74408	-0.07969924	-0.06607031	-0.4161633	0.3062286	6.059846	-4.473265	0	0
10.76059	-0.09377677	-0.05572188	-0.8527156	0.6268334	-13.11177	9.629312	0	0
10.7771	-0.1037316	-0.04841015	-0.6029221	0.4428412	7.564908	-5.572141	0	0
10.79361	-0.1160551	-0.03932449	-0.7462961	0.5502168	-4.34153	3.251456	0	0
10.81013	-0.1245364	-0.03294661	-0.5135866	0.3862146	7.046104	-4.965748	0	0
10.82669	-0.1346797	-0.02519682	-0.6122559	0.4677781	-2.982652	2.465565	0	0
10.84326	-0.1410827	-0.01932137	-0.3863968	0.3545612	6.815655	-3.416498	0	0
10.85983	-0.1422949	-0.006942654	-0.07318837	0.7473961	9.452922	11.85612	0	0
10.87639	-0.140928	0.001139524	0.0825145	0.4878694	4.699934	-7.833884	0	0
10.97579	-0.1302065	0.07557251	0.1078602	0.7488117	0.2185579	2.250128	0	0
10.99236	-0.1298702	0.08428778	0.02030207	0.5260553	-0.755015	-1.920831	0	0
11.05694	-0.1359716	0.12004	-0.09448566	0.553652	-1.414645	0.3401014	0	0
11.07351	-0.1414439	0.1240203	-0.33025	0.2402127	-2.905459	-3.862693	0	0
11.09007	-0.1472681	0.1281434	-0.3515746	0.248886	-0.6435417	0.261746	0	0
11.10683	-0.1511283	0.1309511	-0.2303076	0.1675142	3.638691	-2.441609	0	0
11.12335	-0.1571154	0.1425853	-0.3625904	0.7045924	-3.975711	16.14169	0	0
11.13986	-0.1583217	0.1485294	-0.07304509	0.3599254	8.76701	-10.43601	0	0
11.15637	-0.1586296	0.164749	-0.01864928	0.9823579	1.647073	18.84689	0	0
11.17291	-0.1583987	0.1707071	0.01396679	0.3603357	0.9869969	-18.82305	0	0
11.21143	-0.1607073	0.1880252	-0.05992774	0.449544	-1.34211	1.620246	0	0
11.22842	-0.1621173	0.1929884	-0.08299098	0.2921309	-0.4154537	-2.835587	0	0
11.24456	-0.1649353	0.1973533	-0.174547	0.2703571	-2.763166	-0.657136	0	0
11.26113	-0.1726839	0.2042921	-0.4677309	0.4188545	-8.962845	4.539676	0	0
11.2777	-0.1781439	0.2090106	-0.3295505	0.2847936	4.170291	-4.045968	0	0
11.29447	-0.1829572	0.2144282	-0.2869959	0.3230224	1.276404	1.146652	0	0
11.31083	-0.1837204	0.2256483	-0.04665094	0.6858132	7.25425	10.94999	0	0
11.32749	-0.1833134	0.2317919	0.02443307	0.3687913	2.152817	-9.601176	0	0
11.344	-0.1822447	0.2441753	0.06471139	0.7497988	1.214134	11.48494	0	0
11.36053	-0.1803351	0.2526561	0.1155442	0.5131698	1.538432	-7.161471	0	0
11.3771	-0.1799785	0.2592143	0.02152564	0.3958735	-2.841084	-3.544497	0	0
11.39366	-0.1802078	0.2594113	-0.01383692	0.01189414	-1.067275	-11.58885	0	0
11.41055	-0.1802078	0.2594113	0	0	0.4136583	-0.3555783	0	0
11.42706	-0.1801569	0.2593755	0.00308457	-0.002169487	0.09236675	-0.06496479	0	0
11.44336	-0.1801314	0.2593576	0.001562774	-0.001098511	-0.04637235	0.0326349	0	0
11.46009	-0.1801569	0.2593396	-0.001523738	-0.001072854	-0.09345238	0.0007768377	0	0
11.4766	-0.1801314	0.2593217	0.001542831	-0.001084493	0.09225981	-0.0003501593	0	0
11.49306	-0.1801314	0.2593217	0	0	-0.04678627	0.03288719	0	0
11.50963	-0.1801314	0.2593217	0	0	0	0	0	0
11.5262	-0.1801314	0.2593217	0	0	0	0	0	0
11.54276	-0.1800804	0.2592859	0.003074449	-0.002162368	0.09279239	-0.06526416	0	0
11.55965	-0.1800295	0.2592501	0.00301597	-0.002120618	-0.001747793	0.001247828	0	0
11.5759	-0.180004	0.2592322	0.00156883	-0.001102768	-0.04367476	0.03071875	0	0
11.5925	-0.1799785	0.2592143	0.001533693	-0.0010787	-0.001069751	0.000732748	0	0
11.60903	-0.1799531	0.2591963	0.001540683	-0.001083617	0.0002109835	-0.0001483901	0	0
11.6256	-0.1799531	0.2591963	0	0	-0.04655286	0.03274226	0	0
11.64221	-0.1799276	0.2591784	0.001533621	-0.001078019	0.0462196	-0.03248886	0	0
11.6753	-0.1793926	0.2587664	0.01616997	-0.01245334	0.2944953	-0.2288807	0	0
11.69186	-0.1792143	0.2586052	0.01076597	-0.009732456	-0.1088395	0.05480001	0	0
11.70843	-0.1790614	0.2584619	0.009228212	-0.008650774	-0.04641091	0.03264616	0	0
11.725	-0.1790359	0.2584081	0.001538124	-0.003245351	-0.232094	0.1631407	0	0
11.74156	-0.1790104	0.2583544	0.001538124	-0.003243553	0	5.429251E-05	0	0
11.75829	-0.1789595	0.2582827	0.003046087	-0.004284116	0.04528881	-0.03125136	0	0
11.7747	-0.1789085	0.2581752	0.003106651	-0.006551218	0.001827822	-0.06842127	0	0
11.79132	-0.1787811	0.258014	0.007666363	-0.009702419	0.1380694	-0.09541927	0	0
11.80783	-0.1786791	0.2579065	0.006173296	-0.00650989	-0.04506214	0.09635348	0	0
11.85753	-0.1787046	0.2576736	-0.000512998	-0.004686241	-0.1009821	0.02754231	0	0
11.8741	-0.1786791	0.2576557	0.001538758	-0.001080998	0.03096105	0.05440323	0	0
11.89066	-0.1787046	0.2576019	-0.001539112	-0.003243739	-0.09289028	-0.06527168	0	0
11.90723	-0.1788321	0.257369	-0.007691076	-0.01405818	-0.1856773	-0.3263993	0	0
11.94298	-0.1774556	0.256079	0.03850846	-0.03609175	0.8831714	-0.4212037	0	0
11.95954	-0.1757214	0.2548246	0.1046799	-0.07571092	1.264964	-0.7573782	0	0
11.97611	-0.1754152	0.2545021	0.01847891	-0.01947099	-2.601552	1.697324	0	0
11.99268	-0.1754662	0.2544662	-0.003079846	-0.002164167	-0.6506633	0.5223359	0	0
12.00924	-0.1755683	0.2543945	-0.006160946	-0.004326785	-0.09299581	-0.06527355	0	0
12.02598	-0.1756448	0.2542691	-0.004571087	-0.007492097	0.047732	-0.09503151	0	0
12.04237	-0.1756193	0.2541437	0.001556409	-0.00765295	0.1849335	-0.004854704	0	0
12.05901	-0.1755683	0.2538569	0.003066957	-0.0172373	0.04573719	-0.2902002	0	0
12.07551	-0.1739605	0.2517241	0.09744942	-0.1292738	2.848469	-3.381269	0	0
12.09208	-0.1704867	0.2478876	0.2096931	-0.2315839	3.394652	-3.094224	0	0
12.10864	-0.1671111	0.2440498	0.2037537	-0.2316497	-0.1792551	-0.001986461	0	0
12.12521	-0.164167	0.2419869	0.1777229	-0.1245322	-0.7856566	3.232998	0	0
12.14178	-0.158373	0.2378957	0.3497277	-0.2469419	5.191413	-3.694544	0	0
12.15834	-0.1535964	0.2344493	0.2883326	-0.208038	-1.852961	1.174156	0	0
12.17509	-0.1462123	0.2290798	0.4408351	-0.3205598	4.577373	-3.377348	0	0
12.1916	-0.1396121	0.2243004	0.3998131	-0.2895184	-1.233431	0.9333404	0	0
12.20811	-0.1289645	0.216569	0.6448094	-0.4682068	7.419414	-5.411361	0	0
12.22462	-0.1169896	0.2078223	0.7252638	-0.5297518	2.436251	-1.863656	0	0
12.24118	-0.1089355	0.2000755	0.4866005	-0.468028	-7.218455	1.86686	0	0
12.25774	-0.1061261	0.1889279	0.1695831	-0.6729112	-9.572287	-6.186416	0	0
12.27431	-0.1058399	0.1761171	0.01727826	-0.7733048	-4.596834	-3.030059	0	0
12.29087	-0.1061521	0.1670678	-0.01884876	-0.5462499	-1.090379	6.852927	0	0
12.30744	-0.106048	0.1477299	0.006282921	-1.167301	0.7585195	-18.74444	0	0
12.32401	-0.1055016	0.1325366	0.03298691	-0.9171239	0.8059743	7.550796	0	0
12.34057	-0.1044865	0.1164952	0.06127175	-0.9683182	0.8536873	-1.545136	0	0
12.35722	-0.1023516	0.08789404	0.1282793	-1.718552	2.017761	-22.59139	0	0
12.37373	-0.1005545	0.07014632	0.1088466	-1.074905	-0.5861422	19.41413	0	0
12.39027	-0.09893905	0.05245185	0.09762923	-1.069395	-0.3393313	0.1666907	0	0
12.40684	-0.09833966	0.04664129	0.03617936	-0.3507262	-1.855736	21.7032	0	0
12.42376	-0.09474183	0.01406068	0.2126128	-1.925341	5.268364	-47.01853	0	0
12.43997	-0.09398545	0.009127125	0.04665716	-0.3043244	-5.008696	48.92377	0	0
12.45654	-0.08813947	-0.01449651	0.3528843	-1.426008	9.342521	-34.22083	0	0
12.47311	-0.08275792	-0.01858298	0.3248495	-0.246674	-0.84614	35.59441	0	0
12.48967	-0.07491218	-0.02369848	0.4735696	-0.3087726	4.488511	-1.874195	0	0
12.50632	-0.06642843	-0.02984816	0.5095578	-0.3693665	1.083443	-1.824211	0	0
12.52283	-0.06089829	-0.03385963	0.3349569	-0.2429723	-5.265525	3.811733	0	0
12.53937	-0.05457732	-0.03840982	0.3821501	-0.2750931	1.427911	-0.9718704	0	0
12.55594	-0.05056213	-0.04121188	0.2423575	-0.1691326	-4.222353	3.200473	0	0
12.57287	-0.04827825	-0.04283331	0.1349047	-0.09577486	-3.207847	2.189989	0	0
12.58908	-0.0483045	-0.04277607	-0.001620057	0.003532037	-4.120088	2.996916	0	0
12.60564	-0.04827825	-0.04279515	0.00158508	-0.001151927	0.09780373	-0.1429297	0	0
12.62221	-0.04827825	-0.04279515	0	0	-0.04784193	0.03476822	0	0
12.64079	-0.04825199	-0.04281423	0.001413018	-0.001026884	0.04020125	-0.02921549	0	0
12.65736	-0.04822574	-0.04283331	0.00158449	-0.001151661	0.004878341	-0.003549892	0	0
12.67394	-0.04814697	-0.04289055	0.004750316	-0.003452202	0.09550086	-0.0693985	0	0
12.69049	-0.04599386	-0.04445562	0.1300745	-0.09454939	3.782292	-2.749318	0	0
12.70706	-0.04089823	-0.04816164	0.3075902	-0.2237086	5.359901	-3.89983	0	0
12.72363	-0.03687801	-0.05108772	0.2426613	-0.1766184	-1.959614	1.421227	0	0
12.74019	-0.030622	-0.05564523	0.3776567	-0.2751234	4.074403	-2.973059	0	0
12.75676	-0.02289074	-0.06128503	0.466687	-0.3404385	2.687173	-1.971384	0	0
12.77332	-0.01644589	-0.06599338	0.389012	-0.2841966	-2.344305	1.697435	0	0
12.78989	-0.01220992	-0.06909171	0.2556835	-0.1870157	-4.023862	2.932925	0	0
12.82305	-0.006973571	-0.07292607	0.1579333	-0.115648	-1.965908	1.435315	0	0
12.83959	-0.005605204	-0.07392888	0.08271381	-0.06061702	-1.513506	1.107289	0	0
12.85616	-0.005657834	-0.0738903	-0.003176751	0.002328639	-2.594049	1.901072	0	0
12.87272	-0.005657834	-0.0738903	0	0	0.0958773	-0.0702805	0	0
12.88929	-0.005736779	-0.07383244	-0.004765373	0.003492711	-0.1438275	0.1054163	0	0
12.90586	-0.005868354	-0.073736	-0.007942336	0.005821484	-0.09588644	0.07028657	0	0
12.92262	-0.005894668	-0.07371671	-0.001570091	0.001150492	0.1912086	-0.14016	0	0
12.93899	-0.005947298	-0.07367814	-0.003214312	0.002356173	-0.04962413	0.03638855	0	0
12.95564	-0.005947298	-0.07367814	0	0	0.09734434	-0.07135588	0	0
12.97215	-0.005947298	-0.07367814	0	0	0	0	0	0
12.98869	-0.005973613	-0.07365885	-0.001591215	0.001165951	-0.04814074	0.03527476	0	0
13.00567	-0.005973613	-0.07365885	0	0	0.04746963	-0.03478301	0	0
13.02182	-0.005973613	-0.07362028	0	0.002388268	0	0.07208014	0	0
13.03839	-0.005999928	-0.07360099	-0.001588439	0.001164387	-0.04855124	-0.03740839	0	0
13.05522	-0.006026243	-0.07358171	-0.001563889	0.001145928	0.0007351795	-0.00055278	0	0
13.07172	-0.006026243	-0.07358171	0	0	0.04691739	-0.03437836	0	0
13.08823	-0.006026243	-0.07358171	0	0	0	0	0	0
13.10466	-0.006078872	-0.07354314	-0.003204206	0.002348332	-0.09729117	0.07130376	0	0
13.12126	-0.006184132	-0.07342742	-0.006341064	0.006970926	-0.09498496	0.1399735	0	0
13.13779	-0.006263076	-0.07333101	-0.004774691	0.005831549	0.0472746	-0.03438746	0	0
13.15436	-0.00634202	-0.07323458	-0.004765373	0.005820584	0.0002814919	-0.0003312513	0	0
13.17092	-0.007131458	-0.07257902	-0.04765331	0.03957206	-1.294435	1.01868	0	0
13.18749	-0.009183953	-0.07099859	-0.1238888	0.09539462	-2.300858	1.684777	0	0
13.20431	-0.01099956	-0.06959238	-0.107919	0.08358502	0.4782672	-0.353676	0	0
13.22083	-0.01352549	-0.06774419	-0.1529499	0.1119113	-1.350717	0.8496566	0	0
13.23719	-0.01818221	-0.06433976	-0.2846023	0.208067	-4.004394	2.924711	0	0
13.25385	-0.02149669	-0.06191876	-0.1989289	0.1453037	2.594289	-1.900543	0	0
13.27037	-0.02562597	-0.05886661	-0.2500643	0.1848343	-1.541406	1.191595	0	0
13.28689	-0.02914964	-0.05625855	-0.2132291	0.1578228	1.114929	-0.8175853	0	0
13.30346	-0.03293546	-0.05342303	-0.2284862	0.1711326	-0.4610163	0.402176	0	0
13.32003	-0.03679917	-0.05049461	-0.2332277	0.1767696	-0.1430957	0.1701189	0	0
13.33691	-0.03958457	-0.0484675	-0.164993	0.120076	2.040009	-1.694964	0	0
13.35342	-0.04050415	-0.04776025	-0.05569492	0.04283518	3.273094	-2.313092	0	0
13.36972	-0.04234309	-0.04642267	-0.1127909	0.08203971	-1.739937	1.194714	0	0
13.38832	-0.04229056	-0.04646088	0.002825354	-0.002055004	3.312995	-2.409742	0	0
13.40496	-0.04223802	-0.04649909	0.003157192	-0.002295977	0.009417989	-0.006839136	0	0
13.42147	-0.04215921	-0.04659461	0.004772827	-0.005785149	0.04873329	-0.1052459	0	0
13.43802	-0.04197533	-0.04672835	0.01111078	-0.00808081	0.191699	-0.06943509	0	0
13.45459	-0.04176517	-0.0468812	0.01268592	-0.00922672	0.04756406	-0.03460254	0	0
13.47115	-0.0417389	-0.04693852	0.001585797	-0.003460104	-0.3350218	0.1740468	0	0
13.48772	-0.04168636	-0.04697674	0.003171369	-0.002306736	0.04785541	0.03481072	0	0
13.50453	-0.04166009	-0.04699584	0.001562766	-0.001136618	-0.04819538	0.03505795	0	0
13.52085	-0.04166009	-0.04699584	0	0	-0.04716573	0.03430417	0	0
13.53755	-0.04163382	-0.04701495	0.001573208	-0.001144212	0.04764132	-0.03465007	0	0
13.5541	-0.04163382	-0.04701495	0	0	-0.04732016	0.0344165	0	0
13.57055	-0.04163382	-0.04701495	0	0	0	0	0	0
13.58712	-0.04163382	-0.04701495	0	0	0	0	0	0
13.60369	-0.04163382	-0.04701495	0	0	0	0	0	0
13.62062	-0.04163382	-0.04701495	0	0	0	0	0	0
13.63682	-0.04163382	-0.04701495	0	0	0	0	0	0
13.65338	-0.04163382	-0.04701495	0	0	0	0	0	0
13.66995	-0.04163382	-0.04701495	0	0	0	0	0	0
13.68666	-0.04163382	-0.04701495	0	0	0	0	0	0
13.70308	-0.04163382	-0.04701495	0	0	0	0	0	0
13.71965	-0.04163382	-0.04701495	0	0	0	0	0	0
13.73622	-0.04160755	-0.04703406	0.001585797	-0.001153593	0.04785944	-0.03481551	0	0
13.7532	-0.04155501	-0.04707228	0.003094112	-0.002250383	0.04496071	-0.03269373	0	0
13.76972	-0.0414762	-0.04716782	0.004771173	-0.005784272	0.05006338	-0.1054931	0	0
13.78592	-0.04142366	-0.04720604	0.003243671	-0.002359389	-0.04669005	0.1046859	0	0
13.80248	-0.04142366	-0.04720604	0	0	-0.09899399	0.07200648	0	0
13.81905	-0.04142366	-0.04720604	0	0	0	0	0	0
13.83576	-0.04142366	-0.04720604	0	0	0	0	0	0
13.85218	-0.04142366	-0.04720604	0	0	0	0	0	0
13.86878	-0.04142366	-0.04720604	0	0	0	0	0	0
13.88532	-0.04142366	-0.04720604	0	0	0	0	0	0
13.90188	-0.04144993	-0.04718693	-0.001585797	0.001153593	-0.04790632	0.03484961	0	0
13.91882	-0.04144993	-0.04718693	0	0	0.04733761	-0.0344359	0	0
13.93502	-0.04144993	-0.04718693	0	0	0	0	0	0
13.95158	-0.04144993	-0.04718693	0	0	0	0	0	0
13.96815	-0.04144993	-0.04718693	0	0	0	0	0	0
13.98471	-0.04144993	-0.04718693	0	0	0	0	0	0
14.00137	-0.04144993	-0.04718693	0	0	0	0	0	0
14.01789	-0.04144993	-0.04718693	0	0	0	0	0	0
14.03442	-0.04144993	-0.04718693	0	0	0	0	0	0
14.05099	-0.04144993	-0.04718693	0	0	0	0	0	0
14.06755	-0.04144993	-0.04718693	0	0	0	0	0	0
14.08412	-0.04142366	-0.04720604	0.001585888	-0.001153659	0.04786908	-0.03482252	0	0
14.121	-0.04142366	-0.04720604	0	0	-0.0296707	0.02158405	0	0
14.13756	-0.04142366	-0.04720604	0	0	0	0	0	0
14.15413	-0.04142366	-0.04720604	0	0	0	0	0	0
14.1707	-0.04142366	-0.04720604	0	0	0	0	0	0
14.18726	-0.04142366	-0.04720604	0	0	0	0	0	0
14.20383	-0.04142366	-0.04720604	0	0	0	0	0	0
14.2204	-0.04142366	-0.04720604	0	0	0	0	0	0
14.23697	-0.04142366	-0.04720604	0	0	0	0	0	0
14.25356	-0.04142366	-0.04720604	0	0	0	0	0	0
14.2701	-0.04142366	-0.04720604	0	0	0	0	0	0
14.28666	-0.04142366	-0.04720604	0	0	0	0	0	0
14.30323	-0.04142366	-0.04720604	0	0	0	0	0	0
14.3198	-0.04142366	-0.04720604	0	0	0	0	0	0
14.33636	-0.04142366	-0.04720604	0	0	0	0	0	0
14.35293	-0.04142366	-0.04720604	0	0	0	0	0	0
14.3695	-0.04142366	-0.04720604	0	0	0	0	0	0
14.38615	-0.04142366	-0.04720604	0	0	0	0	0	0
14.40266	-0.04142366	-0.04720604	0	0	0	0	0	0
14.4192	-0.04142366	-0.04720604	0	0	0	0	0	0
14.43618	-0.04142366	-0.04720604	0	0	0	0	0	0
14.45233	-0.04142366	-0.04720604	0	0	0	0	0	0
14.46921	-0.04142366	-0.04720604	0	0	0	0	0	0
14.48546	-0.04142366	-0.04720604	0	0	0	0	0	0
14.50203	-0.04142366	-0.04720604	0	0	0	0	0	0
14.51874	-0.04142366	-0.04720604	0	0	0	0	0	0
14.53525	-0.04142366	-0.04720604	0	0	0	0	0	0
14.618	-0.04142366	-0.04724425	0	-0.0004618761	0	-0.004653268	0	0
14.63456	-0.04142366	-0.04724425	0	0	0	0.004650766	0	0
14.65133	-0.04142366	-0.04724425	0	0	0	0	0	0
14.66785	-0.04142366	-0.04724425	0	0	0	0	0	0
14.68426	-0.04142366	-0.04724425	0	0	0	0	0	0
14.70087	-0.04142366	-0.04724425	0	0	0	0	0	0
14.7174	-0.04142366	-0.04724425	0	0	0	0	0	0
14.73396	-0.04142366	-0.04724425	0	0	0	0	0	0
14.75053	-0.04142366	-0.04724425	0	0	0	0	0	0
14.7671	-0.04139739	-0.04726337	0.001585797	-0.001153593	0.04786357	-0.03481851	0	0
14.78366	-0.04139739	-0.04726337	0	0	-0.04786219	0.03481751	0	0
14.80023	-0.04139739	-0.04726337	0	0	0	0	0	0
14.81679	-0.04139739	-0.04726337	0	0	0	0	0	0
14.8366	-0.04139739	-0.04726337	0	0	0	0	0	0
14.85317	-0.04139739	-0.04726337	0	0	0	0	0	0
14.86974	-0.04139739	-0.04726337	0	0	0	0	0	0
14.8863	-0.04139739	-0.04726337	0	0	0	0	0	0
14.90301	-0.04139739	-0.04726337	0	0	0	0	0	0
14.91953	-0.04139739	-0.04726337	0	0	0	0	0	0
14.93603	-0.04137112	-0.04728247	0.001591937	-0.001157834	0.04820709	-0.03506156	0	0
14.95257	-0.04137112	-0.04728247	0	0	-0.04818065	0.03504234	0	0
14.96956	-0.04137112	-0.04728247	0	0	0	0	0	0
14.9857	-0.04137112	-0.04728247	0	0	0	0	0	0
15.00227	-0.04137112	-0.04728247	0	0	0	0	0	0
15.01884	-0.04137112	-0.04728247	0	0	0	0	0	0
15.0356	-0.04139739	-0.04730158	-0.001567033	-0.001139943	-0.0470144	-0.03420078	0	0
15.05212	-0.04139739	-0.04730158	0	0	0.04708176	0.03424978	0	0
15.06854	-0.04139739	-0.04730158	0	0	0	0	0	0
15.0851	-0.04139739	-0.04730158	0	0	0	0	0	0
15.10167	-0.04137112	-0.04732069	0.001585797	-0.001153593	0.04786357	-0.03481851	0	0
15.11824	-0.04137112	-0.04732069	0	0	-0.04786219	0.03481751	0	0
15.1348	-0.04137112	-0.04732069	0	0	0	0	0	0
15.15169	-0.04137112	-0.04732069	0	0	0	0	0	0
15.16794	-0.04139739	-0.04730158	-0.001616696	0.00117607	-0.04879056	0.03549285	0	0
15.18471	-0.04137112	-0.04732069	0.001566587	-0.001139619	0.09640742	-0.07013188	0	0
15.20107	-0.04137112	-0.04732069	0	0	-0.04728379	0.03439675	0	0
15.21764	-0.04137112	-0.04732069	0	0	0	0	0	0
15.23424	-0.04137112	-0.04732069	0	0	0	0	0	0
15.25077	-0.04137112	-0.04732069	0	0	0	0	0	0
15.26734	-0.04137112	-0.04732069	0	0	0	0	0	0
15.2839	-0.04137112	-0.04732069	0	0	0	0	0	0
15.30047	-0.04137112	-0.04732069	0	0	0	0	0	0
15.3173	-0.04137112	-0.04732069	0	0	0	0	0	0
15.41687	-0.04137112	-0.04732069	0	0	0	0	0	0
15.433	-0.04137112	-0.04732069	0	0	0	0	0	0
15.44957	-0.04139739	-0.04730158	-0.001585705	0.001153526	-0.04849455	0.03527752	0	0
15.46614	-0.04139739	-0.04730158	0	0	0.04785668	-0.0348135	0	0
15.48292	-0.04139739	-0.04730158	0	0	0	0	0	0
15.49927	-0.04139739	-0.04730158	0	0	0	0	0	0
15.51594	-0.04139739	-0.04730158	0	0	0	0	0	0
15.53245	-0.04137112	-0.04732069	0.001591017	-0.001157391	0.04794524	-0.03487792	0	0
15.54897	-0.04139739	-0.04730158	-0.001590558	0.001157057	-0.09632788	0.07007403	0	0
15.56554	-0.04139739	-0.04730158	0	0	0.04807509	-0.03497238	0	0
15.58249	-0.04139739	-0.04730158	0	0	0	0	0	0
15.599	-0.04139739	-0.04730158	0	0	0	0	0	0
15.61552	-0.04139739	-0.04730158	0	0	0	0	0	0
15.63202	-0.04139739	-0.04730158	0	0	0	0	0	0
15.64837	-0.04139739	-0.04730158	0	0	0	0	0	0
15.66494	-0.04137112	-0.04732069	0.001585614	-0.00115346	0.04817283	-0.03504348	0	0
15.68156	-0.04137112	-0.04732069	0	0	-0.04777418	0.03475348	0	0
15.69807	-0.04137112	-0.04732069	0	0	0	0	0	0
15.73359	-0.04137112	-0.04732069	0	0	0	0	0	0
15.75011	-0.04137112	-0.04732069	0	0	0	0	0	0
15.76662	-0.04137112	-0.04732069	0	0	0	0	0	0
15.78314	-0.04137112	-0.04732069	0	0	0	0	0	0
15.7997	-0.04139739	-0.04730158	-0.001585888	0.001153659	-0.04794084	0.03487472	0	0
15.81627	-0.04137112	-0.04732069	0.001585797	-0.001153593	0.0957299	-0.06963903	0	0
15.83283	-0.04137112	-0.04732069	0	0	-0.04786219	0.03481751	0	0
15.8494	-0.04137112	-0.04732069	0	0	0	0	0	0
15.86619	-0.04137112	-0.04732069	0	0	0	0	0	0
15.8827	-0.04137112	-0.04732069	0	0	0	0	0	0
15.89921	-0.04137112	-0.04732069	0	0	0	0	0	0
15.91572	-0.04137112	-0.04732069	0	0	0	0	0	0
15.93224	-0.04137112	-0.04732069	0	0	0	0	0	0
15.9488	-0.04137112	-0.04732069	0	0	0	0	0	0
15.96537	-0.04137112	-0.04732069	0	0	0	0	0	0
15.98194	-0.04137112	-0.04732069	0	0	0	0	0	0
15.9985	-0.04139739	-0.04730158	-0.001585797	0.001153593	-0.04786219	0.03481751	0	0
16.01508	-0.04139739	-0.04730158	0	0	0.04784567	-0.03480549	0	0
16.03163	-0.04139739	-0.04730158	0	0	0	0	0	0
16.0482	-0.04139739	-0.04730158	0	0	0	0	0	0
16.06477	-0.04139739	-0.04730158	0	0	0	0	0	0
16.08133	-0.04139739	-0.04730158	0	0	0	0	0	0
16.1476	-0.04139739	-0.04730158	0	0	0	0	0	0
16.1644	-0.04139739	-0.04730158	0	0	0	0	0	0
16.18073	-0.04139739	-0.0473398	0	-0.002339964	0	-0.07062838	0	0
16.1973	-0.0414762	-0.04739713	-0.004757664	-0.003460978	-0.1446189	-0.0340755	0	0
16.21394	-0.04142366	-0.04747358	0.003158321	-0.004595061	0.2384245	-0.03415788	0	0
16.23045	-0.04126604	-0.04762647	0.009547208	-0.009260421	0.1927504	-0.1407522	0	0
16.247	-0.04123976	-0.04760735	0.001586802	0.001154549	-0.2407444	0.3149771	0	0
16.26357	-0.04126604	-0.04758824	-0.001585705	0.001153526	-0.09577953	-3.086553E-05	0	0
16.2967	-0.04126604	-0.04755002	0	0.001153593	0.03190568	1.337494E-06	0	0
16.31327	-0.04123976	-0.04749269	0.001585705	0.00346058	0.03190568	0.04641844	0	0
16.32984	-0.04123976	-0.04749269	0	0	-0.04785668	-0.1044405	0	0
16.3464	-0.04123976	-0.04749269	0	0	0	0	0	0
16.36304	-0.04121349	-0.0475118	0.001579203	-0.001148634	0.04755916	-0.03459216	0	0
16.37955	-0.04121349	-0.04755002	0	-0.002314514	-0.04763577	-0.03516812	0	0
16.3961	-0.04121349	-0.04755002	0	0	0	0.07000531	0	0
16.41267	-0.04123976	-0.04756913	-0.00158593	-0.001153526	-0.04789104	-0.03483355	0	0
16.42924	-0.04123976	-0.04760735	0	-0.002307053	0.04786347	-0.0348135	0	0
16.4458	-0.04118722	-0.0476838	0.003171636	-0.004614331	0.09572016	-0.06963378	0	0
16.49508	-0.03432861	-0.05298262	0.1392027	-0.1075453	2.066153	-1.563401	0	0
16.51167	-0.02296964	-0.06145785	0.6842895	-0.5105664	8.275154	-6.118405	0	0
16.52866	-0.01823482	-0.0649934	0.2787347	-0.2081346	-12.07493	9.004562	0	0
16.54478	-0.008552423	-0.0726947	0.6008244	-0.4778908	9.730207	-8.149233	0	0
16.58132	-0.009420774	-0.1061579	-0.02376128	-0.9156753	-11.86072	-8.313419	0	0
16.59821	-0.01347287	-0.1252437	-0.239917	-1.130034	-4.045256	-4.011629	0	0
16.61445	-0.01657743	-0.1385765	-0.1911548	-0.8209346	1.471815	9.329719	0	0
16.63102	-0.02323266	-0.1656471	-0.4017107	-1.633981	-6.417761	-24.78172	0	0
16.64759	-0.02917593	-0.1844506	-0.3587364	-1.134986	1.296966	15.05971	0	0
16.66415	-0.03989987	-0.206185	-0.6472982	-1.31189	-8.708811	-5.33899	0	0
16.68072	-0.05064088	-0.2192465	-0.6483287	-0.7883915	-0.03110069	15.79922	0	0
16.69729	-0.06430595	-0.2294624	-0.8248252	-0.6166371	-5.326675	5.18356	0	0
16.71386	-0.08147712	-0.2429428	-1.036454	-0.8136728	-6.386973	-5.946552	0	0
16.73042	-0.09737527	-0.2556587	-0.959614	-0.7675372	2.319039	1.392377	0	0
16.74699	-0.1050852	-0.2618489	-0.4653699	-0.3736382	14.91632	11.88789	0	0
16.76356	-0.119377	-0.273404	-0.8626598	-0.6974711	-11.99023	-9.773296	0	0
16.84639	-0.1668808	-0.3124835	-0.5734792	-0.471779	2.909218	2.270511	0	0
16.86296	-0.1755173	-0.3196453	-0.5212413	-0.4322407	0.5255146	0.3977563	0	0
16.88042	-0.1815574	-0.3246024	-0.3459803	-0.2839421	5.15063	4.358251	0	0
16.89609	-0.1859326	-0.328248	-0.2791272	-0.2325821	2.017748	1.550137	0	0
16.91266	-0.189057	-0.3308785	-0.18861	-0.1587939	2.807611	2.288721	0	0
16.92945	-0.1901484	-0.3317272	-0.06498527	-0.05053592	3.705831	3.245189	0	0
16.94579	-0.1901991	-0.3316837	-0.003106032	0.002664658	1.867519	1.605597	0	0
16.96248	-0.190326	-0.3315748	-0.007604393	0.006523665	-0.1362156	0.1168552	0	0
16.97899	-0.1905036	-0.3314225	-0.01075719	0.009226637	-0.09497669	0.08142587	0	0
16.9955	-0.1905797	-0.3313572	-0.004609709	0.003952726	0.1861529	-0.1597001	0	0
17.01206	-0.1906051	-0.3313355	-0.001531545	0.001313781	0.09307597	-0.07979509	0	0
17.02863	-0.1906305	-0.3313137	-0.001531739	0.001314975	-5.858222E-06	3.603843E-05	0	0
17.04519	-0.1906812	-0.3312702	-0.003062579	0.002626353	-0.04620084	0.03957745	0	0
17.06176	-0.1907319	-0.3312266	-0.003062227	0.00262605	1.063803E-05	-9.120316E-06	0	0
17.07833	-0.1909095	-0.3311178	-0.01072195	0.006569193	-0.2311841	0.1190111	0	0
17.09489	-0.1909856	-0.3310526	-0.004593419	0.003939529	0.1849806	-0.07937256	0	0
17.1446	-0.1949906	-0.3277485	-0.08057956	0.06647851	-1.146633	0.943715	0	0
17.16116	-0.1953198	-0.3276399	-0.01987304	0.006555089	0.9160633	-0.9042462	0	0
17.17813	-0.1958009	-0.327705	-0.02835225	-0.003839075	-0.2528324	-0.3099321	0	0
17.1943	-0.1973703	-0.3267932	-0.09708333	0.05640855	-2.074308	1.818277	0	0
17.21087	-0.2066141	-0.3235405	-0.5579597	0.1963307	-14.08029	4.274779	0	0
17.22743	-0.2201619	-0.3238655	-0.8178433	-0.01961895	-7.843754	-6.517748	0	0
17.24418	-0.2404907	-0.3253179	-1.21377	-0.08671599	-11.88479	-2.014094	0	0
17.26056	-0.2582833	-0.3255348	-1.085841	-0.01323696	3.860911	2.217602	0	0
17.2772	-0.2624359	-0.3256432	-0.2495898	-0.006518328	25.32266	0.2034481	0	0
17.29371	-0.2760077	-0.3252745	-0.821936	0.02233019	-17.26549	0.8702494	0	0
17.31027	-0.2816262	-0.3234755	-0.3394449	0.1086872	14.59269	2.611822	0	0
17.3434	-0.2837618	-0.3215702	-0.0644601	0.05750936	5.53483	-1.030096	0	0
17.36026	-0.283592	-0.3217217	0.01006736	-0.008982343	1.490686	-1.329956	0	0
17.37653	-0.2828884	-0.3222628	0.04324767	-0.03326335	1.001441	-0.7328445	0	0
17.39592	-0.281359	-0.3235405	0.07887505	-0.0658952	0.9991446	-0.915137	0	0
17.41249	-0.2801929	-0.3245374	0.07038175	-0.06016174	-0.2361925	0.1594434	0	0
17.42905	-0.2787341	-0.3258384	0.08806491	-0.07854239	0.5336789	-0.5547292	0	0
17.44562	-0.2787584	-0.3258168	-0.001467879	0.001309579	-2.70226	2.410076	0	0
17.46219	-0.2787341	-0.3257951	0.001467879	0.001309579	0.08860137	0	0	0
17.47876	-0.2787341	-0.3257951	0	0	-0.04429814	-0.03952089	0	0
17.49536	-0.2786854	-0.3257517	0.002930024	0.002612246	0.08833677	0.07875613	0	0
17.51189	-0.2786368	-0.3257517	0.002943658	0	0.0004114875	-0.07884227	0	0
17.52888	-0.2786124	-0.32573	0.001431298	0.001276942	-0.04511335	0.03809088	0	0
17.54502	-0.2786124	-0.32573	0	0	-0.04319914	-0.03854041	0	0
17.56159	-0.2785881	-0.3257083	0.001467879	0.001309579	0.04487676	0.04003711	0	0
17.57816	-0.2785881	-0.3257083	0	0	-0.04430069	-0.03952316	0	0
17.59472	-0.2786124	-0.3256866	-0.001467879	0.001309579	-0.04430069	0.03952316	0	0
17.61129	-0.2786124	-0.3256866	0	0	0.04430069	-0.03952316	0	0
17.62795	-0.2786124	-0.3256866	0	0	0	0	0	0
17.64447	-0.2785881	-0.3257083	0.001472626	-0.001313814	0.04439029	-0.03960311	0	0
17.66099	-0.2785881	-0.3257083	0	0	-0.04457224	0.03976543	0	0
17.67799	-0.2785881	-0.3257083	0	0	0	0	0	0
17.69412	-0.2786124	-0.3256866	-0.001507092	0.001344563	-0.04548675	0.04058132	0	0
17.71101	-0.2786124	-0.3256866	0	0	0.04563386	-0.04071257	0	0
17.72753	-0.2785881	-0.3257083	0.001472626	-0.001313814	0.04408613	-0.03933175	0	0
17.74382	-0.2785881	-0.3257083	0	0	-0.04488318	0.04004283	0	0
17.76039	-0.2785881	-0.3257083	0	0	0	0	0	0
17.77696	-0.2785881	-0.3257083	0	0	0	0	0	0
17.79357	-0.2785881	-0.3257083	0	0	0	0	0	0
17.81009	-0.2785881	-0.3257083	0	0	0	0	0	0
17.82666	-0.2785881	-0.3257083	0	0	0	0	0	0
17.84323	-0.2785881	-0.3257083	0	0	0	0	0	0
17.85979	-0.2785881	-0.3257083	0	0	0	0	0	0
17.87663	-0.2785638	-0.3256866	0.001444268	0.001288514	0.0432347	0.03857213	0	0
17.89314	-0.2785638	-0.3256866	0	0	-0.04330641	-0.03863611	0	0
17.90965	-0.2785638	-0.3256866	0	0	0	0	0	0
17.92617	-0.2785638	-0.3256432	0	0.00262552	0	0.07949919	0	0
17.94263	-0.2784665	-0.3255565	0.005912798	0.005273528	0.179326	0.08031	0	0
17.95919	-0.2783448	-0.325448	0.007342995	0.006544295	0.043308	0.03848031	0	0
18.04202	-0.2679013	-0.3161902	0.1260805	0.1117658	1.194547	1.058571	0	0
18.05859	-0.2595375	-0.3088489	0.5047845	0.4430687	3.809843	3.332977	0	0
18.07527	-0.2510869	-0.301495	0.5067518	0.4409921	0.05917778	-0.06246235	0	0
18.09172	-0.2424508	-0.294043	0.524843	0.4528787	0.5460546	0.3587795	0	0
18.1083	-0.2292902	-0.2828051	0.7941917	0.6781642	8.155722	6.821512	0	0
18.12486	-0.2192596	-0.2743315	0.6056572	0.5116463	-5.69031	-5.025808	0	0
18.14142	-0.2097882	-0.2663996	0.5716922	0.4787715	-1.025243	-0.9923355	0	0
18.15799	-0.198888	-0.2573507	0.6579365	0.5461915	2.602856	2.034738	0	0
18.17684	-0.1883714	-0.2486974	0.5578429	0.4590041	-2.825949	-2.461565	0	0
18.19341	-0.1795964	-0.2415326	0.5296607	0.4324704	-0.7956684	-0.74913	0	0
18.20998	-0.1668552	-0.2312148	0.7690653	0.6227856	7.225246	5.743725	0	0
18.22655	-0.1634754	-0.2284942	0.2040038	0.1642154	-17.05359	-13.83968	0	0
18.24311	-0.1477831	-0.2159479	0.9471887	0.7572953	22.42937	17.89919	0	0
18.25968	-0.1299219	-0.2018287	1.078102	0.8522344	3.950984	2.865266	0	0
18.27625	-0.1158474	-0.1908146	0.8495406	0.6648126	-6.898011	-5.656399	0	0
18.29281	-0.0967757	-0.1760339	1.151169	0.8921666	9.103166	6.861557	0	0
18.30938	-0.082967	-0.165427	0.8334946	0.6402329	-9.587434	-7.603376	0	0
18.32595	-0.07417943	-0.1587154	0.5304185	0.4051131	-9.146856	-7.095929	0	0
18.34252	-0.05489217	-0.1440809	1.164182	0.8833423	19.12701	14.43299	0	0
18.35908	-0.04809446	-0.1389523	0.4103575	0.3095954	-22.75177	-17.31671	0	0
18.37565	-0.03890142	-0.1319602	0.5548933	0.4220459	4.362348	3.393959	0	0
18.3925	-0.02796639	-0.1236116	0.6490551	0.4955343	2.817964	2.199275	0	0
18.40878	-0.01776129	-0.115722	0.6266587	0.4844743	-0.6759614	-0.3338125	0	0
18.42535	-0.01131531	-0.1106128	0.3890803	0.3083927	-7.23174	-5.359814	0	0
18.44204	-0.002684204	-0.1034652	0.5172229	0.4283199	3.853377	3.606332	0	0
18.45848	0.00449997	-0.09760176	0.4368058	0.3565048	-2.426995	-2.167386	0	0
18.47506	0.008841875	-0.09392674	0.2619874	0.2217486	-5.294313	-4.081045	0	0
18.49162	0.01644589	-0.08649499	0.4591905	0.4487877	5.951942	6.852449	0	0
18.50818	0.020918	-0.08030137	0.2699373	0.3738474	-5.712987	-2.262225	0	0
18.52475	0.02851858	-0.07360099	0.458772	0.4044358	5.699041	0.9231621	0	0
18.54132	0.03566908	-0.06836012	0.4315551	0.3163033	-0.8213617	-2.659693	0	0
18.55812	0.0374036	-0.06708992	0.1032575	0.07561634	-9.838943	-7.213289	0	0
18.57463	0.04026769	-0.06495494	0.1734563	0.1292988	2.107444	1.611606	0	0
18.59102	0.05037839	-0.0556069	0.6169595	0.5704223	13.4804	13.40807	0	0
18.60765	0.05045713	-0.05367198	0.004733993	0.116323	-18.53997	-13.75145	0	0
18.62417	0.04812072	-0.04462745	-0.1414171	0.5474418	-4.408058	13.00296	0	0
18.64072	0.04360392	-0.03886712	-0.27298	0.3481349	-3.978592	-6.027238	0	0
18.65728	0.03632612	-0.0336694	-0.4393398	0.3137713	-5.024219	-1.037813	0	0
18.67385	0.03177877	-0.0304562	-0.2744784	0.1939492	4.975814	-3.616446	0	0
18.69043	0.03162104	-0.03034218	-0.009514406	0.006877283	7.993868	-5.643891	0	0
18.70698	0.03159475	-0.03036118	-0.00158811	-0.001147931	0.2392299	-0.2422154	0	0
18.72355	0.03159475	-0.03036118	0	0	0.04794856	0.03465858	0	0
18.74012	0.03156846	-0.03038019	-0.00158683	-0.001147006	-0.04789062	-0.0346167	0	0
18.75669	0.03154217	-0.03039919	-0.00158683	-0.001147006	0	0	0	0
18.77327	0.03148959	-0.03043719	-0.003170375	-0.002291637	-0.04776673	-0.03452715	0	0
18.78982	0.03135814	-0.03057022	-0.007943518	-0.008038519	-0.1440621	-0.1734512	0	0
18.80639	0.03130556	-0.03068424	-0.00317366	-0.006882596	0.1440375	0.03490592	0	0
18.82633	0.03122669	-0.03070325	-0.003953967	-0.0009527507	-0.02136992	0.162398	0	0
18.8429	0.03122669	-0.03070325	0	0	0.1082855	0.02609255	0	0
18.85983	0.0312004	-0.03068424	-0.001552797	0.001122436	-0.04635386	0.0335068	0	0
18.87634	0.03114782	-0.03064623	-0.003184036	0.002301656	-0.04877325	0.03525809	0	0
18.8926	0.03114782	-0.03064623	0	0	0.09716267	-0.07023633	0	0
18.90917	0.03109524	-0.03060823	-0.003173772	0.002294124	-0.09669188	0.06989259	0	0
18.92588	0.03109524	-0.03060823	0	0	0.09537288	-0.06893916	0	0
18.9423	0.03104266	-0.03060823	-0.003201787	0	-0.09663568	0	0	0
18.9589	0.03030651	-0.03007616	-0.04434215	0.03204918	-1.245778	0.9704863	0	0
18.97543	0.02538928	-0.02652506	-0.297455	0.2148145	-7.639402	5.516184	0	0
18.992	0.01739298	-0.0207229	-0.4826574	0.3502191	-5.595538	4.090994	0	0
19.00857	0.0081314	-0.01406168	-0.5590303	0.4020721	-2.304939	1.564929	0	0
19.02545	0.002078944	-0.00971665	-0.3585165	0.2573775	5.994581	-4.325806	0	0
19.0417	-0.01157843	6.680187E-05	-0.8404222	0.6020359	-14.54478	10.40241	0	0
19.05848	-0.01610387	0.003302741	-0.2697709	0.192901	17.27899	-12.38837	0	0
19.07498	-0.02149669	0.007155469	-0.3267148	0.233411	-1.710987	1.217201	0	0
19.09149	-0.02509999	0.009690246	-0.2182243	0.153512	3.285786	-2.419855	0	0
19.108	-0.02686196	0.01094755	-0.1067212	0.07615405	3.37664	-2.342623	0	0
19.12453	-0.02686196	0.01094755	0	0	3.230148	-2.304968	0	0
19.1411	-0.02686196	0.01091002	0	-0.002265004	0	-0.06843676	0	0
19.15767	-0.02691455	0.01083497	-0.003174559	-0.004530065	-0.09580838	-0.06835966	0	0
19.17423	-0.02694085	0.01077869	-0.001587462	-0.00339801	0.04790143	0.03416744	0	0
19.1908	-0.02696715	0.01075992	-0.001587279	-0.001132558	5.516389E-06	0.06837541	0	0
19.20737	-0.02701974	0.01075992	-0.003174559	0	-0.04790419	0.03418068	0	0
19.22409	-0.02707233	0.0107224	-0.003145476	-0.002244445	0.0008737064	-0.06742698	0	0
19.2406	-0.0272827	0.01057228	-0.0127376	-0.009089001	-0.2886105	-0.2059408	0	0
19.25711	-0.0273353	0.01053475	-0.003185193	-0.002272874	0.2892247	0.2063764	0	0
19.27412	-0.02757196	0.01036587	-0.01391489	-0.009929846	-0.3201009	-0.2284317	0	0
19.2902	-0.02925481	0.00916467	-0.1046866	-0.07472406	-2.743761	-1.958537	0	0
19.30676	-0.03112153	0.007869152	-0.1126754	-0.07819758	-0.2447357	-0.1064112	0	0
19.32333	-0.03106895	0.007906711	0.003174137	0.002267289	3.496547	2.428574	0	0
19.3399	-0.03106895	0.007906711	0	0	-0.09580117	-0.06843086	0	0
19.35646	-0.03106895	0.007906711	0	0	0	0	0	0
19.37303	-0.03106895	0.007906711	0	0	0	0	0	0
19.3896	-0.03104266	0.007887932	0.001586942	-0.001133514	0.04789401	-0.03420952	0	0
19.40617	-0.03104266	0.007887932	0	0	-0.04789401	0.03420952	0	0
19.42273	-0.03104266	0.007887932	0	0	0	0	0	0
19.4393	-0.03101637	0.007869152	0.00158683	-0.001133514	0.04789062	-0.03420952	0	0
19.45587	-0.03101637	0.007869152	0	0	-0.04789062	0.03420952	0	0
19.47243	-0.03099008	0.007850373	0.001586942	-0.001133514	0.04789401	-0.03420952	0	0
19.49216	-0.03096378	0.007831594	0.001332577	-0.0009518274	-0.007007904	0.005005577	0	0
19.50873	-0.03096378	0.007831594	0	0	-0.03671331	0.02622342	0	0
19.5253	-0.03093749	0.007812814	0.001586647	-0.00113344	0.04788235	-0.03420531	0	0
19.54186	-0.0309112	0.007794035	0.001587308	-0.001133775	1.99363E-05	-1.011924E-05	0	0
19.55843	-0.0309112	0.007794035	0	0	-0.04791056	0.03422134	0	0
19.575	-0.03085862	0.007756475	0.003173772	-0.002267084	0.09578463	-0.06842074	0	0
19.59185	-0.03085862	0.007756475	0	0	-0.09497549	0.06784276	0	0
19.60813	-0.03085862	0.007756475	0	0	0	0	0	0
19.62487	-0.03085862	0.007756475	0	0	0	0	0	0
19.64138	-0.03085862	0.007756475	0	0	0	0	0	0
19.65783	-0.03088491	0.007737695	-0.001598423	-0.001141852	-0.04849735	-0.03464464	0	0
19.6744	-0.03088491	0.007737695	0	0	0.0484133	0.0345846	0	0
19.69142	-0.03088491	0.007737695	0	0	0	0	0	0
19.70753	-0.03085862	0.007718916	0.001631534	-0.001165477	0.04924264	-0.03517618	0	0
19.72444	-0.03083233	0.007662575	0.001554724	-0.003331696	-0.002325921	-0.06559564	0	0
19.74096	-0.03077975	0.007587453	0.003184516	-0.004549555	0.04876339	-0.03643833	0	0
19.75723	-0.03083233	0.007549891	-0.003230415	-0.002307607	-0.1956414	0.06837454	0	0
19.77398	-0.03088491	0.007512329	-0.003138721	-0.002242213	0.002776128	0.001979841	0	0
19.79037	-0.03093749	0.007474767	-0.003209729	-0.002292887	-0.002143032	-0.001529322	0	0
19.80693	-0.03096378	0.007455985	-0.001587012	-0.001133785	0.04925152	0.03518021	0	0
19.82351	-0.03099008	0.007437204	-0.001585664	-0.001132742	4.067137E-05	3.147992E-05	0	0
19.84007	-0.03109524	0.007362077	-0.006353396	-0.004538855	-0.1438987	-0.1028026	0	0
19.85663	-0.03122669	0.007268166	-0.007934486	-0.00566847	-0.04773938	-0.03410754	0	0
19.90633	-0.04231683	-0.0006673645	-0.2231426	-0.1596693	-3.24759	-2.323944	0	0
19.92308	-0.04945963	-0.00575452	-0.4264273	-0.3037047	-3.059208	-2.167571	0	0
19.93959	-0.05817114	-0.01202068	-0.5275892	-0.379493	-3.041342	-2.278509	0	0
19.95611	-0.06375558	-0.01604724	-0.3382067	-0.2438578	5.734722	4.107192	0	0
19.9726	-0.06941461	-0.0201357	-0.3430806	-0.2478644	-0.1476633	-0.121387	0	0
19.98917	-0.07192833	-0.02191659	-0.151746	-0.1075071	5.787482	4.245522	0	0
20.00573	-0.07431029	-0.02367952	-0.1437753	-0.1064109	0.2405711	0.03308541	0	0
20.02265	-0.07431029	-0.0236416	0	0.002241217	4.293424	3.244575	0	0
20.03887	-0.07431029	-0.0236416	0	0	0	-0.06764007	0	0
20.05544	-0.07423177	-0.02358472	0.004738582	0.003433089	0.1445417	0.10472	0	0
20.07219	-0.07410092	-0.02348991	0.007810276	0.005658593	0.09217861	0.06678524	0	0
20.0887	-0.0740224	-0.02339511	0.004756004	0.005742043	-0.09181873	0.002508727	0	0
20.10513	-0.07394388	-0.02337615	0.004778185	0.001153851	0.0006733481	-0.1392817	0	0
20.12172	-0.07391771	-0.02335719	0.00157768	0.001142841	-0.09692061	-0.0003334318	0	0
20.13827	-0.07391771	-0.02335719	0	0	-0.0476172	-0.03449299	0	0
20.15483	-0.07386537	-0.02335719	0.003159269	0	0.09541832	0	0	0
20.17176	-0.0738392	-0.02333823	0.001546215	0.001120048	-0.04815812	0.03343932	0	0
20.18797	-0.07365599	-0.02320552	0.01130454	0.008188781	0.2945069	0.2133348	0	0
20.20453	-0.07336807	-0.02295906	0.01738045	0.01487771	0.1853991	0.2041045	0	0
20.23937	-0.07318485	-0.02282637	0.005259376	0.003809048	-0.2358046	-0.2153308	0	0
20.25594	-0.0731325	-0.02278845	0.003159718	0.00228839	-0.04084544	-0.02958195	0	0
20.2725	-0.07310633	-0.0227695	0.001579859	0.001144195	-0.04768024	-0.03453187	0	0
20.28934	-0.07289692	-0.02261785	0.01243505	0.009005081	0.3249356	0.2353051	0	0
20.30564	-0.07268751	-0.02246621	0.01285331	0.009307182	0.0126238	0.009117966	0	0
20.3222	-0.07237338	-0.02223877	0.01896101	0.01372854	0.1858714	0.1345522	0	0
20.33877	-0.07140471	-0.02153759	0.05846873	0.04232329	1.192345	0.8629913	0	0
20.35534	-0.0692051	-0.0199463	0.1327689	0.09605042	2.242383	1.621488	0	0
20.37191	-0.06527555	-0.0171067	0.237188	0.1713984	3.151375	2.274007	0	0
20.38847	-0.05759413	-0.01160508	0.4636515	0.332079	6.834684	4.849349	0	0
20.40504	-0.05184823	-0.007470853	0.3468633	0.2495709	-3.524879	-2.490241	0	0
20.42161	-0.04783191	-0.004623363	0.2424254	0.1718748	-3.152124	-2.345008	0	0
20.43845	-0.04047788	0.0006502547	0.4366511	0.3131251	5.813552	4.227896	0	0
20.45496	-0.03574792	0.004036037	0.286424	0.2050272	-4.503787	-3.240761	0	0
20.47131	-0.0314633	0.007061552	0.2621516	0.1851139	-0.7387096	-0.6060427	0	0
20.52072	-0.02749307	0.009633938	0.08034364	0.05205617	-2.764734	-2.023394	0	0
20.53729	-0.0273353	0.00952132	0.00952334	-0.006797655	-1.073314	-0.8919568	0	0
20.55386	-0.02725641	0.009465009	0.004761726	-0.003398912	-0.1437058	0.1025743	0	0
20.57055	-0.02704603	0.009314843	0.01260236	-0.008995712	0.2357353	-0.1682725	0	0
20.58699	-0.02699344	0.009239757	0.003198381	-0.004566373	-0.2837964	0.13367	0	0
20.60357	-0.02699344	0.009239757	0	0	-0.09686188	0.138291	0	0
20.62012	-0.02694085	0.009014489	0.003177119	-0.01360813	0.09589669	-0.4107415	0	0
20.63709	-0.02688826	0.008939398	0.00309962	-0.004425543	-0.002311925	0.2739301	0	0
20.65326	-0.02575746	0.007794035	0.069946	-0.07084709	2.017428	-2.004606	0	0
20.66982	-0.02307485	0.005765234	0.1619226	-0.1224587	2.809827	-1.5767	0	0
20.68641	-0.01691944	0.001252422	0.3711995	-0.2721432	6.313083	-4.515409	0	0
20.70314	-0.01218361	-0.002286869	0.2830528	-0.2115376	-2.645958	1.819239	0	0
20.71953	-0.007341973	-0.00590537	0.2954389	-0.2208027	0.373985	-0.2797522	0	0
20.73616	-0.004052609	-0.008716229	0.1977043	-0.1689441	-2.959346	1.570248	0	0
20.75268	-0.003657878	-0.009339097	0.02390305	-0.03771795	-5.242615	3.958363	0	0
20.76923	-0.004342078	-0.01013201	-0.04134596	-0.04791544	-1.973536	-0.3084356	0	0
20.80236	-0.004342078	-0.01013201	0	0	0.8321697	0.9643937	0	0
20.81893	-0.004368393	-0.01011313	-0.00158877	0.001139904	-0.03196733	0.02293579	0	0
20.83574	-0.004368393	-0.01011313	0	0	0.04759845	-0.03415074	0	0
20.85225	-0.004368393	-0.01011313	0	0	0	0	0	0
20.86863	-0.004394709	-0.01013201	-0.001606529	-0.001152646	-0.04885355	-0.03505125	0	0
20.88527	-0.004394709	-0.01013201	0	0	0.04865038	0.03490548	0	0
20.90178	-0.004421024	-0.01015089	-0.001593697	-0.001143516	-0.04807018	-0.03449151	0	0
20.91837	-0.004447339	-0.01016977	-0.001586212	-0.001138069	0.0002260956	0.0001645329	0	0
20.93489	-0.004473655	-0.01015089	-0.001592805	0.001142799	-0.0001990991	0.06888432	0	0
20.95146	-0.004473655	-0.01015089	0	0	0.04813745	-0.03453746	0	0
20.96833	-0.004473655	-0.01015089	0	0	0	0	0	0
21.00379	-0.004473655	-0.01015089	0	0	0	0	0	0
21.02036	-0.00449997	-0.01016977	-0.001588559	-0.001139773	-0.03053014	-0.02190503	0	0
21.03693	-0.00449997	-0.01016977	0	0	0.04794555	0.03440039	0	0
21.05389	-0.00449997	-0.01016977	0	0	0	0	0	0
21.07006	-0.004526285	-0.01018865	-0.001627566	-0.001167797	-0.04912003	-0.03524418	0	0
21.08663	-0.0045526	-0.01016977	-0.001588559	0.001139829	0.001191644	0.07049648	0	0
21.10319	-0.0045526	-0.01016977	0	0	0.04794555	-0.03440209	0	0
21.11993	-0.0045526	-0.01016977	0	0	0	0	0	0
21.13644	-0.004578915	-0.01018865	-0.001593909	-0.001143648	-0.04793869	-0.03439656	0	0
21.15295	-0.004578915	-0.01018865	0	0	0.0482682	0.03463298	0	0
21.16946	-0.004578915	-0.01018865	0	0	0	0	0	0
21.18602	-0.00460523	-0.01020753	-0.001589107	-0.001140223	-0.04805341	-0.03447947	0	0
21.20259	-0.004657861	-0.0102453	-0.003176779	-0.002279395	-0.04792707	-0.03438822	0	0
21.21916	-0.004684176	-0.01026418	-0.001588587	-0.001139885	0.04793452	0.03439247	0	0
21.23572	-0.004710491	-0.01028306	-0.001588376	-0.001139698	6.366686E-06	5.656934E-06	0	0
21.25229	-0.004736807	-0.01030194	-0.001588404	-0.001139754	-8.467346E-07	-1.693469E-06	0	0
21.26886	-0.004736807	-0.01030194	0	0	0.04793812	0.03439784	0	0
21.28543	-0.004789437	-0.01030194	-0.003176779	0	-0.0958754	0	0	0
21.30199	-0.004789437	-0.01030194	0	0	0.0958754	0	0	0
21.31907	-0.004789437	-0.01030194	0	0	0	0	0	0
21.33512	-0.004789437	-0.01030194	0	0	0	0	0	0
21.35169	-0.004789437	-0.01030194	0	0	0	0	0	0
21.36826	-0.004789437	-0.01030194	0	0	0	0	0	0
21.38482	-0.004789437	-0.01030194	0	0	0	0	0	0
21.40139	-0.004789437	-0.01030194	0	0	0	0	0	0
21.41796	-0.004789437	-0.01030194	0	0	0	0	0	0
21.43465	-0.004789437	-0.01030194	0	0	0	0	0	0
21.45109	-0.004789437	-0.01030194	0	0	0	0	0	0
21.46768	-0.004789437	-0.01030194	0	0	0	0	0	0
21.48423	-0.004789437	-0.01030194	0	0	0	0	0	0
21.50079	-0.004815752	-0.01028306	-0.001588376	0.001139754	-0.04796488	0.03441765	0	0
21.51736	-0.004815752	-0.01028306	0	0	0.04793727	-0.03439784	0	0
21.53423	-0.004842068	-0.01026418	-0.001560203	0.001119463	-0.04666528	0.03348287	0	0
21.5505	-0.004842068	-0.01026418	0	0	0.04708702	-0.03378547	0	0
21.56706	-0.004842068	-0.01026418	0	0	0	0	0	0
21.58376	-0.004842068	-0.01026418	0	0	0	0	0	0
21.60027	-0.004842068	-0.01026418	0	0	0	0	0	0
21.61679	-0.004842068	-0.01026418	0	0	0	0	0	0
21.63333	-0.004842068	-0.01026418	0	0	0	0	0	0
21.64989	-0.004842068	-0.01026418	0	0	0	0	0	0
21.68475	-0.004842068	-0.01026418	0	0	0	0	0	0
21.70134	-0.004842068	-0.01026418	0	0	0	0	0	0
21.71789	-0.004842068	-0.01026418	0	0	0	0	0	0
21.73487	-0.004868383	-0.01028306	-0.001550183	-0.001112294	-0.04624161	-0.03317946	0	0
21.75102	-0.004842068	-0.01030194	0.001629074	-0.001168958	0.09596676	-0.001710418	0	0
21.76789	-0.004842068	-0.01030194	0	0	-0.04933026	0.0353974	0	0
21.78441	-0.004868383	-0.01032083	-0.001593144	-0.001143119	-0.04771588	-0.03423729	0	0
21.80092	-0.004894698	-0.01033971	-0.001594065	-0.001143836	-2.786503E-05	-2.170335E-05	0	0
21.81729	-0.004894698	-0.01033971	0	0	0.04848013	0.03478738	0	0
21.83395	-0.004894698	-0.01037747	0	-0.00226698	0	-0.06863093	0	0
21.85045	-0.004947328	-0.01041524	-0.003188526	-0.002287937	-0.09614137	-0.0006318901	0	0
21.86699	-0.004947328	-0.01045301	0	-0.002284298	0.09650768	0.0001101466	0	0
21.88355	-0.005078904	-0.01062296	-0.007941934	-0.01025829	-0.2399367	-0.2409052	0	0
21.90012	-0.005131534	-0.01077403	-0.003176751	-0.009118987	0.1438135	0.03438425	0	0
21.91669	-0.005263109	-0.01098177	-0.007941906	-0.01253926	-0.1438127	-0.103224	0	0
21.93326	-0.01268353	-0.01661476	-0.4478975	-0.340008	-13.27789	-9.883026	0	0
21.95002	-0.01910294	-0.02157549	-0.3829353	-0.2959208	1.949006	1.322714	0	0
21.96653	-0.03141072	-0.03509646	-0.7453876	-0.8188611	-10.89243	-15.71543	0	0
21.98304	-0.03540625	-0.04963388	-0.2420068	-0.8805216	15.24383	-1.867258	0	0
21.99955	-0.03695685	-0.07273325	-0.09390793	-1.398952	4.484863	-15.69958	0	0
22.01609	-0.03766639	-0.09113013	-0.0429167	-1.112744	1.543093	8.661216	0	0
22.03265	-0.03890142	-0.1102412	-0.0745466	-1.153548	-0.9555823	-1.23276	0	0
22.04922	-0.04071433	-0.1365996	-0.109415	-1.590811	-1.05227	-13.19588	0	0
22.06579	-0.0420016	-0.1571003	-0.0776998	-1.237426	0.9571122	10.66458	0	0
22.08235	-0.04328873	-0.1839867	-0.07770914	-1.623238	-0.0002820056	-11.64516	0	0
22.09892	-0.04410296	-0.1971566	-0.0491472	-0.7949376	0.8621002	25.00102	0	0
22.11549	-0.04460198	-0.2158455	-0.03012076	-1.128066	0.5742192	-10.05384	0	0
22.13215	-0.04578377	-0.2382185	-0.07093298	-1.34286	-1.228251	-6.46426	0	0
22.14862	-0.04665034	-0.252571	-0.05260886	-0.8713353	0.5530552	14.23147	0	0
22.16519	-0.04814697	-0.2698039	-0.09033687	-1.04018	-1.14192	-5.110441	0	0
22.18176	-0.04951213	-0.2802653	-0.08240137	-0.6314526	0.2394939	12.33541	0	0
22.19832	-0.05247809	-0.2915729	-0.1790255	-0.6825243	-2.916123	-1.541349	0	0
22.21489	-0.05410504	-0.2962604	-0.09820288	-0.2829427	2.439232	12.0594	0	0
22.23146	-0.05672854	-0.3030576	-0.1583367	-0.4102286	-1.814737	-3.841275	0	0
22.24802	-0.06199938	-0.3092572	-0.3181853	-0.3742516	-4.824241	1.08579	0	0
22.26459	-0.06543277	-0.3120745	-0.2072397	-0.1700545	3.348538	6.163033	0	0
22.28126	-0.07033117	-0.3161039	-0.2939084	-0.2417691	-2.607861	-2.15789	0	0
22.29777	-0.07661291	-0.3212889	-0.3804368	-0.3140143	-2.607979	-2.177483	0	0
22.31429	-0.0812157	-0.325101	-0.2785947	-0.2307384	3.083006	2.520962	0	0
22.33086	-0.08458716	-0.3279439	-0.2035014	-0.1715962	2.269456	1.787386	0	0
22.34742	-0.08662478	-0.3295954	-0.1230053	-0.09969236	2.429518	2.170186	0	0
22.43456	-0.09022804	-0.3326417	-0.04135334	-0.03496138	0.7873957	0.6242216	0	0
22.45138	-0.09022804	-0.3326417	0	0	0.3977957	0.3363087	0	0
22.46793	-0.09025414	-0.3326199	-0.001577178	0.001316491	-0.04726196	0.03945018	0	0
22.4849	-0.09030634	-0.3326199	-0.003075749	0	-0.04470459	-0.03927285	0	0
22.50082	-0.09033244	-0.3325981	-0.001639146	0.001368217	0.043671	0.04159214	0	0
22.51792	-0.09033244	-0.3325981	0	0	0.04963812	-0.04143359	0	0
22.53396	-0.09038464	-0.3325545	-0.003254512	0.002714725	-0.09821005	0.08192114	0	0
22.55095	-0.09038464	-0.3325545	0	0	0.09852763	-0.08218604	0	0
22.5671	-0.09038464	-0.332511	0	0.002698931	0	0.0814492	0	0
22.58366	-0.09038464	-0.332511	0	0	0	-0.08251309	0	0
22.60023	-0.09038464	-0.332511	0	0	0	0	0	0
22.61679	-0.09038464	-0.332511	0	0	0	0	0	0
22.65002	-0.09035854	-0.3325328	0.0007854655	-0.0006556383	0.01577394	-0.01316671	0	0
22.66649	-0.09035854	-0.3325328	0	0	-0.0158036	0.01319147	0	0
22.68306	-0.09030634	-0.3325328	0.003151087	0	0.09537449	0	0	0
22.69963	-0.09030634	-0.3325328	0	0	-0.09510545	0	0	0
22.71619	-0.09030634	-0.3325328	0	0	0	0	0	0
22.73276	-0.09030634	-0.3325328	0	0	0	0	0	0
22.74933	-0.09030634	-0.3325328	0	0	0	0	0	0
22.7659	-0.09030634	-0.3325328	0	0	0	0	0	0
22.78262	-0.09030634	-0.3325328	0	0	0	0	0	0
22.79903	-0.09030634	-0.3325328	0	0	0	0	0	0
22.81564	-0.09030634	-0.3325328	0	0	0	0	0	0
22.83216	-0.09030634	-0.3325328	0	0	0	0	0	0
22.84873	-0.09030634	-0.3325328	0	0	0	0	0	0
22.8653	-0.09028023	-0.332511	0.001575812	0.001314975	0.04755809	0.03968603	0	0
22.88186	-0.09028023	-0.332511	0	0	-0.04756083	-0.03968832	0	0
22.8992	-0.09028023	-0.332511	0	0	0	0	0	0
22.915	-0.09028023	-0.332511	0	0	0	0	0	0
22.94813	-0.09025414	-0.3324892	0.000787681	0.0006565882	0.01609838	0.01341914	0	0
22.9647	-0.09025414	-0.3324892	0	0	-0.01584817	-0.01321058	0	0
22.98127	-0.09025414	-0.3324892	0	0	0	0	0	0
22.99783	-0.09025414	-0.3324892	0	0	0	0	0	0
23.0144	-0.09025414	-0.3324892	0	0	0	0	0	0
23.03097	-0.09025414	-0.3324892	0	0	0	0	0	0
23.04754	-0.09025414	-0.3324892	0	0	0	0	0	0
23.0641	0	0	5.447751	20.06909	164.404	605.6515	0	0
23.08083	-0.09022804	-0.3324674	-5.393396	-19.8733	-325.5934	-1199.594	0	0
23.09723	-0.09022804	-0.3324674	0	0	162.7917	599.8464	0	0
23.11386	-0.09022804	-0.3324239	0	0.0026215	0	0.07938664	0	0
23.13037	-0.09012362	-0.3323368	0.006322729	0.005273302	0.1908203	0.08003155	0	0
23.14944	-0.09001921	-0.3322497	0.005475861	0.004568558	-0.02380072	-0.01980642	0	0
23.16601	-0.08999311	-0.3321844	0.001575181	0.003940874	-0.1094562	-0.01761331	0	0
23.18257	-0.089967	-0.3320755	0.001575993	0.006572035	2.452368E-05	0.07940859	0	0
23.19914	-0.089967	-0.3319884	0	0.005256303	-0.04756631	-0.03971116	0	0
23.21593	-0.08986259	-0.3316837	0.006217877	0.01814871	0.1863898	0.3864686	0	0
23.23227	-0.08944491	-0.3312919	0.02556138	0.02397463	0.5838218	0.1758366	0	0
23.24895	-0.08905331	-0.330835	0.02347502	0.02739109	-0.06318122	0.1034605	0	0
23.2654	-0.08884445	-0.3304434	0.01269611	0.02380073	-0.3253269	-0.1083637	0	0
23.28197	-0.08597177	-0.3274879	0.1733551	0.1783566	4.865223	4.680403	0	0
23.29854	-0.07959464	-0.3219381	0.385013	0.3350613	6.387847	4.729354	0	0
23.3155	-0.07459816	-0.3175067	0.2946016	0.2612847	-2.696951	-2.200737	0	0
23.33167	-0.06207803	-0.3043429	0.7740746	0.8138691	14.47052	16.67703	0	0
23.34824	-0.05785641	-0.2978612	0.2548174	0.3912348	-15.85927	-12.90819	0	0
23.36481	-0.05111334	-0.2828687	0.4070127	0.9049548	4.593265	15.5041	0	0
23.38155	-0.04932837	-0.2682271	0.1066237	0.8746048	-9.018517	-0.9111926	0	0
23.39794	-0.04859329	-0.2512373	0.04483916	1.036362	-1.86466	4.881841	0	0
23.41457	-0.0483045	-0.2273617	0.01736554	1.435682	-0.831933	12.09187	0	0
23.43108	-0.04835701	-0.2090397	-0.003180004	1.109618	-0.6199231	-9.838372	0	0
23.44764	-0.04840952	-0.1912395	-0.003171213	1.075042	0.0002658469	-1.04555	0	0
23.51391	-0.04867205	-0.1232578	-0.003961678	1.025846	-0.00954361	-0.593958	0	0
23.53048	-0.04825199	-0.1054747	0.0253551	1.073392	0.3539128	0.5739696	0	0
23.54704	-0.04791068	-0.09688191	0.02060418	0.5187207	-0.1433913	-16.74096	0	0
23.56368	-0.0465453	-0.07908367	0.08206439	1.069747	1.851037	16.59562	0	0
23.58018	-0.04468077	-0.07038209	0.1130119	0.5274142	0.9339432	-16.3667	0	0
23.59674	-0.04231683	-0.05999879	0.1427207	0.6268814	0.8985801	3.008506	0	0
23.61331	-0.04163382	-0.05554941	0.04122632	0.2685655	-3.06346	-10.81524	0	0
23.62988	-0.04013633	-0.05032245	0.0903888	0.3154998	1.483727	1.416482	0	0
23.64644	-0.03372405	-0.04531485	0.3870459	0.302259	8.95313	-0.3996086	0	0
23.66301	-0.02783491	-0.04100211	0.355469	0.2603179	-0.9529937	-1.265786	0	0
23.67958	-0.02020778	-0.03547712	0.460375	0.3334888	3.16607	2.208302	0	0
23.69614	-0.01520935	-0.03186275	0.3017401	0.2181891	-4.787887	-3.479951	0	0
23.71271	-0.009736534	-0.02791084	0.33034	0.2385378	0.8631969	0.6141598	0	0
23.7293	-0.006605167	-0.0256901	0.1887923	0.1338896	-4.26946	-3.156473	0	0
23.74585	-0.003710509	-0.02356576	0.1749233	0.1283736	-0.4185696	-0.1664716	0	0
23.76241	-0.0003947368	-0.02121548	0.2001404	0.141863	0.7614933	0.4073434	0	0
23.77898	0.0001052632	-0.0208934	0.03018353	0.01944298	-5.129604	-3.694855	0	0
23.79555	0.0001842105	-0.02098813	0.004765273	-0.005717714	-0.7671688	-0.7593951	0	0
23.81211	0.0002105263	-0.02104496	0.001588424	-0.003430673	-0.09587748	0.06902302	0	0
23.82868	0.0002368421	-0.0211018	0.001588424	-0.003430673	0	0	0	0
23.84525	0.0002368421	-0.0211018	0	0	-0.04793873	0.1035379	0	0
23.86181	0.0002368421	-0.0211018	0	0	0	0	0	0
23.89845	0.0002105263	-0.02112075	-0.0007182971	-0.0005171592	-0.01350092	-0.009720382	0	0
23.91502	0.0001842105	-0.02121548	-0.001588424	-0.005718051	-0.01635467	-0.09775454	0	0
23.93159	0.0001578947	-0.02127232	-0.001588424	-0.003430898	0	0.06902641	0	0
23.94846	0.0001578947	-0.02134811	0	-0.004492408	0.04750394	-0.03174588	0	0
23.96497	0.0001315789	-0.02136706	-0.001593562	-0.001147444	-0.04773384	0.1001957	0	0
23.98128	0.0001315789	-0.02136706	0	0	0.04854368	0.03495387	0	0
23.99785	0.0001052632	-0.021386	-0.001588424	-0.001143633	-0.04830858	-0.03478119	0	0
24.0145	7.894737E-05	-0.02140495	-0.001580418	-0.001137981	0.0002410041	0.0001701492	0	0
24.03101	-2.631579E-05	-0.02148074	-0.006374981	-0.004590081	-0.1445754	-0.1040947	0	0
24.04755	-0.0002368421	-0.02170813	-0.01272791	-0.01374744	-0.1922075	-0.2770553	0	0
24.06412	-0.0007894735	-0.02218191	-0.0333569	-0.02859734	-0.6230864	-0.4485324	0	0
24.08068	-0.001131578	-0.02246621	-0.02065425	-0.0171644	0.3834109	0.3450864	0	0
24.09725	-0.001157894	-0.02248517	-0.001588242	-0.001143951	0.5754464	0.483526	0	0
24.11407	-0.001157894	-0.02252308	0	-0.002253912	0.04756905	-0.03324419	0	0
24.13038	-0.001157894	-0.02256099	0	-0.002324132	0	-0.002119476	0	0
24.14695	-0.001157894	-0.0225989	0	-0.002288277	0	0.00109051	0	0
24.16361	-0.001131578	-0.02265576	0.001579876	-0.003413887	0.0475521	-0.03387932	0	0
24.18009	-0.001131578	-0.02269367	0	-0.002300726	-0.04768075	0.03359526	0	0
24.19665	-0.001131578	-0.02269367	0	0	0	0.06962443	0	0
24.21322	-0.001131578	-0.02269367	0	0	0	0	0	0
24.22979	-0.001105263	-0.02271263	0.001588425	-0.001144195	0.04794151	-0.03453386	0	0
24.24635	-0.001105263	-0.02271263	0	0	-0.04793876	0.03453187	0	0
24.26292	-0.001131578	-0.02269367	-0.001588242	0.001144063	-0.04793048	0.03452591	0	0
24.27949	-0.001131578	-0.02269367	0	0	0.04793324	-0.03452789	0	0
24.29605	-0.001105263	-0.02271263	0.001588425	-0.001144195	0.04794151	-0.03453386	0	0
24.31262	-0.001131578	-0.02273159	-0.001588608	-0.001144327	-0.09588855	-3.977422E-06	0	0
24.32923	-0.001131578	-0.02273159	0	0	0.04788914	0.03449613	0	0
24.34575	-0.001131578	-0.02273159	0	0	0	0	0	0
24.36232	-0.001131578	-0.02273159	0	0	0	0	0	0
24.37889	-0.001131578	-0.02273159	0	0	0	0	0	0
24.39546	-0.001131578	-0.02273159	0	0	0	0	0	0
24.41202	-0.001131578	-0.0227695	0	-0.00228839	0	-0.06906374	0	0
24.42859	-0.001131578	-0.0227695	0	0	0	0.06906374	0	0
24.44531	-0.001105263	-0.02278845	0.001573749	-0.001133623	0.04727541	-0.03405404	0	0
24.46172	-0.001105263	-0.02278845	0	0	-0.04749858	0.03421479	0	0
24.47834	-0.001105263	-0.02278845	0	0	0	0	0	0
24.49486	-0.001105263	-0.02278845	0	0	0	0	0	0
24.51142	-0.001105263	-0.02278845	0	0	0	0	0	0
24.52799	-0.001105263	-0.02278845	0	0	0	0	0	0
24.54456	-0.001105263	-0.02278845	0	0	0	0	0	0
24.56112	-0.001105263	-0.02278845	0	0	0	0	0	0
24.57791	-0.001131578	-0.02280741	-0.001567491	-0.001129116	-0.04699587	-0.03385268	0	0
24.59442	-0.001131578	-0.02280741	0	0	0.04707933	0.0339128	0	0
24.61082	-0.001131578	-0.02280741	0	0	0	0	0	0
24.63147	-0.001131578	-0.02280741	0	0	0	0	0	0
24.64804	-0.001131578	-0.02280741	0	0	0	0	0	0
24.6646	-0.001131578	-0.02280741	0	0	0	0	0	0
24.68117	-0.001131578	-0.02280741	0	0	0	0	0	0
24.69774	-0.001131578	-0.02280741	0	0	0	0	0	0
24.7145	-0.001131578	-0.02280741	0	0	0	0	0	0
24.73087	-0.001131578	-0.02280741	0	0	0	0	0	0
24.74752	-0.001157894	-0.02282637	-0.001580419	-0.001138428	-0.04786522	-0.0344789	0	0
24.764	-0.001157894	-0.02282637	0	0	0.04769989	0.0343598	0	0
24.78057	-0.001131578	-0.02284532	0.001588425	-0.001144195	0.04806326	-0.03462155	0	0
24.79714	-0.001131578	-0.02284532	0	0	-0.04794151	0.03453386	0	0
24.81371	-0.001131578	-0.02284532	0	0	0	0	0	0
24.83027	-0.001131578	-0.02284532	0	0	0	0	0	0
24.84709	-0.001131578	-0.02284532	0	0	0	0	0	0
24.8634	-0.001131578	-0.02284532	0	0	0	0	0	0
24.87997	-0.001131578	-0.02284532	0	0	0	0	0	0
24.89663	-0.001131578	-0.02284532	0	0	0	0	0	0
24.91311	-0.001131578	-0.02284532	0	0	0	0	0	0
24.92967	-0.001131578	-0.02284532	0	0	0	0	0	0
24.94666	-0.001131578	-0.02284532	0	0	0	0	0	0
24.9628	-0.001131578	-0.02284532	0	0	0	0	0	0
24.97937	-0.001131578	-0.02284532	0	0	0	0	0	0
24.9962	-0.001131578	-0.02284532	0	0	0	0	0	0
25.01251	-0.001157894	-0.02286428	-0.001614069	-0.001162781	-0.04871269	-0.0350928	0	0
25.02907	-0.001157894	-0.02286428	0	0	0.0491056	0.03537586	0	0
25.04574	-0.001157894	-0.02286428	0	0	0	0	0	0
25.06225	-0.001157894	-0.02286428	0	0	0	0	0	0
25.07878	-0.001157894	-0.02286428	0	0	0	0	0	0
25.09534	-0.001157894	-0.02286428	0	0	0	0	0	0
25.11229	-0.001157894	-0.02286428	0	0	0	0	0	0
25.12848	-0.001157894	-0.02286428	0	0	0	0	0	0
25.14535	-0.001157894	-0.02286428	0	0	0	0	0	0
25.16161	-0.001157894	-0.02286428	0	0	0	0	0	0
25.17817	-0.001157894	-0.02286428	0	0	0	0	0	0
25.19485	-0.001157894	-0.02286428	0	0	0	0	0	0
25.21135	-0.001157894	-0.02286428	0	0	0	0	0	0
25.22787	-0.001157894	-0.02286428	0	0	0	0	0	0
25.24444	-0.001157894	-0.02286428	0	0	0	0	0	0
25.26139	-0.001157894	-0.02286428	0	0	0	0	0	0
25.27757	-0.001157894	-0.02286428	0	0	0	0	0	0
25.2971	-0.001157894	-0.02286428	0	0	0	0	0	0
25.31392	-0.001157894	-0.02286428	0	0	0	0	0	0
25.33044	-0.001157894	-0.02286428	0	0	0	0	0	0
25.34695	-0.001157894	-0.02286428	0	0	0	0	0	0
25.36337	-0.001157894	-0.02286428	0	0	0	0	0	0
25.37994	-0.001157894	-0.02286428	0	0	0	0	0	0
25.3965	-0.001157894	-0.02286428	0	0	0	0	0	0
25.41307	-0.001157894	-0.02290219	0	-0.00228839	0	-0.06906374	0	0
25.42964	-0.001157894	-0.02290219	0	0	0	0.06906374	0	0
25.44621	-0.001157894	-0.02290219	0	0	0	0	0	0
25.46277	-0.001157894	-0.02290219	0	0	0	0	0	0
25.47934	-0.001157894	-0.02290219	0	0	0	0	0	0
25.4959	-0.001157894	-0.02290219	0	0	0	0	0	0
25.51247	-0.001157894	-0.02290219	0	0	0	0	0	0
25.52908	-0.001157894	-0.02290219	0	0	0	0	0	0
25.54561	-0.001157894	-0.02290219	0	0	0	0	0	0
25.56217	-0.001157894	-0.02290219	0	0	0	0	0	0
25.57874	-0.001157894	-0.02290219	0	0	0	0	0	0
25.5953	-0.001157894	-0.02290219	0	0	0	0	0	0
25.61187	-0.001157894	-0.02290219	0	0	0	0	0	0
25.62865	-0.001157894	-0.02290219	0	0	0	0	0	0
25.64517	-0.001157894	-0.02290219	0	0	0	0	0	0
25.66167	-0.001157894	-0.02290219	0	0	0	0	0	0
25.67818	-0.00118421	-0.02292115	-0.001593739	-0.001148141	-0.04826862	-0.03477306	0	0
25.6947	-0.00118421	-0.02292115	0	0	0.0482519	0.03476101	0	0
25.71127	-0.00118421	-0.02292115	0	0	0	0	0	0
25.72784	-0.00118421	-0.02292115	0	0	0	0	0	0
25.74473	-0.001157894	-0.02294011	0.001557575	-0.001121977	0.04654949	-0.03353129	0	0
25.76097	-0.001157894	-0.02294011	0	0	-0.0470077	0.03386135	0	0
25.77754	-0.001157894	-0.02294011	0	0	0	0	0	0
25.7941	-0.001157894	-0.02294011	0	0	0	0	0	0
25.81067	-0.001157894	-0.02294011	0	0	0	0	0	0
25.82724	-0.001157894	-0.02294011	0	0	0	0	0	0
25.84381	-0.001157894	-0.02294011	0	0	0	0	0	0
25.86037	-0.00118421	-0.02295906	-0.001588418	-0.001144307	-0.04793854	-0.03453526	0	0
25.87694	-0.00118421	-0.02295906	0	0	0.04793854	0.03453526	0	0
25.89351	-0.00118421	-0.02295906	0	0	0	0	0	0
25.91035	-0.00118421	-0.02295906	0	0	0	0	0	0
25.92664	-0.00118421	-0.02295906	0	0	0	0	0	0
25.94589	-0.00118421	-0.02295906	0	0	0	0	0	0
25.96246	-0.00118421	-0.02295906	0	0	0	0	0	0
25.97902	-0.00118421	-0.02295906	0	0	0	0	0	0
25.99591	-0.00118421	-0.02295906	0	0	0	0	0	0
26.01216	-0.00118421	-0.02295906	0	0	0	0	0	0
26.02872	-0.00118421	-0.02295906	0	0	0	0	0	0
26.04545	-0.00118421	-0.02295906	0	0	0	0	0	0
26.06196	-0.00118421	-0.02295906	0	0	0	0	0	0
26.07843	-0.00118421	-0.02295906	0	0	0	0	0	0
26.09499	-0.00118421	-0.02295906	0	0	0	0	0	0
26.11156	-0.001157894	-0.02297802	0.001588418	-0.001144307	0.04795511	-0.03454719	0	0
26.12812	-0.001157894	-0.02297802	0	0	-0.04793854	0.03453526	0	0
26.14469	-0.001157894	-0.02297802	0	0	0	0	0	0
26.16126	-0.001157894	-0.02301594	0	-0.002288502	0	-0.06906714	0	0
26.17782	-0.001157894	-0.02301594	0	0	0	0.06907111	0	0
26.19439	-0.001157894	-0.02301594	0	0	0	0	0	0
26.21107	-0.001157894	-0.02301594	0	0	0	0	0	0
26.22753	-0.001157894	-0.02301594	0	0	0	0	0	0
26.24409	-0.001157894	-0.02301594	0	0	0	0	0	0
26.26066	-0.001157894	-0.02301594	0	0	0	0	0	0
26.27723	-0.001157894	-0.02301594	0	0	0	0	0	0
26.29379	-0.001157894	-0.02301594	0	0	0	0	0	0
26.31036	-0.001157894	-0.02301594	0	0	0	0	0	0
26.32693	-0.001157894	-0.02301594	0	0	0	0	0	0
26.34349	-0.001157894	-0.02301594	0	0	0	0	0	0
26.36017	-0.001157894	-0.02301594	0	0	0	0	0	0
26.37663	-0.001157894	-0.02301594	0	0	0	0	0	0
26.39319	-0.001131578	-0.02303489	0.001588425	-0.001144307	0.04810212	-0.03465296	0	0
26.41021	-0.001157894	-0.02305385	-0.001546582	-0.001114164	-0.09335188	0.0008975985	0	0
26.42632	-0.001157894	-0.02305385	0	0	0.04667863	0.03362746	0	0
26.44323	-0.001157894	-0.02305385	0	0	0	0	0	0
26.45974	-0.001157894	-0.02305385	0	0	0	0	0	0
26.47603	-0.001157894	-0.02305385	0	0	0	0	0	0
26.49259	-0.001157894	-0.02305385	0	0	0	0	0	0
26.50916	-0.001157894	-0.02305385	0	0	0	0	0	0
26.52579	-0.001157894	-0.02305385	0	0	0	0	0	0
26.5423	-0.001157894	-0.02305385	0	0	0	0	0	0
26.55886	-0.001157894	-0.02305385	0	0	0	0	0	0
26.57542	-0.001157894	-0.02305385	0	0	0	0	0	0
26.59199	-0.001157894	-0.02305385	0	0	0	0	0	0
26.60884	-0.001157894	-0.02305385	0	0	0	0	0	0
26.64438	-0.001157894	-0.02309177	0	-0.001067095	0	-0.0203701	0	0
26.66094	-0.001157894	-0.02309177	0	0	0	0.02048197	0	0
26.67751	-0.001157894	-0.02309177	0	0	0	0	0	0
26.6944	-0.001157894	-0.02309177	0	0	0	0	0	0
26.71064	-0.001157894	-0.02309177	0	0	0	0	0	0
26.72743	-0.001157894	-0.02309177	0	0	0	0	0	0
26.74394	-0.001157894	-0.02309177	0	0	0	0	0	0
26.76034	-0.001157894	-0.02309177	0	0	0	0	0	0
26.77697	-0.001157894	-0.02309177	0	0	0	0	0	0
26.79348	-0.001157894	-0.02309177	0	0	0	0	0	0
26.81005	-0.001157894	-0.02309177	0	0	0	0	0	0
26.82661	-0.001157894	-0.02309177	0	0	0	0	0	0
26.84351	-0.001157894	-0.02309177	0	0	0	0	0	0
26.85975	-0.001157894	-0.02309177	0	0	0	0	0	0
26.87631	-0.001157894	-0.02309177	0	0	0	0	0	0
26.89305	-0.001157894	-0.02309177	0	0	0	0	0	0
26.90945	-0.001157894	-0.02309177	0	0	0	0	0	0
26.92601	-0.001157894	-0.02309177	0	0	0	0	0	0
26.94258	-0.001157894	-0.02309177	0	0	0	0	0	0
26.95915	-0.001157894	-0.02309177	0	0	0	0	0	0
27.00913	-0.001210526	-0.02312968	-0.001052967	-0.0007585632	-0.01582327	-0.01139917	0	0
27.02541	-0.001236841	-0.02314864	-0.00161633	-0.001164416	-0.00850166	-0.00612468	0	0
27.04198	-0.001263157	-0.0231676	-0.001588425	-0.001144307	0.0008495306	0.000612159	0	0
27.07518	-0.001315789	-0.02320552	-0.001585319	-0.001142128	6.24153E-05	4.378802E-05	0	0
27.09169	-0.001315789	-0.02320552	0	0	0.03189055	0.02297525	0	0
27.10825	-0.001342105	-0.02322448	-0.001589523	-0.001145211	-0.04806874	-0.03463231	0	0
27.12481	-0.00136842	-0.02320552	-0.001588418	0.00114442	3.336092E-05	0.06912506	0	0
27.14138	-0.00136842	-0.02320552	0	0	0.04793854	-0.03453866	0	0
27.15795	-0.001342105	-0.02318656	0.001588601	0.001144439	0.04794683	0.03454123	0	0
27.17451	-0.001342105	-0.02318656	0	0	-0.04794683	-0.03454123	0	0
27.19108	-0.001342105	-0.02318656	0	0	0	0	0	0
27.20765	-0.001342105	-0.02318656	0	0	0	0	0	0
27.22428	-0.001342105	-0.02318656	0	0	0	0	0	0
27.24079	-0.001342105	-0.02318656	0	0	0	0	0	0
27.25735	-0.001289473	-0.02322448	0.003179778	-0.002290837	0.09617073	-0.06928517	0	0
27.27391	-0.001052631	-0.02339511	0.0142958	-0.01029944	0.3356366	-0.2418115	0	0
27.29048	0.000368421	-0.02441911	0.08577488	-0.0618089	2.157243	-1.554558	0	0
27.30734	0.003710509	-0.02682874	0.1982146	-0.1429116	3.363619	-2.426178	0	0
27.32361	0.01123637	-0.03226202	0.4625153	-0.3339119	7.977072	-5.764732	0	0
27.34018	0.01834005	-0.03740019	0.4287789	-0.3101408	-1.027332	0.723873	0	0
27.35675	0.02870264	-0.04491385	0.6254873	-0.453525	5.936669	-4.327345	0	0
27.37339	0.0314633	-0.04691942	0.1658888	-0.1205153	-13.83964	10.02774	0	0
27.3899	0.03958457	-0.05282945	0.4919	-0.3579668	9.833943	-7.162589	0	0
27.40644	0.05148079	-0.06151546	0.7189675	-0.5249532	6.869122	-5.051582	0	0
27.42301	0.06517074	-0.07155742	0.8263268	-0.6061344	3.242163	-2.451605	0	0
27.43958	0.08487456	-0.08610747	1.189051	-0.8780403	10.94578	-8.205194	0	0
27.46021	0.09753167	-0.09552056	0.6134763	-0.4562422	-15.47126	11.3378	0	0
27.47678	0.1103655	-0.1051234	0.7746513	-0.5796289	4.332776	-3.316934	0	0
27.49347	0.1264532	-0.1172509	0.9638443	-0.7265777	5.688572	-4.418392	0	0
27.50998	0.1302583	-0.1201348	0.2304688	-0.1746756	-22.08882	16.62295	0	0
27.52649	0.1444088	-0.1309151	0.856988	-0.6528807	18.97283	-14.48144	0	0
27.54305	0.1565762	-0.1402582	0.7350195	-0.5644047	-3.688661	2.675756	0	0
27.55962	0.1642951	-0.1462227	0.4659123	-0.3600172	-8.124946	6.170914	0	0
27.57618	0.1727605	-0.1527989	0.5109731	-0.3969444	1.359938	-1.114466	0	0
27.59305	0.1782459	-0.1570804	0.3252937	-0.2538987	-5.554257	4.278949	0	0
27.60956	0.1856276	-0.1628679	0.447105	-0.3505453	3.650007	-2.895962	0	0
27.62588	0.1893362	-0.1657871	0.2271484	-0.1787976	-6.698453	5.230323	0	0
27.64245	0.1955984	-0.1707343	0.3779843	-0.2986118	4.585495	-3.642417	0	0
27.65909	0.1993685	-0.173764	0.2265464	-0.182055	-4.560168	3.509813	0	0
27.67558	0.2044704	-0.1779842	0.3093808	-0.255914	2.500091	-2.229199	0	0
27.69215	0.2062864	-0.1797953	0.1096098	-0.1093192	-6.043015	4.43445	0	0
27.70872	0.2093099	-0.1825753	0.1824982	-0.1677961	2.199779	-1.764834	0	0
27.72528	0.2100399	-0.1835632	0.04406786	-0.0596299	-4.177837	3.264461	0	0
27.74185	0.2081009	-0.1851972	-0.1170391	-0.09863034	-4.862217	-1.177036	0	0
27.75842	0.2000258	-0.1916645	-0.4874187	-0.3903696	-11.17808	-8.804708	0	0
27.77498	0.1932677	-0.197116	-0.4079645	-0.3290902	2.398069	1.849521	0	0
27.79169	0.1844072	-0.20425	-0.530546	-0.4271678	-3.68488	-2.948277	0	0
27.80812	0.178934	-0.2086725	-0.3330081	-0.2690775	5.961361	4.770901	0	0
27.82471	0.1727605	-0.2136972	-0.3721614	-0.3029071	-1.185606	-1.0244	0	0
27.84125	0.167853	-0.2176273	-0.2966606	-0.2375755	2.278881	1.971938	0	0
27.85782	0.162553	-0.2218316	-0.3199105	-0.2537776	-0.7022078	-0.4893477	0	0
27.87439	0.1564478	-0.2267236	-0.3685079	-0.2952794	-1.466672	-1.252527	0	0
27.90777	0.1541104	-0.2285971	-0.07001257	-0.05611708	5.975468	4.787703	0	0
27.97382	0.1544444	-0.2282058	0.005057469	0.005924974	0.7549888	0.6239647	0	0
27.99035	0.1548811	-0.2278558	0.02641112	0.02116854	0.2585736	0.184586	0	0
28.00692	0.1552408	-0.2275264	0.02170788	0.01988383	-0.1420746	-0.03880846	0	0
28.02349	0.1552151	-0.2275058	-0.001550627	0.00124302	-0.7019433	-0.5625807	0	0
28.04037	0.1552151	-0.2275058	0	0	0.04636565	-0.03716783	0	0
28.05663	0.1552408	-0.2274852	0.001579912	0.001265579	0.0476791	0.03819305	0	0
28.07319	0.1552665	-0.2274646	0.001550806	0.001243163	-0.0008866908	-0.0006828738	0	0
28.08976	0.1553178	-0.2274234	0.003100713	0.002485428	0.04678166	0.03749592	0	0
28.10641	0.1553435	-0.2274028	0.001542459	0.001235578	-0.04690669	-0.03762309	0	0
28.12293	0.1553692	-0.2273822	0.001555462	0.001246896	0.0003920239	0.0003412297	0	0
28.13946	0.1553949	-0.2274028	0.001554206	-0.001245889	-3.801971E-05	-0.07543651	0	0
28.15602	0.1553949	-0.2274028	0	0	-0.0469601	0.03764435	0	0
28.17529	0.1553949	-0.2274028	0	0	0	0	0	0
28.19197	0.1553949	-0.2274028	0	0	0	0	0	0
28.20848	0.1553949	-0.2274028	0	0	0	0	0	0
28.22499	0.1553949	-0.2274028	0	0	0	0	0	0
28.24156	0.1553949	-0.2274028	0	0	0	0	0	0
28.25812	0.1553949	-0.2274028	0	0	0	0	0	0
28.27469	0.1553949	-0.2274028	0	0	0	0	0	0
28.29126	0.1553949	-0.2274028	0	0	0	0	0	0
28.32458	0.1553949	-0.2274028	0	0	0	0	0	0
28.34096	0.1553949	-0.2274028	0	0	0	0	0	0
28.35759	0.1553949	-0.2274028	0	0	0	0	0	0
28.37409	0.1553949	-0.2274028	0	0	0	0	0	0
28.39112	0.1553949	-0.2274028	0	0	0	0	0	0
28.40722	0.1553949	-0.2274028	0	0	0	0	0	0
28.42379	0.1553949	-0.2274028	0	0	0	0	0	0
28.44036	0.1553692	-0.2274234	-0.001550806	-0.001242264	-0.04680611	-0.03749376	0	0
28.45692	0.1553692	-0.2274234	0	0	0.04680611	0.03749376	0	0
28.47349	0.1553692	-0.2274234	0	0	0	0	0	0
28.49006	0.1553692	-0.2274234	0	0	0	0	0	0
28.50662	0.1553435	-0.2274028	-0.001550627	0.001242121	-0.04680072	0.03748944	0	0
28.52321	0.1553178	-0.2273822	-0.001549022	0.001241734	4.841446E-05	-1.167959E-05	0	0
28.53976	0.155138	-0.2272381	-0.0108651	0.00870757	-0.281176	0.2253323	0	0
28.55632	0.1549839	-0.2271146	-0.009303764	0.007454525	0.04714839	-0.03783876	0	0
28.57289	0.1548811	-0.2270323	-0.00620251	0.004969383	0.09359606	-0.07500172	0	0
28.58976	0.1546499	-0.2268471	-0.01370788	0.0109815	-0.2244836	0.1798208	0	0
28.60602	0.1538534	-0.2262092	-0.04896921	0.03921641	-1.06425	0.8521804	0	0
28.62259	0.1492502	-0.2224887	-0.2778474	0.2245694	-6.97096	5.645308	0	0
28.63929	0.1414955	-0.2163164	-0.4643909	0.3696245	-5.607619	4.360454	0	0
28.67231	0.1299737	-0.2071633	-0.3489132	0.2771815	2.322524	-1.859243	0	0
28.68886	0.1087274	-0.19041	-1.284201	1.012633	-18.86943	14.83774	0	0
28.70543	0.1009973	-0.1843699	-0.4665372	0.3645372	24.69277	-19.57196	0	0
28.72199	0.08443038	-0.1714763	-1.000096	0.7783535	-16.10283	12.489	0	0
28.73856	0.07103816	-0.1611501	-0.8083563	0.6232893	5.787045	-4.680117	0	0
28.75588	0.05321287	-0.1476119	-1.028796	0.7813644	-6.503876	4.663865	0	0
28.77169	0.04439187	-0.1409509	-0.5581397	0.4214639	14.20607	-10.86307	0	0
28.82139	0.004236817	-0.1109452	-0.8078903	0.603693	-3.812526	2.781789	0	0
28.83796	-0.00347367	-0.10526	-0.4654595	0.3431999	5.167291	-3.930848	0	0
28.85452	-0.01136793	-0.09945094	-0.4765534	0.3506769	-0.3348517	0.2256809	0	0
28.87145	-0.01531459	-0.09660958	-0.2330953	0.1678143	7.268087	-5.459097	0	0
28.88847	-0.01565661	-0.09643453	-0.0201007	0.01028779	6.27433	-4.640368	0	0
28.90422	-0.01563031	-0.09645399	0.001669851	-0.001234772	0.6643408	-0.3516175	0	0
28.92079	-0.01565661	-0.09643453	-0.001587954	0.001174213	-0.1007924	0.074531	0	0
28.93751	-0.01657743	-0.095715	-0.05509203	0.04304943	-1.607631	1.25822	0	0
28.95761	-0.01970797	-0.09340215	-0.1557366	0.1150585	-2.733744	1.955937	0	0
28.97453	-0.0321731	-0.08413201	-0.736706	0.5478777	-15.6927	11.69098	0	0
28.99074	-0.04436561	-0.0751636	-0.7518681	0.5530496	-0.4575689	0.1560791	0	0
29.00731	-0.05284549	-0.06893767	-0.5119056	0.3758411	7.320036	-5.40573	0	0
29.02406	-0.07250426	-0.05453391	-1.173367	0.859713	-19.8521	14.52219	0	0
29.04044	-0.07920239	-0.04963388	-0.4089612	0.2991768	23.07115	-16.91799	0	0
29.05709	-0.08508357	-0.04533395	-0.3531993	0.258236	1.688244	-1.23952	0	0
29.07358	-0.09382894	-0.03898146	-0.5305594	0.3853894	-5.352738	3.837496	0	0
29.09014	-0.09497654	-0.03814309	-0.0692696	0.05060384	13.9571	-10.1295	0	0
29.10671	-0.09437669	-0.0385813	0.03621141	-0.02645321	3.183607	-2.32572	0	0
29.12328	-0.09419411	-0.03871468	0.01102034	-0.008050851	-0.7603118	0.5554162	0	0
29.13984	-0.09419411	-0.03871468	0	0	-0.3325945	0.2429751	0	0
29.15641	-0.09416803	-0.03869562	0.001574463	0.001150154	0.04751737	0.0347117	0	0
29.17298	-0.09416803	-0.03869562	0	0	-0.04751737	-0.0347117	0	0
29.18968	-0.09416803	-0.03869562	0	0	0	0	0	0
29.20619	-0.09416803	-0.03865752	0	0.002307787	0	0.06947719	0	0
29.22268	-0.09414195	-0.03867657	0.001582479	-0.001155784	0.04796084	-0.1049719	0	0
29.23924	-0.09414195	-0.03867657	0	0	-0.04788334	0.03497221	0	0
29.25581	-0.09408978	-0.03871468	0.003148563	-0.002300042	0.0950238	-0.06941542	0	0
29.27238	-0.09401153	-0.03877184	0.004723481	-0.003450858	0.04753115	-0.03473169	0	0
29.28894	-0.0937246	-0.03898146	0.01731909	-0.01265236	0.380158	-0.277718	0	0
29.30577	-0.0933333	-0.03926731	0.02326254	-0.01699411	0.1780109	-0.1300387	0	0
29.32228	-0.09286372	-0.03961038	0.02843932	-0.02077708	0.1553058	-0.1134907	0	0
29.33864	-0.09085445	-0.04107838	0.1227635	-0.08969307	2.868838	-2.096057	0	0
29.35521	-0.08827003	-0.04296688	0.1559959	-0.1139896	1.009055	-0.7377284	0	0
29.37181	-0.08252269	-0.04716782	0.3462325	-0.2530741	5.73574	-4.193476	0	0
29.38834	-0.07724076	-0.05103032	0.3194802	-0.2336249	-0.807435	0.5870124	0	0
29.40491	-0.06999075	-0.05629688	0.4376111	-0.3178906	3.568896	-2.545781	0	0
29.42148	-0.06818362	-0.05758146	0.1090916	-0.07754637	-9.915307	7.254019	0	0
29.43806	-0.06477766	-0.06007556	0.2053944	-0.1504057	2.905253	-2.198012	0	0
29.45461	-0.05476099	-0.06687827	0.6052351	-0.4110379	12.06791	-7.86635	0	0
29.47118	-0.0498534	-0.07020871	0.2962227	-0.2010262	-9.330847	6.341453	0	0
29.48839	-0.04489087	-0.07261758	0.2882552	-0.1399222	-0.2358447	1.808722	0	0
29.50431	-0.04352513	-0.07257902	0.0857847	0.00242181	-6.110219	4.295702	0	0
29.52092	-0.03871748	-0.07394817	0.2895566	-0.08246159	6.265256	-2.609861	0	0
29.53744	-0.03561651	-0.0760321	0.1876287	-0.1260914	-3.076543	-1.316902	0	0
29.55444	-0.03432861	-0.07697811	0.07578322	-0.0556656	-3.336514	2.100905	0	0
29.57058	-0.03398691	-0.07722915	0.0211739	-0.01555575	-1.648208	1.210587	0	0
29.63684	-0.03225197	-0.07846536	0.02618103	-0.01865495	0.0607624	-0.03760934	0	0
29.65341	-0.03225197	-0.07842672	0	0.002332237	-0.3160653	0.2533636	0	0
29.67002	-0.03222568	-0.0784074	0.001582415	0.001163039	0.04769422	-0.03523982	0	0
29.68916	-0.03209424	-0.07827216	0.006868055	0.007066209	0.1478524	0.1651262	0	0
29.70573	-0.03204166	-0.07823353	0.003173294	0.002331969	-0.103473	-0.132584	0	0
29.72229	-0.03204166	-0.07823353	0	0	-0.09577021	-0.07037896	0	0
29.73886	-0.03204166	-0.07823353	0	0	0	0	0	0
29.75543	-0.03204166	-0.07823353	0	0	0	0	0	0
29.77209	-0.03204166	-0.07823353	0	0	0	0	0	0
29.78856	-0.03201537	-0.07821421	0.001596572	0.001173278	0.0481874	0.03541163	0	0
29.80513	-0.03201537	-0.07821421	0	0	-0.04833208	-0.03551795	0	0
29.8217	-0.03196279	-0.07821421	0.00317366	0	0.09578124	0	0	0
29.83826	-0.03193651	-0.07819489	0.001586605	0.001166119	-0.04789741	0.03519353	0	0
29.85483	-0.03191022	-0.07821421	0.00158683	-0.001166119	6.78793E-06	-0.07038707	0	0
29.8714	-0.03191022	-0.07821421	0	0	-0.04788786	0.03519151	0	0
29.88796	-0.03185764	-0.07821421	0.003174025	0	0.09579226	0	0	0
29.90469	-0.03183135	-0.07819489	0.00157181	0.001155081	-0.04812776	0.03469664	0	0
29.9212	-0.03180506	-0.07817557	0.001592145	0.001170025	0.0006118192	0.0004496098	0	0
29.95423	-0.03177877	-0.07819489	0.0007959348	-0.0005849111	-0.0160716	-0.03542357	0	0
29.9708	-0.03175248	-0.07821421	0.00158683	-0.001166119	0.0159465	-0.01171865	0	0
29.98736	-0.03175248	-0.07821421	0	0	-0.04789338	0.03519556	0	0
30.00426	-0.03175248	-0.07821421	0	0	0	0	0	0
30.0205	-0.03175248	-0.07821421	0	0	0	0	0	0
30.03706	-0.03172619	-0.07819489	0.00158683	0.001166119	0.04837796	0.03555167	0	0
30.05363	-0.03162104	-0.07811762	0.006345858	0.004662951	0.1436112	0.1055225	0	0
30.07205	-0.0314633	-0.07800172	0.008563655	0.006292392	0.06338319	0.04656834	0	0
30.08862	-0.02688826	-0.07468122	0.2761502	0.2004253	7.64828	5.548797	0	0
30.10519	-0.02199645	-0.0710564	0.2952698	0.218795	0.5770322	0.5543965	0	0
30.12176	-0.01660374	-0.06714763	0.3255048	0.2359333	0.9124939	0.517235	0	0
30.13836	-0.01063118	-0.06278317	0.3597175	0.2628648	1.031414	0.8119079	0	0
30.15489	-0.002499995	-0.05685282	0.4918752	0.3587409	3.988525	2.893545	0	0
30.17146	0.002973675	-0.05290604	0.3303914	0.2382286	-4.878926	-3.641049	0	0
30.18802	0.005763094	-0.05083898	0.1683696	0.1247675	-4.889827	-3.424264	0	0
30.20459	0.01292033	-0.04567771	0.4320119	0.3115349	7.956739	5.636652	0	0
30.22116	0.01581447	-0.04357756	0.1746904	0.1267658	-7.765977	-5.576342	0	0
30.23772	0.01883988	-0.0414598	0.1826348	0.1278425	0.2397778	0.03249759	0	0
30.25444	0.01883988	-0.04149795	0	-0.00228184	-5.487607	-3.909832	0	0
30.27086	0.01886618	-0.04151702	0.001602529	-0.001161845	0.04836721	0.03380347	0	0
30.28742	0.01883988	-0.04157424	-0.001587954	-0.003453609	-0.09672885	-0.06948154	0	0
30.30399	0.0189451	-0.04180312	0.00635221	-0.01381715	0.2396484	-0.3127903	0	0
30.32056	0.01915555	-0.04199387	0.01270127	-0.01151213	0.191615	0.06956571	0	0
30.33712	0.01960275	-0.04231817	0.02699619	-0.01957713	0.4314215	-0.2434021	0	0
30.35369	0.02044452	-0.04296688	0.05080925	-0.03915604	0.7187208	-0.5909268	0	0
30.37026	0.02149669	-0.04373024	0.06350905	-0.04607698	0.383281	-0.2088742	0	0
30.391	0.02144408	-0.04376842	-0.002536979	-0.001840845	-1.770485	1.18583	0	0
30.42413	0.02136517	-0.04382568	-0.002381538	-0.001728154	0.002885422	0.002091878	0	0
30.44107	0.02131256	-0.04386385	-0.003104926	-0.002253031	-0.01444539	-0.01048131	0	0
30.45726	0.02115474	-0.04397838	-0.009747334	-0.007073262	-0.2004683	-0.1454749	0	0
30.47383	0.02112843	-0.04403564	-0.001587729	-0.003456532	0.249082	0.1104051	0	0
30.49061	0.02097061	-0.04415018	-0.009405103	-0.006825282	-0.2344175	-0.1010178	0	0
30.50712	0.02086539	-0.04422653	-0.006372191	-0.004624374	0.09109819	0.06610768	0	0
30.52353	0.02076017	-0.0443029	-0.006412189	-0.004653628	-0.00121496	-0.0008886096	0	0
30.5401	0.02073387	-0.04436017	-0.001587912	-0.00345738	0.1463044	0.03627825	0	0
30.55667	0.02070757	-0.04437926	-0.001587729	-0.001152177	5.516389E-06	0.06957515	0	0
30.57323	0.02068126	-0.04439835	-0.001587546	-0.00115227	5.515754E-06	-2.78247E-06	0	0
30.5898	0.02062865	-0.04443653	-0.003175936	-0.002304845	-0.04793771	-0.0347848	0	0
30.60669	0.02057604	-0.04447471	-0.003114151	-0.002260306	0.001846628	0.001331159	0	0
30.62293	0.02052343	-0.04455108	-0.00323999	-0.004703055	-0.003798263	-0.0737308	0	0
30.6395	0.02015517	-0.04485657	-0.02222877	-0.01843934	-0.578847	-0.4187317	0	0
30.65623	0.01952383	-0.04535305	-0.03773789	-0.02967721	-0.465787	-0.3375084	0	0
30.67274	0.01789283	-0.04661372	-0.09877766	-0.07634921	-1.836265	-1.404038	0	0
30.68925	0.01697205	-0.04728247	-0.05576412	-0.04050123	1.3025	1.085518	0	0
30.72233	0.01702467	-0.04735891	0.001590574	-0.002310665	1.156508	0.7700802	0	0
30.7389	0.01702467	-0.04735891	0	0	-0.03203683	0.04654068	0	0
30.75547	0.01702467	-0.04732069	0	0.002306828	0	0.06962021	0	0
30.77203	0.01702467	-0.04732069	0	0	0	-0.06962021	0	0
30.7886	0.01699836	-0.04730158	-0.001588066	0.001153526	-0.04792794	0.0348135	0	0
30.80534	0.01699836	-0.04730158	0	0	0.04768638	-0.03463804	0	0
30.82173	0.01699836	-0.04730158	0	0	0	0	0	0
30.8383	0.01699836	-0.04730158	0	0	0	0	0	0
30.85487	0.01697205	-0.04732069	-0.001588137	-0.001153659	-0.04793007	-0.03481751	0	0
30.87144	0.01699836	-0.0473398	0.001587954	-0.001153302	0.09586013	1.079385E-05	0	0
30.888	0.01697205	-0.04735891	-0.001587954	-0.001153526	-0.0958491	-6.784417E-06	0	0
30.90491	0.01694575	-0.04737802	-0.001556066	-0.001130362	0.0009526214	0.0006920065	0	0
30.92113	0.01697205	-0.04739713	0.001621367	-0.001177798	0.09590063	-0.001431707	0	0
30.9377	0.01691944	-0.04739713	-0.003175542	0	-0.1462697	0.03591402	0	0
30.95427	0.01691944	-0.04739713	0	0	0.09583806	0	0	0
30.97095	0.01691944	-0.04739713	0	0	0	0	0	0
30.9874	0.01694575	-0.04737802	0.001599556	0.001161954	0.04827747	0.03506987	0	0
31.00398	0.01694575	-0.04737802	0	0	-0.0484364	-0.03518532	0	0
31.02053	0.01691944	-0.04739713	-0.001589052	-0.001154324	-0.04796043	-0.03483957	0	0
31.0371	0.01691944	-0.04739713	0	0	0.04797424	0.0348496	0	0
31.05367	0.01691944	-0.04739713	0	0	0	0	0	0
31.07024	0.01689313	-0.04737802	-0.001588137	0.001153659	-0.04793007	0.03481751	0	0
31.0868	0.01689313	-0.04737802	0	0	0.04793283	-0.03481951	0	0
31.10337	0.01684051	-0.04737802	-0.003175908	0	-0.0958491	0	0	0
31.13939	0.01676159	-0.04735891	-0.002191499	0.0005306393	0.01872149	0.01009169	0	0
31.15595	0.01676159	-0.04735891	0	0	0.04167942	-0.01009206	0	0
31.17252	0.01676159	-0.04735891	0	0	0	0	0	0
31.18911	0.01673528	-0.0473398	-0.001585581	0.001151803	-0.04781714	0.03473548	0	0
31.20565	0.01670897	-0.04732069	-0.001590334	0.00115503	-0.000143453	9.741312E-05	0	0
31.22222	0.01670897	-0.04732069	0	0	0.04803509	-0.034887	0	0
31.23878	0.01665635	-0.04732069	-0.00317602	0	-0.09585801	0	0	0
31.25567	0.01663005	-0.04730158	-0.001558351	0.001132022	0.048362	0.03384306	0	0
31.27217	0.01655112	-0.04724425	-0.004782696	0.003473953	-0.09658259	0.0701506	0	0
31.28868	0.0164985	-0.04720604	-0.00318666	0.002314556	0.04834378	-0.03511803	0	0
31.30519	0.01647219	-0.04718693	-0.001593273	0.001157391	0.04824959	-0.0350403	0	0
31.3217	0.01644589	-0.04716782	-0.001593458	0.001157299	-5.573649E-06	-2.781536E-06	0	0
31.33818	0.01644589	-0.04716782	0	0	0.04829916	-0.03507879	0	0
31.35475	0.01641958	-0.04714871	-0.001588066	0.001153526	-0.04805242	0.03490391	0	0
31.37132	0.01636696	-0.04711049	-0.00317602	0.002306603	-0.04792455	0.03479993	0	0
31.38789	0.01631434	-0.04707228	-0.003175908	0.002306828	3.393965E-06	6.780903E-06	0	0
31.40445	0.01623541	-0.04701495	-0.004764087	0.00346013	-0.04793134	0.03480671	0	0
31.42102	0.01620911	-0.04699584	-0.001587954	0.001153302	0.09585589	-0.06962021	0	0
31.43759	0.01610387	-0.04691942	-0.006352772	0.004613738	-0.1438108	0.1044422	0	0
31.57443	-0.009157639	-0.02855648	-0.1845948	0.1341845	-1.161838	0.8445837	0	0
31.5914	-0.01192049	-0.02656302	-0.1628658	0.1175111	0.1412694	-0.1084011	0	0
31.60757	-0.01686682	-0.02295906	-0.3058863	0.2228723	-4.316367	3.179809	0	0
31.62414	-0.01705098	-0.02278845	-0.01111579	0.01029809	9.003998	-6.493249	0	0
31.64094	-0.01697205	-0.02288324	0.004697455	-0.005641203	0.4738894	-0.4776668	0	0
31.65744	-0.01689313	-0.02294011	0.004781478	-0.00344539	0.002522591	0.06592444	0	0
31.67396	-0.01670897	-0.02307281	0.01115303	-0.008036871	0.1929713	-0.1390595	0	0
31.6904	-0.01663005	-0.02312968	0.004798224	-0.003457602	-0.1927983	0.1389304	0	0
31.70698	-0.01660374	-0.02314864	0.001587223	-0.001143781	-0.09723282	0.07006519	0	0
31.72354	-0.01660374	-0.02314864	0	0	-0.04790525	0.03452135	0	0
31.7401	-0.01657743	-0.0231676	0.001588249	-0.001144439	0.04795002	-0.03455117	0	0
31.75667	-0.01655112	-0.02318656	0.001587954	-0.00114442	-8.914063E-06	5.832615E-07	0	0
31.77324	-0.01641958	-0.02328135	0.007939995	-0.005721761	0.191705	-0.1381444	0	0
31.7898	-0.01620911	-0.02343303	0.01270397	-0.009155245	0.143777	-0.1036228	0	0
31.80655	-0.01573554	-0.02377433	0.0282816	-0.02038278	0.4676304	-0.3370433	0	0
31.82306	-0.01568292	-0.02381226	0.003185924	-0.002296315	-0.7545224	0.5437846	0	0
31.8395	-0.01568292	-0.02381226	0	0	-0.09667447	0.06967996	0	0
31.85607	-0.01568292	-0.02381226	0	0	0	0	0	0
31.87264	-0.01568292	-0.02381226	0	0	0	0	0	0
31.8892	-0.01568292	-0.02381226	0	0	0	0	0	0
31.90577	-0.01570923	-0.0237933	-0.001588066	0.001144645	-0.04792794	0.03454544	0	0
31.92234	-0.01570923	-0.0237933	0	0	0.04792794	-0.03454544	0	0
31.93915	-0.01573554	-0.02377433	-0.001565248	0.001128167	-0.04689913	0.03380297	0	0
31.95547	-0.01573554	-0.02377433	0	0	0.04723929	-0.03404814	0	0
31.97217	-0.01578816	-0.02377433	-0.003151461	0	-0.0954299	0	0	0
31.98861	-0.01578816	-0.02377433	0	0	0.09511676	0	0	0
32.00517	-0.01578816	-0.02377433	0	0	0	0	0	0
32.0413	-0.01578816	-0.02377433	0	0	0	0	0	0
32.05787	-0.01578816	-0.02377433	0	0	0	0	0	0
32.07443	-0.01578816	-0.02377433	0	0	0	0	0	0
32.09126	-0.01578816	-0.02377433	0	0	0	0	0	0
32.10757	-0.01578816	-0.02377433	0	0	0	0	0	0
32.12413	-0.01578816	-0.02377433	0	0	0	0	0	0
32.14079	-0.01578816	-0.02377433	0	0	0	0	0	0
32.1573	-0.01578816	-0.02377433	0	0	0	0	0	0
32.17384	-0.01578816	-0.02377433	0	0	0	0	0	0
32.1904	-0.01578816	-0.02377433	0	0	0	0	0	0
32.20697	-0.01576185	-0.0237933	0.001588066	-0.001144532	0.04792794	-0.03454205	0	0
32.22354	-0.01576185	-0.0237933	0	0	-0.04792794	0.03454205	0	0
32.2401	-0.01576185	-0.0237933	0	0	0	0	0	0
32.25667	-0.01576185	-0.0237933	0	0	0	0	0	0
32.32294	-0.01576185	-0.0237933	0	0	0	0	0	0
32.3395	-0.01573554	-0.02381226	0.001588066	-0.001144645	0.01917206	-0.01381881	0	0
32.35607	-0.01573554	-0.02381226	0	0	-0.04792794	0.03454544	0	0
32.37264	-0.01573554	-0.02381226	0	0	0	0	0	0
32.3892	-0.01573554	-0.02381226	0	0	0	0	0	0
32.40577	-0.01573554	-0.02381226	0	0	0	0	0	0
32.42234	-0.01573554	-0.02381226	0	0	0	0	0	0
32.4389	-0.01573554	-0.02381226	0	0	0	0	0	0
32.45551	-0.01573554	-0.02381226	0	0	0	0	0	0
32.47204	-0.01573554	-0.02381226	0	0	0	0	0	0
32.4886	-0.01573554	-0.02381226	0	0	0	0	0	0
32.52174	-0.01573554	-0.02381226	0	0	0	0	0	0
32.5383	-0.01573554	-0.02381226	0	0	0	0	0	0
