Time	Pos X	Pos Y	Vel X	Vel Y	Acc X	Acc YForce X	Force Y
0.01656516	-0.01065749	-0.05497456	0.0001583669	0.0008169042	-2.353861E-06	-1.214192E-05	0	0
0.04697244	-0.01065749	-0.05497456	0	0	2.354345E-06	1.214442E-05	0	0
0.06353997	-0.01065749	-0.05497456	0	0	0	0	0	0
0.0801075	-0.01065749	-0.05497456	0	0	0	0	0	0
0.09667383	-0.01065749	-0.05497456	0	0	0	0	0	0
0.1132402	-0.01065749	-0.05497456	0	0	0	0	0	0
0.1298065	-0.01065749	-0.05497456	0	0	0	0	0	0
0.1518213	-0.01065749	-0.05497456	0	0	0	0	0	0
0.1683892	-0.01065749	-0.05497456	0	0	0	0	0	0
0.1850913	-0.01065749	-0.05497456	0	0	0	0	0	0
0.2016012	-0.01065749	-0.05497456	0	0	0	0	0	0
0.2180894	-0.01065749	-0.05497456	0	0	0	0	0	0
0.2346565	-0.01065749	-0.05497456	0	0	0	0	0	0
0.2512228	-0.01065749	-0.05497456	0	0	0	0	0	0
0.2677896	-0.01065749	-0.05497456	0	0	0	0	0	0
0.2843571	-0.01065749	-0.05497456	0	0	0	0	0	0
0.3009242	-0.01065749	-0.05497456	0	0	0	0	0	0
0.3177247	-0.01065749	-0.05497456	0	0	0	0	0	0
0.3340565	-0.01065749	-0.05497456	0	0	0	0	0	0
0.3507054	-0.01065749	-0.05497456	0	0	0	0	0	0
0.367218	-0.01065749	-0.05497456	0	0	0	0	0	0
0.3837591	-0.01065749	-0.05497456	0	0	0	0	0	0
0.4003258	-0.01065749	-0.05497456	0	0	0	0	0	0
0.4168981	-0.01065749	-0.05497456	0	0	0	0	0	0
0.4334625	-0.01065749	-0.05497456	0	0	0	0	0	0
0.450028	-0.01065749	-0.05497456	0	0	0	0	0	0
0.4666062	-0.01065749	-0.05497456	0	0	0	0	0	0
0.4831706	-0.01065749	-0.05497456	0	0	0	0	0	0
0.4998328	-0.0106838	-0.05499372	-0.001579176	-0.001149853	-0.04752741	-0.03460637	0	0
0.5163277	-0.0106838	-0.05499372	0	0	0.04762699	0.03467888	0	0
0.5328569	-0.01065749	-0.05497456	0.001591889	0.00115911	0.04820386	0.03509892	0	0
0.565994	-0.01065749	-0.05497456	0	0	-0.03205174	-0.023338	0	0
0.5991274	-0.01065749	-0.05497456	0	0	0	0	0	0
0.6156942	-0.01065749	-0.05497456	0	0	0	0	0	0
0.6322585	-0.01065749	-0.05497456	0	0	0	0	0	0
0.6489228	-0.01065749	-0.05497456	0	0	0	0	0	0
0.665437	-0.01065749	-0.05497456	0	0	0	0	0	0
0.6819611	-0.01065749	-0.05497456	0	0	0	0	0	0
0.6985255	-0.01065749	-0.05497456	0	0	0	0	0	0
0.715093	-0.01065749	-0.05497456	0	0	0	0	0	0
0.7316562	-0.01065749	-0.05497456	0	0	0	0	0	0
0.7482237	-0.01065749	-0.05497456	0	0	0	0	0	0
0.765	-0.01065749	-0.05497456	0	0	0	0	0	0
0.7813568	-0.01065749	-0.05497456	0	0	0	0	0	0
0.7979262	-0.01065749	-0.05497456	0	0	0	0	0	0
0.8144914	-0.01065749	-0.05497456	0	0	0	0	0	0
0.8310562	-0.01065749	-0.05497456	0	0	0	0	0	0
0.8476241	-0.01065749	-0.05497456	0	0	0	0	0	0
0.8641897	-0.01065749	-0.05497456	0	0	0	0	0	0
0.880756	-0.01065749	-0.05497456	0	0	0	0	0	0
0.9045855	-0.01065749	-0.05497456	0	0	0	0	0	0
0.9216133	-0.01065749	-0.05497456	0	0	0	0	0	0
0.9377213	-0.01065749	-0.05497456	0	0	0	0	0	0
0.9542869	-0.01065749	-0.05497456	0	0	0	0	0	0
0.9708548	-0.01065749	-0.05497456	0	0	0	0	0	0
0.9876612	-0.01065749	-0.05497456	0	0	0	0	0	0
1.003988	-0.01065749	-0.05497456	0	0	0	0	0	0
1.020685	-0.01065749	-0.05497456	0	0	0	0	0	0
1.037194	-0.01065749	-0.05497456	0	0	0	0	0	0
1.05371	-0.01065749	-0.05497456	0	0	0	0	0	0
1.070256	-0.01065749	-0.05497456	0	0	0	0	0	0
1.086822	-0.01065749	-0.05497456	0	0	0	0	0	0
1.103389	-0.01065749	-0.05497456	0	0	0	0	0	0
1.120257	-0.01065749	-0.05497456	0	0	0	0	0	0
1.136522	-0.01065749	-0.05497456	0	0	0	0	0	0
1.153777	-0.01065749	-0.05497456	0	0	0	0	0	0
1.169789	-0.01065749	-0.05497456	0	0	0	0	0	0
1.186299	-0.01065749	-0.05497456	0	0	0	0	0	0
1.202789	-0.01065749	-0.05497456	0	0	0	0	0	0
1.219356	-0.01065749	-0.05497456	0	0	0	0	0	0
1.235922	-0.01065749	-0.05497456	0	0	0	0	0	0
1.302386	-0.01065749	-0.05497456	0	0	0	0	0	0
1.318756	-0.01065749	-0.05497456	0	0	0	0	0	0
1.335409	-0.01065749	-0.05497456	0	0	0	0	0	0
1.351889	-0.01065749	-0.05497456	0	0	0	0	0	0
1.368456	-0.01065749	-0.05497456	0	0	0	0	0	0
1.385023	-0.01065749	-0.05497456	0	0	0	0	0	0
1.401589	-0.01065749	-0.05497456	0	0	0	0	0	0
1.418465	-0.01065749	-0.05497456	0	0	0	0	0	0
1.451289	-0.01065749	-0.05497456	0	0	0	0	0	0
1.468001	-0.01065749	-0.05497456	0	0	0	0	0	0
1.484422	-0.01065749	-0.05497456	0	0	0	0	0	0
1.500988	-0.01065749	-0.05497456	0	0	0	0	0	0
1.517556	-0.01065749	-0.05497456	0	0	0	0	0	0
1.534122	-0.01065749	-0.05497456	0	0	0	0	0	0
1.550688	-0.01065749	-0.05497456	0	0	0	0	0	0
1.567572	-0.01065749	-0.05497456	0	0	0	0	0	0
1.583823	-0.01065749	-0.05497456	0	0	0	0	0	0
1.600599	-0.01065749	-0.05497456	0	0	0	0	0	0
1.617105	-0.0106838	-0.05499372	-0.001594096	-0.001160717	-0.04789677	-0.03487531	0	0
1.633619	-0.0106838	-0.05499372	0	0	0.04827649	0.03515181	0	0
1.650096	-0.01078906	-0.05510868	-0.006387883	-0.006977253	-0.1936275	-0.2114923	0	0
1.666661	-0.01099956	-0.05530029	-0.01270744	-0.01156726	-0.1912584	-0.1389145	0	0
1.69189	-0.01655112	-0.05961495	-0.220045	-0.1710184	-4.960892	-3.815131	0	0
1.70846	-0.02239099	-0.06403222	-0.3524295	-0.2665769	-3.167127	-2.286112	0	0
1.725183	-0.03711453	-0.07558817	-0.8804342	-0.6910197	-15.85916	-12.74857	0	0
1.741594	-0.04502219	-0.0818678	-0.4818562	-0.3826518	12.02932	9.306728	0	0
1.75816	-0.06396525	-0.0979715	-1.143521	-0.9721192	-20.06479	-17.87544	0	0
1.774726	-0.07352512	-0.1078178	-0.5770805	-0.59437	17.09673	11.40152	0	0
1.791293	-0.08351582	-0.115722	-0.6030442	-0.4771015	-0.783617	3.539322	0	0
1.808239	-0.092655	-0.1225504	-0.5392981	-0.4029396	1.902098	2.212894	0	0
1.841265	-0.1103395	-0.1359673	-0.5354819	-0.4062625	0.07636679	-0.06649546	0	0
1.857775	-0.1146788	-0.1392688	-0.2628269	-0.199965	5.50422	4.164629	0	0
1.874292	-0.1147308	-0.139348	-0.003144441	-0.004791315	7.862577	5.909402	0	0
1.890801	-0.1143672	-0.139071	0.02202495	0.01677619	0.762106	0.6530442	0	0
1.907313	-0.1142892	-0.1390117	0.004718905	0.003594454	-0.5240982	-0.399197	0	0
1.923827	-0.1141594	-0.1388732	0.007864214	0.008384405	0.09523708	0.1450353	0	0
1.95696	-0.1139516	-0.138715	0.00627179	0.004775744	-0.03207473	-0.0726859	0	0
1.973528	-0.1139256	-0.1386952	0.001567694	0.001193534	-0.09464863	-0.07207576	0	0
1.990094	-0.1139256	-0.1386952	0	0	-0.04731464	-0.0360221	0	0
2.006895	-0.1139256	-0.1386952	0	0	0	0	0	0
2.023227	-0.1139256	-0.1386952	0	0	0	0	0	0
2.039794	-0.1138996	-0.1386754	0.001567762	0.001193586	0.04765392	0.03628041	0	0
2.056415	-0.1138477	-0.1386358	0.003125628	0.002380193	0.04694014	0.03575372	0	0
2.072928	-0.1138477	-0.1386358	0	0	-0.09433231	-0.07183487	0	0
2.089493	-0.1138217	-0.1386161	0.00156837	0.001193706	0.04741469	0.03608792	0	0
2.106458	-0.1138217	-0.1386161	0	0	-0.04677479	-0.03560089	0	0
2.122962	-0.1137957	-0.1385963	0.001573764	0.001198155	0.04702193	0.03579925	0	0
2.139193	-0.1137957	-0.1385963	0	0	-0.04807571	-0.03660154	0	0
2.155761	-0.1137438	-0.1385567	0.003135883	0.002388002	0.09560979	0.07280768	0	0
2.172501	-0.1137178	-0.138537	0.001551908	0.001181177	-0.04755536	-0.03623228	0	0
2.188894	-0.1135879	-0.1384381	0.00792363	0.006032376	0.1923073	0.1464158	0	0
2.205518	-0.1135359	-0.138359	0.00312509	0.004757773	-0.1453369	-0.03860482	0	0
2.222026	-0.113484	-0.1383194	0.003147657	0.002395722	0.0006811398	-0.07129197	0	0
2.238592	-0.113484	-0.1383194	0	0	-0.09517042	-0.07243542	0	0
2.255158	-0.113484	-0.1383194	0	0	0	0	0	0
2.271725	-0.113484	-0.1383194	0	0	0	0	0	0
2.288291	-0.11351	-0.1382997	-0.001568257	0.00119362	-0.04733213	0.03602508	0	0
2.305088	-0.11351	-0.1382205	0	0.004709901	0.04700606	0.105395	0	0
2.321602	-0.1133281	-0.1380031	0.0110119	0.01317024	0.3305795	0.2539812	0	0
2.338109	-0.1128864	-0.1375879	0.02675708	0.02515292	0.4768239	0.3628809	0	0
2.387692	-0.1085194	-0.1341505	0.08807588	0.0693256	0.9278092	0.668373	0	0
2.404258	-0.1046687	-0.1312305	0.2324388	0.1762582	2.182375	1.61653	0	0
2.421171	-0.09966865	-0.1274477	0.2956354	0.2236671	1.887635	1.416071	0	0
2.437391	-0.09497654	-0.1239065	0.2892775	0.2183205	-0.1918903	-0.1613685	0	0
2.458305	-0.08662478	-0.1176627	0.3993416	0.2985503	2.963977	2.160551	0	0
2.474872	-0.08147712	-0.1138415	0.3107088	0.2306399	-2.36472	-1.811846	0	0
2.49144	-0.07820857	-0.1113951	0.1972899	0.1476658	-3.422964	-2.504146	0	0
2.508006	-0.074729	-0.1087947	0.2100333	0.156966	0.3846021	0.2806842	0	0
2.524574	-0.07436263	-0.1085602	0.02211443	0.01415397	-5.671485	-4.310137	0	0
2.541254	-0.07436263	-0.1085602	0	0	-0.665151	-0.4257188	0	0
2.557775	-0.07436263	-0.1085602	0	0	0	0	0	0
2.574281	-0.07436263	-0.1085993	0	-0.002367595	0	-0.07168628	0	0
2.590839	-0.07436263	-0.1085993	0	0	0	0.07160771	0	0
2.607806	-0.07433645	-0.1085797	0.00154263	0.001151813	0.04601432	0.03435684	0	0
2.623975	-0.07433645	-0.1085797	0	0	-0.04655398	-0.03475977	0	0
2.640539	-0.07433645	-0.1085797	0	0	0	0	0	0
2.657106	-0.07433645	-0.1085797	0	0	0	0	0	0
2.673672	-0.07433645	-0.1085797	0	0	0	0	0	0
2.690865	-0.07436263	-0.1085993	-0.001522414	-0.001136718	-0.04509701	-0.03367192	0	0
2.706805	-0.07436263	-0.1086384	0	-0.002451485	0.04594852	-0.03968144	0	0
2.723373	-0.07433645	-0.1086579	0.001579791	-0.001179559	0.04859608	0.0391258	0	0
2.73994	-0.07436263	-0.1086775	-0.00157995	-0.001179678	-0.09536186	-3.583716E-06	0	0
2.756508	-0.07433645	-0.108697	0.001579745	-0.001179525	0.09535912	4.609576E-06	0	0
2.773072	-0.07431029	-0.1087165	0.001579682	-0.001179814	-1.907884E-06	-8.710211E-06	0	0
2.789639	-0.07431029	-0.1087165	0	0	-0.04767971	0.03561044	0	0
2.806206	-0.07428411	-0.108697	0.00157995	0.001179678	0.04768505	0.03560429	0	0
2.822772	-0.07428411	-0.108697	0	0	-0.04768505	-0.03560429	0	0
2.839466	-0.07428411	-0.108697	0	0	0	0	0	0
2.855906	-0.07428411	-0.108697	0	0	0	0	0	0
2.872473	-0.07425794	-0.1086775	0.001579973	0.001179695	0.04786795	0.03574085	0	0
2.889039	-0.07428411	-0.1086579	-0.00157995	0.001179678	-0.09537284	-5.129928E-07	0	0
2.905606	-0.07425794	-0.1086384	0.001579859	0.00117961	0.09536597	-2.048384E-06	0	0
2.922173	-0.07425794	-0.1086384	0	0	-0.04768093	-0.03560122	0	0
2.939036	-0.07425794	-0.1086384	0	0	0	0	0	0
2.955306	-0.07428411	-0.1086579	-0.001608705	-0.001201148	-0.04855256	-0.03625203	0	0
2.971872	-0.07428411	-0.1086579	0	0	0.04899182	0.03658	0	0
2.98857	-0.07428411	-0.1086579	0	0	0	0	0	0
3.005006	-0.07428411	-0.1086579	0	0	0	0	0	0
3.021593	-0.07428411	-0.1086579	0	0	0	0	0	0
3.038141	-0.07428411	-0.1086579	0	0	0	0	0	0
3.054706	-0.07428411	-0.1086579	0	0	0	0	0	0
3.071272	-0.07428411	-0.1086579	0	0	0	0	0	0
3.087839	-0.07428411	-0.1086579	0	0	0	0	0	0
3.104405	-0.07428411	-0.1086579	0	0	0	0	0	0
3.121164	-0.07428411	-0.1086188	0	0.002331791	0	0.06997081	0	0
3.13754	-0.07425794	-0.1085993	0.001598376	0.001193436	0.04823942	-0.03435588	0	0
3.237247	-0.07373451	-0.1081694	0.005249694	0.004311154	0.03145446	0.02685774	0	0
3.253506	-0.07373451	-0.1081694	0	0	-0.04526903	-0.03717584	0	0
3.270075	-0.07373451	-0.1082085	0	-0.002358151	0	-0.07183437	0	0
3.28664	-0.07376067	-0.108228	-0.001579614	-0.001179313	-0.04767422	0.03557843	0	0
3.303292	-0.07376067	-0.1082671	0	-0.002346748	0.04755411	-0.0351455	0	0
3.324871	-0.07378685	-0.1082867	-0.001212932	-0.0009052967	-0.03172628	0.03770359	0	0
3.34144	-0.07376067	-0.1083062	0.001579632	-0.00117944	0.07320218	-0.007186198	0	0
3.358331	-0.07376067	-0.1083062	0	0	-0.04720902	0.03524886	0	0
3.374842	-0.07378685	-0.1082867	-0.001585266	0.001183647	-0.04746094	0.03543696	0	0
3.391354	-0.07378685	-0.1082867	0	0	0.04800542	-0.0358435	0	0
3.407866	-0.07378685	-0.1082867	0	0	0	0	0	0
3.424379	-0.07376067	-0.1083062	0.001585037	-0.001183476	0.04799503	-0.03583574	0	0
3.44084	-0.07376067	-0.1083062	0	0	-0.04806929	0.03589119	0	0
3.45741	-0.07373451	-0.1083257	0.001579159	-0.001178974	0.04780877	-0.03569322	0	0
3.473973	-0.07373451	-0.1083257	0	0	-0.0476605	0.03558252	0	0
3.490539	-0.07370833	-0.1083453	0.001580018	-0.001179729	0.0476926	-0.03560993	0	0
3.507106	-0.07368216	-0.1083648	0.001579905	-0.001179194	-3.432835E-06	1.613468E-05	0	0
3.523674	-0.07362981	-0.1083648	0.003159582	0	0.04767441	0.0355879	0	0
3.54024	-0.07360364	-0.1083844	0.00157995	-0.001179678	-0.04767372	-0.03560301	0	0
3.556981	-0.07357746	-0.1084039	0.001563412	-0.001166885	-0.0004965123	0.0003840842	0	0
3.573374	-0.07357746	-0.1084039	0	0	-0.04718422	0.03521691	0	0
3.589995	-0.07357746	-0.1084039	0	0	0	0	0	0
3.606506	-0.07357746	-0.1084039	0	0	0	0	0	0
3.623072	-0.07355129	-0.1083844	0.001579973	0.001179245	0.04776651	0.03565152	0	0
3.639641	-0.07352512	-0.1083648	0.001579723	0.001179508	-7.546775E-06	7.936762E-06	0	0
3.656206	-0.07352512	-0.1083648	0	0	-0.04767716	-0.0355984	0	0
3.672773	-0.07344659	-0.1083844	0.004739577	-0.00117961	0.14305	-0.03560301	0	0
3.689339	-0.07342042	-0.1084039	0.00157995	-0.001179228	-0.09536049	1.152435E-05	0	0
3.705906	-0.07331572	-0.108482	0.006319618	-0.004717677	0.1430496	-0.1067952	0	0
3.722588	-0.0730278	-0.108697	0.01725938	-0.0128848	0.329024	-0.2456342	0	0
3.7391	-0.06928366	-0.1114929	0.2267534	-0.1693283	6.311143	-4.712962	0	0
3.755608	-0.06362453	-0.115722	0.3428144	-0.2561837	3.514894	-2.630407	0	0
3.772172	-0.05562676	-0.1217056	0.4828295	-0.3612358	4.233616	-3.176443	0	0
3.788739	-0.05035214	-0.1256568	0.3183952	-0.2385055	-4.963208	3.704436	0	0
3.805648	-0.04612515	-0.1287868	0.2499861	-0.18511	-2.043578	1.595076	0	0
3.821872	-0.04447066	-0.1300281	0.1019758	-0.07650717	-4.467121	3.277759	0	0
3.838671	-0.04452319	-0.129831	-0.00312673	0.01173078	-3.18265	2.671967	0	0
3.855006	-0.04452319	-0.129831	0	0	0.09436557	-0.3540382	0	0
3.971265	-0.04460198	-0.1298507	-0.0006777443	-0.0001694441	-0.005111439	-0.00127792	0	0
3.987541	-0.04465451	-0.1298507	-0.003227265	0	-0.01923666	0.00127849	0	0
4.004105	-0.04465451	-0.1298507	0	0	0.09827306	0	0	0
4.0208	-0.04465451	-0.1298507	0	0	0	0	0	0
4.037239	-0.04468077	-0.1298704	-0.001597625	-0.001199239	-0.04821711	-0.03619361	0	0
4.053825	-0.04468077	-0.1298704	0	0	0.04837584	0.03631276	0	0
4.070372	-0.04470703	-0.1298901	-0.001587174	-0.001190493	-0.0479024	-0.03593019	0	0
4.087349	-0.0447333	-0.1299098	-0.001547008	-0.001161243	0.001198138	0.0008725062	0	0
4.103506	-0.0447333	-0.1299492	0	-0.002439389	0.04668947	-0.03857506	0	0
4.120072	-0.04478582	-0.1299886	-0.003170785	-0.002379213	-0.09689791	0.00183894	0	0
4.136638	-0.04481208	-0.1300083	-0.001585122	-0.001189123	0.04785885	0.03591959	0	0
4.153394	-0.04483835	-0.1300281	-0.001567436	-0.001176577	0.0005307712	0.0003764911	0	0
4.169909	-0.04483835	-0.1300281	0	0	0.0471114	0.03536362	0	0
4.190256	-0.04483835	-0.1300281	0	0	0	0	0	0
4.206931	-0.04483835	-0.1300281	0	0	0	0	0	0
4.223389	-0.04483835	-0.1300281	0	0	0	0	0	0
4.239956	-0.04483835	-0.1300281	0	0	0	0	0	0
4.273478	-0.04486461	-0.1300478	-0.0007834615	-0.0005876517	-0.01564142	-0.01173218	0	0
4.289657	-0.04486461	-0.1300478	0	0	0.01576358	0.0118238	0	0
4.306222	-0.04489087	-0.1300675	-0.001585393	-0.001190056	-0.0484172	-0.03634381	0	0
4.322789	-0.04491714	-0.1300872	-0.001585301	-0.001189988	2.754681E-06	2.069524E-06	0	0
4.339355	-0.0449434	-0.1301069	-0.001585347	-0.001189123	-1.377321E-06	2.611288E-05	0	0
4.355925	-0.0449434	-0.1301069	0	0	0.04784449	0.03588676	0	0
4.37249	-0.0449434	-0.1301069	0	0	0	0	0	0
4.389057	-0.0449434	-0.1301069	0	0	0	0	0	0
4.405622	-0.0449434	-0.1301069	0	0	0	0	0	0
4.422189	-0.04496966	-0.1301266	-0.001585301	-0.001189988	-0.04784793	-0.03591649	0	0
4.438756	-0.04496966	-0.1301266	0	0	0.04784587	0.03591494	0	0
4.455322	-0.04496966	-0.1301266	0	0	0	0	0	0
4.47189	-0.04496966	-0.1301266	0	0	0	0	0	0
4.488629	-0.04499592	-0.1301463	-0.001568776	-0.00117775	-0.04710038	-0.03536037	0	0
4.505023	-0.04499592	-0.1301463	0	0	0.04734916	0.03554714	0	0
4.521589	-0.04499592	-0.1301463	0	0	0	0	0	0
4.538157	-0.04502219	-0.130166	-0.001585256	-0.001189054	-0.0478438	-0.03588624	0	0
4.554723	-0.04504845	-0.1301857	-0.001585347	-0.001190022	-2.754602E-06	-2.921494E-05	0	0
4.571292	-0.04507471	-0.1302054	-0.001585073	-0.001189817	8.26333E-06	6.204524E-06	0	0
4.587856	-0.0451535	-0.1302646	-0.004756364	-0.003569578	-0.09571248	-0.07182341	0	0
4.604423	-0.04517976	-0.1302843	-0.001585347	-0.001189123	0.09571248	0.07185056	0	0
4.621224	-0.04525855	-0.1303828	-0.004689274	-0.005865972	-0.09302209	-0.1401612	0	0
4.637556	-0.04531107	-0.1304222	-0.003215919	-0.002414163	0.04446723	0.1041788	0	0
4.654246	-0.04559994	-0.1306391	-0.01730794	-0.01299122	-0.4267412	-0.3202995	0	0
4.670691	-0.04620393	-0.1311319	-0.03672745	-0.02997057	-0.5860651	-0.512423	0	0
4.687255	-0.04662408	-0.1314474	-0.02536538	-0.01904669	0.3442107	0.3309357	0	0
4.703825	-0.04796319	-0.1324533	-0.08081917	-0.06070853	-1.673671	-1.257411	0	0
4.720389	-0.04951213	-0.133657	-0.09351071	-0.07266628	-0.3830423	-0.360896	0	0
4.737305	-0.04948588	-0.1336373	0.001551929	0.001166314	2.839372	2.205264	0	0
4.753524	-0.04948588	-0.1336373	0	0	-0.04683664	-0.03519893	0	0
4.77033	-0.04948588	-0.1336373	0	0	0	0	0	0
4.786656	-0.04948588	-0.1336373	0	0	0	0	0	0
4.803356	-0.04948588	-0.1336373	0	0	0	0	0	0
4.819864	-0.04943338	-0.1336767	0.003180288	-0.00239114	0.09576903	-0.07200515	0	0
4.836356	-0.04938088	-0.1337162	0.00318364	-0.00239349	0.0001015847	-7.123208E-05	0	0
4.852923	-0.04930212	-0.1337754	0.004753743	-0.003574358	0.0474938	-0.03571988	0	0
4.869491	-0.04906585	-0.1339926	0.01426041	-0.01310493	0.2869035	-0.2876248	0	0
4.924637	-0.03075346	-0.1477906	0.3320698	-0.2502075	4.431597	-3.306206	0	0
4.941204	-0.01902402	-0.1566619	0.7080108	-0.5354882	5.242302	-3.978091	0	0
4.957772	-0.01076274	-0.1629278	0.4986373	-0.3782046	-6.318903	4.74683	0	0
4.974339	-0.002684204	-0.1690707	0.4876075	-0.370771	-0.3328708	0.2243407	0	0
4.990904	0.007999829	-0.17722	0.6450009	-0.4919783	4.750482	-3.658309	0	0
5.0075	0.01568292	-0.1830994	0.4629398	-0.3542604	-5.49027	4.15305	0	0
5.024038	0.02325896	-0.188954	0.4580949	-0.3540072	-0.1462186	0.007640708	0	0
5.040606	0.03290917	-0.1963857	0.5824874	-0.4485748	3.757472	-2.856562	0	0
5.057172	0.04184398	-0.2033748	0.539322	-0.4218782	-1.302753	0.8057163	0	0
5.073739	0.04798944	-0.2081829	0.3709622	-0.290235	-5.081329	3.973171	0	0
5.090304	0.055207	-0.2139221	0.4356904	-0.3464503	1.953642	-1.696705	0	0
5.145235	0.06089829	-0.2240706	0.1036094	-0.1847525	-4.644749	2.261634	0	0
5.162106	0.05253058	-0.2337738	-0.4959828	-0.5751383	-8.350729	-5.437038	0	0
5.17837	0.04357766	-0.2411595	-0.5504759	-0.4541145	-1.644581	3.652454	0	0
5.194935	0.03703569	-0.2463271	-0.394908	-0.3119423	4.738623	4.330588	0	0
5.211503	0.024311	-0.2564105	-0.7680638	-0.6086383	-11.26235	-8.954691	0	0
5.228153	0.01557769	-0.2633576	-0.5245169	-0.4172364	7.331901	5.762092	0	0
5.244663	0.005052588	-0.271761	-0.6374796	-0.5089765	-3.406524	-2.766531	0	0
5.261202	-0.002131576	-0.2774756	-0.4343871	-0.3455268	6.145172	4.945663	0	0
5.277769	-0.008841875	-0.2828687	-0.4050345	-0.3255274	0.8866308	0.6041024	0	0
5.294335	-0.01676159	-0.2892548	-0.4780761	-0.3855027	-2.204496	-1.810136	0	0
5.327499	-0.02341677	-0.2946824	-0.2006719	-0.163656	5.578173	4.460998	0	0
5.344035	-0.03083233	-0.3006607	-0.448469	-0.3615491	-4.985879	-3.98177	0	0
5.360744	-0.03396062	-0.3032075	-0.1872129	-0.1524128	7.858489	6.290744	0	0
5.377261	-0.03396062	-0.3032075	0	0	5.634527	4.587152	0	0
5.393772	-0.03385548	-0.303079	0.006367863	0.007781139	0.192804	0.2355947	0	0
5.410301	-0.03385548	-0.3030362	0	0.002590945	-0.1927289	-0.1570857	0	0
5.426868	-0.03388176	-0.3029719	-0.001586605	0.003878368	-0.04793902	0.03889929	0	0
5.443803	-0.03388176	-0.3029291	0	0.002528861	0.04735837	-0.04028125	0	0
5.460002	-0.03388176	-0.3028863	0	0.002643799	0	0.003468943	0	0
5.476568	-0.03385548	-0.3027792	0.001586696	0.006461919	0.04842669	0.1165308	0	0
5.493135	-0.03382919	-0.3027578	0.001586605	0.001293389	-2.758115E-06	-0.155991	0	0
5.509701	-0.03377662	-0.3026721	0.003173484	0.005170404	0.04789417	0.1170136	0	0
5.526268	-0.03369777	-0.3025651	0.004759951	0.006461733	0.04788245	0.03897465	0	0
5.559405	-0.03364519	-0.3024795	0.001586491	0.002583893	-0.06384771	-0.07801931	0	0
5.57597	-0.03361891	-0.3024581	0.001586788	0.001291739	5.970417E-06	-0.02599795	0	0
5.592537	-0.03361891	-0.3024581	0	0	-0.0478921	-0.03898699	0	0
5.609102	-0.03364519	-0.3024795	-0.001586879	-0.001291813	-0.04789624	-0.03899036	0	0
5.632768	-0.03364519	-0.3024795	0	0	0.03944443	0.03211009	0	0
5.649336	-0.03364519	-0.3024795	0	0	0	0	0	0
5.665903	-0.03364519	-0.3024795	0	0	0	0	0	0
5.682477	-0.03364519	-0.3024795	0	0	0	0	0	0
5.699037	-0.03364519	-0.3024795	0	0	0	0	0	0
5.715603	-0.03364519	-0.3024795	0	0	0	0	0	0
5.73217	-0.03364519	-0.3024795	0	0	0	0	0	0
5.798442	-0.03364519	-0.3024795	0	0	0	0	0	0
5.815004	-0.03364519	-0.3024795	0	0	0	0	0	0
5.831581	-0.03364519	-0.3024795	0	0	0	0	0	0
5.848138	-0.03364519	-0.3024795	0	0	0	0	0	0
5.864708	-0.03364519	-0.3024795	0	0	0	0	0	0
5.881274	-0.03364519	-0.3024795	0	0	0	0	0	0
5.897842	-0.03364519	-0.3024795	0	0	0	0	0	0
5.914642	-0.03364519	-0.3024795	0	0	0	0	0	0
5.931158	-0.03364519	-0.3024795	0	0	0	0	0	0
5.947662	-0.03364519	-0.3024795	0	0	0	0	0	0
5.96411	-0.03364519	-0.3024795	0	0	0	0	0	0
5.980673	-0.03364519	-0.3024795	0	0	0	0	0	0
5.99724	-0.03364519	-0.3024795	0	0	0	0	0	0
6.014212	-0.03364519	-0.3024795	0	0	0	0	0	0
6.030371	-0.03364519	-0.3024795	0	0	0	0	0	0
6.047232	-0.03361891	-0.3024581	0.001558921	0.001269053	0.0472107	0.03843229	0	0
6.063504	-0.03354005	-0.3022654	0.004846383	0.01184066	0.09921866	0.3190609	0	0
6.080072	-0.03340862	-0.3019443	0.007933021	0.01937869	0.09399083	0.2295396	0	0
6.096775	-0.03269887	-0.3012382	0.04249324	0.04227511	1.038769	0.6881928	0	0
6.113206	-0.03088491	-0.2995062	0.1103928	0.1054066	2.049214	1.905313	0	0
6.129771	-0.02954403	-0.2982884	0.0809496	0.07352179	-0.8923221	-0.9663193	0	0
6.146337	-0.02686196	-0.2955565	0.1618997	0.1649031	2.44336	2.75821	0	0
6.162904	-0.02215427	-0.291275	0.2841648	0.2584442	3.690128	2.823197	0	0
6.179471	-0.01823482	-0.2876403	0.2365784	0.2193904	-1.436182	-1.178662	0	0
6.19604	-0.009420774	-0.2801596	0.5319557	0.4514828	8.913992	7.00416	0	0
6.212606	-0.002263154	-0.274205	0.4320597	0.3594407	-3.014782	-2.777759	0	0
6.22917	0.002447363	-0.2699722	0.2843929	0.2555526	-4.457234	-3.135799	0	0
6.245738	0.0128414	-0.257288	0.6273673	0.7655976	10.35203	15.39474	0	0
6.262385	0.01933969	-0.2498837	0.3903391	0.44476	-7.136065	-9.659266	0	0
6.278871	0.02210166	-0.2435444	0.1675422	0.3845417	-6.724315	-1.817471	0	0
6.295438	0.02638861	-0.2214416	0.2587532	1.33409	2.759543	28.72813	0	0
6.312004	0.02683566	-0.2133496	0.0269872	0.4884949	-6.995013	-25.52122	0	0
6.32857	0.02780862	-0.2003651	0.05872957	0.7837685	0.9580557	8.912015	0	0
6.361703	0.02878152	-0.1634275	0.02936358	1.114827	-0.5908676	6.661165	0	0
6.38411	0.02822934	-0.1463615	-0.02464379	0.7616474	-0.9724118	-6.359056	0	0
6.400982	0.02815046	-0.1349007	-0.004675379	0.6792627	0.5083739	-2.097425	0	0
6.417244	0.02822934	-0.1207826	0.004850856	0.8681638	0.2875023	5.701047	0	0
6.433811	0.02807157	-0.1138415	-0.009523276	0.4189769	-0.4378512	-13.6827	0	0
6.450379	0.02759825	-0.09705699	-0.02856781	1.013059	-0.5747569	17.92916	0	0
6.466945	0.02723011	-0.09052847	-0.0222238	0.394108	0.1914683	-18.6805	0	0
6.48354	0.02762455	-0.07776992	0.02376804	0.7688018	1.386939	11.29934	0	0
6.500079	0.0279401	-0.06593568	0.01907885	0.7155313	-0.1415201	-1.607708	0	0
6.516644	0.0279138	-0.06068983	-0.001587462	0.3166766	-0.6242766	-12.04838	0	0
6.533211	0.0292811	-0.05416996	0.08253293	0.3935516	2.538941	2.320261	0	0
6.549779	0.03075346	-0.04552492	0.08886912	0.5218001	0.1912268	3.870547	0	0
6.567102	0.03183135	-0.03890523	0.0622213	0.3821224	-0.7862755	-4.121355	0	0
6.632645	0.02922852	-0.03576265	-0.03971233	0.04794748	-1.230106	-4.032729	0	0
6.649179	0.02920222	-0.03570554	-0.001590259	0.003453822	0.4644724	-0.5421026	0	0
6.665744	0.02899187	-0.03555326	-0.01269812	0.009192843	-0.3355934	0.1733886	0	0
6.68268	0.02707233	-0.03416403	-0.1133422	0.08202872	-3.004197	2.174131	0	0
6.698877	0.01955014	-0.0287274	-0.4644128	0.3356525	-10.59579	7.654712	0	0
6.715445	0.01297296	-0.02398293	-0.3969882	0.2863689	2.05783	-1.50416	0	0
6.732219	0.00639465	-0.01924563	-0.3921687	0.2824158	0.1445492	-0.1185608	0	0
6.748578	0.0004473684	-0.01496921	-0.3635407	0.2614056	0.8640194	-0.6341071	0	0
6.765144	-0.004973643	-0.01111398	-0.3272412	0.2327224	1.102487	-0.8711666	0	0
6.781751	-0.007184087	-0.009527868	-0.1331047	0.0955097	5.852313	-4.136324	0	0
6.798277	-0.007157772	-0.009546746	0.001592289	-0.0011423	4.065338	-2.917089	0	0
6.814848	-0.007157772	-0.009546746	0	0	-0.04810937	0.03451343	0	0
6.831411	-0.007184087	-0.009527868	-0.001588713	0.001139735	-0.04794747	0.03439728	0	0
6.8483	-0.007184087	-0.009527868	0	0	0.04749296	-0.03407121	0	0
6.864545	-0.007184087	-0.009527868	0	0	0	0	0	0
6.88111	-0.007184087	-0.009527868	0	0	0	0	0	0
6.897833	-0.007184087	-0.009527868	0	0	0	0	0	0
6.91435	-0.007184087	-0.009527868	0	0	0	0	0	0
6.930811	-0.007157772	-0.009546746	0.001598562	-0.0011468	0.04847279	-0.03477415	0	0
6.947379	-0.007131458	-0.009603379	0.001588274	-0.00341832	-0.0003114822	-0.06877332	0	0
6.963944	-0.007210401	-0.009811046	-0.004765563	-0.01253621	-0.1917675	-0.2751902	0	0
6.980517	-0.00726303	-0.01026418	-0.00317569	-0.02734263	0.04797764	-0.4468136	0	0
6.997078	-0.007578802	-0.01052854	-0.01906662	-0.01596218	-0.479596	0.3434675	0	0
7.013924	-0.007605116	-0.01054742	-0.001562107	-0.001121	0.5239814	0.4442571	0	0
7.030211	-0.007736688	-0.01060407	-0.008077897	-0.00347815	-0.1966554	-0.071142	0	0
7.046939	-0.00781563	-0.01066073	-0.004719347	-0.00338679	0.1017272	0.002767205	0	0
7.063346	-0.00923658	-0.01164286	-0.08660372	-0.05985864	-2.47124	-1.704299	0	0
7.079963	-0.01144687	-0.01323001	-0.1330151	-0.09551464	-1.405371	-1.07969	0	0
7.09648	-0.01163105	-0.0133245	-0.01115156	-0.005721397	3.677955	2.710043	0	0
7.113048	-0.01163105	-0.0133245	0	0	0.3370639	0.1729334	0	0
7.129997	-0.01163105	-0.0133245	0	0	0	0	0	0
7.146508	-0.01163105	-0.0133245	0	0	0	0	0	0
7.162748	-0.01163105	-0.0133245	0	0	0	0	0	0
7.179313	-0.01160474	-0.0133056	0.001588464	0.001140986	0.04842214	0.0347814	0	0
7.195879	-0.01155212	-0.0133056	0.003176688	0	0.04793823	-0.034439	0	0
7.212447	-0.01155212	-0.0133056	0	0	-0.09587402	0	0	0
7.229012	-0.01152581	-0.0133245	0.001588464	-0.001140986	0.047942	-0.03443652	0	0
7.251519	-0.01152581	-0.0133245	0	0	-0.04065474	0.02920212	0	0
7.268095	-0.01152581	-0.0133245	0	0	0	0	0	0
7.35092	-0.01131531	-0.01347571	0.002541508	-0.001825578	0.02556824	-0.01836579	0	0
7.367488	-0.01123637	-0.01353241	0.004764238	-0.003422283	0.02236306	-0.01606458	0	0
7.384179	-0.01115743	-0.01358911	0.004729585	-0.003397406	-0.00104192	0.0007479666	0	0
7.400687	-0.01115743	-0.01358911	0	0	-0.1424624	0.1023351	0	0
7.417204	-0.01113112	-0.01360801	0.001593095	-0.001144369	0.04823869	-0.03465134	0	0
7.433753	-0.01113112	-0.01360801	0	0	-0.04817887	0.03460836	0	0
7.45032	-0.01113112	-0.01360801	0	0	0	0	0	0
7.466888	-0.01113112	-0.01360801	0	0	0	0	0	0
7.50002	-0.01115743	-0.01362692	-0.0007941861	-0.0005705165	-0.01597967	-0.01147925	0	0
7.516769	-0.01115743	-0.01362692	0	0	0.01592147	0.01143744	0	0
7.533154	-0.01113112	-0.01364582	0.001605985	-0.001153628	0.04846942	-0.03481708	0	0
7.549794	-0.01113112	-0.01364582	0	0	-0.04863038	0.0349327	0	0
7.56629	-0.01113112	-0.01364582	0	0	0	0	0	0
7.582853	-0.01113112	-0.01364582	0	0	0	0	0	0
7.599422	-0.01113112	-0.01360801	0	0.002281616	0	0.06886425	0	0
7.615988	-0.01113112	-0.01360801	0	0	0	-0.06885929	0	0
7.632555	-0.01113112	-0.01360801	0	0	0	0	0	0
7.649122	-0.01113112	-0.01360801	0	0	0	0	0	0
7.66588	-0.01113112	-0.01360801	0	0	0	0	0	0
7.682253	-0.01113112	-0.01360801	0	0	0	0	0	0
7.69882	-0.01113112	-0.01360801	0	0	0	0	0	0
7.715412	-0.01113112	-0.01360801	0	0	0	0	0	0
7.731954	-0.01113112	-0.01360801	0	0	0	0	0	0
7.748519	-0.01113112	-0.01360801	0	0	0	0	0	0
7.765086	-0.01113112	-0.01360801	0	0	0	0	0	0
7.781653	-0.01113112	-0.01360801	0	0	0	0	0	0
7.79822	-0.01115743	-0.01358911	-0.001588281	0.001140911	-0.0479351	0.03443326	0	0
7.814787	-0.01115743	-0.01358911	0	0	0.0479351	-0.03443326	0	0
7.831496	-0.01115743	-0.01358911	0	0	0	0	0	0
7.848006	-0.01115743	-0.01358911	0	0	0	0	0	0
7.864538	-0.01115743	-0.01358911	0	0	0	0	0	0
7.881053	-0.01113112	-0.01360801	0.001593233	-0.001144469	0.04821015	-0.03463084	0	0
7.897624	-0.01113112	-0.01360801	0	0	-0.04815526	0.03459141	0	0
7.914187	-0.01113112	-0.01360801	0	0	0	0	0	0
7.931066	-0.01115743	-0.01358911	-0.001558891	0.0011198	-0.04661409	0.03348434	0	0
7.952096	-0.01115743	-0.01358911	0	0	0.04112139	-0.02953876	0	0
7.968664	-0.01113112	-0.01360801	0.001588189	-0.001140845	0.04224118	-0.03034314	0	0
7.98523	-0.01113112	-0.01360801	0	0	-0.04793234	0.03443127	0	0
8.002114	-0.01113112	-0.01360801	0	0	0	0	0	0
8.018624	-0.01113112	-0.01360801	0	0	0	0	0	0
8.03514	-0.01113112	-0.01360801	0	0	0	0	0	0
8.051497	-0.01113112	-0.01360801	0	0	0	0	0	0
8.068063	-0.01113112	-0.01360801	0	0	0	0	0	0
8.101198	-0.01113112	-0.01360801	0	0	0	0	0	0
8.117763	-0.01113112	-0.01360801	0	0	0	0	0	0
8.134331	-0.01113112	-0.01360801	0	0	0	0	0	0
8.150897	-0.01113112	-0.01360801	0	0	0	0	0	0
8.167463	-0.01113112	-0.01360801	0	0	0	0	0	0
8.18403	-0.01113112	-0.01360801	0	0	0	0	0	0
8.200755	-0.01113112	-0.01360801	0	0	0	0	0	0
8.217163	-0.01113112	-0.01360801	0	0	0	0	0	0
8.233777	-0.01113112	-0.01360801	0	0	0	0	0	0
8.250297	-0.01113112	-0.01360801	0	0	0	0	0	0
8.266863	-0.01113112	-0.01360801	0	0	0	0	0	0
8.283429	-0.01113112	-0.01360801	0	0	0	0	0	0
8.299999	-0.01113112	-0.01360801	0	0	0	0	0	0
8.316566	-0.01113112	-0.01360801	0	0	0	0	0	0
8.333133	-0.01113112	-0.01360801	0	0	0	0	0	0
8.366265	-0.01113112	-0.01360801	0	0	0	0	0	0
8.382885	-0.01113112	-0.01360801	0	0	0	0	0	0
8.3994	-0.01113112	-0.01360801	0	0	0	0	0	0
8.415967	-0.01113112	-0.01360801	0	0	0	0	0	0
8.432533	-0.01113112	-0.01360801	0	0	0	0	0	0
8.4491	-0.01113112	-0.01360801	0	0	0	0	0	0
8.465665	-0.01113112	-0.01360801	0	0	0	0	0	0
8.482458	-0.01113112	-0.01360801	0	0	0	0	0	0
8.498963	-0.01113112	-0.01360801	0	0	0	0	0	0
8.515365	-0.01113112	-0.01360801	0	0	0	0	0	0
8.531931	-0.01113112	-0.01360801	0	0	0	0	0	0
8.548503	-0.01113112	-0.01360801	0	0	0	0	0	0
8.565066	-0.01113112	-0.01360801	0	0	0	0	0	0
8.581632	-0.01113112	-0.01360801	0	0	0	0	0	0
8.598198	-0.01113112	-0.01360801	0	0	0	0	0	0
8.631562	-0.01113112	-0.01360801	0	0	0	0	0	0
8.647898	-0.01113112	-0.01360801	0	0	0	0	0	0
8.664463	-0.01113112	-0.01360801	0	0	0	0	0	0
8.681099	-0.01113112	-0.01360801	0	0	0	0	0	0
8.704085	-0.01113112	-0.01360801	0	0	0	0	0	0
8.720654	-0.01110481	-0.01362692	0.001588144	-0.001140869	0.04015067	-0.02884289	0	0
8.73722	-0.01113112	-0.01364582	-0.001588327	-0.001140944	-0.09586606	-2.266157E-06	0	0
8.753787	-0.01113112	-0.01364582	0	0	0.04793717	0.03443474	0	0
8.770356	-0.01113112	-0.01364582	0	0	0	0	0	0
8.787168	-0.01110481	-0.01362692	0.00156517	0.00112431	0.04688875	0.03368163	0	0
8.803679	-0.01110481	-0.01362692	0	0	-0.04696926	-0.03373947	0	0
8.820055	-0.01110481	-0.01362692	0	0	0	0	0	0
8.836621	-0.01110481	-0.01362692	0	0	0	0	0	0
8.853188	-0.01110481	-0.01362692	0	0	0	0	0	0
8.869753	-0.01110481	-0.01362692	0	0	0	0	0	0
8.886319	-0.01110481	-0.01362692	0	0	0	0	0	0
8.903252	-0.01110481	-0.01362692	0	0	0	0	0	0
8.919454	-0.01110481	-0.01362692	0	0	0	0	0	0
8.936273	-0.01110481	-0.01362692	0	0	0	0	0	0
8.952587	-0.01110481	-0.01362692	0	0	0	0	0	0
8.969154	-0.01110481	-0.01362692	0	0	0	0	0	0
8.985809	-0.01110481	-0.01362692	0	0	0	0	0	0
9.002286	-0.01110481	-0.01362692	0	0	0	0	0	0
9.019332	-0.01110481	-0.01362692	0	0	0	0	0	0
9.035419	-0.01110481	-0.01362692	0	0	0	0	0	0
9.051988	-0.01107849	-0.01364582	0.001588144	-0.001140813	0.04863295	-0.03493454	0	0
9.068865	-0.01107849	-0.01364582	0	0	-0.04748473	0.03410974	0	0
9.085381	-0.01107849	-0.01364582	0	0	0	0	0	0
9.101686	-0.01105218	-0.01366472	0.00161363	-0.001159218	0.04916357	-0.0353187	0	0
9.118252	-0.01105218	-0.01366472	0	0	-0.0490894	0.03526542	0	0
9.134818	-0.01105218	-0.01366472	0	0	0	0	0	0
9.151385	-0.01105218	-0.01366472	0	0	0	0	0	0
9.167953	-0.01105218	-0.01366472	0	0	0	0	0	0
9.184519	-0.01105218	-0.01366472	0	0	0	0	0	0
9.201083	-0.01105218	-0.01366472	0	0	0	0	0	0
9.217649	-0.01102587	-0.01368362	0.001588327	-0.001141	0.04794131	-0.03443941	0	0
9.234219	-0.01102587	-0.01368362	0	0	-0.04793441	0.03443446	0	0
9.250785	-0.01102587	-0.01368362	0	0	0	0	0	0
9.267406	-0.01102587	-0.01368362	0	0	0	0	0	0
9.283918	-0.01102587	-0.01368362	0	0	0	0	0	0
9.300485	-0.01102587	-0.01368362	0	0	0	0	0	0
9.317051	-0.01099956	-0.01370252	0.001588327	-0.001141	0.04793855	-0.03443743	0	0
9.333617	-0.01094693	-0.01374033	0.003176653	-0.002282	0.04793855	-0.03443743	0	0
9.350183	-0.01086799	-0.01379703	0.00476498	-0.003423057	0.04793855	-0.03443913	0	0
9.367075	-0.01073643	-0.01389155	0.007788792	-0.005595386	0.09037701	-0.06492752	0	0
9.383317	-0.0106838	-0.01392935	0.003240071	-0.002327672	-0.1372846	0.09862264	0	0
9.421239	-0.0106838	-0.01392935	0	0	-0.05981971	0.04297457	0	0
9.437805	-0.0106838	-0.01392935	0	0	0	0	0	0
9.454371	-0.0106838	-0.01392935	0	0	0	0	0	0
9.470938	-0.01065749	-0.01391045	0.001588327	0.001141056	0.04793855	0.03443913	0	0
9.487655	-0.01065749	-0.01383484	0	0.004523085	-0.04772152	0.1016136	0	0
9.504169	-0.01057855	-0.01377813	0.004780115	0.003433985	0.143846	-0.03277382	0	0
9.52068	-0.01034174	-0.01353241	0.01434217	0.01488155	0.2895334	0.3466255	0	0
9.537207	-0.01028911	-0.01349461	0.003184409	0.002287418	-0.3377236	-0.3811998	0	0
9.553772	-0.01023648	-0.013419	0.003176836	0.004563869	-0.0002288374	0.06879253	0	0
9.570341	-0.01021017	-0.0134001	0.001588108	0.001140691	-0.04794789	-0.1033117	0	0
9.586905	-0.01018386	-0.0133812	0.001588509	0.001141019	1.210057E-05	9.911647E-06	0	0
9.603472	-0.01018386	-0.0133812	0	0	-0.04794683	-0.03443999	0	0
9.620249	-0.01018386	-0.0133812	0	0	0	0	0	0
9.636604	-0.01018386	-0.0133812	0	0	0	0	0	0
9.653171	-0.01018386	-0.0133812	0	0	0	0	0	0
9.669785	-0.01023648	-0.01323001	-0.003167592	0.009100681	-0.09546622	0.2742802	0	0
9.686304	-0.0102628	-0.01294653	-0.00159282	0.01716009	0.04752809	0.2432404	0	0
9.702869	-0.0104733	-0.0125686	-0.01270751	0.02281457	-0.3359449	0.1709083	0	0
9.719436	-0.01086799	-0.01209625	-0.02382501	0.02851275	-0.3355557	0.1719862	0	0
9.736002	-0.0121573	-0.01113287	-0.07782693	0.05815317	-1.629875	0.8946013	0	0
9.752841	-0.01802436	-0.006923792	-0.3484209	0.2499595	-8.100328	5.741791	0	0
9.769136	-0.02875523	0.0007631693	-0.6585197	0.4717249	-9.358802	6.692894	0	0
9.785864	-0.03714081	0.006761	-0.5013066	0.3585622	4.760734	-3.426796	0	0
9.802375	-0.04475956	0.01220439	-0.4614359	0.3296835	1.199536	-0.8688357	0	0
9.818889	-0.05313415	0.01814478	-0.507126	0.3597218	-1.38351	0.9095673	0	0
9.835402	-0.05754167	0.02128891	-0.2668989	0.1903938	7.273517	-5.126855	0	0
9.851971	-0.05966594	0.02276643	-0.1282135	0.08917843	4.192169	-3.05953	0	0
9.868537	-0.06058366	0.02334605	-0.0553972	0.03498793	2.1976	-1.635472	0	0
9.885103	-0.06060988	0.02332735	-0.001582873	-0.001128632	1.624213	-1.090063	0	0
9.90167	-0.0606361	0.02330866	-0.001582648	-0.00112852	6.788321E-06	3.39416E-06	0	0
9.918458	-0.0606361	0.02327126	0	-0.002227277	0.04744896	-0.03294155	0	0
9.934803	-0.06066232	0.02325257	-0.001604072	-0.00114391	-0.04841238	0.03269703	0	0
9.967936	-0.06058366	0.02330866	0.002374085	0.001692892	0.08040323	0.05733509	0	0
9.984502	-0.06055744	0.02336475	0.001582648	0.003385671	-0.01592465	0.03406075	0	0
10.00107	-0.06000682	0.02375733	0.03323764	0.02369813	0.9554046	0.6130664	0	0
10.01763	-0.05840718	0.02489747	0.09656022	0.06882261	1.911189	1.361938	0	0
10.0342	-0.05428871	0.02783025	0.2486056	0.1770332	4.589002	3.265991	0	0
10.05077	-0.04397164	0.03516115	0.6227037	0.4424686	11.2903	8.010857	0	0
10.06733	-0.03440747	0.04193811	0.577361	0.4091054	-1.368482	-1.006935	0	0
10.0839	-0.0244688	0.04892572	0.59983	0.4217241	0.6781153	0.3808355	0	0
10.11703	-0.003210515	0.06378824	0.6416502	0.4486035	0.8414558	0.5408335	0	0
10.13361	0.004157871	0.06892722	0.4445775	0.3100644	-3.964881	-2.787251	0	0
10.15518	0.01323607	0.07514826	0.4207931	0.288358	-0.6234805	-0.5690069	0	0
10.17175	0.01544614	0.07658683	0.1333924	0.08682699	-7.534976	-5.283675	0	0
10.18865	0.01541983	0.07656839	-0.001557087	-0.001091378	-4.032626	-2.627218	0	0
10.20516	0.01539352	0.07654995	-0.001593386	-0.00111678	-0.001086534	-0.0007603791	0	0
10.22145	0.01536721	0.07653151	-0.001614932	-0.001131882	-0.000656824	-0.0004603588	0	0
10.23802	0.0153409	0.07654995	-0.001588102	0.001113116	0.0008165715	0.06832445	0	0
10.25458	0.01531459	0.07656839	-0.001588066	0.001113052	1.061084E-06	-1.932437E-06	0	0
10.2712	0.0153409	0.07658683	0.001582873	0.001109412	0.09554239	-0.0001096812	0	0
10.28772	0.0153409	0.07662371	0	0.002233561	-0.04777257	0.03392787	0	0
10.30428	0.01536721	0.07664215	0.001588193	0.00111318	0.04801468	-0.03387165	0	0
10.32085	0.01544614	0.07669746	0.004764143	0.003338706	0.09585588	0.06717037	0	0
10.33742	0.01568292	0.07686342	0.0142932	0.01001759	0.2875957	0.2015751	0	0
10.35426	0.01576185	0.07691874	0.004685068	0.003283771	-0.2875572	-0.2015335	0	0
10.37055	0.01597233	0.07706624	0.01292366	0.009057322	0.2486554	0.1742561	0	0
10.38712	0.01639327	0.07736123	0.0254067	0.01780466	0.3799542	0.2662481	0	0
10.40368	0.01933969	0.07942563	0.1778671	0.1246217	4.601395	3.223839	0	0
10.42025	0.0248633	0.08336735	0.3334246	0.2379361	4.69514	3.420128	0	0
10.43682	0.03159475	0.08829864	0.4061942	0.2975678	2.195938	1.799483	0	0
10.45338	0.0409245	0.09563019	0.5633399	0.4426861	4.742805	4.379806	0	0
10.46995	0.04759561	0.1008414	0.4026684	0.3145494	-4.849911	-3.867844	0	0
10.48652	0.05392136	0.1069809	0.3818456	0.3706015	-0.6284539	1.691706	0	0
10.50308	0.05460356	0.1089219	0.0411799	0.1171646	-10.2819	-7.649183	0	0
10.53621	0.05079836	0.1256444	-0.1148444	0.5047019	-3.139336	7.797566	0	0
10.55278	0.04796319	0.1350505	-0.1711415	0.5677863	-1.132743	1.269309	0	0
10.56935	0.04491714	0.1430581	-0.1838388	0.483285	-0.3831959	-2.55018	0	0
10.58593	0.04250071	0.150582	-0.1457804	0.4539053	1.148243	-0.8864003	0	0
10.60248	0.04105587	0.1565178	-0.08727116	0.3585317	1.765964	-2.878631	0	0
10.61905	0.04003124	0.1616138	-0.06185035	0.307614	0.7674889	-1.537274	0	0
10.63562	0.03813939	0.1657455	-0.1141919	0.2493893	-1.579718	-1.757275	0	0
10.65247	0.03882259	0.169983	0.04053085	0.251395	4.629172	0.06000915	0	0
10.66875	0.03679917	0.1736931	-0.1243018	0.2279159	-4.974658	-0.7085994	0	0
10.6855	0.03632612	0.1740188	-0.02824618	0.01944561	2.908507	-6.312358	0	0
10.70201	0.03637868	0.174055	0.003183205	0.002191019	0.9449507	-0.5187737	0	0
10.71852	0.03669405	0.1743082	0.01910274	0.01534158	0.4820898	0.3982373	0	0
10.73503	0.03745616	0.1748329	0.04615241	0.03177068	0.8191426	0.497521	0	0
10.75158	0.04129231	0.1775095	0.2317771	0.1617239	5.614122	3.930367	0	0
10.76815	0.04840952	0.1829139	0.4295958	0.3262101	5.973101	4.966633	0	0
10.78507	0.05100835	0.1854971	0.1536203	0.1526959	-8.241898	-5.181934	0	0
10.80128	0.0520057	0.1936199	0.06150299	0.5009005	-2.780185	10.50914	0	0
10.81785	0.05071962	0.1999493	-0.07763655	0.3820902	-4.24444	-3.624299	0	0
10.83442	0.04756935	0.2062195	-0.1901618	0.37849	-3.396312	-0.108663	0	0
10.87139	0.04342006	0.2092807	-0.1122277	0.08279783	1.45567	-5.523	0	0
10.88795	0.04541612	0.2109009	0.1204891	0.09779949	4.346733	0.2802042	0	0
10.90452	0.04856704	0.2130606	0.1901793	0.130354	2.103254	0.9824979	0	0
10.92116	0.04966964	0.2137804	0.06626297	0.043258	-3.731531	-2.622751	0	0
10.93765	0.04977464	0.2137084	0.006367054	-0.004365025	-1.807818	-1.43739	0	0
10.95469	0.0499584	0.2135825	0.01078834	-0.007395192	0.1318821	-0.09038659	0	0
10.97079	0.05008965	0.2134925	0.008151208	-0.005587761	-0.07958869	0.05454837	0	0
10.98771	0.05011589	0.2134745	0.001551315	-0.001062979	-0.199864	0.1370236	0	0
11.00422	0.05011589	0.2134745	0	0	-0.04639548	0.03179072	0	0
11.02049	0.05011589	0.2134745	0	0	0	0	0	0
11.10332	0.05019464	0.2134205	0.0009506916	-0.0006517537	0.009593613	-0.006576973	0	0
11.11989	0.05019464	0.2134205	0	0	-0.009564343	0.006556907	0	0
11.13645	0.0501684	0.2134025	-0.001584447	-0.001086581	-0.04782147	-0.03279497	0	0
11.15302	0.0501684	0.2134025	0	0	0.04782147	0.03279497	0	0
11.16959	0.0501684	0.2134025	0	0	0	0	0	0
11.18615	0.0501684	0.2134025	0	0	0	0	0	0
11.20272	0.0502209	0.2133305	0.003168938	-0.004344275	0.09564148	-0.1311143	0	0
11.21929	0.05029964	0.2132766	0.004753342	-0.003258844	0.04781881	0.03275933	0	0
11.23588	0.05043089	0.2131506	0.007906986	-0.007588516	0.09508958	-0.1305496	0	0
11.25242	0.05053588	0.2130066	0.006350078	-0.008707391	-0.04698894	-0.03376868	0	0
11.26941	0.05056213	0.2129886	0.001544872	-0.001058564	-0.14333	0.2281498	0	0
11.28555	0.05056213	0.2129526	0	-0.002229901	-0.04662298	-0.03535001	0	0
11.30212	0.05058838	0.2129346	0.00158463	-0.001085807	0.04844612	0.03497785	0	0
11.31869	0.05058838	0.2128986	0	-0.002173037	-0.04782836	-0.03281551	0	0
11.33545	0.05056213	0.2128447	-0.001565344	-0.003219552	-0.046957	-0.03139322	0	0
11.35182	0.05061463	0.2128087	0.00320786	-0.002198973	0.1440597	0.03080201	0	0
11.36839	0.05058838	0.2127907	-0.001584356	-0.001086519	-0.1455173	0.03378006	0	0
11.38496	0.05058838	0.2127547	0	-0.002172013	0.04781459	-0.03275933	0	0
11.40152	0.05058838	0.2127547	0	0	0	0.06555336	0	0
11.41809	0.05053588	0.2127187	-0.00316853	-0.002172013	-0.09562919	-0.06555336	0	0
11.43465	0.05050964	0.2127007	-0.00158463	-0.001086706	0.04780496	0.0327565	0	0
11.45154	0.05043089	0.2126107	-0.004664156	-0.005329834	-0.09206846	-0.1268566	0	0
11.46805	0.05040464	0.2125207	-0.001589572	-0.005448672	0.09206245	-0.003558364	0	0
11.48435	0.05035214	0.2123768	-0.00321968	-0.008830131	-0.04967141	-0.1030372	0	0
11.50107	0.05035214	0.2122688	0	-0.006458725	0.09749284	0.07180684	0	0
11.51749	0.05032589	0.2120708	-0.00159927	-0.01206148	-0.04826884	-0.1691013	0	0
11.53405	0.04966964	0.2110449	-0.0396116	-0.06192526	-1.152589	-1.511942	0	0
11.57213	0.04507471	0.2073541	-0.1206735	-0.09692885	-1.483438	-0.6405683	0	0
11.58853	0.03748244	0.1967041	-0.4630418	-0.6495258	-6.285001	-10.14426	0	0
11.60509	0.03398691	0.1866168	-0.2110149	-0.6089405	7.64602	1.231279	0	0
11.62166	0.03172619	0.1658542	-0.1364649	-1.253309	2.250118	-19.44876	0	0
11.63823	0.03156846	0.1570439	-0.009520979	-0.5317888	3.831284	21.77616	0	0
11.65479	0.03117411	0.1346316	-0.02380564	-1.352963	-0.4311367	-24.78452	0	0
11.67136	0.03117411	0.1257356	0	-0.5369623	0.7184969	24.62837	0	0
11.68793	0.03106895	0.1121429	-0.006347909	-0.8205077	-0.1915858	-8.557663	0	0
11.70472	0.03049055	0.09410607	-0.03445022	-1.074295	-0.8425036	-7.608519	0	0
11.72123	0.02933369	0.08038377	-0.07006207	-0.8310543	-1.069382	7.304236	0	0
11.73774	0.02723011	0.0623637	-0.1274049	-1.0914	-1.736459	-7.883801	0	0
11.75425	0.02609934	0.05341634	-0.06847838	-0.5418417	1.784365	16.64127	0	0
11.77076	0.02367978	0.03568289	-0.1465675	-1.074227	-2.364835	-16.12264	0	0
11.78733	0.02012886	0.01945517	-0.2143342	-0.9795074	-2.048859	2.86375	0	0
11.80389	0.01820851	0.01220439	-0.115919	-0.437683	2.970263	16.35276	0	0
11.82046	0.01265722	0.0002362019	-0.3350961	-0.722443	-6.615159	-8.59457	0	0
11.83731	0.00547363	-0.007999136	-0.4263621	-0.4887857	-2.731302	6.99262	0	0
11.85359	0.0007105262	-0.01134063	-0.2924851	-0.2051892	4.040532	8.559208	0	0
11.90336	-0.01878726	-0.02532962	-0.3917851	-0.2810923	-1.503373	-1.149151	0	0
11.91987	-0.02010255	-0.0263163	-0.07968014	-0.05977292	4.709334	3.339476	0	0
11.93643	-0.02128626	-0.02717041	-0.07147729	-0.0515751	0.2480625	0.2479101	0	0
11.95299	-0.02128626	-0.02717041	0	0	2.15781	1.556988	0	0
11.96956	-0.02128626	-0.02717041	0	0	0	0	0	0
11.98612	-0.02128626	-0.02717041	0	0	0	0	0	0
12.00269	-0.02128626	-0.02717041	0	0	0	0	0	0
12.01926	-0.02128626	-0.02717041	0	0	0	0	0	0
12.03583	-0.02128626	-0.02717041	0	0	0	0	0	0
12.05246	-0.02128626	-0.02717041	0	0	0	0	0	0
12.06897	-0.02128626	-0.02717041	0	0	0	0	0	0
12.08553	-0.02128626	-0.02717041	0	0	0	0	0	0
12.1025	-0.02128626	-0.02717041	0	0	0	0	0	0
12.11866	-0.02125995	-0.02715143	0.001627643	0.001174572	0.04912518	0.0354507	0	0
12.13552	-0.02123365	-0.02713245	0.001560158	0.001125872	-0.002043691	-0.00147481	0	0
12.15179	-0.02125995	-0.02711347	-0.001616387	0.00116645	-0.09587108	0.001224659	0	0
12.16836	-0.02123365	-0.02709448	0.001587821	0.001145947	0.09757094	-0.0006243151	0	0
12.18506	-0.02123365	-0.02709448	0	0	-0.04773504	-0.0344509	0	0
12.20157	-0.02120735	-0.02711347	0.00159314	-0.001149786	0.04797474	-0.03462388	0	0
12.21808	-0.02120735	-0.02711347	0	0	-0.04824352	0.03481787	0	0
12.23463	-0.02120735	-0.02711347	0	0	0	0	0	0
12.26128	-0.02123365	-0.02713245	-0.0009867288	-0.000712063	-0.02283766	-0.01648057	0	0
12.27785	-0.02123365	-0.02713245	0	0	0.02282758	0.0164733	0	0
12.29463	-0.02123365	-0.02713245	0	0	0	0	0	0
12.31116	-0.02123365	-0.02713245	0	0	0	0	0	0
12.32766	-0.02123365	-0.02713245	0	0	0	0	0	0
12.34418	-0.02123365	-0.02713245	0	0	0	0	0	0
12.36069	-0.02120735	-0.02715143	0.001593416	-0.001149873	0.04824352	-0.03481445	0	0
12.37725	-0.02120735	-0.02715143	0	0	-0.04817675	0.03476627	0	0
12.39382	-0.02120735	-0.02715143	0	0	0	0	0	0
12.42723	-0.02123365	-0.02713245	-0.0007873607	0.0005681909	-0.01575497	0.01136941	0	0
12.44352	-0.02123365	-0.02713245	0	0	0.01584234	-0.01143246	0	0
12.46008	-0.02123365	-0.02713245	0	0	0	0	0	0
12.47676	-0.02123365	-0.02713245	0	0	0	0	0	0
12.49322	-0.02120735	-0.02715143	0.001598588	-0.001153605	0.04824686	-0.03481686	0	0
12.50978	-0.02123365	-0.02713245	-0.001587821	0.001145835	-0.09649649	0.06963573	0	0
12.52635	-0.02123365	-0.02713245	0	0	0.04792052	-0.03458136	0	0
12.54292	-0.02123365	-0.02713245	0	0	0	0	0	0
12.55949	-0.02123365	-0.02713245	0	0	0	0	0	0
12.57605	-0.02123365	-0.02713245	0	0	0	0	0	0
12.59262	-0.02123365	-0.02713245	0	0	0	0	0	0
12.60919	-0.02123365	-0.02713245	0	0	0	0	0	0
12.62575	-0.02123365	-0.02713245	0	0	0	0	0	0
12.64232	-0.02120735	-0.02715143	0.001587729	-0.001145769	0.04791914	-0.03458037	0	0
12.65889	-0.02120735	-0.02715143	0	0	-0.04791225	0.0345754	0	0
12.67545	-0.02120735	-0.02715143	0	0	0	0	0	0
12.69202	-0.02120735	-0.02715143	0	0	0	0	0	0
12.70892	-0.02120735	-0.02715143	0	0	0	0	0	0
12.72515	-0.02120735	-0.02715143	0	0	0	0	0	0
12.74195	-0.02120735	-0.02715143	0	0	0	0	0	0
12.75829	-0.02120735	-0.02715143	0	0	0	0	0	0
12.80799	-0.02120735	-0.02715143	0	0	0	0	0	0
12.82455	-0.02123365	-0.02713245	-0.001588644	0.001146429	-0.02397371	0.01730039	0	0
12.84152	-0.02123365	-0.02713245	0	0	0.04739157	-0.03419965	0	0
12.85768	-0.02123365	-0.02713245	0	0	0	0	0	0
12.87425	-0.02120735	-0.02711347	0.001587821	0.001145835	0.04850689	0.03500451	0	0
12.89082	-0.02123365	-0.02713245	-0.001587821	-0.001145835	-0.09584656	-0.06916671	0	0
12.90756	-0.02123365	-0.02713245	0	0	0.04766535	0.03439722	0	0
12.92408	-0.02123365	-0.02713245	0	0	0	0	0	0
12.94052	-0.02120735	-0.02715143	0.001599979	-0.001154609	0.04855156	-0.03503675	0	0
12.9571	-0.02120735	-0.02715143	0	0	-0.04845341	0.03496591	0	0
12.97365	-0.02120735	-0.02715143	0	0	0	0	0	0
12.99022	-0.02120735	-0.02715143	0	0	0	0	0	0
13.00678	-0.02120735	-0.02715143	0	0	0	0	0	0
13.02335	-0.02120735	-0.02715143	0	0	0	0	0	0
13.03992	-0.02120735	-0.02715143	0	0	0	0	0	0
13.05648	-0.02120735	-0.02715143	0	0	0	0	0	0
13.09557	-0.02120735	-0.02715143	0	0	0	0	0	0
13.11221	-0.02120735	-0.02715143	0	0	0	0	0	0
13.12871	-0.02120735	-0.02715143	0	0	0	0	0	0
13.14527	-0.02120735	-0.02715143	0	0	0	0	0	0
13.16224	-0.02120735	-0.02715143	0	0	0	0	0	0
13.17841	-0.02120735	-0.02715143	0	0	0	0	0	0
13.19527	-0.02118104	-0.02717041	0.001560047	-0.001125872	0.04724004	-0.03409272	0	0
13.21154	-0.02118104	-0.02717041	0	0	-0.04708504	0.03398085	0	0
13.22811	-0.02118104	-0.02717041	0	0	0	0	0	0
13.24467	-0.02118104	-0.02717041	0	0	0	0	0	0
13.26124	-0.02115474	-0.02715143	0.001587546	0.001145637	0.04791087	0.0345744	0	0
13.27781	-0.02115474	-0.02715143	0	0	-0.04790811	-0.03457241	0	0
13.32662	-0.02118104	-0.02717041	-0.0005389326	-0.0003889153	-0.008243549	-0.005948875	0	0
13.34337	-0.02118104	-0.02717041	0	0	0.008220645	0.005932346	0	0
13.35988	-0.02115474	-0.0271894	0.001593048	-0.00114972	0.04789357	-0.03456531	0	0
13.3764	-0.02115474	-0.0271894	0	0	-0.04823377	0.03481083	0	0
13.3929	-0.02115474	-0.0271894	0	0	0	0	0	0
13.40945	-0.02115474	-0.0271894	0	0	0	0	0	0
13.42602	-0.02115474	-0.0271894	0	0	0	0	0	0
13.44258	-0.02115474	-0.0271894	0	0	0	0	0	0
13.45915	-0.02115474	-0.0271894	0	0	0	0	0	0
13.47572	-0.02115474	-0.0271894	0	0	0	0	0	0
13.49228	-0.02115474	-0.0271894	0	0	0	0	0	0
13.50898	-0.02115474	-0.0271894	0	0	0	0	0	0
13.59168	-0.02115474	-0.0271894	0	0	0	0	0	0
13.60855	-0.02115474	-0.0271894	0	0	0	0	0	0
13.62481	-0.02115474	-0.0271894	0	0	0	0	0	0
13.64138	-0.02115474	-0.0271894	0	0	0	0	0	0
13.65795	-0.02115474	-0.02715143	0	0.002291914	0	0.06917209	0	0
13.67451	-0.02115474	-0.02715143	0	0	0	-0.06917608	0	0
13.69108	-0.02115474	-0.02715143	0	0	0	0	0	0
13.70765	-0.02118104	-0.02717041	-0.001588003	-0.001145967	-0.04792742	-0.03458634	0	0
13.72421	-0.02118104	-0.02717041	0	0	0.04793156	0.03458933	0	0
13.74078	-0.02118104	-0.02717041	0	0	0	0	0	0
13.75735	-0.02118104	-0.02717041	0	0	0	0	0	0
13.77391	-0.02115474	-0.0271894	0.001587821	-0.001145947	0.04792466	-0.03458774	0	0
13.79068	-0.02115474	-0.0271894	0	0	-0.04763262	0.03437698	0	0
13.80705	-0.02115474	-0.0271894	0	0	0	0	0	0
13.8237	-0.02112843	-0.02717041	0.001579275	0.00113978	0.04782641	0.03451684	0	0
13.84021	-0.02112843	-0.02717041	0	0	-0.04761601	-0.03436499	0	0
13.85675	-0.02112843	-0.02717041	0	0	0	0	0	0
13.87918	-0.02112843	-0.02717041	0	0	0	0	0	0
13.89576	-0.02112843	-0.02717041	0	0	0	0	0	0
13.91232	-0.02112843	-0.02717041	0	0	0	0	0	0
13.92889	-0.02112843	-0.02717041	0	0	0	0	0	0
13.94545	-0.02112843	-0.02717041	0	0	0	0	0	0
13.9623	-0.02112843	-0.02717041	0	0	0	0	0	0
13.97859	-0.02112843	-0.02717041	0	0	0	0	0	0
13.99516	-0.02112843	-0.02717041	0	0	0	0	0	0
14.01172	-0.02112843	-0.02717041	0	0	0	0	0	0
14.02829	-0.02112843	-0.02717041	0	0	0	0	0	0
14.04486	-0.02112843	-0.02717041	0	0	0	0	0	0
14.06142	-0.02112843	-0.02717041	0	0	0	0	0	0
14.07799	-0.02112843	-0.02717041	0	0	0	0	0	0
14.09456	-0.02112843	-0.02717041	0	0	0	0	0	0
14.11112	-0.02112843	-0.02717041	0	0	0	0	0	0
14.12769	-0.02115474	-0.02715143	-0.001587912	0.001145901	-0.04793018	0.03458833	0	0
14.14425	-0.02115474	-0.02715143	0	0	0.04792604	-0.03458535	0	0
14.16082	-0.02115474	-0.02715143	0	0	0	0	0	0
14.17739	-0.02115474	-0.02715143	0	0	0	0	0	0
14.19397	-0.02115474	-0.02715143	0	0	0	0	0	0
14.21052	-0.02115474	-0.02715143	0	0	0	0	0	0
14.22709	-0.02115474	-0.02715143	0	0	0	0	0	0
14.24365	-0.02115474	-0.02715143	0	0	0	0	0	0
14.26022	-0.02115474	-0.02715143	0	0	0	0	0	0
14.27703	-0.02115474	-0.02715143	0	0	0	0	0	0
14.29335	-0.02115474	-0.02715143	0	0	0	0	0	0
14.30992	-0.02115474	-0.02715143	0	0	0	0	0	0
14.32649	-0.02115474	-0.02715143	0	0	0	0	0	0
14.34305	-0.02115474	-0.02715143	0	0	0	0	0	0
14.35962	-0.02115474	-0.02715143	0	0	0	0	0	0
14.37619	-0.02115474	-0.02715143	0	0	0	0	0	0
14.39275	-0.02118104	-0.02717041	-0.001587912	-0.001145901	-0.04792742	-0.03458634	0	0
14.40932	-0.02118104	-0.02717041	0	0	0.04792466	0.03458435	0	0
14.49215	-0.02120735	-0.02715143	-0.0003175416	0.000229167	-0.003194598	0.002305513	0	0
14.50872	-0.02120735	-0.02715143	0	0	0.003194598	-0.002305513	0	0
14.52528	-0.02120735	-0.02715143	0	0	0	0	0	0
14.54185	-0.02120735	-0.02715143	0	0	0	0	0	0
14.55842	-0.02123365	-0.02713245	-0.001587546	0.001145637	-0.04790949	0.0345734	0	0
14.57499	-0.02123365	-0.02713245	0	0	0.04791225	-0.0345754	0	0
14.59155	-0.02123365	-0.02713245	0	0	0	0	0	0
14.61476	-0.02118104	-0.02709448	0.002267153	0.001636207	0.05700781	0.04114259	0	0
14.63132	-0.02081278	-0.02682874	0.02222693	0.01603928	0.5018545	0.3621407	0	0
14.64789	-0.02060235	-0.0266769	0.01270268	0.009165779	-0.2874425	-0.2074426	0	0
14.66446	-0.02057604	-0.02665792	0.001587638	0.00114559	-0.3354526	-0.2420498	0	0
14.68102	-0.02054974	-0.0266769	0.001587912	-0.001145788	8.274345E-06	-0.06915594	0	0
14.69782	-0.02052343	-0.02665792	0.001565915	0.001129916	-0.0006593067	0.06820972	0	0
14.71416	-0.02052343	-0.02665792	0	0	-0.04725942	-0.03410094	0	0
14.73085	-0.02052343	-0.02665792	0	0	0	0	0	0
14.74729	-0.02054974	-0.0266769	-0.001599515	-0.00115416	-0.04827623	-0.03483464	0	0
14.76386	-0.02052343	-0.02669588	0.001587729	-0.001145656	0.0965469	0.0002576009	0	0
14.78042	-0.02052343	-0.02669588	0	0	-0.04791914	0.03457697	0	0
14.79699	-0.02052343	-0.02669588	0	0	0	0	0	0
14.81356	-0.02057604	-0.02669588	-0.003175641	0	-0.09584656	0	0	0
14.83041	-0.02060235	-0.02671486	-0.001560334	-0.001125889	0.04832721	-0.03368467	0	0
14.84669	-0.02060235	-0.02671486	0	0	0.04709234	0.03398038	0	0
14.86326	-0.02060235	-0.02671486	0	0	0	0	0	0
14.87982	-0.02062865	-0.02673384	-0.001587821	-0.001145722	-0.04792328	-0.03457996	0	0
14.89646	-0.02062865	-0.02673384	0	0	0.0478173	0.03450349	0	0
14.91297	-0.02062865	-0.02673384	0	0	0	0	0	0
14.92952	-0.02062865	-0.02673384	0	0	0	0	0	0
14.9465	-0.02062865	-0.02673384	0	0	0	0	0	0
14.96266	-0.02065496	-0.02671486	-0.001628719	0.00117515	-0.04915625	0.03546712	0	0
14.97952	-0.02065496	-0.02671486	0	0	0.04933089	-0.03559313	0	0
14.99579	-0.02065496	-0.02671486	0	0	0	0	0	0
15.01255	-0.02065496	-0.02671486	0	0	0	0	0	0
15.02892	-0.02065496	-0.02671486	0	0	0	0	0	0
15.04549	-0.02065496	-0.02671486	0	0	0	0	0	0
15.06206	-0.02065496	-0.02671486	0	0	0	0	0	0
15.07863	-0.02065496	-0.02671486	0	0	0	0	0	0
15.09519	-0.02065496	-0.02671486	0	0	0	0	0	0
15.11176	-0.02065496	-0.02671486	0	0	0	0	0	0
15.12833	-0.02065496	-0.02671486	0	0	0	0	0	0
15.14489	-0.02065496	-0.02671486	0	0	0	0	0	0
15.16165	-0.02065496	-0.02671486	0	0	0	0	0	0
15.17817	-0.02065496	-0.02671486	0	0	0	0	0	0
15.19459	-0.02065496	-0.02671486	0	0	0	0	0	0
15.21118	-0.02065496	-0.02671486	0	0	0	0	0	0
15.22773	-0.02065496	-0.02671486	0	0	0	0	0	0
15.24429	-0.02065496	-0.02671486	0	0	0	0	0	0
15.26086	-0.02065496	-0.02671486	0	0	0	0	0	0
15.27742	-0.02065496	-0.02671486	0	0	0	0	0	0
15.29424	-0.02065496	-0.02671486	0	0	0	0	0	0
15.31056	-0.02065496	-0.02671486	0	0	0	0	0	0
15.36029	-0.02068126	-0.02669588	-0.0005289082	0.0003816438	-0.008008324	0.005778559	0	0
15.37682	-0.02068126	-0.02669588	0	0	0.00798124	-0.005759017	0	0
15.39339	-0.02068126	-0.02669588	0	0	0	0	0	0
15.43285	-0.02068126	-0.02669588	0	0	0	0	0	0
15.44985	-0.02068126	-0.02669588	0	0	0	0	0	0
15.46598	-0.02068126	-0.02669588	0	0	0	0	0	0
15.48255	-0.02068126	-0.02669588	0	0	0	0	0	0
15.49911	-0.02068126	-0.02669588	0	0	0	0	0	0
15.51568	-0.02068126	-0.02669588	0	0	0	0	0	0
15.53225	-0.02068126	-0.02669588	0	0	0	0	0	0
15.54881	-0.02068126	-0.02669588	0	0	0	0	0	0
15.56544	-0.02068126	-0.02669588	0	0	0	0	0	0
15.58195	-0.02068126	-0.02669588	0	0	0	0	0	0
15.59851	-0.02068126	-0.02669588	0	0	0	0	0	0
15.61508	-0.02068126	-0.02669588	0	0	0	0	0	0
15.63165	-0.02068126	-0.02669588	0	0	0	0	0	0
15.64821	-0.02068126	-0.02669588	0	0	0	0	0	0
15.66478	-0.02068126	-0.02669588	0	0	0	0	0	0
15.68151	-0.02068126	-0.02669588	0	0	0	0	0	0
15.69791	-0.02068126	-0.02669588	0	0	0	0	0	0
15.71448	-0.02068126	-0.02669588	0	0	0	0	0	0
15.73106	-0.02068126	-0.02669588	0	0	0	0	0	0
15.74761	-0.02068126	-0.02669588	0	0	0	0	0	0
15.76418	-0.02068126	-0.02669588	0	0	0	0	0	0
15.78109	-0.02068126	-0.02669588	0	0	0	0	0	0
15.79732	-0.02068126	-0.02669588	0	0	0	0	0	0
15.81388	-0.02068126	-0.02669588	0	0	0	0	0	0
15.83045	-0.02068126	-0.02669588	0	0	0	0	0	0
15.84714	-0.02070757	-0.0266769	-0.001575576	0.001136887	-0.04736828	0.03417949	0	0
15.86365	-0.02070757	-0.0266769	0	0	0.04745809	-0.0342443	0	0
15.88015	-0.02070757	-0.0266769	0	0	0	0	0	0
15.89671	-0.02070757	-0.0266769	0	0	0	0	0	0
15.91328	-0.02070757	-0.0266769	0	0	0	0	0	0
15.92984	-0.02068126	-0.02669588	0.001587729	-0.001145656	0.0479219	-0.03457897	0	0
15.94641	-0.02068126	-0.02669588	0	0	-0.04791914	0.03457697	0	0
15.963	-0.02068126	-0.02669588	0	0	0	0	0	0
15.97955	-0.02068126	-0.02669588	0	0	0	0	0	0
15.99611	-0.02068126	-0.02669588	0	0	0	0	0	0
16.01275	-0.02068126	-0.02669588	0	0	0	0	0	0
16.02926	-0.02070757	-0.0266769	-0.001593232	0.001149627	-0.04806723	0.03468383	0	0
16.04627	-0.02070757	-0.0266769	0	0	0.04752574	-0.03429311	0	0
16.06278	-0.02070757	-0.0266769	0	0	0	0	0	0
16.07895	-0.02070757	-0.0266769	0	0	0	0	0	0
16.11208	-0.02070757	-0.0266769	0	0	0	0	0	0
16.12883	-0.02070757	-0.0266769	0	0	0	0	0	0
16.14521	-0.02070757	-0.0266769	0	0	0	0	0	0
16.16178	-0.02070757	-0.0266769	0	0	0	0	0	0
16.26118	-0.02070757	-0.0266769	0	0	0	0	0	0
16.28178	-0.02068126	-0.02669588	0.001276828	-0.0009213195	0.01063999	-0.007677487	0	0
16.29845	-0.02068126	-0.02669588	0	0	-0.03425923	0.02472041	0	0
16.31492	-0.02068126	-0.02669588	0	0	0	0	0	0
16.33148	-0.02068126	-0.02669588	0	0	0	0	0	0
16.34805	-0.02068126	-0.02669588	0	0	0	0	0	0
16.36462	-0.02068126	-0.02669588	0	0	0	0	0	0
16.38118	-0.02068126	-0.02669588	0	0	0	0	0	0
16.39775	-0.02068126	-0.02669588	0	0	0	0	0	0
16.43088	-0.02068126	-0.02669588	0	0	0	0	0	0
16.44756	-0.02068126	-0.02669588	0	0	0	0	0	0
16.46407	-0.02068126	-0.02669588	0	0	0	0	0	0
16.48058	-0.02070757	-0.02671486	-0.001592496	-0.001149096	-0.04821706	-0.03479194	0	0
16.49715	-0.02070757	-0.02671486	0	0	0.04813367	0.03473177	0	0
16.53028	-0.02070757	-0.02671486	0	0	0	0	0	0
16.54685	-0.02070757	-0.02671486	0	0	0	0	0	0
16.56364	-0.02070757	-0.02671486	0	0	0	0	0	0
16.57998	-0.02070757	-0.02671486	0	0	0	0	0	0
16.59666	-0.02070757	-0.02671486	0	0	0	0	0	0
16.61318	-0.02076017	-0.02671486	-0.003184992	0	-0.09595203	0	0	0
16.62968	-0.02081278	-0.0266769	-0.0031872	0.002299786	-6.686582E-05	0.06964017	0	0
16.64669	-0.02083909	-0.02665792	-0.001546251	0.001115727	0.04895748	-0.03532621	0	0
16.66282	-0.0208917	-0.02661996	-0.003263373	0.002354634	-0.05182583	0.03739243	0	0
16.67972	-0.0209443	-0.026582	-0.003112393	0.002245697	0.004571849	-0.00329874	0	0
16.69623	-0.02102322	-0.02652506	-0.004779696	0.003448656	-0.04989992	0.03600278	0	0
16.71251	-0.02107583	-0.02648711	-0.003230124	0.00233053	0.04724757	-0.03409247	0	0
16.72925	-0.02115474	-0.02643017	-0.004714877	0.003401776	-0.04496004	0.03243859	0	0
16.74565	-0.02120735	-0.02639221	-0.003208592	0.002315076	0.0454624	-0.03279857	0	0
16.76227	-0.02123365	-0.02637324	-0.001582083	0.00114147	0.04925542	-0.03554019	0	0
16.77879	-0.02125995	-0.02635426	-0.001592864	0.001149136	-0.0003253183	0.0002313118	0	0
16.79535	-0.02128626	-0.02633528	-0.001588461	0.001146072	0.0001331369	-9.26439E-05	0	0
16.81191	-0.02131256	-0.0263163	-0.001587729	0.001145544	2.207991E-05	-1.593352E-05	0	0
16.82848	-0.02131256	-0.0263163	0	0	0.04791776	-0.03457259	0	0
16.84505	-0.02131256	-0.0263163	0	0	0	0	0	0
16.86162	-0.02131256	-0.0263163	0	0	0	0	0	0
16.87818	-0.02131256	-0.0263163	0	0	0	0	0	0
16.89487	-0.02128626	-0.02633528	0.001576296	-0.001137295	0.04740081	-0.03419961	0	0
16.91139	-0.02128626	-0.02633528	0	0	-0.04747433	0.03425265	0	0
16.9279	-0.02128626	-0.02633528	0	0	0	0	0	0
16.94445	-0.02128626	-0.02633528	0	0	0	0	0	0
16.96102	-0.02125995	-0.02635426	0.001587729	-0.001145544	0.04794536	-0.0345925	0	0
16.98649	-0.02125995	-0.02635426	0	0	-0.03776894	0.02725022	0	0
17.00306	-0.02125995	-0.02635426	0	0	0	0	0	0
17.01962	-0.02125995	-0.02635426	0	0	0	0	0	0
17.03647	-0.02125995	-0.02635426	0	0	0	0	0	0
17.05298	-0.02125995	-0.02635426	0	0	0	0	0	0
17.06932	-0.02128626	-0.02637324	-0.001609972	-0.001161478	-0.04900939	-0.03535672	0	0
17.08589	-0.02128626	-0.02637324	0	0	0.04892701	0.03529729	0	0
17.10253	-0.02128626	-0.02637324	0	0	0	0	0	0
17.11903	-0.02133887	-0.02637324	-0.003188193	0	-0.09620877	0	0	0
17.13559	-0.02133887	-0.02637324	0	0	0.09642521	0	0	0
17.15215	-0.02136517	-0.02635426	-0.001587912	0.001145563	-0.04793156	0.03457914	0	0
17.16872	-0.02152299	-0.02627835	-0.00952615	0.004582064	-0.2395903	0.1037198	0	0
17.18529	-0.02178603	-0.02608858	-0.01587867	0.01145575	-0.1917305	0.2074601	0	0
17.20186	-0.02252251	-0.02559523	-0.04444894	0.02977487	-0.8622524	0.5528722	0	0
17.21842	-0.0248107	-0.023945	-0.1381314	0.09961995	-2.827341	2.107929	0	0
17.23512	-0.029991	-0.02021146	-0.310326	0.2236573	-5.177471	3.729499	0	0
17.25156	-0.03545881	-0.01631207	-0.3325646	0.2371699	-0.6711645	0.4078119	0	0
17.26812	-0.0440767	-0.01011313	-0.5201764	0.3741689	-5.683727	4.150406	0	0
17.28469	-0.05095585	-0.00517004	-0.4152266	0.2983654	3.16739	-2.287754	0	0
17.30126	-0.05819736	2.915625E-05	-0.4370986	0.3138241	-0.6600987	0.4665464	0	0
17.31783	-0.06857651	0.007474767	-0.6264142	0.4493662	-5.713226	4.090431	0	0
17.33439	-0.07705764	0.01359202	-0.5119225	0.3692379	3.455168	-2.418137	0	0
17.35096	-0.08662478	0.020447	-0.5775399	0.4138155	-1.980451	1.345431	0	0
17.36753	-0.097271	0.02811033	-0.6426073	0.4625592	-1.963853	1.471173	0	0
17.42353	-0.1381667	0.05742015	-0.7302331	0.5233563	-1.207453	0.8377621	0	0
17.4401	-0.146135	0.06314079	-0.4809688	0.3452986	3.434774	-2.453571	0	0
17.45667	-0.161861	0.07444724	-0.9492223	0.6824591	-14.13192	10.17552	0	0
17.47323	-0.1764356	0.08495038	-0.8797265	0.6339705	2.097387	-1.463389	0	0
17.4898	-0.1886761	0.09375711	-0.7388407	0.5315751	4.251943	-3.090298	0	0
17.50637	-0.1986604	0.1009881	-0.6026517	0.4364643	4.110192	-2.870451	0	0
17.52295	-0.204647	0.1053323	-0.3609797	0.2619425	7.289898	-5.264352	0	0
17.5395	-0.209612	0.1089402	-0.2999957	0.2179995	1.840502	-1.3262	0	0
17.55607	-0.2160482	0.1136246	-0.3884915	0.2827498	-2.672194	1.955179	0	0
17.57264	-0.2193599	0.1160382	-0.1998906	0.1456861	5.691987	-4.13659	0	0
17.5892	-0.2252934	0.1203687	-0.3582343	0.2614538	-4.77937	3.494278	0	0
17.60576	-0.2285413	0.1227426	-0.1960663	0.1433007	4.895083	-3.566484	0	0
17.62239	-0.2320834	0.1253707	-0.213041	0.1580721	-0.5114126	0.4450324	0	0
17.6389	-0.2368633	0.1288728	-0.2895825	0.2121698	-2.310161	1.632766	0	0
17.65546	-0.2396714	0.1309329	-0.1694924	0.1243443	3.631015	-2.655469	0	0
17.67242	-0.2440621	0.1341945	-0.2588826	0.1923086	-2.666187	2.027128	0	0
17.68894	-0.2464394	0.1359429	-0.1439628	0.1058757	3.433112	-2.582092	0	0
17.71122	-0.2463652	0.1358882	0.003332165	-0.002452147	3.796518	-2.792144	0	0
17.72797	-0.2463899	0.13587	-0.0014778	-0.00108722	-0.1232314	0.03496947	0	0
17.74436	-0.2463899	0.13587	0	0	0.0445924	0.03280669	0	0
17.76093	-0.2463652	0.1358518	0.001494307	-0.001099364	0.04534363	-0.03335937	0	0
17.77749	-0.2463652	0.1358518	0	0	-0.04510347	0.03318268	0	0
17.79406	-0.2463652	0.1358518	0	0	0	0	0	0
17.81062	-0.2463404	0.1358336	0.001494135	-0.001099237	0.04509827	-0.03317887	0	0
17.82719	-0.2463157	0.1358154	0.001493619	-0.001098858	-1.557059E-05	1.145661E-05	0	0
17.84405	-0.2463157	0.1358154	0	0	-0.04468142	0.03287218	0	0
17.86057	-0.2463157	0.1358154	0	0	0	0	0	0
17.87689	-0.2463157	0.1358154	0	0	0	0	0	0
17.89346	-0.2462909	0.1357972	0.001494135	-0.001099237	0.04542254	-0.03341742	0	0
17.91003	-0.2462909	0.1357972	0	0	-0.04509568	0.03317695	0	0
17.92659	-0.2462909	0.1357972	0	0	0	0	0	0
17.94362	-0.2462662	0.135779	0.001453305	-0.001069199	0.04325578	-0.03182334	0	0
18.04256	-0.2461919	0.1357244	0.0007504952	-0.0005521404	-0.006060342	0.004458603	0	0
18.05913	-0.2461919	0.1357244	0	0	-0.0064975	0.00478022	0	0
18.07572	-0.2461672	0.1357061	0.001492073	-0.00109772	0.04500237	-0.03310831	0	0
18.09227	-0.2461672	0.1357061	0	0	-0.04502568	0.03312546	0	0
18.10883	-0.2461672	0.1357061	0	0	0	0	0	0
18.12539	-0.2461672	0.1357061	0	0	0	0	0	0
18.14227	-0.2461672	0.1357061	0	0	0	0	0	0
18.15878	-0.2461672	0.1357061	0	0	0	0	0	0
18.17509	-0.2461672	0.1357061	0	0	0	0	0	0
18.1918	-0.2461672	0.1357061	0	0	0	0	0	0
18.20831	-0.2461424	0.1356879	0.001499314	-0.001103047	0.04514025	-0.03320974	0	0
18.22482	-0.2461177	0.1356697	0.00149987	-0.001102793	1.684178E-05	7.717535E-06	0	0
18.24136	-0.2461177	0.1356697	0	0	-0.04537849	0.03336493	0	0
18.25835	-0.2460929	0.1356515	0.001456895	-0.00107184	0.04345142	-0.03196727	0	0
18.27449	-0.2460681	0.1356333	0.001533148	-0.001127939	0.002301448	-0.00169318	0	0
18.29106	-0.2460681	0.1356333	0	0	-0.04686945	0.03448192	0	0
18.30763	-0.2460681	0.1356333	0	0	0	0	0	0
18.32419	-0.2460681	0.1356333	0	0	0	0	0	0
18.34076	-0.2460681	0.1356333	0	0	0	0	0	0
18.35733	-0.2460681	0.1356333	0	0	0	0	0	0
18.37389	-0.2460434	0.1356151	0.001493963	-0.00110001	0.04509049	-0.03320028	0	0
18.39048	-0.2460434	0.1356151	0	0	-0.04505936	0.03317736	0	0
18.40703	-0.2460434	0.1356151	0	0	0	0	0	0
18.42396	-0.2460434	0.1356151	0	0	0	0	0	0
18.44016	-0.2460186	0.1355969	0.001528653	-0.001123955	0.04613217	-0.03391908	0	0
18.45673	-0.2460186	0.1355969	0	0	-0.04665314	0.03430212	0	0
18.4735	-0.2459691	0.1355605	0.002951231	-0.002171225	0.08852308	-0.06512655	0	0
18.49001	-0.2454244	0.1351598	0.03299955	-0.02427256	0.9029101	-0.6641141	0	0
18.52854	-0.2385784	0.1301673	0.1776868	-0.12958	2.629022	-1.913475	0	0
18.54505	-0.230388	0.1241663	0.4959773	-0.3633909	5.782657	-4.247843	0	0
18.56157	-0.2156967	0.1134417	0.8893252	-0.6492105	11.90759	-8.652451	0	0
18.57808	-0.2032338	0.1044528	0.7550437	-0.5445766	-4.065963	3.168254	0	0
18.59464	-0.1867204	0.09263655	0.9968669	-0.7133105	7.312127	-5.102091	0	0
18.6116	-0.1753897	0.08456388	0.6683032	-0.4761393	-9.802094	7.075566	0	0
18.62777	-0.1617072	0.07489	0.8457413	-0.5979602	5.355402	-3.676773	0	0
18.64434	-0.1521826	0.06822515	0.5749041	-0.4022911	-8.271009	5.975474	0	0
18.66091	-0.1417534	0.06106823	0.6295107	-0.4319925	1.648029	-0.8963904	0	0
18.67752	-0.134137	0.05578946	0.4586136	-0.3178589	-5.151458	3.4404	0	0
18.69404	-0.1175088	0.04402087	1.006001	-0.7119927	16.51923	-11.8943	0	0
18.71067	-0.0996426	0.03126436	1.074692	-0.7673341	2.07191	-1.669245	0	0
18.72718	-0.08615462	0.02160691	0.8168629	-0.5848781	-7.780851	5.506215	0	0
18.74375	-0.06912652	0.009371155	1.027818	-0.7385514	6.37729	-4.645623	0	0
18.76071	-0.05722692	0.0008384435	0.7016215	-0.5031037	-9.729265	7.02255	0	0
18.77688	-0.04265832	-0.009660014	0.9010434	-0.6493117	6.019604	-4.413328	0	0
18.79378	-0.03590561	-0.01455323	0.3995442	-0.2895219	-15.16496	10.87977	0	0
18.81001	-0.02399539	-0.0231676	0.7338566	-0.5307806	10.09073	-7.282041	0	0
18.82675	-0.01636696	-0.02867042	0.4556274	-0.3286699	-8.438263	6.129705	0	0
18.84314	-0.01405171	-0.03034218	0.1412449	-0.1019876	-9.488082	6.841286	0	0
18.85978	-0.007526174	-0.03509646	0.3922562	-0.2857842	7.600035	-5.56493	0	0
18.87629	-0.005315739	-0.03673364	0.1338381	-0.09912893	-7.795035	5.630349	0	0
18.89284	-0.005447315	-0.03667651	-0.00795106	0.003452187	-4.28834	3.102512	0	0
18.90981	-0.00547363	-0.03669556	-0.00155088	-0.001122344	0.1909593	-0.1364883	0	0
18.92632	-0.00552626	-0.03669556	-0.003187393	0	-0.04888076	0.03352314	0	0
18.94254	-0.005605204	-0.0367146	-0.004866536	-0.001173712	-0.05129674	-0.03585615	0	0
18.95937	-0.005631519	-0.03669556	-0.001564067	0.001131666	0.09993336	0.06976116	0	0
18.97568	-0.005710464	-0.03667651	-0.004840357	0.001167627	-0.09887864	0.001085306	0	0
18.99224	-0.005947298	-0.03650514	-0.01429697	0.01034515	-0.2876531	0.2791638	0	0
19.00881	-0.006026243	-0.03644802	-0.004765647	0.003448159	0.287689	-0.2081757	0	0
19.02538	-0.006052558	-0.03642898	-0.001588376	0.001149254	0.09589577	-0.0693851	0	0
19.04194	-0.006078872	-0.03640994	-0.001588347	0.001149254	8.50248E-07	0	0	0
19.05851	-0.006131502	-0.03637186	-0.003176751	0.002298508	-0.04793812	0.03468456	0	0
19.07543	-0.006210446	-0.03631474	-0.004665698	0.003375861	-0.044463	0.03217197	0	0
19.09164	-0.00634202	-0.03621955	-0.008114653	0.005871092	-0.1040897	0.07530622	0	0
19.10821	-0.006368335	-0.03620051	-0.001588347	0.001149254	0.1990844	-0.1440393	0	0
19.12478	-0.006368335	-0.03620051	0	0	0.04793642	-0.03468456	0	0
19.14148	-0.006368335	-0.03620051	0	0	0	0	0	0
19.15791	-0.006368335	-0.03620051	0	0	0	0	0	0
19.17448	-0.006368335	-0.03620051	0	0	0	0	0	0
19.19105	-0.006368335	-0.03620051	0	0	0	0	0	0
19.20803	-0.006368335	-0.03620051	0	0	0	0	0	0
19.22418	-0.006368335	-0.03620051	0	0	0	0	0	0
19.24075	-0.00634202	-0.03621955	0.001588347	-0.001149254	0.04854279	-0.0351233	0	0
19.25731	-0.00634202	-0.03621955	0	0	-0.04793642	0.03468456	0	0
19.27388	-0.00634202	-0.03621955	0	0	0	0	0	0
19.29574	-0.00634202	-0.03621955	0	0	0	0	0	0
19.31231	-0.006315705	-0.03623858	0.001588376	-0.001149029	0.04133656	-0.02990283	0	0
19.32888	-0.006315705	-0.03623858	0	0	-0.04793727	0.03467777	0	0
19.34544	-0.006315705	-0.03623858	0	0	0	0	0	0
19.36213	-0.006315705	-0.03623858	0	0	0	0	0	0
19.37858	-0.006315705	-0.03623858	0	0	0	0	0	0
19.39514	-0.006315705	-0.03623858	0	0	0	0	0	0
19.41171	-0.006315705	-0.03623858	0	0	0	0	0	0
19.42828	-0.006315705	-0.03627666	0	-0.002298508	0	-0.06936911	0	0
19.44519	-0.006315705	-0.03627666	0	0	0	0.06864208	0	0
19.46141	-0.006315705	-0.03627666	0	0	0	0	0	0
19.47822	-0.006315705	-0.03627666	0	0	0	0	0	0
19.57738	-0.006210446	-0.0363909	0.001061535	-0.001152106	0.009153636	-0.009934628	0	0
19.5943	-0.006184132	-0.03640994	0.001554873	-0.001125033	0.004249933	0.0002332203	0	0
19.61051	-0.006210446	-0.0363909	-0.001623677	0.001174817	-0.09593989	0.06941763	0	0
19.62732	-0.006210446	-0.0363909	0	0	0.04917252	-0.03557894	0	0
19.64364	-0.006210446	-0.0363909	0	0	0	0	0	0
19.66021	-0.006210446	-0.0363909	0	0	0	0	0	0
19.67686	-0.006210446	-0.0363909	0	0	0	0	0	0
19.69338	-0.006210446	-0.0363909	0	0	0	0	0	0
19.70991	-0.006184132	-0.03640994	0.001591646	-0.001151641	0.0481635	-0.03484887	0	0
19.72647	-0.006184132	-0.03640994	0	0	-0.04808856	0.03479464	0	0
19.74304	-0.006184132	-0.03640994	0	0	0	0	0	0
19.75961	-0.006184132	-0.03640994	0	0	0	0	0	0
19.77618	-0.006157817	-0.03642898	0.001588376	-0.001149254	0.04793727	-0.03468456	0	0
19.79275	-0.006131502	-0.03644802	0.001587982	-0.00114899	-1.188102E-05	7.981575E-06	0	0
19.80931	-0.006078872	-0.0364861	0.003177849	-0.002299302	0.04798504	-0.03471851	0	0
19.82587	-0.006026243	-0.03652418	0.003177089	-0.002298773	-2.29409E-05	1.598272E-05	0	0
19.84244	-0.005894668	-0.03661939	0.00794185	-0.005746721	0.1438091	-0.1040653	0	0
19.85901	-0.005736779	-0.03673364	0.009530226	-0.0068962	0.04793726	-0.03469134	0	0
19.87558	-0.00557889	-0.0368479	0.009530226	-0.006896425	0	-6.78793E-06	0	0
19.89214	-0.005499945	-0.03690503	0.004765127	-0.003448437	-0.143811	0.1040605	0	0
19.90902	-0.005499945	-0.03690503	0	0	-0.1424831	0.1031125	0	0
19.92528	-0.005499945	-0.03690503	0	0	0	0	0	0
19.94184	-0.005499945	-0.03690503	0	0	0	0	0	0
19.95841	-0.005499945	-0.03690503	0	0	0	0	0	0
19.99154	-0.005499945	-0.03690503	0	0	0	0	0	0
20.01269	-0.005499945	-0.03690503	0	0	0	0	0	0
20.02926	-0.00547363	-0.03692407	0.001588376	-0.001149479	0.04211634	-0.03047884	0	0
20.04583	-0.00547363	-0.03692407	0	0	-0.04793727	0.03469135	0	0
20.06239	-0.005421	-0.03696216	0.003176751	-0.002298958	0.09587455	-0.0693827	0	0
20.07914	-0.005394685	-0.0369812	0.00157137	-0.001137173	-0.04818974	0.03487406	0	0
20.09553	-0.00536837	-0.03700025	0.001605753	-0.001162055	0.001037675	-0.0007509482	0	0
20.11209	-0.005315739	-0.03703833	0.003177511	-0.002299488	0.04769934	-0.03451854	0	0
20.12867	-0.005289424	-0.03705738	0.001586914	-0.001148421	-0.04798774	0.03472725	0	0
20.14523	-0.005289424	-0.03705738	0	0	-0.04789316	0.03465942	0	0
20.16179	-0.005289424	-0.03705738	0	0	0	0	0	0
20.17871	-0.005289424	-0.03705738	0	0	0	0	0	0
20.19493	-0.005315739	-0.03703833	-0.001622942	0.001174494	-0.04897767	0.03544426	0	0
20.24326	-0.005289424	-0.03705738	0.0005445036	-0.0003940475	0.03358154	-0.02430236	0	0
20.25956	-0.005236794	-0.03709546	0.00322766	-0.002335799	0.04151287	-0.03004212	0	0
20.27613	-0.005210479	-0.03711451	0.001588376	-0.001149479	-0.04986695	0.03608781	0	0
20.2927	-0.005184164	-0.03713356	0.001588376	-0.001149704	0	-6.784417E-06	0	0
20.30931	-0.005184164	-0.03713356	0	0	-0.04786563	0.03464628	0	0
20.32583	-0.005184164	-0.03713356	0	0	0	0	0	0
20.3424	-0.005184164	-0.03713356	0	0	0	0	0	0
20.35896	-0.005184164	-0.03713356	0	0	0	0	0	0
20.37553	-0.005184164	-0.03713356	0	0	0	0	0	0
20.39237	-0.005184164	-0.03713356	0	0	0	0	0	0
20.40867	-0.005184164	-0.03713356	0	0	0	0	0	0
20.42539	-0.005184164	-0.03713356	0	0	0	0	0	0
20.4418	-0.005184164	-0.03713356	0	0	0	0	0	0
20.45836	-0.005184164	-0.03713356	0	0	0	0	0	0
20.47505	-0.005157849	-0.0371526	0.001576966	-0.001141202	0.04742367	-0.03431905	0	0
20.49162	-0.005157849	-0.0371526	0	0	-0.04742095	0.03431709	0	0
20.50819	-0.005105219	-0.03719069	0.003176751	-0.002299183	0.09587455	-0.06938948	0	0
20.52496	-0.005078904	-0.03720973	0.001569047	-0.001135491	-0.04822358	0.03490529	0	0
20.54149	-0.005078904	-0.03720973	0	0	-0.04711797	0.03409843	0	0
20.55801	-0.005078904	-0.03720973	0	0	0	0	0	0
20.57451	-0.005078904	-0.03720973	0	0	0	0	0	0
20.59102	-0.005105219	-0.03719069	-0.001593512	0.001153196	-0.04826735	0.03493021	0	0
20.60759	-0.005078904	-0.03720973	0.001588376	-0.001149479	0.0961846	-0.06960708	0	0
20.62416	-0.004710491	-0.03747638	0.02223999	-0.01609658	0.6233028	-0.4511304	0	0
20.64072	-0.002999991	-0.03871468	0.103246	-0.07474379	2.444907	-1.770078	0	0
20.65729	0.005947298	-0.04520027	0.5400594	-0.3914714	13.18306	-9.558857	0	0
20.67406	0.01168368	-0.04936614	0.3419574	-0.248336	-5.941452	4.292898	0	0
20.69058	0.02036561	-0.05568355	0.5257975	-0.382597	5.522872	-4.033431	0	0
20.70709	0.03104266	-0.06347488	0.6464776	-0.4717517	3.653909	-2.699397	0	0
20.7236	0.03813939	-0.06866813	0.4298941	-0.3145883	-6.558399	4.759091	0	0
20.75669	0.04525855	-0.073736	0.2151538	-0.15316	-4.329721	3.254814	0	0
20.7781	0.0449434	-0.07342742	-0.01472231	0.01441515	-4.218308	3.075063	0	0
20.79466	0.04470703	-0.07325387	-0.01426708	0.01047573	0.01198829	-0.1037416	0	0
20.81123	0.04465451	-0.0732153	-0.003170146	0.002327922	0.3348867	-0.2458872	0	0
20.82817	0.04465451	-0.0732153	0	0	0.09459703	-0.06946508	0	0
20.84436	0.04465451	-0.07325387	0	-0.0023825	0	-0.07190812	0	0
20.86093	0.04465451	-0.07325387	0	0	0	0.07273297	0	0
20.87771	0.04462824	-0.07323458	-0.001565431	0.001149759	-0.04694753	0.03448146	0	0
20.89406	0.04460198	-0.0732153	-0.001605776	0.001178936	-0.001217692	0.0008806054	0	0
20.91063	0.04449692	-0.07313817	-0.006341248	0.00465548	-0.1438359	0.105597	0	0
20.9272	0.04391911	-0.07271398	-0.03487698	0.02560424	-0.86121	0.6322348	0	0
20.94376	0.04313113	-0.07213564	-0.04756809	0.03491247	-0.3830408	0.2809392	0	0
20.96033	0.04116095	-0.07069032	-0.1189203	0.08723988	-2.153537	1.579335	0	0
20.97728	0.04116095	-0.07069032	0	0	3.548172	-2.602938	0	0
20.9938	0.04110841	-0.07065179	-0.003179464	0.002331396	-0.09498318	0.06964804	0	0
21.01003	0.04095078	-0.07049767	-0.009713514	0.009497495	-0.1994948	0.2187922	0	0
21.0266	0.0404516	-0.07013167	-0.03012327	0.02208686	-0.6222719	0.3838365	0	0
21.04333	0.03506457	-0.06618572	-0.3221578	0.2359772	-8.77171	6.42453	0	0
21.05984	0.02833452	-0.06126582	-0.4075874	0.2979604	-2.570577	1.865073	0	0
21.07635	0.0189451	-0.05441897	-0.5685793	0.4146132	-4.874739	3.532176	0	0
21.09286	0.01242041	-0.04967213	-0.3951046	0.2874469	5.252409	-3.850298	0	0
21.10943	0.005157849	-0.04439835	-0.4384198	0.3183625	-1.309441	0.9345972	0	0
21.126	0.0006315788	-0.04111652	-0.2731433	0.1980457	4.987767	-3.63096	0	0
21.14256	-0.002657888	-0.03873373	-0.1985984	0.1438588	2.249772	-1.635365	0	0
21.15913	-0.01102587	-0.03268036	-0.5051505	0.3654242	-9.25336	6.688013	0	0
21.1757	-0.01281509	-0.03134947	-0.1080099	0.08034214	11.98711	-8.604784	0	0
21.19244	-0.02220687	-0.02449498	-0.5610119	0.4094482	-13.60116	9.881248	0	0
21.20883	-0.02907076	-0.01954861	-0.4186912	0.3017248	4.295247	-3.251099	0	0
21.2254	-0.03322461	-0.01655801	-0.2506984	0.1804922	5.096434	-3.677861	0	0
21.24197	-0.03556395	-0.01487467	-0.1411699	0.1015833	3.305006	-2.381064	0	0
21.25853	-0.03695685	-0.01391045	-0.08410494	0.05822013	1.722324	-1.308778	0	0
21.27549	-0.03690429	-0.01394826	0.003099037	-0.00222917	2.601423	-1.803291	0	0
21.29166	-0.03677289	-0.01408059	0.008125083	-0.008182267	0.1516951	-0.1796752	0	0
21.30823	-0.03645752	-0.01434526	0.01903544	-0.01597561	0.333246	-0.23804	0	0
21.3248	-0.03506457	-0.01538525	0.08406914	-0.06276671	1.962608	-1.412077	0	0
21.34136	-0.03390805	-0.01621749	0.06982377	-0.05024551	-0.4299508	0.3779122	0	0
21.35793	-0.03390805	-0.01621749	0	0	-2.107528	1.516587	0	0
21.37456	-0.03390805	-0.01621749	0	0	0	0	0	0
21.39107	-0.03390805	-0.01621749	0	0	0	0	0	0
21.40763	-0.03390805	-0.01621749	0	0	0	0	0	0
21.4242	-0.03390805	-0.01621749	0	0	0	0	0	0
21.44077	-0.03390805	-0.01621749	0	0	0	0	0	0
21.52992	-0.03385548	-0.01625532	0.0005896983	-0.0004243889	0.005577999	-0.004014325	0	0
21.54648	-0.03382919	-0.01627424	0.001586605	-0.001141834	0.009429981	-0.006786486	0	0
21.5632	-0.03301432	-0.01686073	0.04873722	-0.03507749	1.416485	-1.019485	0	0
21.57971	-0.02872894	-0.0199463	0.2596225	-0.1869344	6.346994	-4.570423	0	0
21.59619	-0.01928708	-0.02675282	0.5730784	-0.4131253	9.503882	-6.858036	0	0
21.61275	-0.01113112	-0.03264233	0.4923516	-0.3555323	-2.443232	1.743076	0	0
21.62932	-0.0003947368	-0.04041102	0.6480494	-0.4689193	4.699239	-3.422224	0	0
21.64589	0.007578802	-0.04619344	0.4812838	-0.3490272	-5.032996	3.618351	0	0
21.66277	0.01773498	-0.05357623	0.6016682	-0.4373682	3.599231	-2.641203	0	0
21.67902	0.02228578	-0.05689117	0.2800059	-0.2039648	-9.708344	7.044535	0	0
21.69579	0.02849229	-0.06141944	0.3700245	-0.2699703	2.725708	-1.998608	0	0
21.71215	0.0353274	-0.06641655	0.4177627	-0.3054234	1.440742	-1.069976	0	0
21.72881	0.03806056	-0.06841787	0.1640482	-0.1201224	-7.683213	5.611453	0	0
21.74529	0.03787661	-0.06828312	-0.01116585	0.008179743	-5.287971	3.872168	0	0
21.76185	0.03785034	-0.06826387	-0.001586338	0.001161755	0.2899448	-0.2124147	0	0
21.77842	0.03785034	-0.06826387	0	0	0.04787853	-0.03506386	0	0
21.79499	0.03785034	-0.06826387	0	0	0	0	0	0
21.81155	0.03785034	-0.06826387	0	0	0	0	0	0
21.82838	0.03785034	-0.06830237	0	-0.002287352	0	-0.06848836	0	0
21.8449	0.03785034	-0.06830237	0	0	0	0.06859805	0	0
21.86125	0.03782406	-0.06828312	-0.001606687	0.001177114	-0.04888104	0.03581191	0	0
21.87792	0.0377715	-0.06820612	-0.003153432	0.004619728	-0.04683993	0.1042524	0	0
21.89443	0.03766639	-0.06812913	-0.006365874	0.004662953	-0.09682351	0.001302809	0	0
21.91144	0.03764011	-0.06810988	-0.001544718	0.001131713	0.143814	-0.1053361	0	0
21.92752	0.03764011	-0.06810988	0	0	0.0466815	-0.03420045	0	0
21.94409	0.03764011	-0.06810988	0	0	0	0	0	0
21.96066	0.03764011	-0.06810988	0	0	0	0	0	0
21.97749	0.03761383	-0.06809063	-0.001560818	0.001143066	-0.04672901	0.03422201	0	0
21.99379	0.03750871	-0.06801364	-0.006449541	0.004724071	-0.1475419	0.1080749	0	0
22.01036	0.03711453	-0.06772494	-0.02379323	0.01742567	-0.5277167	0.3864719	0	0
22.02692	0.03488058	-0.06608955	-0.1348412	0.09871264	-3.351434	2.453246	0	0
22.04349	0.03046426	-0.06282159	-0.2666007	0.1972771	-3.976738	2.974853	0	0
22.06006	0.02052343	-0.05556857	-0.6000292	0.4377932	-10.06347	7.259209	0	0
22.07662	0.01163105	-0.04909843	-0.5367451	0.3905382	1.909916	-1.426159	0	0
22.09319	0.0006842104	-0.04115466	-0.6606768	0.4794316	-3.740049	2.682653	0	0
22.10976	-0.006578852	-0.0358959	-0.4384498	0.317456	6.706822	-4.888433	0	0
22.12633	-0.01265722	-0.03150154	-0.3668909	0.2652441	2.159777	-1.575849	0	0
22.14311	-0.01597233	-0.02910727	-0.1974632	0.1426137	5.079422	-3.676442	0	0
22.15963	-0.01697205	-0.02842354	-0.06052488	0.0413943	4.111505	-3.039064	0	0
22.17603	-0.01684051	-0.02851849	0.008021967	-0.005790764	2.082534	-1.433538	0	0
22.19265	-0.01652481	-0.02882237	0.01899455	-0.01828292	0.3323203	-0.3783426	0	0
22.20916	-0.01586709	-0.02933522	0.03983779	-0.03106317	0.6291226	-0.3857531	0	0
22.22573	-0.01497257	-0.03001916	0.05399359	-0.04128253	0.4279618	-0.3089544	0	0
22.24229	-0.01297296	-0.03150154	0.1206966	-0.089477	2.013103	-1.454512	0	0
22.26377	-0.01220992	-0.03201484	0.035538	-0.02390665	-2.238763	1.7238	0	0
22.28071	-0.01223623	-0.03199583	-0.001552608	0.001121975	-0.9654533	0.6514849	0	0
22.2969	-0.01223623	-0.03199583	0	0	0.0468578	-0.03386128	0	0
22.31347	-0.01223623	-0.03199583	0	0	0	0	0	0
22.33025	-0.01223623	-0.03199583	0	0	0	0	0	0
22.3466	-0.01220992	-0.03201484	0.001608925	-0.001162672	0.04856024	-0.03509153	0	0
22.36317	-0.01220992	-0.03201484	0	0	-0.04886971	0.03531516	0	0
22.37978	-0.01218361	-0.03203386	0.001583803	-0.001144518	0.04773057	-0.03449198	0	0
22.3963	-0.01218361	-0.03203386	0	0	-0.04780201	0.0345436	0	0
22.41287	-0.01218361	-0.03203386	0	0	0	0	0	0
22.42982	-0.01218361	-0.03203386	0	0	0	0	0	0
22.46257	-0.01218361	-0.03203386	0	0	0	0	0	0
22.47935	-0.0121573	-0.03205287	0.001567961	-0.00113307	0.03165434	-0.02287466	0	0
22.49586	-0.01210467	-0.03209089	0.003186998	-0.002302824	0.04863029	-0.03513538	0	0
22.51237	-0.01157843	-0.03247118	0.03187049	-0.02303117	0.8685694	-0.6276785	0	0
22.52889	-0.01018386	-0.03347917	0.08445844	-0.06104615	1.592424	-1.151138	0	0
22.5454	-0.004763122	-0.03740019	0.3282545	-0.2374387	7.382001	-5.341062	0	0
22.56197	0.001684209	-0.04207017	0.3891169	-0.281848	1.839689	-1.342364	0	0
22.57853	0.009710222	-0.04789404	0.4845626	-0.3516102	2.880725	-2.105547	0	0
22.5951	0.01436743	-0.05127906	0.2811098	-0.2043206	-6.140925	4.445721	0	0
22.61167	0.01502519	-0.05175749	0.03970205	-0.02887796	-7.2857	5.294869	0	0
22.62846	0.01497257	-0.05171921	-0.003133919	0.002279718	-1.284144	0.9340498	0	0
22.6448	0.01497257	-0.05171921	0	0	0.09458186	-0.06880203	0	0
22.66148	0.01497257	-0.05171921	0	0	0	0	0	0
22.67794	0.01497257	-0.05171921	0	0	0	0	0	0
22.69451	0.01499888	-0.05173836	0.001587884	-0.001155192	0.04808296	-0.03498057	0	0
22.71107	0.01494626	-0.05170008	-0.003176864	0.002310958	-0.1438087	0.1046146	0	0
22.72764	0.01484102	-0.05158525	-0.006352322	0.006931053	-0.09584654	0.1394508	0	0
22.7442	0.01473578	-0.0515087	-0.006352322	0.004620402	0	-0.06973558	0	0
22.76077	0.01468316	-0.05147043	-0.003176133	0.002310201	0.09585758	-0.069722	0	0
22.77734	0.01465685	-0.05145129	-0.001588066	0.001155101	0.04792794	-0.034861	0	0
22.79391	0.01465685	-0.05145129	0	0	0.04792794	-0.034861	0	0
22.81047	0.01465685	-0.05145129	0	0	0	0	0	0
22.82704	0.01465685	-0.05145129	0	0	0	0	0	0
22.84361	0.01465685	-0.05145129	0	0	0	0	0	0
22.86017	0.01465685	-0.05145129	0	0	0	0	0	0
22.87714	0.01460422	-0.05141302	-0.00310156	0.00225592	-0.09251356	0.06728974	0	0
22.8933	0.01452529	-0.05135561	-0.004882294	0.003551157	-0.05374575	0.0390926	0	0
22.90987	0.01452529	-0.05135561	0	0	0.1491509	-0.1084856	0	0
22.92667	0.01452529	-0.05135561	0	0	0	0	0	0
22.9637	0.01452529	-0.05135561	0	0	0	0	0	0
22.97985	0.01452529	-0.05135561	0	0	0	0	0	0
22.99641	0.01452529	-0.05135561	0	0	0	0	0	0
23.01323	0.01452529	-0.05135561	0	0	0	0	0	0
23.02974	0.0145516	-0.05137474	0.00159357	-0.001159104	0.04781331	-0.03477763	0	0
23.04611	0.0145516	-0.05137474	0	0	-0.04846791	0.03525376	0	0
23.06268	0.0145516	-0.05137474	0	0	0	0	0	0
23.07928	0.0145516	-0.05137474	0	0	0	0	0	0
23.09629	0.0145516	-0.05137474	0	0	0	0	0	0
23.11238	0.0145516	-0.05137474	0	0	0	0	0	0
23.12895	0.0145516	-0.05137474	0	0	0	0	0	0
23.14551	0.01452529	-0.05139388	-0.001588066	-0.001155101	-0.04792794	-0.034861	0	0
23.16208	0.0145516	-0.05137474	0.001588066	0.001155101	0.09585588	0.069722	0	0
23.17865	0.0145516	-0.05137474	0	0	-0.04792518	-0.034859	0	0
23.19522	0.0145516	-0.05137474	0	0	0	0	0	0
23.21178	0.0145516	-0.05137474	0	0	0	0	0	0
23.22839	0.0145516	-0.05137474	0	0	0	0	0	0
23.24492	0.0145516	-0.05137474	0	0	0	0	0	0
23.26148	0.0145516	-0.05137474	0	0	0	0	0	0
23.27843	0.0145516	-0.05137474	0	0	0	0	0	0
23.31118	0.0145516	-0.05137474	0	0	0	0	0	0
23.32796	0.0145516	-0.05137474	0	0	0	0	0	0
23.34447	0.0145516	-0.05137474	0	0	0	0	0	0
23.36088	0.01452529	-0.05139388	-0.001603015	-0.001165974	-0.04868738	-0.03541339	0	0
23.37745	0.01452529	-0.05139388	0	0	0.04860573	0.035354	0	0
23.39402	0.0145516	-0.05137474	0.001588066	0.001155101	0.04792794	0.034861	0	0
23.41058	0.0145516	-0.05137474	0	0	-0.04792794	-0.034861	0	0
23.42715	0.0145516	-0.05137474	0	0	0	0	0	0
23.44404	0.0145516	-0.05137474	0	0	0	0	0	0
23.46029	0.0145516	-0.05137474	0	0	0	0	0	0
23.47707	0.0145516	-0.05137474	0	0	0	0	0	0
23.49342	0.0145516	-0.05137474	0	0	0	0	0	0
23.51009	0.0145516	-0.05137474	0	0	0	0	0	0
23.5266	0.0145516	-0.05137474	0	0	0	0	0	0
23.54312	0.0145516	-0.05137474	0	0	0	0	0	0
23.55969	0.0145516	-0.05137474	0	0	0	0	0	0
23.57625	0.0145516	-0.05137474	0	0	0	0	0	0
23.59366	0.0145516	-0.05137474	0	0	0	0	0	0
23.60939	0.0145516	-0.05137474	0	0	0	0	0	0
23.62595	0.0145516	-0.05137474	0	0	0	0	0	0
23.64253	0.01452529	-0.05139388	-0.00158697	-0.001154303	-0.04787832	-0.03482491	0	0
23.65919	0.0145516	-0.05137474	0.001578977	0.001148489	0.09524146	0.0692751	0	0
23.67565	0.0145516	-0.05137474	0	0	-0.04767284	-0.03467545	0	0
23.71337	0.01452529	-0.05135561	-0.0006976505	0.000507445	-0.01287876	0.009367534	0	0
23.72993	0.01452529	-0.05135561	0	0	0.01285297	-0.009348772	0	0
23.7465	0.0145516	-0.05137474	0.001588066	-0.001155101	0.04792794	-0.034861	0	0
23.76307	0.0145516	-0.05137474	0	0	-0.04792794	0.034861	0	0
23.77979	0.01452529	-0.05139388	-0.001573753	-0.00114469	-0.04728095	-0.0343904	0	0
23.7963	0.01452529	-0.05139388	0	0	0.04735693	0.03444567	0	0
23.81281	0.01452529	-0.05139388	0	0	0	0	0	0
23.82933	0.0145516	-0.05141302	0.001591915	-0.0011579	0.04818834	-0.03505041	0	0
23.84633	0.0145516	-0.05141302	0	0	-0.04748646	0.03453989	0	0
23.86247	0.0145516	-0.05141302	0	0	0	0	0	0
23.87935	0.0145516	-0.05141302	0	0	0	0	0	0
23.8956	0.0145516	-0.05141302	0	0	0	0	0	0
23.91217	0.0145516	-0.05141302	0	0	0	0	0	0
23.92874	0.0145516	-0.05141302	0	0	0	0	0	0
23.9454	0.0145516	-0.05141302	0	0	0	0	0	0
23.96187	0.01452529	-0.05139388	-0.001597631	0.001162057	-0.0482166	0.03507096	0	0
23.97844	0.01452529	-0.05139388	0	0	0.04836136	-0.03517625	0	0
23.995	0.01452529	-0.05139388	0	0	0	0	0	0
24.01157	0.01452529	-0.05139388	0	0	0	0	0	0
24.02814	0.01452529	-0.05139388	0	0	0	0	0	0
24.07784	0.01442005	-0.05131734	-0.002117541	0.001540118	-0.03195559	0.02324177	0	0
24.09451	0.01434112	-0.05125993	-0.004733195	0.003442486	-0.03940679	0.02866059	0	0
24.11097	0.01423588	-0.05118339	-0.006394397	0.00465047	-0.05013516	0.03645702	0	0
24.12754	0.01407802	-0.05106858	-0.009529721	0.006930727	-0.09494126	0.06904881	0	0
24.1441	0.01381491	-0.05087725	-0.015883	0.01155031	-0.1917644	0.1394354	0	0
24.16105	0.01365705	-0.05076245	-0.009312174	0.006771551	0.1960396	-0.1425736	0	0
24.17724	0.01360442	-0.05072419	-0.00325187	0.002364515	0.1829003	-0.1330046	0	0
24.1938	0.01349918	-0.05064766	-0.006353278	0.004619585	-0.09470738	0.06886283	0	0
24.21037	0.01323607	-0.0504181	-0.01587957	0.01385511	-0.287504	0.2787288	0	0
24.22694	0.01310451	-0.05032245	-0.00794164	0.005774144	0.2395671	-0.2438842	0	0
24.26013	0.01278878	-0.04936614	-0.00951308	0.02881322	-0.0315835	0.4630497	0	0
24.27664	0.0135518	-0.04881163	0.04621597	0.03358648	1.121314	0.09604185	0	0
24.2932	0.01923447	-0.04468473	0.3430065	0.2491003	8.97265	6.515473	0	0
24.30977	0.02783491	-0.03848603	0.5191239	0.3741541	5.315235	3.77413	0	0
24.32634	0.04171263	-0.02848051	0.8376608	0.6039344	9.613462	6.934784	0	0
24.3429	0.05350152	-0.01996524	0.7116607	0.5140418	-3.802908	-2.713121	0	0
24.35947	0.06553759	-0.01124619	0.7264982	0.5262829	0.4478207	0.3694592	0	0
24.37604	0.08168624	0.0005749761	0.9747348	0.713527	7.491797	5.651039	0	0
24.39261	0.09380285	0.01004684	0.7312759	0.5716571	-7.347182	-4.281396	0	0
24.40924	0.1065164	0.02424334	0.7645734	0.8537569	1.003015	8.497646	0	0
24.42574	0.1096115	0.03299885	0.1875357	0.5304994	-17.41604	-9.756493	0	0
24.4423	0.1107554	0.04275648	0.0690536	0.5890393	-3.582808	1.770203	0	0
24.4803	0.1143931	0.08121274	0.09575313	1.012258	0.4893978	7.757528	0	0
24.49673	0.1200774	0.09663987	0.3458922	0.9387486	4.596093	-1.350676	0	0
24.51331	0.1251063	0.1028766	0.3033706	0.3762315	-1.288124	-17.04056	0	0
24.52986	0.1271524	0.1045077	0.1235851	0.09852526	-5.426249	-8.381674	0	0
24.54643	0.137263	0.1116672	0.6102762	0.4321452	14.69344	10.07215	0	0
24.563	0.1421144	0.1151058	0.2928001	0.2075299	-9.580896	-6.778512	0	0
24.57956	0.1481178	0.1193641	0.3624038	0.2570618	2.100641	1.494876	0	0
24.59636	0.1493532	0.1202409	0.07352921	0.05218473	-8.657452	-6.140083	0	0
24.6127	0.152414	0.1233632	0.1874051	0.1911718	3.436782	4.194637	0	0
24.62926	0.1523883	0.1238926	-0.001551706	0.03195389	-5.743726	-4.839751	0	0
24.6459	0.1506139	0.1300397	-0.1066628	0.3695106	-3.165879	10.167	0	0
24.66241	0.1464183	0.1382914	-0.2540917	0.4997419	-4.447623	3.928807	0	0
24.67896	0.1393282	0.1515082	-0.4283533	0.7985009	-5.270451	9.03581	0	0
24.69553	0.1303876	0.1659447	-0.5396561	0.8713933	-3.360672	2.20091	0	0
24.7121	0.1225408	0.1753032	-0.4735794	0.5648113	1.994084	-9.25213	0	0
24.72896	0.1166003	0.1838895	-0.3522853	0.5091875	3.628083	-1.66379	0	0
24.74523	0.1120809	0.1913645	-0.2778091	0.4594948	2.247956	-1.4999	0	0
24.7618	0.1079732	0.2010668	-0.2479448	0.5856326	0.9095261	3.841563	0	0
24.77836	0.1066985	0.2084345	-0.07693955	0.4447153	5.160949	-4.252892	0	0
24.79501	0.1067245	0.2153997	0.001563395	0.4185414	2.363916	-0.7881601	0	0
24.82807	0.1044345	0.2276966	-0.06926996	0.3719553	-1.42517	-0.9373135	0	0
24.84463	0.1016745	0.2457536	-0.1666296	1.090178	-1.961967	14.47345	0	0
24.8612	0.1001637	0.2541437	-0.09119336	0.506422	2.276933	-17.61983	0	0
24.87776	0.09661927	0.2638889	-0.2139407	0.5882239	-3.704523	2.468786	0	0
24.89433	0.09570671	0.2684546	-0.05508235	0.2755836	4.794355	-9.435503	0	0
24.9109	0.09153298	0.2749335	-0.2519266	0.3910711	-5.940771	3.485421	0	0
24.9276	0.08683372	0.2781541	-0.2813481	0.1928207	-0.8843295	-5.958854	0	0
24.94403	0.08233973	0.2811952	-0.2734937	0.1850733	0.2370463	-0.2338191	0	0
24.9606	0.07614198	0.285434	-0.3741396	0.255883	-3.050139	2.145935	0	0
24.97717	0.07349894	0.2872401	-0.1595343	0.109017	6.477173	-4.432679	0	0
24.99373	0.07232102	0.288009	-0.0710995	0.04641089	2.668967	-1.889457	0	0
25.0103	0.07250426	0.2878123	0.01106036	-0.01187255	2.47959	-1.758998	0	0
25.02687	0.07255661	0.2876693	0.003160168	-0.008634584	-0.2384284	0.09772211	0	0
25.04343	0.07253044	0.2876514	-0.001580041	-0.001079447	-0.143068	0.2280276	0	0
25.06	0.0724519	0.2875977	-0.004740477	-0.003237969	-0.09538763	-0.06514807	0	0
25.07657	0.07237338	0.2875083	-0.004740027	-0.005396615	1.356181E-05	-0.06514806	0	0
25.12627	0.07203305	0.2870971	-0.006847668	-0.008275128	-0.03180528	-0.04343809	0	0
25.1594	0.07198069	0.286954	-0.001580175	-0.004317541	0.06359223	0.04777829	0	0
25.17628	0.07192833	0.2868825	-0.003102749	-0.004238246	-0.03044614	0.001585615	0	0
25.19817	0.07171889	0.2867394	-0.009567709	-0.006534809	-0.1667651	-0.05924036	0	0
25.21473	0.07161416	0.2865964	-0.006321235	-0.008634584	0.08441637	-0.05459936	0	0
25.23132	0.07158798	0.286507	-0.001578492	-0.005390409	0.1430539	0.09785306	0	0
25.24787	0.07158798	0.286507	0	0	0.04764171	0.1626922	0	0
25.26484	0.07158798	0.286507	0	0	0	0	0	0
25.281	0.0715618	0.2864891	-0.001620036	-0.001106456	-0.04889559	-0.03339482	0	0
25.29756	0.0715618	0.2864891	0	0	0.04950258	0.03380939	0	0
25.31413	0.07153562	0.2864712	-0.001580127	-0.001080998	-0.04768832	-0.03262457	0	0
25.3307	0.07145707	0.2863818	-0.004741472	-0.005397236	-0.09540959	-0.1302643	0	0
25.34739	0.07122143	0.2861851	-0.01411274	-0.01178033	-0.281739	-0.191902	0	0
25.36441	0.07077632	0.2858453	-0.02616224	-0.01997092	-0.3574407	-0.2429687	0	0
25.3804	0.07059303	0.2857201	-0.0114634	-0.007828343	0.445381	0.3679251	0	0
25.39697	0.06868128	0.2843431	-0.1153936	-0.08311687	-3.192299	-2.312547	0	0
25.41394	0.06855032	0.2840391	-0.007712891	-0.01790679	3.209898	1.943874	0	0
25.4301	0.06868128	0.2839496	0.008106275	-0.005536083	0.4774234	0.3733487	0	0
25.44667	0.0692051	0.283592	0.03161787	-0.02159006	0.7185152	-0.4906101	0	0
25.46323	0.06923129	0.2834668	0.001580941	-0.00755793	-0.9065685	0.4235149	0	0
25.4798	0.06915271	0.2833416	-0.004742725	-0.00755706	-0.1908596	2.626785E-05	0	0
25.49637	0.06904795	0.2831627	-0.006323484	-0.01079503	-0.04770739	-0.09772212	0	0
25.51301	0.0691789	0.2829302	0.007866207	-0.01396726	0.4272128	-0.09550721	0	0
25.52953	0.06983363	0.2823042	0.03964264	-0.03790312	0.9581873	-0.7217625	0	0
25.54607	0.07116907	0.2813205	0.08074689	-0.05948168	1.243535	-0.6528203	0	0
25.59286	0.07179743	0.2806407	0.0134296	-0.01452754	-1.062998	0.7098643	0	0
25.62599	0.07174507	0.2806049	-0.001580218	-0.00108016	-0.1877975	0.1682488	0	0
25.65913	0.07171889	0.2806228	-0.0007901544	0.000540561	0.01192174	0.02445603	0	0
25.67613	0.07171889	0.2806228	0	0	0.01575944	-0.01078136	0	0
25.69226	0.07169271	0.2806049	-0.001623293	-0.001110528	-0.04899389	-0.03351773	0	0
25.70883	0.07158798	0.2805334	-0.006321235	-0.004319091	-0.1436865	-0.09813388	0	0
25.7254	0.07132617	0.2803187	-0.01580309	-0.01295547	-0.2861629	-0.2606466	0	0
25.74218	0.06283821	0.2745219	-0.505582	-0.3452837	-14.68351	-9.963159	0	0
25.75853	0.05310791	0.2678817	-0.5952719	-0.4062318	-2.706847	-1.839415	0	0
25.77521	0.03877003	0.2581035	-0.8596953	-0.5862949	-8.007047	-5.45252	0	0
25.79166	0.02749307	0.2504155	-0.6853341	-0.467225	5.262535	3.593744	0	0
25.80823	0.01289402	0.2404977	-0.8810989	-0.5985686	-5.927985	-3.977237	0	0
25.82479	0.009368147	0.2380932	-0.2128713	-0.1451745	20.16831	13.68425	0	0
25.84136	-0.004447339	0.2286667	-0.8340004	-0.5690495	-18.74895	-12.79478	0	0
25.85793	-0.0147884	0.2216042	-0.6239719	-0.426145	6.337944	4.312372	0	0
25.88349	-0.03787661	0.2058052	-0.9033489	-0.6181489	-6.631083	-4.557263	0	0
25.90006	-0.04791068	0.1988497	-0.6056572	-0.419836	7.066748	4.707647	0	0
25.91663	-0.05853831	0.1911479	-0.6414851	-0.4648815	-1.081289	-1.359478	0	0
25.93319	-0.07119525	0.1788113	-0.7639748	-0.7446375	-3.696746	-8.443053	0	0
25.94976	-0.07488602	0.1651476	-0.222775	-0.8247431	16.33344	-2.41759	0	0
25.96634	-0.07493835	0.147948	-0.003156275	-1.037339	6.625436	-6.413565	0	0
25.98289	-0.07470284	0.1354148	0.01422869	-0.7572021	0.5247094	8.455026	0	0
25.99946	-0.07428411	0.11538	0.02527415	-1.209299	0.3335062	-13.65059	0	0
26.01637	-0.07339425	0.08124959	0.05261016	-2.017838	0.8164488	-24.14875	0	0
26.03259	-0.07289692	0.06191959	0.03066112	-1.191732	-0.6624232	24.93192	0	0
26.04916	-0.07171889	0.03851394	0.07110626	-1.412768	1.23356	-6.741518	0	0
26.06573	-0.07095961	0.0230843	0.04583031	-0.9313349	-0.7628297	14.52968	0	0
26.08229	-0.06999075	0.01411692	0.0584867	-0.5413343	0.3819928	11.77092	0	0
26.09886	-0.06794787	0.002550476	0.1233086	-0.6981518	1.956442	-4.733034	0	0
26.11545	-0.062812	-0.00815009	0.3096453	-0.6451447	5.620418	1.598838	0	0
26.132	-0.05384265	-0.01396716	0.5420154	-0.3515238	7.012942	8.861495	0	0
26.14856	-0.04670286	-0.01881016	0.4309584	-0.2923239	-3.353637	1.787688	0	0
26.16513	-0.04355139	-0.02108286	0.1902228	-0.1371803	-7.265414	4.682243	0	0
26.1817	-0.04081942	-0.02301594	0.1649023	-0.116681	-0.7641733	0.6186691	0	0
26.19827	-0.03753499	-0.02515888	0.1982483	-0.1293483	1.006382	-0.3823005	0	0
26.21483	-0.03540625	-0.02639221	0.1284912	-0.07444417	-2.105273	1.65701	0	0
26.23154	-0.0348543	-0.02675282	0.03304189	-0.02158729	-2.868775	1.58864	0	0
26.24804	-0.03477545	-0.02665792	0.004776638	0.0057488	-0.8510383	0.8230624	0	0
26.26455	-0.03467031	-0.026582	0.006367964	0.004598283	0.04819555	-0.03484502	0	0
26.2811	-0.03438118	-0.02641119	0.0174759	0.01032427	0.3360506	0.1732295	0	0
26.29766	-0.03401319	-0.02614551	0.02221458	0.01603856	0.1431207	0.1725868	0	0
26.31459	-0.03388176	-0.02608858	0.007764959	0.003363495	-0.431446	-0.3784604	0	0
26.3308	-0.03380291	-0.02610756	0.00486397	-0.001170496	-0.08754194	-0.1368204	0	0
26.34736	-0.03364519	-0.02618346	0.009522919	-0.004583309	0.1421539	-0.1041318	0	0
26.36393	-0.03343491	-0.02633528	0.01269306	-0.00916379	0.09569171	-0.1382631	0	0
26.38064	-0.03338233	-0.02637324	0.003146986	-0.002271882	-0.2868956	0.2071278	0	0
26.39715	-0.03332976	-0.02641119	0.003184207	-0.002299028	0.001120565	-0.0008172577	0	0
26.41366	-0.03332976	-0.02644915	0	-0.002299028	-0.09643263	0	0	0
26.4302	-0.03332976	-0.02644915	0	0	0	0.069561	0	0
26.44677	-0.03332976	-0.02644915	0	0	0	0	0	0
26.4637	-0.03332976	-0.02644915	0	0	0	0	0	0
26.4799	-0.03332976	-0.02644915	0	0	0	0	0	0
26.5296	-0.03330347	-0.02643017	0.0005288886	0.0003818627	0.008025526	0.005794507	0	0
26.54617	-0.03330347	-0.02643017	0	0	-0.007981175	-0.005762485	0	0
26.56273	-0.03330347	-0.02643017	0	0	0	0	0	0
26.5793	-0.0332509	-0.02639221	0.0031738	0.002291352	0.09578548	0.06915314	0	0
26.59587	-0.03322461	-0.02637324	0.001586788	0.001145676	-0.04790165	-0.03458055	0	0
26.61732	-0.0330406	-0.02624039	0.008576283	0.006191436	0.1838321	0.1327095	0	0
26.63389	-0.03280402	-0.0260696	0.01428034	0.01030888	0.1500161	0.1082884	0	0
26.65046	-0.03256743	-0.02593677	0.01427892	0.00801676	-4.283317E-05	-0.06917245	0	0
26.66702	-0.03254114	-0.0259178	0.001586605	0.001145319	-0.3830329	-0.2073686	0	0
26.68359	-0.03254114	-0.0259178	0	0	-0.04788383	-0.0345658	0	0
26.70016	-0.03251485	-0.02593677	0.00158683	-0.001145319	0.04789062	-0.0345658	0	0
26.71688	-0.03248857	-0.02595575	0.001572305	-0.001134996	-0.0004363851	0.0003101352	0	0
26.73339	-0.03246228	-0.02597472	0.001592145	-0.001149269	0.0005970774	-0.0004295057	0	0
26.74986	-0.0324097	-0.02601268	0.003192178	-0.00230428	0.04851247	-0.03501959	0	0
26.76643	-0.03235712	-0.02605063	0.00317366	-0.002290751	-0.0005605185	0.0004095251	0	0
26.78299	-0.03227826	-0.02610756	0.004760264	-0.003436182	0.04788383	-0.03456919	0	0
26.79956	-0.03198908	-0.0263163	0.01745669	-0.01260142	0.3832009	-0.2766234	0	0
26.81613	-0.02980696	-0.02789185	0.1317133	-0.09510016	3.448469	-2.48996	0	0
26.83269	-0.0241532	-0.03197682	0.3412617	-0.2465693	6.324184	-4.571348	0	0
26.86583	-0.007710373	-0.04384476	0.4962169	-0.3581547	3.117584	-2.245015	0	0
26.88239	-0.00118421	-0.0485822	0.3939654	-0.2859854	-2.057304	1.452048	0	0
26.89896	0.002131576	-0.05095378	0.2001412	-0.1431486	-5.849962	4.311072	0	0
26.91553	0.006815684	-0.05436151	0.2827334	-0.2056909	2.492635	-1.88753	0	0
26.9321	0.009631281	-0.0564119	0.1699498	-0.1237617	-3.403816	2.472627	0	0
26.94866	0.01060487	-0.05712125	0.05876571	-0.04281652	-3.355541	2.44293	0	0
26.96523	0.01060487	-0.05712125	0	0	-1.773553	1.292205	0	0
26.9818	0.01057855	-0.05710207	-0.001588235	0.001157349	-0.04793303	0.03492887	0	0
26.99858	0.0104733	-0.05702538	-0.006270696	0.004569203	-0.1403956	0.1022986	0	0
27.01493	0.01007861	-0.05669945	-0.02414352	0.0199371	-0.5394339	0.4638307	0	0
27.0315	0.009473401	-0.05618187	-0.03653025	0.03124101	-0.3763236	0.343426	0	0
27.04807	0.008315598	-0.05533861	-0.06988516	0.0508993	-1.006653	0.5932885	0	0
27.06463	0.006420964	-0.05395927	-0.1143603	0.08325763	-1.342262	0.9765763	0	0
27.0812	0.006289391	-0.0538635	-0.007941794	0.00578045	3.211717	-2.338266	0	0
27.09777	0.006315705	-0.05388265	0.001588347	-0.001156225	0.2876202	-0.2093492	0	0
27.11467	0.006368335	-0.05392096	0.003114336	-0.002266595	0.04559772	-0.03317871	0	0
27.1309	0.006368335	-0.05395927	0	-0.002359768	-0.09399626	-0.002812129	0	0
27.14769	0.006420964	-0.05399757	0.003134858	-0.002281752	0.09493261	0.002362536	0	0
27.16403	0.006447279	-0.05405503	0.001609847	-0.003515169	-0.04602492	-0.03722459	0	0
27.1806	0.006473594	-0.05407419	0.001588559	-0.001156358	-0.0006468347	0.07167178	0	0
27.19717	0.006499908	-0.05409334	0.001588347	-0.001156	-6.3702E-06	1.080439E-05	0	0
27.21374	0.006499908	-0.05409334	0	0	-0.04793366	0.03488614	0	0
27.2303	0.006499908	-0.05409334	0	0	0	0	0	0
27.24687	0.006499908	-0.05409334	0	0	0	0	0	0
27.26377	0.006499908	-0.05409334	0	0	0	0	0	0
27.28	0.006473594	-0.05407419	-0.001621578	0.001180185	-0.04893932	0.03561806	0	0
27.29657	0.006473594	-0.05407419	0	0	0.04944884	-0.03598889	0	0
27.31313	0.006473594	-0.05407419	0	0	0	0	0	0
27.33513	0.006473594	-0.05407419	0	0	0	0	0	0
27.35184	0.006473594	-0.05407419	0	0	0	0	0	0
27.36827	0.006473594	-0.05407419	0	0	0	0	0	0
27.38486	0.006473594	-0.05407419	0	0	0	0	0	0
27.4014	0.006473594	-0.05407419	0	0	0	0	0	0
27.41797	0.006473594	-0.05407419	0	0	0	0	0	0
27.43453	0.006473594	-0.05407419	0	0	0	0	0	0
27.4511	0.006473594	-0.05407419	0	0	0	0	0	0
27.46767	0.006447279	-0.05409334	-0.001588193	-0.001155867	-0.04792899	-0.03488212	0	0
27.48424	0.006473594	-0.05411249	0.001588559	-0.001156358	0.09587455	-1.481961E-05	0	0
27.5008	0.006499908	-0.05413165	0.00158853	-0.001156133	-8.503459E-07	6.788712E-06	0	0
27.51894	0.006499908	-0.05413165	0	0	-0.04577594	0.03331574	0	0
27.53551	0.006552538	-0.05416996	0.003176723	-0.00231245	0.09153712	-0.06663312	0	0
27.55207	0.006578852	-0.05418911	0.001588347	-0.001156225	-0.04793727	0.03489494	0	0
27.56864	0.006578852	-0.05418911	0	0	-0.04793366	0.03489293	0	0
27.58521	0.006578852	-0.05418911	0	0	0	0	0	0
27.60201	0.006578852	-0.05422742	0	-0.00227968	0	-0.06831718	0	0
27.61852	0.006605167	-0.05424657	0.001593668	-0.001160098	0.04783542	0.03360529	0	0
27.63491	0.006578852	-0.05426573	-0.001606099	-0.001169147	-0.09726905	-0.0002750634	0	0
27.65147	0.006552538	-0.05428489	-0.001588347	-0.001156225	0.000538707	0.0003921427	0	0
27.66804	0.006578852	-0.05430404	0.001588165	-0.001156092	0.09586181	4.019123E-06	0	0
27.75112	0.006552538	-0.05428489	-0.0003167505	0.000230576	-0.0191169	0.01391599	0	0
27.76744	0.006552538	-0.05428489	0	0	0.003186639	-0.002319688	0	0
27.78414	0.006552538	-0.05428489	0	0	0	0	0	0
27.80065	0.006552538	-0.05428489	0	0	0	0	0	0
27.81717	0.006552538	-0.05428489	0	0	0	0	0	0
27.83371	0.006552538	-0.05428489	0	0	0	0	0	0
27.85028	0.006552538	-0.05428489	0	0	0	0	0	0
27.86684	0.006552538	-0.05428489	0	0	0	0	0	0
27.88341	0.006552538	-0.05428489	0	0	0	0	0	0
27.90001	0.006552538	-0.05428489	0	0	0	0	0	0
27.91674	0.006552538	-0.05428489	0	0	0	0	0	0
27.93325	0.006552538	-0.05428489	0	0	0	0	0	0
27.94976	0.006552538	-0.05428489	0	0	0	0	0	0
27.96628	0.006552538	-0.05428489	0	0	0	0	0	0
27.98281	0.006552538	-0.05428489	0	0	0	0	0	0
28.00535	0.006552538	-0.05428489	0	0	0	0	0	0
28.02192	0.006552538	-0.05428489	0	0	0	0	0	0
28.03883	0.006552538	-0.05428489	0	0	0	0	0	0
28.05505	0.006552538	-0.05428489	0	0	0	0	0	0
28.08818	0.006552538	-0.05428489	0	0	0	0	0	0
28.10475	0.006552538	-0.05428489	0	0	0	0	0	0
28.12132	0.006552538	-0.05428489	0	0	0	0	0	0
28.1379	0.006552538	-0.05428489	0	0	0	0	0	0
28.15445	0.006552538	-0.05428489	0	0	0	0	0	0
28.17101	0.006526223	-0.05426573	-0.001588559	0.001156358	-0.04797041	0.03491905	0	0
28.18758	0.006526223	-0.05426573	0	0	0.04794555	-0.03490096	0	0
28.20415	0.006526223	-0.05426573	0	0	0	0	0	0
28.22071	0.006526223	-0.05426573	0	0	0	0	0	0
28.23746	0.006526223	-0.05426573	0	0	0	0	0	0
28.25385	0.006526223	-0.05426573	0	0	0	0	0	0
28.27041	0.006526223	-0.05426573	0	0	0	0	0	0
28.287	0.006526223	-0.05426573	0	0	0	0	0	0
28.30355	0.006526223	-0.05426573	0	0	0	0	0	0
28.32011	0.006526223	-0.05426573	0	0	0	0	0	0
28.33668	0.006526223	-0.05426573	0	0	0	0	0	0
28.35325	0.006526223	-0.05426573	0	0	0	0	0	0
28.36982	0.006552538	-0.05428489	0.001588376	-0.001156225	0.04794003	-0.03489694	0	0
28.38638	0.006526223	-0.05426573	-0.001588376	0.001156225	-0.09587455	0.06978987	0	0
28.40295	0.006526223	-0.05426573	0	0	0.04794003	-0.03489694	0	0
28.41952	0.006526223	-0.05426573	0	0	0	0	0	0
28.43608	0.006526223	-0.05426573	0	0	0	0	0	0
28.45265	0.006526223	-0.05426573	0	0	0	0	0	0
28.46922	0.006526223	-0.05426573	0	0	0	0	0	0
28.48578	0.006526223	-0.05426573	0	0	0	0	0	0
28.50235	0.006526223	-0.05426573	0	0	0	0	0	0
28.51917	0.006526223	-0.05426573	0	0	0	0	0	0
28.53549	0.006526223	-0.05426573	0	0	0	0	0	0
28.55205	0.006526223	-0.05426573	0	0	0	0	0	0
28.56862	0.006526223	-0.05426573	0	0	0	0	0	0
28.60223	0.006526223	-0.05426573	0	0	0	0	0	0
28.61832	0.006526223	-0.05426573	0	0	0	0	0	0
28.63489	0.006526223	-0.05426573	0	0	0	0	0	0
28.65145	0.006526223	-0.05426573	0	0	0	0	0	0
28.66802	0.006526223	-0.05426573	0	0	0	0	0	0
28.68458	0.006526223	-0.05426573	0	0	0	0	0	0
28.72196	0.006526223	-0.05426573	0	0	0	0	0	0
28.73933	0.006526223	-0.05426573	0	0	0	0	0	0
28.75534	0.006526223	-0.05426573	0	0	0	0	0	0
28.77166	0.006526223	-0.05426573	0	0	0	0	0	0
28.78836	0.006499908	-0.05424657	-0.001575829	0.001147112	-0.04771794	0.03473589	0	0
28.80487	0.006499908	-0.05424657	0	0	0.04745482	-0.03454436	0	0
28.82136	0.006499908	-0.05424657	0	0	0	0	0	0
28.83793	0.006499908	-0.05424657	0	0	0	0	0	0
28.85449	0.006499908	-0.05424657	0	0	0	0	0	0
28.87106	0.006499908	-0.05424657	0	0	0	0	0	0
28.88763	0.006499908	-0.05424657	0	0	0	0	0	0
28.90419	0.006499908	-0.05424657	0	0	0	0	0	0
28.92076	0.006499908	-0.05424657	0	0	0	0	0	0
28.93733	0.006499908	-0.05424657	0	0	0	0	0	0
28.9539	0.006499908	-0.05424657	0	0	0	0	0	0
28.97046	0.006499908	-0.05424657	0	0	0	0	0	0
28.98703	0.006499908	-0.05424657	0	0	0	0	0	0
29.0036	0.006499908	-0.05424657	0	0	0	0	0	0
29.02016	0.006499908	-0.05424657	0	0	0	0	0	0
29.03673	0.006499908	-0.05424657	0	0	0	0	0	0
29.0533	0.006499908	-0.05424657	0	0	0	0	0	0
29.08643	0.006499908	-0.05424657	0	0	0	0	0	0
29.103	0.006499908	-0.05424657	0	0	0	0	0	0
29.11956	0.006499908	-0.05424657	0	0	0	0	0	0
29.13613	0.006499908	-0.05424657	0	0	0	0	0	0
29.1527	0.006499908	-0.05424657	0	0	0	0	0	0
29.16927	0.006499908	-0.05424657	0	0	0	0	0	0
29.18583	0.006499908	-0.05424657	0	0	0	0	0	0
29.20265	0.006499908	-0.05424657	0	0	0	0	0	0
29.21897	0.006499908	-0.05424657	0	0	0	0	0	0
29.23553	0.006499908	-0.05424657	0	0	0	0	0	0
29.25219	0.006499908	-0.05424657	0	0	0	0	0	0
29.26867	0.006499908	-0.05424657	0	0	0	0	0	0
29.28523	0.006499908	-0.05424657	0	0	0	0	0	0
29.3018	0.006499908	-0.05424657	0	0	0	0	0	0
29.31837	0.006499908	-0.05424657	0	0	0	0	0	0
29.33525	0.006499908	-0.05424657	0	0	0	0	0	0
29.3515	0.006499908	-0.05424657	0	0	0	0	0	0
29.36827	0.006499908	-0.05424657	0	0	0	0	0	0
29.38463	0.006499908	-0.05424657	0	0	0	0	0	0
29.40613	0.006499908	-0.05424657	0	0	0	0	0	0
29.4227	0.006499908	-0.05424657	0	0	0	0	0	0
29.43933	0.006499908	-0.05424657	0	0	0	0	0	0
29.45583	0.006499908	-0.05424657	0	0	0	0	0	0
29.4724	0.006499908	-0.05424657	0	0	0	0	0	0
29.48897	0.006499908	-0.05424657	0	0	0	0	0	0
29.50554	0.006499908	-0.05424657	0	0	0	0	0	0
29.5221	0.006499908	-0.05424657	0	0	0	0	0	0
29.60494	0.006499908	-0.05424657	0	0	0	0	0	0
29.62196	0.006499908	-0.05424657	0	0	0	0	0	0
29.63807	0.006499908	-0.05424657	0	0	0	0	0	0
29.70541	0.006499908	-0.05424657	0	0	0	0	0	0
29.72198	0.006499908	-0.05424657	0	0	0	0	0	0
29.73854	0.006499908	-0.05424657	0	0	0	0	0	0
29.75511	0.006499908	-0.05424657	0	0	0	0	0	0
29.77168	0.006499908	-0.05424657	0	0	0	0	0	0
29.78824	0.006499908	-0.05424657	0	0	0	0	0	0
29.80508	0.006499908	-0.05424657	0	0	0	0	0	0
29.82137	0.006499908	-0.05424657	0	0	0	0	0	0
29.83794	0.006499908	-0.05424657	0	0	0	0	0	0
29.85451	0.006499908	-0.05424657	0	0	0	0	0	0
29.87113	0.006499908	-0.05424657	0	0	0	0	0	0
29.88764	0.006499908	-0.05424657	0	0	0	0	0	0
29.90421	0.006499908	-0.05424657	0	0	0	0	0	0
29.92077	0.006499908	-0.05424657	0	0	0	0	0	0
29.93734	0.006499908	-0.05424657	0	0	0	0	0	0
29.95419	0.006499908	-0.05424657	0	0	0	0	0	0
29.97047	0.006499908	-0.05424657	0	0	0	0	0	0
29.98704	0.006499908	-0.05424657	0	0	0	0	0	0
30.00372	0.006499908	-0.05424657	0	0	0	0	0	0
30.02018	0.006499908	-0.05424657	0	0	0	0	0	0
30.03675	0.006499908	-0.05424657	0	0	0	0	0	0
30.06988	0.006499908	-0.05424657	0	0	0	0	0	0
30.08644	0.006499908	-0.05424657	0	0	0	0	0	0
30.11958	0.006499908	-0.05424657	0	0	0	0	0	0
30.13614	0.006499908	-0.05424657	0	0	0	0	0	0
30.15271	0.006499908	-0.05424657	0	0	0	0	0	0
30.16928	0.006499908	-0.05424657	0	0	0	0	0	0
30.18584	0.006499908	-0.05424657	0	0	0	0	0	0
30.20241	0.006499908	-0.05424657	0	0	0	0	0	0
30.219	0.006499908	-0.05424657	0	0	0	0	0	0
30.24104	0.006499908	-0.05424657	0	0	0	0	0	0
30.25761	0.006499908	-0.05424657	0	0	0	0	0	0
30.27442	0.006499908	-0.05424657	0	0	0	0	0	0
30.29093	0.006499908	-0.05424657	0	0	0	0	0	0
30.30744	0.006499908	-0.05424657	0	0	0	0	0	0
30.32396	0.006499908	-0.05424657	0	0	0	0	0	0
30.34044	0.006499908	-0.05424657	0	0	0	0	0	0
30.35701	0.006499908	-0.05424657	0	0	0	0	0	0
30.37399	0.006499908	-0.05424657	0	0	0	0	0	0
30.39015	0.006499908	-0.05424657	0	0	0	0	0	0
30.40671	0.006499908	-0.05424657	0	0	0	0	0	0
30.45641	0.006499908	-0.05424657	0	0	0	0	0	0
30.47306	0.006499908	-0.05424657	0	0	0	0	0	0
30.48958	0.006499908	-0.05424657	0	0	0	0	0	0
30.50611	0.006499908	-0.05424657	0	0	0	0	0	0
30.52268	0.006499908	-0.05424657	0	0	0	0	0	0
30.53925	0.006499908	-0.05424657	0	0	0	0	0	0
30.55581	0.006499908	-0.05424657	0	0	0	0	0	0
30.57238	0.006499908	-0.05424657	0	0	0	0	0	0
30.58894	0.006499908	-0.05424657	0	0	0	0	0	0
30.60551	0.006499908	-0.05424657	0	0	0	0	0	0
30.62208	0.006499908	-0.05424657	0	0	0	0	0	0
30.63864	0.006499908	-0.05424657	0	0	0	0	0	0
30.65521	0.006499908	-0.05424657	0	0	0	0	0	0
30.67177	0.006499908	-0.05424657	0	0	0	0	0	0
30.68834	0.006499908	-0.05424657	0	0	0	0	0	0
30.70491	0.006499908	-0.05424657	0	0	0	0	0	0
30.72174	0.006499908	-0.05424657	0	0	0	0	0	0
30.73825	0.006473594	-0.05426573	-0.0015933	-0.00115983	-0.04778606	-0.03478548	0	0
30.75476	0.006473594	-0.05426573	0	0	0.04824698	0.035121	0	0
30.77117	0.006473594	-0.05426573	0	0	0	0	0	0
30.78774	0.006473594	-0.05426573	0	0	0	0	0	0
30.80431	0.006420964	-0.05430404	-0.003176723	-0.00231245	-0.09587369	-0.06978987	0	0
30.82088	0.006420964	-0.05430404	0	0	0.09587369	0.06978987	0	0
30.83744	0.006368335	-0.05434235	-0.003177089	-0.002312716	-0.09589025	-0.06980192	0	0
30.85401	0.006315705	-0.05438066	-0.003176723	-0.00231245	1.103981E-05	8.032143E-06	0	0
30.87057	0.006184132	-0.05447644	-0.007941794	-0.005781349	-0.1438101	-0.1046916	0	0
30.88714	0.006052558	-0.05457223	-0.007941822	-0.005781574	-8.432211E-07	-6.78793E-06	0	0
30.90371	0.005999928	-0.05461054	-0.003176751	-0.002312674	0.1438101	0.1046916	0	0
30.92029	0.005947298	-0.05464886	-0.00317453	-0.002311078	6.700591E-05	4.81594E-05	0	0
30.93684	0.005894668	-0.05468717	-0.003179313	-0.00231454	-0.0001443607	-0.0001044811	0	0
30.95341	0.005815724	-0.05474465	-0.004765647	-0.003469524	-0.04789772	-0.03487353	0	0
30.96997	0.005710464	-0.05478296	-0.006353475	-0.002312899	-0.04792348	0.034909	0	0
30.98654	0.005605204	-0.0548596	-0.006353503	-0.004625799	-8.432211E-07	-0.06980344	0	0
31.00312	0.005552575	-0.05489792	-0.003175289	-0.002311835	0.09589659	0.06981949	0	0
31.01967	0.005499945	-0.05493624	-0.003178581	-0.002314232	-9.935122E-05	-7.233848E-05	0	0
31.03624	0.005447315	-0.05497456	-0.003176386	-0.002312633	6.627136E-05	4.825039E-05	0	0
31.07439	0.005289424	-0.05508952	-0.004139001	-0.003013672	-0.01759292	-0.01281229	0	0
31.091	0.005263109	-0.05510868	-0.001584363	-0.001153528	0.04665482	0.03397141	0	0
31.17379	0.004684176	-0.05553024	-0.006992918	-0.005092074	-0.0544133	-0.03962414	0	0
31.19036	0.004473655	-0.05568355	-0.01270712	-0.009253846	-0.05751256	-0.0418876	0	0
31.20692	0.003947348	-0.05606687	-0.03176793	-0.02313709	-0.5752566	-0.4189971	0	0
31.22359	0.0006842104	-0.05844456	-0.1957912	-0.1426635	-4.93546	-3.596549	0	0
31.2401	-0.007052515	-0.06412832	-0.4684999	-0.3441818	-8.219008	-6.073443	0	0
31.25662	-0.02123365	-0.074469	-0.8585449	-0.6260388	-11.80829	-8.532986	0	0
31.27323	-0.03332976	-0.08339642	-0.7281944	-0.537437	3.934668	2.674469	0	0
31.29014	-0.03764011	-0.0865725	-0.2549775	-0.1878799	14.11916	10.42958	0	0
31.30632	-0.06464663	-0.1065483	-1.668536	-1.234162	-42.71783	-31.61871	0	0
31.32289	-0.07860089	-0.1169372	-0.8423778	-0.6271431	25.22536	18.53431	0	0
31.33968	-0.09236799	-0.1272902	-0.8197531	-0.6164626	0.6782089	0.3201651	0	0
31.35602	-0.1058138	-0.1374297	-0.8228659	-0.6205252	-0.09394608	-0.1226093	0	0
31.3727	-0.1229296	-0.1504922	-1.026494	-0.7834002	-6.167884	-4.933468	0	0
31.38915	-0.1351965	-0.1599324	-0.7454088	-0.5736456	8.484154	6.331135	0	0
31.40572	-0.139354	-0.1631477	-0.2509471	-0.1940722	14.97287	11.49392	0	0
31.42229	-0.1558829	-0.1759736	-0.997683	-0.7741742	-22.53654	-17.50751	0	0
31.43885	-0.1728116	-0.1892977	-1.021817	-0.8042459	-0.728356	-0.9075668	0	0
31.45576	-0.1900722	-0.2030492	-1.021165	-0.8135579	0.01947872	-0.2782173	0	0
31.47199	-0.2031581	-0.2135949	-0.8062943	-0.6497816	6.485178	4.94306	0	0
31.48855	-0.2239429	-0.2305755	-1.254574	-1.024949	-13.66836	-11.43914	0	0
31.50512	-0.2314603	-0.236791	-0.4537492	-0.3751673	24.16893	19.61047	0	0
31.52169	-0.2453997	-0.248427	-0.8412876	-0.7022697	-11.69526	-9.871404	0	0
31.53831	-0.2546392	-0.2562225	-0.5558421	-0.468975	8.599912	7.028711	0	0
31.55485	-0.2631967	-0.2634624	-0.5174848	-0.4378046	1.156759	0.9400219	0	0
31.57141	-0.2731063	-0.2719716	-0.5982153	-0.5136748	-2.438838	-2.292011	0	0
31.58795	-0.2796824	-0.2776656	-0.397668	-0.3443285	6.05846	5.115888	0	0
31.60452	-0.2868876	-0.2839491	-0.4349024	-0.3792723	-1.124774	-1.055579	0	0
31.62187	-0.2913119	-0.2878314	-0.2549616	-0.2237219	5.304814	4.585763	0	0
31.63765	-0.2928806	-0.2892123	-0.09941413	-0.08751171	4.694702	4.111069	0	0
31.65422	-0.2962543	-0.2921901	-0.2035872	-0.1796983	-3.220134	-2.849615	0	0
31.67079	-0.2963265	-0.2922539	-0.00435967	-0.00385587	6.012699	5.306935	0	0
31.68735	-0.2963265	-0.2922539	0	0	0.1315978	0.1163905	0	0
31.70392	-0.2963265	-0.2922539	0	0	0	0	0	0
31.72049	-0.2963024	-0.2922752	0.00145169	-0.001284394	0.04381208	-0.0387631	0	0
31.73705	-0.2963024	-0.2922752	0	0	-0.0438146	0.03876533	0	0
31.75397	-0.2963024	-0.2922752	0	0	0	0	0	0
31.77019	-0.2963024	-0.2922752	0	0	0	0	0	0
31.78675	-0.2963024	-0.2922752	0	0	0	0	0	0
31.8035	-0.2963024	-0.2922752	0	0	0	0	0	0
31.82001	-0.2963024	-0.2922752	0	0	0	0	0	0
31.83645	-0.2963024	-0.2922752	0	0	0	0	0	0
31.90792	-0.2962784	-0.2922965	0.0003369362	-0.0002981552	0.003832587	-0.00339146	0	0
31.92449	-0.2962784	-0.2922965	0	0	-0.003827273	0.003386758	0	0
31.94106	-0.2962784	-0.2922965	0	0	0	0	0	0
31.95762	-0.2962784	-0.2922965	0	0	0	0	0	0
31.97419	-0.2962784	-0.2922965	0	0	0	0	0	0
31.99076	-0.2962784	-0.2922965	0	0	0	0	0	0
32.00732	-0.2962784	-0.2922965	0	0	0	0	0	0
32.02389	-0.2962784	-0.2922965	0	0	0	0	0	0
32.04046	-0.2962784	-0.2922965	0	0	0	0	0	0
32.05703	-0.2962784	-0.2922965	0	0	0	0	0	0
32.07359	-0.2962784	-0.2922965	0	0	0	0	0	0
32.09016	-0.2962784	-0.2922965	0	0	0	0	0	0
32.13986	-0.2962784	-0.2922965	0	0	0	0	0	0
32.15643	-0.2962784	-0.2922965	0	0	0	0	0	0
32.17299	-0.2962784	-0.2922965	0	0	0	0	0	0
32.18956	-0.2962784	-0.2922965	0	0	0	0	0	0
32.20613	-0.2962784	-0.2922965	0	0	0	0	0	0
32.22269	-0.2962784	-0.2922965	0	0	0	0	0	0
32.23926	-0.2962784	-0.2922965	0	0	0	0	0	0
32.25583	-0.2962784	-0.2922965	0	0	0	0	0	0
32.27239	-0.2962784	-0.2922965	0	0	0	0	0	0
32.28935	-0.2962784	-0.2922965	0	0	0	0	0	0
32.30553	-0.2962784	-0.2922965	0	0	0	0	0	0
32.32209	-0.2962543	-0.2923178	0.001453488	-0.001284394	0.04438761	-0.0392237	0	0
32.33939	-0.2962543	-0.2923178	0	0	-0.04291769	0.03792479	0	0
32.3554	-0.2962543	-0.2923178	0	0	0	0	0	0
32.3718	-0.2962061	-0.2923178	0.002934912	0	0.09057801	0	0	0
32.38836	-0.2960376	-0.2923817	0.01017496	-0.00385587	0.2196431	-0.1169764	0	0
32.40493	-0.295556	-0.2925094	0.02906308	-0.00770819	0.5700443	-0.1162632	0	0
32.42149	-0.295267	-0.2925946	0.01744948	-0.00514236	-0.3504992	0.0774369	0	0
32.43806	-0.29037	-0.2937234	0.2955816	-0.06813587	8.395011	-1.901367	0	0
32.45463	-0.2799498	-0.2912962	0.6289647	0.1465037	10.06152	6.477835	0	0
32.4712	-0.2633439	-0.2841187	1.002106	0.4331387	11.26013	8.649666	0	0
32.48776	-0.2547378	-0.2770955	0.5195853	0.4240198	-14.5625	-0.2752112	0	0
32.5045	-0.240168	-0.2635672	0.8704163	0.8081931	10.53474	11.53594	0	0
32.5209	-0.2195353	-0.2401649	1.258427	1.427358	11.71018	18.68644	0	0
32.53753	-0.2047732	-0.2198207	0.8875708	1.223189	-11.22866	-6.181754	0	0
32.55404	-0.1906558	-0.1871354	0.8548822	1.979268	-0.986202	22.81061	0	0
32.5706	-0.1850937	-0.1586157	0.3358835	1.722248	-15.69232	-7.771194	0	0
32.59687	-0.1778125	-0.09760176	0.2771883	2.322746	-1.370498	14.02129	0	0
32.61358	-0.173986	-0.06968868	0.2290159	1.670605	-1.120904	-15.17441	0	0
32.63	-0.1688505	-0.03947696	0.3126461	1.839252	2.523962	5.089796	0	0
32.6466	-0.165857	-0.02785387	0.1803564	0.700281	-4.005886	-34.48937	0	0
32.66314	-0.1598097	-0.01504485	0.3657734	0.7747598	5.59654	2.248034	0	0
32.6797	-0.1486841	-0.005396278	0.6715449	0.582389	9.237776	-5.811783	0	0
32.69627	-0.1414439	-0.0004791013	0.4370188	0.2968014	-7.078012	-8.619051	0	0
32.71284	-0.1360233	0.001967354	0.3271887	0.1476683	-3.314679	-4.500844	0	0
32.7294	-0.1288609	-0.002908516	0.4323193	-0.2943081	3.172846	-13.33888	0	0
32.74597	-0.1188322	-0.01020753	0.6053338	-0.4405696	5.22159	-4.414181	0	0
32.76254	-0.1113273	-0.01566894	0.453	-0.3296511	-4.597444	3.347529	0	0
32.7792	-0.1031067	-0.02165128	0.4934644	-0.3591106	1.217853	-0.8866398	0	0
32.79571	-0.100815	-0.02331927	0.1388122	-0.101029	-10.69234	7.780856	0	0
32.81224	-0.1013099	-0.02295906	-0.02994146	0.02179247	-5.107697	3.717458	0	0
32.8288	-0.1019089	-0.02252308	-0.03615822	0.02631626	-0.1878386	0.1366857	0	0
32.84537	-0.1019089	-0.02252308	0	0	1.091257	-0.7942262	0	0
32.86226	-0.1019349	-0.02254203	-0.001541941	-0.001122374	-0.04609014	-0.03354888	0	0
32.87851	-0.1019089	-0.02256099	0.001602764	-0.001166762	0.09490738	-0.001339622	0	0
32.89507	-0.1019349	-0.02269367	-0.001572126	-0.008010759	-0.09676531	-0.2085935	0	0
32.91164	-0.101961	-0.02275054	-0.001572214	-0.003432585	-2.649425E-06	0.1381855	0	0
32.9282	-0.101961	-0.02286428	0	-0.006865282	0.04744951	-0.103599	0	0
32.94477	-0.1020391	-0.02311073	-0.004715742	-0.01487555	-0.1423214	-0.2417502	0	0
32.96134	-0.1021433	-0.02330031	-0.006287506	-0.01144352	-0.04743594	0.1035786	0	0
32.97791	-0.1022214	-0.02335719	-0.004715742	-0.003433147	0.04743594	0.2417536	0	0
32.99447	-0.1022214	-0.02347095	0	-0.006868212	0.1423378	-0.1036824	0	0
33.01104	-0.1022214	-0.02347095	0	0	0	0.2073069	0	0
33.0276	-0.1022214	-0.02347095	0	0	0	0	0	0
33.04417	-0.1022214	-0.02347095	0	0	0	0	0	0
33.06091	-0.1022214	-0.02347095	0	0	0	0	0	0
33.0773	-0.1022214	-0.02347095	0	0	0	0	0	0
33.09387	-0.1021693	-0.02350887	0.003143528	-0.00228884	0.09535491	-0.06942902	0	0
33.11044	-0.1021172	-0.02354679	0.003143978	-0.002288952	1.356883E-05	-3.386938E-06	0	0
33.12701	-0.101987	-0.0236416	0.007859721	-0.005722548	0.1423214	-0.1036261	0	0
33.14357	-0.1018568	-0.02373641	0.007859721	-0.005722661	0	-3.386938E-06	0	0
33.16014	-0.1011275	-0.02426739	0.04401929	-0.03205005	1.091298	-0.7945621	0	0
33.17671	-0.09714066	-0.02717041	0.2406481	-0.1752269	5.93427	-4.321085	0	0
33.19328	-0.09278544	-0.03034218	0.2628817	-0.1914482	0.6710116	-0.4895602	0	0
33.21001	-0.07888857	-0.04046822	0.8305929	-0.6052167	17.04916	-12.42604	0	0
33.22641	-0.07030499	-0.04672835	0.5232872	-0.3816409	-9.274506	6.747532	0	0
33.24303	-0.06462043	-0.05087725	0.3420183	-0.2496232	-5.489031	3.997647	0	0
33.25954	-0.05641376	-0.05691034	0.4969573	-0.3653361	4.676067	-3.492222	0	0
33.27611	-0.04363019	-0.06637808	0.7716179	-0.5714737	8.302657	-6.231287	0	0
33.29268	-0.03698313	-0.07128763	0.4012174	-0.2963412	-11.17871	8.303514	0	0
33.33009	-0.02883411	-0.07726777	0.2178034	-0.1598346	-3.397702	2.528752	0	0
33.3466	-0.02938627	-0.07686226	-0.03344411	0.02456163	-4.659241	3.419523	0	0
33.36308	-0.02996471	-0.0764375	-0.03511678	0.02578731	-0.05071506	0.03716224	0	0
33.37964	-0.02996471	-0.0764375	0	0	1.062886	-0.7805091	0	0
33.39621	-0.029991	-0.07641819	-0.001586942	0.001165219	-0.04789401	0.03516638	0	0
33.41278	-0.029991	-0.07641819	0	0	0.04789401	-0.03516638	0	0
33.42934	-0.029991	-0.07641819	0	0	0	0	0	0
33.44591	-0.029991	-0.07641819	0	0	0	0	0	0
33.46248	-0.029991	-0.07641819	0	0	0	0	0	0
33.47905	-0.029991	-0.07641819	0	0	0	0	0	0
33.49561	-0.029991	-0.07641819	0	0	0	0	0	0
33.51223	-0.029991	-0.0764568	0	-0.00232295	0	-0.06999396	0	0
33.52874	-0.0300173	-0.07647611	-0.001592555	-0.001169709	-0.04806894	0.0348089	0	0
33.54531	-0.03012246	-0.07655334	-0.006347881	-0.004661326	-0.1437643	-0.1055595	0	0
33.56188	-0.03022763	-0.07666918	-0.006346532	-0.006990605	4.070884E-05	-0.07028968	0	0
33.57845	-0.03059571	-0.07697811	-0.0222173	-0.0186471	-0.4789257	-0.3517534	0	0
33.59501	-0.03259372	-0.07852332	-0.1206275	-0.09329028	-2.970368	-2.252995	0	0
33.61158	-0.0346966	-0.08014672	-0.1269594	-0.09801116	-0.1911418	-0.1425091	0	0
33.62814	-0.0353274	-0.08061072	-0.03807537	-0.02800753	2.682835	2.112957	0	0
33.64481	-0.04053042	-0.08448052	-0.3121147	-0.2321381	-8.244896	-6.141581	0	0
33.66133	-0.04489087	-0.08765787	-0.2640484	-0.1924056	1.448478	1.197336	0	0
33.67785	-0.04835701	-0.09021799	-0.2098446	-0.1549929	1.640975	1.132639	0	0
33.69441	-0.05106084	-0.09225619	-0.1632035	-0.1230262	1.409739	0.9662028	0	0
33.71098	-0.05667608	-0.09637619	-0.3390145	-0.248741	-5.306596	-3.794516	0	0
33.72787	-0.06627123	-0.1035042	-0.5677904	-0.4217996	-6.836779	-5.171715	0	0
33.74438	-0.07184979	-0.1077006	-0.3378893	-0.2541702	6.881388	5.017473	0	0
33.76067	-0.07909779	-0.1131172	-0.4449694	-0.3325344	-3.264762	-2.389241	0	0
33.77724	-0.08456103	-0.1172117	-0.329762	-0.2471447	3.506437	2.598907	0	0
33.79381	-0.09033244	-0.1215485	-0.3483632	-0.2617718	-0.5613865	-0.4414463	0	0
33.81038	-0.09299416	-0.1235526	-0.1606617	-0.120971	5.664842	4.249378	0	0
33.82694	-0.09716673	-0.1266603	-0.2518569	-0.1875787	-2.752275	-2.010225	0	0
33.84351	-0.09820934	-0.1274477	-0.06293218	-0.04752529	5.701759	4.22682	0	0
33.86008	-0.09820934	-0.1273689	0	0.004753518	1.899297	1.577778	0	0
33.87664	-0.09815722	-0.1273295	0.003146951	0.002376857	0.09498612	-0.07173605	0	0
33.89349	-0.09818328	-0.1273099	-0.001546758	0.001168249	-0.1404758	-0.03617185	0	0
33.94291	-0.09805297	-0.1270933	0.002637035	0.004382093	0.0631372	0.04849979	0	0
