Time	Pos X	Pos Y	Vel X	Vel Y	Acc X	Acc YForce X	Force Y
0.01663779	-0.006078872	0.01338578	0.0001005502	-0.0002214133	-1.663644E-06	3.663373E-06	0	0
0.04331857	-0.006078872	0.01338578	0	0	1.663928E-06	-3.663998E-06	0	0
0.05988847	-0.006078872	0.01338578	0	0	0	0	0	0
0.1095891	-0.006078872	0.01338578	0	0	0	0	0	0
0.1261562	-0.006078872	0.01338578	0	0	0	0	0	0
0.1427265	-0.006078872	0.01338578	0	0	0	0	0	0
0.1592889	-0.006078872	0.01338578	0	0	0	0	0	0
0.1758556	-0.006078872	0.01338578	0	0	0	0	0	0
0.1924219	-0.006078872	0.01338578	0	0	0	0	0	0
0.2103688	-0.006078872	0.01338578	0	0	0	0	0	0
0.2269359	-0.006078872	0.01338578	0	0	0	0	0	0
0.2435026	-0.006078872	0.01338578	0	0	0	0	0	0
0.2603054	-0.006078872	0.01338578	0	0	0	0	0	0
0.2768192	-0.006078872	0.01338578	0	0	0	0	0	0
0.2933449	-0.006078872	0.01338578	0	0	0	0	0	0
0.3097703	-0.006078872	0.01338578	0	0	0	0	0	0
0.3263359	-0.006105187	0.01340453	-0.001588536	0.001131829	-0.04815063	0.03430725	0	0
0.3429026	-0.006105187	0.01340453	0	0	0.04794525	-0.03416092	0	0
0.3598751	-0.006105187	0.01340453	0	0	0	0	0	0
0.3760372	-0.006105187	0.01340453	0	0	0	0	0	0
0.3926028	-0.006105187	0.01340453	0	0	0	0	0	0
0.4094099	-0.006105187	0.01340453	0	0	0	0	0	0
0.4257359	-0.006105187	0.01340453	0	0	0	0	0	0
0.4423026	-0.006105187	0.01340453	0	0	0	0	0	0
0.4588697	-0.006105187	0.01340453	0	0	0	0	0	0
0.4754605	-0.006105187	0.01340453	0	0	0	0	0	0
0.4920032	-0.006105187	0.01340453	0	0	0	0	0	0
0.5085691	-0.006105187	0.01340453	0	0	0	0	0	0
0.5251362	-0.006105187	0.01340453	0	0	0	0	0	0
0.5420054	-0.006105187	0.01340453	0	0	0	0	0	0
0.5582697	-0.006105187	0.01340453	0	0	0	0	0	0
0.5748392	-0.006105187	0.01340453	0	0	0	0	0	0
0.6079715	-0.006105187	0.01340453	0	0	0	0	0	0
0.6245655	-0.006105187	0.01340453	0	0	0	0	0	0
0.6411027	-0.006105187	0.01340453	0	0	0	0	0	0
0.657671	-0.006105187	0.01340453	0	0	0	0	0	0
0.6742373	-0.006105187	0.01340453	0	0	0	0	0	0
0.6908032	-0.006105187	0.01340453	0	0	0	0	0	0
0.7073703	-0.006105187	0.01340453	0	0	0	0	0	0
0.7239371	-0.006105187	0.01340453	0	0	0	0	0	0
0.7406518	-0.006105187	0.01340453	0	0	0	0	0	0
0.8233375	-0.006105187	0.01340453	0	0	0	0	0	0
0.8399026	-0.006105187	0.01340453	0	0	0	0	0	0
0.8564698	-0.006105187	0.01340453	0	0	0	0	0	0
0.8730365	-0.006105187	0.01340453	0	0	0	0	0	0
0.8896048	-0.006105187	0.01340453	0	0	0	0	0	0
0.9062667	-0.006105187	0.01340453	0	0	0	0	0	0
0.9228145	-0.006105187	0.01340453	0	0	0	0	0	0
0.939305	-0.006105187	0.01340453	0	0	0	0	0	0
0.9558702	-0.006105187	0.01340453	0	0	0	0	0	0
0.9724369	-0.006105187	0.01340453	0	0	0	0	0	0
0.9890037	-0.006131502	0.01342328	-0.001588421	0.001131692	-0.04794003	0.0341555	0	0
1.005834	-0.006131502	0.01342328	0	0	0.04756152	-0.03388582	0	0
1.022137	-0.006131502	0.01342328	0	0	0	0	0	0
1.038857	-0.006131502	0.01342328	0	0	0	0	0	0
1.073383	-0.006131502	0.01342328	0	0	0	0	0	0
1.089905	-0.006131502	0.01342328	0	0	0	0	0	0
1.106448	-0.006131502	0.01342328	0	0	0	0	0	0
1.123014	-0.006131502	0.01342328	0	0	0	0	0	0
1.139582	-0.006131502	0.01342328	0	0	0	0	0	0
1.156147	-0.006131502	0.01342328	0	0	0	0	0	0
1.172714	-0.006131502	0.01342328	0	0	0	0	0	0
1.189463	-0.006131502	0.01342328	0	0	0	0	0	0
1.205848	-0.006131502	0.01342328	0	0	0	0	0	0
1.222486	-0.006131502	0.01342328	0	0	0	0	0	0
1.238983	-0.006131502	0.01342328	0	0	0	0	0	0
1.255547	-0.006131502	0.01342328	0	0	0	0	0	0
1.272114	-0.006131502	0.01342328	0	0	0	0	0	0
1.288681	-0.006131502	0.01342328	0	0	0	0	0	0
1.305249	-0.006131502	0.01342328	0	0	0	0	0	0
1.321814	-0.006131502	0.01342328	0	0	0	0	0	0
1.338382	-0.006131502	0.01342328	0	0	0	0	0	0
1.354947	-0.006131502	0.01342328	0	0	0	0	0	0
1.371515	-0.006131502	0.01342328	0	0	0	0	0	0
1.388081	-0.006131502	0.01342328	0	0	0	0	0	0
1.404649	-0.006131502	0.01342328	0	0	0	0	0	0
1.437782	-0.006131502	0.01342328	0	0	0	0	0	0
1.454347	-0.006131502	0.01342328	0	0	0	0	0	0
1.470914	-0.006131502	0.01342328	0	0	0	0	0	0
1.487488	-0.006131502	0.01342328	0	0	0	0	0	0
1.504188	-0.006131502	0.01342328	0	0	0	0	0	0
1.520697	-0.006131502	0.01342328	0	0	0	0	0	0
1.537209	-0.006131502	0.01342328	0	0	0	0	0	0
1.553747	-0.006131502	0.01342328	0	0	0	0	0	0
1.586883	-0.006157817	0.01340453	-0.0007941509	-0.0005658132	-0.01598736	-0.01139061	0	0
1.603448	-0.006157817	0.01340453	0	0	0.01597869	0.01138443	0	0
1.620014	-0.006157817	0.01340453	0	0	0	0	0	0
1.636581	-0.006157817	0.01340453	0	0	0	0	0	0
1.653147	-0.006157817	0.01340453	0	0	0	0	0	0
1.669802	-0.006157817	0.01340453	0	0	0	0	0	0
1.686314	-0.006157817	0.01340453	0	0	0	0	0	0
1.702848	-0.006157817	0.01340453	0	0	0	0	0	0
1.719415	-0.006157817	0.01340453	0	0	0	0	0	0
1.735981	-0.006157817	0.01340453	0	0	0	0	0	0
1.752548	-0.006157817	0.01340453	0	0	0	0	0	0
1.769114	-0.006157817	0.01340453	0	0	0	0	0	0
1.818816	-0.006157817	0.01340453	0	0	0	0	0	0
1.852638	-0.006157817	0.01340453	0	0	0	0	0	0
1.869203	-0.006157817	0.01340453	0	0	0	0	0	0
1.885769	-0.006157817	0.01340453	0	0	0	0	0	0
1.902336	-0.006157817	0.01340453	0	0	0	0	0	0
1.918905	-0.006157817	0.01340453	0	0	0	0	0	0
1.93549	-0.006157817	0.01340453	0	0	0	0	0	0
1.952038	-0.006157817	0.01340453	0	0	0	0	0	0
1.968603	-0.006157817	0.01340453	0	0	0	0	0	0
1.985172	-0.006157817	0.01340453	0	0	0	0	0	0
2.001739	-0.006157817	0.01340453	0	0	0	0	0	0
2.018559	-0.006157817	0.01340453	0	0	0	0	0	0
2.034872	-0.006157817	0.01340453	0	0	0	0	0	0
2.051579	-0.006157817	0.01340453	0	0	0	0	0	0
2.068086	-0.006157817	0.01340453	0	0	0	0	0	0
2.08457	-0.006157817	0.01340453	0	0	0	0	0	0
2.101138	-0.006157817	0.01340453	0	0	0	0	0	0
2.117705	-0.006157817	0.01340453	0	0	0	0	0	0
2.13427	-0.006157817	0.01340453	0	0	0	0	0	0
2.151145	-0.006157817	0.01340453	0	0	0	0	0	0
2.184165	-0.006157817	0.01340453	0	0	0	0	0	0
2.200537	-0.006157817	0.01340453	0	0	0	0	0	0
2.21719	-0.006157817	0.01340453	0	0	0	0	0	0
2.23367	-0.006131502	0.01342328	0.001596758	0.001137651	0.04819198	0.03433561	0	0
2.250236	-0.006131502	0.01342328	0	0	-0.04831889	-0.03442603	0	0
2.266804	-0.006131502	0.01342328	0	0	0	0	0	0
2.28337	-0.006131502	0.01342328	0	0	0	0	0	0
2.299937	-0.006131502	0.01342328	0	0	0	0	0	0
2.316504	-0.006131502	0.01342328	0	0	0	0	0	0
2.333071	-0.006131502	0.01342328	0	0	0	0	0	0
2.349638	-0.006131502	0.01342328	0	0	0	0	0	0
2.366205	-0.006131502	0.01342328	0	0	0	0	0	0
2.382771	-0.006131502	0.01342328	0	0	0	0	0	0
2.399337	-0.006131502	0.01342328	0	0	0	0	0	0
2.415904	-0.006131502	0.01342328	0	0	0	0	0	0
2.432472	-0.006157817	0.01340453	-0.001588325	-0.001131643	-0.04793504	-0.03415255	0	0
2.449037	-0.006157817	0.01340453	0	0	0.04793849	0.03415501	0	0
2.465605	-0.006184132	0.01342328	-0.001588261	0.001131578	-0.0479352	0.03415206	0	0
2.48217	-0.006210446	0.01344203	-0.001588553	0.001131862	-8.811914E-06	8.580022E-06	0	0
2.498737	-0.006210446	0.01344203	0	0	0.04794643	-0.03416236	0	0
2.515399	-0.006210446	0.01344203	0	0	0	0	0	0
2.531916	-0.006263076	0.01347953	-0.003186399	0.002270211	-0.09603579	0.06842256	0	0
2.548437	-0.006473594	0.01362951	-0.01274302	0.009078842	-0.2892686	0.2060899	0	0
2.565006	-0.007052515	0.01404194	-0.0349387	0.02489044	-0.6707696	0.477838	0	0
2.581573	-0.007394602	0.01432311	-0.02064903	0.016972	0.4312384	-0.2389653	0	0
2.615474	-0.0102628	0.0163656	-0.0846051	0.06024868	-1.267267	0.857512	0	0
2.63189	-0.01031542	0.01640306	-0.003205729	0.00228231	1.617722	-1.152017	0	0
2.648457	-0.01031542	0.01640306	0	0	0.09719318	-0.06919642	0	0
2.665025	-0.01031542	0.01640306	0	0	0	0	0	0
2.681591	-0.01028911	0.01638433	0.001588451	-0.001130817	0.04794094	-0.03412911	0	0
2.698157	-0.01028911	0.01638433	0	0	-0.04794335	0.03413083	0	0
2.714724	-0.0102628	0.0163656	0.001588281	-0.001130848	0.04793648	-0.03413054	0	0
2.731291	-0.01028911	0.01638433	-0.001588235	0.001130816	-0.09586882	0.06825814	0	0
2.747857	-0.0102628	0.01640306	0.001588327	0.001130768	0.09587158	-1.42649E-06	0	0
2.84726	-0.02512629	0.02768087	-0.1495277	0.1134555	-1.303071	0.9685736	0	0
2.863824	-0.03096378	0.03201048	-0.3524229	0.2613887	-1.749597	1.275652	0	0
2.880392	-0.0359319	0.03572016	-0.2998543	0.2239005	1.586626	-1.13147	0	0
2.897172	-0.04011006	0.03875596	-0.2489979	0.1809192	1.525007	-1.288858	0	0
2.913526	-0.04257951	0.04050555	-0.1510039	0.1069847	2.95755	-2.231411	0	0
2.930199	-0.04378778	0.04136144	-0.07246713	0.05133262	2.37796	-1.685053	0	0
2.946658	-0.04381405	0.04141724	-0.001595907	0.003390766	2.139036	-1.446982	0	0
2.963224	-0.04373525	0.04147306	0.004756559	0.003369079	0.1923531	-0.000656663	0	0
2.979792	-0.04336753	0.0417335	0.02219487	0.01571944	0.5262969	0.3727399	0	0
2.996357	-0.04221175	0.0425891	0.06977276	0.05165192	1.435976	1.084499	0	0
3.012924	-0.03842844	0.04530343	0.2283611	0.1638372	4.786551	3.386002	0	0
3.029765	-0.03248857	0.04950126	0.3526996	0.2492596	3.721771	2.556915	0	0
3.046059	-0.02588895	0.0541581	0.4050511	0.2858134	1.579973	1.103195	0	0
3.062787	-0.01797175	0.05988343	0.4732859	0.3422575	2.066375	1.709316	0	0
3.079301	-0.01415695	0.06282627	0.2309998	0.1781991	-7.288452	-4.935205	0	0
3.095819	-0.008210341	0.06789255	0.3600104	0.3067151	3.905604	3.89063	0	0
3.112327	-0.007184087	0.07086653	0.06216762	0.180155	-9.018503	-3.832167	0	0
3.128894	-0.01294664	0.07494535	-0.3478387	0.2462052	-12.3964	1.997006	0	0
3.145459	-0.01986581	0.07972047	-0.4176835	0.288256	-2.108058	1.269178	0	0
3.162026	-0.03006988	0.08653285	-0.6159368	0.4112078	-5.983683	3.710935	0	0
3.178594	-0.03785034	0.09193836	-0.4696089	0.3262635	4.416152	-2.563607	0	0
3.195159	-0.04289472	0.09546495	-0.3045194	0.212893	4.982627	-3.421675	0	0
3.211898	-0.05166451	0.1015566	-0.5239167	0.36392	-6.58772	4.534803	0	0
3.228405	-0.05762036	0.1056437	-0.3608042	0.2475988	4.906222	-3.498798	0	0
3.244858	-0.06469905	0.1104777	-0.4302487	0.2938158	-2.106952	1.402227	0	0
3.261429	-0.06912652	0.1135331	-0.2671739	0.1843748	4.938059	-3.313975	0	0
3.277992	-0.0733419	0.1163672	-0.2545101	0.1711132	0.3821964	-0.4002397	0	0
3.294558	-0.07823473	0.1195285	-0.2953533	0.1908299	-1.232862	0.5951556	0	0
3.311125	-0.08181695	0.1217384	-0.2162293	0.1333929	2.388088	-1.733542	0	0
3.368413	-0.09682783	0.1309876	-0.2620242	0.1614498	-0.6200661	0.3798929	0	0
3.384982	-0.09956443	0.1316984	-0.1651576	0.04289782	1.311528	-1.605139	0	0
3.401547	-0.1033931	0.1326641	-0.2311314	0.05830269	-1.991079	0.4649166	0	0
3.418115	-0.104929	0.1337391	-0.09270395	0.0648817	4.17802	0.1985679	0	0
3.434681	-0.1048769	0.1337026	0.00314236	-0.002199247	2.892731	-2.024565	0	0
3.451248	-0.1048769	0.1337026	0	0	-0.09483935	0.06637532	0	0
3.567655	-0.104903	0.1337573	-0.0002236321	0.0004695379	-0.001681772	0.003531046	0	0
3.583783	-0.104903	0.1337573	0	0	0.001687344	-0.003542747	0	0
3.602659	-0.104955	0.1337937	-0.00275755	0.001930206	-0.07877944	0.05514336	0	0
3.619228	-0.1051112	0.133903	-0.009424596	0.006596318	-0.1880944	0.1316429	0	0
3.635793	-0.1057358	0.1343402	-0.03770528	0.02639145	-0.8535066	0.597414	0	0
3.65236	-0.1109114	0.1379273	-0.3124011	0.2165212	-8.290932	5.73854	0	0
3.668928	-0.1148866	0.1407117	-0.2399443	0.1680623	2.186749	-1.462493	0	0
3.685731	-0.1245882	0.1475119	-0.577355	0.4046897	-10.11098	7.090867	0	0
3.70206	-0.1289386	0.1506002	-0.2664317	0.1891363	9.384426	-6.50593	0	0
3.718626	-0.1317844	0.1525976	-0.1717841	0.1205709	2.877298	-2.084395	0	0
3.735193	-0.1342146	0.1543765	-0.1466842	0.1073749	0.7575347	-0.3982651	0	0
3.751779	-0.1342404	0.1543946	-0.001557918	0.001094316	4.377494	-3.205778	0	0
3.768327	-0.1341887	0.1544309	0.003123604	0.002193456	0.1412896	0.03317236	0	0
3.784893	-0.134137	0.1545035	0.003120547	0.004382619	-9.231958E-05	0.06610998	0	0
3.801459	-0.1341887	0.1546124	-0.003120233	0.006573266	-0.188362	0.0661191	0	0
3.818026	-0.1364624	0.1563182	-0.1372447	0.1029653	-4.04806	2.909241	0	0
3.834593	-0.1396637	0.1586038	-0.1932339	0.1379627	-1.689805	1.056255	0	0
3.85116	-0.1469591	0.1638431	-0.4403657	0.3162481	-7.458559	5.380741	0	0
3.867727	-0.1520026	0.16743	-0.3044258	0.2165068	4.102733	-3.01024	0	0
3.884293	-0.1559856	0.1702727	-0.2404293	0.1715986	1.931487	-1.35538	0	0
3.900882	-0.1577827	0.1715759	-0.108329	0.0785566	3.984243	-2.806217	0	0
3.917427	-0.1590401	0.1728608	-0.0760012	0.07766295	0.9756697	-0.02697065	0	0
3.933993	-0.1590145	0.1739283	0.001548918	0.0644393	2.342152	-0.3993781	0	0
3.967126	-0.1577057	0.1758639	0.03949908	0.05841773	0.7635955	-0.1211599	0	0
3.983693	-0.1568843	0.176515	0.0495823	0.03929995	0.2028807	-0.3846616	0	0
4.000453	-0.1568073	0.176533	0.00459568	0.001079349	-1.349841	-1.146824	0	0
4.016827	-0.1567816	0.1765511	0.001568097	0.001104858	-0.09137591	0.0007698816	0	0
4.033393	-0.1567816	0.1765511	0	0	-0.04760546	-0.0335421	0	0
4.04996	-0.1567816	0.1766596	0	0.006548981	0	0.1976572	0	0
4.066526	-0.155549	0.1781424	0.07440382	0.08950531	2.245609	2.503735	0	0
4.083095	-0.1522855	0.1805105	0.1969711	0.1429278	3.699036	1.612271	0	0
4.099661	-0.1453364	0.1854249	0.4194577	0.2966407	6.714464	4.63893	0	0
4.116227	-0.1421918	0.1877724	0.1898316	0.1417143	-6.930628	-4.676023	0	0
4.132793	-0.1383732	0.1905885	0.230497	0.1699803	1.227372	0.8531291	0	0
4.14936	-0.1373921	0.1913103	0.05922146	0.04357443	-5.169254	-3.815046	0	0
4.166072	-0.1373921	0.1913103	0	0	-1.779573	-1.309388	0	0
4.182581	-0.1374179	0.1913284	-0.001563267	0.001093023	-0.04705625	0.03290134	0	0
4.199092	-0.1377278	0.1915449	-0.01876661	0.01311514	-0.5209897	0.3640805	0	0
4.215626	-0.1390701	0.1924832	-0.0811925	0.05675255	-1.889156	1.320571	0	0
4.232193	-0.1422691	0.1947203	-0.1930918	0.135026	-3.380582	2.364714	0	0
4.29846	-0.1648585	0.2106309	-0.3408861	0.2401002	-1.784228	1.268495	0	0
4.315027	-0.1662409	0.2116029	-0.08344606	0.0586693	3.107912	-2.190302	0	0
4.331593	-0.1662153	0.2116568	0.001545364	0.003258938	2.565157	-1.67236	0	0
4.365876	-0.1689272	0.2141403	-0.07910231	0.07243869	-1.586024	1.360495	0	0
4.382721	-0.1742158	0.2180439	-0.3139507	0.2317341	-4.593307	3.115595	0	0
4.399009	-0.1812264	0.2230962	-0.4304091	0.3101818	-3.514821	2.367626	0	0
4.415577	-0.1857801	0.2264928	-0.2748525	0.2050124	4.734498	-3.20092	0	0
4.432143	-0.1889808	0.229475	-0.1932119	0.1800223	2.463988	-0.7542234	0	0
4.448709	-0.1873555	0.2355444	0.09810712	0.3663703	8.792659	5.624398	0	0
4.465276	-0.1812519	0.2402107	0.368417	0.2816556	8.158204	-2.556768	0	0
4.481843	-0.1743434	0.2451797	0.4170085	0.2999435	1.466514	0.5519369	0	0
4.531542	-0.1577827	0.258211	0.3332174	0.2622029	-1.264464	-0.5695312	0	0
4.548337	-0.1556261	0.2720344	0.1284142	0.8230814	-3.080027	8.435025	0	0
4.564678	-0.1564992	0.2791202	-0.05343204	0.4336244	-5.487971	-11.7535	0	0
4.581369	-0.1569356	0.2857559	-0.02614894	0.3975468	0.825949	-1.092189	0	0
4.597875	-0.15691	0.2909234	0.001555548	0.3130796	0.8345499	-2.544428	0	0
4.614386	-0.1570897	0.2940161	-0.01088416	0.1873123	-0.3767759	-3.80926	0	0
4.630942	-0.155061	0.2999679	0.1225313	0.3594785	4.034615	5.206477	0	0
4.647509	-0.1533908	0.3023804	0.1008144	0.1456229	-0.6556348	-6.456313	0	0
4.664428	-0.1513083	0.3083303	0.1230879	0.3516794	0.6651706	6.153621	0	0
4.680643	-0.1505624	0.3111708	0.04600015	0.1751768	-2.326546	-5.326936	0	0
4.697212	-0.1477316	0.313386	0.1708529	0.1336932	3.808345	-1.265362	0	0
4.71378	-0.146238	0.314422	0.09014537	0.06253238	-2.435547	-2.147453	0	0
4.730344	-0.146135	0.3145292	0.006219953	0.006470046	-2.53302	-1.692062	0	0
4.746978	-0.1461092	0.3145114	0.001548928	-0.001073231	-0.1407045	-0.2272249	0	0
4.763492	-0.1460577	0.3144756	0.003119405	-0.002163823	0.0473787	-0.03290135	0	0
4.780044	-0.1460062	0.3144399	0.003112216	-0.002158836	-0.0002174184	0.0001508205	0	0
4.797024	-0.1460062	0.3144399	0	0	-0.09281161	0.06438016	0	0
4.813178	-0.1460062	0.3144399	0	0	0	0	0	0
4.829744	-0.1460062	0.3144399	0	0	0	0	0	0
4.846309	-0.1460062	0.3144399	0	0	0	0	0	0
4.863061	-0.1459547	0.3144042	0.003075097	-0.002133087	0.0922979	-0.06402382	0	0
4.879573	-0.1456713	0.3142077	0.01716097	-0.01189969	0.423461	-0.2936116	0	0
4.912595	-0.1455425	0.3141184	0.003901004	-0.002704757	-0.2676924	0.1856275	0	0
4.929142	-0.1455167	0.3141005	0.001557007	-0.001078828	-0.04728699	0.03280091	0	0
4.945709	-0.1455167	0.3141005	0	0	-0.04702033	0.03257973	0	0
4.962276	-0.1455167	0.3141005	0	0	0	0	0	0
4.979141	-0.145491	0.3140826	0.001526761	-0.00106025	0.04566764	-0.03171363	0	0
4.995653	-0.145491	0.3140826	0	0	-0.04574201	0.03176528	0	0
5.012164	-0.1454395	0.3140469	0.003120848	-0.002162392	0.09450427	-0.06548069	0	0
5.028542	-0.1454395	0.3140469	0	0	-0.09489066	0.06574842	0	0
5.045109	-0.1454395	0.3140469	0	0	0	0	0	0
5.061676	-0.1454395	0.3140469	0	0	0	0	0	0
5.096275	-0.1454395	0.3140469	0	0	0	0	0	0
5.11324	-0.1454137	0.314029	0.001518713	-0.001054052	0.02945285	-0.02044154	0	0
5.129408	-0.1453879	0.3140112	0.001593466	-0.00110409	0.002256153	-0.001510236	0	0
5.145974	-0.1453622	0.3139933	0.001555304	-0.001077648	-0.001165838	0.0008077929	0	0
5.16254	-0.1453364	0.3139755	0.001555214	-0.001079385	-2.702054E-06	-5.242477E-05	0	0
5.179107	-0.1453364	0.3139755	0	0	-0.04693848	0.03257732	0	0
5.195796	-0.1453106	0.3139576	0.001543706	-0.001069612	0.04641813	-0.03216248	0	0
5.212308	-0.1453106	0.3139576	0	0	-0.04649479	0.0322156	0	0
5.228821	-0.1453106	0.3139576	0	0	0	0	0	0
5.245374	-0.1453106	0.3139576	0	0	0	0	0	0
5.26194	-0.1452849	0.3139397	0.001555259	-0.001079416	0.04696011	-0.03259233	0	0
5.278855	-0.1452849	0.3139397	0	0	-0.04645248	0.03224001	0	0
5.295073	-0.1452849	0.3139397	0	0	0	0	0	0
5.31188	-0.1452849	0.3139397	0	0	0	0	0	0
5.328391	-0.1452591	0.3139219	0.001560469	-0.001081227	0.04683623	-0.03245217	0	0
5.3449	-0.1452076	0.3138861	0.003121209	-0.002164447	0.04726715	-0.03280542	0	0
5.361339	-0.1449757	0.3137254	0.01410583	-0.009778542	0.3333876	-0.2310908	0	0
5.377923	-0.1444088	0.3133324	0.0341846	-0.02369785	0.6080174	-0.4214989	0	0
5.394473	-0.1435325	0.312725	0.05295131	-0.03670009	0.5663968	-0.3924196	0	0
5.41104	-0.1423207	0.3118854	0.07313912	-0.05067636	0.6095851	-0.4220233	0	0
5.427606	-0.1396121	0.3099739	0.1635102	-0.1153911	2.727522	-1.95318	0	0
5.444172	-0.1331289	0.3054537	0.391336	-0.2728463	6.876292	-4.75235	0	0
5.460748	-0.126764	0.3009865	0.3840016	-0.2695118	-0.2213011	0.1006129	0	0
5.477305	-0.1176645	0.2943199	0.5495632	-0.4026268	4.996872	-4.017591	0	0
5.493872	-0.1109634	0.2881699	0.4044915	-0.3712259	-4.379594	0.9479681	0	0
5.510439	-0.1045125	0.280909	0.3893842	-0.4382807	-0.4559543	-2.023778	0	0
5.527028	-0.09505478	0.2743072	0.5701331	-0.3979706	5.451561	1.215792	0	0
5.543572	-0.08074512	0.2644977	0.8649032	-0.5929043	8.896436	-5.883279	0	0
5.56014	-0.06886462	0.2563298	0.7171081	-0.4930168	-4.463485	3.016651	0	0
5.576708	-0.0522419	0.2443547	1.003263	-0.7227557	8.635803	-6.933236	0	0
5.593273	-0.04502219	0.2370163	0.4358578	-0.4430244	-17.12507	8.442673	0	0
5.610088	-0.03987359	0.2228985	0.3061871	-0.8395867	-3.884734	-11.8804	0	0
5.626406	-0.03871748	0.2062735	0.07084945	-1.018821	-7.102812	-5.409523	0	0
5.642973	-0.03863866	0.1827333	0.004757879	-1.420852	-2.009745	-12.22517	0	0
5.659539	-0.03877003	0.1594018	-0.007931015	-1.408452	-0.3829681	0.3742462	0	0
5.676105	-0.03884887	0.1425307	-0.004758514	-1.018399	0.09575451	11.77284	0	0
5.692672	-0.03863866	0.1214645	0.01268834	-1.27156	0.5265623	-7.640647	0	0
5.709239	-0.03869121	0.1072739	-0.003172177	-0.8565691	-0.4786783	12.52464	0	0
5.726171	-0.0382445	0.09423463	0.0263824	-0.770097	0.8822586	2.581352	0	0
5.742373	-0.03848099	0.08594409	-0.0145961	-0.5116846	-1.236734	7.798903	0	0
5.778706	-0.04144993	0.0594946	-0.08171657	-0.7279917	-1.277644	-4.117423	0	0
5.795246	-0.04565247	0.05575239	-0.2540752	-0.2262447	-3.259881	9.489725	0	0
5.812232	-0.05040464	0.0525075	-0.2797794	-0.1910394	-0.7666977	1.050091	0	0
5.828381	-0.05111334	0.05200662	-0.04388361	-0.03101517	7.119248	4.829472	0	0
5.844947	-0.05489217	0.04929704	-0.2281038	-0.1635601	-5.630924	-4.051405	0	0
5.861765	-0.05733184	0.04753293	-0.1450668	-0.1048967	2.487341	1.75724	0	0
5.878079	-0.06003304	0.04561936	-0.1655705	-0.117293	-0.6188478	-0.374148	0	0
5.894646	-0.06409629	0.04273788	-0.2452652	-0.1739312	-2.423714	-1.722506	0	0
5.911299	-0.0671096	0.04059859	-0.1809465	-0.1284622	1.936156	1.36873	0	0
5.927812	-0.07098579	0.03784362	-0.2347373	-0.1668378	-1.62187	-1.157079	0	0
5.944347	-0.07093342	0.03788086	0.003166724	0.002252258	7.198709	5.116477	0	0
5.960913	-0.07090724	0.03789949	0.001580491	0.001124199	-0.04792159	-0.03407971	0	0
5.977479	-0.07090724	0.03789949	0	0	-0.04770274	-0.03393085	0	0
5.994046	-0.07090724	0.03789949	0	0	0	0	0	0
6.010613	-0.07090724	0.03789949	0	0	0	0	0	0
6.027181	-0.07093342	0.03791811	-0.001580263	0.001123813	-0.04769175	0.03391625	0	0
6.043899	-0.07093342	0.03791811	0	0	0.04747654	-0.0337632	0	0
6.060405	-0.07093342	0.03791811	0	0	0	0	0	0
6.07688	-0.07093342	0.03791811	0	0	0	0	0	0
6.093447	-0.07093342	0.03791811	0	0	0	0	0	0
6.110013	-0.07093342	0.03791811	0	0	0	0	0	0
6.12658	-0.07093342	0.03791811	0	0	0	0	0	0
6.209413	-0.07093342	0.03791811	0	0	0	0	0	0
6.22598	-0.07093342	0.03791811	0	0	0	0	0	0
6.242549	-0.07093342	0.03791811	0	0	0	0	0	0
6.259115	-0.07093342	0.03791811	0	0	0	0	0	0
6.27568	-0.07093342	0.03791811	0	0	0	0	0	0
6.292247	-0.07093342	0.03791811	0	0	0	0	0	0
6.308813	-0.07093342	0.03791811	0	0	0	0	0	0
6.32538	-0.07093342	0.03791811	0	0	0	0	0	0
6.341948	-0.07093342	0.03791811	0	0	0	0	0	0
6.358616	-0.07093342	0.03791811	0	0	0	0	0	0
6.375127	-0.07093342	0.03791811	0	0	0	0	0	0
6.391646	-0.07093342	0.03791811	0	0	0	0	0	0
6.441348	-0.07093342	0.03791811	0	0	0	0	0	0
6.457914	-0.07093342	0.03791811	0	0	0	0	0	0
6.474699	-0.07093342	0.03791811	0	0	0	0	0	0
6.491212	-0.07093342	0.03791811	0	0	0	0	0	0
6.50772	-0.07093342	0.03791811	0	0	0	0	0	0
6.52418	-0.07093342	0.03791811	0	0	0	0	0	0
6.540748	-0.07093342	0.03791811	0	0	0	0	0	0
6.557314	-0.07093342	0.03791811	0	0	0	0	0	0
6.577324	-0.07093342	0.03791811	0	0	0	0	0	0
6.593892	-0.07093342	0.03791811	0	0	0	0	0	0
6.610458	-0.07093342	0.03791811	0	0	0	0	0	0
6.627025	-0.07093342	0.03791811	0	0	0	0	0	0
6.64382	-0.07093342	0.03791811	0	0	0	0	0	0
6.660159	-0.07093342	0.03791811	0	0	0	0	0	0
6.676725	-0.07093342	0.03791811	0	0	0	0	0	0
6.693292	-0.07093342	0.03791811	0	0	0	0	0	0
6.709864	-0.07093342	0.03791811	0	0	0	0	0	0
6.726425	-0.07093342	0.03791811	0	0	0	0	0	0
6.743012	-0.07093342	0.03791811	0	0	0	0	0	0
6.759585	-0.07093342	0.03791811	0	0	0	0	0	0
6.776125	-0.07093342	0.03791811	0	0	0	0	0	0
6.792692	-0.07093342	0.03791811	0	0	0	0	0	0
6.809259	-0.07093342	0.03791811	0	0	0	0	0	0
6.825826	-0.07093342	0.03791811	0	0	0	0	0	0
6.842392	-0.07093342	0.03791811	0	0	0	0	0	0
6.85897	-0.07093342	0.03791811	0	0	0	0	0	0
6.875525	-0.07093342	0.03791811	0	0	0	0	0	0
6.892092	-0.07093342	0.03791811	0	0	0	0	0	0
6.909004	-0.07093342	0.03791811	0	0	0	0	0	0
6.925516	-0.07093342	0.03791811	0	0	0	0	0	0
6.941792	-0.07093342	0.03791811	0	0	0	0	0	0
6.974926	-0.07093342	0.03791811	0	0	0	0	0	0
6.991492	-0.07093342	0.03791811	0	0	0	0	0	0
7.008059	-0.07093342	0.03791811	0	0	0	0	0	0
7.024626	-0.07093342	0.03791811	0	0	0	0	0	0
7.041192	-0.07093342	0.03791811	0	0	0	0	0	0
7.05776	-0.07093342	0.03791811	0	0	0	0	0	0
7.074327	-0.07093342	0.03791811	0	0	0	0	0	0
7.091136	-0.07093342	0.03791811	0	0	0	0	0	0
7.107459	-0.07093342	0.03791811	0	0	0	0	0	0
7.15716	-0.07093342	0.03791811	0	0	0	0	0	0
7.173726	-0.07093342	0.03791811	0	0	0	0	0	0
7.190292	-0.07093342	0.03791811	0	0	0	0	0	0
7.206858	-0.07093342	0.03791811	0	0	0	0	0	0
7.223726	-0.07093342	0.03791811	0	0	0	0	0	0
7.239992	-0.07093342	0.03791811	0	0	0	0	0	0
7.256559	-0.07093342	0.03791811	0	0	0	0	0	0
7.273265	-0.07093342	0.03791811	0	0	0	0	0	0
7.289773	-0.07093342	0.03791811	0	0	0	0	0	0
7.306285	-0.07093342	0.03791811	0	0	0	0	0	0
7.322825	-0.07093342	0.03791811	0	0	0	0	0	0
7.339392	-0.07093342	0.03791811	0	0	0	0	0	0
7.373084	-0.07093342	0.03791811	0	0	0	0	0	0
7.389844	-0.07093342	0.03791811	0	0	0	0	0	0
7.406356	-0.07093342	0.03791811	0	0	0	0	0	0
7.422868	-0.07093342	0.03791811	0	0	0	0	0	0
7.439384	-0.07093342	0.03791811	0	0	0	0	0	0
7.455916	-0.07093342	0.03791811	0	0	0	0	0	0
7.472484	-0.07093342	0.03791811	0	0	0	0	0	0
7.489049	-0.07093342	0.03791811	0	0	0	0	0	0
7.505616	-0.07093342	0.03791811	0	0	0	0	0	0
7.522921	-0.07093342	0.03791811	0	0	0	0	0	0
7.539489	-0.07093342	0.03791811	0	0	0	0	0	0
7.556055	-0.07093342	0.03791811	0	0	0	0	0	0
7.572625	-0.07093342	0.03791811	0	0	0	0	0	0
7.58919	-0.07093342	0.03791811	0	0	0	0	0	0
7.605755	-0.07093342	0.03791811	0	0	0	0	0	0
7.688589	-0.07093342	0.03791811	0	0	0	0	0	0
7.705567	-0.07093342	0.03791811	0	0	0	0	0	0
7.721722	-0.07090724	0.03789949	0.001620705	-0.001152573	0.04891579	-0.03478673	0	0
7.738288	-0.07090724	0.03789949	0	0	-0.04953098	0.03522422	0	0
7.755102	-0.07090724	0.03789949	0	0	0	0	0	0
7.771615	-0.07090724	0.03789949	0	0	0	0	0	0
7.78799	-0.07090724	0.03789949	0	0	0	0	0	0
7.804638	-0.07090724	0.03789949	0	0	0	0	0	0
7.821122	-0.07090724	0.03789949	0	0	0	0	0	0
7.837689	-0.07090724	0.03789949	0	0	0	0	0	0
7.854256	-0.07090724	0.03789949	0	0	0	0	0	0
7.870822	-0.07090724	0.03789949	0	0	0	0	0	0
7.88739	-0.07090724	0.03789949	0	0	0	0	0	0
7.903955	-0.07090724	0.03789949	0	0	0	0	0	0
7.920718	-0.07093342	0.03791811	-0.001561833	0.001110706	-0.04686175	0.03332598	0	0
7.937088	-0.07093342	0.03791811	0	0	0.04713758	-0.03352214	0	0
7.970222	-0.07093342	0.03791811	0	0	0	0	0	0
7.98679	-0.07093342	0.03791811	0	0	0	0	0	0
8.003356	-0.07093342	0.03791811	0	0	0	0	0	0
8.020321	-0.07093342	0.03791811	0	0	0	0	0	0
8.036489	-0.07093342	0.03791811	0	0	0	0	0	0
8.053312	-0.07093342	0.03791811	0	0	0	0	0	0
8.069824	-0.07093342	0.03791811	0	0	0	0	0	0
8.104335	-0.07093342	0.03791811	0	0	0	0	0	0
8.120902	-0.07093342	0.03791811	0	0	0	0	0	0
8.137875	-0.07093342	0.03791811	0	0	0	0	0	0
8.154036	-0.07093342	0.03791811	0	0	0	0	0	0
8.170899	-0.07093342	0.03791811	0	0	0	0	0	0
8.187171	-0.07093342	0.03791811	0	0	0	0	0	0
8.203735	-0.07093342	0.03791811	0	0	0	0	0	0
8.220302	-0.07093342	0.03791811	0	0	0	0	0	0
8.236869	-0.07093342	0.03791811	0	0	0	0	0	0
8.253436	-0.07093342	0.03791811	0	0	0	0	0	0
8.270002	-0.07093342	0.03791811	0	0	0	0	0	0
8.28657	-0.07093342	0.03791811	0	0	0	0	0	0
8.303137	-0.07093342	0.03791811	0	0	0	0	0	0
8.319703	-0.07093342	0.03791811	0	0	0	0	0	0
8.336269	-0.07093342	0.03791811	0	0	0	0	0	0
8.352836	-0.07093342	0.03791811	0	0	0	0	0	0
8.369402	-0.07093342	0.03791811	0	0	0	0	0	0
8.385968	-0.07093342	0.03791811	0	0	0	0	0	0
8.402537	-0.07093342	0.03791811	0	0	0	0	0	0
8.419104	-0.07093342	0.03791811	0	0	0	0	0	0
8.435669	-0.07093342	0.03791811	0	0	0	0	0	0
8.452236	-0.07093342	0.03791811	0	0	0	0	0	0
8.468802	-0.07093342	0.03791811	0	0	0	0	0	0
8.485369	-0.07093342	0.03791811	0	0	0	0	0	0
8.501938	-0.07093342	0.03791811	0	0	0	0	0	0
8.518502	-0.07093342	0.03791811	0	0	0	0	0	0
8.535069	-0.07093342	0.03791811	0	0	0	0	0	0
8.551635	-0.07093342	0.03791811	0	0	0	0	0	0
8.568205	-0.07093342	0.03791811	0	0	0	0	0	0
8.601336	-0.07093342	0.03791811	0	0	0	0	0	0
8.617902	-0.07093342	0.03791811	0	0	0	0	0	0
8.634468	-0.07093342	0.03791811	0	0	0	0	0	0
8.651035	-0.07093342	0.03791811	0	0	0	0	0	0
8.667602	-0.07093342	0.03791811	0	0	0	0	0	0
8.684168	-0.07093342	0.03791811	0	0	0	0	0	0
8.700775	-0.07093342	0.03791811	0	0	0	0	0	0
8.717302	-0.07093342	0.03791811	0	0	0	0	0	0
8.750805	-0.07093342	0.03791811	0	0	0	0	0	0
8.767318	-0.07093342	0.03791811	0	0	0	0	0	0
8.843459	-0.07093342	0.03791811	0	0	0	0	0	0
8.860026	-0.07093342	0.03791811	0	0	0	0	0	0
8.876593	-0.07093342	0.03791811	0	0	0	0	0	0
8.89316	-0.07093342	0.03791811	0	0	0	0	0	0
8.926292	-0.07093342	0.03791811	0	0	0	0	0	0
8.960294	-0.07093342	0.03791811	0	0	0	0	0	0
8.976967	-0.07093342	0.03791811	0	0	0	0	0	0
8.993476	-0.07093342	0.03791811	0	0	0	0	0	0
9.009995	-0.07093342	0.03791811	0	0	0	0	0	0
9.026561	-0.07093342	0.03791811	0	0	0	0	0	0
9.043127	-0.07093342	0.03791811	0	0	0	0	0	0
9.059693	-0.07093342	0.03791811	0	0	0	0	0	0
9.076261	-0.07093342	0.03791811	0	0	0	0	0	0
9.09305	-0.07093342	0.03791811	0	0	0	0	0	0
9.109394	-0.07093342	0.03791811	0	0	0	0	0	0
9.126071	-0.07093342	0.03791811	0	0	0	0	0	0
9.142581	-0.07093342	0.03791811	0	0	0	0	0	0
9.159094	-0.07093342	0.03791811	0	0	0	0	0	0
9.17566	-0.07093342	0.03791811	0	0	0	0	0	0
9.192227	-0.07093342	0.03791811	0	0	0	0	0	0
9.208794	-0.07093342	0.03791811	0	0	0	0	0	0
9.241928	-0.07093342	0.03791811	0	0	0	0	0	0
9.258663	-0.07093342	0.03791811	0	0	0	0	0	0
9.275177	-0.07093342	0.03791811	0	0	0	0	0	0
9.291628	-0.07093342	0.03791811	0	0	0	0	0	0
9.308199	-0.07093342	0.03791811	0	0	0	0	0	0
9.324763	-0.07093342	0.03791811	0	0	0	0	0	0
9.341328	-0.07093342	0.03791811	0	0	0	0	0	0
9.357894	-0.07093342	0.03791811	0	0	0	0	0	0
9.374461	-0.07093342	0.03791811	0	0	0	0	0	0
9.391258	-0.07093342	0.03791811	0	0	0	0	0	0
9.40777	-0.07093342	0.03791811	0	0	0	0	0	0
9.424164	-0.07093342	0.03791811	0	0	0	0	0	0
9.440792	-0.07093342	0.03791811	0	0	0	0	0	0
9.457304	-0.07093342	0.03791811	0	0	0	0	0	0
9.473861	-0.07093342	0.03791811	0	0	0	0	0	0
9.490427	-0.07093342	0.03791811	0	0	0	0	0	0
9.506993	-0.07093342	0.03791811	0	0	0	0	0	0
9.523561	-0.07093342	0.03791811	0	0	0	0	0	0
9.540364	-0.07093342	0.03791811	0	0	0	0	0	0
9.556873	-0.07093342	0.03791811	0	0	0	0	0	0
9.573262	-0.07093342	0.03791811	0	0	0	0	0	0
9.589828	-0.07093342	0.03791811	0	0	0	0	0	0
9.606408	-0.07093342	0.03791811	0	0	0	0	0	0
9.705792	-0.07093342	0.03791811	0	0	0	0	0	0
9.72299	-0.07093342	0.03791811	0	0	0	0	0	0
9.739	-0.07093342	0.03791811	0	0	0	0	0	0
9.755511	-0.07093342	0.03791811	0	0	0	0	0	0
9.772058	-0.07093342	0.03791811	0	0	0	0	0	0
9.788625	-0.07093342	0.03791811	0	0	0	0	0	0
9.805191	-0.07093342	0.03791811	0	0	0	0	0	0
9.823363	-0.07093342	0.03791811	0	0	0	0	0	0
9.840073	-0.07093342	0.03791811	0	0	0	0	0	0
9.856497	-0.07093342	0.03791811	0	0	0	0	0	0
9.873063	-0.07093342	0.03791811	0	0	0	0	0	0
9.889629	-0.07093342	0.03791811	0	0	0	0	0	0
9.906617	-0.07093342	0.03791811	0	0	0	0	0	0
9.922762	-0.07093342	0.03791811	0	0	0	0	0	0
9.93933	-0.07093342	0.03791811	0	0	0	0	0	0
9.955896	-0.07093342	0.03791811	0	0	0	0	0	0
9.972665	-0.07093342	0.03791811	0	0	0	0	0	0
9.989177	-0.07093342	0.03791811	0	0	0	0	0	0
10.00569	-0.07093342	0.03791811	0	0	0	0	0	0
10.02216	-0.07093342	0.03791811	0	0	0	0	0	0
10.03873	-0.07093342	0.03791811	0	0	0	0	0	0
10.0553	-0.07093342	0.03791811	0	0	0	0	0	0
10.07186	-0.07093342	0.03791811	0	0	0	0	0	0
10.08843	-0.07093342	0.03791811	0	0	0	0	0	0
10.105	-0.07090724	0.03789949	0.001580582	-0.001124039	0.04770343	-0.03392455	0	0
10.12156	-0.07090724	0.03789949	0	0	-0.04770755	0.03392748	0	0
10.13828	-0.07090724	0.03789949	0	0	0	0	0	0
10.1548	-0.07088105	0.03788086	0.001586054	-0.001127835	0.04772435	-0.03393656	0	0
10.1713	-0.07085487	0.03786224	0.001585969	-0.00112787	-2.566635E-06	-1.057679E-06	0	0
10.18783	-0.07085487	0.03786224	0	0	-0.04801112	0.03414336	0	0
10.20483	-0.07085487	0.03786224	0	0	0	0	0	0
10.22096	-0.07085487	0.03786224	0	0	0	0	0	0
10.23753	-0.07088105	0.03788086	-0.001580218	0.00112378	-0.04832109	0.0343638	0	0
10.2541	-0.07090724	0.03789949	-0.00158085	0.001124135	-1.906382E-05	1.069134E-05	0	0
10.27066	-0.07098579	0.03795535	-0.004741199	0.003372179	-0.09538504	0.06785002	0	0
10.28739	-0.07124762	0.03814156	-0.01565485	0.01113297	-0.3278177	0.233114	0	0
10.3039	-0.07226866	0.03883043	-0.06183625	0.04171999	-1.389439	0.9202575	0	0
10.32041	-0.07234719	0.03888628	-0.004756907	0.003382769	1.728529	-1.160962	0	0
10.33693	-0.0724519	0.03884905	-0.006338214	-0.002253823	-0.04787413	-0.170648	0	0
10.3535	-0.07300162	0.03909106	-0.03318491	0.01460942	-0.811426	0.5096818	0	0
10.37006	-0.07480751	0.04007754	-0.1090098	0.05954743	-2.288598	1.356349	0	0
10.38663	-0.07977769	0.04138004	-0.3000005	0.07861924	-5.764278	0.5756049	0	0
10.4032	-0.08800891	0.04091491	-0.4968376	-0.02807522	-5.940554	-3.220045	0	0
10.41976	-0.1107034	0.03925859	-1.369923	-0.09998143	-26.35052	-2.170196	0	0
10.43633	-0.1316551	0.03802983	-1.264644	-0.07416793	3.17741	0.7790753	0	0
10.4529	-0.1683902	0.03672616	-2.217461	-0.07869437	-28.7569	-0.1366123	0	0
10.46946	-0.1826519	0.03633497	-0.8608879	-0.02361357	40.94381	1.662438	0	0
10.48603	-0.2026279	0.03581332	-1.205824	-0.03148881	-10.4108	-0.2376889	0	0
10.51982	-0.2471818	0.03421064	-1.318344	-0.04742307	-2.234224	-0.3163967	0	0
10.53639	-0.2645946	0.0327378	-1.051041	-0.08890092	5.307557	-0.8235846	0	0
10.55308	-0.28604	0.03068602	-1.285348	-0.1229751	-7.046433	-1.024733	0	0
10.56959	-0.2994288	0.02816634	-0.8107153	-0.1525711	14.29645	-0.8914654	0	0
10.5861	-0.3014937	0.02652294	-0.1250993	-0.09956277	20.76304	1.605294	0	0
10.60266	-0.3025252	0.02571964	-0.06228226	-0.04850399	1.899649	1.544068	0	0
10.61923	-0.3029328	0.02547674	-0.02460459	-0.01466187	1.137344	1.021563	0	0
10.63613	-0.3033403	0.02557017	-0.02410206	0.005525775	0.01501295	0.6031021	0	0
10.65236	-0.304682	0.02594383	-0.08267587	0.02302635	-1.767761	0.5281685	0	0
10.66893	-0.3060703	0.02639218	-0.08381009	0.02706534	-0.03458734	0.123166	0	0
10.68567	-0.3106814	0.02282253	-0.2754237	-0.2132186	-5.752939	-7.214201	0	0
10.70206	-0.3179405	0.01700246	-0.4428765	-0.3550812	-5.054028	-4.281669	0	0
10.71862	-0.3193407	0.01585977	-0.08452486	-0.06897676	10.87328	8.681124	0	0
10.7352	-0.3231315	0.01256073	-0.2286663	-0.1990047	-4.348946	-3.92312	0	0
10.75176	-0.3238176	0.01197932	-0.04143627	-0.03511609	5.650613	4.946167	0	0
10.76832	-0.3238176	0.01197932	0	0	1.251017	1.060202	0	0
10.78489	-0.3237229	0.01186678	0.005711746	-0.006793437	0.1723957	-0.205044	0	0
10.80175	-0.3236283	0.01179175	0.005611105	-0.004450632	-0.003011021	0.07009269	0	0
10.81802	-0.3234627	0.01166044	0.01017557	-0.008067771	0.1377597	-0.1091686	0	0
10.83478	-0.3233681	0.01158541	0.005646733	-0.004477815	-0.1371027	0.1086798	0	0
10.85129	-0.3232498	0.01149161	0.007163226	-0.005680136	0.04558154	-0.03613843	0	0
10.86772	-0.3231078	0.01137905	0.008640954	-0.006850391	0.04485615	-0.03552284	0	0
10.88431	-0.3230605	0.01134153	0.00285398	-0.002262639	-0.175292	0.1389666	0	0
10.90086	-0.3229659	0.01126649	0.005718813	-0.00453394	0.08646332	-0.06854995	0	0
10.91743	-0.3229422	0.01124773	0.001428304	-0.00113239	-0.1295512	0.1027092	0	0
10.93399	-0.3229185	0.01122897	0.001428386	-0.001132455	2.48406E-06	-1.967573E-06	0	0
10.95056	-0.3228239	0.01115393	0.005715015	-0.004529671	0.1293744	-0.1025311	0	0
10.96737	-0.3228002	0.01113517	0.001407642	-0.001116008	-0.1290496	0.1022739	0	0
10.98369	-0.3227292	0.01111641	0.004350827	-0.001149384	0.08882806	-0.001007306	0	0
11.00039	-0.3227055	0.01109764	0.001417209	-0.001123649	-0.08884359	0.0007793581	0	0
11.0169	-0.3226582	0.01109764	0.002866178	0	0.043632	0.03383584	0	0
11.03341	-0.3226345	0.01107888	0.001432923	-0.001136108	-0.0433981	-0.03440069	0	0
11.04996	-0.3225635	0.01106012	0.004292642	-0.001134013	0.08650567	6.339106E-05	0	0
11.06653	-0.3225161	0.0110226	0.002858407	-0.002264948	-0.04331521	-0.03415529	0	0
11.08309	-0.3222084	0.01081621	0.01857802	-0.01245824	0.4744324	-0.3076431	0	0
11.09966	-0.3210714	0.009915468	0.06862516	-0.05436893	1.510469	-1.264904	0	0
11.11622	-0.3200048	0.009070807	0.06439454	-0.05099265	-0.1276913	0.1019051	0	0
11.13279	-0.3200048	0.009108352	0	0.002266372	-1.943655	1.607546	0	0
11.14936	-0.3199811	0.009127125	0.001430103	0.001133121	0.04316184	-0.03420257	0	0
11.16593	-0.3199337	0.009127125	0.002863639	0	0.04326295	-0.03419666	0	0
11.18253	-0.3198862	0.00916467	0.002856415	0.002261758	-0.0002178165	0.0681913	0	0
11.19906	-0.3198388	0.00916467	0.002867617	0	0.0003381036	-0.06826	0	0
11.21563	-0.3197677	0.009183441	0.0042962	0.001133195	0.04315944	0.03423536	0	0
11.23219	-0.3196965	0.009202213	0.004294154	0.00113313	-6.175723E-05	-1.967686E-06	0	0
11.24921	-0.3195779	0.009220985	0.006968769	0.001103155	0.07964268	-0.0008925616	0	0
11.26578	-0.3194356	0.009258528	0.00858813	0.002265737	0.04821462	0.03461457	0	0
11.28234	-0.3192221	0.009389927	0.01288934	0.007932595	0.1298109	0.1710261	0	0
11.2991	-0.3188425	0.009615169	0.022655	0.01344091	0.2930665	0.1653039	0	0
11.31561	-0.3186289	0.009746553	0.0129339	0.007956948	-0.2921894	-0.1648325	0	0
11.33213	-0.3177268	0.0103471	0.05462344	0.03636232	1.262262	0.8600482	0	0
11.34864	-0.3169667	0.01094755	0.04603923	0.0363686	-0.2599247	0.0001902929	0	0
11.36518	-0.3168716	0.01098507	0.005746195	0.002268736	-1.219169	-1.031779	0	0
11.38174	-0.3168479	0.01096631	0.001433866	-0.001132633	-0.1302626	-0.1027452	0	0
11.39831	-0.3168003	0.01092879	0.002869366	-0.002265078	0.0433272	-0.03418024	0	0
11.41488	-0.316729	0.01091002	0.004303149	-0.001132567	0.04327416	0.03418122	0	0
11.43144	-0.3167053	0.01089126	0.001433783	-0.001132567	-0.08660261	0	0	0
11.51427	-0.3050172	0.001722789	0.1411057	-0.1106871	1.405169	-1.102174	0	0
11.53126	-0.302789	-6.495966E-05	0.1311574	-0.1052313	-0.09966128	0.05465593	0	0
11.54741	-0.3019976	-0.0006861914	0.04901617	-0.03847659	-2.479027	2.014661	0	0
11.5643	-0.2989963	-0.003040396	0.1777299	-0.1394117	3.896587	-3.055637	0	0
11.58054	-0.2967116	-0.004755311	0.1406167	-0.1055479	-1.120076	1.022012	0	0
11.59731	-0.2959413	-0.004793012	0.04594271	-0.002248549	-2.867668	3.128927	0	0
11.61382	-0.2943273	-0.005226598	0.0977404	-0.02625749	1.556448	-0.7214351	0	0
11.63033	-0.2830583	-0.006659726	0.6825576	-0.08680359	17.70946	-1.833459	0	0
11.64685	-0.2714951	-0.006754033	0.7002527	-0.0057111	0.5358409	2.455645	0	0
11.66337	-0.262755	-0.006772894	0.5287709	-0.001141117	-5.18982	0.1383085	0	0
11.67994	-0.2434177	-0.006433401	1.167069	0.02048949	19.28497	0.6535277	0	0
11.69651	-0.2235926	-0.005716809	1.19685	0.04326109	0.8988286	0.6872681	0	0
11.71307	-0.2095868	-0.00405793	0.8454401	0.1001359	-10.6068	1.716681	0	0
11.7299	-0.1937745	-0.0003661485	0.9395577	0.2193638	2.818249	3.570153	0	0
11.74642	-0.1838985	0.003904432	0.598116	0.2586362	-10.24077	1.177887	0	0
11.76278	-0.1713555	0.01032834	0.7666706	0.3926525	5.127571	4.076889	0	0
11.77944	-0.1629117	0.01595345	0.5066087	0.3374925	-7.874067	-1.670117	0	0
11.79595	-0.1517969	0.02312169	0.673332	0.4342507	5.025644	2.916642	0	0
11.81248	-0.1464441	0.02667237	0.3239381	0.214876	-10.57761	-6.641386	0	0
11.82904	-0.1393282	0.03152552	0.4295377	0.2929538	3.19123	2.359517	0	0
11.84561	-0.1325343	0.03624183	0.4101061	0.284693	-0.5864822	-0.2493254	0	0
11.8625	-0.1310602	0.03730356	0.08727855	0.06286328	-9.649361	-6.630522	0	0
11.87901	-0.1310861	0.03724768	-0.001566199	-0.003382981	-2.659524	-1.983049	0	0
11.89531	-0.1310861	0.03724768	0	0	0.04773511	0.1031076	0	0
11.91203	-0.1310602	0.03722906	0.001546642	-0.00111343	0.04684087	-0.03372084	0	0
11.92855	-0.1310085	0.03719181	0.003132036	-0.002254985	0.04768946	-0.03433852	0	0
11.94505	-0.1309567	0.03715456	0.00313421	-0.0022572	6.584217E-05	-6.709019E-05	0	0
11.96157	-0.1307757	0.03702419	0.01096213	-0.007892786	0.2370589	-0.1706669	0	0
11.97814	-0.1306204	0.03691243	0.009368524	-0.006745544	-0.04816573	0.03467471	0	0
11.99471	-0.1304394	0.03678204	0.01093147	-0.007870742	0.04717126	-0.03395952	0	0
12.02863	-0.1303876	0.03674479	0.001524947	-0.001098032	-0.1862928	0.134131	0	0
12.0452	-0.1304135	0.03672616	-0.001561511	-0.00112436	-0.06112616	-0.0005214007	0	0
12.06214	-0.1304911	0.03667028	-0.004582184	-0.003299603	-0.09016241	-0.06492766	0	0
12.07865	-0.130517	0.03665165	-0.001566651	-0.001128061	0.09015525	0.06492251	0	0
12.0949	-0.1305428	0.03667028	-0.001592573	0.001146066	-0.0007911475	0.06940839	0	0
12.11147	-0.1305428	0.03667028	0	0	0.04852624	-0.03492102	0	0
12.12818	-0.1305428	0.03667028	0	0	0	0	0	0
12.1447	-0.1305428	0.03667028	0	0	0	0	0	0
12.16121	-0.130517	0.03665165	0.001567554	-0.001128061	0.0474646	-0.03415703	0	0
12.17773	-0.1304911	0.03663303	0.001565385	-0.00112715	-6.563015E-05	2.758757E-05	0	0
12.1943	-0.1304394	0.03659577	0.003122122	-0.002248297	0.04703657	-0.03387529	0	0
12.21124	-0.1301548	0.03639086	0.01680121	-0.01209748	0.4082181	-0.2939242	0	0
12.22775	-0.1283174	0.03510525	0.1112829	-0.07786418	2.824634	-1.966168	0	0
12.244	-0.1248991	0.03268186	0.2103858	-0.1491524	3.02524	-2.176161	0	0
12.26078	-0.1165224	0.02669105	0.4992952	-0.3570838	8.748259	-6.296222	0	0
12.27729	-0.1099495	0.02196228	0.3980909	-0.2864015	-3.040264	2.123357	0	0
12.3434	-0.08171239	0.001647535	0.4271197	-0.3072842	0.3513458	-0.2527519	0	0
12.36035	-0.07601117	-0.002456397	0.3363432	-0.2421112	-1.092886	0.7846385	0	0
12.37653	-0.07237338	-0.005075779	0.2248055	-0.1618706	-3.366408	2.421804	0	0
12.3931	-0.06448939	-0.01075515	0.475878	-0.3428074	7.66653	-5.524924	0	0
12.40988	-0.06013792	-0.01392935	0.2593264	-0.1891672	-6.493862	4.607296	0	0
12.42623	-0.05667608	-0.01642558	0.2117116	-0.1526583	-1.437139	1.101936	0	0
12.45936	-0.05116583	-0.02040087	0.1663092	-0.1199816	-0.9175131	0.660346	0	0
12.47593	-0.05124457	-0.02034405	-0.004753117	0.003430196	-3.441978	2.483193	0	0
12.4925	-0.05127082	-0.02032511	-0.00158404	0.00114323	0.09564294	-0.06902079	0	0
12.50906	-0.05129706	-0.02030617	-0.001584539	0.001143427	-1.50449E-05	5.958934E-06	0	0
12.52563	-0.05134956	-0.02026828	-0.00316867	0.002286722	-0.04781331	0.0345077	0	0
12.5422	-0.05134956	-0.02026828	0	0	0.09563616	-0.0690174	0	0
12.55898	-0.05132331	-0.02024934	0.001563654	0.001128356	0.04688217	0.03383088	0	0
12.5755	-0.05132331	-0.02024934	0	0	-0.04694794	-0.03387835	0	0
12.5919	-0.05132331	-0.02024934	0	0	0	0	0	0
12.60846	-0.05134956	-0.0202304	-0.001584356	0.001143295	-0.04806776	0.03468642	0	0
12.62503	-0.0513758	-0.02021146	-0.001584131	0.001143183	6.78793E-06	-3.393965E-06	0	0
12.64204	-0.05145454	-0.02015464	-0.004628462	0.003340174	-0.09066208	0.06542779	0	0
12.65816	-0.05145454	-0.02015464	0	0	0.1397033	-0.1008183	0	0
12.67473	-0.05148079	-0.0201357	-0.001584447	0.001143361	-0.04847587	0.03498092	0	0
12.69129	-0.05148079	-0.0201357	0	0	0.04782147	-0.0345087	0	0
12.70809	-0.05148079	-0.0201357	0	0	0	0	0	0
12.7246	-0.05148079	-0.0201357	0	0	0	0	0	0
12.74111	-0.05148079	-0.0201357	0	0	0	0	0	0
12.75762	-0.05148079	-0.0201357	0	0	0	0	0	0
12.77413	-0.05148079	-0.0201357	0	0	0	0	0	0
12.79069	-0.05148079	-0.0201357	0	0	0	0	0	0
12.81235	-0.05148079	-0.0201357	0	0	0	0	0	0
12.82892	-0.0514283	-0.0201357	0.003168488	0	0.08289421	0	0	0
12.84568	-0.0514283	-0.0201357	0	0	-0.09505336	0	0	0
12.86205	-0.05140205	-0.02011676	0.001603515	0.001157171	0.04839558	0.0349245	0	0
12.87871	-0.0513758	-0.02009782	0.001575739	0.001137077	-0.0008410686	-0.000608455	0	0
12.89522	-0.05134956	-0.02007888	0.00158953	0.001147079	0.0004157726	0.0003015361	0	0
12.91175	-0.05129706	-0.02007888	0.003175067	0	0.04798282	-0.03471382	0	0
12.92832	-0.05127082	-0.02005994	0.00158463	0.00114338	-0.04805344	0.03454607	0	0
12.94488	-0.05124457	-0.020041	0.001584131	0.001143183	-1.504928E-05	-5.959277E-06	0	0
12.96178	-0.05124457	-0.020041	0	0	-0.04734181	-0.03416406	0	0
12.97802	-0.05124457	-0.020041	0	0	0	0	0	0
12.99479	-0.05124457	-0.020041	0	0	0	0	0	0
13.0113	-0.05124457	-0.020041	0	0	0	0	0	0
13.02781	-0.05124457	-0.020041	0	0	0	0	0	0
13.04428	-0.05124457	-0.020041	0	0	0	0	0	0
13.06085	-0.05124457	-0.020041	0	0	0	0	0	0
13.07742	-0.05121832	-0.02002206	0.001584356	0.001143295	0.04781459	0.03450373	0	0
13.09436	-0.05111334	-0.0199463	0.006196439	0.004471322	0.1376322	0.0993138	0	0
13.11088	-0.05087711	-0.01977585	0.01430074	0.01031849	0.2421973	0.1747428	0	0
13.12712	-0.04651904	-0.01667152	0.2683833	0.1911744	7.756633	5.521172	0	0
13.14368	-0.0407406	-0.01251191	0.3488277	0.2511035	2.45231	1.826909	0	0
13.16091	-0.03230455	-0.006452261	0.4898031	0.3518275	4.172266	2.980999	0	0
13.17682	-0.0264675	-0.002268033	0.3668756	0.2629912	-3.710065	-2.681164	0	0
13.19343	-0.02118104	0.001478206	0.3182486	0.2255263	-1.495238	-1.152013	0	0
13.20995	-0.01541983	0.005558528	0.348711	0.2469711	0.9194095	0.6472448	0	0
13.22652	-0.01473578	0.006047084	0.04129205	0.029491	-9.291025	-6.572834	0	0
13.24308	-0.01470947	0.006028295	0.001588066	-0.001134132	-1.198303	-0.9242948	0	0
13.25965	-0.01470947	0.006028295	0	0	-0.04792932	0.03422917	0	0
13.30936	-0.01468316	0.005971926	0.0005292539	-0.001133924	0.007985423	-0.01710873	0	0
13.32603	-0.01470947	0.005953137	-0.001578074	-0.001126996	-0.03174482	0.0001043634	0	0
13.34248	-0.01476209	0.005915557	-0.003199023	-0.002284629	-0.04894007	-0.0349515	0	0
13.35905	-0.01489364	0.005821606	-0.00794079	-0.005671241	-0.1436235	-0.1025772	0	0
13.37562	-0.01502519	0.005727652	-0.007940388	-0.005671056	1.211463E-05	5.607582E-06	0	0
13.39218	-0.01515673	0.005633696	-0.007940277	-0.005671224	3.372885E-06	-5.087434E-06	0	0
13.40875	-0.01520935	0.005596112	-0.003176499	-0.002268779	0.1437794	0.1026919	0	0
13.42559	-0.01523566	0.005577321	-0.001561991	-0.001115649	0.04832535	0.03451543	0	0
13.44188	-0.01526197	0.005558528	-0.001615121	-0.001153626	-0.001603519	-0.001146171	0	0
13.45861	-0.01528828	0.005539737	-0.001572352	-0.001123089	0.001295188	0.0009247463	0	0
13.47513	-0.0153409	0.005502152	-0.003186773	-0.002276202	-0.04856258	-0.03468621	0	0
13.49164	-0.01541983	0.005445775	-0.004779826	-0.003414134	-0.04823812	-0.0344569	0	0
13.50849	-0.01547245	0.00540819	-0.003122866	-0.002230651	0.04966551	0.03547357	0	0
13.52506	-0.01552507	0.005370604	-0.003175711	-0.002268425	-0.001581292	-0.001130347	0	0
13.54168	-0.015604	0.005314224	-0.00474938	-0.003392526	-0.047417	-0.03387085	0	0
13.57721	-0.015604	0.005314224	0	0	0.09106526	0.06504876	0	0
13.59377	-0.01563031	0.005295431	-0.00158889	-0.001134973	-0.03050072	-0.02178723	0	0
13.61034	-0.01563031	0.005295431	0	0	0.04796383	0.03426145	0	0
13.62691	-0.01563031	0.005295431	0	0	0	0	0	0
13.64375	-0.01568292	0.005257844	-0.003124226	-0.002231744	-0.09350349	-0.06679282	0	0
13.66004	-0.01581447	0.005163874	-0.00807727	-0.005769994	-0.1495133	-0.1068061	0	0
13.6766	-0.0161828	0.004900746	-0.02223354	-0.01588338	-0.4309081	-0.3078452	0	0
13.69317	-0.0161828	0.004900746	0	0	0.6710095	0.4793613	0	0
13.70974	-0.01620911	0.004881951	-0.001588249	-0.001134628	-0.04793484	-0.03424414	0	0
13.72632	-0.01626172	0.004844359	-0.003173098	-0.002266964	-0.04781156	-0.03416019	0	0
13.74287	-0.01628803	0.004825563	-0.001589601	-0.001135703	0.04779278	0.0341435	0	0
13.79257	-0.01657743	0.0046188	-0.005822871	-0.004160229	-0.06389857	-0.04565333	0	0
13.80913	-0.01660374	0.004600003	-0.001588158	-0.001134676	0.06390471	0.04565766	0	0
13.8257	-0.01668266	0.004543611	-0.004763588	-0.003403635	-0.09583467	-0.06847733	0	0
13.84238	-0.0167879	0.00446842	-0.006308353	-0.004507418	-0.04645929	-0.03319663	0	0
13.85883	-0.01686682	0.004412025	-0.004797946	-0.003428273	0.04558811	0.03257147	0	0
13.87541	-0.0171299	0.004224036	-0.01587143	-0.01134113	-0.3352986	-0.2395965	0	0
13.89242	-0.0185242	0.003227522	-0.08196566	-0.05858168	-1.967881	-1.406534	0	0
13.90854	-0.01989211	0.002249522	-0.08488875	-0.06069164	-0.08824432	-0.06369705	0	0
13.9251	-0.01989211	0.002249522	0	0	2.597534	1.85712	0	0
13.94167	-0.01989211	0.002249522	0	0	0	0	0	0
13.95823	-0.01989211	0.002249522	0	0	0	0	0	0
13.97498	-0.01989211	0.002249522	0	0	0	0	0	0
13.99137	-0.01989211	0.002249522	0	0	0	0	0	0
14.008	-0.01989211	0.002249522	0	0	0	0	0	0
14.0245	-0.01989211	0.002249522	0	0	0	0	0	0
14.04107	-0.01989211	0.002249522	0	0	0	0	0	0
14.05763	-0.01989211	0.002249522	0	0	0	0	0	0
14.10734	-0.01989211	0.002249522	0	0	0	0	0	0
14.15703	-0.01986581	0.002268333	0.0005293008	0.0003784803	0.00532493	0.003807629	0	0
14.1736	-0.01986581	0.002268333	0	0	-0.00798751	-0.005711525	0	0
14.19017	-0.01986581	0.002268333	0	0	0	0	0	0
14.20673	-0.01986581	0.002268333	0	0	0	0	0	0
14.2233	-0.01986581	0.002268333	0	0	0	0	0	0
14.27268	-0.01986581	0.002268333	0	0	0	0	0	0
14.28925	-0.01986581	0.002268333	0	0	0	0	0	0
14.30581	-0.01986581	0.002268333	0	0	0	0	0	0
14.32238	-0.01986581	0.002268333	0	0	0	0	0	0
14.33924	-0.01986581	0.002268333	0	0	0	0	0	0
14.35575	-0.01986581	0.002268333	0	0	0	0	0	0
14.39077	-0.01986581	0.002268333	0	0	0	0	0	0
14.40728	-0.01989211	0.002287143	-0.001593069	0.001139121	-0.03091143	0.02210316	0	0
14.42372	-0.01989211	0.002287143	0	0	0.04834608	-0.03456977	0	0
14.44031	-0.01989211	0.002287143	0	0	0	0	0	0
14.45686	-0.01986581	0.002305953	0.001589855	0.001136823	0.0479833	0.03431037	0	0
14.47342	-0.01989211	0.002324763	-0.001587933	0.001135449	-0.09596936	-4.150342E-05	0	0
14.48999	-0.01989211	0.002324763	0	0	0.04792667	-0.03426988	0	0
14.50655	-0.01989211	0.002324763	0	0	0	0	0	0
14.52312	-0.01989211	0.002324763	0	0	0	0	0	0
14.53969	-0.01989211	0.002324763	0	0	0	0	0	0
14.55639	-0.01989211	0.002324763	0	0	0	0	0	0
14.57282	-0.01989211	0.002324763	0	0	0	0	0	0
14.58939	-0.01989211	0.002324763	0	0	0	0	0	0
14.60595	-0.01989211	0.002324763	0	0	0	0	0	0
14.62252	-0.01989211	0.002324763	0	0	0	0	0	0
14.63909	-0.01989211	0.002324763	0	0	0	0	0	0
14.65566	-0.01986581	0.002343573	0.00158775	0.001135304	0.04791839	0.03426354	0	0
14.67222	-0.01986581	0.002343573	0	0	-0.04791977	-0.03426452	0	0
14.68879	-0.01986581	0.002343573	0	0	0	0	0	0
14.70549	-0.01986581	0.002343573	0	0	0	0	0	0
14.722	-0.01986581	0.002343573	0	0	0	0	0	0
14.73852	-0.01986581	0.002343573	0	0	0	0	0	0
14.75506	-0.01986581	0.002343573	0	0	0	0	0	0
14.77162	-0.01986581	0.002343573	0	0	0	0	0	0
14.78819	-0.01986581	0.002343573	0	0	0	0	0	0
14.80506	-0.01986581	0.002343573	0	0	0	0	0	0
14.82158	-0.01986581	0.002343573	0	0	0	0	0	0
14.83789	-0.01986581	0.002343573	0	0	0	0	0	0
14.8546	-0.01986581	0.002343573	0	0	0	0	0	0
14.87102	-0.01986581	0.002343573	0	0	0	0	0	0
14.97042	-0.01986581	0.002343573	0	0	0	0	0	0
14.98699	-0.01986581	0.002343573	0	0	0	0	0	0
15.00355	-0.01986581	0.002343573	0	0	0	0	0	0
15.02022	-0.01986581	0.002343573	0	0	0	0	0	0
15.03673	-0.01986581	0.002343573	0	0	0	0	0	0
15.05325	-0.01986581	0.002343573	0	0	0	0	0	0
15.06982	-0.01986581	0.002343573	0	0	0	0	0	0
15.08639	-0.01986581	0.002343573	0	0	0	0	0	0
15.10295	-0.01986581	0.002343573	0	0	0	0	0	0
15.11952	-0.01986581	0.002343573	0	0	0	0	0	0
15.1363	-0.01986581	0.002343573	0	0	0	0	0	0
15.15265	-0.01986581	0.002343573	0	0	0	0	0	0
15.18579	-0.01986581	0.002343573	0	0	0	0	0	0
15.22079	-0.01986581	0.002343573	0	0	0	0	0	0
15.23736	-0.01986581	0.002343573	0	0	0	0	0	0
15.25393	-0.01986581	0.002343573	0	0	0	0	0	0
15.27089	-0.01986581	0.002343573	0	0	0	0	0	0
15.28741	-0.01986581	0.002343573	0	0	0	0	0	0
15.30363	-0.01986581	0.002343573	0	0	0	0	0	0
15.32019	-0.01986581	0.002343573	0	0	0	0	0	0
15.33676	-0.01986581	0.002343573	0	0	0	0	0	0
15.35345	-0.01986581	0.002343573	0	0	0	0	0	0
15.36996	-0.01986581	0.002343573	0	0	0	0	0	0
15.38647	-0.01986581	0.002343573	0	0	0	0	0	0
15.40349	-0.01986581	0.002343573	0	0	0	0	0	0
15.41959	-0.01986581	0.002343573	0	0	0	0	0	0
15.43616	-0.01986581	0.002343573	0	0	0	0	0	0
15.45273	-0.01986581	0.002343573	0	0	0	0	0	0
15.46953	-0.01986581	0.002343573	0	0	0	0	0	0
15.48586	-0.01989211	0.002362383	-0.001611308	0.001152134	-0.04863078	0.03477249	0	0
15.50243	-0.01989211	0.002362383	0	0	0.04898751	-0.03502756	0	0
15.51906	-0.01989211	0.002362383	0	0	0	0	0	0
15.53557	-0.01989211	0.002362383	0	0	0	0	0	0
15.55213	-0.01989211	0.002362383	0	0	0	0	0	0
15.5687	-0.01989211	0.002362383	0	0	0	0	0	0
15.58526	-0.01989211	0.002362383	0	0	0	0	0	0
15.60183	-0.01989211	0.002362383	0	0	0	0	0	0
15.61864	-0.01989211	0.002362383	0	0	0	0	0	0
15.63515	-0.01989211	0.002362383	0	0	0	0	0	0
15.65153	-0.01989211	0.002362383	0	0	0	0	0	0
15.66809	-0.01989211	0.002362383	0	0	0	0	0	0
15.68468	-0.01989211	0.002362383	0	0	0	0	0	0
15.70123	-0.01989211	0.002362383	0	0	0	0	0	0
15.71779	-0.01989211	0.002362383	0	0	0	0	0	0
15.73436	-0.01989211	0.002362383	0	0	0	0	0	0
15.75093	-0.01989211	0.002362383	0	0	0	0	0	0
15.83376	-0.01989211	0.002362383	0	0	0	0	0	0
15.85032	-0.01991842	0.002343573	-0.001587729	-0.001135355	-0.0159732	-0.01142213	0	0
15.86689	-0.01989211	0.002362383	0.001587821	0.00113542	0.09584104	0.06853411	0	0
15.88346	-0.01989211	0.002362383	0	0	-0.04792052	-0.03426706	0	0
15.90002	-0.01989211	0.002362383	0	0	0	0	0	0
15.91659	-0.01989211	0.002362383	0	0	0	0	0	0
15.93316	-0.01989211	0.002362383	0	0	0	0	0	0
15.94972	-0.01989211	0.002362383	0	0	0	0	0	0
15.96629	-0.01989211	0.002362383	0	0	0	0	0	0
15.98289	-0.01989211	0.002362383	0	0	0	0	0	0
15.99942	-0.01986581	0.002456431	0.001591231	0.00568885	0.04802482	0.1716948	0	0
16.03337	-0.0198132	0.002569284	0.001549738	0.003324317	-0.0008219705	-0.0468411	0	0
16.04994	-0.01976059	0.002682134	0.003175571	0.006811624	0.03218504	0.06903485	0	0
16.06651	-0.01976059	0.003133496	0	0.02724425	-0.09583892	0.6166579	0	0
16.08307	-0.0198132	0.003584797	-0.003175205	0.02723745	-0.09582237	-0.0002052844	0	0
16.09964	-0.0198132	0.003885631	0	0.01816045	0.09582788	-0.2739443	0	0
16.11621	-0.01994472	0.004318032	-0.007939897	0.02610281	-0.2396542	0.2397284	0	0
16.13277	-0.0203393	0.005201463	-0.02381673	0.05332398	-0.4791912	0.821584	0	0
16.14934	-0.02144408	0.009070807	-0.0666923	0.233581	-1.294062	5.44048	0	0
16.16602	-0.02218057	0.01361076	-0.04415481	0.2721835	0.6779195	1.16115	0	0
16.18253	-0.02120735	0.01992305	0.05893405	0.3822425	3.105686	3.315669	0	0
16.19904	-0.02007625	0.02383211	0.06850976	0.236769	0.2899638	-4.405106	0	0
16.2156	-0.015604	0.03118974	0.2700389	0.4442611	6.093738	6.274043	0	0
16.23217	-0.008052457	0.03668891	0.4558118	0.3319303	5.607605	-3.390738	0	0
16.24874	-0.002894729	0.04026364	0.3113211	0.2157711	-4.360739	-3.505692	0	0
16.2653	0.002394732	0.04389073	0.3192725	0.2189319	0.2399731	0.09539462	0	0
16.28187	0.008868189	0.04816439	0.3906936	0.257929	2.15537	1.176866	0	0
16.29861	0.01286771	0.05065207	0.2389087	0.1485997	-4.556747	-3.282181	0	0
16.31501	0.01810328	0.05404684	0.3194029	0.2071024	2.429462	1.765715	0	0
16.33157	0.01870834	0.0544733	0.03652137	0.02574096	-8.582836	-5.50264	0	0
16.34814	0.0243899	0.05851307	0.3429395	0.2438411	9.247717	6.582276	0	0
16.36471	0.02809787	0.06112376	0.2238133	0.1575814	-3.595237	-2.603324	0	0
16.38128	0.0321731	0.06406569	0.2459819	0.1775752	0.6690503	0.6034135	0	0
16.39784	0.03254114	0.06432462	0.02221216	0.0156277	-6.752995	-4.887303	0	0
16.41441	0.03251485	0.06434312	-0.001586647	0.001116071	-0.7181667	-0.4379113	0	0
16.43122	0.03259372	0.0643986	0.004691666	0.003300788	0.188094	0.06545261	0	0
16.44754	0.03290917	0.06465752	0.01932765	0.01586375	0.4417658	0.3791946	0	0
16.46411	0.03764011	0.06798495	0.2855603	0.200844	8.09503	5.624482	0	0
16.48075	0.04171263	0.07084806	0.2448035	0.1721047	-1.2275	-0.8655598	0	0
16.49726	0.0513758	0.07763778	0.5850887	0.4111059	10.26451	7.209333	0	0
16.51381	0.06037391	0.08391963	0.5438153	0.3796542	-1.248365	-0.9512951	0	0
16.53038	0.06417491	0.08658803	0.2294292	0.1610651	-9.494203	-6.60121	0	0
16.54694	0.07101198	0.09138708	0.4126859	0.289671	5.530697	3.881332	0	0
16.56351	0.07595884	0.09485902	0.298559	0.2095426	-3.444158	-2.418139	0	0
16.58032	0.08189537	0.0990255	0.3532459	0.2479212	1.638568	1.149927	0	0
16.59684	0.08719937	0.1027483	0.3210372	0.2253291	-0.9664402	-0.6778888	0	0
16.61334	0.09007142	0.1048009	0.1740586	0.1243999	-4.450939	-3.05643	0	0
16.62985	0.09468967	0.108043	0.2796919	0.1963499	3.199808	2.179483	0	0
16.64636	0.1010754	0.1125271	0.3867815	0.2715949	3.242983	2.27864	0	0
16.69604	0.1196105	0.1256262	0.3730698	0.2636558	-0.2071479	-0.1199393	0	0
16.71261	0.1241218	0.1287999	0.2723324	0.1915884	-1.520612	-1.087844	0	0
16.72918	0.1321723	0.1344677	0.4859288	0.3421085	6.446722	4.542968	0	0
16.74593	0.1379085	0.1385098	0.342336	0.2412333	-4.309082	-3.027169	0	0
16.77946	0.150974	0.1479843	0.3896735	0.2825735	0.9413778	0.8221127	0	0
16.79603	0.1541361	0.150364	0.1908648	0.1436417	-3.968514	-2.773283	0	0
16.8126	0.1550096	0.1511994	0.0527319	0.05043088	-4.169099	-2.81327	0	0
16.82916	0.1608611	0.1557738	0.3532013	0.2761115	9.068706	6.811447	0	0
16.84573	0.1631423	0.1576062	0.1376919	0.1106036	-6.504084	-4.995038	0	0
16.8623	0.1662153	0.1599277	0.185488	0.1401213	1.442487	0.8908454	0	0
16.87886	0.1661386	0.1601997	-0.004634793	0.0164174	-5.737916	-3.733392	0	0
16.89554	0.1652938	0.1608342	-0.05064769	0.03804496	-1.383972	0.6505115	0	0
16.91205	0.1609381	0.1639518	-0.2638217	0.1888276	-6.422882	4.543046	0	0
16.92856	0.1523369	0.1700192	-0.520969	0.3675016	-7.787619	5.411079	0	0
16.94513	0.1386055	0.179661	-0.8288257	0.5819764	-9.307204	6.484061	0	0
16.9617	0.1280326	0.1870502	-0.6382538	0.4460654	5.751801	-4.102038	0	0
16.97827	0.1149126	0.1961811	-0.7918383	0.5510821	-4.635189	3.169409	0	0
16.99511	0.1090915	0.2002197	-0.3455527	0.2397372	13.35591	-9.317561	0	0
17.0114	0.1016745	0.2053549	-0.4553972	0.3153006	-3.315303	2.280638	0	0
17.02796	0.09416803	0.2105409	-0.4531434	0.3130586	0.06860249	-0.06824417	0	0
17.06116	0.08732995	0.2152558	-0.2060062	0.1420427	4.966694	-3.436891	0	0
17.07767	0.08691208	0.2155436	-0.025304	0.01743059	3.635316	-2.506912	0	0
17.09423	0.08693819	0.2155616	0.001576806	0.001085994	0.8127146	-0.4941628	0	0
17.1108	0.08693819	0.2155976	0	0.002172388	-0.04759906	0.03279497	0	0
17.12736	0.08699043	0.2156336	0.003153336	0.002172388	0.09517881	0	0	0
17.14393	0.08704267	0.2156336	0.003152973	0	-1.095548E-05	-0.06556656	0	0
17.1605	0.08706878	0.2156516	0.001576261	0.001085619	-0.04758524	0.03276405	0	0
17.17706	0.0870949	0.2156695	0.001576261	0.001085619	0	0	0	0
17.19363	0.08706878	0.2156875	-0.001576443	0.001085744	-0.09515429	3.773632E-06	0	0
17.24333	0.08696432	0.2157955	-0.002101912	0.002171921	-0.007929808	0.01639139	0	0
17.2599	0.08688596	0.2158494	-0.004730228	0.003258132	-0.03966365	0.0163919	0	0
17.27646	0.08638971	0.2161912	-0.02995391	0.02063036	-0.7612962	0.5243251	0	0
17.29303	0.08500519	0.2171806	-0.08356974	0.05971625	-1.618129	1.179614	0	0
17.30983	0.07888857	0.2213525	-0.3640031	0.2482734	-8.403512	5.650336	0	0
17.32616	0.07410092	0.2246419	-0.2931686	0.2014242	2.13779	-1.413914	0	0
17.34286	0.0725828	0.2256842	-0.09095345	0.06244643	6.123662	-4.20865	0	0
17.35938	0.06637603	0.229942	-0.3757225	0.2577448	-8.574605	5.880578	0	0
17.37588	0.06574721	0.2303731	-0.03809609	0.02611509	10.22313	-7.013613	0	0
17.39243	0.06577341	0.2303551	0.001582848	-0.001084944	1.200346	-0.8228407	0	0
17.409	0.06577341	0.2303551	0	0	-0.04779247	0.03275877	0	0
17.42558	0.06579961	0.2303372	0.00158093	-0.00108422	0.04769883	-0.03271242	0	0
17.44213	0.06579961	0.2303372	0	0	-0.04771806	0.0327256	0	0
17.45895	0.06579961	0.2303372	0	0	0	0	0	0
17.47526	0.06579961	0.2303372	0	0	0	0	0	0
17.49183	0.06582581	0.2303192	0.001581476	-0.001083695	0.0480889	-0.03295259	0	0
17.52498	0.06593062	0.2302474	0.003161453	-0.002166968	0.03177701	-0.02178712	0	0
17.54201	0.06603543	0.2301755	0.006156775	-0.004220938	0.05969784	-0.04093637	0	0
17.5581	0.06603543	0.2301755	0	0	-0.1859296	0.1274689	0	0
17.57467	0.06603543	0.2301755	0	0	0	0	0	0
17.59123	0.06603543	0.2301755	0	0	0	0	0	0
17.62778	0.06603543	0.2301755	0	0	0	0	0	0
17.64435	0.06603543	0.2301755	0	0	0	0	0	0
17.66092	0.06603543	0.2301755	0	0	0	0	0	0
17.67759	0.06603543	0.2301755	0	0	0	0	0	0
17.6941	0.06603543	0.2301755	0	0	0	0	0	0
17.71062	0.06606162	0.2301576	0.001586322	-0.001087325	0.04803567	-0.03292547	0	0
17.72718	0.06603543	0.2301396	-0.00158139	-0.001083945	-0.0957616	0.0001021863	0	0
17.74414	0.06603543	0.2301396	0	0	0.04717787	0.03233751	0	0
17.76065	0.06603543	0.2301396	0	0	0	0	0	0
17.77716	0.06603543	0.2301396	0	0	0	0	0	0
17.79345	0.06603543	0.2301396	0	0	0	0	0	0
17.81001	0.06603543	0.2301396	0	0	0	0	0	0
17.8432	0.06603543	0.2301396	0	0	0	0	0	0
17.85971	0.06600922	0.2301216	-0.00158714	-0.001088479	-0.03193454	-0.02190108	0	0
17.87628	0.06600922	0.2301216	0	0	0.0479856	0.03290909	0	0
17.89285	0.06600922	0.2301216	0	0	0	0	0	0
17.90941	0.06598302	0.2301037	-0.00158184	-0.001083945	-0.04774278	-0.03271541	0	0
17.92626	0.06595682	0.2300857	-0.001554542	-0.001065542	0.0008169096	0.0005507169	0	0
17.94278	0.06590442	0.2300498	-0.003173546	-0.002175553	-0.04852368	-0.03326848	0	0
17.95929	0.06587821	0.2300318	-0.00158714	-0.001087577	0.04803823	0.03294519	0	0
17.9758	0.06585202	0.2300139	-0.001586139	-0.001088102	3.030784E-05	-1.591179E-05	0	0
17.99282	0.06561619	0.2298522	-0.01386261	-0.009502186	-0.3661627	-0.2509616	0	0
18.00881	0.06535416	0.2296367	-0.01637803	-0.01347256	-0.07620057	-0.1202761	0	0
18.02538	0.06399146	0.2286307	-0.08225296	-0.06071822	-2.022809	-1.450763	0	0
18.04195	0.0599806	0.2257022	-0.2420402	-0.1767281	-4.821835	-3.500783	0	0
18.05886	0.05470851	0.2219817	-0.3117983	-0.2200331	-2.083592	-1.293471	0	0
18.07537	0.04567873	0.2157955	-0.5468012	-0.3746093	-7.031286	-4.624917	0	0
18.09189	0.03748244	0.2102168	-0.4963292	-0.3378162	1.528173	1.114009	0	0
18.10822	0.02899187	0.2044002	-0.520035	-0.3562591	-0.7218409	-0.561588	0	0
18.12491	0.02018147	0.198399	-0.5277264	-0.3594616	-0.2329175	-0.09697915	0	0
18.14142	0.008552423	0.190426	-0.7043634	-0.4829174	-5.319585	-3.717984	0	0
18.15792	-0.0001578947	0.1844495	-0.528066	-0.3623282	5.341576	3.653691	0	0
18.17494	-0.01197311	0.1763703	-0.6939147	-0.4744989	-4.947511	-3.346217	0	0
18.19105	-0.02023408	0.1707252	-0.5129235	-0.3505022	5.462639	3.742443	0	0
18.20797	-0.02804528	0.1653469	-0.4616522	-0.3178642	1.552467	0.9882589	0	0
18.22418	-0.03540625	0.1602722	-0.4539784	-0.3129779	0.231594	0.1474697	0	0
18.241	-0.04468077	0.1538683	-0.5513061	-0.3806672	-2.946003	-2.048881	0	0
18.25731	-0.05079836	0.1496375	-0.3750884	-0.2594022	5.318566	3.659994	0	0
18.27401	-0.05570547	0.146167	-0.2938924	-0.2078514	2.459986	1.56183	0	0
18.29052	-0.06173723	0.1417304	-0.36534	-0.2687226	-2.151584	-1.833085	0	0
18.30703	-0.06527555	0.1381094	-0.2142887	-0.2192987	4.57427	1.496699	0	0
18.32358	-0.06734537	0.132081	-0.1250788	-0.3642898	2.698419	-4.385686	0	0
18.34015	-0.06800026	0.1306412	-0.03953341	-0.08691709	2.583401	8.376429	0	0
18.38985	-0.05751544	0.1191814	0.210963	-0.230581	3.780216	-2.168018	0	0
18.42677	-0.05727938	0.119017	0.006392852	-0.004452843	-2.361531	2.610395	0	0
18.44334	-0.05725315	0.1189987	0.001583414	-0.001102835	-0.08991017	0.0626268	0	0
18.46014	-0.057122	0.1189074	0.007803855	-0.005435322	0.1864028	-0.129828	0	0
18.47666	-0.05672854	0.1186333	0.02382871	-0.01659739	0.4809732	-0.3350205	0	0
18.49304	-0.05365897	0.1164952	0.1873506	-0.1305015	4.970869	-3.462547	0	0
18.50968	-0.04460198	0.1101849	0.5442371	-0.3791852	10.80631	-7.529995	0	0
18.5262	-0.0363524	0.1044344	0.4994984	-0.3481814	-1.349285	0.9350507	0	0
18.54274	-0.02770344	0.09840168	0.522835	-0.3646838	0.7059269	-0.4991932	0	0
18.55931	-0.01641958	0.0904865	0.6810167	-0.477706	4.777232	-3.413376	0	0
18.57588	-0.01102587	0.08671682	0.3255648	-0.2275388	-10.72694	7.549626	0	0
18.59244	-0.005684149	0.0829807	0.3225011	-0.2255643	-0.09247355	0.05959719	0	0
18.60901	0.003894717	0.07627334	0.5781816	-0.4048572	7.71734	-5.411693	0	0
18.62557	0.01234148	0.07034947	0.5098475	-0.3575653	-2.062325	1.427272	0	0
18.64228	0.01799806	0.06637703	0.3385475	-0.2377515	-5.147917	3.600651	0	0
18.67528	0.0314633	0.05690137	0.4080967	-0.2871829	1.39928	-0.9945229	0	0
18.69184	0.0363524	0.05345343	0.2951407	-0.2081415	-2.279152	1.594844	0	0
18.70841	0.04058297	0.05042936	0.2553871	-0.1825546	-1.199903	0.7723045	0	0
18.72534	0.04607264	0.0465484	0.3242273	-0.2292151	2.055124	-1.392982	0	0
18.74154	0.04993214	0.04377918	0.2382263	-0.1709283	-2.595666	1.759199	0	0
18.75836	0.05229438	0.04214272	0.1404188	-0.09727626	-2.961723	2.23027	0	0
18.77487	0.05226814	0.04212412	-0.001589989	-0.001126872	-4.260818	2.884856	0	0
18.79124	0.05216316	0.04223572	-0.006412567	0.006816937	-0.1466856	0.2416223	0	0
18.80781	0.05216316	0.04223572	0	0	0.194686	-0.2069627	0	0
18.82441	0.05216316	0.04223572	0	0	0	0	0	0
18.84094	0.05213692	0.04221712	-0.001587562	-0.001125087	-0.04791272	-0.03395518	0	0
18.85751	0.05213692	0.04221712	0	0	0.0479707	0.03399628	0	0
18.87407	0.05213692	0.04221712	0	0	0	0	0	0
18.89064	0.05213692	0.04221712	0	0	0	0	0	0
18.90746	0.0520057	0.04231012	-0.007801205	0.005528502	-0.233652	0.1655828	0	0
18.92397	0.05182198	0.04244031	-0.01112758	0.007885832	-0.09979843	0.07072503	0	0
18.94034	0.051717	0.04251471	-0.006413314	0.00454485	0.1433828	-0.1016148	0	0
18.957	0.05169075	0.0425333	-0.001575649	0.001116327	0.1464732	-0.1038077	0	0
18.97351	0.05169075	0.0425333	0	0	0.04750942	-0.03365982	0	0
18.99004	0.05169075	0.0425333	0	0	0	0	0	0
19.00661	0.05169075	0.0425333	0	0	0	0	0	0
19.02317	0.05166451	0.0425519	-0.001584131	0.001122721	-0.04781193	0.03388573	0	0
19.03974	0.05153328	0.0426449	-0.00791997	0.005612283	-0.191205	0.1354875	0	0
19.05656	0.05140205	0.04273788	-0.007800763	0.005527433	0.003569917	-0.002541059	0	0
19.07287	0.05127082	0.04283087	-0.008047332	0.005701754	-0.007442311	0.005261645	0	0
19.08959	0.05119208	0.04288666	-0.004710006	0.003337136	0.1010523	-0.07159924	0	0
19.1061	0.05119208	0.04288666	0	0	0.1417566	-0.1004375	0	0
19.15645	0.05108709	0.04292385	-0.00208504	0.0007386644	-0.03118507	0.01104789	0	0
19.17315	0.05092961	0.04288666	-0.009431849	-0.002227553	-0.1095737	-0.04423953	0	0
19.18966	0.05074587	0.04279367	-0.01112871	-0.005631932	-0.05109946	-0.1025201	0	0
19.20615	0.04693918	0.04013337	-0.230782	-0.1612819	-6.6552	-4.715984	0	0
19.22272	0.04058297	0.03566426	-0.3837057	-0.2697867	-4.625632	-3.282051	0	0
19.23928	0.03049055	0.02872642	-0.6091798	-0.4187691	-6.805212	-4.496557	0	0
19.27242	0.01494626	0.01793881	-0.4691007	-0.3255519	2.81829	1.875462	0	0
19.30555	-0.004815752	0.003960835	-0.5964872	-0.4219047	-1.922323	-1.454009	0	0
19.32212	-0.01347287	-0.00219269	-0.5225446	-0.3714275	1.487844	1.015683	0	0
19.33876	-0.02128626	-0.007753851	-0.4694552	-0.3341337	1.598559	1.122944	0	0
19.35527	-0.0303328	-0.01425073	-0.5478794	-0.393466	-2.365349	-1.789521	0	0
19.37182	-0.03248857	-0.01583917	-0.1303024	-0.09601104	12.63231	8.998446	0	0
19.38838	-0.04005751	-0.02132916	-0.4569148	-0.3314148	-9.864562	-7.109821	0	0
19.40531	-0.04848828	-0.02745517	-0.4981576	-0.3619737	-1.231526	-0.912499	0	0
19.42152	-0.05258306	-0.0304942	-0.2526295	-0.1874945	7.410479	5.266097	0	0
19.43808	-0.05699085	-0.03368842	-0.2660547	-0.1928032	-0.4096061	-0.1619698	0	0
19.45485	-0.05796132	-0.0343543	-0.05789789	-0.03972636	6.245515	4.592901	0	0
19.47136	-0.05796132	-0.0343543	0	0	1.740149	1.193995	0	0
19.48787	-0.05796132	-0.0343543	0	0	0	0	0	0
19.50435	-0.05798755	-0.03433527	-0.001591067	0.001154428	-0.04822391	0.03498974	0	0
19.52092	-0.05798755	-0.03429722	0	0.002296934	0.04814042	0.03456848	0	0
19.53748	-0.05796132	-0.0342782	0.001583007	0.001148355	0.04777525	-0.0346642	0	0
19.55405	-0.05788264	-0.03418306	0.004749471	0.005742223	0.09556407	0.1386432	0	0
19.57062	-0.05772527	-0.0340689	0.009497624	0.006889785	0.1432913	0.03463149	0	0
19.58718	-0.05733184	-0.03382159	0.02375031	0.01492988	0.4301471	0.2426506	0	0
19.60375	-0.05659739	-0.03328896	0.04433673	0.03215314	0.6213706	0.5198587	0	0
19.62046	-0.05657115	-0.03326994	0.001569901	0.001138078	-1.285231	-0.932066	0	0
19.63697	-0.05657115	-0.03326994	0	0	-0.04725459	-0.03425656	0	0
19.65348	-0.05657115	-0.03326994	0	0	0	0	0	0
19.67002	-0.05657115	-0.03326994	0	0	0	0	0	0
19.7358	-0.05651869	-0.03326994	0.0007975487	0	0.009689156	0	0	0
19.75255	-0.05651869	-0.03326994	0	0	-0.009663181	0	0	0
19.76906	-0.05651869	-0.03326994	0	0	0	0	0	0
19.78558	-0.05651869	-0.03326994	0	0	0	0	0	0
19.80209	-0.05651869	-0.03326994	0	0	0	0	0	0
19.81863	-0.05651869	-0.03326994	0	0	0	0	0	0
19.8352	-0.05651869	-0.03326994	0	0	0	0	0	0
19.85177	-0.05651869	-0.03326994	0	0	0	0	0	0
19.86833	-0.05651869	-0.03326994	0	0	0	0	0	0
19.8849	-0.05651869	-0.0332319	0	0.002295995	0	0.06929328	0	0
19.90487	-0.05649246	-0.03321288	0.001313337	0.0009524073	0.03594148	-0.03676935	0	0
19.92167	-0.05644	-0.03317484	0.003122472	0.002263975	0.04919647	0.03566594	0	0
19.93801	-0.0563613	-0.03311778	0.004818378	0.003493637	0.05118252	0.03711127	0	0
19.9547	-0.05623014	-0.03302268	0.007858254	0.00569734	0.09205098	0.06673066	0	0
19.97114	-0.05617767	-0.03298464	0.003190791	0.002313346	-0.1408643	-0.1021291	0	0
19.98772	-0.05609897	-0.03288955	0.004745775	0.005734468	0.04708398	0.1035896	0	0
20.00427	-0.0560465	-0.03285152	0.003170199	0.002298191	-0.04755373	-0.103713	0	0
20.02084	-0.05594157	-0.03273741	0.006333828	0.00688743	0.095528	0.1385753	0	0
20.03776	-0.05575794	-0.0326043	0.01085549	0.007869096	0.1350415	0.0293179	0	0
20.05398	-0.05549559	-0.03233808	0.01617605	0.01641493	0.1605747	0.2579139	0	0
20.07054	-0.05449861	-0.03153956	0.06017766	0.04819829	1.342109	0.969436	0	0
20.08711	-0.05218941	-0.02982916	0.139384	0.1032402	2.390452	1.661167	0	0
20.10368	-0.04680789	-0.02593677	0.3248664	0.234972	5.598193	3.975902	0	0
20.12024	-0.04155501	-0.02214401	0.3170644	0.2289317	-0.2354787	-0.182305	0	0
20.16994	-0.02552077	-0.01064184	0.3226219	0.2314329	0.08386447	0.03774456	0	0
20.18651	-0.02104952	-0.00739539	0.2699164	0.1959787	-0.7953733	-0.5350361	0	0
20.20308	-0.01697205	-0.004472571	0.2461165	0.1764217	-0.7183236	-0.5902658	0	0
20.21989	-0.01281509	-0.001495849	0.2472711	0.177066	0.03459152	0.01930268	0	0
20.23621	-0.00939446	0.0009513517	0.2095576	0.1499227	-1.138195	-0.8191878	0	0
20.25278	-0.008552423	0.001553464	0.05082549	0.0363436	-4.826104	-3.453267	0	0
20.26943	-0.008552423	0.001515836	0	-0.002259321	-1.529865	-1.161962	0	0
20.28591	-0.008578737	0.001459391	-0.001596804	-0.003425111	-0.04819164	-0.03518359	0	0
20.30295	-0.008631364	0.001384131	-0.003089095	-0.004417608	-0.04452483	-0.02961269	0	0
20.31904	-0.008762933	0.001252422	-0.008173952	-0.008182689	-0.1534701	-0.1136369	0	0
20.33561	-0.008815561	0.001214789	-0.003176639	-0.00227149	0.1529945	0.1809735	0	0
20.35218	-0.008841875	0.001195973	-0.001588291	-0.001135756	0.04793642	0.03427653	0	0
20.36875	-0.008894502	0.00115834	-0.003176583	-0.002271525	-0.04793473	-0.0342776	0	0
20.38531	-0.008920816	0.001139524	-0.001588291	-0.00113577	0.04793473	0.03427717	0	0
20.40188	-0.008973443	0.00110189	-0.003176583	-0.002271567	-0.04793473	-0.03427844	0	0
20.41845	-0.008999757	0.001083073	-0.001588347	-0.001135791	0.04793303	0.03427781	0	0
20.43501	-0.009052385	0.001045439	-0.003176948	-0.002271864	-0.04794683	-0.03428874	0	0
20.45158	-0.009105012	0.001007804	-0.003176583	-0.002271624	1.103278E-05	7.259147E-06	0	0
20.46815	-0.009210266	0.0008948981	-0.006352434	-0.006814255	-0.09584186	-0.137089	0	0
20.48471	-0.00923658	0.000913716	-0.001588474	0.001135985	0.1437766	0.2399387	0	0
20.50128	-0.00923658	0.000913716	0	0	0.047943	-0.03428606	0	0
20.51785	-0.00923658	0.000913716	0	0	0	0	0	0
20.53461	-0.00923658	0.000913716	0	0	0	0	0	0
20.55098	-0.00923658	0.000913716	0	0	0	0	0	0
20.56755	-0.00923658	0.000913716	0	0	0	0	0	0
20.58411	-0.00923658	0.000913716	0	0	0	0	0	0
20.60068	-0.00923658	0.000913716	0	0	0	0	0	0
20.61725	-0.00923658	0.000913716	0	0	0	0	0	0
20.63381	-0.009262893	0.0008948981	-0.001588291	-0.001135854	-0.04793473	-0.03428014	0	0
20.65038	-0.00923658	0.000913716	0.001588291	0.001135854	0.09586946	0.06856029	0	0
20.68373	-0.00923658	0.000913716	0	0	-0.03181972	-0.02275562	0	0
20.70029	-0.00923658	0.000913716	0	0	0	0	0	0
20.71724	-0.00923658	0.000913716	0	0	0	0	0	0
20.73375	-0.00923658	0.000913716	0	0	0	0	0	0
20.74999	-0.009262893	0.0008948981	-0.001620188	-0.001158664	-0.04946686	-0.03537584	0	0
20.76656	-0.009262893	0.0008948981	0	0	0.04938634	0.03531825	0	0
20.78329	-0.009262893	0.0008948981	0	0	0	0	0	0
20.7998	-0.009262893	0.0008948981	0	0	0	0	0	0
20.81632	-0.009262893	0.0008948981	0	0	0	0	0	0
20.83283	-0.009262893	0.0008948981	0	0	0	0	0	0
20.84939	-0.009289207	0.00087608	-0.001588291	-0.001135861	-0.04801765	-0.03433966	0	0
20.86596	-0.00931552	0.0008572618	-0.001588235	-0.001135868	1.696983E-06	-2.108053E-07	0	0
20.88253	-0.00931552	0.0008572618	0	0	0.04793027	0.03427859	0	0
20.89937	-0.009341833	0.0008384435	-0.001562389	-0.001117351	-0.04676269	-0.03344259	0	0
20.91588	-0.009341833	0.0008384435	0	0	0.04684291	0.03349996	0	0
20.93239	-0.009341833	0.0008384435	0	0	0	0	0	0
20.94891	-0.009341833	0.0008384435	0	0	0	0	0	0
20.96536	-0.009368147	0.0008196251	-0.001599154	-0.00114365	-0.04850547	-0.03468916	0	0
20.98193	-0.009368147	0.0008196251	0	0	0.04842423	0.03463106	0	0
20.9985	-0.009368147	0.0008196251	0	0	0	0	0	0
21.01506	-0.009368147	0.0008196251	0	0	0	0	0	0
21.03163	-0.00939446	0.0008008066	-0.001588291	-0.001135889	-0.04793473	-0.0342812	0	0
21.0482	-0.00939446	0.0008008066	0	0	0.04793473	0.0342812	0	0
21.13103	-0.009578655	0.000669074	-0.002223699	-0.001590352	-0.02237132	-0.01599959	0	0
21.1476	-0.009578655	0.000669074	0	0	0.02237132	0.01599959	0	0
21.16416	-0.009578655	0.000669074	0	0	0	0	0	0
21.18074	-0.009578655	0.000669074	0	0	0	0	0	0
21.1973	-0.009578655	0.000669074	0	0	0	0	0	0
21.21386	-0.009578655	0.000669074	0	0	0	0	0	0
21.23043	-0.009578655	0.000669074	0	0	0	0	0	0
21.247	-0.009578655	0.000669074	0	0	0	0	0	0
21.26356	-0.009578655	0.000669074	0	0	0	0	0	0
21.28014	-0.009578655	0.000669074	0	0	0	0	0	0
21.2967	-0.009578655	0.000669074	0	0	0	0	0	0
21.31326	-0.009604968	0.0006502547	-0.001588474	-0.001136069	-0.04795957	-0.03430045	0	0
21.32983	-0.009604968	0.0006502547	0	0	0.04794024	0.03428663	0	0
21.34639	-0.009604968	0.0006502547	0	0	0	0	0	0
21.36296	-0.009604968	0.0006502547	0	0	0	0	0	0
21.38102	-0.009604968	0.0006502547	0	0	0	0	0	0
21.39759	-0.009604968	0.0006502547	0	0	0	0	0	0
21.41424	-0.009604968	0.0006502547	0	0	0	0	0	0
21.43075	-0.009604968	0.0006502547	0	0	0	0	0	0
21.44729	-0.009604968	0.0006502547	0	0	0	0	0	0
21.46385	-0.009604968	0.0006502547	0	0	0	0	0	0
21.48042	-0.009604968	0.0006502547	0	0	0	0	0	0
21.49699	-0.009604968	0.0006502547	0	0	0	0	0	0
21.51356	-0.009604968	0.0006502547	0	0	0	0	0	0
21.53012	-0.009604968	0.0006502547	0	0	0	0	0	0
21.54669	-0.009604968	0.0006502547	0	0	0	0	0	0
21.56326	-0.009604968	0.0006502547	0	0	0	0	0	0
21.57986	-0.009604968	0.0006502547	0	0	0	0	0	0
21.59639	-0.009604968	0.0006502547	0	0	0	0	0	0
21.61296	-0.009604968	0.0006502547	0	0	0	0	0	0
21.62989	-0.009604968	0.0006502547	0	0	0	0	0	0
21.6464	-0.009604968	0.0006502547	0	0	0	0	0	0
21.66292	-0.009604968	0.0006502547	0	0	0	0	0	0
21.67922	-0.009604968	0.0006502547	0	0	0	0	0	0
21.69579	-0.009604968	0.0006502547	0	0	0	0	0	0
21.71236	-0.009604968	0.0006502547	0	0	0	0	0	0
21.72892	-0.009604968	0.0006502547	0	0	0	0	0	0
21.74549	-0.009604968	0.0006502547	0	0	0	0	0	0
21.76206	-0.009604968	0.0006502547	0	0	0	0	0	0
21.77862	-0.009604968	0.0006502547	0	0	0	0	0	0
21.79519	-0.009604968	0.0006502547	0	0	0	0	0	0
21.81203	-0.009604968	0.0006502547	0	0	0	0	0	0
21.82833	-0.009604968	0.0006502547	0	0	0	0	0	0
21.84504	-0.009604968	0.0006502547	0	0	0	0	0	0
21.87802	-0.009604968	0.0006502547	0	0	0	0	0	0
21.89459	-0.009604968	0.0006502547	0	0	0	0	0	0
21.91116	-0.009604968	0.0006502547	0	0	0	0	0	0
21.92772	-0.009604968	0.0006502547	0	0	0	0	0	0
21.94461	-0.009604968	0.0006502547	0	0	0	0	0	0
21.96086	-0.009604968	0.0006502547	0	0	0	0	0	0
21.97763	-0.009604968	0.0006502547	0	0	0	0	0	0
22.02717	-0.009604968	0.0006502547	0	0	0	0	0	0
22.04369	-0.009604968	0.0006502547	0	0	0	0	0	0
22.06025	-0.009604968	0.0006502547	0	0	0	0	0	0
22.07682	-0.009604968	0.0006502547	0	0	0	0	0	0
22.09339	-0.009604968	0.0006502547	0	0	0	0	0	0
22.10996	-0.009604968	0.0006502547	0	0	0	0	0	0
22.14406	-0.009631281	0.0006314352	-0.0007715985	-0.0005518665	-0.0152283	-0.01089166	0	0
22.16062	-0.009631281	0.0006314352	0	0	0.01522888	0.01089207	0	0
22.17727	-0.009631281	0.0006314352	0	0	0	0	0	0
22.19379	-0.009657594	0.0006126156	-0.001593612	-0.001139758	-0.04805381	-0.03436828	0	0
22.21032	-0.009710222	0.0005749761	-0.003182445	-0.002276115	-0.04807561	-0.0343844	0	0
22.22731	-0.009762848	0.0005373363	-0.003098059	-0.002215824	0.002517228	0.00179846	0	0
22.24382	-0.0098681	0.0004620552	-0.006373599	-0.004558668	-0.09777536	-0.06993423	0	0
22.26033	-0.009894414	0.0004808757	-0.001593796	0.00113994	0.144738	0.1725605	0	0
22.27659	-0.009973354	0.0004244141	-0.004855943	-0.003473205	-0.09955787	-0.1407891	0	0
22.29316	-0.009999666	0.0004432347	-0.001588418	0.001136146	0.09955394	0.1404363	0	0
22.30972	-0.01005229	0.0004055933	-0.003176526	-0.002272038	-0.04793197	-0.1028651	0	0
22.32638	-0.01010492	0.0004055933	-0.003159431	0	0.0005145538	0.06838524	0	0
22.34289	-0.01018386	0.0003867725	-0.004780227	-0.001139702	-0.04886229	-0.03435869	0	0
22.35942	-0.01036805	0.0003303093	-0.01114342	-0.00341599	-0.1925735	-0.06888885	0	0
22.37599	-0.01094693	0.0003679516	-0.0349414	0.002272089	-0.7190523	0.1718644	0	0
22.39256	-0.01126268	0.0003679516	-0.01905871	0	0.4793405	-0.06857179	0	0
22.40944	-0.02141778	0.001835668	-0.6014681	0.08693017	-17.41078	2.598725	0	0
22.42569	-0.02678307	0.004017237	-0.3301205	0.1342296	8.188814	1.427418	0	0
22.44247	-0.04302606	0.005633696	-0.9683882	0.09637139	-19.32637	-1.146325	0	0
22.45898	-0.06333622	0.005520944	-1.230173	-0.006829253	-7.865358	-3.10068	0	0
22.47549	-0.07417943	0.005370604	-0.6566899	-0.009104976	17.36673	-0.06891552	0	0
22.492	-0.08550156	0.005201463	-0.6856942	-0.01024358	-0.8782831	-0.03447837	0	0
22.52509	-0.1350932	0.004600003	-1.498576	-0.01817511	-16.38729	-0.1598955	0	0
22.54166	-0.1613483	0.004825563	-1.584761	0.01361482	-1.735513	0.640155	0	0
22.55823	-0.1816338	0.004712785	-1.224575	-0.00680808	10.87105	-0.6163997	0	0
22.57479	-0.2014156	0.004787971	-1.193895	0.004537722	0.9259332	0.342417	0	0
22.59136	-0.2274176	0.0046188	-1.569667	-0.01021233	-11.34081	-0.4451575	0	0
22.60809	-0.2456968	0.004148838	-1.092641	-0.02809207	14.32738	-0.5370148	0	0
22.62449	-0.2692957	0.003528388	-1.438675	-0.03782498	-10.44392	-0.2937568	0	0
22.6411	-0.2857736	0.003283936	-0.9919839	-0.01471615	13.53022	0.6999642	0	0
22.65763	-0.2977461	0.003133496	-0.7244139	-0.0091026	8.074347	0.1693978	0	0
22.67419	-0.3015657	0.003979635	-0.2306321	0.05109074	14.92298	1.819152	0	0
22.69115	-0.3016857	0.003998436	-0.007074311	0.001108766	6.669814	-1.491205	0	0
22.70733	-0.3019016	0.004092438	-0.01334628	0.005810443	-0.1892883	0.1418969	0	0
22.72389	-0.3035321	0.00514508	-0.09841447	0.06353761	-2.59787	1.762911	0	0
22.74046	-0.3064531	0.007362077	-0.1763331	0.1338336	-2.351725	2.121658	0	0
22.75703	-0.3085089	0.00890185	-0.124063	0.09291954	1.577424	-1.234717	0	0
22.7736	-0.3124457	0.01196056	-0.2376529	0.1846455	-3.427953	2.768137	0	0
22.79016	-0.3125172	0.01201683	-0.00431599	0.003396886	7.042933	-5.470725	0	0
22.80673	-0.3125172	0.01201683	0	0	0.1302718	-0.10253	0	0
22.82329	-0.3125649	0.01197932	-0.002876396	-0.00226433	-0.0868148	-0.06834154	0	0
22.89369	-0.3124219	0.01190429	0.0020307	-0.001065726	0.0564245	0.01378221	0	0
22.9103	-0.3123981	0.01188554	0.001435956	-0.001129694	-0.00683584	-0.0007352331	0	0
22.92683	-0.3123027	0.01184802	0.005767206	-0.00226935	0.1307174	-0.03439489	0	0
22.9434	-0.3121597	0.01173547	0.008630986	-0.006793327	0.08652369	-0.1366834	0	0
22.95996	-0.3119214	0.01154789	0.01438738	-0.0113226	0.1737282	-0.1366939	0	0
22.97653	-0.3116353	0.01132277	0.01726737	-0.013588	0.08691839	-0.06836986	0	0
22.99336	-0.3116353	0.01132277	0	0	-0.5170822	0.4069012	0	0
23.00987	-0.3115638	0.01130401	0.004331755	-0.001136183	0.1299323	-0.03408016	0	0
23.02623	-0.3115161	0.01130401	0.002914093	0	-0.04312272	0.03456064	0	0
23.0428	-0.3114207	0.01126649	0.00575639	-0.00226478	0.08631233	-0.06877479	0	0
23.07593	-0.3113015	0.01121021	0.00359885	-0.001698682	-0.04341145	0.01139033	0	0
23.0925	-0.3111584	0.01113517	0.008636383	-0.004529671	0.1013593	-0.05696179	0	0
23.10906	-0.3110392	0.01104136	0.007198114	-0.005662882	-0.04340954	-0.03420233	0	0
23.12563	-0.3107768	0.01083497	0.01583727	-0.01245747	0.2607452	-0.2050728	0	0
23.1422	-0.3106575	0.01077869	0.007200884	-0.003397619	-0.2606466	0.2734268	0	0
23.15898	-0.3106337	0.01075992	0.0014211	-0.001118395	-0.1733366	0.0683543	0	0
23.17533	-0.3105859	0.01075992	0.002917614	0	0.04517008	0.03375712	0	0
23.192	-0.3105382	0.01075992	0.002862527	0	-0.001668196	0	0	0
23.20851	-0.3104905	0.01075992	0.002890778	0	0.0008513489	0	0	0
23.22503	-0.3104666	0.01077869	0.001443585	0.00113609	-0.04381258	0.03439417	0	0
23.25817	-0.3104428	0.01079745	0.0007204066	0.0005662185	-0.0145649	-0.01147729	0	0
23.27505	-0.3104428	0.01079745	0	0	-0.01440066	-0.0113185	0	0
23.2913	-0.3104428	0.01079745	0	0	0	0	0	0
23.30808	-0.3104189	0.01081621	0.001420616	0.001118014	0.0430179	0.03385475	0	0
23.32459	-0.3103951	0.01079745	0.001445723	-0.001136352	0.0007540898	-0.0677095	0	0
23.34111	-0.3103951	0.01079745	0	0	-0.04376806	0.03440212	0	0
23.35756	-0.3103473	0.01079745	0.002900026	0	0.08795331	0	0	0
23.37413	-0.3102519	0.01083497	0.005762449	0.002265378	0.08669252	0.06861015	0	0
23.39114	-0.3101564	0.01083497	0.005612524	0	-0.004465643	-0.06747587	0	0
23.40726	-0.3100132	0.01083497	0.00887973	0	0.09860449	0	0	0
23.42416	-0.3098939	0.01085374	0.007060433	0.001110136	-0.05508406	0.03361232	0	0
23.4404	-0.3097029	0.01089126	0.01176557	0.002311906	0.1420095	0.03627157	0	0
23.45696	-0.3095358	0.0108725	0.01008511	-0.001132428	-0.05123242	-0.105008	0	0
23.4737	-0.3087478	0.01032834	0.0470887	-0.03251617	1.111078	-0.9423354	0	0
23.4901	-0.3076248	0.009446238	0.06848864	-0.05379488	0.6458887	-0.6422298	0	0
23.50672	-0.306477	0.008545135	0.06903357	-0.05419726	0.01650105	-0.01218441	0	0
23.52323	-0.306477	0.008545135	0	0	-2.083317	1.635582	0	0
23.5398	-0.306477	0.008545135	0	0	0	0	0	0
23.55637	-0.3064531	0.00852636	0.001442861	-0.00113342	0.04354815	-0.03420864	0	0
23.57294	-0.3063335	0.008545135	0.00721984	0.001133159	0.1743496	0.06840547	0	0
23.5895	-0.3011818	0.006761	0.3109924	-0.107703	9.167872	-3.284681	0	0
23.60629	-0.2956524	0.004543611	0.3292821	-0.132048	0.5482938	-0.7298197	0	0
23.62263	-0.2893309	0.001722789	0.3868209	-0.1726101	1.736523	-1.224165	0	0
23.6889	-0.2111472	-0.006169375	1.179861	-0.1190999	9.600125	0.6477663	0	0
23.74289	-0.1611175	-0.00238105	0.9266579	0.07016793	-2.105561	1.573893	0	0
23.75934	-0.149559	0.0007443504	0.7027698	0.1900278	-3.178581	1.701674	0	0
23.81548	-0.1147308	0.02076508	0.6203303	0.3565915	-1.135659	2.294525	0	0
23.83205	-0.1098975	0.02424334	0.2917347	0.2099481	-4.519142	-2.016772	0	0
23.84862	-0.1068026	0.02642954	0.1868119	0.1319594	-3.166576	-2.353705	0	0
23.86598	-0.1066465	0.0264669	0.008990855	0.002151699	-5.240849	-3.825769	0	0
23.88175	-0.1066205	0.02644822	0.00164961	-0.001184417	-0.2215592	-0.1006842	0	0
23.89832	-0.1065944	0.02642954	0.001570415	-0.001127443	-0.002448894	0.00176178	0	0
23.91501	-0.1065944	0.02639218	0	-0.002237849	-0.04721313	-0.03338337	0	0
23.93153	-0.1066465	0.02635482	-0.003150987	-0.002262291	-0.09488398	-0.0007360115	0	0
23.94804	-0.1067505	0.0262801	-0.006301975	-0.004524807	-0.09540454	-0.06850372	0	0
23.96459	-0.1067766	0.02626142	-0.001572406	-0.001128985	0.1430598	0.1027167	0	0
23.98156	-0.1068806	0.02618669	-0.006130179	-0.004401883	-0.135965	-0.09763534	0	0
23.99807	-0.1069847	0.02611197	-0.006302703	-0.004525443	-0.005151927	-0.00368974	0	0
24.01429	-0.1070107	0.02609329	-0.00160432	-0.001152344	0.1435744	0.103076	0	0
24.03111	-0.1070107	0.02609329	0	0	0.04856664	0.03488423	0	0
24.04742	-0.1070107	0.02609329	0	0	0	0	0	0
24.06412	-0.1070107	0.02609329	0	0	0	0	0	0
24.08064	-0.1070107	0.02609329	0	0	0	0	0	0
24.09715	-0.1070367	0.02607461	-0.00157604	-0.001131707	-0.04772707	-0.03427137	0	0
24.11369	-0.1070627	0.02605592	-0.001572769	-0.001129245	9.896726E-05	7.44729E-05	0	0
24.13025	-0.1070888	0.02603724	-0.001570415	-0.001127668	7.109458E-05	4.764954E-05	0	0
24.14682	-0.1070627	0.02601856	0.001570415	-0.001127668	0.09479044	0	0	0
24.16339	-0.1070627	0.02601856	0	0	-0.04739249	0.03403112	0	0
24.17996	-0.1070627	0.02601856	0	0	0	0	0	0
24.19672	-0.1070627	0.02601856	0	0	0	0	0	0
24.21323	-0.1070627	0.02601856	0	0	0	0	0	0
24.22965	-0.1070888	0.02603724	-0.001583909	0.001137357	-0.04808759	0.03453025	0	0
24.24625	-0.1070888	0.02603724	0	0	0.04796814	-0.03444448	0	0
24.26279	-0.1070627	0.02601856	0.00157295	-0.001129488	0.04747173	-0.03408802	0	0
24.27936	-0.1070888	0.02603724	-0.001570415	0.001127668	-0.09494346	0.06817605	0	0
24.29592	-0.1070627	0.02601856	0.001570596	-0.001127798	0.09480135	-0.068074	0	0
24.3125	-0.1070627	0.02601856	0	0	-0.04738159	0.03402329	0	0
24.32931	-0.1070627	0.02601856	0	0	0	0	0	0
24.34582	-0.1070627	0.02601856	0	0	0	0	0	0
24.36233	-0.1070627	0.02601856	0	0	0	0	0	0
24.37885	-0.1070627	0.02601856	0	0	0	0	0	0
24.39532	-0.1070627	0.02601856	0	0	0	0	0	0
24.41189	-0.1070627	0.02601856	0	0	0	0	0	0
24.42846	-0.1070627	0.02601856	0	0	0	0	0	0
24.44502	-0.1070627	0.02601856	0	0	0	0	0	0
24.46159	-0.1070627	0.02601856	0	0	0	0	0	0
24.47953	-0.1070627	0.02601856	0	0	0	0	0	0
24.49643	-0.1070627	0.02601856	0	0	0	0	0	0
24.57901	-0.1070627	0.02601856	0	0	0	0	0	0
24.5955	-0.1070627	0.02601856	0	0	0	0	0	0
24.61207	-0.1070367	0.02599988	0.001570415	-0.001127555	0.04749364	-0.03410035	0	0
24.62864	-0.1069847	0.02596251	0.00314038	-0.002255335	0.04738165	-0.03403647	0	0
24.6452	-0.1068026	0.02583174	0.01099372	-0.007894696	0.2370279	-0.170206	0	0
24.66205	-0.1067245	0.02577569	0.004633364	-0.00332719	-0.190367	0.1367065	0	0
24.67857	-0.1063082	0.02547674	0.02520007	-0.01809634	0.616411	-0.4426507	0	0
24.69508	-0.1061521	0.02536463	0.009457142	-0.006791256	-0.4766591	0.3422916	0	0
24.71147	-0.1059439	0.02521515	0.01269963	-0.009119508	0.0985563	-0.07076784	0	0
24.7281	-0.1057618	0.02508434	0.0109556	-0.007867395	-0.05282029	0.037922	0	0
24.74461	-0.1057618	0.02508434	0	0	-0.3306027	0.2374111	0	0
24.76117	-0.1057618	0.02508434	0	0	0	0	0	0
24.77774	-0.1057618	0.02508434	0	0	0	0	0	0
24.79431	-0.1057618	0.02508434	0	0	0	0	0	0
24.81116	-0.1057358	0.02506566	0.001544547	-0.001108996	0.04622076	-0.03318685	0	0
24.82767	-0.1057358	0.02506566	0	0	-0.0462921	0.03323807	0	0
24.84418	-0.1057358	0.02506566	0	0	0	0	0	0
24.86069	-0.1057358	0.02506566	0	0	0	0	0	0
24.87714	-0.1057358	0.02506566	0	0	0	0	0	0
24.89372	-0.1057358	0.02506566	0	0	0	0	0	0
24.91027	-0.1057358	0.02506566	0	0	0	0	0	0
24.92684	-0.1057097	0.02504697	0.001570865	-0.001128005	0.0474279	-0.03405698	0	0
24.94341	-0.1057097	0.02504697	0	0	-0.04740879	0.03404326	0	0
24.95997	-0.1057097	0.02504697	0	0	0	0	0	0
24.97677	-0.1057097	0.02504697	0	0	0	0	0	0
24.99329	-0.1057097	0.02504697	0	0	0	0	0	0
25.0098	-0.1057097	0.02504697	0	0	0	0	0	0
25.02631	-0.1057097	0.02504697	0	0	0	0	0	0
25.04282	-0.1057097	0.02504697	0	0	0	0	0	0
25.05937	-0.1057097	0.02504697	0	0	0	0	0	0
25.07594	-0.1057097	0.02504697	0	0	0	0	0	0
25.09251	-0.1057097	0.02504697	0	0	0	0	0	0
25.12564	-0.1057097	0.02504697	0	0	0	0	0	0
25.1422	-0.1057097	0.02504697	0	0	0	0	0	0
25.1589	-0.1057097	0.02504697	0	0	0	0	0	0
25.17534	-0.1057097	0.02504697	0	0	0	0	0	0
25.19193	-0.1056837	0.02502828	0.001568068	-0.001126207	0.04747744	-0.03409892	0	0
25.21034	-0.1056837	0.02502828	0	0	-0.04479482	0.03217223	0	0
25.22691	-0.1056837	0.02502828	0	0	0	0	0	0
25.24348	-0.1056837	0.02502828	0	0	0	0	0	0
25.26004	-0.1056837	0.02502828	0	0	0	0	0	0
25.29318	-0.1056837	0.02502828	0	0	0	0	0	0
25.30974	-0.1056837	0.02502828	0	0	0	0	0	0
25.32652	-0.1056837	0.02502828	0	0	0	0	0	0
25.34288	-0.1056837	0.02502828	0	0	0	0	0	0
25.35954	-0.1056837	0.02502828	0	0	0	0	0	0
25.37731	-0.1056837	0.02502828	0	0	0	0	0	0
25.39388	-0.1056837	0.02502828	0	0	0	0	0	0
25.41045	-0.1056837	0.02502828	0	0	0	0	0	0
25.44358	-0.1056837	0.02502828	0	0	0	0	0	0
25.46015	-0.1056837	0.02502828	0	0	0	0	0	0
25.47672	-0.1056837	0.02502828	0	0	0	0	0	0
25.49328	-0.1056837	0.02502828	0	0	0	0	0	0
25.50985	-0.1056837	0.02502828	0	0	0	0	0	0
25.52642	-0.1056837	0.02502828	0	0	0	0	0	0
25.54298	-0.1056837	0.02502828	0	0	0	0	0	0
25.55969	-0.1056837	0.02502828	0	0	0	0	0	0
25.57612	-0.1056837	0.02502828	0	0	0	0	0	0
25.59268	-0.1056837	0.02502828	0	0	0	0	0	0
25.60925	-0.1056837	0.02502828	0	0	0	0	0	0
25.62582	-0.1056837	0.02502828	0	0	0	0	0	0
25.64238	-0.1056837	0.02502828	0	0	0	0	0	0
25.65926	-0.1056577	0.02500959	0.001541929	-0.001107227	0.04610294	-0.03310555	0	0
25.67552	-0.1056577	0.02500959	0	0	-0.04653551	0.03341617	0	0
25.69229	-0.1056577	0.02500959	0	0	0	0	0	0
25.72531	-0.1056577	0.02500959	0	0	0	0	0	0
25.74179	-0.1056577	0.02500959	0	0	0	0	0	0
25.75835	-0.1056577	0.02500959	0	0	0	0	0	0
25.77492	-0.1056577	0.02500959	0	0	0	0	0	0
25.79148	-0.1056577	0.02500959	0	0	0	0	0	0
25.80805	-0.1056577	0.02500959	0	0	0	0	0	0
25.82462	-0.1056317	0.02502828	0.001571046	0.001128135	0.04741425	0.03404718	0	0
25.84119	-0.1056317	0.02502828	0	0	-0.04741698	-0.03404914	0	0
25.8579	-0.1056317	0.02502828	0	0	0	0	0	0
25.87527	-0.1055536	0.02508434	0.004494311	0.003227364	0.1318439	0.09467705	0	0
25.89193	-0.1054755	0.0251404	0.004688842	0.003366736	0.005717916	0.004096593	0	0
25.90844	-0.1052413	0.02523383	0.01418023	0.005656507	0.2861541	0.06903392	0	0
25.94154	-0.1050331	0.02527121	0.006290564	0.001129071	-0.159015	-0.09124978	0	0
25.95847	-0.1016224	0.02704592	0.2014401	0.104817	3.900669	2.072526	0	0
25.97467	-0.1015703	0.02708327	0.003215045	0.002305626	-5.982788	-3.093979	0	0
25.99124	-0.1014661	0.02700857	0.006288406	-0.004509322	0.09379081	-0.2079741	0	0
26.00781	-0.1014661	0.02697121	0	-0.002254661	-0.1897845	0.0680458	0	0
26.02438	-0.1014661	0.02693386	0	-0.002254661	0	0	0	0
26.04103	-0.1014401	0.02691518	0.001563752	-0.001121263	0.0470668	0.03411372	0	0
26.05751	-0.1014401	0.02691518	0	0	-0.04719414	0.03383979	0	0
26.07408	-0.1014401	0.02691518	0	0	0	0	0	0
26.09064	-0.101414	0.02693386	0.001572033	0.001127201	0.04744405	0.03401898	0	0
26.10721	-0.101388	0.02691518	0.001572395	-0.00112746	1.092674E-05	-0.0680458	0	0
26.12378	-0.101362	0.0268965	0.001572033	-0.001127313	-1.092674E-05	4.440964E-06	0	0
26.1406	-0.1013359	0.02687783	0.001548152	-0.001110077	-0.0007151237	0.0005161354	0	0
26.15691	-0.1012578	0.02678444	0.00479177	-0.005727324	0.09790386	-0.1393648	0	0
26.17363	-0.1012057	0.02674708	0.003116087	-0.002234451	-0.05074164	0.1057682	0	0
26.19004	-0.1012057	0.02674708	0	0	-0.0940491	0.06743974	0	0
26.20666	-0.1012057	0.02674708	0	0	0	0	0	0
26.22318	-0.1012057	0.02674708	0	0	0	0	0	0
26.23974	-0.1011796	0.0267284	0.001572214	-0.001127443	0.04752337	-0.03407926	0	0
26.25631	-0.1011275	0.02669105	0.00314479	-0.002255033	0.04746317	-0.0340327	0	0
26.2732	-0.1001637	0.02599988	0.05706831	-0.04092276	1.611827	-1.155817	0	0
26.28945	-0.09557633	0.02271033	0.2823538	-0.2024736	6.798739	-4.875333	0	0
26.30601	-0.0861285	0.01597218	0.5703377	-0.4067623	8.776754	-6.226014	0	0
26.32275	-0.08124184	0.01246696	0.2919348	-0.2094061	-8.359391	5.925864	0	0
26.33914	-0.07192833	0.005784024	0.5681826	-0.407701	8.338136	-5.985242	0	0
26.35571	-0.06383421	-2.731298E-05	0.4885623	-0.350773	-2.415738	1.727237	0	0
26.37228	-0.05819736	-0.004076777	0.3402404	-0.2444261	-4.476365	3.209556	0	0
26.38884	-0.05672854	-0.005132335	0.0886685	-0.06372099	-7.592892	5.454006	0	0
26.40541	-0.04935462	-0.01043412	0.4450906	-0.3200165	10.75746	-7.735459	0	0
26.42198	-0.04693918	-0.01217182	0.1457965	-0.1048876	-9.032712	6.492602	0	0
26.43854	-0.04470703	-0.01381594	0.1347326	-0.09923915	-0.3339111	0.1704708	0	0
26.45511	-0.04405043	-0.01428854	0.03963252	-0.0285264	-2.870126	2.134115	0	0
26.47184	-0.04373525	-0.01455323	0.01884005	-0.01582179	-0.6244624	0.3815587	0	0
26.48825	-0.04378778	-0.01455323	-0.003202071	0	-0.6652326	0.4775027	0	0
26.50481	-0.04391911	-0.01453432	-0.007926953	0.001141215	-0.1432984	0.0346113	0	0
26.52138	-0.0439979	-0.01451541	-0.004755992	0.001141215	0.09569979	0	0	0
26.53795	-0.04402417	-0.01453432	-0.001585481	-0.001141215	0.09568622	-0.0688839	0	0
26.55451	-0.04405043	-0.01455323	-0.001585438	-0.001141347	1.278959E-06	-3.966881E-06	0	0
26.57108	-0.04410296	-0.01455323	-0.003170006	0	-0.04781961	0.03444393	0	0
26.6062	-0.04423428	-0.01445869	-0.003739794	0.002692177	-0.01102416	0.05208784	0	0
26.62345	-0.04428681	-0.01442088	-0.003045225	0.002192029	0.01326416	-0.009551324	0	0
26.63933	-0.04433934	-0.01438307	-0.003306804	0.002380488	-0.007894461	0.00568773	0	0
26.65647	-0.04433934	-0.01438307	0	0	0.1001339	-0.07208395	0	0
26.67246	-0.04433934	-0.01438307	0	0	0	0	0	0
26.6895	-0.04433934	-0.01438307	0	0	0	0	0	0
26.70559	-0.04433934	-0.01438307	0	0	0	0	0	0
26.72216	-0.04436561	-0.01436416	-0.001585481	0.001141159	-0.04854006	0.034937	0	0
26.73873	-0.04439187	-0.01434526	-0.001585073	0.001141028	1.229627E-05	-3.962911E-06	0	0
26.75529	-0.04441813	-0.01432635	-0.001585621	0.001141422	-1.652809E-05	1.189713E-05	0	0
26.77186	-0.0444444	-0.01430745	-0.001585438	0.001141291	5.509996E-06	-3.967338E-06	0	0
26.78856	-0.04447066	-0.01428854	-0.001572403	0.001131907	0.000391833	-0.0002820628	0	0
26.80507	-0.04447066	-0.01428854	0	0	0.04734347	-0.03408059	0	0
26.82158	-0.04447066	-0.01428854	0	0	0	0	0	0
26.83812	-0.04447066	-0.01428854	0	0	0	0	0	0
26.85469	-0.04452319	-0.01425073	-0.003170877	0.002282525	-0.09577995	0.06894628	0	0
26.87126	-0.04449692	-0.01423182	0.001585256	0.001141103	0.1435486	-0.03445017	0	0
26.88813	-0.04449692	-0.01423182	0	0	-0.04740379	-0.03412232	0	0
26.90439	-0.04454945	-0.01423182	-0.003230618	0	-0.09750023	0	0	0
26.92116	-0.04454945	-0.01423182	0	0	0.0978212	0	0	0
26.93767	-0.04452319	-0.01421292	0.001590792	0.001144926	0.04780381	0.03440538	0	0
26.95409	-0.04454945	-0.01419401	-0.001599476	0.001151175	-0.09686795	0.0001897685	0	0
26.97069	-0.04457572	-0.01417511	-0.001582159	0.001138874	0.0005243883	-0.0003725214	0	0
26.98722	-0.04465451	-0.01411839	-0.004765093	0.003430022	-0.09606114	0.06914699	0	0
27.00379	-0.04470703	-0.01408059	-0.003170511	0.00228215	0.04817172	-0.0346768	0	0
27.02036	-0.04475956	-0.01404278	-0.003170511	0.002282094	0	-1.693469E-06	0	0
27.03693	-0.04478582	-0.01402387	-0.001585256	0.001141047	0.04784311	-0.03443686	0	0
27.05349	-0.04483835	-0.01398607	-0.003170287	0.002282094	-0.04783633	0.03443686	0	0
27.07026	-0.04491714	-0.01392935	-0.004698964	0.003382199	-0.04585841	0.03300177	0	0
27.08663	-0.04531107	-0.01364582	-0.02406889	0.01732383	-0.5845856	0.4207592	0	0
27.10329	-0.04641401	-0.01285204	-0.06620767	0.04764901	-1.275937	0.9182288	0	0
27.11976	-0.04791068	-0.01177509	-0.09086192	0.0653814	-0.7441525	0.535226	0	0
27.13633	-0.04809446	-0.01164286	-0.01109342	0.007981594	2.414367	-1.73733	0	0
27.15289	-0.04812072	-0.01162397	-0.001584806	0.001140204	0.2869705	-0.2064736	0	0
27.20259	-0.04812072	-0.01162397	0	0	0.02391546	-0.0172062	0	0
27.21916	-0.04809446	-0.01164286	0.001584806	-0.001140204	0.02391546	-0.0172062	0	0
27.23573	-0.04809446	-0.01164286	0	0	-0.04782954	0.03441141	0	0
27.2523	-0.04809446	-0.01164286	0	0	0	0	0	0
27.2689	-0.04809446	-0.01164286	0	0	0	0	0	0
27.28543	-0.04809446	-0.01164286	0	0	0	0	0	0
27.30199	-0.04809446	-0.01164286	0	0	0	0	0	0
27.31856	-0.04809446	-0.01164286	0	0	0	0	0	0
27.33545	-0.04809446	-0.01164286	0	0	0	0	0	0
27.3517	-0.04806821	-0.01166175	0.001616253	-0.001162828	0.04877861	-0.03509423	0	0
27.36847	-0.04806821	-0.01166175	0	0	-0.04894201	0.03521179	0	0
27.38483	-0.04806821	-0.01166175	0	0	0	0	0	0
27.40271	-0.04806821	-0.01166175	0	0	0	0	0	0
27.41951	-0.04806821	-0.01166175	0	0	0	0	0	0
27.43603	-0.04806821	-0.01166175	0	0	0	0	0	0
27.45241	-0.04804195	-0.01168064	0.001602144	-0.001152678	0.04869479	-0.03503393	0	0
27.46898	-0.04804195	-0.01168064	0	0	-0.04861869	0.03497918	0	0
27.50211	-0.0480157	-0.01169953	0.0007922905	-0.0005701299	0.01594153	-0.01147148	0	0
27.51868	-0.0480157	-0.01169953	0	0	-0.01594092	0.01147104	0	0
27.53525	-0.04798944	-0.01171842	0.001584806	-0.001140204	0.04782954	-0.03441141	0	0
27.55211	-0.04798944	-0.01171842	0	0	-0.04740656	0.03410709	0	0
27.56838	-0.04798944	-0.01171842	0	0	0	0	0	0
27.58513	-0.04798944	-0.01171842	0	0	0	0	0	0
27.60164	-0.04798944	-0.01171842	0	0	0	0	0	0
27.61815	-0.04798944	-0.01171842	0	0	0	0	0	0
27.63467	-0.04798944	-0.01171842	0	0	0	0	0	0
27.65121	-0.04798944	-0.01171842	0	0	0	0	0	0
27.66778	-0.04798944	-0.01171842	0	0	0	0	0	0
27.68435	-0.04798944	-0.01171842	0	0	0	0	0	0
27.70121	-0.04798944	-0.01171842	0	0	0	0	0	0
27.71748	-0.04798944	-0.01171842	0	0	0	0	0	0
27.73405	-0.04798944	-0.01171842	0	0	0	0	0	0
27.75075	-0.04798944	-0.01171842	0	0	0	0	0	0
27.76777	-0.04798944	-0.01171842	0	0	0	0	0	0
27.78375	-0.04798944	-0.01171842	0	0	0	0	0	0
27.88315	-0.04798944	-0.01171842	0	0	0	0	0	0
27.90021	-0.04798944	-0.01171842	0	0	0	0	0	0
27.91677	-0.04798944	-0.01171842	0	0	0	0	0	0
27.93334	-0.04798944	-0.01171842	0	0	0	0	0	0
27.96691	-0.04798944	-0.01171842	0	0	0	0	0	0
27.98304	-0.04798944	-0.01171842	0	0	0	0	0	0
27.99961	-0.04798944	-0.01171842	0	0	0	0	0	0
28.01618	-0.04796319	-0.01173731	0.001584806	-0.00114026	0.0478323	-0.03441509	0	0
28.03295	-0.04798944	-0.0117562	-0.001564987	-0.001125945	-0.0944628	0.0004293165	0	0
28.04947	-0.04798944	-0.0117562	0	0	0.04701219	0.03382337	0	0
28.06588	-0.04798944	-0.0117562	0	0	0	0	0	0
28.08245	-0.04798944	-0.0117562	0	0	0	0	0	0
28.09901	-0.04798944	-0.0117562	0	0	0	0	0	0
28.11558	-0.04798944	-0.0117562	0	0	0	0	0	0
28.13214	-0.04798944	-0.0117562	0	0	0	0	0	0
28.14871	-0.04798944	-0.0117562	0	0	0	0	0	0
28.16528	-0.04798944	-0.0117562	0	0	0	0	0	0
28.18206	-0.04798944	-0.0117562	0	0	0	0	0	0
28.19857	-0.04798944	-0.0117562	0	0	0	0	0	0
28.21498	-0.0480157	-0.01173731	-0.001600282	0.001151338	-0.04861845	0.034979	0	0
28.24941	-0.0480157	-0.01173731	0	0	0.03147896	-0.02264783	0	0
28.26612	-0.0480157	-0.01173731	0	0	0	0	0	0
28.28315	-0.04804195	-0.0117562	-0.001541803	-0.001109422	-0.04569523	-0.03288053	0	0
28.29914	-0.04806821	-0.01177509	-0.001641501	-0.001181051	-0.003019148	-0.002169151	0	0
28.31567	-0.04809446	-0.01179398	-0.00158828	-0.00114276	0.001636242	0.001177267	0	0
28.33224	-0.04809446	-0.01179398	0	0	0.04798688	0.03452631	0	0
28.34881	-0.04809446	-0.01179398	0	0	0	0	0	0
28.36538	-0.04809446	-0.01179398	0	0	0	0	0	0
28.38221	-0.04809446	-0.01179398	0	0	0	0	0	0
28.39851	-0.04812072	-0.01181287	-0.00161058	-0.001158804	-0.04860739	-0.03497277	0	0
28.41508	-0.04812072	-0.01181287	0	0	0.04899946	0.03525486	0	0
28.43164	-0.04817323	-0.01188844	-0.003169387	-0.004561095	-0.09565229	-0.1376541	0	0
28.44821	-0.04822574	-0.01192622	-0.003169612	-0.002280576	-6.78793E-06	0.06882622	0	0
28.46478	-0.04822574	-0.01192622	0	0	0.09565908	0.06882792	0	0
28.48135	-0.0483045	-0.01194511	-0.004754193	-0.001140316	-0.1434818	-0.03441481	0	0
28.49791	-0.04846203	-0.01205846	-0.009508162	-0.006841952	-0.1434751	-0.1720757	0	0
28.5148	-0.04856704	-0.01213403	-0.006219202	-0.004475443	0.09831589	0.07074136	0	0
28.53105	-0.04875081	-0.01226629	-0.01131129	-0.008140218	-0.1536885	-0.1106095	0	0
28.54761	-0.04885583	-0.01237965	-0.006338774	-0.006842627	0.1515364	0.0395438	0	0
28.56418	-0.04896084	-0.01249302	-0.006337595	-0.006842121	3.558188E-05	1.528953E-05	0	0
28.58075	-0.04911835	-0.01264418	-0.009508806	-0.009125321	-0.09570734	-0.06890713	0	0
28.63045	-0.05310791	-0.01563111	-0.08027617	-0.06010181	-1.067974	-0.7693031	0	0
28.64701	-0.05308167	-0.01572568	0.001583907	-0.005708158	1.235342	0.8208491	0	0
28.66358	-0.05308167	-0.01572568	0	0	-0.0478024	0.1722725	0	0
28.68043	-0.05302918	-0.01576351	0.003115668	-0.002245585	0.09324735	-0.06720707	0	0
28.69671	-0.05292422	-0.01583917	0.006444169	-0.004644847	0.1004544	-0.07240987	0	0
28.71328	-0.05287173	-0.01591483	0.003168403	-0.004567299	-0.09970654	0.002360376	0	0
28.72995	-0.05292422	-0.01595266	-0.003148104	-0.002269075	-0.1900418	0.0691456	0	0
28.74641	-0.05326536	-0.01619857	-0.02072508	-0.01493948	-0.5305046	-0.3824157	0	0
28.76298	-0.05591534	-0.01807188	-0.159953	-0.1130735	-4.215496	-2.971268	0	0
28.77955	-0.06655943	-0.0256901	-0.642405	-0.4597838	-14.55959	-10.46313	0	0
28.79611	-0.07287074	-0.03022817	-0.3810388	-0.2739812	7.888501	5.607855	0	0
28.81268	-0.08568443	-0.03951508	-0.7734357	-0.5605592	-11.84392	-8.649937	0	0
28.82925	-0.09497654	-0.04626985	-0.5608734	-0.4077183	6.415143	4.612747	0	0
28.84581	-0.1041741	-0.05302091	-0.5551683	-0.4074953	0.1721808	0.006732278	0	0
28.86238	-0.1127046	-0.05930792	-0.5148973	-0.3794844	1.215379	0.8453708	0	0
28.91208	-0.1402572	-0.07987609	-0.55436	-0.4138324	-0.5954922	-0.518313	0	0
28.94522	-0.1610406	-0.09655124	-0.6272454	-0.5032571	-0.8798749	-1.079537	0	0
28.96178	-0.1658058	-0.1006	-0.2876252	-0.2443857	6.833173	5.208502	0	0
28.97835	-0.172786	-0.1087752	-0.4213282	-0.4934517	-4.035163	-7.516825	0	0
28.99514	-0.1764866	-0.1152909	-0.2203989	-0.3880646	6.023488	3.159309	0	0
29.01148	-0.1775321	-0.125165	-0.06397533	-0.6042082	4.721146	-6.523601	0	0
29.02923	-0.1753387	-0.1353747	0.1236019	-0.575328	5.502714	0.8472208	0	0
29.0458	-0.1707678	-0.1412875	0.2758974	-0.3568962	4.438395	6.365825	0	0
29.06236	-0.1643719	-0.1462425	0.3860577	-0.2990831	3.324642	1.744801	0	0
29.0792	-0.1578341	-0.1512675	0.3882332	-0.2983952	0.06512186	0.02059128	0	0
29.09573	-0.148787	-0.1582766	0.5474693	-0.4241473	4.772511	-3.768955	0	0
29.11223	-0.1442284	-0.1618091	0.2763033	-0.2141086	-8.21122	6.360218	0	0
29.12874	-0.1327153	-0.1707343	0.6973405	-0.5405914	12.75539	-9.89085	0	0
29.14525	-0.1278773	-0.1744869	0.2930328	-0.2272927	-12.24432	9.488146	0	0
29.16177	-0.1209333	-0.1798759	0.4203995	-0.3262567	3.856367	-2.996398	0	0
29.17833	-0.1116651	-0.1870748	0.559428	-0.4345292	4.202176	-3.272568	0	0
29.1949	-0.1045906	-0.1925755	0.4270175	-0.332025	-3.996156	3.093583	0	0
29.21147	-0.09562848	-0.199593	0.5408944	-0.4235235	3.436615	-2.761272	0	0
29.2446	-0.08693819	-0.2063684	0.2622884	-0.2044954	-5.605566	4.406855	0	0
29.26117	-0.0766914	-0.214413	0.6185692	-0.4856308	7.168935	-5.656889	0	0
29.27774	-0.07038355	-0.2200463	0.3806986	-0.3399854	-7.178948	4.395586	0	0
29.29436	-0.07056684	-0.226024	-0.01102796	-0.3596574	-11.80263	-0.5927129	0	0
29.31087	-0.07360364	-0.2331131	-0.1839155	-0.4293283	-5.218056	-2.102793	0	0
29.32743	-0.08249655	-0.2410144	-0.5368393	-0.4769799	-10.66969	-1.440615	0	0
29.34439	-0.08960155	-0.246618	-0.41897	-0.3304351	3.516013	4.371397	0	0
29.36057	-0.09435061	-0.2504042	-0.2936173	-0.2340876	3.783369	2.907942	0	0
29.37741	-0.1061521	-0.2598182	-0.7004853	-0.5587711	-12.32115	-9.832361	0	0
29.3937	-0.1126786	-0.2650773	-0.4007207	-0.3229045	9.046914	7.118468	0	0
29.41044	-0.1212704	-0.2720348	-0.513344	-0.4156962	-3.410364	-2.809842	0	0
29.42684	-0.127722	-0.2772433	-0.3934485	-0.3176417	3.618454	2.959291	0	0
29.44346	-0.1338527	-0.2822545	-0.3686948	-0.30137	0.7495263	0.4926969	0	0
29.45997	-0.1418049	-0.2887873	-0.4816601	-0.3956847	-3.408907	-2.846096	0	0
29.47653	-0.1457228	-0.2920198	-0.2365931	-0.1952027	7.410641	6.062424	0	0
29.4931	-0.1505881	-0.2960044	-0.2936365	-0.2404869	-1.72187	-1.366914	0	0
29.51001	-0.1558829	-0.3003613	-0.3132087	-0.2577305	-0.5846991	-0.5151362	0	0
29.52624	-0.1596045	-0.3034217	-0.2293375	-0.1885872	2.531384	2.086869	0	0
29.5428	-0.1640133	-0.3069379	-0.2661476	-0.2122625	-1.122499	-0.7219613	0	0
29.55937	-0.1684669	-0.310504	-0.2688171	-0.2152512	-0.08056891	-0.09020332	0	0
29.57594	-0.1716877	-0.3130864	-0.1943853	-0.1558561	2.246227	1.792445	0	0
29.5925	-0.1747773	-0.3155216	-0.1865105	-0.1470045	0.2376615	0.2671405	0	0
29.60908	-0.1764356	-0.3165786	-0.1000503	-0.06377122	2.608922	2.511553	0	0
29.62564	-0.1764866	-0.3165354	-0.003080542	0.002606267	2.926723	2.003392	0	0
29.6422	-0.1766141	-0.3164275	-0.007698258	0.006512666	-0.1394111	0.1179361	0	0
29.65912	-0.1766396	-0.316406	-0.001507181	0.00127551	0.1849099	-0.1564189	0	0
29.67533	-0.1766906	-0.3163628	-0.0031454	0.002659301	-0.04944438	0.04176529	0	0
29.69214	-0.1767161	-0.3163413	-0.001517989	0.001283907	0.04928273	-0.04165094	0	0
29.7913	-0.1767416	-0.3163197	-0.0002571157	0.0002175941	0.01087271	-0.00919498	0	0
29.81283	-0.1767416	-0.3163197	0	0	0.002130392	-0.001802927	0	0
29.82974	-0.1767927	-0.3162765	-0.003016603	0.002552171	-0.07848198	0.06639901	0	0
29.84596	-0.1768946	-0.3161902	-0.006286183	0.005319149	-0.09867612	0.08350754	0	0
29.86276	-0.1769712	-0.3161686	-0.004555295	0.001284781	0.05241936	-0.1221794	0	0
29.8791	-0.1769457	-0.3161471	0.001560311	0.001320474	0.1845694	0.001077204	0	0
29.89566	-0.1769712	-0.3161255	-0.001538935	0.001300584	-0.09418058	-0.0006044118	0	0
29.91223	-0.1769712	-0.3161255	0	0	0.04644514	-0.03925171	0	0
29.9288	-0.1769457	-0.3161471	0.001538935	-0.001300584	0.04644514	-0.03925171	0	0
29.94537	-0.1769457	-0.3161471	0	0	-0.04644514	0.03925171	0	0
29.96233	-0.1769457	-0.3161471	0	0	0	0	0	0
29.9785	-0.1769457	-0.3161471	0	0	0	0	0	0
29.99507	-0.1769457	-0.3161471	0	0	0	0	0	0
30.01163	-0.1769457	-0.3161471	0	0	0	0	0	0
30.02838	-0.1769457	-0.3161471	0	0	0	0	0	0
30.04489	-0.1769457	-0.3161471	0	0	0	0	0	0
30.06133	-0.1769202	-0.3161686	0.001550538	-0.001312203	0.04704991	-0.03981781	0	0
30.07791	-0.1769202	-0.3161686	0	0	-0.04695208	0.03973502	0	0
30.09447	-0.1769202	-0.3161686	0	0	0	0	0	0
30.11103	-0.1769202	-0.3161686	0	0	0	0	0	0
30.1276	-0.1769202	-0.3161686	0	0	0	0	0	0
30.14417	-0.1769202	-0.3161686	0	0	0	0	0	0
30.16097	-0.1769202	-0.3161686	0	0	0	0	0	0
30.17749	-0.1769202	-0.3161686	0	0	0	0	0	0
30.19387	-0.1769202	-0.3161686	0	0	0	0	0	0
30.21051	-0.1768946	-0.3161902	0.001532951	-0.001296562	0.04641954	-0.03926139	0	0
30.22702	-0.1768946	-0.3161902	0	0	-0.04623529	0.03910554	0	0
30.24357	-0.1768946	-0.3161902	0	0	0	0	0	0
30.26014	-0.1768946	-0.3161902	0	0	0	0	0	0
30.2767	-0.1768946	-0.3161902	0	0	0	0	0	0
30.29327	-0.1768946	-0.3161902	0	0	0	0	0	0
30.30984	-0.1768946	-0.3161902	0	0	0	0	0	0
30.3264	-0.1768946	-0.3161902	0	0	0	0	0	0
30.3431	-0.1768692	-0.3161686	0.001526806	0.001292119	0.04589944	0.03884417	0	0
30.35961	-0.1768692	-0.3161686	0	0	-0.04597589	-0.03890887	0	0
30.37613	-0.1768692	-0.3161686	0	0	0	0	0	0
30.39267	-0.1768692	-0.3161686	0	0	0	0	0	0
30.40965	-0.1768692	-0.3161686	0	0	0	0	0	0
30.4258	-0.1768692	-0.3161686	0	0	0	0	0	0
30.44267	-0.1768946	-0.3161471	-0.001511271	0.001278971	-0.04576831	0.03873321	0	0
30.45893	-0.1768946	-0.3161471	0	0	0.04561023	-0.03859943	0	0
30.4755	-0.1769202	-0.3160392	-0.001540011	0.006510866	-0.04690969	0.1983249	0	0
30.49366	-0.1768946	-0.3158882	0.001404789	0.008313859	0.08480302	0.05192175	0	0
30.51023	-0.1772516	-0.3153275	-0.0215453	0.03384187	-0.6608337	0.7350633	0	0
30.52679	-0.1777106	-0.3148532	-0.02770402	0.02863414	-0.1858703	-0.1571698	0	0
30.54336	-0.179571	-0.3130648	-0.1122937	0.1079431	-2.553068	2.393687	0	0
30.55993	-0.1804879	-0.3120745	-0.05534948	0.05977651	1.718579	-1.453671	0	0
30.5765	-0.1822956	-0.3092142	-0.1091079	0.1726485	-1.622431	3.406484	0	0
30.59306	-0.184814	-0.3047716	-0.152033	0.2681869	-1.295556	2.88352	0	0
30.60979	-0.1846615	-0.2986942	0.009120076	0.3632764	4.840204	2.855996	0	0
30.6263	-0.1791378	-0.2887873	0.3346016	0.6001245	9.792611	7.125941	0	0
30.64281	-0.1712533	-0.2826569	0.4775029	0.3712729	4.327716	-6.930694	0	0
30.65933	-0.1660106	-0.2783628	0.317404	0.2599704	-4.847139	-3.369785	0	0
30.67589	-0.158142	-0.2718874	0.475	0.3909021	4.76366	3.957677	0	0
30.69246	-0.1482465	-0.2638398	0.597367	0.4858089	3.69347	2.864623	0	0
30.70903	-0.1370306	-0.2548237	0.6769937	0.5442109	2.403275	1.762676	0	0
30.72559	-0.1243809	-0.2446446	0.7635342	0.6144145	2.6118	2.118751	0	0
30.74239	-0.1138996	-0.2362327	0.6240303	0.5008242	-4.181355	-3.404644	0	0
30.75889	-0.1104695	-0.233464	0.2078339	0.1677516	-12.49824	-10.00206	0	0
30.77529	-0.09048904	-0.2176068	1.218365	0.9669436	30.7118	24.28884	0	0
30.79186	-0.08756498	-0.2153133	0.1764967	0.1384313	-31.60373	-25.13186	0	0
30.80843	-0.07355129	-0.2042908	0.8458682	0.6653244	20.20167	15.90167	0	0
30.825	-0.06585202	-0.1982729	0.4646756	0.3631963	-11.50375	-9.117721	0	0
30.84156	-0.05554806	-0.190147	0.6220196	0.4905351	4.748652	3.843092	0	0
30.85813	-0.04817323	-0.1840674	0.4451459	0.3669707	-5.338367	-3.729393	0	0
30.8747	-0.04076688	-0.1744065	0.4470482	0.5831277	0.05741189	6.523629	0	0
30.89149	-0.04011006	-0.1707744	0.03911441	0.2162999	-12.2284	-10.99619	0	0
30.908	-0.04118722	-0.1551677	-0.06523555	0.9451762	-3.133236	21.88541	0	0
30.9244	-0.04339379	-0.1388534	-0.134568	0.9949265	-2.106767	1.511733	0	0
30.94103	-0.04394537	-0.1270343	-0.03316728	0.7107054	3.070176	-8.605549	0	0
30.95753	-0.04336753	-0.1127452	0.03501179	0.8657759	2.057648	4.680037	0	0
30.9741	-0.04236937	-0.1029387	0.06024916	0.5919228	0.763115	-8.280632	0	0
30.99106	-0.04037279	-0.09445143	0.1177085	0.5003698	1.713705	-2.730538	0	0
31.00723	-0.03700941	-0.0876191	0.2079947	0.4225177	2.725001	-2.349716	0	0
31.0238	-0.02775603	-0.08111349	0.5585353	0.3926798	10.70754	-0.9114252	0	0
31.0406	-0.02320636	-0.07788581	0.2708456	0.1921461	-8.622436	-6.010255	0	0
31.05693	-0.01157843	-0.06943832	0.7117786	0.5170954	13.30738	9.80699	0	0
31.0735	-0.005210479	-0.06474346	0.3843702	0.2833821	-9.950511	-7.102954	0	0
31.09014	-0.001499999	-0.062034	0.2230662	0.1628872	-4.858377	-3.629233	0	0
31.10665	0.006841999	-0.05595187	0.5052691	0.3683901	8.51445	6.200307	0	0
31.1232	0.009499714	-0.05397842	0.1605309	0.1192003	-10.42583	-7.536183	0	0
31.13977	0.01076274	-0.05305921	0.07624535	0.05548989	-2.544768	-1.923558	0	0
31.15668	0.01076274	-0.05305921	0	0	-2.277491	-1.657514	0	0
31.1729	0.01076274	-0.05305921	0	0	0	0	0	0
31.18947	0.01076274	-0.05305921	0	0	0	0	0	0
31.21072	0.01073643	-0.05307836	-0.001238078	-0.00090093	-0.032737	-0.02382221	0	0
31.22729	0.0106838	-0.05300177	-0.003176105	0.004622343	-0.05123975	0.1460306	0	0
31.24424	0.01060487	-0.05294433	-0.004656941	0.003388684	-0.04417803	-0.03680396	0	0
31.26075	0.01055224	-0.05290604	-0.003187167	0.002319068	0.04392296	-0.0319646	0	0
31.27699	0.01049961	-0.05286774	-0.003241022	0.002358296	-0.001644459	0.001197825	0	0
31.29378	0.0104733	-0.0528486	-0.001567482	0.001140673	0.05067673	-0.03687103	0	0
31.31012	0.0104733	-0.0528486	0	0	0.04731215	-0.03442954	0	0
31.3268	0.0104733	-0.0528486	0	0	0	0	0	0
31.34331	0.0104733	-0.05288689	0	-0.002319336	0	-0.06987703	0	0
31.35982	0.01052593	-0.05292518	0.003187111	-0.002319068	0.09651499	8.115459E-06	0	0
31.37639	0.01055224	-0.05298262	0.001588601	-0.003467899	-0.04832938	-0.03473377	0	0
31.39295	0.01057855	-0.05300177	0.001588291	-0.001155775	-9.343263E-06	0.06978808	0	0
31.40952	0.01063118	-0.05307836	0.003176836	-0.004623408	0.04794513	-0.1046594	0	0
31.42609	0.01065749	-0.0530975	0.001588235	-0.00115555	-0.04794683	0.1046662	0	0
31.44288	0.01063118	-0.05311665	-0.001566592	-0.001140025	-0.09455969	0.000465332	0	0
31.45939	0.01063118	-0.05315495	0	-0.00231983	0.04703886	-0.03542507	0	0
31.4759	0.01057855	-0.05319324	-0.003187111	-0.002319294	-0.09652057	1.623185E-05	0	0
31.49235	0.01060487	-0.05321239	0.001599468	-0.001163949	0.1452115	0.03504995	0	0
31.50893	0.01057855	-0.05319324	-0.001587687	0.001155376	-0.09651073	0.07023185	0	0
31.52549	0.01057855	-0.05319324	0	0	0.04791924	-0.03487132	0	0
31.54205	0.01057855	-0.05319324	0	0	0	0	0	0
31.55862	0.01057855	-0.05319324	0	0	0	0	0	0
31.57519	0.01057855	-0.05319324	0	0	0	0	0	0
31.59199	0.01057855	-0.05319324	0	0	0	0	0	0
31.60832	0.01055224	-0.05317409	-0.001611482	0.001172651	-0.04864023	0.03539474	0	0
31.62501	0.01055224	-0.05317409	0	0	0.048806	-0.03551538	0	0
31.65802	0.01055224	-0.05317409	0	0	0	0	0	0
31.70772	0.01055224	-0.05317409	0	0	0	0	0	0
31.72429	0.01055224	-0.05317409	0	0	0	0	0	0
31.74086	0.01055224	-0.05317409	0	0	0	0	0	0
31.75742	0.01055224	-0.05317409	0	0	0	0	0	0
31.77411	0.01055224	-0.05317409	0	0	0	0	0	0
31.79063	0.01055224	-0.05317409	0	0	0	0	0	0
31.80714	0.01052593	-0.05315495	-0.001593924	0.001159915	-0.04826307	0.03512154	0	0
31.82369	0.01052593	-0.05315495	0	0	0.04821851	-0.03508911	0	0
31.84026	0.01052593	-0.05315495	0	0	0	0	0	0
31.85682	0.01052593	-0.05315495	0	0	0	0	0	0
31.87339	0.01049961	-0.0531358	-0.001588418	0.001155908	-0.04794131	0.03488739	0	0
31.88995	0.01049961	-0.0531358	0	0	0.04794407	-0.0348894	0	0
31.90652	0.01049961	-0.0531358	0	0	0	0	0	0
31.92322	0.01049961	-0.0531358	0	0	0	0	0	0
31.93974	0.0104733	-0.05311665	-0.001593187	0.001159379	-0.04796652	0.03490574	0	0
31.99648	0.0104733	-0.05307836	0	0.000674784	0.02174609	-0.006614443	0	0
32.01328	0.0104733	-0.05307836	0	0	0	-0.009174822	0	0
32.02962	0.0104733	-0.05307836	0	0	0	0	0	0
32.04618	0.0104733	-0.05307836	0	0	0	0	0	0
32.06282	0.01049961	-0.05305921	0.001582042	0.001151269	0.04765287	0.03467749	0	0
32.09649	0.01052593	-0.05304006	0.0007814326	0.0005686565	-0.0159153	-0.01158173	0	0
32.11306	0.01052593	-0.05304006	0	0	-0.01555413	-0.0113189	0	0
32.12962	0.01055224	-0.05305921	0.001588601	-0.001156041	0.04794959	-0.03489341	0	0
32.16275	0.01055224	-0.05305921	0	0	-0.03196517	0.02326138	0	0
32.17932	0.01055224	-0.05305921	0	0	0	0	0	0
32.19591	0.01052593	-0.05304006	-0.001586044	0.001154181	-0.04783386	0.03480919	0	0
32.21466	0.01052593	-0.05304006	0	0	0.04488039	-0.03265992	0	0
32.23143	0.01055224	-0.05305921	0.00156873	-0.001141581	0.04416163	-0.03213688	0	0
32.24795	0.01055224	-0.05305921	0	0	-0.04712734	0.03429504	0	0
32.26446	0.01055224	-0.05305921	0	0	0	0	0	0
32.28097	0.01055224	-0.05305921	0	0	0	0	0	0
32.2975	0.01055224	-0.05305921	0	0	0	0	0	0
32.38033	0.01055224	-0.05305921	0	0	0	0	0	0
32.3969	0.01055224	-0.05305921	0	0	0	0	0	0
32.41347	0.01055224	-0.05305921	0	0	0	0	0	0
32.43003	0.01055224	-0.05305921	0	0	0	0	0	0
32.4466	0.01055224	-0.05305921	0	0	0	0	0	0
32.4636	0.01052593	-0.05304006	-0.001547265	0.00112596	-0.04608637	0.03353753	0	0
32.47973	0.01052593	-0.05304006	0	0	0.04669654	-0.03398155	0	0
32.4963	0.01052593	-0.05304006	0	0	0	0	0	0
32.51314	0.01052593	-0.05304006	0	0	0	0	0	0
32.546	0.01052593	-0.05304006	0	0	0	0	0	0
32.56257	0.01052593	-0.05304006	0	0	0	0	0	0
32.5792	0.01052593	-0.05304006	0	0	0	0	0	0
32.5957	0.01052593	-0.05304006	0	0	0	0	0	0
32.61227	0.01052593	-0.05304006	0	0	0	0	0	0
32.62884	0.01052593	-0.05304006	0	0	0	0	0	0
32.6454	0.01052593	-0.05304006	0	0	0	0	0	0
32.66197	0.01052593	-0.05304006	0	0	0	0	0	0
32.67876	0.01049961	-0.05302091	-0.001567304	0.001140543	-0.04698757	0.03419334	0	0
32.6951	0.01049961	-0.05302091	0	0	0.04730678	-0.03442563	0	0
32.71178	0.01049961	-0.05302091	0	0	0	0	0	0
32.72824	0.01049961	-0.05302091	0	0	0	0	0	0
32.7448	0.01049961	-0.05302091	0	0	0	0	0	0
32.76137	0.01049961	-0.05302091	0	0	0	0	0	0
32.77794	0.0104733	-0.05300177	-0.001588235	0.00115555	-0.04793303	0.03487458	0	0
32.79484	0.0104733	-0.05300177	0	0	0.04745228	-0.03452479	0	0
32.81107	0.0104733	-0.05300177	0	0	0	0	0	0
32.82764	0.0104733	-0.05300177	0	0	0	0	0	0
32.86453	0.0104733	-0.05300177	0	0	0	0	0	0
32.8811	0.0104733	-0.05300177	0	0	0	0	0	0
32.89791	0.0104733	-0.05300177	0	0	0	0	0	0
32.91442	0.0104733	-0.05300177	0	0	0	0	0	0
32.9308	0.01044699	-0.05298262	-0.00160679	0.001169236	-0.04885864	0.03555368	0	0
32.94736	0.01044699	-0.05298262	0	0	0.04877943	-0.03549604	0	0
32.96395	0.01044699	-0.05298262	0	0	0	0	0	0
32.9805	0.01044699	-0.05298262	0	0	0	0	0	0
32.99706	0.01044699	-0.05298262	0	0	0	0	0	0
33.01363	0.01044699	-0.05298262	0	0	0	0	0	0
33.0302	0.01044699	-0.05298262	0	0	0	0	0	0
33.04676	0.01044699	-0.05298262	0	0	0	0	0	0
33.06333	0.01044699	-0.05298262	0	0	0	0	0	0
33.0799	0.01044699	-0.05298262	0	0	0	0	0	0
33.09646	0.01044699	-0.05298262	0	0	0	0	0	0
33.11306	0.01044699	-0.05298262	0	0	0	0	0	0
33.12959	0.01044699	-0.05298262	0	0	0	0	0	0
33.14616	0.01044699	-0.05298262	0	0	0	0	0	0
33.16273	0.01044699	-0.05298262	0	0	0	0	0	0
33.1796	0.01044699	-0.05298262	0	0	0	0	0	0
33.19586	0.01044699	-0.05298262	0	0	0	0	0	0
33.21243	0.01044699	-0.05298262	0	0	0	0	0	0
33.22899	0.01044699	-0.05298262	0	0	0	0	0	0
33.24556	0.01044699	-0.05298262	0	0	0	0	0	0
33.26216	0.0104733	-0.05300177	0.001585007	-0.001153385	0.04778608	-0.0347732	0	0
33.27869	0.0104733	-0.05300177	0	0	-0.04784111	0.03481323	0	0
33.29526	0.0104733	-0.05300177	0	0	0	0	0	0
33.31182	0.0104733	-0.05300177	0	0	0	0	0	0
33.32839	0.0104733	-0.05300177	0	0	0	0	0	0
33.34496	0.0104733	-0.05300177	0	0	0	0	0	0
33.36173	0.0104733	-0.05300177	0	0	0	0	0	0
33.39466	0.0104733	-0.05300177	0	0	0	0	0	0
33.41122	0.0104733	-0.05300177	0	0	0	0	0	0
33.42779	0.0104733	-0.05300177	0	0	0	0	0	0
33.47749	0.0104733	-0.05300177	0	0	0	0	0	0
33.49433	0.0104733	-0.05300177	0	0	0	0	0	0
33.51063	0.0104733	-0.05300177	0	0	0	0	0	0
33.52719	0.0104733	-0.05300177	0	0	0	0	0	0
33.54376	0.0104733	-0.05300177	0	0	0	0	0	0
33.56128	0.0104733	-0.05300177	0	0	0	0	0	0
33.57785	0.0104733	-0.05300177	0	0	0	0	0	0
33.59441	0.0104733	-0.05300177	0	0	0	0	0	0
33.61098	0.0104733	-0.05300177	0	0	0	0	0	0
33.62755	0.0104733	-0.05300177	0	0	0	0	0	0
33.64412	0.0104733	-0.05300177	0	0	0	0	0	0
33.66068	0.0104733	-0.05300177	0	0	0	0	0	0
33.67725	0.0104733	-0.05300177	0	0	0	0	0	0
33.69382	0.0104733	-0.05300177	0	0	0	0	0	0
33.71038	0.0104733	-0.05300177	0	0	0	0	0	0
33.727	0.0104733	-0.05300177	0	0	0	0	0	0
33.74352	0.0104733	-0.05300177	0	0	0	0	0	0
33.76009	0.0104733	-0.05300177	0	0	0	0	0	0
33.77665	0.0104733	-0.05300177	0	0	0	0	0	0
33.79322	0.01044699	-0.05298262	-0.001588291	0.001155775	-0.04793473	0.03488136	0	0
33.81007	0.01044699	-0.05298262	0	0	0.04753523	-0.03459065	0	0
33.82657	0.01044699	-0.05298262	0	0	0	0	0	0
33.84292	0.01044699	-0.05298262	0	0	0	0	0	0
33.8596	0.01044699	-0.05298262	0	0	0	0	0	0
33.87611	0.01044699	-0.05298262	0	0	0	0	0	0
33.89262	0.01044699	-0.05298262	0	0	0	0	0	0
33.90919	0.01044699	-0.05298262	0	0	0	0	0	0
33.92614	0.01044699	-0.05298262	0	0	0	0	0	0
33.95889	0.01044699	-0.05298262	0	0	0	0	0	0
33.97545	0.01044699	-0.05298262	0	0	0	0	0	0
33.99202	0.01044699	-0.05298262	0	0	0	0	0	0
34.00859	0.01044699	-0.05298262	0	0	0	0	0	0
34.02521	0.01044699	-0.05298262	0	0	0	0	0	0
34.04173	0.01044699	-0.05298262	0	0	0	0	0	0
34.05829	0.01044699	-0.05298262	0	0	0	0	0	0
34.07486	0.01044699	-0.05298262	0	0	0	0	0	0
34.09177	0.01044699	-0.05298262	0	0	0	0	0	0
34.10799	0.01044699	-0.05298262	0	0	0	0	0	0
34.12456	0.01044699	-0.05298262	0	0	0	0	0	0
34.14112	0.01044699	-0.05298262	0	0	0	0	0	0
34.15781	0.0104733	-0.05300177	0.001577035	-0.001147584	0.04742574	-0.03451098	0	0
34.17432	0.0104733	-0.05300177	0	0	-0.04750203	0.03456649	0	0
34.19083	0.0104733	-0.05300177	0	0	0	0	0	0
34.2074	0.0104733	-0.05300177	0	0	0	0	0	0
34.22396	0.0104733	-0.05300177	0	0	0	0	0	0
34.25837	0.0104733	-0.05300177	0	0	0	0	0	0
34.27497	0.01044699	-0.05298262	-0.001584643	0.00115312	-0.03106525	0.0226057	0	0
34.2915	0.01044699	-0.05298262	0	0	0.04782461	-0.03480123	0	0
34.30807	0.01044699	-0.05298262	0	0	0	0	0	0
34.32464	0.01044699	-0.05298262	0	0	0	0	0	0
34.34145	0.01044699	-0.05298262	0	0	0	0	0	0
34.35796	0.01044699	-0.05298262	0	0	0	0	0	0
34.37447	0.01044699	-0.05298262	0	0	0	0	0	0
34.39098	0.01044699	-0.05298262	0	0	0	0	0	0
34.40747	0.01044699	-0.05298262	0	0	0	0	0	0
34.42404	0.01044699	-0.05298262	0	0	0	0	0	0
34.44061	0.01044699	-0.05298262	0	0	0	0	0	0
34.47374	0.01044699	-0.05298262	0	0	0	0	0	0
34.49055	0.01044699	-0.05298262	0	0	0	0	0	0
34.50706	0.01044699	-0.05298262	0	0	0	0	0	0
34.52357	0.01044699	-0.05298262	0	0	0	0	0	0
34.54009	0.01044699	-0.05298262	0	0	0	0	0	0
34.5566	0.01044699	-0.05298262	0	0	0	0	0	0
34.57314	0.01044699	-0.05298262	0	0	0	0	0	0
34.5897	0.01042068	-0.05300177	-0.001588601	-0.001156041	-0.0479938	-0.03492558	0	0
34.60627	0.01042068	-0.05300177	0	0	0.04794959	0.03489341	0	0
34.62314	0.01036805	-0.05304006	-0.003119072	-0.00226952	-0.09327469	-0.06786915	0	0
34.63966	0.01031542	-0.05307836	-0.003186743	-0.002319026	-0.002026922	-0.001482829	0	0
34.65597	0.00994704	-0.05330813	-0.02257881	-0.01408332	-0.5906942	-0.3583477	0	0
34.67254	0.009631281	-0.05353793	-0.01905927	-0.01387043	0.1070333	0.006474485	0	0
34.68911	0.008315598	-0.05441897	-0.07941479	-0.05318005	-1.821533	-1.186367	0	0
34.70567	0.007631431	-0.0544956	-0.04129639	-0.004625124	1.150416	1.46539	0	0
34.72224	0.003236831	-0.05225514	-0.2652586	0.1352345	-6.759192	4.220971	0	0
34.73881	-0.01121006	-0.04386385	-0.8720159	0.5064991	-18.31197	11.20479	0	0
34.75574	-0.01563031	-0.04104025	-0.2609779	0.1667098	18.2375	-10.14161	0	0
34.77194	-0.02880782	-0.03153956	-0.8135669	0.5865631	-16.67717	12.6712	0	0
34.78876	-0.04738555	-0.01812867	-1.104318	0.797185	-8.805298	6.378612	0	0
34.80507	-0.07459816	0.001233606	-1.668683	1.187299	-17.03453	11.77502	0	0
34.82179	-0.08699043	0.009953004	-0.7413419	0.5216198	28.08097	-20.15754	0	0
34.8383	-0.09495047	0.01555999	-0.482134	0.3396112	7.801357	-5.477895	0	0
34.85481	-0.1122628	0.02784892	-1.048598	0.7443323	-17.15518	12.25684	0	0
34.87134	-0.1183133	0.03219699	-0.3660471	0.2630555	20.6589	-14.56689	0	0
34.88791	-0.1262461	0.03789949	-0.4788241	0.3442035	-3.407541	2.451876	0	0
34.90447	-0.1353257	0.04439267	-0.5480506	0.3919294	-2.089258	1.44037	0	0
34.92136	-0.142037	0.04907425	-0.3974993	0.2772815	4.50064	-3.42733	0	0
34.93787	-0.150511	0.05458454	-0.5131409	0.3336774	-3.462563	1.688615	0	0
34.95417	-0.1566019	0.05719782	-0.3736708	0.1603219	4.250319	-5.282967	0	0
34.97089	-0.1672134	0.05564118	-0.6346672	-0.09310141	-7.904186	-7.674839	0	0
34.9873	-0.1850429	0.05143146	-1.086193	-0.2564612	-13.62709	-4.930209	0	0
35.00391	-0.1952945	0.04994677	-0.6172252	-0.08938956	14.2009	5.059124	0	0
35.02044	-0.2059334	0.0496312	-0.6439441	-0.01910058	-0.8064713	2.12157	0	0
35.037	-0.2448796	0.05130157	-2.350798	0.1008236	-51.58422	3.624326	0	0
35.05562	-0.2601765	0.05285994	-0.8217189	0.08371222	43.46079	-0.4863546	0	0
35.07219	-0.268831	0.05421372	-0.522387	0.08171465	8.50787	-0.05677679	0	0
35.08898	-0.283592	0.05747573	-0.879034	0.1942561	-10.69101	3.373592	0	0
35.10532	-0.2912395	0.06040183	-0.4679622	0.1790522	12.40617	-0.458854	0	0
35.12199	-0.2940863	0.06277077	-0.1707311	0.1420736	9.002582	-1.120012	0	0
35.13851	-0.2939658	0.06286328	0.007298164	0.005601756	5.364287	-4.112102	0	0
