Time	Pos X	Pos Y	Vel X	Vel Y	Acc X	Acc YForce X	Force Y
0.01654029	-0.03887514	-0.01041524	0.0006085187	0.0001630314	-9.527715E-06	-2.552619E-06	0	0
0.04188956	-0.03879631	-0.01047189	0.003109641	-0.002234724	-3.916601E-05	3.754734E-05	0	0
0.05845669	-0.03871748	-0.01052854	0.00475827	-0.003419451	0.03933134	-0.02826405	0	0
0.07502342	-0.03795545	-0.01107621	0.04599785	-0.03305824	1.244635	-0.8945164	0	0
0.09158976	-0.03566908	-0.01271977	0.138013	-0.09921078	2.777139	-1.996571	0	0
0.1140549	-0.02638861	-0.01939712	0.4131044	-0.297231	7.047929	-5.073341	0	0
0.1306225	-0.02331157	-0.02161339	0.1857274	-0.133772	-5.825295	4.187744	0	0
0.14719	-0.01513042	-0.02751213	0.4938059	-0.3560421	9.29766	-6.708004	0	0
0.1637567	-0.01170999	-0.02998116	0.2064639	-0.1490354	-8.672049	6.247511	0	0
0.1803247	-0.006210446	-0.03395475	0.3319394	-0.2398369	3.786838	-2.740378	0	0
0.1968894	-0.002421048	-0.03669556	0.2287627	-0.16546	-3.114048	2.244821	0	0
0.2134565	0.002342101	-0.04018224	0.287506	-0.2104581	1.773015	-1.358151	0	0
0.2300229	0.004973643	-0.0420511	0.1588488	-0.1128102	-3.883002	2.947108	0	0
0.2465892	0.01055224	-0.04613613	0.3367429	-0.2465862	5.369147	-4.037587	0	0
0.2631911	0.01405171	-0.04867779	0.2107876	-0.1530954	-3.797472	2.818689	0	0
0.2797227	0.0164985	-0.05045636	0.1480071	-0.1075855	-1.894778	1.373533	0	0
0.3128554	0.01828744	-0.05171921	0.05399301	-0.0381152	-1.892991	1.398797	0	0
0.3294225	0.01826113	-0.05170008	-0.001587963	0.001155107	-1.118334	0.7901501	0	0
0.3459892	0.01818221	-0.05164266	-0.004763783	0.003465632	-0.09584817	0.06973305	0	0
0.3625556	0.01810328	-0.05158525	-0.004764007	0.003465713	-6.760109E-06	2.445445E-06	0	0
0.3791223	0.01810328	-0.05158525	0	0	0.1437841	-0.1045999	0	0
0.3956894	0.01810328	-0.05158525	0	0	0	0	0	0
0.4122558	0.01812959	-0.05160439	0.00158804	-0.001155163	0.04792856	-0.03486392	0	0
0.4288261	0.01812959	-0.05160439	0	0	-0.04792399	0.03486059	0	0
0.445392	0.01812959	-0.05160439	0	0	0	0	0	0
0.4619568	0.01810328	-0.05158525	-0.001588191	0.001155273	-0.04793714	0.03487016	0	0
0.4785247	0.01802436	-0.05152784	-0.00476344	0.003465158	-0.09583438	0.06971623	0	0
0.495091	0.01797175	-0.05148957	-0.003176079	0.002310326	0.04790695	-0.03485313	0	0
0.5118646	0.01794544	-0.05147043	-0.001568308	0.00114089	0.04822362	-0.03507613	0	0
0.5283788	0.01794544	-0.05147043	0	0	0.04711356	-0.0342735	0	0
0.54479	0.01794544	-0.05147043	0	0	0	0	0	0
0.5613571	0.01794544	-0.05147043	0	0	0	0	0	0
0.5779227	0.01791913	-0.05145129	-0.001588114	0.001155217	-0.04793197	0.0348664	0	0
0.5944898	0.01773498	-0.05131734	-0.01111553	0.008085537	-0.2875536	0.2091687	0	0
0.6110566	0.01760344	-0.05122166	-0.007939886	0.005775219	0.09584294	-0.06972677	0	0
0.6276245	0.01752452	-0.05116425	-0.004763544	0.003464927	0.09586151	-0.06972425	0	0
0.660762	0.01728775	-0.05099205	-0.007145094	0.005196698	-0.04791332	0.03484071	0	0
0.6774901	0.01613018	-0.05015029	-0.06919902	0.05031988	-1.244423	0.904896	0	0
0.6940067	0.0128414	-0.04772202	-0.1991193	0.1470196	-3.90799	2.908717	0	0
0.7104574	0.009368147	-0.04520027	-0.211131	0.1532913	-0.36435	0.1902409	0	0
0.7270234	0.004631546	-0.04176497	-0.2859244	0.2073717	-2.265327	1.637974	0	0
0.7435901	0.0005	-0.03877184	-0.2493878	0.1806708	1.102738	-0.8058764	0	0
0.7601569	-0.005868354	-0.03416403	-0.3844057	0.2781358	-4.074965	2.941584	0	0
0.7835402	-0.00923658	-0.03172966	-0.1440436	0.1041068	6.016553	-4.356156	0	0
0.8001097	-0.01210467	-0.02965817	-0.1730947	0.1250186	-0.7271355	0.5234099	0	0
0.8166753	-0.0135518	-0.02861345	-0.08735774	0.0630658	2.587502	-1.869704	0	0
0.8336024	-0.01360442	-0.02857547	-0.003108714	0.002243917	2.515445	-1.815975	0	0
0.849808	-0.01357811	-0.02859446	0.001623567	-0.001171915	0.1428282	-0.1030956	0	0
0.8663743	-0.0135518	-0.02861345	0.001588208	-0.001146393	-0.001078931	0.0007787868	0	0
0.8829414	-0.01352549	-0.02863244	0.00158819	-0.001146339	-5.44597E-07	1.619737E-06	0	0
0.8995078	-0.01347287	-0.02867042	0.003176417	-0.002292786	0.04793423	-0.03460088	0	0
0.9160741	-0.01334131	-0.02880337	0.007941155	-0.0080252	0.1438078	-0.1730139	0	0
0.932642	-0.01334131	-0.02880337	0	0	-0.2396658	0.2422023	0	0
0.9492084	-0.01334131	-0.02880337	0	0	0	0	0	0
0.9657743	-0.013315	-0.02882237	0.001588248	-0.001146534	0.04793662	-0.03460477	0	0
0.9823406	-0.013315	-0.02882237	0	0	-0.04793662	0.03460477	0	0
0.9989077	-0.013315	-0.02882237	0	0	0	0	0	0
1.015719	-0.01328869	-0.02884136	0.001565087	-0.001129704	0.04688952	-0.03384557	0	0
1.032041	-0.01326238	-0.02886035	0.001612004	-0.001163642	0.001415984	-0.001024281	0	0
1.048608	-0.01323607	-0.02887934	0.001588203	-0.001146501	-0.000723678	0.000521163	0	0
1.065252	-0.01318345	-0.02891733	0.00316156	-0.002282246	0.04737477	-0.03419797	0	0
1.081742	-0.01310451	-0.02897431	0.004786709	-0.00345553	0.0490469	-0.03540967	0	0
1.098308	-0.0130782	-0.02899331	0.001588305	-0.001146534	-0.09675709	0.06985099	0	0
1.114875	-0.0130782	-0.02899331	0	0	-0.04793772	0.03460434	0	0
1.131441	-0.0130782	-0.02899331	0	0	0	0	0	0
1.14801	-0.01305189	-0.0290123	0.00158802	-0.001146482	0.04792619	-0.03460063	0	0
1.164824	-0.01305189	-0.0290123	0	0	-0.04756987	0.03434339	0	0
1.181141	-0.01299927	-0.02905029	0.003225091	-0.002328179	0.09734219	-0.07027091	0	0
1.197845	-0.01281509	-0.02918325	0.011026	-0.007959914	0.2362412	-0.1705502	0	0
1.214275	-0.01247304	-0.0294302	0.02081848	-0.01503016	0.2955397	-0.213382	0	0
1.230841	-0.01207836	-0.02971517	0.0238252	-0.01720221	0.0911244	-0.06582819	0	0
1.24741	-0.01086799	-0.03058922	0.07304788	-0.05275089	1.485517	-1.072842	0	0
1.263975	-0.01081537	-0.03062723	0.00317695	-0.00229447	-2.108724	1.522789	0	0
1.280541	-0.01081537	-0.03062723	0	0	-0.09589021	0.06925423	0	0
1.297108	-0.01081537	-0.03062723	0	0	0	0	0	0
1.31393	-0.01081537	-0.03062723	0	0	0	0	0	0
1.330241	-0.01081537	-0.03062723	0	0	0	0	0	0
1.346956	-0.01081537	-0.03062723	0	0	0	0	0	0
1.363375	-0.01081537	-0.03062723	0	0	0	0	0	0
1.379977	-0.01081537	-0.03062723	0	0	0	0	0	0
1.396508	-0.01081537	-0.03062723	0	0	0	0	0	0
1.413078	-0.01081537	-0.03062723	0	0	0	0	0	0
1.529081	-0.01081537	-0.03062723	0	0	0	0	0	0
1.545608	-0.01081537	-0.03062723	0	0	0	0	0	0
1.562174	-0.01081537	-0.03062723	0	0	0	0	0	0
1.579117	-0.01081537	-0.03062723	0	0	0	0	0	0
1.595627	-0.01081537	-0.03062723	0	0	0	0	0	0
1.612143	-0.01081537	-0.03062723	0	0	0	0	0	0
1.635032	-0.01081537	-0.03062723	0	0	0	0	0	0
1.651601	-0.01081537	-0.03062723	0	0	0	0	0	0
1.668169	-0.01081537	-0.03062723	0	0	0	0	0	0
1.684735	-0.01081537	-0.03062723	0	0	0	0	0	0
1.7013	-0.01081537	-0.03062723	0	0	0	0	0	0
1.717866	-0.01081537	-0.03062723	0	0	0	0	0	0
1.734433	-0.01081537	-0.03062723	0	0	0	0	0	0
1.751	-0.01081537	-0.03062723	0	0	0	0	0	0
1.767566	-0.01081537	-0.03062723	0	0	0	0	0	0
1.784133	-0.01081537	-0.03062723	0	0	0	0	0	0
1.800772	-0.01081537	-0.03062723	0	0	0	0	0	0
1.817266	-0.01081537	-0.03062723	0	0	0	0	0	0
1.833833	-0.01081537	-0.03062723	0	0	0	0	0	0
1.850399	-0.01081537	-0.03062723	0	0	0	0	0	0
1.866968	-0.01081537	-0.03062723	0	0	0	0	0	0
1.883533	-0.01081537	-0.03062723	0	0	0	0	0	0
1.9001	-0.01081537	-0.03062723	0	0	0	0	0	0
1.916666	-0.01081537	-0.03062723	0	0	0	0	0	0
1.933233	-0.01081537	-0.03062723	0	0	0	0	0	0
1.9498	-0.01081537	-0.03062723	0	0	0	0	0	0
1.966367	-0.01081537	-0.03062723	0	0	0	0	0	0
1.982933	-0.01081537	-0.03062723	0	0	0	0	0	0
1.99992	-0.01081537	-0.03062723	0	0	0	0	0	0
2.016067	-0.01081537	-0.03062723	0	0	0	0	0	0
2.032633	-0.01081537	-0.03062723	0	0	0	0	0	0
2.0492	-0.01081537	-0.03062723	0	0	0	0	0	0
2.065768	-0.01081537	-0.03062723	0	0	0	0	0	0
2.082334	-0.01081537	-0.03062723	0	0	0	0	0	0
2.098983	-0.01081537	-0.03062723	0	0	0	0	0	0
2.115496	-0.01081537	-0.03062723	0	0	0	0	0	0
2.132034	-0.01081537	-0.03062723	0	0	0	0	0	0
2.1486	-0.01081537	-0.03062723	0	0	0	0	0	0
2.165168	-0.01081537	-0.03062723	0	0	0	0	0	0
2.181735	-0.01081537	-0.03062723	0	0	0	0	0	0
2.198553	-0.01081537	-0.03062723	0	0	0	0	0	0
2.214867	-0.01081537	-0.03062723	0	0	0	0	0	0
2.231577	-0.01081537	-0.03062723	0	0	0	0	0	0
2.281135	-0.01081537	-0.03062723	0	0	0	0	0	0
2.2977	-0.01081537	-0.03062723	0	0	0	0	0	0
2.314266	-0.01081537	-0.03062723	0	0	0	0	0	0
2.335422	-0.01081537	-0.03062723	0	0	0	0	0	0
2.35199	-0.01081537	-0.03062723	0	0	0	0	0	0
2.368675	-0.01081537	-0.03062723	0	0	0	0	0	0
2.385187	-0.01081537	-0.03062723	0	0	0	0	0	0
2.40169	-0.01081537	-0.03062723	0	0	0	0	0	0
2.418257	-0.01081537	-0.03062723	0	0	0	0	0	0
2.434823	-0.01081537	-0.03062723	0	0	0	0	0	0
2.451733	-0.01081537	-0.03062723	0	0	0	0	0	0
2.468246	-0.01081537	-0.03062723	0	0	0	0	0	0
2.484524	-0.01081537	-0.03062723	0	0	0	0	0	0
2.501267	-0.01081537	-0.03062723	0	0	0	0	0	0
2.517656	-0.01081537	-0.03062723	0	0	0	0	0	0
2.534292	-0.01081537	-0.03062723	0	0	0	0	0	0
2.55079	-0.01081537	-0.03062723	0	0	0	0	0	0
2.567357	-0.01081537	-0.03062723	0	0	0	0	0	0
2.583923	-0.01081537	-0.03062723	0	0	0	0	0	0
2.60049	-0.01084168	-0.03064623	-0.001588281	-0.001147151	-0.04793648	-0.03462258	0	0
2.617352	-0.01084168	-0.03064623	0	0	0.04751254	0.03431638	0	0
2.633623	-0.01084168	-0.03064623	0	0	0	0	0	0
2.650373	-0.01084168	-0.03064623	0	0	0	0	0	0
2.666759	-0.01084168	-0.03064623	0	0	0	0	0	0
2.683397	-0.01084168	-0.03064623	0	0	0	0	0	0
2.699889	-0.01084168	-0.03064623	0	0	0	0	0	0
2.716457	-0.01084168	-0.03064623	0	0	0	0	0	0
2.733023	-0.01084168	-0.03064623	0	0	0	0	0	0
2.749589	-0.01084168	-0.03064623	0	0	0	0	0	0
2.766455	-0.01084168	-0.03064623	0	0	0	0	0	0
2.782733	-0.01084168	-0.03064623	0	0	0	0	0	0
2.79929	-0.01084168	-0.03064623	0	0	0	0	0	0
2.815859	-0.01084168	-0.03064623	0	0	0	0	0	0
2.832502	-0.01081537	-0.03062723	0.001581045	0.001141925	0.04760506	0.03438321	0	0
2.849013	-0.01081537	-0.03062723	0	0	-0.04768893	-0.03444379	0	0
2.865556	-0.01081537	-0.03062723	0	0	0	0	0	0
2.898691	-0.01084168	-0.03064623	-0.0007941233	-0.0005735632	-0.01598538	-0.0115456	0	0
2.915257	-0.01084168	-0.03064623	0	0	0.01597825	0.01154045	0	0
2.931823	-0.01084168	-0.03064623	0	0	0	0	0	0
2.94839	-0.01084168	-0.03064623	0	0	0	0	0	0
2.970446	-0.01084168	-0.03064623	0	0	0	0	0	0
2.987015	-0.01084168	-0.03064623	0	0	0	0	0	0
3.003583	-0.01084168	-0.03064623	0	0	0	0	0	0
3.020147	-0.01084168	-0.03064623	0	0	0	0	0	0
3.036713	-0.01084168	-0.03064623	0	0	0	0	0	0
3.05328	-0.01084168	-0.03064623	0	0	0	0	0	0
3.069846	-0.01084168	-0.03064623	0	0	0	0	0	0
3.086414	-0.01084168	-0.03064623	0	0	0	0	0	0
3.102981	-0.01084168	-0.03064623	0	0	0	0	0	0
3.119547	-0.01081537	-0.03062723	0.001588349	0.001147201	0.04793958	0.03462483	0	0
3.136114	-0.01081537	-0.03062723	0	0	-0.0479382	-0.03462383	0	0
3.152681	-0.01081537	-0.03062723	0	0	0	0	0	0
3.169247	-0.01078906	-0.03064623	0.001588349	-0.001147201	0.04793889	-0.03462433	0	0
3.185815	-0.01078906	-0.03064623	0	0	-0.04793717	0.03462308	0	0
3.202382	-0.01073643	-0.03060823	0.003176526	0.002294124	0.09586569	0.0692353	0	0
3.218947	-0.01060487	-0.03051321	0.007942204	0.005736108	0.1438378	0.103886	0	0
3.235514	-0.009657594	-0.02975316	0.05717906	0.04587761	1.486089	1.211569	0	0
3.25208	-0.008762933	-0.02910727	0.0540034	0.03898706	-0.0958444	-0.2079632	0	0
3.334914	0.07423177	0.03068602	1.001943	0.7218468	9.536564	6.869781	0	0
3.351481	0.0987827	0.04814582	1.481939	1.053906	4.828913	3.340621	0	0
3.36838	0.1169377	0.06108674	1.074319	0.7657751	-12.18018	-8.609704	0	0
3.384614	0.1343438	0.0734324	1.072234	0.7605078	-0.06293175	-0.158979	0	0
3.40118	0.155472	0.08842736	1.275335	0.9051239	6.192068	4.409002	0	0
3.417747	0.1694386	0.09836499	0.8430538	0.5998533	-13.04665	-9.21335	0	0
3.434314	0.1845852	0.1091782	0.914275	0.6527034	2.149521	1.595066	0	0
3.450881	0.1938505	0.1157091	0.5592585	0.3942088	-10.71457	-7.801495	0	0
3.467447	0.1996718	0.1198025	0.3513998	0.247096	-6.273412	-4.440034	0	0
3.484014	0.2094106	0.1266661	0.5878477	0.4142961	7.136371	5.046365	0	0
3.500976	0.2135362	0.1296204	0.2432302	0.1741756	-10.27833	-7.16167	0	0
3.517148	0.2212393	0.1351416	0.4762969	0.3413858	7.033917	5.046377	0	0
3.533715	0.2218404	0.1355787	0.03628406	0.02638415	-13.44005	-9.621625	0	0
3.550281	0.2218153	0.1355605	-0.001511096	-0.001099142	-1.140717	-0.8294892	0	0
3.567022	0.2217652	0.1355969	-0.002992552	0.00217543	-0.04447807	0.0983132	0	0
3.583414	0.2217152	0.1355969	-0.003055366	0	-0.001895846	-0.06565839	0	0
3.600047	0.22164	0.1355787	-0.004516885	-0.001094731	-0.04425459	-0.03314829	0	0
3.616549	0.22164	0.1355787	0	0	0.1363169	0.03303833	0	0
3.649681	0.2215399	0.1355058	-0.00302365	-0.002198364	-0.06091894	-0.0442915	0	0
3.66625	0.2214397	0.135433	-0.006046211	-0.004396836	-0.06081435	-0.04423356	0	0
3.683105	0.2212643	0.1353055	-0.01040208	-0.0075633	-0.130321	-0.09473585	0	0
3.699382	0.221089	0.135178	-0.01077296	-0.007832298	-0.01119424	-0.008119197	0	0
3.715948	0.2210138	0.1351598	-0.004537016	-0.001099174	0.1898747	0.2050132	0	0
3.732514	0.2209888	0.1351416	-0.001512039	-0.001100073	0.09129924	-2.714977E-05	0	0
3.749081	0.2209387	0.1351416	-0.00302399	0	-0.04563276	0.03320172	0	0
3.765648	0.2209136	0.1351234	-0.001511995	-0.001099142	0.04563342	-0.03317313	0	0
3.782214	0.2208635	0.135087	-0.003024977	-0.002198348	-0.04566385	-0.03317552	0	0
3.798781	0.2208385	0.1350687	-0.001511995	-0.001099142	0.04566385	0.03317552	0	0
3.815349	0.2206882	0.1349959	-0.009072856	-0.004397026	-0.2281823	-0.09952817	0	0
3.831915	0.2204627	0.1350505	-0.01361343	0.003297664	-0.1370369	0.2322295	0	0
3.85418	0.2195353	0.1356879	-0.04164815	0.02862787	-0.7219675	0.6523194	0	0
3.870748	0.2183067	0.1365802	-0.07416012	0.05385475	-0.8372275	0.6496263	0	0
3.887314	0.21243	0.1402932	-0.3547354	0.2241316	-8.467962	5.139077	0	0
3.903882	0.2045209	0.14364	-0.4773628	0.2020015	-3.700876	-0.6678848	0	0
3.920448	0.1898438	0.1482205	-0.8859985	0.2765045	-12.33283	2.24854	0	0
3.937283	0.1738329	0.1503459	-0.9510262	0.1262445	-1.946879	-4.498669	0	0
3.953805	0.1465213	0.1529062	-1.653072	0.154967	-21.04634	0.861062	0	0
3.970147	0.125469	0.1565903	-1.288202	0.225434	11.10239	2.144194	0	0
3.986715	0.1129904	0.1602722	-0.7531798	0.2222275	16.25696	-0.09743156	0	0
4.003333	0.09236799	0.1704537	-1.240983	0.6126883	-14.6992	11.76593	0	0
4.019849	0.08045752	0.1790283	-0.7211595	0.5191771	15.68876	-2.822254	0	0
4.036416	0.06585202	0.1891084	-0.8816151	0.6084535	-4.850169	2.698599	0	0
4.053372	0.05696462	0.1953696	-0.5241197	0.3692432	10.66401	-7.135589	0	0
4.069551	0.05205819	0.1989579	-0.3032757	0.2217997	6.664988	-4.44979	0	0
4.119247	0.04244817	0.2064176	-0.1933725	0.1501045	1.66836	-1.088351	0	0
4.202082	0.04294726	0.2066878	0.006025145	0.003261429	1.504534	-1.107989	0	0
4.21865	0.04315739	0.2065797	0.01268275	-0.006522146	0.06697596	-0.09842344	0	0
4.235216	0.04347259	0.2063636	0.01902696	-0.01304654	0.1914686	-0.1969067	0	0
4.251781	0.04360392	0.2062735	0.007928319	-0.005436073	-0.3349962	0.2297109	0	0
4.268348	0.04368272	0.2062195	0.004756354	-0.003261448	-0.09573837	0.06563597	0	0
4.284914	0.04386658	0.2060934	0.01109801	-0.007610346	0.191397	-0.1312538	0	0
4.301539	0.04433934	0.2057692	0.02843692	-0.01950021	0.5223872	-0.3582183	0	0
4.318055	0.04562621	0.2048866	0.07791996	-0.05344305	1.493143	-1.02422	0	0
4.335066	0.04675537	0.204112	0.06637603	-0.04553481	-0.3443184	0.2358774	0	0
4.351576	0.04751684	0.2035535	0.0461227	-0.03382867	-0.6041951	0.3492164	0	0
4.368087	0.04751684	0.2035535	0	0	-1.39679	1.024475	0	0
4.384314	0.04749058	0.2035715	-0.00161801	0.001110201	-0.04942268	0.03391148	0	0
4.400881	0.04749058	0.2035715	0	0	0.0493386	-0.03385378	0	0
4.417623	0.04749058	0.2035715	0	0	0	0	0	0
4.434014	0.04749058	0.2035715	0	0	0	0	0	0
4.45058	0.04746433	0.2035535	-0.001584943	-0.001087512	-0.04809112	-0.03299782	0	0
4.467157	0.04749058	0.2035355	0.001583894	-0.001086792	0.0956123	2.171115E-05	0	0
4.483715	0.04749058	0.2035355	0	0	-0.04780202	0.03279946	0	0
4.500281	0.04749058	0.2035355	0	0	0	0	0	0
4.51685	0.04749058	0.2035355	0	0	0	0	0	0
4.533704	0.04746433	0.2035535	-0.001557814	0.001068897	-0.04660979	0.0319814	0	0
4.550217	0.04746433	0.2035535	0	0	0.04668705	-0.03203442	0	0
4.566728	0.04746433	0.2035535	0	0	0	0	0	0
4.583239	0.04746433	0.2035535	0	0	0	0	0	0
4.599681	0.04749058	0.2035355	0.001596894	-0.001095712	0.04845936	-0.03325049	0	0
4.620655	0.04759561	0.2033553	0.005007275	-0.008590091	0.09114771	-0.2002989	0	0
4.637222	0.04827825	0.2027427	0.04120428	-0.03697671	0.9641893	-0.756142	0	0
4.653793	0.0529767	0.1991201	0.283534	-0.2186088	7.312685	-5.481037	0	0
4.670809	0.06388663	0.1905704	0.6411594	-0.5024529	10.64774	-8.451015	0	0
4.686924	0.07451965	0.182661	0.6598332	-0.4908196	0.5636406	0.3511334	0	0
4.703825	0.07833935	0.1800225	0.2260103	-0.1561195	-13.14007	10.13774	0	0
4.720056	0.1005805	0.1646403	1.370244	-0.9476718	34.53551	-23.89082	0	0
4.736623	0.1066465	0.1604172	0.3661424	-0.2549064	-30.61399	21.12169	0	0
4.75336	0.1162887	0.1537231	0.5761058	-0.3999617	6.30441	-4.355464	0	0
4.769871	0.1213223	0.1502006	0.3048599	-0.2133431	-8.158275	5.612936	0	0
4.786383	0.1255467	0.1473847	0.2558498	-0.1705434	-1.484145	1.296081	0	0
4.802891	0.1254431	0.14753	-0.006276899	0.008806071	-7.938419	5.431537	0	0
4.819457	0.1255467	0.1476027	0.006255397	0.004387953	0.378918	-0.1335832	0	0
4.836024	0.1255467	0.1476027	0	0	-0.1887964	-0.1324344	0	0
4.935424	0.1258575	0.1479298	0.003126994	0.003290397	0.02696434	0.02837338	0	0
4.952001	0.1258575	0.1479298	0	0	-0.02696223	-0.02837116	0	0
4.969013	0.1258575	0.1479298	0	0	0	0	0	0
4.985123	0.1258575	0.1479298	0	0	0	0	0	0
5.002035	0.1258316	0.147948	-0.001531353	0.001074062	-0.04637315	0.03252525	0	0
5.018256	0.1258316	0.147948	0	0	0.04621832	-0.03241665	0	0
5.034823	0.1258057	0.1479661	-0.001564164	0.001097343	-0.04770567	0.03346804	0	0
5.05139	0.1258057	0.1479661	0	0	0.04720792	-0.03311884	0	0
5.067956	0.1258057	0.1479661	0	0	0	0	0	0
5.084523	0.1258057	0.1479661	0	0	0	0	0	0
5.10109	0.1258057	0.1479661	0	0	0	0	0	0
5.117656	0.1257539	0.1480025	-0.003126709	0.002193914	-0.09436834	0.0662153	0	0
5.134223	0.125728	0.1480206	-0.001563265	0.001096444	0.04718757	-0.03312361	0	0
5.15079	0.1257021	0.1480388	-0.00156322	0.001096412	1.3562E-06	-9.521509E-07	0	0
5.167358	0.1256762	0.148057	-0.001564074	0.00109728	-2.578463E-05	2.619218E-05	0	0
5.18417	0.1256762	0.148057	0	0	0.04685657	-0.03287235	0	0
5.200491	0.1256244	0.1480933	-0.003173664	0.002225947	-0.09578551	0.06718212	0	0
5.217056	0.1255208	0.148166	-0.006255397	0.004387953	-0.0937095	0.06574239	0	0
5.234101	0.1254949	0.1481842	-0.001519401	0.001065679	0.1409089	-0.09884679	0	0
5.25071	0.125469	0.1482023	-0.00155927	0.001093642	-0.001184679	0.0008309111	0	0
5.267237	0.1254431	0.1482205	-0.001567955	0.001099101	-0.0002620934	0.0001647442	0	0
5.318366	0.1253136	0.1483113	-0.002533225	0.001776929	-0.01426741	0.01001881	0	0
5.334934	0.1252359	0.1483659	-0.004690288	0.003289947	-0.03186348	0.02234983	0	0
5.351501	0.1250545	0.148493	-0.01094645	0.007676906	-0.1888086	0.1323968	0	0
5.368068	0.1248732	0.1486202	-0.01094645	0.007676007	0	-2.713845E-05	0	0
5.384813	0.1248214	0.1486565	-0.003094121	0.002170423	0.2357218	-0.1652741	0	0
5.401201	0.1248214	0.1486565	0	0	0.09338479	-0.06550632	0	0
5.422756	0.1247436	0.1486747	-0.003605876	0.0008427075	-0.0950343	0.0222099	0	0
5.45589	0.1246918	0.148711	-0.001563917	0.001096428	0.0373377	0.004639341	0	0
5.472458	0.1246659	0.1487292	-0.001563579	0.001096349	6.787865E-06	-1.588051E-06	0	0
5.489023	0.1245364	0.14882	-0.007820821	0.00548375	-0.1888521	0.1324177	0	0
5.505589	0.1244068	0.1488746	-0.007819921	0.003290231	2.718218E-05	-0.06620625	0	0
5.522156	0.124355	0.1489109	-0.003127878	0.002192888	0.1416102	-0.03311884	0	0
5.538723	0.1243032	0.1489109	-0.003128418	0	-1.628892E-05	-0.06618434	0	0
5.55529	0.1241477	0.1489836	-0.009383994	0.004386423	-0.1887964	0.1323844	0	0
5.572442	0.1236035	0.149365	-0.03172871	0.02224224	-0.6626731	0.5295467	0	0
5.58845	0.1218927	0.1504912	-0.1068692	0.07034694	-2.266016	1.450696	0	0
5.60499	0.1208036	0.1511813	-0.06584609	0.04172433	1.26039	-0.8793984	0	0
5.621556	0.1207258	0.1511268	-0.00469654	-0.003288432	1.847065	-1.359642	0	0
5.654692	0.1122628	0.1449491	-0.2554063	-0.1864374	-5.044243	-3.684928	0	0
5.671258	0.09541987	0.1323362	-1.016673	-0.7613422	-15.31656	-11.567	0	0
5.687823	0.07917624	0.1202226	-0.9806368	-0.7313007	1.08768	0.9067479	0	0
5.70439	0.06189452	0.1066878	-1.043126	-0.8169608	-1.886102	-2.58545	0	0
5.720956	0.03984732	0.08759976	-1.330849	-1.152225	-8.683727	-10.11859	0	0
5.737523	0.0224173	0.07465018	-1.052108	-0.7816606	8.412762	11.18415	0	0
5.75409	-0.0001578947	0.05879088	-1.362641	-0.9572691	-9.372037	-5.299952	0	0
5.770656	-0.0158934	0.0477001	-0.9498789	-0.6694992	12.45773	8.68529	0	0
5.787223	-0.03004359	0.03769465	-0.8541318	-0.6039474	2.889818	1.97847	0	0
5.80379	-0.04520602	0.02693386	-0.9152326	-0.6495413	-1.844078	-1.376065	0	0
5.853489	-0.06315275	0.01406068	-0.3611028	-0.2590187	8.362136	5.893209	0	0
5.870056	-0.06553759	0.01231692	-0.143953	-0.1052565	3.276915	2.32036	0	0
5.886625	-0.06553759	0.0122419	0	-0.004527819	4.344386	3.039911	0	0
5.90319	-0.06548518	0.01220439	0.00316368	-0.002264422	0.09548143	0.06831044	0	0
5.919757	-0.06543277	0.01216688	0.003163407	-0.002264226	-8.24308E-06	5.902973E-06	0	0
5.936323	-0.06538036	0.01216688	0.003163589	0	5.495308E-06	0.06833842	0	0
5.952889	-0.06535416	0.01214813	0.001581704	-0.001132141	-0.04774415	-0.03417006	0	0
5.969457	-0.06532796	0.01216688	0.001581658	0.001132109	-1.373768E-06	0.06833619	0	0
5.986024	-0.06530175	0.01218564	0.001581613	0.001132076	-1.373728E-06	-9.837438E-07	0	0
6.00259	-0.06527555	0.01216688	0.00158184	-0.001132239	6.869035E-06	-0.06834012	0	0
6.019256	-0.06517074	0.01212937	0.006288982	-0.002250743	0.141646	-0.03365771	0	0
6.035723	-0.06509212	0.0120731	0.004773828	-0.003416979	-0.04572876	-0.03519808	0	0
6.05229	-0.06218288	0.01010314	0.1756071	-0.1189104	5.171461	-3.496215	0	0
6.068857	-0.05578417	0.005558528	0.3862383	-0.2743213	6.357047	-4.690446	0	0
6.085424	-0.05379017	0.004130038	0.1203582	-0.08622386	-8.024393	5.676875	0	0
6.10199	-0.04194906	-0.004171009	0.7147718	-0.501081	17.93995	-12.52078	0	0
6.118557	-0.03424976	-0.009660014	0.464744	-0.3313265	-7.546179	5.123423	0	0
6.135124	-0.02867635	-0.01362692	0.3364215	-0.2394495	-3.872893	2.772932	0	0
6.15169	-0.02344307	-0.0173527	0.3158993	-0.2249019	-0.6193891	0.4390687	0	0
6.168258	-0.01684051	-0.0220682	0.3985198	-0.2846197	2.493528	-1.802315	0	0
6.20899	-0.006526223	-0.02950619	0.2532239	-0.1826085	-2.535722	1.780313	0	0
6.225902	-0.003499986	-0.03169164	0.1789404	-0.1292252	-1.288661	0.9260871	0	0
6.242124	-0.0009999997	-0.03349819	0.1541063	-0.1113609	-0.749495	0.5391457	0	0
6.258924	-0.0002894737	-0.03401183	0.0422922	-0.03057281	-3.385958	2.446428	0	0
6.275259	-0.0003421053	-0.03397378	-0.00322201	0.00232936	-1.373582	0.9929609	0	0
6.291951	-0.0003157895	-0.03395475	0.001576581	0.001139792	0.1452943	-0.03601836	0	0
6.308459	-0.0002894737	-0.03393573	0.001594112	0.001152468	0.0005280451	0.0003817921	0	0
6.324958	-0.0002631579	-0.03387866	0.00159499	0.003459076	2.657574E-05	0.06988209	0	0
6.341985	-0.0001315789	-0.03374549	0.007727926	0.007821252	0.1829337	0.1301153	0	0
6.35809	2.631579E-05	-0.03363135	0.009803684	0.007086901	0.06265103	-0.02216433	0	0
6.37466	7.894737E-05	-0.0335933	0.0031763	0.002296088	-0.2028228	-0.1466168	0	0
6.391225	0.0001578947	-0.03353624	0.004765959	0.003444885	0.0479753	0.03467027	0	0
6.408031	0.0002105263	-0.03349819	0.00313169	0.002263841	-0.04897277	-0.03539138	0	0
6.424546	0.0002368421	-0.03347917	0.001593515	0.00115181	-0.04616312	-0.03337385	0	0
6.440926	0.0002631579	-0.03349819	0.001606597	-0.001161265	0.0003976912	-0.07031877	0	0
6.457491	0.0002631579	-0.03349819	0	0	-0.04876579	0.03524844	0	0
6.474085	0.0002631579	-0.03349819	0	0	0	0	0	0
6.490623	0.0002631579	-0.03349819	0	0	0	0	0	0
6.507195	0.0002631579	-0.03349819	0	0	0	0	0	0
6.523758	0.0002368421	-0.03351722	-0.001588835	-0.001148427	-0.04795046	-0.03465911	0	0
6.540325	0.0002368421	-0.03351722	0	0	0.04795805	0.03466459	0	0
6.556893	0.0002368421	-0.03351722	0	0	0	0	0	0
6.573461	0.0002631579	-0.03353624	0.001588378	-0.001148322	0.04793597	-0.03465542	0	0
6.606594	0.0002631579	-0.03353624	0	0	-0.03195854	0.0231045	0	0
6.623159	0.0002631579	-0.03353624	0	0	0	0	0	0
6.639725	0.0002368421	-0.03355526	-0.001588607	-0.001148262	-0.04794977	-0.03465861	0	0
6.656299	0.0002368421	-0.03355526	0	0	0.04793666	0.03464913	0	0
6.755691	0.0002631579	-0.03357428	0.0002647678	-0.000191377	0.002283144	-0.001650281	0	0
6.772258	0.0002631579	-0.03357428	0	0	-0.002283294	0.00165039	0	0
6.788824	0.0002631579	-0.03357428	0	0	0	0	0	0
6.80539	0.0002631579	-0.03357428	0	0	0	0	0	0
6.822323	0.0002631579	-0.03357428	0	0	0	0	0	0
6.838524	0.0002631579	-0.03357428	0	0	0	0	0	0
6.855091	0.0002631579	-0.03357428	0	0	0	0	0	0
6.871657	0.0002631579	-0.03357428	0	0	0	0	0	0
6.888225	0.0002631579	-0.03357428	0	0	0	0	0	0
6.90479	0.0002631579	-0.03357428	0	0	0	0	0	0
6.921392	0.0002631579	-0.03357428	0	0	0	0	0	0
6.937924	0.0002631579	-0.03357428	0	0	0	0	0	0
6.954491	0.0002631579	-0.03357428	0	0	0	0	0	0
6.971057	0.0002631579	-0.03357428	0	0	0	0	0	0
6.987625	0.0002368421	-0.0335933	-0.001588378	-0.001148097	-0.04793804	-0.03465013	0	0
7.00419	0.0002368421	-0.0335933	0	0	0.04793942	0.03465113	0	0
7.020758	0.0002105263	-0.03361233	-0.001588378	-0.001148322	-0.04793942	-0.03465791	0	0
7.037323	0.0001842105	-0.03363135	-0.001588607	-0.001148262	-6.900657E-06	1.798949E-06	0	0
7.05389	0.0001578947	-0.03365038	-0.00158847	-0.001148388	4.139108E-06	-3.794768E-06	0	0
7.070456	0.0001315789	-0.03370744	-0.001588516	-0.003444813	-1.405429E-06	-0.06930923	0	0
7.087023	7.894737E-05	-0.03374549	-0.003176939	-0.002296551	-0.04794078	0.03465611	0	0
7.108427	7.894737E-05	-0.03374549	0	0	0.08366748	0.06048167	0	0
7.124995	7.894737E-05	-0.03374549	0	0	0	0	0	0
7.141566	7.894737E-05	-0.03374549	0	0	0	0	0	0
7.15813	7.894737E-05	-0.03374549	0	0	0	0	0	0
7.174697	7.894737E-05	-0.03374549	0	0	0	0	0	0
7.191266	7.894737E-05	-0.03374549	0	0	0	0	0	0
7.20783	7.894737E-05	-0.03374549	0	0	0	0	0	0
7.224399	7.894737E-05	-0.03374549	0	0	0	0	0	0
7.240964	7.894737E-05	-0.03374549	0	0	0	0	0	0
7.257631	7.894737E-05	-0.03374549	0	0	0	0	0	0
7.274143	7.894737E-05	-0.03374549	0	0	0	0	0	0
7.290662	7.894737E-05	-0.03374549	0	0	0	0	0	0
7.307229	7.894737E-05	-0.03374549	0	0	0	0	0	0
7.323799	7.894737E-05	-0.03374549	0	0	0	0	0	0
7.340689	5.263158E-05	-0.03372646	-0.001558065	0.001126406	-0.04656414	0.03366364	0	0
7.35693	5.263158E-05	-0.03372646	0	0	0.04702791	-0.03399892	0	0
7.373497	5.263158E-05	-0.03372646	0	0	0	0	0	0
7.390228	5.263158E-05	-0.03372646	0	0	0	0	0	0
7.406629	7.894737E-05	-0.03370744	0.001604495	0.001159746	0.04842725	0.03500373	0	0
7.423251	5.263158E-05	-0.03368842	-0.00158323	0.001144599	-0.0965308	-0.0004586794	0	0
7.439769	5.263158E-05	-0.03368842	0	0	0.04777372	-0.03453811	0	0
7.45633	5.263158E-05	-0.03368842	0	0	0	0	0	0
7.472896	7.894737E-05	-0.03363135	0.001588562	0.003444912	0.04795462	0.1039931	0	0
7.489462	7.894737E-05	-0.03363135	0	0	-0.04794564	-0.1039736	0	0
7.506032	7.894737E-05	-0.0335933	0	0.002296088	0	0.06929109	0	0
7.522596	7.894737E-05	-0.0335933	0	0	0	-0.06929807	0	0
7.539163	7.894737E-05	-0.0335933	0	0	0	0	0	0
7.555728	7.894737E-05	-0.0335933	0	0	0	0	0	0
7.60543	0	-0.03353624	-0.001588439	0.001148141	-0.02397046	0.0173261	0	0
7.621995	0	-0.03353624	0	0	0.02397029	-0.01732598	0	0
7.638577	0	-0.03353624	0	0	0	0	0	0
7.655131	0	-0.03353624	0	0	0	0	0	0
7.671926	0	-0.03353624	0	0	0	0	0	0
7.688262	-2.631579E-05	-0.03351722	-0.001610817	0.001164544	-0.04861876	0.03514904	0	0
7.704829	-2.631579E-05	-0.03351722	0	0	0.04895555	-0.03539252	0	0
7.721457	-2.631579E-05	-0.03351722	0	0	0	0	0	0
7.737963	-5.263158E-05	-0.03349819	-0.001594344	0.001152409	-0.04811808	0.03478026	0	0
7.754529	-5.263158E-05	-0.03349819	0	0	0.04820827	-0.03484545	0	0
7.771095	-5.263158E-05	-0.03349819	0	0	0	0	0	0
7.788004	-5.263158E-05	-0.03349819	0	0	0	0	0	0
7.804517	-5.263158E-05	-0.03349819	0	0	0	0	0	0
7.821028	-5.263158E-05	-0.03349819	0	0	0	0	0	0
7.843592	-2.631579E-05	-0.03347917	0.001166277	0.0008429972	0.02984721	0.02157388	0	0
7.86016	0	-0.03346015	0.001588378	0.001148097	0.01078671	0.007796752	0	0
7.878303	-2.631579E-05	-0.03344113	-0.001450451	0.001048401	-0.08754688	-0.002872169	0	0
7.894871	0	-0.03342211	0.001588378	0.001148097	0.08754688	0.002872169	0	0
7.911594	0	-0.03338407	0	0.002274785	-0.04771146	0.03384327	0	0
7.928004	0	-0.03334602	0	0.002318346	0	0.001314744	0	0
7.944573	0	-0.03334602	0	0	0	-0.07029864	0	0
7.961138	0	-0.03334602	0	0	0	0	0	0
7.977705	0	-0.03334602	0	0	0	0	0	0
7.994652	0	-0.03334602	0	0	0	0	0	0
8.010839	-2.631579E-05	-0.033327	-0.001625813	0.001175155	-0.04906853	0.03546726	0	0
8.027405	0	-0.03334602	0.001588516	-0.001148196	0.09813989	-0.07093656	0	0
8.043974	0	-0.03334602	0	0	-0.04794012	0.03465163	0	0
8.060699	0	-0.03334602	0	0	0	0	0	0
8.077106	0	-0.03334602	0	0	0	0	0	0
8.093672	0	-0.03334602	0	0	0	0	0	0
8.110238	0	-0.03334602	0	0	0	0	0	0
8.126804	0	-0.03334602	0	0	0	0	0	0
8.143373	0	-0.03334602	0	0	0	0	0	0
8.176504	-2.631579E-05	-0.033327	-0.0007942807	0.0005741145	-0.01598157	0.01155165	0	0
8.193072	-2.631579E-05	-0.033327	0	0	0.01598157	-0.01155165	0	0
8.209638	-5.263158E-05	-0.03330798	-0.001588607	0.001148262	-0.04794564	0.03465562	0	0
8.226205	-5.263158E-05	-0.03330798	0	0	0.04794702	-0.03465661	0	0
8.242771	-5.263158E-05	-0.03330798	0	0	0	0	0	0
8.259337	-2.631579E-05	-0.033327	0.001588516	-0.001148196	0.04794426	-0.03465462	0	0
8.275907	-5.263158E-05	-0.03334602	-0.001588241	-0.001147998	-0.09587196	5.983185E-06	0	0
8.292471	-5.263158E-05	-0.03334602	0	0	0.0479346	0.03464764	0	0
8.325887	-5.263158E-05	-0.03334602	0	0	0	0	0	0
8.342171	-5.263158E-05	-0.03334602	0	0	0	0	0	0
8.358737	-5.263158E-05	-0.03334602	0	0	0	0	0	0
8.375304	-5.263158E-05	-0.03334602	0	0	0	0	0	0
8.39187	-5.263158E-05	-0.03334602	0	0	0	0	0	0
8.408438	-5.263158E-05	-0.03334602	0	0	0	0	0	0
8.425006	-5.263158E-05	-0.03334602	0	0	0	0	0	0
8.44157	-2.631579E-05	-0.033327	0.001588698	0.001148328	0.04794978	0.03465861	0	0
8.458138	-2.631579E-05	-0.033327	0	0	-0.04794978	-0.03465861	0	0
8.49127	-2.631579E-05	-0.033327	0	0	0	0	0	0
8.507837	-2.631579E-05	-0.033327	0	0	0	0	0	0
8.524404	-2.631579E-05	-0.033327	0	0	0	0	0	0
8.541036	-2.631579E-05	-0.033327	0	0	0	0	0	0
8.557552	-5.263158E-05	-0.03334602	-0.001593285	-0.001151643	-0.04806469	-0.03474167	0	0
8.578967	-5.263158E-05	-0.03334602	0	0	0.04200434	0.03036118	0	0
8.595534	-5.263158E-05	-0.03334602	0	0	0	0	0	0
8.612102	-5.263158E-05	-0.03334602	0	0	0	0	0	0
8.62867	-5.263158E-05	-0.03334602	0	0	0	0	0	0
8.645235	-5.263158E-05	-0.03334602	0	0	0	0	0	0
8.661805	-5.263158E-05	-0.03334602	0	0	0	0	0	0
8.678634	-5.263158E-05	-0.03334602	0	0	0	0	0	0
8.694936	-5.263158E-05	-0.03334602	0	0	0	0	0	0
8.711657	-5.263158E-05	-0.03334602	0	0	0	0	0	0
8.728069	-5.263158E-05	-0.03334602	0	0	0	0	0	0
8.744681	-5.263158E-05	-0.03334602	0	0	0	0	0	0
8.761205	-5.263158E-05	-0.03334602	0	0	0	0	0	0
8.778202	-5.263158E-05	-0.03334602	0	0	0	0	0	0
8.794717	-5.263158E-05	-0.03334602	0	0	0	0	0	0
8.810902	-5.263158E-05	-0.03334602	0	0	0	0	0	0
8.827739	-5.263158E-05	-0.03334602	0	0	0	0	0	0
8.844251	-5.263158E-05	-0.03334602	0	0	0	0	0	0
8.87717	-5.263158E-05	-0.03334602	0	0	0	0	0	0
8.893785	-5.263158E-05	-0.03334602	0	0	0	0	0	0
8.910303	-5.263158E-05	-0.03334602	0	0	0	0	0	0
8.926869	-5.263158E-05	-0.03334602	0	0	0	0	0	0
8.943437	-5.263158E-05	-0.03334602	0	0	0	0	0	0
8.960336	-5.263158E-05	-0.03334602	0	0	0	0	0	0
8.97657	-5.263158E-05	-0.03334602	0	0	0	0	0	0
8.993136	-5.263158E-05	-0.03334602	0	0	0	0	0	0
9.009703	-5.263158E-05	-0.03334602	0	0	0	0	0	0
9.026379	-5.263158E-05	-0.03334602	0	0	0	0	0	0
9.042837	-5.263158E-05	-0.03334602	0	0	0	0	0	0
9.059403	-5.263158E-05	-0.03334602	0	0	0	0	0	0
9.07597	-5.263158E-05	-0.03334602	0	0	0	0	0	0
9.092535	-5.263158E-05	-0.03334602	0	0	0	0	0	0
9.109436	-5.263158E-05	-0.03334602	0	0	0	0	0	0
9.125668	-5.263158E-05	-0.03334602	0	0	0	0	0	0
9.142461	-5.263158E-05	-0.03334602	0	0	0	0	0	0
9.15897	-5.263158E-05	-0.03334602	0	0	0	0	0	0
9.175484	-5.263158E-05	-0.03334602	0	0	0	0	0	0
9.191995	-5.263158E-05	-0.03334602	0	0	0	0	0	0
9.208503	-5.263158E-05	-0.03334602	0	0	0	0	0	0
9.225069	-5.263158E-05	-0.03334602	0	0	0	0	0	0
9.241634	-5.263158E-05	-0.03334602	0	0	0	0	0	0
9.258201	-2.631579E-05	-0.033327	0.001588516	0.001148196	0.04794564	0.03465562	0	0
9.27477	-2.631579E-05	-0.033327	0	0	-0.04794012	-0.03465163	0	0
9.291335	-2.631579E-05	-0.033327	0	0	0	0	0	0
9.308078	-2.631579E-05	-0.033327	0	0	0	0	0	0
9.324468	-2.631579E-05	-0.033327	0	0	0	0	0	0
9.341099	-2.631579E-05	-0.033327	0	0	0	0	0	0
9.378949	-2.631579E-05	-0.033327	0	0	0	0	0	0
9.395514	0	-0.03334602	0.001588607	-0.001148262	0.02919391	-0.02110167	0	0
9.428648	0	-0.03334602	0	0	-0.03196468	0.02310441	0	0
9.445214	0	-0.03334602	0	0	0	0	0	0
9.461781	0	-0.03334602	0	0	0	0	0	0
9.478347	0	-0.03334602	0	0	0	0	0	0
9.494913	0	-0.03334602	0	0	0	0	0	0
9.51148	0	-0.03334602	0	0	0	0	0	0
9.52823	0	-0.03334602	0	0	0	0	0	0
9.544614	0	-0.03334602	0	0	0	0	0	0
9.561253	2.631579E-05	-0.03336504	0.001581596	-0.001143194	0.04789395	-0.03461825	0	0
9.577766	0	-0.03334602	-0.001593561	0.001151843	-0.09577405	0.0692265	0	0
9.594314	0	-0.03334602	0	0	0.04820059	-0.0348399	0	0
9.61088	0	-0.03334602	0	0	0	0	0	0
9.627446	0	-0.03334602	0	0	0	0	0	0
9.644313	-2.631579E-05	-0.033327	-0.001560223	0.001127746	-0.04666721	0.03373156	0	0
9.660582	-2.631579E-05	-0.033327	0	0	0.04708627	-0.03403446	0	0
9.677148	-2.631579E-05	-0.033327	0	0	0	0	0	0
9.693713	0	-0.03334602	0.001588607	-0.001148262	0.0479484	-0.03465761	0	0
9.710366	0	-0.03334602	0	0	-0.04782313	0.03456707	0	0
9.726846	0	-0.03334602	0	0	0	0	0	0
9.743412	0	-0.03334602	0	0	0	0	0	0
9.759979	0	-0.03334602	0	0	0	0	0	0
9.776545	0	-0.03334602	0	0	0	0	0	0
9.793113	0	-0.03334602	0	0	0	0	0	0
9.809931	0	-0.03334602	0	0	0	0	0	0
9.826245	0	-0.03334602	0	0	0	0	0	0
9.84295	0	-0.03334602	0	0	0	0	0	0
9.859464	-2.631579E-05	-0.03336504	-0.001593561	-0.001151843	-0.04797227	-0.03467486	0	0
9.875945	-2.631579E-05	-0.03336504	0	0	0.04829672	0.03490939	0	0
9.909079	-2.631579E-05	-0.03336504	0	0	0	0	0	0
9.925645	-2.631579E-05	-0.03336504	0	0	0	0	0	0
9.942521	-2.631579E-05	-0.03336504	0	0	0	0	0	0
9.958778	-2.631579E-05	-0.03336504	0	0	0	0	0	0
9.975544	-2.631579E-05	-0.03336504	0	0	0	0	0	0
9.992059	-2.631579E-05	-0.03336504	0	0	0	0	0	0
10.00848	-2.631579E-05	-0.03336504	0	0	0	0	0	0
10.02508	-2.631579E-05	-0.03336504	0	0	0	0	0	0
10.04161	-2.631579E-05	-0.03336504	0	0	0	0	0	0
10.05818	-2.631579E-05	-0.03336504	0	0	0	0	0	0
10.07512	-2.631579E-05	-0.03336504	0	0	0	0	0	0
10.09131	-2.631579E-05	-0.03336504	0	0	0	0	0	0
10.10814	-2.631579E-05	-0.03336504	0	0	0	0	0	0
10.12445	-2.631579E-05	-0.03336504	0	0	0	0	0	0
10.14116	-2.631579E-05	-0.03336504	0	0	0	0	0	0
10.16224	-2.631579E-05	-0.03336504	0	0	0	0	0	0
10.17881	-2.631579E-05	-0.03336504	0	0	0	0	0	0
10.19538	-2.631579E-05	-0.03336504	0	0	0	0	0	0
10.21194	-2.631579E-05	-0.03336504	0	0	0	0	0	0
10.22851	-2.631579E-05	-0.03336504	0	0	0	0	0	0
10.24508	-2.631579E-05	-0.03336504	0	0	0	0	0	0
10.27821	-2.631579E-05	-0.03336504	0	0	0	0	0	0
10.31134	-2.631579E-05	-0.03336504	0	0	0	0	0	0
10.3283	-2.631579E-05	-0.03336504	0	0	0	0	0	0
10.34448	-2.631579E-05	-0.03336504	0	0	0	0	0	0
10.36132	-2.631579E-05	-0.03336504	0	0	0	0	0	0
10.37783	-2.631579E-05	-0.03336504	0	0	0	0	0	0
10.39418	-2.631579E-05	-0.03336504	0	0	0	0	0	0
10.41085	-2.631579E-05	-0.03336504	0	0	0	0	0	0
10.42737	-2.631579E-05	-0.03336504	0	0	0	0	0	0
10.44388	0	-0.03338407	0.001593745	-0.001151976	0.04826045	-0.03488317	0	0
10.46044	0	-0.03338407	0	0	-0.04818114	0.03482585	0	0
10.47701	0	-0.03338407	0	0	0	0	0	0
10.49358	2.631579E-05	-0.03340309	0.001588698	-0.001148328	0.04794839	-0.03465761	0	0
10.51015	2.631579E-05	-0.03340309	0	0	-0.04794839	0.03465761	0	0
10.52671	2.631579E-05	-0.03340309	0	0	0	0	0	0
10.54345	2.631579E-05	-0.03340309	0	0	0	0	0	0
10.55984	2.631579E-05	-0.03340309	0	0	0	0	0	0
10.57647	2.631579E-05	-0.03344113	0	-0.002288094	0	-0.06928612	0	0
10.59298	2.631579E-05	-0.03340309	0	0.002304484	0	0.1386043	0	0
10.60955	2.631579E-05	-0.03340309	0	0	0	-0.06967381	0	0
10.62611	2.631579E-05	-0.03340309	0	0	0	0	0	0
10.64268	2.631579E-05	-0.03340309	0	0	0	0	0	0
10.65954	2.631579E-05	-0.03340309	0	0	0	0	0	0
10.67604	2.631579E-05	-0.03340309	0	0	0	0	0	0
10.69238	2.631579E-05	-0.03340309	0	0	0	0	0	0
10.70895	0	-0.03346015	-0.001587693	-0.003442804	-0.04824437	-0.1046146	0	0
10.76607	0	-0.03346015	0	0	0.02154601	0.04672105	0	0
10.78264	0	-0.03346015	0	0	0	0	0	0
10.7992	0	-0.03346015	0	0	0	0	0	0
10.81577	0	-0.03346015	0	0	0	0	0	0
10.83234	0	-0.03346015	0	0	0	0	0	0
10.84916	0	-0.03346015	0	0	0	0	0	0
10.86547	0	-0.03346015	0	0	0	0	0	0
10.887	2.631579E-05	-0.03347917	0.00122206	-0.0008833177	0.03229635	-0.02334415	0	0
10.90357	2.631579E-05	-0.03347917	0	0	-0.03207405	0.02318346	0	0
10.92022	2.631579E-05	-0.03347917	0	0	0	0	0	0
10.9367	-5.263158E-05	-0.03338407	-0.004788427	0.005768543	-0.1445192	0.1741	0	0
10.95327	-0.0004473684	-0.0326043	-0.02382773	0.04706974	-0.5760166	1.24953	0	0
10.96984	-0.001657893	-0.02424842	-0.07306742	0.5043614	-1.486099	13.80149	0	0
10.9864	-0.002131576	-0.008093482	-0.02859153	0.9751143	1.342285	14.20735	0	0
11.00297	-0.002447363	0.014623	-0.01906318	1.371327	0.2875828	11.95842	0	0
11.01979	-0.003078938	0.04136144	-0.03755122	1.589776	-0.5537942	6.543446	0	0
11.0361	-0.004526285	0.08172847	-0.08871537	2.474303	-1.544181	26.69586	0	0
11.05267	-0.005815724	0.1153983	-0.07783516	2.032432	0.3308985	-13.43858	0	0
11.06932	-0.007499859	0.160943	-0.1011538	2.735542	-0.7020416	21.16809	0	0
11.0858	-0.00826297	0.1819201	-0.04629327	1.272555	1.655743	-44.1543	0	0
11.10237	-0.009105012	0.2005441	-0.0508287	1.124211	-0.1372271	-4.488386	0	0
11.11894	-0.01115743	0.2368009	-0.1238843	2.188463	-2.204886	32.12011	0	0
11.1355	-0.01281509	0.2527457	-0.1000621	0.962486	0.7189762	-37.00113	0	0
11.15239	-0.01360442	0.2657512	-0.04674566	0.7702015	1.593818	-5.748065	0	0
11.16889	-0.01447267	0.2755777	-0.05261968	0.5955309	-0.1759415	-5.231817	0	0
11.1854	-0.01660374	0.2835741	-0.1290548	0.4842514	-2.315278	-3.370743	0	0
11.20177	-0.0161828	0.287258	0.02571745	0.2250699	4.707072	-7.88246	0	0
11.21834	-0.01418326	0.2881163	0.1206923	0.05180571	2.883694	-5.26077	0	0
11.23494	-0.01365705	0.2877587	0.03169848	-0.02154126	-2.683137	-2.211388	0	0
11.25147	-0.01365705	0.2877587	0	0	-0.956717	0.650154	0	0
11.26804	-0.01365705	0.2877587	0	0	0	0	0	0
11.2846	-0.01365705	0.2877587	0	0	0	0	0	0
11.30117	-0.01365705	0.2877587	0	0	0	0	0	0
11.31774	-0.01365705	0.2877587	0	0	0	0	0	0
11.3343	-0.01368336	0.2877408	-0.001588031	-0.001079261	-0.04792688	-0.03257216	0	0
11.35087	-0.01368336	0.2877408	0	0	0.04792826	0.0325731	0	0
11.36744	-0.01368336	0.2877408	0	0	0	0	0	0
11.384	-0.01368336	0.2877408	0	0	0	0	0	0
11.40057	-0.01368336	0.2877408	0	0	0	0	0	0
11.41714	-0.01368336	0.2877408	0	0	0	0	0	0
11.4337	-0.01363073	0.2876693	0.003176063	-0.004317044	0.09585376	-0.1302886	0	0
11.45027	-0.01352549	0.2875262	0.006352913	-0.008635081	0.09587752	-0.1303186	0	0
11.46684	-0.01344656	0.2874726	0.004764642	-0.003238156	-0.04793686	0.1628889	0	0
11.48361	-0.01289402	0.2870255	0.03293781	-0.02664866	0.8449902	-0.7021452	0	0
11.49997	-0.01276246	0.2869361	0.008041753	-0.005465198	-0.7513644	0.6393183	0	0
11.51663	-0.01270984	0.2868646	0.003157941	-0.004292337	-0.1478918	0.03551662	0	0
11.53849	-0.01249935	0.2866858	0.009630761	-0.008181342	0.1680385	-0.100961	0	0
11.55516	-0.01236779	0.2865964	0.007890929	-0.005362659	-0.0451571	0.0731585	0	0
11.57162	-0.01210467	0.2864175	0.01598305	-0.01086382	0.2442207	-0.1660254	0	0
11.58819	-0.01184155	0.2862387	0.01588293	-0.01079385	-0.003031396	0.00211839	0	0
11.60476	-0.01168368	0.2861314	0.009528088	-0.006475193	-0.1917839	0.1303336	0	0
11.62132	-0.01163105	0.2860957	0.003176963	-0.002159019	-0.1916829	0.1302661	0	0
11.63789	-0.01163105	0.2860957	0	0	-0.09589197	0.06516682	0	0
11.65446	-0.01163105	0.2860957	0	0	0	0	0	0
11.67126	-0.01163105	0.2860957	0	0	0	0	0	0
11.68759	-0.01163105	0.2860957	0	0	0	0	0	0
11.70416	-0.01160474	0.2860778	0.001588144	-0.001079261	0.04827345	-0.03280538	0	0
11.72078	-0.01160474	0.2860778	0	0	-0.04785314	0.03251975	0	0
11.73729	-0.01160474	0.2860778	0	0	0	0	0	0
11.75386	-0.01160474	0.2860778	0	0	0	0	0	0
11.77263	-0.01160474	0.2860778	0	0	0	0	0	0
11.7892	-0.01160474	0.2860778	0	0	0	0	0	0
11.80585	-0.01157843	0.2860599	0.001580683	-0.001074191	0.04759141	-0.03234188	0	0
11.82235	-0.01157843	0.2860599	0	0	-0.04767629	0.03239956	0	0
11.8389	-0.01157843	0.2860599	0	0	0	0	0	0
11.85547	-0.01157843	0.2860599	0	0	0	0	0	0
11.87203	-0.01157843	0.2860599	0	0	0	0	0	0
11.8886	-0.01157843	0.2860599	0	0	0	0	0	0
11.90517	-0.01157843	0.2860599	0	0	0	0	0	0
11.92192	-0.01157843	0.2860599	0	0	0	0	0	0
11.93893	-0.01157843	0.2860599	0	0	0	0	0	0
11.95487	-0.01157843	0.2860599	0	0	0	0	0	0
11.97143	-0.01157843	0.2860599	0	0	0	0	0	0
11.988	-0.01157843	0.2860599	0	0	0	0	0	0
12.00457	-0.01157843	0.2860599	0	0	0	0	0	0
12.02113	-0.01157843	0.2860599	0	0	0	0	0	0
12.0377	-0.01157843	0.2860599	0	0	0	0	0	0
12.05427	-0.01157843	0.2860599	0	0	0	0	0	0
12.07083	-0.01157843	0.2860599	0	0	0	0	0	0
12.0874	-0.01157843	0.2860242	0	-0.00215877	0	-0.06515932	0	0
12.15366	-0.007447231	0.2657153	0.06234171	-0.3064696	0.7526166	-3.673774	0	0
12.17023	-0.006236761	0.2524948	0.07307249	-0.798084	0.1295482	-5.935054	0	0
12.18711	-0.003131569	0.217954	0.1839461	-2.046139	3.314974	-37.31517	0	0
12.20336	0.0002105263	0.1765692	0.2056355	-2.54636	0.6546062	-15.09713	0	0
12.21993	0.002763151	0.1433673	0.1540767	-2.004073	-1.570969	16.5232	0	0
12.2365	0.00552626	0.1104777	0.1667912	-1.985331	0.3837338	0.5656499	0	0
12.25306	0.009157639	0.07084806	0.2192031	-2.39219	1.581887	-12.27974	0	0
12.26966	0.01289402	0.0408963	0.225088	-1.80436	0.1774377	17.72389	0	0
12.28619	0.01452529	0.0300516	0.09866825	-0.6559471	-3.815575	34.66117	0	0
12.30276	0.01715621	0.01898723	0.1588116	-0.667885	1.817066	-0.3606693	0	0
12.3197	0.01997103	0.01267325	0.1661721	-0.3727446	0.21968	8.808729	0	0
12.33621	0.0198395	0.01044093	-0.007966958	-0.1352177	-5.206228	7.101334	0	0
12.37374	0.0198395	0.01044093	0	0	0.1474376	2.502356	0	0
12.39027	0.0198395	0.01044093	0	0	0	0	0	0
12.40683	0.0198395	0.01044093	0	0	0	0	0	0
12.4234	0.0198395	0.01044093	0	0	0	0	0	0
12.44028	0.0198395	0.01044093	0	0	0	0	0	0
12.45653	0.01986581	0.01042217	0.001618778	-0.001154739	0.04886327	-0.03485612	0	0
12.4731	0.01986581	0.01042217	0	0	-0.04932617	0.03518633	0	0
12.48967	0.01989211	0.0104034	0.001587842	-0.001132671	0.04792115	-0.03418407	0	0
12.50623	0.01989211	0.0104034	0	0	-0.04792254	0.03418506	0	0
12.5228	0.01989211	0.0104034	0	0	0	0	0	0
12.53937	0.01989211	0.0104034	0	0	0	0	0	0
12.55593	0.01989211	0.0104034	0	0	0	0	0	0
12.5725	0.01989211	0.0104034	0	0	0	0	0	0
12.58907	0.01989211	0.0104034	0	0	0	0	0	0
12.60563	0.01989211	0.0104034	0	0	0	0	0	0
12.62241	0.01989211	0.0104034	0	0	0	0	0	0
12.63877	0.01989211	0.0104034	0	0	0	0	0	0
12.65546	0.01986581	0.01042217	-0.001575868	0.001124129	-0.04768467	0.03401538	0	0
12.67196	0.01986581	0.01042217	0	0	0.04747642	-0.03386683	0	0
12.68847	0.01986581	0.0104597	0	0.002273399	0	0.06887498	0	0
12.70503	0.01986581	0.0104597	0	0	0	-0.06873596	0	0
12.7216	0.01986581	0.0104597	0	0	0	0	0	0
12.73817	0.0198395	0.01044093	-0.001587933	-0.00113268	-0.04792667	-0.03418631	0	0
12.75473	0.01986581	0.0104597	0.001587933	0.00113268	0.09585334	0.06837263	0	0
12.77153	0.01986581	0.0104597	0	0	-0.04760059	-0.03395372	0	0
12.78853	0.01986581	0.0104597	0	0	0	0	0	0
12.80443	0.01986581	0.0104597	0	0	0	0	0	0
12.82105	0.0198395	0.01044093	-0.001583012	-0.00112917	-0.04867338	-0.03471895	0	0
12.83757	0.0198395	0.01044093	0	0	0.04777265	0.03407644	0	0
12.85413	0.0198395	0.01044093	0	0	0	0	0	0
12.8707	0.0198395	0.01044093	0	0	0	0	0	0
12.88727	0.0198395	0.01044093	0	0	0	0	0	0
12.90383	0.0198395	0.01044093	0	0	0	0	0	0
12.9204	0.0198395	0.01044093	0	0	0	0	0	0
12.93697	0.0198395	0.01044093	0	0	0	0	0	0
12.95353	0.0198395	0.01044093	0	0	0	0	0	0
12.97015	0.0198395	0.01044093	0	0	0	0	0	0
12.98667	0.0198395	0.01044093	0	0	0	0	0	0
13.0198	0.01986581	0.01042217	0.0007940122	-0.0005664006	0.01599428	-0.01140936	0	0
13.03637	0.01986581	0.01042217	0	0	-0.01597678	0.01139688	0	0
13.05293	0.01986581	0.01042217	0	0	0	0	0	0
13.0695	0.01986581	0.01042217	0	0	0	0	0	0
13.08607	0.0198395	0.01044093	-0.00158775	0.001132606	-0.04791839	0.03418211	0	0
13.10747	0.0198395	0.01044093	0	0	0.04181006	-0.02982479	0	0
13.12426	0.0198395	0.01044093	0	0	0	0	0	0
13.14061	0.0198395	0.01044093	0	0	0	0	0	0
13.15729	0.0198395	0.01044093	0	0	0	0	0	0
13.17374	0.0198395	0.01044093	0	0	0	0	0	0
13.19031	0.0198395	0.01044093	0	0	0	0	0	0
13.20688	0.0198395	0.01044093	0	0	0	0	0	0
13.22344	0.0198132	0.0104597	-0.001587821	0.00113268	-0.04793018	0.03419124	0	0
13.24001	0.01976059	0.01049723	-0.003175388	0.002265211	-0.04791288	0.03417986	0	0
13.25658	0.01965536	0.01057228	-0.006351619	0.004530775	-0.09585886	0.06837486	0	0
13.27337	0.01955014	0.01064734	-0.006265416	0.004469173	0.002583992	-0.001846552	0	0
13.28989	0.01955014	0.01064734	0	0	0.1880999	-0.1341732	0	0
13.30628	0.01955014	0.01064734	0	0	0	0	0	0
13.32291	0.01952383	0.0106661	-0.00158165	0.001128198	-0.04789559	0.03416415	0	0
13.33941	0.01952383	0.0106661	0	0	0.04773705	-0.03405106	0	0
13.35598	0.01952383	0.0106661	0	0	0	0	0	0
13.37254	0.01952383	0.0106661	0	0	0	0	0	0
13.38946	0.01952383	0.0106661	0	0	0	0	0	0
13.40597	0.01952383	0.0106661	0	0	0	0	0	0
13.42298	0.01952383	0.0106661	0	0	0	0	0	0
13.439	0.01952383	0.0106661	0	0	0	0	0	0
13.45538	0.01952383	0.0106661	0	0	0	0	0	0
13.47194	0.01952383	0.0106661	0	0	0	0	0	0
13.48851	0.01952383	0.0106661	0	0	0	0	0	0
13.50508	0.01952383	0.0106661	0	0	0	0	0	0
13.52164	0.01952383	0.0106661	0	0	0	0	0	0
13.53821	0.01952383	0.0106661	0	0	0	0	0	0
13.55507	0.01952383	0.0106661	0	0	0	0	0	0
13.57134	0.01952383	0.0106661	0	0	0	0	0	0
13.58791	0.01952383	0.0106661	0	0	0	0	0	0
13.60461	0.01952383	0.0106661	0	0	0	0	0	0
13.62104	0.01952383	0.0106661	0	0	0	0	0	0
13.63761	0.01952383	0.0106661	0	0	0	0	0	0
13.65418	0.01955014	0.01064734	0.001587202	-0.001132158	0.04789358	-0.03416271	0	0
13.67075	0.01955014	0.01064734	0	0	-0.04789496	0.03416369	0	0
13.68731	0.01955014	0.01064734	0	0	0	0	0	0
13.70388	0.01955014	0.01064734	0	0	0	0	0	0
13.72044	0.01955014	0.01064734	0	0	0	0	0	0
13.73701	0.01952383	0.0106661	-0.001588024	0.001132745	-0.04793495	0.03419222	0	0
13.75371	0.01952383	0.0106661	0	0	0.04773159	-0.03404716	0	0
13.79224	0.01952383	0.0106661	0	0	0	0	0	0
13.8088	0.01952383	0.0106661	0	0	0	0	0	0
13.82537	0.01952383	0.0106661	0	0	0	0	0	0
13.84193	0.01952383	0.0106661	0	0	0	0	0	0
13.8585	0.01952383	0.0106661	0	0	0	0	0	0
13.87506	0.01952383	0.0106661	0	0	0	0	0	0
13.89181	0.01952383	0.0106661	0	0	0	0	0	0
13.90832	0.01952383	0.01062858	0	-0.002272818	0	-0.06834787	0	0
13.92483	0.01952383	0.01062858	0	0	0	0.06882355	0	0
13.94133	0.01952383	0.01062858	0	0	0	0	0	0
13.9579	0.01955014	0.01060981	0.001588024	-0.001132689	0.04802204	-0.03425264	0	0
13.97486	0.01955014	0.01060981	0	0	-0.04735827	0.0337792	0	0
13.99315	0.01955014	0.01060981	0	0	0	0	0	0
14.00972	0.01955014	0.01060981	0	0	0	0	0	0
14.02628	0.01955014	0.01060981	0	0	0	0	0	0
14.04285	0.01955014	0.01060981	0	0	0	0	0	0
14.05943	0.01955014	0.01060981	0	0	0	0	0	0
14.07598	0.01952383	0.01059105	-0.001588848	-0.001133332	-0.04795152	-0.03420404	0	0
14.09255	0.01952383	0.01059105	0	0	0.04796809	0.03421585	0	0
14.10912	0.01952383	0.01059105	0	0	0	0	0	0
14.12597	0.01952383	0.01059105	0	0	0	0	0	0
14.14225	0.01952383	0.01059105	0	0	0	0	0	0
14.15882	0.01952383	0.01059105	0	0	0	0	0	0
14.17538	0.01952383	0.01059105	0	0	0	0	0	0
14.19202	0.01952383	0.01059105	0	0	0	0	0	0
14.20853	0.01952383	0.01059105	0	0	0	0	0	0
14.22508	0.01952383	0.01059105	0	0	0	0	0	0
14.24165	0.01952383	0.01059105	0	0	0	0	0	0
14.25821	0.01952383	0.01059105	0	0	0	0	0	0
14.27508	0.01952383	0.01059105	0	0	0	0	0	0
14.29135	0.01952383	0.01059105	0	0	0	0	0	0
14.30791	0.01952383	0.01059105	0	0	0	0	0	0
14.32448	0.01952383	0.01059105	0	0	0	0	0	0
14.34112	0.01952383	0.01059105	0	0	0	0	0	0
14.35763	0.01952383	0.01059105	0	0	0	0	0	0
14.37418	0.01955014	0.01057228	0.001589489	-0.001133789	0.04807741	-0.03429383	0	0
14.39075	0.01955014	0.01057228	0	0	-0.04799987	0.03423853	0	0
14.40767	0.01955014	0.01057228	0	0	0	0	0	0
14.42926	0.01955014	0.01057228	0	0	0	0	0	0
14.4462	0.01952383	0.01055352	-0.001553065	-0.001107808	-0.04031156	-0.02875442	0	0
14.46239	0.01952383	0.01055352	0	0	0.04687294	0.03343468	0	0
14.47896	0.01952383	0.01055352	0	0	0	0	0	0
14.49573	0.01952383	0.01055352	0	0	0	0	0	0
14.51209	0.01949753	0.01053475	-0.001608021	-0.001147065	-0.04853295	-0.03462049	0	0
14.52866	0.01944492	0.01049723	-0.0031755	-0.002265099	-0.04760395	-0.03395439	0	0
14.54523	0.01939231	0.01049723	-0.003175936	0	-1.316166E-05	0.06836279	0	0
14.56179	0.01939231	0.01049723	0	0	0.09585823	0	0	0
14.57836	0.01939231	0.01049723	0	0	0	0	0	0
14.59493	0.01939231	0.01049723	0	0	0	0	0	0
14.64463	0.01939231	0.01049723	0	0	0	0	0	0
14.66119	0.01933969	0.01049723	-0.003175318	0	-0.04791564	0	0	0
14.67776	0.01918186	0.01060981	-0.009528696	0.006796918	-0.1917509	0.2051373	0	0
14.69437	0.01860312	0.0110226	-0.0348366	0.02484713	-0.762806	0.5440517	0	0
14.71089	0.01726144	0.01194181	-0.08121259	0.0556405	-1.39967	0.9293726	0	0
14.72746	0.01634065	0.01259823	-0.05558238	0.03962434	0.774636	-0.4840653	0	0
14.74403	0.01439374	0.01394821	-0.1175223	0.08148925	-1.869459	1.263558	0	0
14.76059	0.01386753	0.01428562	-0.031764	0.02036738	2.588341	-1.844768	0	0
14.77743	0.01386753	0.01424813	0	-0.002226288	0.950867	-0.6763497	0	0
14.79373	0.01381491	0.01421064	-0.003229412	-0.002300689	-0.09746666	-0.002245485	0	0
14.81029	0.0137886	0.0141919	-0.001588123	-0.001131434	0.04994534	0.03558107	0	0
14.86083	0.01365705	0.01413566	-0.002602871	-0.001112644	-0.01512087	0.000279992	0	0
14.8775	0.01357811	0.01411692	-0.004736015	-0.001124701	-0.03173931	-0.0001793943	0	0
14.89397	0.0135518	0.01409817	-0.001597687	-0.001138248	0.09471491	-0.0004088639	0	0
14.91054	0.0135518	0.01409817	0	0	0.04836307	0.03445554	0	0
14.9271	0.01352549	0.01407943	-0.00158827	-0.001131555	-0.04793547	-0.03415139	0	0
14.94367	0.01352549	0.01407943	0	0	0.04793685	0.03415238	0	0
14.96024	0.0135518	0.01406068	0.001588179	-0.001131434	0.04793271	-0.03414773	0	0
14.9768	0.0135518	0.01406068	0	0	-0.04793409	0.03414872	0	0
14.99358	0.01342025	0.01392946	-0.007840085	-0.007820104	-0.2351187	-0.2345195	0	0
15.00993	0.0128414	0.01351702	-0.03539566	-0.02522	-0.8316529	-0.5251451	0	0
15.0265	0.009920727	0.01147285	-0.1763023	-0.1233935	-4.280289	-2.982195	0	0
15.04307	0.0004210526	0.004656394	-0.5733685	-0.4114186	-11.98348	-8.692614	0	0
15.05963	-0.007394602	-0.0008932944	-0.4718082	-0.3350185	3.065185	2.305826	0	0
15.0762	-0.01470947	-0.006131659	-0.4415514	-0.3162065	0.9132285	0.5677946	0	0
15.09277	-0.02254881	-0.01171842	-0.4731838	-0.3372174	-0.9546932	-0.6341268	0	0
15.10933	-0.02515259	-0.01362692	-0.1571734	-0.1152038	9.537486	6.700573	0	0
15.1259	-0.02783491	-0.01555546	-0.1619149	-0.1164139	-0.1431044	-0.0365228	0	0
15.14269	-0.02833452	-0.01591483	-0.02975717	-0.02140433	3.96207	2.848376	0	0
15.15903	-0.02838711	-0.01599049	-0.003217562	-0.004629355	0.80099	0.5062844	0	0
15.1756	-0.02836081	-0.01597157	0.001587258	0.0011419	0.1459973	0.1753629	0	0
15.20873	-0.02836081	-0.01593374	0	0.001141787	-0.03193754	-2.262774E-06	0	0
15.22574	-0.02828193	-0.015877	0.004637002	0.003335685	0.09247336	0.04375178	0	0
15.24743	-0.02815046	-0.01582025	0.00606357	0.002616995	0.03686757	-0.0185735	0	0
15.264	-0.02807157	-0.01576351	0.004761227	0.003424855	-0.03404736	0.02112001	0	0
15.28056	-0.0279138	-0.01565003	0.009523663	0.006850273	0.1437306	0.1033793	0	0
15.2973	-0.02772973	-0.01551764	0.01099885	0.007911002	0.04429811	0.03185244	0	0
15.31381	-0.02712492	-0.01508267	0.03663494	0.02634705	0.7711465	0.5545654	0	0
15.33026	-0.0244162	-0.01317331	0.1645981	0.1160241	3.881711	2.720316	0	0
15.34683	-0.0242584	-0.01305992	0.009524914	0.00684437	-4.695796	-3.306088	0	0
15.36339	-0.02375869	-0.01270087	0.03016605	0.02167463	0.6229867	0.4476038	0	0
15.37996	-0.0177876	-0.008452019	0.3604364	0.2564759	9.96844	7.086927	0	0
15.39653	-0.01202574	-0.004321787	0.3477867	0.2493013	-0.381781	-0.2165355	0	0
15.4131	-0.004421024	0.001083073	0.4589685	0.3262005	3.355282	2.320688	0	0
15.42966	0.0005263158	0.0046188	0.2986564	0.2134415	-4.83823	-3.403073	0	0
15.44691	0.005499945	0.008169605	0.2883253	0.205843	-0.3055146	-0.2247033	0	0
15.4628	0.008762933	0.01042217	0.2054333	0.1418181	-2.501757	-1.932332	0	0
15.47943	0.009578655	0.01100384	0.04902818	0.03496078	-4.809321	-3.28577	0	0
15.49593	0.009657594	0.01098507	0.004786031	-0.001137544	-1.335346	-1.089544	0	0
15.51249	0.009683908	0.01092879	0.001588383	-0.003397646	-0.09672236	-0.06836347	0	0
15.52906	0.009789161	0.01081621	0.006353109	-0.006795126	0.1438039	-0.1025391	0	0
15.54563	0.009789161	0.01077869	0	-0.002265191	-0.1917427	0.1367176	0	0
15.56219	0.009841788	0.01070363	0.003176526	-0.00453029	0.09587052	-0.06836278	0	0
15.57876	0.009789161	0.01070363	-0.003176709	0	-0.1917466	0.1367283	0	0
15.59533	0.009789161	0.01070363	0	0	0.0958788	0	0	0
15.61189	0.009789161	0.01070363	0	0	0	0	0	0
15.69473	0.009736534	0.01059105	-0.0006353458	-0.001359166	-0.006391837	-0.01367377	0	0
15.72786	0.009657594	0.0103471	-0.002382478	-0.00736246	-0.01506592	-0.05176777	0	0
15.74443	0.009631281	0.01032834	-0.001588383	-0.001132736	0.01597783	0.1253471	0	0
15.76162	0.009631281	0.01029081	0	-0.002182414	0.04704384	-0.03108877	0	0
15.77756	0.009604968	0.01027204	-0.001651156	-0.001177544	-0.04983343	0.03032791	0	0
15.79413	0.009604968	0.01023451	0	-0.002265584	0.05080141	-0.03347593	0	0
15.81069	0.009552341	0.01012191	-0.003176583	-0.006796475	-0.09587222	-0.1367465	0	0
15.82726	0.009499714	0.009971772	-0.003176766	-0.009062844	-5.51623E-06	-0.06840114	0	0
15.84383	0.009210266	0.009577629	-0.0174721	-0.0237919	-0.4314588	-0.4445493	0	0
15.86039	0.008683993	0.00908958	-0.03176594	-0.02945872	-0.4314014	-0.1710298	0	0
15.87696	0.008447167	0.00884553	-0.01429561	-0.01473175	0.5272706	0.4444734	0	0
15.89371	0.008473481	0.008789208	0.001570482	-0.003361467	0.4761536	0.3412309	0	0
15.91009	0.008420854	0.008714111	-0.003213019	-0.004584868	-0.1443663	-0.03692232	0	0
15.92674	0.008420854	0.008676561	0	-0.002255616	0.0972855	0.07052637	0	0
15.94325	0.008420854	0.00852636	0	-0.009098617	0	-0.2063915	0	0
15.95979	0.008578737	0.008338599	0.009543044	-0.01134891	0.2887243	-0.06808242	0	0
15.97636	0.008920816	0.008056939	0.02064909	-0.01700206	0.3354224	-0.1707353	0	0
15.99293	0.009210266	0.007812814	0.01747126	-0.0147354	-0.09590977	0.06840983	0	0
16.00949	0.00939446	0.007643795	0.01111798	-0.01020202	-0.1917423	0.1368177	0	0
16.04832	0.00939446	0.007643795	0	0	-0.2006963	0.1841619	0	0
16.06477	0.00939446	0.007643795	0	0	0	0	0	0
16.08134	0.00939446	0.007643795	0	0	0	0	0	0
16.0979	0.00939446	0.007643795	0	0	0	0	0	0
16.11447	0.00939446	0.007643795	0	0	0	0	0	0
16.13104	0.00939446	0.007643795	0	0	0	0	0	0
16.1476	0.00939446	0.007643795	0	0	0	0	0	0
16.16417	0.00939446	0.007643795	0	0	0	0	0	0
16.18074	0.00939446	0.007643795	0	0	0	0	0	0
16.19731	0.00939446	0.007643795	0	0	0	0	0	0
16.21395	0.00939446	0.007643795	0	0	0	0	0	0
16.23046	0.00939446	0.007643795	0	0	0	0	0	0
16.24701	0.00939446	0.007643795	0	0	0	0	0	0
16.26357	0.00939446	0.007643795	0	0	0	0	0	0
16.28014	0.00939446	0.007681355	0	0.002267169	0	0.06842722	0	0
16.31351	0.009368147	0.007700135	-0.0007883821	0.0005626717	-0.01578535	-0.03412822	0	0
16.32984	0.009368147	0.007700135	0	0	0.01586289	-0.01132141	0	0
16.34641	0.009368147	0.007700135	0	0	0	0	0	0
16.36305	0.009368147	0.007700135	0	0	0	0	0	0
16.37956	0.009368147	0.007700135	0	0	0	0	0	0
16.3961	0.009368147	0.007700135	0	0	0	0	0	0
16.41267	0.009368147	0.007700135	0	0	0	0	0	0
16.42924	0.009368147	0.007700135	0	0	0	0	0	0
16.4458	0.009368147	0.007700135	0	0	0	0	0	0
16.46237	0.009368147	0.007700135	0	0	0	0	0	0
16.47894	0.009368147	0.007700135	0	0	0	0	0	0
16.49551	0.009368147	0.007700135	0	0	0	0	0	0
16.51216	0.009368147	0.007700135	0	0	0	0	0	0
16.52867	0.009368147	0.007700135	0	0	0	0	0	0
16.54521	0.009368147	0.007700135	0	0	0	0	0	0
16.56219	0.009368147	0.007700135	0	0	0	0	0	0
16.5787	0.009368147	0.007700135	0	0	0	0	0	0
16.59491	0.009368147	0.007700135	0	0	0	0	0	0
16.61147	0.009368147	0.007700135	0	0	0	0	0	0
16.62824	0.009368147	0.007700135	0	0	0	0	0	0
16.64475	0.009368147	0.007700135	0	0	0	0	0	0
16.66118	0.009368147	0.007700135	0	0	0	0	0	0
16.67774	0.00939446	0.007681355	0.001588657	-0.001133831	0.04815644	-0.03436946	0	0
16.69431	0.00939446	0.007681355	0	0	-0.04794853	0.03422107	0	0
16.71088	0.00939446	0.007681355	0	0	0	0	0	0
16.72744	0.00939446	0.007681355	0	0	0	0	0	0
16.74926	0.00939446	0.007681355	0	0	0	0	0	0
16.76584	0.00939446	0.007681355	0	0	0	0	0	0
16.78285	0.00939446	0.007681355	0	0	0	0	0	0
16.79897	0.00939446	0.007681355	0	0	0	0	0	0
16.81553	0.00939446	0.007681355	0	0	0	0	0	0
16.8321	0.00939446	0.007681355	0	0	0	0	0	0
16.84866	0.00939446	0.007681355	0	0	0	0	0	0
16.86523	0.00939446	0.007681355	0	0	0	0	0	0
16.89844	0.00939446	0.007681355	0	0	0	0	0	0
16.91493	0.00939446	0.007681355	0	0	0	0	0	0
16.9315	0.00939446	0.007681355	0	0	0	0	0	0
16.94806	0.00939446	0.007681355	0	0	0	0	0	0
16.96463	0.00939446	0.007681355	0	0	0	0	0	0
16.9812	0.00939446	0.007681355	0	0	0	0	0	0
16.99776	0.00939446	0.007681355	0	0	0	0	0	0
17.01433	0.00939446	0.007681355	0	0	0	0	0	0
17.0309	0.00939446	0.007681355	0	0	0	0	0	0
17.04754	0.00939446	0.007681355	0	0	0	0	0	0
17.06405	0.00939446	0.007681355	0	0	0	0	0	0
17.0806	0.00939446	0.007681355	0	0	0	0	0	0
17.141	0.00939446	0.007681355	0	0	0	0	0	0
17.15762	0.009420774	0.007662575	0.001583188	-0.001129956	0.02055639	-0.01467154	0	0
17.17413	0.00939446	0.007643795	-0.001593612	-0.001137368	-0.09588153	-0.0002236984	0	0
17.19069	0.00939446	0.007643795	0	0	0.04817573	0.03438322	0	0
17.20765	0.00939446	0.007643795	0	0	0	0	0	0
17.22383	0.00939446	0.007643795	0	0	0	0	0	0
17.2404	0.009420774	0.007625014	0.001588291	-0.001133598	0.04850997	-0.03462263	0	0
17.25696	0.009420774	0.007625014	0	0	-0.04793749	0.03421404	0	0
17.2737	0.009420774	0.007625014	0	0	0	0	0	0
17.29021	0.009473401	0.007587453	0.003187224	-0.002274792	0.09586502	-0.06842098	0	0
17.30666	0.009552341	0.00753111	0.004797961	-0.003424507	0.04886246	-0.03487715	0	0
17.32323	0.009762848	0.007380859	0.01270476	-0.009068165	0.2394407	-0.1709064	0	0
17.33979	0.01013123	0.007117902	0.02224086	-0.01587572	0.2878169	-0.2054642	0	0
17.35636	0.01118374	0.006366486	0.06352974	-0.04535557	1.246244	-0.8898062	0	0
17.37292	0.01192049	0.005840396	0.04448015	-0.03176218	-0.5749841	0.4102967	0	0
17.45583	0.03311946	0.0220371	0.2557144	0.195374	2.123716	2.283592	0	0
17.47233	0.03792917	0.02613065	0.2914891	0.2480871	0.3599012	0.5303047	0	0
17.48889	0.06013792	0.04736577	1.340523	1.281754	31.72382	31.25912	0	0
17.50546	0.08207835	0.07771152	1.324327	1.831673	-0.488811	16.59657	0	0
17.52203	0.09711459	0.1168059	0.9075897	2.359741	-12.57714	15.93713	0	0
17.53888	0.104044	0.1473483	0.4111124	1.812043	-14.8546	-16.38711	0	0
17.55516	0.1078171	0.1669591	0.2318026	1.204791	-5.411892	-18.32796	0	0
17.57191	0.1148606	0.2018057	0.4206434	2.081064	5.718648	26.53608	0	0
17.59446	0.1218927	0.2345929	0.3117304	1.453451	-2.771122	-15.96864	0	0
17.61103	0.1245623	0.2486406	0.1611357	0.8479216	-3.849023	-15.47661	0	0
17.6276	0.1250804	0.2605756	0.03127608	0.7203969	-3.919172	-3.848704	0	0
17.64417	0.122489	0.2636561	-0.1564209	0.1859386	-5.664706	-16.12998	0	0
17.66073	0.1202071	0.2649812	-0.137717	0.07997403	0.5644516	-3.197833	0	0
17.6773	0.1203627	0.264838	0.009395421	-0.008649168	4.440117	-2.674807	0	0
17.69386	0.1203368	0.264641	-0.001565648	-0.01189011	-0.3308629	-0.09782881	0	0
17.71043	0.1203368	0.264641	0	0	0.04725408	0.358865	0	0
17.72702	0.1203368	0.264641	0	0	0	0	0	0
17.74356	0.1203368	0.2646052	0	-0.002163184	0	-0.06528879	0	0
17.76013	0.1203368	0.2646052	0	0	0	0.06532264	0	0
17.7767	0.1203627	0.2645873	0.001565648	-0.001081246	0.04725136	-0.03263208	0	0
17.79356	0.1203368	0.2645694	-0.001538022	-0.001062168	-0.0928459	0.0005707376	0	0
17.81007	0.1203368	0.2645694	0	0	0.046086	0.03182727	0	0
17.8264	0.1203368	0.2645694	0	0	0	0	0	0
17.84296	0.1202331	0.2644977	-0.006263043	-0.004324986	-0.190411	-0.1314896	0	0
17.85953	0.119377	0.2639068	-0.05166944	-0.03566803	-1.370447	-0.9459894	0	0
17.87612	0.1189101	0.2635486	-0.02815177	-0.0215915	0.7093156	0.4245618	0	0
17.89266	0.1188582	0.263477	-0.003136619	-0.004328669	0.7550022	0.5210232	0	0
17.9258	0.1187284	0.2632442	-0.003915244	-0.007026393	-0.01567319	-0.05430332	0	0
17.94236	0.1185468	0.263083	-0.01096449	-0.009729419	-0.1418365	-0.05438708	0	0
17.95893	0.1184949	0.2630472	-0.003132735	-0.002162244	0.2363763	0.2283909	0	0
17.9755	0.118443	0.2630114	-0.003132285	-0.002162244	1.357586E-05	0	0	0
17.99206	0.1183911	0.2629756	-0.003132285	-0.002160445	0	5.429642E-05	0	0
18.00863	0.1183911	0.2629756	0	0	0.09453256	0.06520236	0	0
18.0252	0.1183911	0.2629756	0	0	0	0	0	0
18.04176	0.1183911	0.2629756	0	0	0	0	0	0
18.05833	0.1183911	0.2629756	0	0	0	0	0	0
18.07526	0.1183911	0.2629756	0	0	0	0	0	0
18.09146	0.1183911	0.2629756	0	0	0	0	0	0
18.10803	0.1183911	0.2629756	0	0	0	0	0	0
18.1246	0.1183911	0.2629756	0	0	0	0	0	0
18.14116	0.1183911	0.2629756	0	0	0	0	0	0
18.15782	0.1183911	0.2629756	0	0	0	0	0	0
18.17433	0.1183652	0.2629577	-0.001571796	-0.001084869	-0.0473878	-0.03270752	0	0
18.19086	0.1183652	0.2629577	0	0	0.04756559	0.03283023	0	0
18.20743	0.1183652	0.2629577	0	0	0	0	0	0
18.224	0.1183392	0.2629756	-0.001566368	0.001081122	-0.04727851	0.03263208	0	0
18.24056	0.1183392	0.2629756	0	0	0.04727035	-0.03262645	0	0
18.25713	0.1183392	0.2629756	0	0	0	0	0	0
18.27369	0.1183392	0.2629756	0	0	0	0	0	0
18.29026	0.1183392	0.2629756	0	0	0	0	0	0
18.3626	0.1182614	0.2629219	-0.001076183	-0.0007427921	-0.01210482	-0.008354865	0	0
18.37917	0.1182354	0.262904	-0.001565918	-0.001081122	-0.005508375	-0.003805425	0	0
18.39573	0.1181835	0.2628323	-0.003132735	-0.004324488	-0.04728664	-0.09788498	0	0
18.4123	0.1181057	0.2627786	-0.004699103	-0.003241567	-0.04727306	0.03268262	0	0
18.42901	0.1180538	0.2627428	-0.003106981	-0.002144468	0.047852	0.03297385	0	0
18.44552	0.1180019	0.2626711	-0.003142867	-0.004338473	-0.001080297	-0.06604791	0	0
18.46203	0.1178202	0.2624025	-0.01100348	-0.01627123	-0.2380284	-0.3613377	0	0
18.47857	0.1148347	0.2598412	-0.1805196	-0.1548679	-5.129292	-4.193718	0	0
18.49513	0.107661	0.2528533	-0.4330495	-0.4218408	-7.628396	-8.064688	0	0
18.5117	0.1047468	0.23847	-0.175904	-0.8681742	7.761114	-13.47114	0	0
18.52827	0.1044865	0.2248935	-0.01571135	-0.8194814	4.834624	1.46955	0	0
18.54484	0.1035233	0.1805105	-0.05813149	-2.678653	-1.280169	-56.10669	0	0
18.5614	0.1015443	0.1387282	-0.1194692	-2.522275	-1.851175	4.719498	0	0
18.57811	0.09953837	0.1062482	-0.1200402	-1.943712	-0.0171592	17.387	0	0
18.59462	0.09667141	0.06410268	-0.1736499	-2.552728	-1.613764	-18.33263	0	0
18.61114	0.09528948	0.04465291	-0.08369265	-1.177923	2.724166	41.63309	0	0
18.62767	0.09307242	0.0193803	-0.1340845	-1.528449	-1.524868	-10.60699	0	0
18.64424	0.09035854	-0.005226598	-0.1638102	-1.485276	-0.8980013	1.304257	0	0
18.66081	0.08662478	-0.01616073	-0.2253444	-0.6599098	-1.856997	24.90815	0	0
18.67737	0.08181695	-0.0220682	-0.2902346	-0.3566163	-1.958391	9.153414	0	0
18.69394	0.0778947	-0.02472259	-0.2367745	-0.1602377	1.613614	5.927403	0	0
18.7105	0.07582802	-0.02625937	-0.1247455	-0.0927604	3.381238	2.036585	0	0
18.72722	0.07331572	-0.02808173	-0.1502926	-0.1090187	-0.7675667	-0.4884818	0	0
18.74364	0.07328955	-0.02813869	-0.001594175	-0.003469701	4.487726	3.185474	0	0
18.76021	0.07326338	-0.0281197	-0.001579859	0.001146219	0.0004339976	0.139937	0	0
18.77677	0.07326338	-0.0281197	0	0	0.04768024	-0.03459295	0	0
18.79334	0.0732372	-0.02810072	-0.001580309	0.001146106	-0.04769382	0.03458955	0	0
18.80991	0.0732372	-0.02810072	0	0	0.04769382	-0.03458955	0	0
18.82648	0.0732372	-0.02810072	0	0	0	0	0	0
18.84331	0.0732372	-0.02810072	0	0	0	0	0	0
18.85982	0.0732372	-0.02810072	0	0	0	0	0	0
18.87633	0.0732372	-0.02813869	0	-0.002300269	0	-0.06965483	0	0
18.89284	0.0732372	-0.02813869	0	0	0	0.06965483	0	0
18.90931	0.0732372	-0.02813869	0	0	0	0	0	0
18.92588	0.0732372	-0.02813869	0	0	0	0	0	0
18.94244	0.0732372	-0.02813869	0	0	0	0	0	0
18.95901	0.07321102	-0.0281197	-0.001579677	0.001146087	-0.04767201	0.03458697	0	0
18.9759	0.07321102	-0.0281197	0	0	0.04721005	-0.03425181	0	0
18.99215	0.0732372	-0.02813869	0.001611586	-0.001169237	0.04864057	-0.03528968	0	0
19.00871	0.0732372	-0.02813869	0	0	-0.04912129	0.03563845	0	0
19.03024	0.07321102	-0.0281197	-0.001215793	0.0008820816	-0.03191437	0.0231545	0	0
19.04695	0.07315867	-0.02808173	-0.003132669	0.002272701	-0.05012944	0.03636697	0	0
19.06347	0.0731325	-0.02806274	-0.001584968	0.001149813	0.04658366	-0.03379739	0	0
19.07998	0.07287074	-0.02787286	-0.01585287	0.01149946	-0.4320236	0.3133811	0	0
19.09651	0.07250426	-0.02760705	-0.02216922	0.01607942	-0.191156	0.1386067	0	0
19.11308	0.07229484	-0.02753111	-0.01264067	0.004583863	0.287887	-0.3473165	0	0
19.12964	0.07200687	-0.02762604	-0.01738205	-0.005729856	-0.143095	-0.3112687	0	0
19.14621	0.07171889	-0.02783489	-0.0173825	-0.01260616	-1.354775E-05	-0.2075271	0	0
19.16304	0.06847174	-0.03015216	-0.1929549	-0.1376992	-5.257326	-3.745775	0	0
19.19606	0.04772689	-0.04514299	-0.6282144	-0.4539657	-8.731301	-6.344305	0	0
19.21248	0.03787661	-0.05227428	-0.600021	-0.4343966	0.5702715	0.3958279	0	0
19.22905	0.0265201	-0.06051705	-0.6854017	-0.4974776	-2.588418	-1.912375	0	0
19.24561	0.01970797	-0.06549335	-0.4112753	-0.3004387	8.273628	5.946988	0	0
19.26218	0.01415695	-0.06955387	-0.3350605	-0.2450936	2.300431	1.670511	0	0
19.27874	0.0117363	-0.07136471	-0.1461104	-0.1093026	5.702526	4.09818	0	0
19.29531	0.00826297	-0.07394817	-0.2096509	-0.1559379	-1.917654	-1.407456	0	0
19.31188	0.007578802	-0.0744883	-0.04130117	-0.03260605	5.081096	3.722377	0	0
19.32865	0.007631431	-0.0744883	0.003136941	0	1.332782	0.9779168	0	0
19.34501	0.007657745	-0.07450759	0.00160888	-0.001179391	-0.04611962	-0.03559615	0	0
19.36158	0.007710373	-0.07443042	0.003176667	0.004657729	0.04762019	0.1772975	0	0
19.37819	0.007710373	-0.07443042	0	0	-0.09573423	-0.1403685	0	0
19.39471	0.007736688	-0.07441112	0.001592904	0.001168132	0.04807394	0.03525428	0	0
19.41128	0.007841945	-0.07429538	0.006354066	0.006987173	0.1439075	0.1758823	0	0
19.42784	0.007973515	-0.07419892	0.007941625	0.005822049	0.0479154	-0.03516554	0	0
19.44441	0.008078772	-0.07408319	0.006353278	0.006985919	-0.04793642	0.03512567	0	0
19.46098	0.008184028	-0.07400603	0.006353278	0.004657279	0	-0.07027849	0	0
19.47776	0.008394539	-0.07385173	0.01254047	0.00919196	0.1855018	0.1359569	0	0
19.49427	0.008473481	-0.07375529	0.004781445	0.005841324	-0.2330276	-0.10063	0	0
19.51078	0.008473481	-0.07325387	0	0.03037397	-0.1448128	0.7430057	0	0
19.52724	0.008105085	-0.0723284	-0.02238071	0.05622375	-0.6788508	0.7840745	0	0
19.54381	0.003052622	-0.06585874	-0.3049322	0.3904645	-8.554503	10.11944	0	0
19.56038	-0.00294736	-0.05994121	-0.3622013	0.3572242	-1.728387	-1.003193	0	0
19.57694	-0.01160474	-0.05363368	-0.5225607	0.3807233	-4.839932	0.709246	0	0
19.59351	-0.01731406	-0.04948088	-0.3446548	0.2506922	5.369519	-3.924573	0	0
19.61035	-0.02220687	-0.04588781	-0.2904817	0.2133173	1.621505	-1.118704	0	0
19.62664	-0.02880782	-0.04079235	-0.4052453	0.3128204	-3.463771	3.003184	0	0
19.64321	-0.03191022	-0.03823835	-0.1872613	0.1541599	6.634529	-4.828967	0	0
19.65978	-0.03403948	-0.03095032	-0.1285076	0.439856	1.773088	8.621829	0	0
19.6764	-0.03175248	-0.02356576	0.1375525	0.4441477	8.014945	0.129286	0	0
19.69291	-0.0300173	-0.02068502	0.1051232	0.1745248	-0.9787732	-8.137704	0	0
19.70947	-0.02922852	-0.01924563	0.04762193	0.08690135	-1.738795	-2.649668	0	0
19.72643	-0.02920222	-0.01930244	0.001550462	-0.003349705	-1.374379	-2.692321	0	0
19.74261	-0.02912334	-0.01935924	0.004876939	-0.00351217	0.1003991	-0.004903494	0	0
19.81349	-0.02854488	-0.01992736	0.008160645	-0.008014702	0.03771816	-0.05171816	0	0
19.8298	-0.02854488	-0.01992736	0	0	-0.09359544	0.09192161	0	0
19.84636	-0.02854488	-0.01992736	0	0	0	0	0	0
19.86293	-0.02851858	-0.0199463	0.001587167	-0.001143071	0.0479008	-0.03449794	0	0
19.8795	-0.02849229	-0.01992736	0.001587167	0.001143071	0	0.06899587	0	0
19.89607	-0.0284397	-0.01996524	0.003174222	-0.002286253	0.0478974	-0.1034972	0	0
19.91263	-0.02820305	-0.0201357	0.01428439	-0.01028887	0.3353056	-0.2415195	0	0
19.9292	-0.02772973	-0.02047664	0.02856923	-0.02057943	0.4311173	-0.3105696	0	0
19.94577	-0.02654639	-0.02129127	0.07142645	-0.04917081	1.293434	-0.8628896	0	0
19.96234	-0.02623083	-0.02151864	0.0190478	-0.01372438	-1.580791	1.069775	0	0
19.97911	-0.02620453	-0.02153759	0.00156754	-0.001129442	-0.5242358	0.3777242	0	0
19.99547	-0.02602044	-0.02167024	0.01125524	-0.008110081	0.2923922	-0.2106882	0	0
20.01214	-0.02559967	-0.02197344	0.02524379	-0.0181905	0.4235895	-0.3052468	0	0
20.06174	-0.009078698	-0.03397378	0.3330929	-0.2419487	4.645586	-3.376615	0	0
20.0783	-0.001447367	-0.04010599	0.460628	-0.370141	1.927505	-1.937437	0	0
20.0952	0.008578737	-0.04883075	0.5934259	-0.5164016	3.968554	-4.370876	0	0
20.11144	0.01641958	-0.05468717	0.4828351	-0.3606358	-3.337636	4.701021	0	0
20.128	0.02562597	-0.06151546	0.5557629	-0.4122036	2.223104	-1.571975	0	0
20.14473	0.03154217	-0.06587797	0.3536418	-0.2607701	-6.070673	4.548278	0	0
20.16113	0.03574792	-0.06895693	0.2563985	-0.1877044	-2.934976	2.205256	0	0
20.17775	0.03687801	-0.06978497	0.06800072	-0.04982587	-5.705234	4.175363	0	0
20.19427	0.03682545	-0.06974645	-0.003182427	0.002332292	-2.148312	1.574136	0	0
20.21083	0.03679917	-0.06972719	-0.001586338	0.001162655	0.04824785	-0.0353567	0	0
20.2274	0.03679917	-0.06972719	0	0	0.04788128	-0.03509303	0	0
20.24632	0.03677289	-0.06970793	-0.001389042	0.001017909	-0.03914314	0.02868462	0	0
20.26289	0.03643124	-0.06945758	-0.02062182	0.01511142	-0.5419495	0.3971332	0	0
20.32121	0.03614215	-0.06924576	-0.004956454	0.003631612	0.2091672	-0.1532809	0	0
20.33778	0.03430233	-0.06789816	-0.111039	0.08133157	-1.416401	1.03744	0	0
20.35435	0.03188393	-0.06612802	-0.1459748	0.1068462	-1.054305	0.7699899	0	0
20.37092	0.02775603	-0.06310979	-0.2491606	0.1821807	-3.114152	2.2736	0	0
20.38749	0.02512629	-0.06118902	-0.1587313	0.1159377	2.729162	-1.999218	0	0
20.40408	0.01955014	-0.05712125	-0.336074	0.2451642	-5.348211	3.897147	0	0
20.42062	0.01423588	-0.05321239	-0.3212873	0.23632	0.4462907	-0.2669342	0	0
20.52002	-0.01802436	-0.02982916	-0.3245325	0.2352313	-0.02798923	-0.00939032	0	0
20.53659	-0.0178139	-0.03001916	0.01270633	-0.0114709	2.908016	-2.127317	0	0
20.55315	-0.01773498	-0.03007616	0.00476375	-0.00344068	-0.2397352	0.2423804	0	0
20.56972	-0.01734037	-0.03043719	0.02381897	-0.0217921	0.5750878	-0.5538468	0	0
20.58629	-0.01728775	-0.03055121	0.003175908	-0.006882258	-0.6230089	0.4499798	0	0
20.60285	-0.01728775	-0.03055121	0	0	-0.09586013	0.2077309	0	0
20.61942	-0.01728775	-0.03055121	0	0	0	0	0	0
20.63598	-0.01728775	-0.03055121	0	0	0	0	0	0
20.65255	-0.01728775	-0.03055121	0	0	0	0	0	0
20.66912	-0.01726144	-0.03057022	0.001587406	-0.00114661	0.04789973	-0.03459877	0	0
20.68569	-0.01726144	-0.03060823	0	-0.002295029	-0.047908	-0.03465936	0	0
20.7068	-0.01707729	-0.03074126	0.008723417	-0.006301599	0.2315621	-0.1063539	0	0
20.72337	-0.01691944	-0.0308933	0.00952674	-0.009176225	0.02131979	-0.07629118	0	0
20.73993	-0.01673528	-0.03106436	0.01111707	-0.01032626	0.04799629	-0.03470819	0	0
20.75666	-0.01673528	-0.03106436	0	0	-0.3338611	0.310112	0	0
20.77307	-0.01673528	-0.03106436	0	0	0	0	0	0
20.78963	-0.01673528	-0.03106436	0	0	0	0	0	0
20.8062	-0.01673528	-0.03106436	0	0	0	0	0	0
20.82277	-0.01668266	-0.03110237	0.003175655	-0.002294197	0.09584145	-0.069239	0	0
20.83933	-0.0164985	-0.03123542	0.01111718	-0.008031988	0.2396758	-0.1731669	0	0
20.8559	-0.01607756	-0.03153956	0.02540805	-0.01835805	0.4313241	-0.3116591	0	0
20.87247	-0.01515673	-0.03220498	0.05558126	-0.04016453	0.9106292	-0.658121	0	0
20.88903	-0.0137886	-0.03319386	0.08258075	-0.05968904	0.8148464	-0.5892507	0	0
20.93873	-0.01373598	-0.0332319	0.001058789	-0.0007653743	-1.230204	0.8891854	0	0
20.9553	-0.01373598	-0.0332319	0	0	-0.01597762	0.01154985	0	0
20.97187	-0.01373598	-0.0332319	0	0	0	0	0	0
20.98843	-0.01373598	-0.0332319	0	0	0	0	0	0
21.005	-0.01373598	-0.0332319	0	0	0	0	0	0
21.02159	-0.01373598	-0.0332319	0	0	0	0	0	0
21.03813	-0.01373598	-0.0332319	0	0	0	0	0	0
21.05488	-0.01376229	-0.03321288	-0.001571478	0.001136097	-0.04720989	0.03413029	0	0
21.07139	-0.0137886	-0.03319386	-0.001593443	0.00115175	-0.0006605029	0.0004707251	0	0
21.0879	-0.01384122	-0.03311778	-0.003187254	0.004608211	-0.04826523	0.1046717	0	0
21.10441	-0.01384122	-0.0330417	0	0.004607227	0.09651931	-2.978253E-05	0	0
21.12097	-0.01386753	-0.03302268	-0.001589037	0.001148791	-0.04805129	-0.1045805	0	0
21.13753	-0.01384122	-0.03300367	0.001588488	0.001148169	0.09593658	-1.877275E-05	0	0
21.1541	-0.01384122	-0.03300367	0	0	-0.0479462	-0.03465581	0	0
21.17067	-0.01386753	-0.03302268	-0.001588123	-0.001147905	-0.04792964	-0.03464384	0	0
21.18723	-0.01384122	-0.0330417	0.00158794	-0.001147998	0.09584824	-2.796522E-06	0	0
21.2038	-0.0137886	-0.03307974	0.003176611	-0.002296074	0.04794619	-0.03464902	0	0
21.2205	-0.0137886	-0.03307974	0	0	-0.09550746	0.06903338	0	0
21.23694	-0.01376229	-0.03309876	0.001600282	-0.001156921	0.04829384	-0.03491393	0	0
21.25352	-0.01373598	-0.03311778	0.001586114	-0.001146453	-0.0004289555	0.0003169126	0	0
21.27007	-0.01373598	-0.03311778	0	0	-0.04787177	0.03460202	0	0
21.28663	-0.01373598	-0.03315582	0	-0.002296299	0	-0.06935435	0	0
21.3032	-0.01373598	-0.03315582	0	0	0	0.06930644	0	0
21.32007	-0.01373598	-0.03315582	0	0	0	0	0	0
21.33634	-0.01373598	-0.03315582	0	0	0	0	0	0
21.3529	-0.01373598	-0.03315582	0	0	0	0	0	0
21.36947	-0.01373598	-0.03315582	0	0	0	0	0	0
21.38603	-0.01376229	-0.0331368	-0.001588306	0.001148037	-0.04793792	0.03464982	0	0
21.4026	-0.01376229	-0.0331368	0	0	0.04793792	-0.03464982	0	0
21.41917	-0.01376229	-0.0331368	0	0	0	0	0	0
21.43574	-0.01376229	-0.0331368	0	0	0	0	0	0
21.45721	-0.01376229	-0.0331368	0	0	0	0	0	0
21.47378	-0.01376229	-0.0331368	0	0	0	0	0	0
21.49035	-0.01376229	-0.0331368	0	0	0	0	0	0
21.50691	-0.01376229	-0.0331368	0	0	0	0	0	0
21.52348	-0.01376229	-0.0331368	0	0	0	0	0	0
21.54005	-0.01376229	-0.0331368	0	0	0	0	0	0
21.55673	-0.01376229	-0.0331368	0	0	0	0	0	0
21.57318	-0.01376229	-0.03317484	0	-0.002312542	0	-0.06979667	0	0
21.58976	-0.01376229	-0.03317484	0	0	0	0.07002644	0	0
21.60631	-0.01376229	-0.03317484	0	0	0	0	0	0
21.62328	-0.0137886	-0.03319386	-0.001550982	-0.001121279	-0.04626806	-0.0334494	0	0
21.6398	-0.01376229	-0.03321288	0.001592891	-0.001151351	0.09389852	-0.0008981737	0	0
21.65631	-0.0137886	-0.0332319	-0.001593443	-0.001151976	-0.09646916	-1.89129E-05	0	0
21.67258	-0.0137886	-0.0332319	0	0	0.04859935	0.0351348	0	0
21.68915	-0.0137886	-0.0332319	0	0	0	0	0	0
21.70571	-0.0137886	-0.0332319	0	0	0	0	0	0
21.72235	-0.0137886	-0.0332319	0	0	0	0	0	0
21.73885	-0.0137886	-0.0332319	0	0	0	0	0	0
21.75541	-0.01381491	-0.03321288	-0.001588306	0.001148262	-0.0480347	0.03472658	0	0
21.77198	-0.01381491	-0.03321288	0	0	0.04793792	-0.03465661	0	0
21.78889	-0.01381491	-0.03321288	0	0	0	0	0	0
21.87138	-0.01381491	-0.03321288	0	0	0	0	0	0
21.88796	-0.01381491	-0.03321288	0	0	0	0	0	0
21.90451	-0.01381491	-0.03321288	0	0	0	0	0	0
21.92108	-0.01381491	-0.03321288	0	0	0	0	0	0
21.93765	-0.01381491	-0.03321288	0	0	0	0	0	0
21.95451	-0.01381491	-0.03321288	0	0	0	0	0	0
21.97078	-0.01381491	-0.03321288	0	0	0	0	0	0
21.98735	-0.01381491	-0.03321288	0	0	0	0	0	0
22.00405	-0.01381491	-0.03321288	0	0	0	0	0	0
22.02056	-0.01381491	-0.03321288	0	0	0	0	0	0
22.03705	-0.0137886	-0.0332319	0.001595655	-0.001153575	0.04835178	-0.03495582	0	0
22.05362	-0.0137886	-0.0332319	0	0	-0.04827087	0.03489732	0	0
22.07018	-0.0137886	-0.0332319	0	0	0	0	0	0
22.08675	-0.0137886	-0.0332319	0	0	0	0	0	0
22.10332	-0.01381491	-0.03321288	-0.001588123	0.00114813	-0.04792964	0.03465063	0	0
22.12013	-0.01381491	-0.03321288	0	0	0.04757363	-0.03439325	0	0
22.13665	-0.01381491	-0.03321288	0	0	0	0	0	0
22.15302	-0.01381491	-0.03321288	0	0	0	0	0	0
22.16959	-0.01381491	-0.03321288	0	0	0	0	0	0
22.18616	-0.01381491	-0.03321288	0	0	0	0	0	0
22.20862	-0.01381491	-0.03321288	0	0	0	0	0	0
22.22521	-0.01381491	-0.03321288	0	0	0	0	0	0
22.24176	-0.01381491	-0.03321288	0	0	0	0	0	0
22.25832	-0.01381491	-0.03321288	0	0	0	0	0	0
22.27489	-0.01381491	-0.03321288	0	0	0	0	0	0
22.29176	-0.01381491	-0.03321288	0	0	0	0	0	0
22.30827	-0.01381491	-0.03321288	0	0	0	0	0	0
22.32479	-0.01381491	-0.03321288	0	0	0	0	0	0
22.34129	-0.01381491	-0.03321288	0	0	0	0	0	0
22.35781	-0.01381491	-0.03321288	0	0	0	0	0	0
22.37429	-0.0137886	-0.0332319	0.001596024	-0.001153842	0.04836297	-0.03496391	0	0
22.39086	-0.0137886	-0.0332319	0	0	-0.04828762	0.03490943	0	0
22.40784	-0.0137886	-0.0332319	0	0	0	0	0	0
22.42399	-0.0137886	-0.0332319	0	0	0	0	0	0
22.44056	-0.0137886	-0.0332319	0	0	0	0	0	0
22.45712	-0.0137886	-0.0332319	0	0	0	0	0	0
22.47369	-0.0137886	-0.0332319	0	0	0	0	0	0
22.50691	-0.0137886	-0.0332319	0	0	0	0	0	0
22.52342	-0.0137886	-0.0332319	0	0	0	0	0	0
22.53996	-0.01381491	-0.03325092	-0.00159087	-0.001150116	-0.04813724	-0.03480072	0	0
22.55652	-0.01381491	-0.03325092	0	0	0.04805404	0.03474057	0	0
22.57309	-0.01381491	-0.03325092	0	0	0	0	0	0
22.58997	-0.01381491	-0.03325092	0	0	0	0	0	0
22.60623	-0.01381491	-0.03325092	0	0	0	0	0	0
22.62279	-0.0137886	-0.03326994	0.001588306	-0.001148262	0.048392	-0.03498489	0	0
22.6395	-0.0137886	-0.03326994	0	0	-0.0477291	0.03450565	0	0
22.65602	-0.0137886	-0.03326994	0	0	0	0	0	0
22.67249	-0.0137886	-0.03326994	0	0	0	0	0	0
22.68906	-0.0137886	-0.03326994	0	0	0	0	0	0
22.72256	-0.0137886	-0.03326994	0	0	0	0	0	0
22.73876	-0.0137886	-0.03326994	0	0	0	0	0	0
22.75559	-0.0137886	-0.03326994	0	0	0	0	0	0
22.7721	-0.01381491	-0.03325092	-0.001593075	0.00115171	-0.0477793	0.03454194	0	0
22.78846	-0.01381491	-0.03325092	0	0	0.04846127	-0.03503497	0	0
22.80512	-0.01384122	-0.03326994	-0.001579214	-0.001141689	-0.04782872	-0.03457767	0	0
22.82159	-0.01386753	-0.03328896	-0.001597318	-0.001154551	-0.0005464001	-0.0003881887	0	0
22.83816	-0.01389384	-0.03326994	-0.001588123	0.001147905	0.0002783016	0.06968884	0	0
22.85473	-0.01392015	-0.03328896	-0.001588123	-0.001147905	0	-0.06928769	0	0
22.87129	-0.01397278	-0.03328896	-0.003176245	0	-0.04792964	0.03464384	0	0
22.88786	-0.01399909	-0.03330798	-0.001588306	-0.001148262	0.04792688	-0.03465661	0	0
22.90443	-0.0140254	-0.03328896	-0.001588066	0.00114813	7.216983E-06	0.06930923	0	0
22.92774	-0.0140254	-0.03328896	0	0	0.03981657	-0.02878632	0	0
22.94431	-0.0140254	-0.03328896	0	0	0	0	0	0
22.97775	-0.0140254	-0.03328896	0	0	0	0	0	0
22.99401	-0.01405171	-0.03330798	-0.001618115	-0.001169813	-0.03255654	-0.02353669	0	0
23.01077	-0.01405171	-0.03330798	0	0	0.04900973	0.03543148	0	0
23.02728	-0.01405171	-0.03330798	0	0	0	0	0	0
23.04379	-0.01405171	-0.03330798	0	0	0	0	0	0
23.06028	-0.01405171	-0.03330798	0	0	0	0	0	0
23.07685	-0.01405171	-0.03330798	0	0	0	0	0	0
23.09342	-0.01407802	-0.03328896	-0.001588306	0.001148262	-0.04793516	0.03465462	0	0
23.10998	-0.01407802	-0.03328896	0	0	0.04793792	-0.03465661	0	0
23.12686	-0.01410433	-0.03326994	-0.001559398	0.001127143	-0.04663322	0.03370678	0	0
23.14312	-0.01410433	-0.03326994	0	0	0.04706543	-0.03401919	0	0
23.15969	-0.01413064	-0.03325092	-0.001587884	0.001147998	-0.0483679	0.03496871	0	0
23.1764	-0.01413064	-0.03325092	0	0	0.04771369	-0.03449573	0	0
23.19282	-0.01415695	-0.03326994	-0.001602141	-0.001158264	-0.04835549	-0.0349585	0	0
23.22595	-0.01415695	-0.03326994	0	0	0.03233068	0.02337339	0	0
23.24252	-0.01415695	-0.03326994	0	0	0	0	0	0
23.25945	-0.01415695	-0.03326994	0	0	0	0	0	0
23.27565	-0.01415695	-0.03326994	0	0	0	0	0	0
23.29247	-0.01415695	-0.03326994	0	0	0	0	0	0
23.30878	-0.01415695	-0.03326994	0	0	0	0	0	0
23.32549	-0.01415695	-0.03326994	0	0	0	0	0	0
23.34192	-0.01415695	-0.03326994	0	0	0	0	0	0
23.35852	-0.01418326	-0.03328896	-0.001584838	-0.001145531	-0.04799074	-0.03468801	0	0
23.37505	-0.01418326	-0.03328896	0	0	0.04783052	0.0345722	0	0
23.39162	-0.01418326	-0.03328896	0	0	0	0	0	0
23.40855	-0.01420957	-0.03330798	-0.001553547	-0.001123173	-0.04637098	-0.03352498	0	0
23.42475	-0.01420957	-0.03330798	0	0	0.04688885	0.03389939	0	0
23.44132	-0.01418326	-0.033327	0.001588066	-0.00114813	0.04846922	-0.03504196	0	0
23.45809	-0.01418326	-0.033327	0	0	-0.04763182	0.03443654	0	0
23.47445	-0.01418326	-0.033327	0	0	0	0	0	0
23.49112	-0.01415695	-0.03334602	0.001579033	-0.001141559	0.04781495	-0.03456772	0	0
23.50763	-0.01415695	-0.03334602	0	0	-0.04760051	0.03441269	0	0
23.57385	-0.01434112	-0.0335933	-0.002781028	-0.00373395	-0.03361365	-0.04513141	0	0
23.62355	-0.0167879	-0.03543905	-0.04922918	-0.03713651	-0.4006681	-0.288135	0	0
23.64012	-0.01723514	-0.03587687	-0.02699544	-0.02642655	0.3355078	0.1616136	0	0
23.65669	-0.01720883	-0.0358959	0.001587771	-0.001148897	0.8625935	0.7628372	0	0
23.67325	-0.01715621	-0.03597205	0.003176274	-0.004596871	0.0479411	-0.1040601	0	0
23.68982	-0.01641958	-0.03658131	0.04446339	-0.03677478	1.246119	-0.9711873	0	0
23.70638	-0.01186786	-0.04079235	0.2748052	-0.2542378	6.952529	-6.563802	0	0
23.72295	-0.00552626	-0.0515087	0.38278	-0.6468401	3.259062	-11.85013	0	0
23.73952	-0.002184207	-0.07844604	0.2017267	-1.625941	-5.4642	-29.54932	0	0
23.77671	0.000736842	-0.1419014	0.07854906	-1.706358	-2.291472	-1.496008	0	0
23.79327	0.001526315	-0.1799564	0.04765267	-2.297006	-0.5747652	-10.98782	0	0
23.80984	0.002184207	-0.2065926	0.03971047	-1.607763	-0.2396961	20.8014	0	0
23.82641	0.002789466	-0.2301838	0.03653353	-1.423969	-0.0958802	5.546922	0	0
23.84298	0.003105253	-0.243835	0.01906093	-0.8239867	-0.527324	18.1075	0	0
23.85954	0.003684194	-0.2660846	0.03494493	-1.342992	0.4793799	-15.66361	0	0
23.87611	0.003078938	-0.2858998	-0.03653334	-1.196048	-2.157218	4.434766	0	0
23.89268	0.002184207	-0.2940217	-0.05400604	-0.4902357	-0.527327	21.30147	0	0
23.90942	0.002894729	-0.2971994	0.04242801	-0.1897548	2.894722	9.019728	0	0
23.92592	-0.001052631	-0.3019015	-0.2392271	-0.2849689	-8.471596	-2.86384	0	0
23.94244	-0.00118421	-0.3019657	-0.007968715	-0.00388775	7.005199	8.514413	0	0
23.95894	-0.00118421	-0.3019657	0	0	0.2413298	0.1177392	0	0
23.97551	-0.001131578	-0.3019229	0.003177208	0.002583477	0.0960653	0.07811338	0	0
23.99247	-0.001157894	-0.3019015	-0.001551452	0.001261526	-0.1410388	-0.03942901	0	0
24.00864	-0.001131578	-0.3018802	0.001627203	0.001323122	0.095932	0.001858969	0	0
24.02521	-0.001131578	-0.3018802	0	0	-0.04970422	-0.0404158	0	0
24.04178	-0.001131578	-0.3018374	0	0.00258318	0	0.07796501	0	0
24.05834	-0.001131578	-0.3018374	0	0	0	-0.07796052	0	0
24.07503	-0.001131578	-0.3018374	0	0	0	0	0	0
24.09154	-0.001131578	-0.3018374	0	0	0	0	0	0
24.10806	-0.001131578	-0.3018374	0	0	0	0	0	0
24.12461	-0.001131578	-0.3018374	0	0	0	0	0	0
24.14157	-0.001131578	-0.3018374	0	0	0	0	0	0
24.15774	-0.001131578	-0.3018374	0	0	0	0	0	0
24.17431	-0.001131578	-0.3018374	0	0	0	0	0	0
24.19088	-0.001131578	-0.3018374	0	0	0	0	0	0
24.20744	-0.001131578	-0.3018374	0	0	0	0	0	0
24.22401	-0.001131578	-0.3018374	0	0	0	0	0	0
24.24058	-0.001131578	-0.3018374	0	0	0	0	0	0
24.25716	-0.001131578	-0.3018374	0	0	0	0	0	0
24.27371	-0.001157894	-0.301816	-0.001589889	0.001292781	-0.04798571	0.03901844	0	0
24.29028	-0.001157894	-0.301816	0	0	0.047994	-0.03902518	0	0
24.30684	-0.001157894	-0.301816	0	0	0	0	0	0
24.32341	-0.00118421	-0.3017946	-0.001588967	0.001292036	-0.04797167	0.0390072	0	0
24.33997	-0.00118421	-0.3017946	0	0	0.04796339	-0.03900046	0	0
24.35654	-0.00118421	-0.3017946	0	0	0	0	0	0
24.37311	-0.00118421	-0.3017946	0	0	0	0	0	0
24.45594	-0.00118421	-0.3017946	0	0	0	0	0	0
24.48911	-0.00118421	-0.3017946	0	0	0	0	0	0
24.50564	-0.00118421	-0.3017946	0	0	0	0	0	0
24.52221	-0.00118421	-0.3017946	0	0	0	0	0	0
24.56034	-0.00118421	-0.3017946	0	0	0	0	0	0
24.57691	-0.00118421	-0.3017946	0	0	0	0	0	0
24.59347	-0.00118421	-0.3017946	0	0	0	0	0	0
24.6104	-0.00118421	-0.3017946	0	0	0	0	0	0
24.62661	-0.00118421	-0.3017946	0	0	0	0	0	0
24.64317	-0.00118421	-0.3017946	0	0	0	0	0	0
24.66045	-0.00118421	-0.3017946	0	0	0	0	0	0
24.67631	-0.00118421	-0.3017946	0	0	0	0	0	0
24.69287	-0.001210526	-0.3017732	-0.001588608	0.001291739	-0.04899341	0.03983783	0	0
24.70944	-0.001263157	-0.3016447	-0.003176843	0.007751338	-0.04793578	0.1949623	0	0
24.72601	-0.001578946	-0.3007463	-0.01906105	0.05423239	-0.4793863	1.402801	0	0
24.74257	-0.002921044	-0.2956845	-0.08101854	0.3055628	-1.869989	7.585602	0	0
24.75914	-0.004078925	-0.2885323	-0.06988979	0.4317058	0.3358858	3.807225	0	0
24.77571	-0.005105219	-0.2595462	-0.06194724	1.74961	0.2397066	39.77441	0	0
24.79227	-0.005631519	-0.2286589	-0.03176757	1.864356	0.9108243	3.463055	0	0
24.80884	-0.006578852	-0.1825753	-0.05718113	2.781617	-0.7669828	27.68299	0	0
24.82541	-0.007315659	-0.147334	-0.04447373	2.127168	0.3835101	-19.75132	0	0
24.84207	-0.00826297	-0.113078	-0.05685902	2.056096	-0.3727376	-2.138913	0	0
24.87511	-0.008973443	-0.04541034	-0.02150402	2.048109	0.7113714	-0.1607054	0	0
24.89168	-0.008447167	-0.02458981	0.03176605	1.256729	1.073856	-15.9532	0	0
24.90862	-0.007105144	-0.005283157	0.07920825	1.139508	1.415754	-3.498086	0	0
24.92481	-0.005499945	0.003058273	0.09913849	0.515174	0.6014957	-18.84243	0	0
24.94138	-0.004157871	0.006610715	0.08100772	0.2144258	-0.5534641	-9.180708	0	0
24.95815	-0.002447363	0.006629501	0.1019669	0.001119882	0.6286041	-6.397445	0	0
24.97451	-0.002342101	0.006479209	0.006435903	-0.009189054	-2.883462	-0.3111601	0	0
24.99118	-0.002210523	0.006159818	0.007893908	-0.01916159	0.04415008	-0.3019799	0	0
25.00769	-0.002210523	0.006159818	0	0	-0.2379236	0.5775333	0	0
25.02421	-0.002210523	0.006159818	0	0	0	0	0	0
25.04078	-0.002210523	0.006159818	0	0	0	0	0	0
25.05734	-0.002210523	0.006159818	0	0	0	0	0	0
25.07391	-0.002210523	0.006159818	0	0	0	0	0	0
25.09048	-0.002210523	0.00612224	0	-0.00226818	0	-0.06845383	0	0
25.10726	-0.002236838	0.006065873	-0.001568019	-0.003358619	-0.04701707	-0.03269682	0	0
25.17333	-0.002263154	0.005971926	-0.0003982967	-0.001421922	0.01411799	0.02337502	0	0
25.18988	-0.002263154	0.005971926	0	0	0.004820901	0.01721065	0	0
25.20644	-0.002263154	0.005971926	0	0	0	0	0	0
25.22334	-0.002263154	0.005971926	0	0	0	0	0	0
25.23958	-0.002263154	0.005971926	0	0	0	0	0	0
25.25636	-0.002263154	0.005971926	0	0	0	0	0	0
25.27271	-0.002263154	0.005971926	0	0	0	0	0	0
25.28939	-0.002263154	0.005971926	0	0	0	0	0	0
25.3059	-0.002263154	0.005971926	0	0	0	0	0	0
25.32241	-0.002263154	0.005971926	0	0	0	0	0	0
25.33898	-0.002236838	0.005953137	0.001588418	-0.001134132	0.04801871	-0.03428542	0	0
25.37211	-0.002184207	0.005877977	0.001588509	-0.002268466	1.841103E-06	-0.02282371	0	0
25.38896	-0.002184207	0.005840396	0	-0.002230627	-0.03178279	0.0007570838	0	0
25.40525	-0.002157891	0.005821606	0.001615763	-0.001153714	0.04876381	0.03250129	0	0
25.42632	-0.00210526	0.005746443	0.00249742	-0.003566565	0.02359824	-0.06458184	0	0
25.44289	-0.002052629	0.005708861	0.00317647	-0.002268172	0.018039	0.03449189	0	0
25.45946	-0.001973682	0.005652487	0.004765802	-0.003403126	0.04796614	-0.03425298	0	0
25.47602	-0.001868419	0.005577321	0.006353671	-0.004537064	0.04792475	-0.03422427	0	0
25.49259	-0.001421052	0.005257844	0.02700314	-0.01928365	0.6232021	-0.4450529	0	0
25.50955	2.631579E-05	0.004224036	0.08535854	-0.06096883	1.740728	-1.243459	0	0
25.52606	0.003421039	0.001798042	0.2055686	-0.1469069	3.59156	-2.567603	0	0
25.54257	0.01539352	-0.006772894	0.7249975	-0.5190158	15.72709	-11.26659	0	0
25.55886	0.01949753	-0.00971665	0.2520124	-0.1807655	-14.42082	10.3129	0	0
25.57542	0.0242584	-0.01313551	0.2873997	-0.2063866	1.07723	-0.7799373	0	0
25.5921	0.02754566	-0.01549872	0.197081	-0.1416814	-2.716753	1.94631	0	0
25.60862	0.03051684	-0.01763657	0.1799413	-0.129473	-0.516386	0.3678142	0	0
25.62512	0.0321731	-0.01882909	0.1003305	-0.07223854	-2.410987	1.733326	0	0
25.64169	0.03306689	-0.01947286	0.05395528	-0.03886246	-1.402189	1.009151	0	0
25.65826	0.03306689	-0.01947286	0	0	-1.62828	1.172804	0	0
25.67483	0.03306689	-0.01947286	0	0	0	0	0	0
25.69139	0.0330406	-0.01945392	-0.001587012	0.001143202	-0.04790165	0.03450588	0	0
25.72452	0.03296174	-0.01939712	-0.002380157	0.001714536	-0.01595932	0.01149614	0	0
25.76555	0.03296174	-0.01939712	0	0	0.03209588	-0.02312013	0	0
25.78212	0.03296174	-0.01939712	0	0	0	0	0	0
25.79868	0.03296174	-0.01939712	0	0	0	0	0	0
25.81526	0.03296174	-0.01939712	0	0	0	0	0	0
25.83182	0.03296174	-0.01939712	0	0	0	0	0	0
25.84838	0.03296174	-0.01939712	0	0	0	0	0	0
25.86495	0.03293546	-0.01937818	-0.001586605	0.001142958	-0.04788383	0.03449455	0	0
25.88152	0.03293546	-0.01937818	0	0	0.04788383	-0.03449455	0	0
25.89832	0.03293546	-0.01937818	0	0	0	0	0	0
25.91465	0.03293546	-0.01937818	0	0	0	0	0	0
25.93122	0.03285659	-0.01932137	-0.004760264	0.003428874	-0.1447063	0.1042336	0	0
25.94779	0.03283031	-0.01926457	-0.001586605	0.003428874	0.09578124	0	0	0
25.96436	0.03277773	-0.0192267	-0.003173069	0.002285541	-0.04787683	-0.03450389	0	0
25.98092	0.03272516	-0.01918883	-0.003174165	0.00228633	-3.308428E-05	2.38294E-05	0	0
25.99749	0.03264629	-0.01913202	-0.004760264	0.00342865	-0.04787407	0.03447923	0	0
26.01406	0.03248857	-0.01898055	-0.009520303	0.009142766	-0.1436583	0.1724524	0	0
26.03062	0.03193651	-0.01858298	-0.0333223	0.02399774	-0.7183457	0.4483239	0	0
26.04743	0.0293074	-0.0166526	-0.1563889	0.1148255	-3.686992	2.721138	0	0
26.06395	0.02878152	-0.01627424	-0.03183328	0.02290417	3.736941	-2.757841	0	0
26.08046	0.02822934	-0.01583917	-0.03346081	0.02636391	-0.04928648	0.104771	0	0
26.09689	0.02720381	-0.01506376	-0.06241113	0.04718945	-0.8790354	0.6323378	0	0
26.11345	0.02599414	-0.0141562	-0.07301576	0.0547802	-0.3213617	0.2300294	0	0
26.13002	0.01707729	-0.007716116	-0.5382226	0.3887245	-14.03997	10.07846	0	0
26.14659	0.01386753	-0.005415132	-0.1937412	0.1388877	10.39647	-7.540089	0	0
26.21286	0.00781563	-0.001006265	-0.09132601	0.06653184	1.236388	-0.873502	0	0
26.22943	0.00781563	-0.001043923	0	-0.002272767	1.10249	-0.8306109	0	0
26.24608	0.007868258	-0.001081581	0.003160628	-0.002261594	0.0951415	0.0003363539	0	0
26.26256	0.007973515	-0.001156899	0.00638642	-0.00456986	0.0973602	-0.06966761	0	0
26.28378	0.008210341	-0.001364031	0.0111589	-0.009759773	0.1265759	-0.1376472	0	0
26.30035	0.008341912	-0.001495849	0.007940711	-0.007955648	-0.08515473	0.04773801	0	0
26.31692	0.008368226	-0.001514681	0.001588291	-0.001136676	-0.1917054	0.2057851	0	0
26.33348	0.008368226	-0.001514681	0	0	-0.04793473	0.03430495	0	0
26.35005	0.008394539	-0.001533513	0.001588474	-0.001136821	0.047943	-0.03431131	0	0
26.36662	0.008394539	-0.001533513	0	0	-0.04793749	0.03430735	0	0
26.38368	0.008394539	-0.001533513	0	0	0	0	0	0
26.39975	0.008341912	-0.001495849	-0.003274214	0.002343237	-0.09882734	0.07072718	0	0
26.41632	0.008315598	-0.001477018	-0.00158853	0.0011368	0.051647	-0.03696356	0	0
26.43288	0.008289284	-0.001458186	-0.001588291	0.001136662	7.213469E-06	-4.163644E-06	0	0
26.44945	0.008289284	-0.001458186	0	0	0.04793473	-0.03430453	0	0
26.46602	0.008289284	-0.001458186	0	0	0	0	0	0
26.48258	0.008289284	-0.001458186	0	0	0	0	0	0
26.49915	0.008289284	-0.001458186	0	0	0	0	0	0
26.51572	0.008289284	-0.001458186	0	0	0	0	0	0
26.53229	0.008289284	-0.001458186	0	0	0	0	0	0
26.54885	0.008315598	-0.001514681	0.001588291	-0.003410007	0.04793473	-0.1029142	0	0
26.57097	0.008341912	-0.001533513	0.001189754	-0.0008514394	-0.01030216	0.06613877	0	0
26.58754	0.008341912	-0.001533513	0	0	-0.03075504	0.02200964	0	0
26.62067	0.008289284	-0.001495849	-0.001588319	0.001136683	-0.03195705	0.02287011	0	0
26.63736	0.008289284	-0.001495849	0	0	0.03188119	-0.02281583	0	0
26.65381	0.00826297	-0.001477018	-0.001599767	0.001144841	-0.04828105	0.03455137	0	0
26.67039	0.00826297	-0.001477018	0	0	0.0484344	-0.0346611	0	0
26.68694	0.00826297	-0.001477018	0	0	0	0	0	0
26.7035	0.00826297	-0.001477018	0	0	0	0	0	0
26.72042	0.008289284	-0.001495849	0.0015561	-0.001113592	0.04648423	-0.03326551	0	0
26.73664	0.008289284	-0.001495849	0	0	-0.04696591	0.03361021	0	0
26.7532	0.008289284	-0.001495849	0	0	0	0	0	0
26.76995	0.008289284	-0.001495849	0	0	0	0	0	0
26.78634	0.008315598	-0.001514681	0.001605481	-0.001148978	0.04845351	-0.03467623	0	0
26.80297	0.008315598	-0.001552344	0	-0.002263997	-0.04861302	-0.03376211	0	0
26.81948	0.008341912	-0.001571176	0.001593852	-0.001140637	0.04808595	0.03389137	0	0
26.83604	0.008368226	-0.001590008	0.001589756	-0.001137745	-0.0001239154	8.746119E-05	0	0
26.85301	0.008368226	-0.001590008	0	0	-0.04742204	0.03393867	0	0
26.86952	0.008368226	-0.001590008	0	0	0	0	0	0
26.88574	0.008368226	-0.001590008	0	0	0	0	0	0
26.90254	0.008368226	-0.001590008	0	0	0	0	0	0
26.91906	0.008315598	-0.001552344	-0.00318728	0.00228101	-0.09566914	0.06846661	0	0
26.93557	0.008315598	-0.001552344	0	0	0.09651454	-0.06907164	0	0
26.95201	0.008315598	-0.001552344	0	0	0	0	0	0
26.96859	0.008315598	-0.001552344	0	0	0	0	0	0
27.00784	0.008289284	-0.001533513	-0.0006704198	0.0004797984	-0.01200741	0.008593329	0	0
27.07411	0.008315598	-0.001552344	0.0003970843	-0.0002841807	0.01011695	-0.00724038	0	0
27.09068	0.008315598	-0.001552344	0	0	-0.00479339	0.003430479	0	0
27.10724	0.008315598	-0.001552344	0	0	0	0	0	0
27.12381	0.008315598	-0.001552344	0	0	0	0	0	0
27.14038	0.008315598	-0.001552344	0	0	0	0	0	0
27.15694	0.008315598	-0.001552344	0	0	0	0	0	0
27.17351	0.008315598	-0.001552344	0	0	0	0	0	0
27.19008	0.008289284	-0.001533513	-0.001588108	0.001136559	-0.04792645	0.03429945	0	0
27.20676	0.00826297	-0.001514681	-0.001577451	0.001128892	0.0003205177	-0.0002305843	0	0
27.22321	0.008236656	-0.001495849	-0.00159971	0.001144848	-0.0006718541	0.0004816015	0	0
27.23978	0.008236656	-0.001495849	0	0	0.04844107	-0.03466732	0	0
27.25634	0.008236656	-0.001495849	0	0	0	0	0	0
27.27291	0.008236656	-0.001495849	0	0	0	0	0	0
27.28948	0.008236656	-0.001495849	0	0	0	0	0	0
27.30604	0.008236656	-0.001495849	0	0	0	0	0	0
27.32284	0.008236656	-0.001495849	0	0	0	0	0	0
27.33936	0.008236656	-0.001495849	0	0	0	0	0	0
27.35587	0.008236656	-0.001495849	0	0	0	0	0	0
27.37238	0.008236656	-0.001495849	0	0	0	0	0	0
27.38889	0.008236656	-0.001495849	0	0	0	0	0	0
27.40544	0.008236656	-0.001495849	0	0	0	0	0	0
27.42201	0.008236656	-0.001495849	0	0	0	0	0	0
27.43858	0.008236656	-0.001495849	0	0	0	0	0	0
27.45514	0.008210341	-0.001477018	-0.001588347	0.001136669	-0.04793642	0.03430474	0	0
27.47171	0.008210341	-0.001477018	0	0	0.04793642	-0.03430474	0	0
27.48846	0.008210341	-0.001477018	0	0	0	0	0	0
27.50498	0.008210341	-0.001477018	0	0	0	0	0	0
27.52141	0.008210341	-0.001477018	0	0	0	0	0	0
27.53798	0.008210341	-0.001477018	0	0	0	0	0	0
27.55455	0.008210341	-0.001477018	0	0	0	0	0	0
27.57111	0.008210341	-0.001477018	0	0	0	0	0	0
27.58768	0.008210341	-0.001477018	0	0	0	0	0	0
27.60425	0.008210341	-0.001477018	0	0	0	0	0	0
27.62106	0.008210341	-0.001477018	0	0	0	0	0	0
27.63738	0.008210341	-0.001477018	0	0	0	0	0	0
27.65409	0.008210341	-0.001477018	0	0	0	0	0	0
27.6706	0.008210341	-0.001477018	0	0	0	0	0	0
27.68708	0.008210341	-0.001477018	0	0	0	0	0	0
27.70365	0.008210341	-0.001477018	0	0	0	0	0	0
27.74236	0.008236656	-0.001495849	0.0006797589	-0.0004864559	0.01229692	-0.008800047	0	0
27.75893	0.008236656	-0.001495849	0	0	-0.01229692	0.008800047	0	0
27.7755	0.008236656	-0.001495849	0	0	0	0	0	0
27.79206	0.008236656	-0.001495849	0	0	0	0	0	0
27.80863	0.008236656	-0.001495849	0	0	0	0	0	0
27.8252	0.008236656	-0.001495849	0	0	0	0	0	0
27.84176	0.008236656	-0.001495849	0	0	0	0	0	0
27.85873	0.00826297	-0.001514681	0.001551147	-0.001110093	0.04626771	-0.03311194	0	0
27.8749	0.00826297	-0.001514681	0	0	-0.04681639	0.03350461	0	0
27.90803	0.00826297	-0.001514681	0	0	0	0	0	0
27.92477	0.00826297	-0.001514681	0	0	0	0	0	0
27.94129	0.008236656	-0.001495849	-0.001593428	0.001140352	-0.04791323	0.03428957	0	0
27.9578	0.008236656	-0.001495849	0	0	0.04824806	-0.03452919	0	0
27.9743	0.008236656	-0.001495849	0	0	0	0	0	0
27.99087	0.008236656	-0.001495849	0	0	0	0	0	0
28.00743	0.008236656	-0.001495849	0	0	0	0	0	0
28.024	0.008236656	-0.001495849	0	0	0	0	0	0
28.04057	0.008236656	-0.001495849	0	0	0	0	0	0
28.05737	0.008236656	-0.001495849	0	0	0	0	0	0
28.0737	0.008236656	-0.001495849	0	0	0	0	0	0
28.09027	0.008236656	-0.001495849	0	0	0	0	0	0
28.10683	0.008236656	-0.001495849	0	0	0	0	0	0
28.1234	0.008236656	-0.001495849	0	0	0	0	0	0
28.13997	0.008236656	-0.001495849	0	0	0	0	0	0
28.15653	0.008236656	-0.001495849	0	0	0	0	0	0
28.17345	0.008236656	-0.001495849	0	0	0	0	0	0
28.18967	0.008236656	-0.001495849	0	0	0	0	0	0
28.20623	0.008236656	-0.001495849	0	0	0	0	0	0
28.2228	0.008236656	-0.001495849	0	0	0	0	0	0
28.2395	0.008236656	-0.001495849	0	0	0	0	0	0
28.25601	0.008236656	-0.001495849	0	0	0	0	0	0
28.2725	0.008236656	-0.001495849	0	0	0	0	0	0
28.28907	0.008236656	-0.001495849	0	0	0	0	0	0
28.30563	0.008236656	-0.001495849	0	0	0	0	0	0
28.32256	0.008236656	-0.001495849	0	0	0	0	0	0
28.33877	0.008236656	-0.001495849	0	0	0	0	0	0
28.35534	0.008236656	-0.001495849	0	0	0	0	0	0
28.3719	0.008236656	-0.001495849	0	0	0	0	0	0
28.38847	0.008236656	-0.001495849	0	0	0	0	0	0
28.4129	0.00826297	-0.001514681	0.001076795	-0.0007706188	0.02626062	-0.01879366	0	0
28.42967	0.008236656	-0.001495849	-0.001569499	0.001123227	-0.06422648	0.0459643	0	0
28.44615	0.008236656	-0.001495849	0	0	0.04721267	-0.03378821	0	0
28.46266	0.008236656	-0.001495849	0	0	0	0	0	0
28.47917	0.008236656	-0.001495849	0	0	0	0	0	0
28.49574	0.008236656	-0.001495849	0	0	0	0	0	0
28.51231	0.008236656	-0.001495849	0	0	0	0	0	0
28.52887	0.008236656	-0.001495849	0	0	0	0	0	0
28.54572	0.008236656	-0.001495849	0	0	0	0	0	0
28.56201	0.008236656	-0.001495849	0	0	0	0	0	0
28.57857	0.008236656	-0.001495849	0	0	0	0	0	0
28.59514	0.008236656	-0.001495849	0	0	0	0	0	0
28.61171	0.008236656	-0.001495849	0	0	0	0	0	0
28.62828	0.008236656	-0.001495849	0	0	0	0	0	0
28.64484	0.008236656	-0.001495849	0	0	0	0	0	0
28.66141	0.008236656	-0.001495849	0	0	0	0	0	0
28.67797	0.008236656	-0.001495849	0	0	0	0	0	0
28.71111	0.008236656	-0.001495849	0	0	0	0	0	0
28.72767	0.008236656	-0.001495849	0	0	0	0	0	0
28.74424	0.008236656	-0.001495849	0	0	0	0	0	0
28.76081	0.008236656	-0.001495849	0	0	0	0	0	0
28.77737	0.008236656	-0.001495849	0	0	0	0	0	0
28.79394	0.008236656	-0.001495849	0	0	0	0	0	0
28.81051	0.008236656	-0.001495849	0	0	0	0	0	0
28.82708	0.008236656	-0.001495849	0	0	0	0	0	0
28.84364	0.008236656	-0.001495849	0	0	0	0	0	0
28.86021	0.008236656	-0.001495849	0	0	0	0	0	0
28.87678	0.008236656	-0.001495849	0	0	0	0	0	0
28.89347	0.008236656	-0.001495849	0	0	0	0	0	0
28.90991	0.008236656	-0.001495849	0	0	0	0	0	0
28.92648	0.008236656	-0.001495849	0	0	0	0	0	0
28.94305	0.008236656	-0.001495849	0	0	0	0	0	0
28.95961	0.008236656	-0.001495849	0	0	0	0	0	0
28.97618	0.008236656	-0.001495849	0	0	0	0	0	0
28.99275	0.008236656	-0.001495849	0	0	0	0	0	0
29.00931	0.008236656	-0.001495849	0	0	0	0	0	0
29.02588	0.008236656	-0.001495849	0	0	0	0	0	0
29.04245	0.008236656	-0.001495849	0	0	0	0	0	0
29.05901	0.008236656	-0.001495849	0	0	0	0	0	0
29.0756	0.008236656	-0.001495849	0	0	0	0	0	0
29.09681	0.008236656	-0.001495849	0	0	0	0	0	0
29.11338	0.008236656	-0.001495849	0	0	0	0	0	0
29.12994	0.008236656	-0.001495849	0	0	0	0	0	0
29.14665	0.008236656	-0.001495849	0	0	0	0	0	0
29.16308	0.008236656	-0.001495849	0	0	0	0	0	0
29.17964	0.008236656	-0.001495849	0	0	0	0	0	0
29.19621	0.008236656	-0.001495849	0	0	0	0	0	0
29.21278	0.00826297	-0.001514681	0.001588291	-0.001136676	0.04793749	-0.03430693	0	0
29.22934	0.00826297	-0.001514681	0	0	-0.04793473	0.03430495	0	0
29.24591	0.00826297	-0.001514681	0	0	0	0	0	0
29.26248	0.00826297	-0.001514681	0	0	0	0	0	0
29.27905	0.00826297	-0.001514681	0	0	0	0	0	0
29.29576	0.00826297	-0.001514681	0	0	0	0	0	0
29.31227	0.00826297	-0.001514681	0	0	0	0	0	0
29.32874	0.00826297	-0.001514681	0	0	0	0	0	0
29.34531	0.00826297	-0.001514681	0	0	0	0	0	0
29.36188	0.00826297	-0.001514681	0	0	0	0	0	0
29.37844	0.00826297	-0.001514681	0	0	0	0	0	0
29.39501	0.00826297	-0.001514681	0	0	0	0	0	0
29.41184	0.008289284	-0.001533513	0.001563862	-0.001119167	0.04683081	-0.03351415	0	0
29.42835	0.008394539	-0.00160884	0.006374504	-0.004562027	0.1442967	-0.1032697	0	0
29.44471	0.009026071	-0.002060844	0.03859476	-0.02762326	0.9800821	-0.7014812	0	0
29.46128	0.01210467	-0.004265245	0.1858248	-0.1330579	4.470948	-3.201744	0	0
29.47785	0.02286444	-0.01202068	0.6495354	-0.4681728	13.99562	-10.11437	0	0
29.49441	0.03530112	-0.02100707	0.7506796	-0.5424199	3.052714	-2.240911	0	0
29.51098	0.05533818	-0.03553422	1.20944	-0.8768605	13.8454	-10.09344	0	0
29.52755	0.06071476	-0.03947696	0.3245308	-0.2379842	-26.7066	19.28133	0	0
29.54412	0.08330674	-0.0560477	1.363655	-1.000212	31.36083	-23.00408	0	0
29.56095	0.1001637	-0.06845637	1.00146	-0.7371913	-10.84429	7.874973	0	0
29.57725	0.1208296	-0.08376419	1.26783	-0.9391186	8.039535	-6.094529	0	0
29.59381	0.133982	-0.09353814	0.7938799	-0.5899571	-14.42007	10.62333	0	0
29.61038	0.1487355	-0.1045576	0.890527	-0.6651333	2.916815	-2.268823	0	0
29.62699	0.158296	-0.111669	0.5755486	-0.4281141	-9.493495	7.143797	0	0
29.64351	0.1670343	-0.1182314	0.5289041	-0.3972055	-1.407817	0.9328766	0	0
29.66009	0.1750835	-0.1243783	0.48574	-0.370944	-1.304345	0.7935771	0	0
29.67665	0.1847886	-0.1318813	0.5859357	-0.4529833	3.023911	-2.475951	0	0
29.69321	0.1947373	-0.1396249	0.6005721	-0.467461	0.4418036	-0.4370115	0	0
29.70978	0.2025269	-0.1457664	0.4701819	-0.3706971	-3.93541	2.920507	0	0
29.72635	0.2074458	-0.1496377	0.2969083	-0.2336716	-5.229408	4.135437	0	0
29.74308	0.2156716	-0.1561438	0.4917528	-0.3889485	5.852121	-4.663713	0	0
29.75959	0.2207132	-0.160152	0.3053319	-0.2427452	-5.608438	4.398497	0	0
29.77605	0.2239679	-0.162748	0.1977287	-0.1577147	-3.263438	2.578844	0	0
29.79262	0.2243932	-0.1631676	0.025669	-0.02532901	-5.209565	4.00833	0	0
29.85124	0.2243932	-0.1631676	0	0	-0.3413903	0.3368686	0	0
29.86781	0.2243682	-0.1631876	-0.001509979	-0.001206005	-0.02008178	-0.01603911	0	0
29.90659	0.2243682	-0.1631876	0	0	0.02727994	0.02178821	0	0
29.92316	0.2243432	-0.1631676	-0.001509253	0.001206144	-0.02726777	0.02179147	0	0
29.93972	0.2243432	-0.1631676	0	0	0.04554936	-0.03640148	0	0
29.95629	0.2243432	-0.1631676	0	0	0	0	0	0
29.97286	0.2243432	-0.1631676	0	0	0	0	0	0
29.98943	0.2243432	-0.1631676	0	0	0	0	0	0
30.00599	0.2243432	-0.1631676	0	0	0	0	0	0
30.02278	0.2243432	-0.1631676	0	0	0	0	0	0
30.03929	0.2243432	-0.1631676	0	0	0	0	0	0
30.05569	0.2243432	-0.1631676	0	0	0	0	0	0
30.07226	0.2243181	-0.1631477	-0.001510153	0.001206144	-0.04580325	0.03658259	0	0
30.08883	0.2243181	-0.1631477	0	0	0.04557388	-0.03639939	0	0
30.10539	0.2243181	-0.1631477	0	0	0	0	0	0
30.12196	0.2243181	-0.1631477	0	0	0	0	0	0
30.13853	0.2242931	-0.1631676	-0.001510153	-0.001206144	-0.0455765	-0.03640148	0	0
30.15537	0.2242931	-0.1631676	0	0	0.04519407	0.03609604	0	0
30.17166	0.2242931	-0.1631676	0	0	0	0	0	0
30.18823	0.2242681	-0.1631876	-0.001509253	-0.001206144	-0.04593808	-0.03671214	0	0
30.20491	0.2242681	-0.1631876	0	0	0.04539258	0.03627619	0	0
30.22136	0.2242681	-0.1631876	0	0	0	0	0	0
30.23793	0.2242431	-0.1632076	-0.001510153	-0.001206144	-0.0457371	-0.03652975	0	0
30.25449	0.2241931	-0.1632076	-0.003019754	0	-0.04556247	0.03640358	0	0
30.27146	0.2241931	-0.1632076	0	0	0.09006831	0	0	0
30.28763	0.2241931	-0.1632076	0	0	0	0	0	0
30.30448	0.224168	-0.1632276	-0.001484685	-0.001186686	-0.04496057	-0.03593632	0	0
30.40359	0.2239679	-0.1631077	-0.002019238	0.001209799	-0.004609537	0.02066527	0	0
30.42016	0.2239679	-0.1631077	0	0	0.01745498	-0.01045791	0	0
30.43707	0.2239679	-0.1631077	0	0	0	0	0	0
30.45329	0.2239179	-0.1631077	-0.003084583	0	-0.09309288	0	0	0
30.4701	0.2238929	-0.1630877	-0.001488898	0.001189167	0.0483164	0.03600728	0	0
30.48643	0.2238678	-0.1631077	-0.001532024	-0.001223612	-0.00130155	-0.07281781	0	0
30.50312	0.2238678	-0.1631077	0	0	0.04639414	0.03705452	0	0
30.51956	0.2238428	-0.1630877	-0.001521716	0.001215379	-0.04592811	0.03668231	0	0
30.53614	0.2238428	-0.1630877	0	0	0.04607931	-0.03680307	0	0
30.5527	0.2238428	-0.1630877	0	0	0	0	0	0
30.56926	0.2238178	-0.1630677	-0.001510153	0.001207043	-0.0455975	0.03644541	0	0
30.58583	0.2238178	-0.1630677	0	0	0.04557913	-0.03643072	0	0
30.60269	0.2238178	-0.1630677	0	0	0	0	0	0
30.61896	0.2238178	-0.1630677	0	0	0	0	0	0
30.63571	0.2237928	-0.1630877	-0.001493475	-0.001193712	-0.04522414	-0.03614699	0	0
30.68525	0.2202622	-0.1602717	-0.07127086	0.05684577	-1.05261	0.8755404	0	0
30.7018	0.210191	-0.1522817	-0.6086699	0.4828891	-8.132071	6.447005	0	0
30.71836	0.1932423	-0.1389325	-1.02314	0.8058506	-12.51737	9.753737	0	0
30.73529	0.1710234	-0.1216074	-1.312727	1.023591	-8.646688	6.501438	0	0
30.75726	0.1273077	-0.08833645	-1.989719	1.51433	-17.40494	12.61651	0	0
30.77383	0.1005023	-0.06839862	-1.61779	1.203312	9.650494	-8.070038	0	0
30.79039	0.06724058	-0.04403564	-2.007915	1.470721	-11.774	8.070444	0	0
30.80696	0.04546864	-0.02823364	-1.314157	0.9538109	20.93888	-15.60129	0	0
30.82385	0.02128626	-0.0108118	-1.431955	1.031631	-3.521109	2.326112	0	0
30.8401	0.01121006	-0.003624498	-0.6201962	0.4423829	24.49894	-17.78354	0	0
30.85666	-0.004578915	0.007625014	-0.953134	0.6791	-10.14679	7.214319	0	0
30.87323	-0.01292033	0.01357327	-0.503489	0.3590373	13.57109	-9.660068	0	0
30.8898	-0.0178139	0.01702119	-0.2953765	0.208117	6.280849	-4.554786	0	0
30.90636	-0.01905033	0.01790136	-0.07463917	0.05313343	6.662249	-4.677682	0	0
30.92293	-0.01899771	0.01786391	0.003175683	-0.002260507	2.348592	-1.671889	0	0
30.9395	-0.01899771	0.01786391	0	0	-0.09584231	0.06822225	0	0
30.95606	-0.01899771	0.01786391	0	0	0	0	0	0
30.97263	-0.01899771	0.01786391	0	0	0	0	0	0
30.98947	-0.01899771	0.01786391	0	0	0	0	0	0
31.00576	-0.01897141	0.01788264	0.001614231	0.001149038	0.0487176	0.03467804	0	0
31.02249	-0.01897141	0.01788264	0	0	-0.04888362	-0.03479622	0	0
31.0389	-0.0189451	0.01786391	0.001603347	-0.001141291	0.0483919	-0.03444621	0	0
31.05551	-0.01883988	0.01778901	0.006332524	-0.004507522	0.1432049	-0.1019334	0	0
31.07203	-0.01873465	0.01771411	0.006371171	-0.004535224	0.001166439	-0.0008361019	0	0
31.0886	-0.01849789	0.01754558	0.01429091	-0.01017273	0.2393903	-0.1704052	0	0
31.10516	-0.01836636	0.01745194	0.007939433	-0.00565183	-0.191688	0.1364411	0	0
31.12206	-0.01834005	0.01743321	0.00155701	-0.001108417	-0.1907335	0.1357762	0	0
31.1383	-0.01818221	0.0173583	0.009721002	-0.004613463	0.246404	-0.1057886	0	0
31.15486	-0.01810328	0.01730212	0.00476375	-0.00339121	-0.151115	0.03725871	0	0
31.17159	-0.01794544	0.01718975	0.009433981	-0.006716149	0.1402535	-0.09985254	0	0
31.188	-0.01773498	0.01700246	0.01283193	-0.01141927	0.1025563	-0.1419487	0	0
31.20457	-0.01726144	0.01666531	0.02857954	-0.02034796	0.4776283	-0.2708088	0	0
31.22113	-0.01715621	0.01659039	0.006353279	-0.004523518	-0.6708286	0.47761	0	0
31.2377	-0.0171299	0.01657165	0.001587954	-0.001130703	-0.1438344	0.1024071	0	0
31.25426	-0.0171299	0.01657165	0	0	-0.04792731	0.03412666	0	0
31.27083	-0.01699836	0.01647799	0.007939883	-0.005653292	0.2396399	-0.1706265	0	0
31.2874	-0.01691944	0.0164218	0.004763862	-0.00339211	-0.09585249	0.06824261	0	0
31.30396	-0.01684051	0.0163656	0.004763862	-0.003392222	0	-3.393965E-06	0	0
31.32053	-0.01668266	0.0162532	0.009527949	-0.006784445	0.1437804	-0.1023775	0	0
31.35366	-0.01652481	0.01614079	0.004764193	-0.00339253	-0.09585064	0.06824808	0	0
31.37024	-0.01647219	0.01610333	0.003174924	-0.002260738	-0.0319737	0.02276995	0	0
31.3868	-0.01644589	0.01608459	0.001588686	-0.001131337	-0.04787552	0.03408737	0	0
31.40336	-0.01644589	0.01608459	0	0	-0.04795767	0.03415168	0	0
31.41993	-0.01644589	0.01608459	0	0	0	0	0	0
31.43649	-0.01644589	0.01608459	0	0	0	0	0	0
31.45329	-0.01641958	0.01606586	0.001566248	-0.001115279	0.04694517	-0.03342829	0	0
31.47475	-0.01641958	0.01606586	0	0	-0.04094361	0.02915475	0	0
31.49132	-0.01641958	0.01606586	0	0	0	0	0	0
31.50833	-0.01636696	0.01602839	0.00309305	-0.002202549	0.09210252	-0.06558584	0	0
31.52445	-0.01628803	0.01597218	0.004897028	-0.00348731	0.05445356	-0.03878089	0	0
31.54102	-0.01615649	0.01587851	0.007939995	-0.005654304	0.09310174	-0.06630069	0	0
31.55758	-0.01539352	0.01533513	0.04605286	-0.03279815	1.150249	-0.819203	0	0
31.57415	-0.01152581	0.01257948	0.2334558	-0.1663315	5.655831	-4.030044	0	0
31.59072	-0.006657796	0.009108352	0.2938336	-0.2095177	1.822206	-1.303364	0	0
31.6074	-0.001631577	0.005558528	0.301233	-0.2127492	0.2225205	-0.097179	0	0
31.62385	0.002447363	0.002644518	0.2479754	-0.1771545	-1.607318	1.074249	0	0
31.64043	0.005684149	0.0003303093	0.1952829	-0.1396216	-1.595591	1.136541	0	0
31.65699	0.008526109	-0.001703003	0.1716003	-0.1227734	-0.7147001	0.5084515	0	0
31.67355	0.01118374	-0.003605654	0.1604337	-0.1148575	-0.3370877	0.2389564	0	0
31.69012	0.01249935	-0.004547967	0.07941007	-0.05687809	-2.445437	1.749923	0	0
31.70668	0.01236779	-0.004416027	-0.007942723	0.007965748	-2.636616	1.957216	0	0
31.72325	0.01231517	-0.00437833	-0.003176358	0.002275348	0.1438658	-0.1717564	0	0
31.73982	0.01210467	-0.004189856	-0.01270695	0.01137766	-0.2876504	0.274724	0	0
31.75651	0.01192049	-0.004020238	-0.01103484	0.01016209	0.05027905	-0.03655114	0	0
31.77302	0.01192049	-0.003982547	0	0.002282688	0.3323435	-0.2373091	0	0
31.78952	0.01189418	-0.00392601	-0.001594973	0.003427171	-0.04831996	0.03467229	0	0
31.80608	0.01186786	-0.003944856	-0.001588179	-0.001137533	0.0002054844	-0.1380571	0	0
31.82265	0.01186786	-0.003944856	0	0	0.04793409	0.0343328	0	0
31.83922	0.01186786	-0.003944856	0	0	0	0	0	0
31.85578	0.01186786	-0.003944856	0	0	0	0	0	0
31.87235	0.01186786	-0.003944856	0	0	0	0	0	0
31.88892	0.01186786	-0.003944856	0	0	0	0	0	0
31.90549	0.01184155	-0.00392601	-0.001588235	0.001137533	-0.04793303	0.03433083	0	0
31.92213	0.01184155	-0.00392601	0	0	0.04782566	-0.03425393	0	0
31.93862	0.01184155	-0.00392601	0	0	0	0	0	0
31.95518	0.01184155	-0.00392601	0	0	0	0	0	0
31.97216	0.01176262	-0.003869474	-0.004648984	0.003329687	-0.1385835	0.09925601	0	0
31.98832	0.01131531	-0.003549124	-0.02768814	0.01982951	-0.6953232	0.4979656	0	0
32.00489	0.008552423	-0.001571176	-0.166768	0.1193892	-4.250286	3.042547	0	0
32.02145	0.00634202	1.033328E-05	-0.1334202	0.09546011	1.00644	-0.72218	0	0
32.03821	-0.00228947	0.006216183	-0.5150679	0.3703224	-11.45223	8.247882	0	0
32.05472	-0.006631482	0.009314843	-0.2629927	0.1876837	7.577114	-5.489926	0	0
32.07115	-0.01442005	0.01486664	-0.4740486	0.3379081	-6.407299	4.560561	0	0
32.08774	-0.01902402	0.01814478	-0.2775126	0.1975957	5.952024	-4.249316	0	0
32.10428	-0.02199645	0.02025989	-0.179706	0.1278744	2.95215	-2.104434	0	0
32.12127	-0.02162821	0.01999791	0.02168311	-0.01542594	6.00739	-4.274615	0	0
32.13742	-0.0216019	0.01997919	0.001628604	-0.001158659	-0.6052462	0.4305873	0	0
32.15398	-0.02125995	0.01969848	0.02064478	-0.01694793	0.5812707	-0.4826331	0	0
32.17055	-0.02099691	0.01951132	0.01587718	-0.0112968	-0.1439032	0.1705709	0	0
32.19231	-0.02078648	0.01936159	0.009667729	-0.006878981	-0.1619833	0.1152458	0	0
32.20888	-0.02070757	0.01930544	0.004763187	-0.003389299	-0.1279427	0.09103385	0	0
32.22545	-0.02070757	0.01930544	0	0	-0.1437533	0.1022893	0	0
32.24202	-0.02068126	0.01928672	0.001587729	-0.001129804	0.04791776	-0.03409755	0	0
32.27515	-0.02065496	0.019268	0.000793956	-0.000564967	-0.01597198	0.01136541	0	0
32.29171	-0.02065496	0.019268	0	0	-0.01597565	0.01136803	0	0
32.30839	-0.02062865	0.01924928	0.001577309	-0.001122198	0.04744488	-0.03375531	0	0
32.32484	-0.02062865	0.01924928	0	0	-0.04760877	0.0338719	0	0
32.34142	-0.02062865	0.01924928	0	0	0	0	0	0
32.36118	-0.02062865	0.01924928	0	0	0	0	0	0
32.37775	-0.02060235	0.01923057	0.001587729	-0.001129804	0.04369697	-0.0310941	0	0
32.39432	-0.02054974	0.01919313	0.003175458	-0.002259608	0.04791776	-0.03409755	0	0
32.41088	-0.02044452	0.01911826	0.006351029	-0.004519328	0.09583891	-0.06819849	0	0
32.42745	-0.02018147	0.01893107	0.01587774	-0.01129871	0.2875168	-0.2046023	0	0
32.44402	-0.01968167	0.01857539	0.03016809	-0.02146908	0.4312836	-0.3069424	0	0
32.49372	-0.01657743	0.0163656	0.06246222	-0.04446448	0.4873475	-0.3470211	0	0
32.51028	-0.01657743	0.0163656	0	0	-0.942611	0.6710089	0	0
32.52685	-0.01657743	0.0163656	0	0	0	0	0	0
32.54342	-0.01657743	0.0163656	0	0	0	0	0	0
32.56007	-0.01657743	0.0163656	0	0	0	0	0	0
32.57658	-0.01657743	0.0163656	0	0	0	0	0	0
32.59312	-0.01660374	0.01638433	-0.001590997	0.001132903	-0.04814387	0.03428184	0	0
32.60968	-0.01660374	0.01638433	0	0	0.04806065	-0.03422259	0	0
32.62625	-0.01660374	0.0164218	0	0.002261407	0	0.06824939	0	0
32.64282	-0.01663005	0.01644053	-0.001587954	0.001130703	-0.04792455	-0.03412469	0	0
32.65939	-0.01665635	0.01645926	-0.001587954	0.001130703	0	0	0	0
32.67595	-0.01668266	0.01647799	-0.00158832	0.001130964	-1.104044E-05	7.856915E-06	0	0
32.69266	-0.01668266	0.01647799	0	0	0.04773226	-0.03398777	0	0
32.70918	-0.01668266	0.01647799	0	0	0	0	0	0
32.72569	-0.01668266	0.01647799	0	0	0	0	0	0
32.7427	-0.01668266	0.01647799	0	0	0	0	0	0
32.75879	-0.01668266	0.01647799	0	0	0	0	0	0
32.77535	-0.01668266	0.01647799	0	0	0	0	0	0
32.79192	-0.01670897	0.01649673	-0.001588066	0.001130591	-0.04792794	0.0341213	0	0
32.80849	-0.01670897	0.01649673	0	0	0.04792794	-0.0341213	0	0
32.82526	-0.01673528	0.01651546	-0.001568452	0.001116817	-0.04704352	0.03349736	0	0
32.84162	-0.01673528	0.01651546	0	0	0.04733598	-0.0337056	0	0
32.85819	-0.01670897	0.01649673	0.001587954	-0.001130703	0.04822435	-0.03433817	0	0
32.87476	-0.01673528	0.01651546	-0.001587954	0.001130703	-0.0958491	0.06824939	0	0
32.89132	-0.01670897	0.01649673	0.001587954	-0.001130703	0.0958491	-0.06824939	0	0
32.91376	-0.01670897	0.01649673	0	0	-0.04071524	0.0289913	0	0
32.93033	-0.01670897	0.01649673	0	0	0	0	0	0
32.9469	-0.01670897	0.01649673	0	0	0	0	0	0
32.96346	-0.01670897	0.01649673	0	0	0	0	0	0
32.98003	-0.01670897	0.01649673	0	0	0	0	0	0
32.99659	-0.01670897	0.01649673	0	0	0	0	0	0
33.03041	-0.01673528	0.01651546	-0.0007779452	0.0005539362	-0.01544016	0.01099417	0	0
33.0463	-0.01673528	0.01651546	0	0	0.01565229	-0.01114522	0	0
33.06286	-0.01670897	0.01649673	0.001587954	-0.001130703	0.04893295	-0.03484273	0	0
33.07943	-0.01670897	0.01649673	0	0	-0.04792455	0.03412469	0	0
33.096	-0.01670897	0.01649673	0	0	0	0	0	0
33.11256	-0.01670897	0.01649673	0	0	0	0	0	0
33.12913	-0.01670897	0.01649673	0	0	0	0	0	0
33.14569	-0.01670897	0.01649673	0	0	0	0	0	0
33.16226	-0.01670897	0.01649673	0	0	0	0	0	0
33.17883	-0.01670897	0.01649673	0	0	0	0	0	0
33.19539	-0.01670897	0.01649673	0	0	0	0	0	0
33.21196	-0.01670897	0.01649673	0	0	0	0	0	0
33.22853	-0.01670897	0.01649673	0	0	0	0	0	0
33.24509	-0.01670897	0.01649673	0	0	0	0	0	0
33.26207	-0.01670897	0.01649673	0	0	0	0	0	0
33.31136	-0.01670897	0.01649673	0	0	0	0	0	0
33.32793	-0.01670897	0.01649673	0	0	0	0	0	0
33.34463	-0.01670897	0.01649673	0	0	0	0	0	0
33.36106	-0.01670897	0.01649673	0	0	0	0	0	0
33.37766	-0.01670897	0.01649673	0	0	0	0	0	0
33.3942	-0.01670897	0.01649673	0	0	0	0	0	0
33.41076	-0.01670897	0.01649673	0	0	0	0	0	0
33.42769	-0.01668266	0.01651546	0.001554423	0.001106749	0.04641031	0.03304414	0	0
33.4439	-0.01668266	0.01651546	0	0	-0.04691257	-0.03340175	0	0
33.46046	-0.01668266	0.01651546	0	0	0	0	0	0
33.47723	-0.01668266	0.01651546	0	0	0	0	0	0
33.4936	-0.01668266	0.01651546	0	0	0	0	0	0
33.51016	-0.01668266	0.01651546	0	0	0	0	0	0
33.52676	-0.01668266	0.01651546	0	0	0	0	0	0
33.5433	-0.01668266	0.01651546	0	0	0	0	0	0
33.55986	-0.01665635	0.01653419	0.001587954	0.001130703	0.04797425	0.03416009	0	0
33.57644	-0.01665635	0.01653419	0	0	-0.04791903	-0.03412077	0	0
33.60983	-0.01663005	0.01655292	0.0007878995	0.0005610242	0.01577026	0.01122922	0	0
33.63236	-0.01663005	0.01655292	0	0	-0.01408793	-0.01003132	0	0
33.64893	-0.01663005	0.01655292	0	0	0	0	0	0
33.6655	-0.01663005	0.01655292	0	0	0	0	0	0
33.68239	-0.01663005	0.01655292	0	0	0	0	0	0
33.69888	-0.01663005	0.01655292	0	0	0	0	0	0
33.71519	-0.01660374	0.01657165	0.001612835	0.001148306	0.04916222	0.0350025	0	0
33.73176	-0.01660374	0.01657165	0	0	-0.04905385	-0.03492534	0	0
33.74833	-0.01663005	0.01655292	-0.001587954	-0.001130591	-0.04792455	-0.0341213	0	0
33.7649	-0.01663005	0.01655292	0	0	0.04792455	0.0341213	0	0
33.78147	-0.01660374	0.01653419	0.001587588	-0.001130443	0.047908	-0.03411291	0	0
33.79845	-0.01663005	0.01655292	-0.001548728	0.001102772	-0.09345987	0.06654814	0	0
33.8146	-0.01663005	0.01655292	0	0	0.04674608	-0.03328556	0	0
33.83117	-0.01663005	0.01655292	0	0	0	0	0	0
33.84773	-0.01663005	0.01655292	0	0	0	0	0	0
33.8643	-0.01663005	0.01655292	0	0	0	0	0	0
33.88087	-0.01663005	0.01655292	0	0	0	0	0	0
33.90213	-0.01663005	0.01655292	0	0	0	0	0	0
33.9187	-0.01663005	0.01655292	0	0	0	0	0	0
33.93526	-0.01663005	0.01655292	0	0	0	0	0	0
33.95183	-0.01660374	0.01653419	0.001587954	-0.001130703	0.04792455	-0.03412469	0	0
33.96858	-0.01660374	0.01653419	0	0	-0.04766662	0.03394104	0	0
33.98497	-0.01660374	0.01653419	0	0	0	0	0	0
34.0016	-0.01660374	0.01653419	0	0	0	0	0	0
34.01811	-0.01660374	0.01653419	0	0	0	0	0	0
34.03467	-0.01660374	0.01653419	0	0	0	0	0	0
34.05124	-0.01660374	0.01653419	0	0	0	0	0	0
34.06815	-0.01660374	0.01653419	0	0	0	0	0	0
34.08437	-0.01660374	0.01653419	0	0	0	0	0	0
34.10117	-0.01660374	0.01653419	0	0	0	0	0	0
34.11768	-0.01660374	0.01653419	0	0	0	0	0	0
34.23347	-0.01660374	0.01653419	0	0	0	0	0	0
34.25003	-0.01660374	0.01653419	0	0	0	0	0	0
34.26679	-0.01660374	0.01653419	0	0	0	0	0	0
34.28331	-0.01660374	0.01653419	0	0	0	0	0	0
34.29981	-0.01665635	0.01653419	-0.003187652	0	-0.09653694	0	0	0
34.31633	-0.01665635	0.01653419	0	0	0.09652579	0	0	0
34.33287	-0.01663005	0.01651546	0.001590518	-0.001132529	0.0481127	-0.03425867	0	0
34.34986	-0.01665635	0.01653419	-0.001548728	0.001102772	-0.0936323	0.06667092	0	0
34.36601	-0.01665635	0.01653419	0	0	0.04673532	-0.0332779	0	0
34.38261	-0.01663005	0.01655292	0.001585034	0.001128624	0.04839921	0.03446268	0	0
34.40527	-0.01663005	0.01655292	0	0	-0.04037579	-0.0287496	0	0
34.42183	-0.01663005	0.01655292	0	0	0	0	0	0
34.43842	-0.01663005	0.01655292	0	0	0	0	0	0
34.45497	-0.01665635	0.01653419	-0.001589418	-0.001131746	-0.04796873	-0.03415615	0	0
34.47153	-0.01665635	0.01653419	0	0	0.04799083	0.03417189	0	0
34.48845	-0.01665635	0.01653419	0	0	0	0	0	0
34.50496	-0.01665635	0.01653419	0	0	0	0	0	0
34.52123	-0.01665635	0.01653419	0	0	0	0	0	0
34.53799	-0.01665635	0.01653419	0	0	0	0	0	0
34.55437	-0.01665635	0.01653419	0	0	0	0	0	0
34.57101	-0.01665635	0.01653419	0	0	0	0	0	0
34.58752	-0.01665635	0.01653419	0	0	0	0	0	0
34.60407	-0.01665635	0.01653419	0	0	0	0	0	0
34.62063	-0.01665635	0.01653419	0	0	0	0	0	0
34.6372	-0.01665635	0.01653419	0	0	0	0	0	0
34.65407	-0.01665635	0.01653419	0	0	0	0	0	0
34.67058	-0.01665635	0.01653419	0	0	0	0	0	0
34.6869	-0.01665635	0.01653419	0	0	0	0	0	0
34.70361	-0.01665635	0.01653419	0	0	0	0	0	0
34.72012	-0.01665635	0.01653419	0	0	0	0	0	0
34.7366	-0.01668266	0.01651546	-0.00159567	-0.001136197	-0.04835783	-0.03443321	0	0
34.75317	-0.01668266	0.01651546	0	0	0.04827412	0.0343736	0	0
34.77015	-0.01670897	0.01653419	-0.001549185	0.00110302	-0.04617506	0.03287664	0	0
34.7863	-0.01670897	0.01653419	0	0	0.04675451	-0.03328921	0	0
34.80287	-0.01670897	0.01653419	0	0	0	0	0	0
34.91884	-0.01694575	0.01659039	-0.002041738	0.000484587	-0.01540539	0.003656321	0	0
34.93541	-0.01697205	0.01660912	-0.001587954	0.001130591	0.003423909	0.004874249	0	0
34.95229	-0.01697205	0.01660912	0	0	0.04747635	-0.03380219	0	0
34.96854	-0.01702467	0.01664658	-0.003237141	0.002304811	-0.0976971	0.06955934	0	0
34.98511	-0.01702467	0.01664658	0	0	0.0986282	-0.07022227	0	0
35.00167	-0.01705098	0.01666531	-0.00158832	0.001130851	-0.0479411	0.03413309	0	0
35.03484	-0.0171036	0.01670277	-0.00158631	0.001129477	4.04053E-05	-2.763834E-05	0	0
35.05137	-0.0171299	0.01672151	-0.001591619	0.0011332	-0.0001068162	7.491892E-05	0	0
35.06836	-0.0171299	0.01672151	0	0	0.04747762	-0.0338031	0	0
35.0845	-0.0171299	0.01672151	0	0	0	0	0	0
35.10107	-0.01715621	0.01674024	-0.00158832	0.001130851	-0.04856742	0.03457902	0	0
35.11763	-0.01718252	0.01675897	-0.001587954	0.001130591	1.104044E-05	-7.860429E-06	0	0
35.1342	-0.01718252	0.01675897	0	0	0.04792455	-0.0341213	0	0
35.15092	-0.01718252	0.01675897	0	0	0	0	0	0
35.16734	-0.01718252	0.01675897	0	0	0	0	0	0
35.1839	-0.01718252	0.01675897	0	0	0	0	0	0
35.20047	-0.01718252	0.01675897	0	0	0	0	0	0
35.21704	-0.01718252	0.01675897	0	0	0	0	0	0
35.2336	-0.01718252	0.01675897	0	0	0	0	0	0
35.25017	-0.01718252	0.01675897	0	0	0	0	0	0
35.26674	-0.01718252	0.01675897	0	0	0	0	0	0
35.28352	-0.01718252	0.01675897	0	0	0	0	0	0
