Time	Pos X	Pos Y	Vel X	Vel Y	Acc X	Acc YForce X	Force Y
0.0166745	-0.006684111	0.0006314352	0.0001052308	-9.940956E-06	-1.657121E-06	1.56545E-07	0	0
0.05208097	-0.006684111	0.0006314352	0	0	1.657619E-06	-1.565921E-07	0	0
0.06865126	-0.006684111	0.0006314352	0	0	0	0	0	0
0.0852251	-0.006710425	0.0006502547	-0.001587714	0.001135492	-0.04790334	0.03425924	0	0
0.1017855	-0.00673674	0.000669074	-0.001589001	0.001136405	-3.882706E-05	2.755593E-05	0	0
0.1183522	-0.00673674	0.000669074	0	0	0.04796671	-0.03430435	0	0
0.1349182	-0.00673674	0.000669074	0	0	0	0	0	0
0.1514849	-0.006841999	0.0007443504	-0.006353607	0.004543828	-0.1917625	0.1371403	0	0
0.1682802	-0.007078829	0.000913716	-0.01410102	0.01008411	-0.2322223	0.1660655	0	0
0.1848055	-0.007236716	0.001026622	-0.009554247	0.006832296	0.1364553	-0.09759182	0	0
0.2011847	-0.007315659	0.001083073	-0.004819709	0.003446526	0.1438872	-0.1028969	0	0
0.2177519	-0.007368288	0.001120707	-0.003176687	0.002271596	0.04986963	-0.03566193	0	0
0.2343273	-0.007394602	0.001139524	-0.001587562	0.001135215	0.04794817	-0.03428767	0	0
0.2508853	-0.007447231	0.001139524	-0.003178428	0	-0.04801385	-0.03426188	0	0
0.2674513	-0.007447231	0.001139524	0	0	0.09595544	0	0	0
0.284018	-0.007447231	0.001139524	0	0	0	0	0	0
0.3005847	-0.007447231	0.001139524	0	0	0	0	0	0
0.3171523	-0.007420917	0.001120707	0.001588291	-0.001135756	0.04793502	-0.03427741	0	0
0.333719	-0.007420917	0.001120707	0	0	-0.04793502	0.03427741	0	0
0.3502849	-0.007394602	0.00110189	0.00158847	-0.001135879	0.04794272	-0.03428274	0	0
0.3668509	-0.007394602	0.00110189	0	0	-0.04794384	0.03428354	0	0
0.3834184	-0.007420917	0.001120707	-0.001588319	0.00113577	-0.04793698	0.03427863	0	0
0.3999832	-0.007447231	0.001139524	-0.001588557	0.001135946	-7.171364E-06	5.309128E-06	0	0
0.4165515	-0.007552488	0.001214789	-0.006352922	0.004542756	-0.1437949	0.1028221	0	0
0.4331186	-0.007947201	0.001497021	-0.02382506	0.01703563	-0.5272945	0.3770244	0	0
0.4496849	-0.008999757	0.002249522	-0.06353587	0.04542353	-1.19851	0.856774	0	0
0.4700121	-0.01755083	0.008357376	-0.4206718	0.3004772	-9.680182	6.913238	0	0
0.4865824	-0.02199645	0.01152913	-0.2682886	0.191412	4.12991	-2.955896	0	0
0.5031492	-0.03177877	0.01846306	-0.59048	0.4185455	-9.723006	6.854371	0	0
0.5200317	-0.03375034	0.01986691	-0.1167813	0.08315394	14.16171	-10.02687	0	0
0.5362806	-0.04187025	0.0256449	-0.4997196	0.355592	-11.55814	8.222938	0	0
0.552847	-0.04651904	0.02895043	-0.2806169	0.1995326	6.676852	-4.755694	0	0
0.5694129	-0.05284549	0.03344633	-0.3818952	0.2713948	-3.056789	2.168949	0	0
0.5860724	-0.05423623	0.03443431	-0.08348032	0.05930456	8.981524	-6.383373	0	0
0.602589	-0.05866943	0.03758291	-0.2684085	0.190632	-5.574135	3.958491	0	0
0.6191135	-0.05845963	0.03743393	0.01269658	-0.009016043	8.507736	-6.04241	0	0
0.6356798	-0.0584334	0.0374153	0.001583093	-0.001124131	-0.3358481	0.2384924	0	0
0.6522489	-0.05830227	0.03732218	0.007914153	-0.005620173	0.1910663	-0.1356869	0	0
0.669131	-0.05822359	0.03726631	0.004660662	-0.003309531	-0.09726082	0.069075	0	0
0.6853824	-0.05817114	0.03722906	0.003227558	-0.00229207	-0.04325249	0.03070797	0	0
0.7021615	-0.05814491	0.03721043	0.001563016	-0.001110097	-0.05039414	0.03578436	0	0
0.7350814	-0.05804	0.03713594	0.003186764	-0.00226302	0.03267163	-0.02319811	0	0
0.7516465	-0.05793509	0.03706143	0.006333276	-0.004497521	0.06358512	-0.04515509	0	0
0.7682133	-0.0577515	0.03693106	0.01108204	-0.007869841	0.1433292	-0.1017847	0	0
0.7847796	-0.05762036	0.03683792	0.007916138	-0.005621777	-0.09555119	0.06784949	0	0
0.8013476	-0.05759413	0.0368193	0.001583164	-0.001124246	-0.1911306	0.1357365	0	0
0.8179131	-0.0575679	0.03680067	0.001583391	-0.001124408	6.875964E-06	-4.883796E-06	0	0
0.8344822	-0.05754167	0.03678204	0.001582831	-0.001124394	-1.692757E-05	4.180949E-07	0	0
0.8510481	-0.05748921	0.03674479	0.003166715	-0.002248768	0.04780094	-0.03393311	0	0
0.8677716	-0.05746298	0.03672616	0.001568442	-0.001113792	-0.0480115	0.03409423	0	0
0.8842822	-0.05743676	0.03670754	0.00158843	-0.001128147	0.0006014419	-0.0004319198	0	0
0.9007463	-0.05741053	0.03668891	0.001593148	-0.001131336	0.0001430603	-9.673392E-05	0	0
0.9173135	-0.05741053	0.03668891	0	0	-0.04823157	0.03425051	0	0
0.9338802	-0.05741053	0.03668891	0	0	0	0	0	0
0.950837	-0.05741053	0.03668891	0	0	0	0	0	0
0.9673409	-0.05741053	0.03668891	0	0	0	0	0	0
0.9835801	-0.0573843	0.03667028	0.001615222	-0.001147241	0.04933017	-0.03503766	0	0
1.000147	-0.0573843	0.03667028	0	0	-0.04923588	0.03497069	0	0
1.016876	-0.0573843	0.03667028	0	0	0	0	0	0
1.03339	-0.0573843	0.03667028	0	0	0	0	0	0
1.049848	-0.05735807	0.03665165	0.001593794	-0.001131795	0.04833766	-0.03432585	0	0
1.106897	-0.05733184	0.03663303	0.0004597759	-0.000326499	-0.01542746	0.01095545	0	0
1.123464	-0.05733184	0.03663303	0	0	-0.006245584	0.004435154	0	0
1.140031	-0.05730561	0.0366144	0.001583243	-0.001124528	0.04778272	-0.03393856	0	0
1.156599	-0.05727938	0.03659577	0.001583164	-0.001124246	-2.40665E-06	8.4953E-06	0	0
1.173165	-0.05722692	0.03655851	0.003166558	-0.002249041	0.04778832	-0.03394735	0	0
1.189998	-0.05722692	0.03655851	0	0	-0.09480967	0.06733836	0	0
1.206297	-0.05722692	0.03655851	0	0	0	0	0	0
1.225629	-0.05722692	0.03655851	0	0	0	0	0	0
1.242538	-0.05722692	0.03655851	0	0	0	0	0	0
1.258766	-0.05722692	0.03655851	0	0	0	0	0	0
1.275559	-0.05722692	0.03655851	0	0	0	0	0	0
1.291897	-0.05722692	0.03655851	0	0	0	0	0	0
1.308464	-0.05722692	0.03655851	0	0	0	0	0	0
1.32503	-0.05722692	0.03655851	0	0	0	0	0	0
1.341598	-0.05722692	0.03655851	0	0	0	0	0	0
1.358164	-0.05722692	0.03655851	0	0	0	0	0	0
1.374731	-0.05722692	0.03655851	0	0	0	0	0	0
1.391298	-0.05722692	0.03655851	0	0	0	0	0	0
1.407867	-0.05722692	0.03655851	0	0	0	0	0	0
1.424431	-0.05722692	0.03655851	0	0	0	0	0	0
1.441178	-0.05722692	0.03655851	0	0	0	0	0	0
1.45769	-0.05722692	0.03655851	0	0	0	0	0	0
1.474202	-0.05722692	0.03655851	0	0	0	0	0	0
1.490699	-0.05720069	0.03653989	0.001590028	-0.001129121	0.04816945	-0.0342064	0	0
1.507724	-0.05720069	0.03653989	0	0	-0.04743202	0.03368273	0	0
1.523832	-0.05722692	0.03652126	-0.001628365	-0.001156577	-0.04914505	-0.03490618	0	0
1.540397	-0.05722692	0.03652126	0	0	0.04983917	0.03539919	0	0
1.557257	-0.05722692	0.03652126	0	0	0	0	0	0
1.573532	-0.05722692	0.03652126	0	0	0	0	0	0
1.590098	-0.05722692	0.03652126	0	0	0	0	0	0
1.606792	-0.05722692	0.03652126	0	0	0	0	0	0
1.623232	-0.05722692	0.03652126	0	0	0	0	0	0
1.639816	-0.05722692	0.03652126	0	0	0	0	0	0
1.656364	-0.05722692	0.03652126	0	0	0	0	0	0
1.672931	-0.05722692	0.03652126	0	0	0	0	0	0
1.6895	-0.05722692	0.03652126	0	0	0	0	0	0
1.706364	-0.05722692	0.03652126	0	0	0	0	0	0
1.722877	-0.05722692	0.03652126	0	0	0	0	0	0
1.739197	-0.05722692	0.03652126	0	0	0	0	0	0
1.755764	-0.05722692	0.03652126	0	0	0	0	0	0
1.772411	-0.05722692	0.03652126	0	0	0	0	0	0
1.788921	-0.05722692	0.03652126	0	0	0	0	0	0
1.805464	-0.05722692	0.03652126	0	0	0	0	0	0
1.822031	-0.05722692	0.03652126	0	0	0	0	0	0
1.838597	-0.05722692	0.03652126	0	0	0	0	0	0
1.855469	-0.05722692	0.03652126	0	0	0	0	0	0
1.871731	-0.05722692	0.03652126	0	0	0	0	0	0
1.888492	-0.05722692	0.03652126	0	0	0	0	0	0
1.904863	-0.05722692	0.03652126	0	0	0	0	0	0
1.921514	-0.05722692	0.03652126	0	0	0	0	0	0
1.958063	-0.05722692	0.03652126	0	0	0	0	0	0
1.974629	-0.05720069	0.03650263	0.001583357	-0.001124384	0.02981005	-0.0211689	0	0
1.991196	-0.05720069	0.03650263	0	0	-0.04778788	0.03393544	0	0
2.007762	-0.05720069	0.03650263	0	0	0	0	0	0
2.025091	-0.05720069	0.03650263	0	0	0	0	0	0
2.040895	-0.05720069	0.03650263	0	0	0	0	0	0
2.057611	-0.05720069	0.03650263	0	0	0	0	0	0
2.074029	-0.05720069	0.03650263	0	0	0	0	0	0
2.090596	-0.05720069	0.03650263	0	0	0	0	0	0
2.107163	-0.05720069	0.03650263	0	0	0	0	0	0
2.123729	-0.05720069	0.03650263	0	0	0	0	0	0
2.140296	-0.05720069	0.03650263	0	0	0	0	0	0
2.156863	-0.05720069	0.03650263	0	0	0	0	0	0
2.173693	-0.05717446	0.036484	0.001558516	-0.001106965	0.04666573	-0.0331452	0	0
2.189996	-0.05717446	0.036484	0	0	-0.04703813	0.0334097	0	0
2.206716	-0.05717446	0.036484	0	0	0	0	0	0
2.223232	-0.05717446	0.036484	0	0	0	0	0	0
2.23974	-0.05717446	0.036484	0	0	0	0	0	0
2.256264	-0.05717446	0.036484	0	0	0	0	0	0
2.272829	-0.05717446	0.036484	0	0	0	0	0	0
2.289397	-0.05717446	0.036484	0	0	0	0	0	0
2.305998	-0.05717446	0.036484	0	0	0	0	0	0
2.322797	-0.05717446	0.036484	0	0	0	0	0	0
2.339096	-0.05714823	0.03646537	0.001609515	-0.001142797	0.04862843	-0.03452743	0	0
2.355662	-0.05714823	0.03646537	0	0	-0.04897345	0.0347724	0	0
2.372231	-0.05714823	0.03646537	0	0	0	0	0	0
2.388797	-0.05714823	0.03646537	0	0	0	0	0	0
2.405362	-0.05714823	0.03646537	0	0	0	0	0	0
2.421929	-0.05714823	0.03646537	0	0	0	0	0	0
2.438496	-0.05714823	0.03646537	0	0	0	0	0	0
2.455062	-0.05714823	0.03646537	0	0	0	0	0	0
2.471629	-0.05717446	0.03644674	-0.001583502	-0.001124552	-0.04779261	-0.03394076	0	0
2.488196	-0.05714823	0.03642812	0.001583502	-0.001124327	0.09558315	6.788126E-06	0	0
2.504929	-0.057122	0.03640949	0.001567554	-0.001113384	-0.0004789435	0.0003286299	0	0
2.521329	-0.057122	0.03640949	0	0	-0.04731023	0.03360296	0	0
2.537897	-0.057122	0.03640949	0	0	0	0	0	0
2.554462	-0.057122	0.03637223	0	-0.002249106	0	-0.06788108	0	0
2.571029	-0.057122	0.03637223	0	0	0	0.06788352	0	0
2.587596	-0.057122	0.03637223	0	0	0	0	0	0
2.604164	-0.057122	0.03637223	0	0	0	0	0	0
2.620729	-0.057122	0.03637223	0	0	0	0	0	0
2.637296	-0.057122	0.03637223	0	0	0	0	0	0
2.653864	-0.05709577	0.0363536	0.001583232	-0.00112452	0.04778203	-0.03393807	0	0
2.67043	-0.05706954	0.03633497	0.001583346	-0.001124376	3.439763E-06	4.346259E-06	0	0
2.686998	-0.05701708	0.03626045	0.003166191	-0.004497691	0.04777	-0.1018061	0	0
2.709543	-0.05670231	0.03603689	0.01396231	-0.009916472	0.2760253	-0.1385424	0	0
2.726112	-0.05510206	0.03490025	0.09658042	-0.06859995	2.112278	-1.500346	0	0
2.808945	-0.02402169	0.0104597	0.3752169	-0.295058	2.803123	-2.2782	0	0
2.858643	-0.02520519	-0.04936614	-0.02381341	-1.203773	-3.010831	-6.856591	0	0
2.87521	-0.02670418	-0.07879382	-0.0904818	-1.776309	-1.006082	-8.640048	0	0
2.891777	-0.02786121	-0.1018081	-0.06983861	-1.389145	0.6230217	11.68482	0	0
2.908345	-0.02875523	-0.1251847	-0.05396079	-1.410951	0.4791833	-0.6581102	0	0
2.92491	-0.02922852	-0.1484657	-0.02857136	-1.405427	0.7662876	0.1667158	0	0
2.941477	-0.02901817	-0.1707744	0.01269703	-1.346594	1.245581	1.775731	0	0
2.958256	-0.02817675	-0.198415	0.05014573	-1.647296	1.123028	-9.017574	0	0
2.97476	-0.02680936	-0.2170127	0.08285397	-1.126887	0.9827311	15.63587	0	0
2.991271	-0.02520519	-0.2341042	0.0971597	-1.035176	0.4333193	2.777908	0	0
3.007785	-0.0224962	-0.2496755	0.1640362	-0.942885	2.025011	2.79457	0	0
3.02431	-0.01581447	-0.2722875	0.4043461	-1.368364	7.273448	-12.87796	0	0
3.040876	-0.01294664	-0.2801173	0.1731122	-0.4726376	-6.987802	27.06853	0	0
3.057444	-0.00634202	-0.292914	0.3986502	-0.7723975	6.806896	-9.046966	0	0
3.074011	-0.0004736842	-0.2994635	0.3542135	-0.3953291	-1.341093	11.37986	0	0
3.090841	0.005394685	-0.3042358	0.3486906	-0.283564	-0.1653698	3.346564	0	0
3.107144	0.01078906	-0.3085912	0.3308808	-0.2671505	-0.5375282	0.4953856	0	0
3.123865	0.01370967	-0.3109341	0.1746697	-0.1401233	-4.730255	3.846532	0	0
3.140277	0.01405171	-0.3110847	0.02084079	-0.009175661	-4.642799	3.952206	0	0
3.156889	0.01407802	-0.3110632	0.001583792	0.001295244	-0.5831115	0.3170643	0	0
3.173411	0.01410433	-0.3110417	0.0015925	0.001302365	0.0002628023	0.0002149246	0	0
3.189977	0.01413064	-0.3110202	0.001588181	0.001298879	-0.0001305355	-0.0001053685	0	0
3.206546	0.01415695	-0.3109987	0.001587986	0.001296875	-5.891965E-06	-6.048663E-05	0	0
3.223111	0.01415695	-0.3109987	0	0	-0.04792653	-0.0391406	0	0
3.239677	0.01415695	-0.3109987	0	0	0	0	0	0
3.256246	0.01420957	-0.3109987	0.003175915	0	0.09584793	0	0	0
3.27297	0.01426219	-0.3109987	0.003146406	0	-0.0008863409	0	0	0
3.331439	0.01747191	-0.3130648	0.05489573	-0.03533761	0.6882141	-0.4699548	0	0
3.348024	0.02128626	-0.3159745	0.2299899	-0.1754406	2.332903	-1.866692	0	0
3.364574	0.03109524	-0.3237789	0.5926852	-0.471561	10.94601	-8.936801	0	0
3.381142	0.03480173	-0.3267498	0.2237149	-0.1793164	-11.14108	8.824339	0	0
3.397707	0.03827078	-0.3294432	0.2094192	-0.1625959	-0.431465	0.5046471	0	0
3.414274	0.0420016	-0.3321408	0.2251929	-0.1628303	0.4760829	-0.007074072	0	0
3.43109	0.04428681	-0.3327288	0.1358959	-0.03496335	-2.674913	3.830286	0	0
3.447407	0.04460198	-0.3324674	0.01931538	0.01601632	-3.518585	1.538647	0	0
3.463975	0.04528481	-0.3319013	0.04121375	0.03416809	0.6659107	0.55198	0	0
3.480542	0.04554743	-0.3317272	0.01585211	0.01051111	-0.7654101	-0.713964	0	0
3.497128	0.04591507	-0.3317272	0.02216677	0	0.1904738	-0.3170548	0	0
3.517166	0.04591507	-0.3317272	0	0	-0.6052572	0	0	0
3.533734	0.04594133	-0.3317054	0.001584962	0.001314919	0.0432978	0.03592078	0	0
3.566868	0.04604638	-0.3316184	0.003170197	0.002627271	0.03189467	0.02640433	0	0
3.583435	0.04607264	-0.3315966	0.001585076	0.001313214	-0.03189315	-0.02643926	0	0
3.600202	0.04617767	-0.3315095	0.006264308	0.005193448	0.140372	0.116403	0	0
3.616567	0.04628271	-0.3314225	0.006418732	0.005319653	0.004660875	0.003809132	0	0
3.633134	0.04651904	-0.3312266	0.01426505	0.01182039	0.2382614	0.1974013	0	0
3.6497	0.04665034	-0.3311178	0.007925386	0.006568059	-0.191337	-0.1585201	0	0
3.666268	0.04709673	-0.330748	0.02694279	0.02232483	0.5739505	0.4755438	0	0
3.682834	0.04741181	-0.3304869	0.01901967	0.01575723	-0.239122	-0.1982123	0	0
3.715967	0.05817114	-0.3215486	0.3247335	0.2697733	6.151299	5.111083	0	0
3.732535	0.06307412	-0.3175067	0.2959318	0.2439578	-0.5795032	-0.519418	0	0
3.7491	0.06938842	-0.3123113	0.3811868	0.3136424	2.573131	2.103191	0	0
3.765824	0.07279221	-0.3094721	0.2035289	0.169768	-5.33688	-4.322019	0	0
3.782234	0.07399623	-0.3084837	0.07337069	0.06022716	-3.928237	-3.305996	0	0
3.798842	0.07412709	-0.3083763	0.00787912	0.006467312	-1.983518	-1.628204	0	0
3.815368	0.07412709	-0.3083763	0	0	-0.237794	-0.1951853	0	0
3.831936	0.07412709	-0.3083763	0	0	0	0	0	0
3.8485	0.07407475	-0.3084193	-0.003159723	-0.002594346	-0.09536681	-0.0783026	0	0
3.865068	0.07404857	-0.3084408	-0.001579859	-0.001296986	0.04768383	0.03915722	0	0
3.881903	0.07404857	-0.3084408	0	0	0.04729771	0.03882909	0	0
3.89911	0.0740224	-0.3084623	-0.001521148	-0.001247056	-0.0446846	-0.03663298	0	0
3.915678	0.0740224	-0.3084623	0	0	0.04503757	0.03692235	0	0
3.932246	0.07399623	-0.3084837	-0.001579341	-0.00129693	-0.04766187	-0.03913919	0	0
3.948948	0.07397006	-0.3085052	-0.001567072	-0.001286489	0.0003687635	0.0003138316	0	0
3.96546	0.07391771	-0.3085482	-0.003170303	-0.002600858	-0.04826924	-0.03957233	0	0
3.981972	0.07389154	-0.3085697	-0.001584746	-0.001301369	0.04801319	0.0393506	0	0
3.998539	0.07386537	-0.3085482	-0.001579836	0.001296968	0.0001484239	0.07854965	0	0
4.015078	0.07381302	-0.3085912	-0.00316523	-0.002598498	-0.04788862	-0.117667	0	0
4.031644	0.07378685	-0.3086126	-0.001579905	-0.001297024	0.0478876	0.03931335	0	0
4.048519	0.07373451	-0.3086556	-0.003101688	-0.002544929	-0.04550577	-0.03731602	0	0
4.064778	0.07365599	-0.3087201	-0.004829512	-0.003964792	-0.05214734	-0.04285276	0	0
4.081345	0.07349894	-0.308806	-0.009479155	-0.005186147	-0.1416454	-0.03720701	0	0
4.097911	0.0733419	-0.3089349	-0.009479701	-0.007782367	-1.647139E-05	-0.07835633	0	0
4.114566	0.07308014	-0.3091497	-0.01571626	-0.01289975	-0.187728	-0.1540395	0	0
4.131078	0.07287074	-0.3092787	-0.01268248	-0.007808213	0.0914714	0.1535149	0	0
4.147611	0.07229484	-0.3097085	-0.03483258	-0.02599826	-0.6703048	-0.5504658	0	0
4.164602	0.07190215	-0.309945	-0.02311148	-0.01391793	0.3496278	0.3603431	0	0
4.202649	0.07137853	-0.310203	-0.01376249	-0.006780298	0.1698642	0.1296855	0	0
4.219217	0.07137853	-0.310203	0	0	0.251991	0.1241471	0	0
4.236152	0.07132617	-0.31016	-0.00309209	0.002539492	-0.0922941	0.07579988	0	0
4.25235	0.07129999	-0.3101815	-0.001616268	-0.001328339	0.04454232	-0.1167364	0	0
4.268917	0.07129999	-0.3101815	0	0	0.04932924	0.04054151	0	0
4.285484	0.07129999	-0.3101815	0	0	0	0	0	0
4.30205	0.0712738	-0.31016	-0.0015804	0.00129886	-0.04769794	0.03920081	0	0
4.31871	0.07111671	-0.310031	-0.00942965	0.007742286	-0.2362381	0.1939272	0	0
4.335223	0.07054066	-0.3095581	-0.03488486	0.02863846	-0.7673562	0.6299227	0	0
4.351752	0.06614023	-0.3058651	-0.2662236	0.2234198	-7.001364	5.894971	0	0
4.368317	0.06160615	-0.30203	-0.2737087	0.2315181	-0.2261739	0.2447009	0	0
4.384885	0.04541612	-0.2887023	-0.9772044	0.8044359	-21.23246	17.29144	0	0
4.401452	0.03388176	-0.2791447	-0.6962349	0.5769148	8.479678	-6.866601	0	0
4.418017	0.02139147	-0.2684162	-0.7539806	0.6476282	-1.742869	2.134258	0	0
4.434584	0.003052622	-0.2517374	-1.106999	1.006796	-10.65489	10.8405	0	0
4.451306	-0.01176262	-0.2377219	-0.8859369	0.8381131	6.640707	-5.067248	0	0
4.500851	-0.07315867	-0.1884891	-1.239203	0.9937015	-5.330906	2.347884	0	0
4.517852	-0.08602402	-0.1780446	-0.7567548	0.6143601	7.249896	-5.700482	0	0
4.533984	-0.107479	-0.154411	-1.329972	1.465022	-17.30072	25.6745	0	0
4.550552	-0.1204924	-0.135592	-0.7854488	1.135853	16.65205	-10.06632	0	0
4.567386	-0.1343438	-0.1108474	-0.8228082	1.469893	-1.118464	10.00046	0	0
4.583901	-0.1440995	-0.09474297	-0.5907273	0.9751554	6.959148	-14.83513	0	0
4.600414	-0.1566019	-0.07738364	-0.7571281	1.05126	-5.038225	2.304278	0	0
4.616817	-0.1591171	-0.07352385	-0.1533367	0.2353075	18.34336	-24.78889	0	0
4.633433	-0.172786	-0.05994121	-0.8226202	0.8174264	-20.26932	17.62953	0	0
4.666518	-0.1833643	-0.05202544	-0.3197361	0.2392598	10.11824	-11.63296	0	0
4.683084	-0.1826773	-0.05254228	0.04146998	-0.03119805	7.274949	-5.447215	0	0
4.716218	-0.1819392	-0.0530975	0.0222753	-0.01675684	-0.3862089	0.2905661	0	0
4.732783	-0.1819138	-0.05311665	0.001536413	-0.001155908	-0.4172872	0.3139065	0	0
4.749514	-0.1819138	-0.05307836	0	0.002288731	-0.04614393	0.1034547	0	0
4.765917	-0.1819138	-0.05304006	0	0.002334733	0	0.001388411	0	0
4.782537	-0.1818374	-0.05294433	0.004594797	0.005759859	0.1391378	0.1037183	0	0
4.799049	-0.181761	-0.05292518	0.00462505	0.001159647	0.0009130924	-0.1388427	0	0
4.815616	-0.1816847	-0.05286774	0.004609742	0.003466975	-0.0004627942	0.06975276	0	0
4.832183	-0.1814046	-0.05265715	0.01690358	0.01271209	0.3710396	0.2790262	0	0
4.84875	-0.1797493	-0.05137474	0.09992031	0.07740813	2.505522	1.952586	0	0
4.865317	-0.1709723	-0.04479928	0.5297669	0.3968842	12.97279	9.641808	0	0
4.882107	-0.1655754	-0.04077329	0.3214354	0.2397866	-6.245393	-4.709499	0	0
4.898622	-0.1540847	-0.03228103	0.6958041	0.5142363	11.24088	8.240692	0	0
4.915016	-0.1441253	-0.02493124	0.607479	0.4483053	-2.683924	-2.003439	0	0
4.931644	-0.1390185	-0.02121548	0.307123	0.2234669	-9.095522	-6.808662	0	0
4.948152	-0.1319913	-0.01606615	0.4256965	0.3119363	3.578452	2.669933	0	0
4.964717	-0.123448	-0.009829924	0.5157167	0.376452	2.721829	1.950681	0	0
4.981283	-0.1167301	-0.004943818	0.4055425	0.2949599	-3.325399	-2.459682	0	0
4.99785	-0.1104175	-0.0003661485	0.3810171	0.2763007	-0.7402119	-0.5631602	0	0
5.017625	-0.1011536	0.006328911	0.4684674	0.3385633	2.406276	1.71321	0	0
5.034214	-0.09555025	0.01032834	0.3377801	0.2410937	-3.593905	-2.680417	0	0
5.05076	-0.09028023	0.01396695	0.3185115	0.2199121	-0.5815266	-0.6392601	0	0
5.067328	-0.08469167	0.01790136	0.3372976	0.2374609	0.5673068	0.5299428	0	0
5.083894	-0.08325448	0.01885619	0.08675878	0.05764035	-7.561384	-5.427072	0	0
5.10046	-0.08019605	0.02097088	0.1846176	0.1276499	2.95364	2.113075	0	0
5.117272	-0.07786855	0.02241113	0.1384402	0.08566662	-1.383443	-1.25779	0	0
5.133785	-0.07645594	0.02327126	0.08554878	0.0520901	-1.587153	-1.007556	0	0
5.150296	-0.07642978	0.02325257	0.001584295	-0.00113238	-2.542542	-1.611638	0	0
5.166809	-0.07635129	0.02315908	0.004752924	-0.005661186	0.09594838	-0.1371355	0	0
5.18332	-0.07629897	0.02312169	0.003169224	-0.002264892	-0.04795696	0.1028452	0	0
5.199862	-0.07629897	0.02312169	0	0	-0.0958847	0.06852418	0	0
5.216428	-0.07629897	0.02312169	0	0	0	0	0	0
5.232995	-0.07629897	0.02312169	0	0	0	0	0	0
5.24956	-0.07629897	0.02312169	0	0	0	0	0	0
5.266127	-0.07629897	0.02312169	0	0	0	0	0	0
5.282693	-0.0762728	0.02310299	0.001579455	-0.0011286	0.04766941	-0.03406218	0	0
5.299403	-0.0762728	0.02310299	0	0	-0.04746517	0.03391624	0	0
5.315828	-0.07622048	0.0230656	0.003185693	-0.002276661	0.09614439	-0.06870978	0	0
5.332426	-0.07624664	0.0230843	-0.00157646	0.00112646	-0.1442056	0.1030519	0	0
5.34896	-0.07624664	0.02312169	0	0.002261691	0.04758108	0.03426381	0	0
5.365527	-0.0762728	0.02314039	-0.00157896	0.001128567	-0.04770115	-0.03423223	0	0
5.382095	-0.0762728	0.02314039	0	0	0.04765172	-0.03405925	0	0
5.398972	-0.07624664	0.02312169	0.001550006	-0.001107873	0.0463451	-0.03312533	0	0
5.415228	-0.07624664	0.02312169	0	0	-0.04678198	0.03343759	0	0
5.431794	-0.07622048	0.02310299	0.001579546	-0.001128665	0.04812511	-0.0343878	0	0
5.448508	-0.07619431	0.0230469	0.001565487	-0.003355856	-0.0004224486	-0.06692207	0	0
5.465019	-0.07601117	0.02291602	0.01109219	-0.007927118	0.2867283	-0.1375828	0	0
5.481534	-0.07525236	0.02233633	0.04594567	-0.03510031	1.055328	-0.8227764	0	0
5.498061	-0.07260897	0.020447	0.1599467	-0.1143195	3.450191	-2.397533	0	0
5.514627	-0.07184979	0.01986691	0.04582842	-0.03501761	-3.448465	2.39637	0	0
5.531195	-0.06480387	0.01482916	0.4252802	-0.3040705	11.45221	-8.120266	0	0
5.54776	-0.05856453	0.01036587	0.3766504	-0.2694356	-1.467712	1.045328	0	0
5.564589	-0.05515453	0.007925489	0.2026263	-0.1450103	-5.211187	3.725941	0	0
5.581105	-0.05153328	0.005333018	0.2192543	-0.1569653	0.4986643	-0.3585224	0	0
5.59746	-0.05129706	0.005126286	0.01444307	-0.01264025	-6.230712	4.390616	0	0
5.614128	-0.05132331	0.00514508	-0.001574614	0.001127626	-0.485055	0.4169252	0	0
5.630593	-0.05132331	0.00514508	0	0	0.047524	-0.03403329	0	0
5.64716	-0.05132331	0.00514508	0	0	0	0	0	0
5.663727	-0.05132331	0.00514508	0	0	0	0	0	0
5.680294	-0.05134956	0.005163874	-0.001584402	0.001134446	-0.04781872	0.03423864	0	0
5.719594	-0.05134956	0.005163874	0	0	0.02835991	-0.02030595	0	0
5.736211	-0.05134956	0.005163874	0	0	0	0	0	0
5.752728	-0.0513758	0.005182669	-0.001588933	0.001137852	-0.04795549	0.03434144	0	0
5.769295	-0.05140205	0.005201463	-0.001584402	0.001134446	0.0001369689	-0.0001029527	0	0
5.786247	-0.05140205	0.005201463	0	0	0.04726839	-0.0338446	0	0
5.802758	-0.05140205	0.005201463	0	0	0	0	0	0
5.819003	-0.05140205	0.005201463	0	0	0	0	0	0
5.835561	-0.05140205	0.005201463	0	0	0	0	0	0
5.852128	-0.05140205	0.005201463	0	0	0	0	0	0
5.868804	-0.05140205	0.005201463	0	0	0	0	0	0
5.885262	-0.05140205	0.005201463	0	0	0	0	0	0
5.901829	-0.05140205	0.005201463	0	0	0	0	0	0
5.918396	-0.05140205	0.005201463	0	0	0	0	0	0
5.934962	-0.05140205	0.005201463	0	0	0	0	0	0
5.951529	-0.05140205	0.005201463	0	0	0	0	0	0
5.968095	-0.05140205	0.005201463	0	0	0	0	0	0
5.984888	-0.05140205	0.005201463	0	0	0	0	0	0
6.0014	-0.05140205	0.005201463	0	0	0	0	0	0
6.017911	-0.05140205	0.005201463	0	0	0	0	0	0
6.034361	-0.05140205	0.005201463	0	0	0	0	0	0
6.050933	-0.05140205	0.005201463	0	0	0	0	0	0
6.067495	-0.05140205	0.005201463	0	0	0	0	0	0
6.084062	-0.05140205	0.005201463	0	0	0	0	0	0
6.10063	-0.05140205	0.005201463	0	0	0	0	0	0
6.117196	-0.0514283	0.005220256	-0.001584268	0.001134483	-0.04781469	0.03423976	0	0
6.133763	-0.05145454	0.00523905	-0.001584131	0.001134414	4.128448E-06	-2.108144E-06	0	0
6.150329	-0.05145454	0.00523905	0	0	0.04781124	-0.03423814	0	0
6.167015	-0.05148079	0.005257844	-0.001573037	0.001126281	-0.04730621	0.03387084	0	0
6.183527	-0.05150703	0.005276638	-0.001589438	0.001138186	-0.0004940181	0.0003585804	0	0
6.200042	-0.05150703	0.005276638	0	0	0.04812586	-0.03446259	0	0
6.216597	-0.05150703	0.005276638	0	0	0	0	0	0
6.282861	-0.05150703	0.005276638	0	0	0	0	0	0
6.299428	-0.05150703	0.005276638	0	0	0	0	0	0
6.315994	-0.05150703	0.005276638	0	0	0	0	0	0
6.332562	-0.05150703	0.005276638	0	0	0	0	0	0
6.349144	-0.05150703	0.005276638	0	0	0	0	0	0
6.365694	-0.05150703	0.005276638	0	0	0	0	0	0
6.382261	-0.05150703	0.005276638	0	0	0	0	0	0
6.398829	-0.05150703	0.005276638	0	0	0	0	0	0
6.415394	-0.05150703	0.005276638	0	0	0	0	0	0
6.432204	-0.05150703	0.005276638	0	0	0	0	0	0
6.448712	-0.05150703	0.005276638	0	0	0	0	0	0
6.471518	-0.05150703	0.005276638	0	0	0	0	0	0
6.509257	-0.05150703	0.005276638	0	0	0	0	0	0
6.52577	-0.05150703	0.005276638	0	0	0	0	0	0
6.542303	-0.05150703	0.005276638	0	0	0	0	0	0
6.558869	-0.05153328	0.005295431	-0.001584402	0.00113439	-0.04786763	0.03427196	0	0
6.575436	-0.05153328	0.005295431	0	0	0.04781872	-0.03423694	0	0
6.592002	-0.05153328	0.005295431	0	0	0	0	0	0
6.608827	-0.05153328	0.005295431	0	0	0	0	0	0
6.625135	-0.05153328	0.005295431	0	0	0	0	0	0
6.64185	-0.05153328	0.005295431	0	0	0	0	0	0
6.658376	-0.05153328	0.005295431	0	0	0	0	0	0
6.674836	-0.05153328	0.005295431	0	0	0	0	0	0
6.691405	-0.05153328	0.005295431	0	0	0	0	0	0
6.70797	-0.05153328	0.005295431	0	0	0	0	0	0
6.724535	-0.05153328	0.005295431	0	0	0	0	0	0
6.741103	-0.05153328	0.005295431	0	0	0	0	0	0
6.757669	-0.05155953	0.005314224	-0.001584268	0.001134483	-0.04781469	0.03423976	0	0
6.774236	-0.05155953	0.005314224	0	0	0.04781606	-0.03424075	0	0
6.790956	-0.05155953	0.005314224	0	0	0	0	0	0
6.807467	-0.05155953	0.005314224	0	0	0	0	0	0
6.823937	-0.05155953	0.005314224	0	0	0	0	0	0
6.840504	-0.05155953	0.005314224	0	0	0	0	0	0
6.857069	-0.05155953	0.005314224	0	0	0	0	0	0
6.873636	-0.05155953	0.005314224	0	0	0	0	0	0
6.890203	-0.05155953	0.005314224	0	0	0	0	0	0
6.90677	-0.05155953	0.005314224	0	0	0	0	0	0
6.923551	-0.05155953	0.005314224	0	0	0	0	0	0
6.939905	-0.05155953	0.005314224	0	0	0	0	0	0
6.95647	-0.05155953	0.005314224	0	0	0	0	0	0
6.973085	-0.05155953	0.005314224	0	0	0	0	0	0
6.989603	-0.05155953	0.005314224	0	0	0	0	0	0
7.00617	-0.05155953	0.005314224	0	0	0	0	0	0
7.023121	-0.05155953	0.005314224	0	0	0	0	0	0
7.039353	-0.05155953	0.005314224	0	0	0	0	0	0
7.055871	-0.05155953	0.005314224	0	0	0	0	0	0
7.072656	-0.05155953	0.005314224	0	0	0	0	0	0
7.089004	-0.05155953	0.005314224	0	0	0	0	0	0
7.188403	-0.05153328	0.005295431	0.000264032	-0.0001890715	0.002281114	-0.00163349	0	0
7.22176	-0.05155953	0.005314224	-0.0007867781	0.0005634063	-0.007915307	0.005668096	0	0
7.238105	-0.05155953	0.005314224	0	0	0.01582986	-0.01133565	0	0
7.254671	-0.05155953	0.005314224	0	0	0	0	0	0
7.271296	-0.05155953	0.005314224	0	0	0	0	0	0
7.287808	-0.05155953	0.005314224	0	0	0	0	0	0
7.304371	-0.05155953	0.005314224	0	0	0	0	0	0
7.320938	-0.05155953	0.005314224	0	0	0	0	0	0
7.341525	-0.05155953	0.005314224	0	0	0	0	0	0
7.358357	-0.05155953	0.005314224	0	0	0	0	0	0
7.374659	-0.05155953	0.005314224	0	0	0	0	0	0
7.391226	-0.05155953	0.005314224	0	0	0	0	0	0
7.409326	-0.05155953	0.005314224	0	0	0	0	0	0
7.425894	-0.05155953	0.005314224	0	0	0	0	0	0
7.442461	-0.05155953	0.005314224	0	0	0	0	0	0
7.459027	-0.05155953	0.005314224	0	0	0	0	0	0
7.475594	-0.05155953	0.005314224	0	0	0	0	0	0
7.492451	-0.05153328	0.005295431	0.001556887	-0.001114876	0.04658005	-0.03335564	0	0
7.508964	-0.05153328	0.005295431	0	0	-0.04665526	0.0334095	0	0
7.525293	-0.05150703	0.005276638	0.001607443	-0.001150887	0.04894449	-0.03504296	0	0
7.541989	-0.05150703	0.005276638	0	0	-0.04867312	0.03484867	0	0
7.558427	-0.05153328	0.005257844	-0.001596811	-0.001143303	-0.04819255	-0.03450545	0	0
7.574993	-0.05155953	0.00523905	-0.001584223	-0.001134451	0.0003814223	0.0002682178	0	0
7.59156	-0.05153328	0.005220256	0.001584177	-0.001134446	0.09562662	1.370293E-07	0	0
7.608128	-0.05153328	0.005220256	0	0	-0.04781056	0.03423765	0	0
7.624694	-0.05155953	0.00523905	-0.001584223	0.001134479	-0.04781262	0.03423913	0	0
7.641262	-0.05155953	0.00523905	0	0	0.04781193	-0.03423864	0	0
7.657828	-0.05155953	0.00523905	0	0	0	0	0	0
7.674581	-0.05155953	0.00523905	0	0	0	0	0	0
7.6911	-0.05155953	0.00523905	0	0	0	0	0	0
7.707605	-0.05155953	0.00523905	0	0	0	0	0	0
7.724093	-0.05155953	0.00523905	0	0	0	0	0	0
7.74066	-0.05155953	0.00523905	0	0	0	0	0	0
7.75764	-0.05155953	0.00523905	0	0	0	0	0	0
7.773795	-0.05155953	0.00523905	0	0	0	0	0	0
7.790362	-0.05155953	0.00523905	0	0	0	0	0	0
7.806929	-0.05155953	0.00523905	0	0	0	0	0	0
7.823497	-0.05155953	0.00523905	0	0	0	0	0	0
7.840207	-0.05155953	0.00523905	0	0	0	0	0	0
7.856629	-0.05155953	0.00523905	0	0	0	0	0	0
7.87322	-0.05155953	0.00523905	0	0	0	0	0	0
7.88976	-0.05155953	0.00523905	0	0	0	0	0	0
7.906326	-0.05155953	0.00523905	0	0	0	0	0	0
7.922893	-0.05155953	0.00523905	0	0	0	0	0	0
7.93946	-0.05155953	0.00523905	0	0	0	0	0	0
7.956027	-0.05155953	0.00523905	0	0	0	0	0	0
8.038859	-0.05155953	0.00523905	0	0	0	0	0	0
8.055426	-0.05155953	0.00523905	0	0	0	0	0	0
8.075513	-0.05155953	0.00523905	0	0	0	0	0	0
8.092378	-0.05155953	0.00523905	0	0	0	0	0	0
8.108889	-0.05155953	0.00523905	0	0	0	0	0	0
8.125215	-0.05155953	0.00523905	0	0	0	0	0	0
8.141781	-0.05155953	0.00523905	0	0	0	0	0	0
8.158422	-0.05155953	0.00523905	0	0	0	0	0	0
8.174937	-0.05155953	0.00523905	0	0	0	0	0	0
8.191482	-0.05155953	0.00523905	0	0	0	0	0	0
8.208049	-0.05155953	0.00523905	0	0	0	0	0	0
8.224972	-0.05155953	0.00523905	0	0	0	0	0	0
8.241181	-0.05155953	0.00523905	0	0	0	0	0	0
8.257993	-0.05155953	0.00523905	0	0	0	0	0	0
8.274317	-0.05155953	0.00523905	0	0	0	0	0	0
8.291017	-0.05155953	0.00523905	0	0	0	0	0	0
8.307527	-0.05155953	0.00523905	0	0	0	0	0	0
8.324039	-0.05155953	0.00523905	0	0	0	0	0	0
8.340582	-0.05155953	0.00523905	0	0	0	0	0	0
8.357148	-0.05155953	0.00523905	0	0	0	0	0	0
8.374077	-0.05155953	0.00523905	0	0	0	0	0	0
8.390281	-0.05155953	0.00523905	0	0	0	0	0	0
8.406849	-0.05155953	0.00523905	0	0	0	0	0	0
8.423414	-0.05155953	0.00523905	0	0	0	0	0	0
8.440121	-0.05155953	0.00523905	0	0	0	0	0	0
8.473145	-0.05155953	0.00523905	0	0	0	0	0	0
8.489683	-0.05155953	0.00523905	0	0	0	0	0	0
8.506247	-0.05155953	0.00523905	0	0	0	0	0	0
8.522813	-0.05155953	0.00523905	0	0	0	0	0	0
8.53938	-0.05155953	0.00523905	0	0	0	0	0	0
8.555946	-0.05155953	0.00523905	0	0	0	0	0	0
8.572513	-0.05155953	0.00523905	0	0	0	0	0	0
8.589229	-0.05153328	0.005220256	0.001570033	-0.001124317	0.04717323	-0.03378126	0	0
8.605646	-0.05155953	0.005201463	-0.001598579	-0.001144731	-0.09563163	-0.0006161067	0	0
8.622248	-0.05155953	0.005201463	0	0	0.04841381	0.03466879	0	0
8.63878	-0.05155953	0.005201463	0	0	0	0	0	0
8.655771	-0.05155953	0.005201463	0	0	0	0	0	0
8.671912	-0.05155953	0.005201463	0	0	0	0	0	0
8.688804	-0.05155953	0.005201463	0	0	0	0	0	0
8.705048	-0.05155953	0.005201463	0	0	0	0	0	0
8.721612	-0.05155953	0.005201463	0	0	0	0	0	0
8.787939	-0.05158577	0.005220256	-0.0003956855	0.0002833476	-0.004773537	0.003418297	0	0
8.804544	-0.05158577	0.005220256	0	0	0.004771177	-0.003416606	0	0
8.821388	-0.05158577	0.005220256	0	0	0	0	0	0
8.841236	-0.05158577	0.005220256	0	0	0	0	0	0
8.857913	-0.05155953	0.005201463	0.001573714	-0.001126925	0.0430862	-0.03085373	0	0
8.874372	-0.05155953	0.005201463	0	0	-0.04749341	0.0340097	0	0
8.890937	-0.05155953	0.005201463	0	0	0	0	0	0
8.92407	-0.05155953	0.005201463	0	0	0	0	0	0
8.940637	-0.05158577	0.005182669	-0.001584223	-0.001134479	-0.03187585	-0.02282664	0	0
8.957487	-0.05158577	0.005182669	0	0	0.04740804	0.03394941	0	0
8.97377	-0.05158577	0.005182669	0	0	0	0	0	0
8.990336	-0.05158577	0.005182669	0	0	0	0	0	0
9.006905	-0.05158577	0.005182669	0	0	0	0	0	0
9.02347	-0.05158577	0.005182669	0	0	0	0	0	0
9.040041	-0.05158577	0.005182669	0	0	0	0	0	0
9.056603	-0.05161202	0.005163874	-0.001584812	-0.00113474	-0.04783111	-0.03424751	0	0
9.07317	-0.05161202	0.005163874	0	0	0.04783799	0.03425244	0	0
9.089739	-0.05161202	0.005163874	0	0	0	0	0	0
9.106599	-0.05161202	0.005163874	0	0	0	0	0	0
9.123102	-0.05161202	0.005163874	0	0	0	0	0	0
9.139437	-0.05161202	0.005163874	0	0	0	0	0	0
9.156124	-0.05161202	0.005163874	0	0	0	0	0	0
9.172637	-0.05161202	0.005163874	0	0	0	0	0	0
9.189137	-0.05161202	0.005163874	0	0	0	0	0	0
9.205706	-0.05161202	0.005163874	0	0	0	0	0	0
9.222272	-0.05161202	0.005163874	0	0	0	0	0	0
9.238836	-0.05161202	0.005163874	0	0	0	0	0	0
9.255403	-0.05161202	0.005163874	0	0	0	0	0	0
9.272206	-0.05158577	0.00514508	0.001562057	-0.001118447	0.04681018	-0.03351652	0	0
9.288537	-0.05158577	0.00514508	0	0	-0.04714296	0.03375479	0	0
9.305105	-0.05158577	0.00514508	0	0	0	0	0	0
9.321745	-0.05158577	0.00514508	0	0	0	0	0	0
9.338253	-0.05158577	0.00514508	0	0	0	0	0	0
9.354804	-0.05158577	0.00514508	0	0	0	0	0	0
9.371371	-0.05158577	0.00514508	0	0	0	0	0	0
9.387938	-0.05158577	0.00514508	0	0	0	0	0	0
9.470769	-0.05155953	0.005126286	0.0003168445	-0.0002269014	0.003187646	-0.002282764	0	0
9.487367	-0.05155953	0.005126286	0	0	-0.003186637	0.002282041	0	0
9.503902	-0.05155953	0.005126286	0	0	0	0	0	0
9.520469	-0.05155953	0.005126286	0	0	0	0	0	0
9.537035	-0.05155953	0.005126286	0	0	0	0	0	0
9.553601	-0.05155953	0.005126286	0	0	0	0	0	0
9.570415	-0.05155953	0.005126286	0	0	0	0	0	0
9.586926	-0.05155953	0.005126286	0	0	0	0	0	0
9.603301	-0.05155953	0.005126286	0	0	0	0	0	0
9.619867	-0.05150703	0.005126286	0.00316867	0	0.09619269	0	0	0
9.636434	-0.05150703	0.005126286	0	0	-0.09563616	0	0	0
9.653	-0.05150703	0.005126286	0	0	0	0	0	0
9.669566	-0.05150703	0.005126286	0	0	0	0	0	0
9.691023	-0.05150703	0.005126286	0	0	0	0	0	0
9.707592	-0.05150703	0.005126286	0	0	0	0	0	0
9.724157	-0.05150703	0.005126286	0	0	0	0	0	0
9.790569	-0.05150703	0.005126286	0	0	0	0	0	0
9.806992	-0.05150703	0.005126286	0	0	0	0	0	0
9.823557	-0.05150703	0.005126286	0	0	0	0	0	0
9.840125	-0.05150703	0.005126286	0	0	0	0	0	0
9.85669	-0.05150703	0.005126286	0	0	0	0	0	0
9.873258	-0.05153328	0.005069903	-0.001584356	-0.003403297	-0.04781872	-0.1027176	0	0
9.889824	-0.051717	0.004900746	-0.01109001	-0.0102109	-0.2868894	-0.2054598	0	0
9.90639	-0.05245185	0.004299233	-0.04435778	-0.03630948	-1.004081	-0.787702	0	0
9.923165	-0.05363273	0.00334035	-0.07039489	-0.05716102	-0.780924	-0.6253949	0	0
9.939676	-0.05292422	0.002381193	0.04291167	-0.05809211	3.404021	-0.02797239	0	0
9.956185	-0.05090336	0.0009325339	0.1224091	-0.08774934	2.407552	-0.898159	0	0
9.972657	-0.04481208	-0.003549124	0.3697987	-0.2720796	7.500994	-5.588998	0	0
9.989223	-0.03375034	-0.01232297	0.6677268	-0.5296207	9.017701	-7.795266	0	0
10.00579	-0.02620453	-0.02093129	0.4554922	-0.5196294	-6.405621	0.3015568	0	0
10.02273	-0.0242847	-0.03941979	0.1132984	-1.091096	-10.21134	-17.05302	0	0
10.03892	-0.0247318	-0.05530029	-0.02761817	-0.9809672	-4.252993	3.323788	0	0
10.05549	-0.02570486	-0.0771326	-0.05873767	-1.317876	-0.9500718	-10.28577	0	0
10.07227	-0.02657269	-0.09241154	-0.05172423	-0.9106538	0.2103342	12.21267	0	0
10.08878	-0.02833452	-0.1052795	-0.1066943	-0.7792701	-1.651206	3.94654	0	0
10.10529	-0.03256743	-0.1171528	-0.2563694	-0.7191169	-4.532336	1.82151	0	0
10.12176	-0.03566908	-0.120174	-0.1883654	-0.1834784	2.062159	16.24274	0	0
10.13832	-0.0409245	-0.1236706	-0.3172365	-0.2110652	-3.901353	-0.8351451	0	0
10.1549	-0.04042533	-0.1232971	0.03011438	0.02253089	10.48066	7.048322	0	0
10.17146	-0.04037279	-0.1232578	0.003173463	0.002373629	-0.8131018	-0.6083648	0	0
10.20459	-0.04034651	-0.1231989	0.0007930108	0.001779636	-0.04790581	-0.0119539	0	0
10.22138	-0.04039906	-0.1231595	-0.003129837	0.002341442	-0.07858106	0.01125389	0	0
10.23772	-0.04121349	-0.1224325	-0.04982451	0.04447974	-1.409248	1.271736	0	0
10.2544	-0.04402417	-0.1202918	-0.1685565	0.1283761	-3.595654	2.540699	0	0
10.27086	-0.04628271	-0.1185649	-0.1372264	0.1049255	0.9455709	-0.7077606	0	0
10.28742	-0.05365897	-0.1130584	-0.4452572	0.3323899	-9.327258	6.887687	0	0
10.30399	-0.06215667	-0.1067631	-0.5129521	0.3800066	-2.043156	1.437155	0	0
10.32056	-0.06773831	-0.1026853	-0.3369276	0.2461547	5.312737	-4.03989	0	0
10.33745	-0.0733419	-0.09863325	-0.3316095	0.2397903	0.1589181	-0.1901851	0	0
10.35369	-0.07535703	-0.09717372	-0.1241057	0.0898878	6.262298	-4.523935	0	0
10.37048	-0.08035293	-0.09369358	-0.2976127	0.2073171	-5.253993	3.555895	0	0
10.38699	-0.08693819	-0.08887944	-0.3987958	0.2915387	-3.038582	2.529219	0	0
10.4035	-0.0975838	-0.0823708	-0.6447598	0.3942012	-7.448078	3.108739	0	0
10.41996	-0.1114572	-0.08169371	-0.8431278	0.04114852	-6.017414	-10.70971	0	0
10.43652	-0.1366948	-0.08432562	-1.523433	-0.1588716	-20.6022	-6.057364	0	0
10.47309	-0.1771242	-0.09373243	-1.105632	-0.2572505	7.863302	-1.851561	0	0
10.48966	-0.1993179	-0.105221	-1.339694	-0.6934901	-4.405219	-8.210331	0	0
10.50622	-0.214064	-0.1151342	-0.8900224	-0.5983279	13.57112	2.872003	0	0
10.52279	-0.2273677	-0.1256764	-0.8030599	-0.6363682	2.624534	-1.148058	0	0
10.5396	-0.2481712	-0.1421589	-1.237605	-0.9805437	-13.0198	-10.31215	0	0
10.55593	-0.2556987	-0.1481678	-0.4611045	-0.3680829	23.43484	18.4841	0	0
10.57262	-0.265918	-0.1562832	-0.6120488	-0.4860439	-4.571032	-3.5722	0	0
10.58906	-0.2718126	-0.1608107	-0.3586461	-0.2754647	7.64815	6.355657	0	0
10.60565	-0.2809704	-0.1674083	-0.5520989	-0.3977507	-5.858146	-3.703068	0	0
10.62219	-0.2868391	-0.1715364	-0.3546866	-0.249493	5.958088	4.474556	0	0
10.63876	-0.2872506	-0.1711153	-0.02483882	0.02542255	9.961132	8.302224	0	0
10.65532	-0.2872506	-0.1709949	0	0.007263363	0.7496587	-0.5480613	0	0
10.67189	-0.2872264	-0.171015	0.001460768	-0.00121071	0.0440886	-0.2557628	0	0
10.68846	-0.2871538	-0.1710752	0.004381043	-0.003630187	0.08812647	-0.07301364	0	0
10.70503	-0.287057	-0.1711554	0.005845544	-0.004843399	0.04419746	-0.03661377	0	0
10.72173	-0.2864033	-0.1716969	0.03913655	-0.03242138	1.000721	-0.8289887	0	0
10.73824	-0.2852163	-0.1727202	0.07187897	-0.06196401	0.9857283	-0.8893967	0	0
10.75475	-0.2848528	-0.1730212	0.02201996	-0.01823534	-1.509832	1.324193	0	0
10.77131	-0.2848286	-0.1730011	0.001463157	0.001212098	-0.6216401	0.5880926	0	0
10.78786	-0.2848286	-0.1730011	0	0	-0.04419632	-0.03661281	0	0
10.80479	-0.2848286	-0.1730011	0	0	0	0	0	0
10.82099	-0.2848286	-0.1730011	0	0	0	0	0	0
10.83781	-0.2848043	-0.1730212	0.001440427	-0.001193269	0.04361654	-0.03613252	0	0
10.85412	-0.2847801	-0.1730413	0.001487138	-0.001230452	0.00140979	-0.001122212	0	0
10.87084	-0.2847801	-0.1730413	0	0	-0.04502967	0.03725735	0	0
10.88726	-0.2848043	-0.1730212	-0.001477378	0.001222376	-0.04458865	0.03689245	0	0
10.90386	-0.2848043	-0.1729811	0	0.002418625	0.04474448	0.03623008	0	0
10.92039	-0.2848043	-0.1729409	0	0.002427832	0	0.0002778855	0	0
10.93696	-0.2848043	-0.1729008	0	0.002422941	0	-0.0001477602	0	0
10.95352	-0.2847801	-0.1728807	0.001464366	0.00121161	0.04419465	-0.03655804	0	0
10.97009	-0.2847801	-0.1728807	0	0	-0.04419719	-0.03656856	0	0
10.98666	-0.2847801	-0.1728807	0	0	0	0	0	0
11.00322	-0.2847801	-0.1728807	0	0	0	0	0	0
11.01979	-0.2847801	-0.1728807	0	0	0	0	0	0
11.03636	-0.2847801	-0.1728807	0	0	0	0	0	0
11.05292	-0.2847801	-0.1728807	0	0	0	0	0	0
11.06949	-0.2847801	-0.1728807	0	0	0	0	0	0
11.08648	-0.2847801	-0.1728807	0	0	0	0	0	0
11.11145	-0.2847801	-0.1728807	0	0	0	0	0	0
11.12801	-0.2847801	-0.1728807	0	0	0	0	0	0
11.14458	-0.2847801	-0.1728807	0	0	0	0	0	0
11.16115	-0.2847801	-0.1728807	0	0	0	0	0	0
11.17772	-0.2847801	-0.1728807	0	0	0	0	0	0
11.19428	-0.2847801	-0.1728807	0	0	0	0	0	0
11.21088	-0.2847801	-0.1728807	0	0	0	0	0	0
11.22758	-0.2847801	-0.1728807	0	0	0	0	0	0
11.2441	-0.2847559	-0.1729008	0.001467212	-0.001215458	0.04417249	-0.03659308	0	0
11.26061	-0.2847559	-0.1729008	0	0	-0.0444289	0.03680548	0	0
11.27712	-0.2847559	-0.1729008	0	0	0	0	0	0
11.29368	-0.2847559	-0.1729008	0	0	0	0	0	0
11.31025	-0.2847559	-0.1729008	0	0	0	0	0	0
11.32681	-0.2847559	-0.1729008	0	0	0	0	0	0
11.34367	-0.2847559	-0.1729008	0	0	0	0	0	0
11.35995	-0.2847559	-0.1729008	0	0	0	0	0	0
11.37651	-0.2847316	-0.1729209	0.001462567	-0.00121161	0.0445274	-0.03688709	0	0
11.3932	-0.2846831	-0.1728807	0.002905689	0.002405632	0.04339739	0.1087772	0	0
11.40965	-0.284465	-0.1727001	0.01326653	0.01098235	0.3126997	0.2588533	0	0
11.42623	-0.2841255	-0.1724593	0.02047085	0.01452318	0.2181365	0.1072111	0	0
11.44278	-0.283883	-0.1722185	0.01464923	0.01454481	-0.1756971	0.0006527094	0	0
11.45935	-0.2829855	-0.1714361	0.05417482	0.04722398	1.193366	0.986657	0	0
11.47592	-0.2798526	-0.1688503	0.1891028	0.1560836	4.072134	3.28539	0	0
11.57531	-0.1797493	-0.08967473	1.007099	0.7965534	7.05383	5.522964	0	0
11.59234	-0.1515398	-0.06814837	1.656483	1.264043	5.57758	4.015287	0	0
11.60845	-0.1308274	-0.05250399	1.28626	0.9715324	-11.17399	-8.828495	0	0
11.62501	-0.1045906	-0.0328325	1.583654	1.187374	9.102972	6.606706	0	0
11.64158	-0.08602402	-0.01886695	1.120748	0.8430105	-13.97095	-10.3932	0	0
11.65839	-0.07417943	-0.009999843	0.7045178	0.5274173	-12.46996	-9.454955	0	0
11.67471	-0.04714924	0.01113517	1.656142	1.294944	28.72089	23.16466	0	0
11.69129	-0.03401319	0.02267293	0.7927109	0.6962606	-26.2503	-18.20135	0	0
11.70793	-0.02228578	0.03264456	0.7046633	0.5991641	-2.650948	-2.923395	0	0
11.72443	-0.01831374	0.03542203	0.2406256	0.1682585	-13.99824	-12.99877	0	0
11.74098	0.0004736842	0.04866577	1.135384	0.8003612	27.0693	19.12313	0	0
11.75755	0.002868413	0.050318	0.1445545	0.09973451	-29.92223	-21.15835	0	0
11.77414	0.00931552	0.05452892	0.3884773	0.2537336	7.355466	4.643826	0	0
11.79068	0.01007861	0.05458454	0.046145	0.00336334	-10.3322	-7.556625	0	0
11.80731	0.009973354	0.05358325	-0.006329371	-0.06021275	-1.582177	-1.916909	0	0
11.82381	0.009683908	0.05323088	-0.01753761	-0.02135007	-0.338275	1.172912	0	0
11.84053	0.008894502	0.0518582	-0.04723803	-0.08214115	-0.8941728	-1.830201	0	0
11.85695	0.0098681	0.05117168	0.05928179	-0.04180171	3.214774	1.217447	0	0
11.87354	0.01055224	0.05068919	0.04123065	-0.02907831	-0.5467356	0.3853681	0	0
11.89008	0.01057855	0.05067063	0.001590947	-0.001122121	-1.196397	0.8437682	0	0
11.90665	0.01055224	0.05068919	-0.0015882	0.001120183	-0.09602423	0.06772743	0	0
11.92321	0.01057855	0.05067063	0.001588474	-0.001120376	0.09587497	-0.06762216	0	0
11.95886	0.01052593	0.05067063	-0.001476418	0	-0.05870334	0.0214591	0	0
11.97561	0.0104733	0.05063351	-0.003141031	-0.002215276	-0.03176822	-0.04227732	0	0
11.99214	0.01036805	0.05059639	-0.00636992	-0.002246443	-0.09702915	-0.0009365837	0	0
12.00856	0.01015755	0.05044792	-0.01281746	-0.009040561	-0.1956968	-0.2062161	0	0
12.02515	0.01005229	0.05037368	-0.006343924	-0.004474775	0.1960828	0.1382972	0	0
12.04169	0.009999666	0.05029944	-0.003181654	-0.004488449	0.09544571	-0.0004127081	0	0
12.05826	0.009657594	0.05002102	-0.02064632	-0.01680432	-0.5274945	-0.3719827	0	0
12.09139	-0.004421024	0.03918413	-0.4249302	-0.3270862	-8.134521	-6.243123	0	0
12.10821	-0.01452529	0.03124571	-0.6007993	-0.4720181	-3.520928	-2.90156	0	0
12.12453	-0.02204906	0.02590647	-0.4611163	-0.3272313	4.215642	4.369675	0	0
12.1411	-0.03677289	0.01542882	-0.8883741	-0.6321771	-12.99038	-9.271597	0	0
12.15774	-0.04746433	0.007794035	-0.6424519	-0.4587769	7.403835	5.220455	0	0
12.17425	-0.06005926	-0.001194558	-0.7627785	-0.5443701	-3.629374	-2.58172	0	0
12.19079	-0.06815742	-0.00698038	-0.4896797	-0.3498572	8.263306	5.885486	0	0
12.20736	-0.07493835	-0.01186954	-0.4092977	-0.2951105	2.428098	1.653736	0	0
12.22392	-0.08252269	-0.01727701	-0.4578181	-0.326414	-1.464389	-0.9447703	0	0
12.24049	-0.08910552	-0.02197344	-0.3973864	-0.2835099	1.82399	1.294961	0	0
12.25706	-0.09061955	-0.02295906	-0.09138674	-0.0594924	9.23562	6.76125	0	0
12.27382	-0.08986259	-0.02237144	0.04514684	0.03504715	4.095953	2.836149	0	0
12.29033	-0.0893927	-0.0220303	0.02845947	0.02066197	-0.5014609	-0.4322794	0	0
12.30685	-0.08936659	-0.02201134	0.001581182	0.001147868	-0.8139527	-0.5909438	0	0
12.32332	-0.08936659	-0.02201134	0	0	-0.04793123	-0.03479597	0	0
12.33989	-0.08936659	-0.02201134	0	0	0	0	0	0
12.35646	-0.08931439	-0.02204925	0.003151173	-0.00228794	0.09510534	-0.06905215	0	0
12.38959	-0.08913163	-0.02187869	0.005515883	0.00514788	0.04757988	0.1496147	0	0
12.40616	-0.08905331	-0.02182183	0.004727435	0.003431573	-0.01586422	-0.0345335	0	0
12.42272	-0.08897499	-0.02176498	0.004727163	0.003431263	-8.207116E-06	-9.359485E-06	0	0
12.43944	-0.08887056	-0.02172708	0.006248663	0.002267743	0.04571632	-0.03496015	0	0
12.45586	-0.08881834	-0.02168918	0.003180366	0.002308466	-0.09261204	0.001229164	0	0
12.47246	-0.08842669	-0.02140495	0.0235815	0.01711382	0.6177344	0.4482973	0	0
12.48899	-0.08800891	-0.0211018	0.02528006	0.01834375	0.05126251	0.0371196	0	0
12.50556	-0.08456103	-0.01856405	0.2081266	0.1531879	5.525317	4.074765	0	0
12.52212	-0.08215676	-0.01682288	0.1451217	0.1050968	-1.901546	-1.451434	0	0
12.53869	-0.07642978	-0.01268197	0.3457014	0.2499603	6.053682	4.372114	0	0
12.55526	-0.06742396	-0.006188233	0.5436233	0.3919854	5.973639	4.286573	0	0
12.57203	-0.06110803	-0.00168417	0.3764198	0.2684354	-5.014316	-3.705178	0	0
12.58839	-0.05394761	0.003453173	0.4378246	0.314123	1.853252	1.378893	0	0
12.60506	-0.04890833	0.007061552	0.3023436	0.2164936	-4.102759	-2.956501	0	0
12.62157	-0.04389284	0.01060981	0.3037323	0.2148785	0.04185409	-0.04867813	0	0
12.63809	-0.04155501	0.01227941	0.1415191	0.1010682	-4.910727	-3.44541	0	0
12.65466	-0.04150247	0.01231692	0.003171369	0.002264235	-4.181482	-2.986294	0	0
12.67161	-0.04150247	0.01231692	0	0	-0.09462272	-0.06755699	0	0
12.68779	-0.04152874	0.01229817	-0.001622982	-0.001158665	-0.04897888	-0.03496656	0	0
12.7081	-0.04168636	0.01211061	-0.007762415	-0.00923657	-0.1682389	-0.2213589	0	0
12.72467	-0.04205414	0.01181051	-0.02219259	-0.01810931	-0.3912988	-0.2405996	0	0
12.74165	-0.04218549	0.0116792	-0.007733971	-0.007731613	0.4308927	0.3092741	0	0
12.7578	-0.04218549	0.01164168	0	-0.002323207	0.2334319	0.1632401	0	0
12.77468	-0.04223802	0.01156665	-0.003111893	-0.004444427	-0.09420997	-0.06421816	0	0
12.79093	-0.04229056	0.01149161	-0.003233162	-0.004617738	-0.003660107	-0.005230844	0	0
12.8077	-0.04236937	0.01139781	-0.004699585	-0.005593726	-0.04441271	-0.02955918	0	0
12.82407	-0.04239563	0.01134153	-0.001605255	-0.003439426	0.09339514	0.06502253	0	0
12.87316	-0.04594133	0.008545135	-0.0722196	-0.05695766	-1.078753	-0.8175809	0	0
12.88976	-0.04591507	0.008563911	0.001582208	0.00113127	1.123437	0.8842497	0	0
12.90629	-0.04591507	0.008563911	0	0	-0.04775249	-0.03414279	0	0
12.92328	-0.04591507	0.008563911	0	0	0	0	0	0
12.93943	-0.04591507	0.008563911	0	0	0	0	0	0
12.9563	-0.04591507	0.008563911	0	0	0	0	0	0
12.97281	-0.04591507	0.008563911	0	0	0	0	0	0
12.98913	-0.04591507	0.008563911	0	0	0	0	0	0
13.00584	-0.04591507	0.008563911	0	0	0	0	0	0
13.02226	-0.04591507	0.008563911	0	0	0	0	0	0
13.03886	-0.04591507	0.008563911	0	0	0	0	0	0
13.0554	-0.04594133	0.008545135	-0.001588506	-0.001135774	-0.04794258	-0.0342787	0	0
13.07196	-0.04594133	0.008545135	0	0	0.04799507	0.03431623	0	0
13.08853	-0.04591507	0.00852636	0.001585031	-0.001133289	0.0478377	-0.03420372	0	0
13.10509	-0.04586256	0.008488809	0.003170244	-0.002266709	0.04784321	-0.03420766	0	0
13.12166	-0.04559994	0.008301046	0.01585212	-0.01133405	0.3827618	-0.2736687	0	0
13.13823	-0.04528481	0.008075717	0.01901953	-0.01359931	0.09558985	-0.0683637	0	0
13.15494	-0.04491714	0.007812814	0.02199768	-0.01572942	0.08947887	-0.06399948	0	0
13.17146	-0.04058297	0.004712785	0.2624872	-0.187745	7.237988	-5.177135	0	0
13.18797	-0.0354851	0.001064256	0.3087388	-0.2209634	1.400554	-1.005892	0	0
13.20449	-0.02838711	-0.004020238	0.4294987	-0.3076622	3.655166	-2.624205	0	0
13.22106	-0.02362718	-0.00739539	0.2872933	-0.2037129	-4.296962	3.140995	0	0
13.23763	-0.02028669	-0.009792166	0.2016556	-0.1446863	-2.584625	1.781476	0	0
13.25419	-0.01762975	-0.01169953	0.1603824	-0.1151351	-1.245736	0.8919329	0	0
13.27076	-0.01705098	-0.01211514	0.03493677	-0.02508795	-3.786173	2.717786	0	0
13.33707	-0.01715621	-0.01203957	-0.001586949	0.001139637	-0.4406971	0.3164634	0	0
13.35359	-0.01718252	-0.01202068	-0.001592262	0.001143466	-6.413762E-05	4.622839E-05	0	0
13.37016	-0.01718252	-0.01202068	0	0	0.04812104	-0.03455761	0	0
13.38673	-0.01718252	-0.01198289	0	0.002280632	0	0.06883159	0	0
13.40329	-0.01718252	-0.01198289	0	0	0	-0.06883159	0	0
13.41986	-0.01718252	-0.01198289	0	0	0	0	0	0
13.43643	-0.01718252	-0.01198289	0	0	0	0	0	0
13.45299	-0.01723514	-0.01194511	-0.003175725	0.002280501	-0.09584358	0.06882565	0	0
13.46966	-0.01723514	-0.01194511	0	0	0.09554383	-0.0686104	0	0
13.48613	-0.01726144	-0.01192622	-0.001598166	0.001147649	-0.0482369	0.03463911	0	0
13.52183	-0.01726144	-0.01192622	0	0	0.03063617	-0.02199995	0	0
13.5384	-0.01726144	-0.01192622	0	0	0	0	0	0
13.55497	-0.01726144	-0.01192622	0	0	0	0	0	0
13.57174	-0.01726144	-0.01192622	0	0	0	0	0	0
13.58825	-0.01726144	-0.01192622	0	0	0	0	0	0
13.60476	-0.01726144	-0.01192622	0	0	0	0	0	0
13.62127	-0.01726144	-0.01192622	0	0	0	0	0	0
13.6378	-0.01726144	-0.01192622	0	0	0	0	0	0
13.6548	-0.01726144	-0.01192622	0	0	0	0	0	0
13.67093	-0.01726144	-0.01192622	0	0	0	0	0	0
13.6875	-0.01726144	-0.01192622	0	0	0	0	0	0
13.70407	-0.01726144	-0.01192622	0	0	0	0	0	0
13.7287	-0.01726144	-0.01192622	0	0	0	0	0	0
13.74527	-0.01726144	-0.01192622	0	0	0	0	0	0
13.76187	-0.01726144	-0.01192622	0	0	0	0	0	0
13.7784	-0.01726144	-0.01192622	0	0	0	0	0	0
13.79497	-0.01726144	-0.01192622	0	0	0	0	0	0
13.81191	-0.01726144	-0.01192622	0	0	0	0	0	0
13.8281	-0.01726144	-0.01192622	0	0	0	0	0	0
13.84467	-0.01726144	-0.01192622	0	0	0	0	0	0
13.86124	-0.01728775	-0.01190733	-0.001587863	0.00114025	-0.04792179	0.03441282	0	0
13.8778	-0.01728775	-0.01190733	0	0	0.04792317	-0.03441381	0	0
13.89447	-0.01728775	-0.01190733	0	0	0	0	0	0
13.91098	-0.01731406	-0.01188844	-0.001593642	0.001144344	-0.04804366	0.03449864	0	0
13.9275	-0.01734037	-0.01186954	-0.001591619	0.001142948	6.122897E-05	-4.226405E-05	0	0
13.94407	-0.01734037	-0.01186954	0	0	0.04809052	-0.03453399	0	0
13.96064	-0.01734037	-0.01186954	0	0	0	0	0	0
13.9772	-0.01734037	-0.01186954	0	0	0	0	0	0
13.99377	-0.01734037	-0.01186954	0	0	0	0	0	0
14.01054	-0.01734037	-0.01186954	0	0	0	0	0	0
14.0269	-0.01734037	-0.01186954	0	0	0	0	0	0
14.04357	-0.01734037	-0.01186954	0	0	0	0	0	0
14.06008	-0.01734037	-0.01186954	0	0	0	0	0	0
14.12663	-0.01734037	-0.01186954	0	0	0	0	0	0
14.19267	-0.01731406	-0.01188844	0.0003983356	-0.0002860464	0.003004216	-0.002157339	0	0
14.20918	-0.01731406	-0.01188844	0	0	-0.004824993	0.003464847	0	0
14.22571	-0.01731406	-0.01188844	0	0	0	0	0	0
14.2446	-0.01731406	-0.01188844	0	0	0	0	0	0
14.26117	-0.01731406	-0.01188844	0	0	0	0	0	0
14.27774	-0.01731406	-0.01188844	0	0	0	0	0	0
14.2943	-0.01731406	-0.01188844	0	0	0	0	0	0
14.31087	-0.01731406	-0.01188844	0	0	0	0	0	0
14.32743	-0.01731406	-0.01188844	0	0	0	0	0	0
14.344	-0.01731406	-0.01188844	0	0	0	0	0	0
14.36057	-0.01731406	-0.01188844	0	0	0	0	0	0
14.37714	-0.01734037	-0.01190733	-0.001587863	-0.001140194	-0.04792179	-0.03441113	0	0
14.3937	-0.01734037	-0.01190733	0	0	0.04792317	0.03441212	0	0
14.41027	-0.01734037	-0.01190733	0	0	0	0	0	0
14.42684	-0.01734037	-0.01190733	0	0	0	0	0	0
14.4434	-0.01734037	-0.01190733	0	0	0	0	0	0
14.45997	-0.01734037	-0.01190733	0	0	0	0	0	0
14.47653	-0.01734037	-0.01190733	0	0	0	0	0	0
14.4931	-0.01734037	-0.01190733	0	0	0	0	0	0
14.50967	-0.01734037	-0.01190733	0	0	0	0	0	0
14.52641	-0.01734037	-0.01190733	0	0	0	0	0	0
14.5428	-0.01734037	-0.01190733	0	0	0	0	0	0
14.55937	-0.01734037	-0.01190733	0	0	0	0	0	0
14.57594	-0.01734037	-0.01190733	0	0	0	0	0	0
14.5925	-0.01734037	-0.01190733	0	0	0	0	0	0
14.60907	-0.01734037	-0.01190733	0	0	0	0	0	0
14.62563	-0.01734037	-0.01190733	0	0	0	0	0	0
14.6422	-0.01734037	-0.01190733	0	0	0	0	0	0
14.659	-0.01734037	-0.01190733	0	0	0	0	0	0
14.67551	-0.01734037	-0.01190733	0	0	0	0	0	0
14.6919	-0.01734037	-0.01190733	0	0	0	0	0	0
14.70847	-0.01734037	-0.01190733	0	0	0	0	0	0
14.72505	-0.01734037	-0.01190733	0	0	0	0	0	0
14.7416	-0.01734037	-0.01190733	0	0	0	0	0	0
14.75817	-0.01734037	-0.01190733	0	0	0	0	0	0
14.77509	-0.01734037	-0.01190733	0	0	0	0	0	0
14.7916	-0.01734037	-0.01190733	0	0	0	0	0	0
14.80787	-0.01734037	-0.01190733	0	0	0	0	0	0
14.82462	-0.01734037	-0.01190733	0	0	0	0	0	0
14.90727	-0.01734037	-0.01190733	0	0	0	0	0	0
14.92383	-0.01734037	-0.01190733	0	0	0	0	0	0
14.9407	-0.01734037	-0.01190733	0	0	0	0	0	0
14.95697	-0.01734037	-0.01190733	0	0	0	0	0	0
14.97373	-0.01734037	-0.01190733	0	0	0	0	0	0
14.99024	-0.01734037	-0.01190733	0	0	0	0	0	0
15.00667	-0.01734037	-0.01190733	0	0	0	0	0	0
15.02323	-0.01734037	-0.01190733	0	0	0	0	0	0
15.0398	-0.01734037	-0.01190733	0	0	0	0	0	0
15.05948	-0.01734037	-0.01190733	0	0	0	0	0	0
15.07605	-0.01734037	-0.01190733	0	0	0	0	0	0
15.09281	-0.01734037	-0.01190733	0	0	0	0	0	0
15.10932	-0.01734037	-0.01190733	0	0	0	0	0	0
15.12583	-0.01734037	-0.01190733	0	0	0	0	0	0
15.14231	-0.01734037	-0.01190733	0	0	0	0	0	0
15.15888	-0.01734037	-0.01190733	0	0	0	0	0	0
15.17545	-0.01734037	-0.01190733	0	0	0	0	0	0
15.19201	-0.01734037	-0.01190733	0	0	0	0	0	0
15.20858	-0.01734037	-0.01190733	0	0	0	0	0	0
15.22515	-0.01734037	-0.01190733	0	0	0	0	0	0
15.24175	-0.01734037	-0.01190733	0	0	0	0	0	0
15.25828	-0.01734037	-0.01190733	0	0	0	0	0	0
15.27485	-0.01734037	-0.01190733	0	0	0	0	0	0
15.29145	-0.01734037	-0.01190733	0	0	0	0	0	0
15.30798	-0.01734037	-0.01190733	0	0	0	0	0	0
15.32455	-0.01734037	-0.01190733	0	0	0	0	0	0
15.34111	-0.01734037	-0.01190733	0	0	0	0	0	0
15.3577	-0.01734037	-0.01190733	0	0	0	0	0	0
15.37429	-0.01734037	-0.01190733	0	0	0	0	0	0
15.39081	-0.01734037	-0.01190733	0	0	0	0	0	0
15.40738	-0.01734037	-0.01190733	0	0	0	0	0	0
15.42405	-0.01734037	-0.01190733	0	0	0	0	0	0
15.44057	-0.01734037	-0.01190733	0	0	0	0	0	0
15.45761	-0.01734037	-0.01190733	0	0	0	0	0	0
15.47367	-0.01734037	-0.01190733	0	0	0	0	0	0
15.49021	-0.01734037	-0.01190733	0	0	0	0	0	0
15.5068	-0.01734037	-0.01190733	0	0	0	0	0	0
15.52335	-0.01734037	-0.01190733	0	0	0	0	0	0
15.53992	-0.01734037	-0.01190733	0	0	0	0	0	0
15.55648	-0.01734037	-0.01190733	0	0	0	0	0	0
15.57315	-0.01734037	-0.01190733	0	0	0	0	0	0
15.58961	-0.01734037	-0.01190733	0	0	0	0	0	0
15.60618	-0.01734037	-0.01190733	0	0	0	0	0	0
15.62275	-0.01734037	-0.01190733	0	0	0	0	0	0
15.63969	-0.01734037	-0.01190733	0	0	0	0	0	0
15.65588	-0.01734037	-0.01190733	0	0	0	0	0	0
15.67245	-0.01734037	-0.01190733	0	0	0	0	0	0
15.68902	-0.01734037	-0.01190733	0	0	0	0	0	0
15.70982	-0.01734037	-0.01190733	0	0	0	0	0	0
15.72676	-0.01734037	-0.01190733	0	0	0	0	0	0
15.74296	-0.01734037	-0.01190733	0	0	0	0	0	0
15.75953	-0.01734037	-0.01190733	0	0	0	0	0	0
15.77629	-0.01734037	-0.01190733	0	0	0	0	0	0
15.7928	-0.01731406	-0.01192622	0.001593366	-0.001144202	0.04788252	-0.03438463	0	0
15.80931	-0.01731406	-0.01192622	0	0	-0.04824896	0.03464777	0	0
15.82583	-0.01731406	-0.01192622	0	0	0	0	0	0
15.84236	-0.01731406	-0.01192622	0	0	0	0	0	0
15.87586	-0.01731406	-0.01192622	0	0	0	0	0	0
15.89237	-0.01731406	-0.01192622	0	0	0	0	0	0
15.90863	-0.01731406	-0.01192622	0	0	0	0	0	0
15.9254	-0.01731406	-0.01192622	0	0	0	0	0	0
15.94176	-0.01731406	-0.01192622	0	0	0	0	0	0
15.95842	-0.01731406	-0.01192622	0	0	0	0	0	0
15.97493	-0.01731406	-0.01192622	0	0	0	0	0	0
15.99146	-0.01731406	-0.01192622	0	0	0	0	0	0
16.00803	-0.01731406	-0.01192622	0	0	0	0	0	0
16.02459	-0.01731406	-0.01192622	0	0	0	0	0	0
16.04116	-0.01731406	-0.01192622	0	0	0	0	0	0
16.05773	-0.01731406	-0.01192622	0	0	0	0	0	0
16.07429	-0.01731406	-0.01192622	0	0	0	0	0	0
16.09086	-0.01731406	-0.01192622	0	0	0	0	0	0
16.10753	-0.01728775	-0.01194511	0.001578685	-0.00113366	0.04750261	-0.03411181	0	0
16.12404	-0.01728775	-0.01194511	0	0	-0.0475818	0.03416868	0	0
16.14056	-0.01728775	-0.01194511	0	0	0	0	0	0
16.15756	-0.01728775	-0.01194511	0	0	0	0	0	0
16.17369	-0.01731406	-0.01192622	-0.00163076	0.001171055	-0.04921927	0.03534455	0	0
16.1906	-0.01728775	-0.01194511	0.001556242	-0.001117543	0.09646711	-0.06927341	0	0
16.20683	-0.01728775	-0.01194511	0	0	-0.04696476	0.03372558	0	0
16.2234	-0.01728775	-0.01194511	0	0	0	0	0	0
16.23996	-0.01728775	-0.01194511	0	0	0	0	0	0
16.25653	-0.01728775	-0.01194511	0	0	0	0	0	0
16.27309	-0.01731406	-0.01192622	-0.001588137	0.001140447	-0.04793283	0.03442075	0	0
16.28966	-0.01731406	-0.01192622	0	0	0.04793283	-0.03442075	0	0
16.30667	-0.01731406	-0.01192622	0	0	0	0	0	0
16.3228	-0.01731406	-0.01192622	0	0	0	0	0	0
16.33936	-0.01731406	-0.01192622	0	0	0	0	0	0
16.35621	-0.01731406	-0.01192622	0	0	0	0	0	0
16.37249	-0.01731406	-0.01192622	0	0	0	0	0	0
16.38906	-0.01731406	-0.01192622	0	0	0	0	0	0
16.40563	-0.01731406	-0.01192622	0	0	0	0	0	0
16.42226	-0.01731406	-0.01192622	0	0	0	0	0	0
16.45778	-0.01731406	-0.01192622	0	0	0	0	0	0
16.47407	-0.01731406	-0.01192622	0	0	0	0	0	0
16.49064	-0.01731406	-0.01192622	0	0	0	0	0	0
16.50721	-0.01731406	-0.01192622	0	0	0	0	0	0
16.52382	-0.01731406	-0.01192622	0	0	0	0	0	0
16.54034	-0.01731406	-0.01192622	0	0	0	0	0	0
16.55691	-0.01731406	-0.01192622	0	0	0	0	0	0
16.57347	-0.01731406	-0.01192622	0	0	0	0	0	0
16.59004	-0.01731406	-0.01192622	0	0	0	0	0	0
16.60688	-0.01731406	-0.01192622	0	0	0	0	0	0
16.62317	-0.01731406	-0.01192622	0	0	0	0	0	0
16.63974	-0.01734037	-0.01190733	-0.001587771	0.001140185	-0.04832236	0.03470048	0	0
16.65631	-0.01734037	-0.01190733	0	0	0.04791903	-0.03441085	0	0
16.67293	-0.01734037	-0.01190733	0	0	0	0	0	0
16.68944	-0.01734037	-0.01190733	0	0	0	0	0	0
16.70601	-0.01734037	-0.01190733	0	0	0	0	0	0
16.78884	-0.01762975	-0.01203957	-0.003493615	-0.001596527	-0.03514786	-0.01606202	0	0
16.80541	-0.01968167	-0.0134379	-0.1238539	-0.08440363	-1.210873	-0.8330731	0	0
16.82203	-0.02812416	-0.01932137	-0.5078359	-0.3539045	-11.56862	-8.119531	0	0
16.83854	-0.04131858	-0.0284995	-0.7991768	-0.5559129	-8.792684	-6.096625	0	0
16.85511	-0.06517074	-0.04279515	-1.439885	-0.8629863	-19.37118	-9.284061	0	0
16.87167	-0.08774778	-0.05279116	-1.362753	-0.6033605	2.327986	7.835975	0	0
16.88824	-0.1146529	-0.06059384	-1.623994	-0.4709709	-7.884275	3.995524	0	0
16.92138	-0.1836441	-0.07205854	-2.082161	-0.3460051	-9.218332	2.514317	0	0
16.97449	-0.2677545	-0.08602998	-1.583469	-0.2630277	5.78178	0.9620323	0	0
16.99106	-0.2898384	-0.09655124	-1.332991	-0.6350647	3.594439	-5.33884	0	0
17.00767	-0.3025732	-0.1061188	-0.7665524	-0.5759095	17.07156	1.782843	0	0
17.02419	-0.3140891	-0.1155456	-0.697028	-0.5705795	2.098253	0.1608605	0	0
17.04076	-0.325921	-0.1256568	-0.7141773	-0.6103095	-0.518282	-1.200715	0	0
17.05733	-0.3305429	-0.1299492	-0.2789762	-0.2590933	13.13439	10.59973	0	0
17.07389	-0.3325663	-0.131763	-0.1221449	-0.1094901	4.733453	4.515292	0	0
17.09072	-0.3325663	-0.131763	0	0	3.657495	3.278563	0	0
17.10703	-0.3325663	-0.131763	0	0	0	0	0	0
17.1236	-0.3325663	-0.131763	0	0	0	0	0	0
17.14017	-0.3325663	-0.131763	0	0	0	0	0	0
17.15678	-0.3325663	-0.131763	0	0	0	0	0	0
17.1733	-0.3325663	-0.131763	0	0	0	0	0	0
17.18987	-0.3324957	-0.1317827	0.004257439	-0.001189817	0.1286749	-0.03596049	0	0
17.20643	-0.3324252	-0.1318419	0.00425793	-0.00357166	1.479768E-05	-0.07188003	0	0
17.24411	-0.3322606	-0.131901	0.004368577	-0.001570489	0.002039776	0.03689135	0	0
17.26085	-0.3313667	-0.1325322	0.05340203	-0.03770938	0.9010744	-0.6641145	0	0
17.27724	-0.3312255	-0.1326506	0.008610473	-0.007219928	-1.351812	0.9201734	0	0
17.29381	-0.3310843	-0.132769	0.008523054	-0.007145118	-0.002652038	0.00226951	0	0
17.31038	-0.3309902	-0.1328084	0.005682636	-0.002381706	-0.085724	0.1437601	0	0
17.32739	-0.3307548	-0.1330058	0.01383323	-0.01159571	0.2427023	-0.2743676	0	0
17.34351	-0.3307312	-0.1330255	0.001460799	-0.001224112	-0.3734222	0.3130334	0	0
17.36008	-0.3306606	-0.1330847	0.004263326	-0.003573459	0.0857453	-0.0718799	0	0
17.37664	-0.3306371	-0.1331044	0.001421272	-0.00119099	-0.08577829	0.07190718	0	0
17.39344	-0.3305664	-0.1331636	0.004205707	-0.003525163	0.08346745	-0.06997021	0	0
17.40995	-0.3304958	-0.1332228	0.004277608	-0.003585429	0.002158789	-0.001809461	0	0
17.42634	-0.3304016	-0.1333017	0.005744619	-0.004814754	0.04458244	-0.03735916	0	0
17.44298	-0.3302603	-0.1334202	0.008494223	-0.007118235	0.0832516	-0.06974401	0	0
17.45948	-0.3302132	-0.1334596	0.002854046	-0.002392522	-0.1702307	0.1426305	0	0
17.47604	-0.3301897	-0.1334794	0.001421109	-0.001191752	-0.04333594	0.03631454	0	0
17.49261	-0.3301662	-0.1334991	0.001421109	-0.001190853	0	2.714469E-05	0	0
17.50918	-0.3301662	-0.1334991	0	0	-0.04289161	0.03594209	0	0
17.52604	-0.3301426	-0.1335188	0.00139651	-0.001171124	0.04178118	-0.03503801	0	0
17.54255	-0.330119	-0.1335386	0.001427344	-0.001194566	0.0009238884	-0.0007024066	0	0
17.55887	-0.330072	-0.1335386	0.002884728	0	0.04437989	0.03637665	0	0
17.57544	-0.3299778	-0.1335386	0.005685579	0	0.08515238	0	0	0
17.59201	-0.3299071	-0.1335583	0.004265616	-0.00119189	-0.04285456	-0.0359713	0	0
17.60858	-0.3298835	-0.133578	0.001422908	-0.001190853	-0.08579805	3.128882E-05	0	0
17.62514	-0.3298364	-0.133578	0.002842217	0	0.04283486	0.03594002	0	0
17.64171	-0.3298129	-0.1335978	0.001423071	-0.00119189	-0.04283238	-0.03597337	0	0
17.67484	-0.3297422	-0.1336175	0.002132562	-0.0005954265	0.01427554	0.01200132	0	0
17.69141	-0.3297186	-0.1336373	0.001420945	-0.001191615	-0.01431722	-0.01199488	0	0
17.70798	-0.3296951	-0.133657	0.001423235	-0.001191127	6.912352E-05	1.472911E-05	0	0
17.72467	-0.329648	-0.1336965	0.002822247	-0.002364368	0.04206485	-0.03527648	0	0
17.74118	-0.3296008	-0.1337359	0.002853543	-0.002390587	0.0009424725	-0.0007895657	0	0
17.75769	-0.329271	-0.1340123	0.01997661	-0.01673682	0.5185063	-0.4344205	0	0
17.77424	-0.3274082	-0.1355723	0.1125663	-0.09426777	2.800649	-2.345154	0	0
17.79122	-0.3235337	-0.1388139	0.2282426	-0.1909586	3.450598	-2.884264	0	0
17.80737	-0.320953	-0.1409707	0.1597269	-0.133494	-2.067927	1.734383	0	0
17.82394	-0.3193645	-0.1423371	0.09588346	-0.08247467	-1.950945	1.559063	0	0
17.84075	-0.3193645	-0.1423371	0	0	-2.872603	2.470885	0	0
17.85708	-0.3193645	-0.1423371	0	0	0	0	0	0
17.87378	-0.3193407	-0.1423569	0.00142013	-0.001185523	0.04299822	-0.03589487	0	0
17.8931	-0.319317	-0.1423767	0.001227668	-0.001025627	-0.005342042	0.004438127	0	0
17.90967	-0.3192696	-0.1424163	0.002863804	-0.002390701	0.04558679	-0.03803432	0	0
17.92632	-0.3191747	-0.1424956	0.005701352	-0.004761274	0.08544065	-0.07137969	0	0
17.94283	-0.3189374	-0.1426937	0.01437226	-0.01199854	0.2615378	-0.2182955	0	0
17.95937	-0.3185814	-0.1429909	0.02151049	-0.01795902	0.2159295	-0.1803029	0	0
17.97594	-0.3182016	-0.1433079	0.02292482	-0.0191364	0.04270922	-0.03555363	0	0
17.99251	-0.317798	-0.1436052	0.02436493	-0.01794491	0.04346493	0.03596118	0	0
18.00937	-0.3172992	-0.1433475	0.02957141	0.01527515	0.1557336	0.9936604	0	0
18.02588	-0.3146841	-0.1419212	0.1583999	0.08639329	3.859833	2.130773	0	0
18.0422	-0.3055678	-0.134802	0.5585558	0.4361917	12.18829	10.65445	0	0
18.05891	-0.3025732	-0.132335	0.1792682	0.1476873	-11.4846	-8.735743	0	0
18.07542	-0.288412	-0.120763	0.8577324	0.7009065	20.4267	16.65592	0	0
18.09191	-0.2676076	-0.1040308	1.261856	1.014862	12.24724	9.514621	0	0
18.10847	-0.2538997	-0.09313018	0.8275097	0.658041	-13.14113	-10.79559	0	0
18.12504	-0.2390256	-0.08148095	0.8977998	0.7031488	2.121481	1.361436	0	0
18.14161	-0.2286911	-0.073466	0.6237903	0.4837836	-8.269624	-6.620455	0	0
18.15817	-0.2078994	-0.05752393	1.254993	0.9622648	19.04973	14.44059	0	0
18.17474	-0.1931663	-0.04636536	0.8892902	0.6735327	-11.03692	-8.713954	0	0
18.20787	-0.1599892	-0.02161339	1.001343	0.747059	2.254601	1.479411	0	0
18.22444	-0.1508454	-0.01487467	0.5518618	0.4067033	-9.043587	-6.847972	0	0
18.24104	-0.1440737	-0.009905444	0.4080314	0.2994257	-4.336816	-3.234663	0	0
18.25757	-0.1417534	-0.0082067	0.140333	0.1027374	-8.080084	-5.936748	0	0
18.27414	-0.1420886	-0.008452019	-0.02023641	-0.01480747	-4.850741	-3.550987	0	0
18.29071	-0.1420886	-0.008452019	0	0	0.610736	0.4468903	0	0
18.30727	-0.1420886	-0.008452019	0	0	0	0	0	0
18.32384	-0.1420886	-0.008452019	0	0	0	0	0	0
18.34041	-0.1420886	-0.008489762	0	-0.002278215	0	-0.06876062	0	0
18.35712	-0.1420886	-0.008489762	0	0	0	0.06845324	0	0
18.37363	-0.142166	-0.008584121	-0.004685515	-0.005714588	-0.1410195	-0.1719914	0	0
18.39015	-0.1423723	-0.00888609	-0.01249206	-0.01828584	-0.2363776	-0.3806503	0	0
18.40667	-0.1424496	-0.009131461	-0.004681189	-0.01484651	0.2363994	0.1040929	0	0
18.42324	-0.1425786	-0.009301344	-0.007781919	-0.01025413	-0.09369349	0.1387661	0	0
18.43981	-0.1426044	-0.00932022	-0.001556203	-0.001139492	0.1879033	0.2750962	0	0
18.45637	-0.1426817	-0.009339097	-0.004668972	-0.001139417	-0.09394894	2.262774E-06	0	0
18.47294	-0.1426817	-0.009339097	0	0	0.1409098	0.03438766	0	0
18.48972	-0.1428106	-0.009433481	-0.007684587	-0.005626421	-0.2304752	-0.1687469	0	0
18.50623	-0.1429137	-0.009508991	-0.006243685	-0.004571463	0.04327971	0.03168733	0	0
18.52274	-0.1430169	-0.009622257	-0.006248736	-0.006862854	-0.0001529457	-0.06939001	0	0
18.53921	-0.1431458	-0.00971665	-0.007826976	-0.005731184	-0.04786281	0.03431983	0	0
18.55626	-0.1431716	-0.009773287	-0.001511646	-0.003321143	0.1883848	0.07189097	0	0
18.57234	-0.14312	-0.009811046	0.0032071	-0.002348047	0.142412	0.02936808	0	0
18.58928	-0.1430427	-0.009905444	0.004565062	-0.005572135	0.04112301	-0.09763475	0	0
18.60547	-0.1429137	-0.009962083	0.007962528	-0.003498505	0.1025475	0.06258946	0	0
18.62204	-0.1424754	-0.01028306	0.02645995	-0.01937659	0.5647224	-0.4847544	0	0
18.64128	-0.1398185	-0.0122285	0.1380818	-0.1011071	3.117348	-2.282552	0	0
18.65785	-0.1324567	-0.01761764	0.4443609	-0.3252895	8.553237	-6.26058	0	0
18.67441	-0.126505	-0.02197344	0.3592455	-0.2629164	-2.568788	1.882426	0	0
18.69136	-0.1182873	-0.02794881	0.4849122	-0.3525959	3.749677	-2.675881	0	0
18.70755	-0.1127306	-0.0319388	0.3432709	-0.246483	-4.274745	3.202493	0	0
18.72438	-0.1072188	-0.03570554	0.3274858	-0.2238055	-0.4780739	0.6868217	0	0
18.74068	-0.1043564	-0.0376859	0.1756089	-0.121493	-4.58418	3.088151	0	0
18.75741	-0.09732313	-0.04229909	0.4204604	-0.2757857	7.413529	-4.671622	0	0
18.77381	-0.09427236	-0.04437926	0.1859433	-0.1267851	-7.077739	4.496848	0	0
18.79038	-0.08730383	-0.04940439	0.4206696	-0.3033526	7.118886	-5.355019	0	0
18.80695	-0.08448264	-0.05147043	0.1702679	-0.124692	-7.557139	5.391988	0	0
18.82351	-0.08032679	-0.05451476	0.2508766	-0.1837773	2.432776	-1.783197	0	0
18.84008	-0.07881011	-0.05562606	0.09154683	-0.06707835	-4.808859	3.522183	0	0
18.87321	-0.06435836	-0.06622419	0.4361547	-0.3198521	6.933523	-5.085818	0	0
18.88978	-0.05869566	-0.07038209	0.3418407	-0.2510003	-1.897673	1.385355	0	0
18.90651	-0.05515453	-0.07298391	0.2116715	-0.1555241	-3.909611	2.867612	0	0
18.92291	-0.05515453	-0.07298391	0	0	-6.388625	4.693995	0	0
18.93948	-0.05525947	-0.07290678	-0.006334277	0.004655031	-0.19212	0.1411881	0	0
18.95605	-0.05525947	-0.07290678	0	0	0.1911799	-0.1404972	0	0
18.97261	-0.05539065	-0.07281038	-0.007917734	0.0058189	-0.2389714	0.1756249	0	0
18.98918	-0.05546936	-0.07275254	-0.00475082	0.00349161	0.09557764	-0.07023776	0	0
19.00575	-0.05552182	-0.07271398	-0.003166185	0.002326755	0.04781889	-0.03515136	0	0
19.02259	-0.05560053	-0.07265614	-0.004674181	0.003435005	-0.04513728	0.03317208	0	0
19.03888	-0.055653	-0.07261758	-0.003221284	0.002367535	0.04385862	-0.03222371	0	0
19.05561	-0.05570547	-0.07257902	-0.003135866	0.002304474	0.002586872	-0.001909795	0	0
19.07212	-0.05578417	-0.07252119	-0.004765959	0.003502	-0.04903261	0.03602114	0	0
19.08863	-0.0558891	-0.07244407	-0.006355779	0.004670713	-0.0481416	0.03538999	0	0
19.10514	-0.05594157	-0.07240552	-0.003177522	0.002335086	0.09624686	-0.07072955	0	0
19.12216	-0.05615144	-0.0722513	-0.01233534	0.009064514	-0.2731601	0.2007259	0	0
19.13828	-0.05659739	-0.07188506	-0.02766592	0.02272059	-0.4627044	0.412165	0	0
19.15484	-0.05683346	-0.07136471	-0.01424976	0.03140875	0.4104529	0.2658048	0	0
19.17143	-0.05649246	-0.07096006	0.02056183	0.02439935	1.050072	-0.2114346	0	0
19.18798	-0.05633507	-0.07061326	0.009510146	0.02095473	-0.3335406	-0.1039587	0	0
19.20455	-0.05447238	-0.06762872	0.1124322	0.1801471	3.107803	4.806926	0	0
19.22123	-0.04796319	-0.05844456	0.3900662	0.5503651	8.348736	11.13283	0	0
19.27081	-0.02933369	-0.03507742	0.3757491	0.4713053	-0.2160521	-1.19305	0	0
19.28738	-0.01883988	-0.02764502	0.6334078	0.4486205	3.895253	-0.3429458	0	0
19.30395	-0.01449898	-0.02455188	0.2620469	0.186724	-11.20834	-7.904506	0	0
19.32051	-0.006263076	-0.0186587	0.4971204	0.3557128	7.094939	5.100386	0	0
19.33708	-0.002184207	-0.015877	0.2462294	0.1679234	-7.572341	-5.667821	0	0
19.35365	-0.001973682	-0.01599049	0.01270734	-0.006850441	-7.048114	-5.27499	0	0
19.37021	-0.001999997	-0.01619857	-0.001588418	-0.01255961	-0.4314469	-0.1723031	0	0
19.38678	-0.002184207	-0.01682288	-0.01111892	-0.03768378	-0.2876312	-0.7582489	0	0
19.40335	-0.001947366	-0.01699317	0.01429741	-0.01027982	0.7671105	0.8271006	0	0
19.42302	-0.001578946	-0.01729593	0.01872776	-0.01539	0.1222582	-0.1410181	0	0
19.47272	-0.001578946	-0.01729593	0	0	-0.2699384	0.2218285	0	0
19.48943	-0.001578946	-0.01729593	0	0	0	0	0	0
19.50585	-0.001657893	-0.0173527	-0.004807323	-0.003456986	-0.145102	-0.1043441	0	0
19.52245	-0.001710525	-0.01739055	-0.003171366	-0.002280516	0.04954727	0.03563103	0	0
19.53899	-0.001763156	-0.0174284	-0.003182331	-0.002288519	-0.0003309362	-0.0002415266	0	0
19.55555	-0.001842103	-0.01744732	-0.004765809	-0.001142303	-0.04783351	0.03462477	0	0
19.57212	-0.001842103	-0.01744732	0	0	0.1438324	0.03447476	0	0
19.58869	-0.001868419	-0.01746625	-0.001588418	-0.001142284	-0.04793578	-0.0344722	0	0
19.60525	-0.00192105	-0.01750409	-0.003177567	-0.002285093	-0.04796614	-0.03449404	0	0
19.62202	-0.002026313	-0.01757979	-0.006277783	-0.004514671	-0.09301321	-0.06689219	0	0
19.63839	-0.002394732	-0.01784476	-0.02251257	-0.01619068	-0.489995	-0.3524028	0	0
19.65495	-0.003105253	-0.01831795	-0.04288713	-0.02856237	-0.6186804	-0.3756707	0	0
19.67152	-0.004394709	-0.01920776	-0.07783169	-0.05370891	-1.054629	-0.7589241	0	0
19.68809	-0.005394685	-0.01992736	-0.06035172	-0.04343022	0.5275161	0.3101937	0	0
19.70466	-0.005421	-0.01987055	-0.001588376	0.003429549	1.773379	1.414149	0	0
19.72159	-0.005447315	-0.01985161	-0.001554375	0.001118602	0.001015046	-0.06898997	0	0
19.73779	-0.00547363	-0.01983267	-0.00162428	0.001169024	-0.002109972	0.001521905	0	0
19.75435	-0.005499945	-0.01981373	-0.001588376	0.001143071	0.001095691	-0.0007920217	0	0
19.77092	-0.005499945	-0.01981373	0	0	0.04793727	-0.03449794	0	0
19.78763	-0.00552626	-0.01979479	-0.001574958	0.001133526	-0.04733071	0.03406477	0	0
19.80414	-0.00552626	-0.01979479	0	0	0.04740952	-0.03412149	0	0
19.82066	-0.005552575	-0.01977585	-0.001593328	0.001146635	-0.04824226	0.03471742	0	0
19.83719	-0.005605204	-0.01973798	-0.003184083	0.002291417	-0.04813931	0.03464333	0	0
19.85375	-0.005710464	-0.01966223	-0.006354234	0.004572921	-0.09579115	0.06893925	0	0
19.87032	-0.005842039	-0.01956754	-0.00794185	0.00571524	-0.04791711	0.03447725	0	0
19.90345	-0.005920983	-0.01951073	-0.002382549	0.00171455	0.1118534	-0.08049406	0	0
19.92022	-0.005999928	-0.01945392	-0.004707649	0.003387646	-0.04659157	0.03352638	0	0
19.93674	-0.006052558	-0.01941605	-0.003187025	0.002293309	0.04568738	-0.03287952	0	0
19.95325	-0.006078872	-0.01939712	-0.001593852	0.001146919	0.04824311	-0.03471401	0	0
19.98629	-0.006131502	-0.01935924	-0.00159296	0.001146257	1.800182E-05	-1.336392E-05	0	0
20.00285	-0.006157817	-0.01937818	-0.001588347	-0.001142958	9.299131E-05	-0.04614766	0	0
20.01979	-0.006157817	-0.01937818	0	0	0.04740161	0.0341097	0	0
20.03599	-0.006157817	-0.01937818	0	0	0	0	0	0
20.05256	-0.006157817	-0.01937818	0	0	0	0	0	0
20.06912	-0.006157817	-0.01937818	0	0	0	0	0	0
20.08569	-0.006157817	-0.01937818	0	0	0	0	0	0
20.10225	-0.006157817	-0.01937818	0	0	0	0	0	0
20.12117	-0.006184132	-0.01939712	-0.00139121	-0.001001082	-0.03920845	-0.02821349	0	0
20.13774	-0.006184132	-0.01939712	0	0	0.03920634	0.02821197	0	0
20.1543	-0.006210446	-0.01937818	-0.00158853	0.00114309	-0.04794194	0.03449852	0	0
20.1709	-0.006210446	-0.01937818	0	0	0.04790334	-0.03447074	0	0
20.19415	-0.006236761	-0.01935924	-0.001131799	0.0008144163	-0.02840403	0.02043888	0	0
20.21072	-0.006289391	-0.01932137	-0.003176358	0.002285653	-0.05134538	0.03694744	0	0
20.22729	-0.006315705	-0.01930244	-0.00158853	0.00114309	0.04792072	-0.03448263	0	0
20.24385	-0.006315705	-0.01930244	0	0	0.0479447	-0.0345005	0	0
20.26047	-0.00634202	-0.0192835	-0.001583999	0.001139809	-0.04773923	0.03435204	0	0
20.27699	-0.00634202	-0.0192835	0	0	0.04780794	-0.03440148	0	0
20.29355	-0.00634202	-0.0192835	0	0	0	0	0	0
20.31012	-0.00634202	-0.0192835	0	0	0	0	0	0
20.32669	-0.00634202	-0.0192835	0	0	0	0	0	0
20.34353	-0.00634202	-0.0192835	0	0	0	0	0	0
20.35982	-0.00634202	-0.0192835	0	0	0	0	0	0
20.37655	-0.00634202	-0.0192835	0	0	0	0	0	0
20.39306	-0.00634202	-0.0192835	0	0	0	0	0	0
20.40952	-0.006368335	-0.01926457	-0.001598469	0.001150241	-0.04847629	0.03488303	0	0
20.42609	-0.00639465	-0.01924563	-0.001588559	0.001142977	0.0003000684	-0.000219943	0	0
20.4431	-0.006420964	-0.0192267	-0.0015472	0.001113349	0.001231879	-0.0008824958	0	0
20.45922	-0.006420964	-0.0192267	0	0	0.04669729	-0.03360288	0	0
20.47579	-0.006420964	-0.0192267	0	0	0	0	0	0
20.49236	-0.006447279	-0.01920776	-0.001588347	0.001142846	-0.04793642	0.03449115	0	0
20.50892	-0.006473594	-0.01918883	-0.001588376	0.001142958	-8.50248E-07	3.393965E-06	0	0
20.52549	-0.006473594	-0.01918883	0	0	0.04794003	-0.03449653	0	0
20.54217	-0.006499908	-0.01916989	-0.001577812	0.001135265	-0.04746272	0.03415032	0	0
20.55862	-0.006526223	-0.01915096	-0.001599025	0.001150641	-0.0006402122	0.0004640597	0	0
20.57519	-0.006526223	-0.01915096	0	0	0.04842033	-0.03484276	0	0
20.60872	-0.006526223	-0.01915096	0	0	0	0	0	0
20.62523	-0.006526223	-0.01915096	0	0	0	0	0	0
20.64146	-0.006526223	-0.01915096	0	0	0	0	0	0
20.65802	-0.006526223	-0.01915096	0	0	0	0	0	0
20.67459	-0.006526223	-0.01915096	0	0	0	0	0	0
20.69116	-0.006526223	-0.01915096	0	0	0	0	0	0
20.70772	-0.006526223	-0.01915096	0	0	0	0	0	0
20.72429	-0.006526223	-0.01915096	0	0	0	0	0	0
20.74086	-0.006526223	-0.01915096	0	0	0	0	0	0
20.75743	-0.006526223	-0.01915096	0	0	0	0	0	0
20.77399	-0.006526223	-0.01915096	0	0	0	0	0	0
20.79056	-0.006526223	-0.01915096	0	0	0	0	0	0
20.80713	-0.006526223	-0.01915096	0	0	0	0	0	0
20.82369	-0.006552538	-0.01913202	-0.001588376	0.001142846	-0.04793727	0.03449115	0	0
20.84215	-0.006552538	-0.01913202	0	0	0.04534776	-0.03262798	0	0
20.85872	-0.006552538	-0.01913202	0	0	0	0	0	0
20.87529	-0.006552538	-0.01913202	0	0	0	0	0	0
20.89185	-0.006552538	-0.01913202	0	0	0	0	0	0
20.90843	-0.006552538	-0.01913202	0	0	0	0	0	0
20.92499	-0.006552538	-0.01913202	0	0	0	0	0	0
20.94156	-0.006552538	-0.01913202	0	0	0	0	0	0
20.95812	-0.006552538	-0.01913202	0	0	0	0	0	0
20.97498	-0.006552538	-0.01913202	0	0	0	0	0	0
20.99125	-0.006552538	-0.01913202	0	0	0	0	0	0
21.0657	-0.006552538	-0.01913202	0	0	0	0	0	0
21.08227	-0.006552538	-0.01913202	0	0	0	0	0	0
21.09883	-0.006552538	-0.01913202	0	0	0	0	0	0
21.19823	-0.006526223	-0.01915096	0.0002647343	-0.0001904779	0.002282921	-0.001642575	0	0
21.2148	-0.006526223	-0.01915096	0	0	-0.002282809	0.001642494	0	0
21.23137	-0.006526223	-0.01915096	0	0	0	0	0	0
21.24794	-0.006526223	-0.01915096	0	0	0	0	0	0
21.26468	-0.006526223	-0.01915096	0	0	0	0	0	0
21.28107	-0.006499908	-0.01916989	0.001605912	-0.001155597	0.04847209	-0.03488	0	0
21.2977	-0.006499908	-0.01916989	0	0	-0.04862887	0.03499282	0	0
21.31422	-0.006499908	-0.01916989	0	0	0	0	0	0
21.33077	-0.006499908	-0.01916989	0	0	0	0	0	0
21.34733	-0.006499908	-0.01916989	0	0	0	0	0	0
21.36425	-0.006499908	-0.01916989	0	0	0	0	0	0
21.38047	-0.006499908	-0.01916989	0	0	0	0	0	0
21.39703	-0.006499908	-0.01916989	0	0	0	0	0	0
21.4136	-0.006499908	-0.01916989	0	0	0	0	0	0
21.43017	-0.006499908	-0.01916989	0	0	0	0	0	0
21.44681	-0.006499908	-0.01916989	0	0	0	0	0	0
21.4633	-0.006499908	-0.01916989	0	0	0	0	0	0
21.48034	-0.006499908	-0.01916989	0	0	0	0	0	0
21.49643	-0.006499908	-0.01916989	0	0	0	0	0	0
21.513	-0.006499908	-0.01916989	0	0	0	0	0	0
21.52957	-0.006499908	-0.01916989	0	0	0	0	0	0
21.54638	-0.006499908	-0.01916989	0	0	0	0	0	0
21.56289	-0.006499908	-0.01916989	0	0	0	0	0	0
21.57941	-0.006499908	-0.01916989	0	0	0	0	0	0
21.59592	-0.006499908	-0.01916989	0	0	0	0	0	0
21.61243	-0.006473594	-0.01918883	0.001593668	-0.001146674	0.04826091	-0.03472463	0	0
21.62897	-0.006473594	-0.01918883	0	0	-0.04821635	0.03469257	0	0
21.66616	-0.006473594	-0.01918883	0	0	0	0	0	0
21.68273	-0.006473594	-0.01918883	0	0	0	0	0	0
21.6993	-0.006473594	-0.01918883	0	0	0	0	0	0
21.71586	-0.006473594	-0.01918883	0	0	0	0	0	0
21.73251	-0.006473594	-0.01918883	0	0	0	0	0	0
21.74903	-0.006473594	-0.01918883	0	0	0	0	0	0
21.76556	-0.006473594	-0.01918883	0	0	0	0	0	0
21.78213	-0.006473594	-0.01918883	0	0	0	0	0	0
21.7987	-0.006473594	-0.01918883	0	0	0	0	0	0
21.81527	-0.006473594	-0.01918883	0	0	0	0	0	0
21.83183	-0.006447279	-0.01920776	0.001588376	-0.001142958	0.04793727	-0.03449455	0	0
21.8484	-0.006447279	-0.01920776	0	0	-0.04794003	0.03449653	0	0
21.86497	-0.006447279	-0.01920776	0	0	0	0	0	0
21.88153	-0.006447279	-0.01920776	0	0	0	0	0	0
21.9478	-0.006447279	-0.01920776	0	0	0	0	0	0
21.96437	-0.006447279	-0.01920776	0	0	0	0	0	0
21.98119	-0.006447279	-0.01920776	0	0	0	0	0	0
21.9975	-0.006447279	-0.01920776	0	0	0	0	0	0
22.01407	-0.006447279	-0.01920776	0	0	0	0	0	0
22.03063	-0.006447279	-0.01920776	0	0	0	0	0	0
22.0472	-0.006447279	-0.01920776	0	0	0	0	0	0
22.06377	-0.006447279	-0.01920776	0	0	0	0	0	0
22.08034	-0.006447279	-0.01920776	0	0	0	0	0	0
22.0969	-0.006447279	-0.01920776	0	0	0	0	0	0
22.1466	-0.006447279	-0.01920776	0	0	0	0	0	0
22.16317	-0.006447279	-0.01920776	0	0	0	0	0	0
22.17974	-0.006447279	-0.01920776	0	0	0	0	0	0
22.19635	-0.006447279	-0.01920776	0	0	0	0	0	0
22.21287	-0.006447279	-0.01920776	0	0	0	0	0	0
22.22987	-0.006447279	-0.01920776	0	0	0	0	0	0
22.246	-0.006447279	-0.01920776	0	0	0	0	0	0
22.26257	-0.006473594	-0.0192267	-0.001588376	-0.001142846	-0.04857479	-0.03494985	0	0
22.27941	-0.006473594	-0.0192267	0	0	0.04755132	0.03421346	0	0
22.29592	-0.006473594	-0.0192267	0	0	0	0	0	0
22.31227	-0.006473594	-0.0192267	0	0	0	0	0	0
22.32894	-0.006473594	-0.0192267	0	0	0	0	0	0
22.34546	-0.006473594	-0.0192267	0	0	0	0	0	0
22.36197	-0.006473594	-0.0192267	0	0	0	0	0	0
22.37854	-0.006473594	-0.0192267	0	0	0	0	0	0
22.39511	-0.006473594	-0.0192267	0	0	0	0	0	0
22.41167	-0.006473594	-0.0192267	0	0	0	0	0	0
22.42851	-0.006473594	-0.0192267	0	0	0	0	0	0
22.44503	-0.006473594	-0.0192267	0	0	0	0	0	0
22.48082	-0.006473594	-0.0192267	0	0	0	0	0	0
22.49739	-0.006473594	-0.0192267	0	0	0	0	0	0
22.51396	-0.006447279	-0.01924563	0.001588376	-0.001142958	0.04793727	-0.03449455	0	0
22.5471	-0.006447279	-0.01924563	0	0	-0.03195328	0.02299283	0	0
22.56366	-0.006447279	-0.01924563	0	0	0	0	0	0
22.58022	-0.006447279	-0.01924563	0	0	0	0	0	0
22.59679	-0.006420964	-0.01926457	0.00158853	-0.001142977	0.0479447	-0.03449711	0	0
22.61336	-0.006420964	-0.01926457	0	0	-0.04794194	0.03449512	0	0
22.62992	-0.006420964	-0.01926457	0	0	0	0	0	0
22.64667	-0.006420964	-0.01926457	0	0	0	0	0	0
22.66306	-0.006420964	-0.01926457	0	0	0	0	0	0
22.67969	-0.006420964	-0.01926457	0	0	0	0	0	0
22.69621	-0.006420964	-0.01926457	0	0	0	0	0	0
22.71276	-0.006420964	-0.01926457	0	0	0	0	0	0
22.72932	-0.006420964	-0.01926457	0	0	0	0	0	0
22.74589	-0.006420964	-0.01926457	0	0	0	0	0	0
22.76246	-0.006420964	-0.01926457	0	0	0	0	0	0
22.77927	-0.006420964	-0.01926457	0	0	0	0	0	0
22.79578	-0.006420964	-0.01926457	0	0	0	0	0	0
22.81216	-0.006420964	-0.01926457	0	0	0	0	0	0
22.82873	-0.006420964	-0.01926457	0	0	0	0	0	0
22.84531	-0.006420964	-0.01926457	0	0	0	0	0	0
22.86186	-0.006420964	-0.01926457	0	0	0	0	0	0
22.87843	-0.006420964	-0.01926457	0	0	0	0	0	0
22.89499	-0.006420964	-0.01926457	0	0	0	0	0	0
22.91156	-0.006420964	-0.01926457	0	0	0	0	0	0
22.92813	-0.00639465	-0.01924563	0.001588347	0.001142846	0.04793642	0.03449115	0	0
22.94489	-0.00639465	-0.01924563	0	0	-0.04766479	-0.03429571	0	0
23.02753	-0.002631573	-0.01740947	0.0455349	0.02221833	0.4581084	0.2235297	0	0
23.04409	-0.001157894	-0.01657693	0.08896165	0.05025851	0.4377391	0.2826433	0	0
23.06066	0.01157843	-0.008640739	0.768766	0.4790291	20.51772	12.94107	0	0
23.07723	0.029991	-0.0001590782	1.111385	0.5119541	10.34027	0.9936761	0	0
23.09399	0.04108214	0.003979635	0.6616165	0.2468856	-13.49404	-7.952629	0	0
23.1105	0.05449861	0.006629501	0.8124391	0.1604635	4.532268	-2.597014	0	0
23.12701	0.1038618	0.01139781	2.989892	0.2888135	65.93581	3.886587	0	0
23.14349	0.1212963	0.01317954	1.057956	0.1081176	-58.56215	-5.477375	0	0
23.16006	0.1460835	0.01589724	1.496154	0.164041	13.25995	1.692251	0	0
23.17705	0.1740882	0.02050314	1.64861	0.2711447	4.543599	3.191972	0	0
23.19356	0.1899707	0.02555148	0.961662	0.305669	-20.50434	1.030499	0	0
23.21262	0.2040667	0.03329718	0.7395536	0.4063819	-6.243231	2.830933	0	0
23.22959	0.2107446	0.03823465	0.3936989	0.2910896	-9.60116	-3.200592	0	0
23.24576	0.2172279	0.04299823	0.4008847	0.2945496	0.2168693	0.1044236	0	0
23.26233	0.2207884	0.04563794	0.2149094	0.159333	-5.680433	-4.130058	0	0
23.27889	0.2225915	0.04697568	0.1088497	0.08075548	-3.201073	-2.371612	0	0
23.29546	0.2226416	0.04701284	0.003022105	0.002242743	-3.194066	-2.369655	0	0
23.31203	0.2226416	0.04701284	0	0	-0.0912073	-0.06768613	0	0
23.32866	0.2226416	0.04701284	0	0	0	0	0	0
23.34516	0.2226416	0.04701284	0	0	0	0	0	0
23.36173	0.2226416	0.04701284	0	0	0	0	0	0
23.37829	0.2226416	0.04701284	0	0	0	0	0	0
23.39486	0.2226416	0.04701284	0	0	0	0	0	0
23.41143	0.2226416	0.04701284	0	0	0	0	0	0
23.42799	0.2226416	0.04701284	0	0	0	0	0	0
23.44474	0.2226416	0.04701284	0	0	0	0	0	0
23.46125	0.2226165	0.04703141	-0.001516465	0.001125162	-0.04559638	0.03383089	0	0
23.47776	0.2225915	0.04701284	-0.001516289	-0.001125033	5.306332E-06	-0.06815033	0	0
23.49426	0.2225665	0.04699426	-0.001517341	-0.001126039	-3.18613E-05	-3.047878E-05	0	0
23.51083	0.2225414	0.04697568	-0.001511226	-0.001121501	0.0001849363	0.0001372455	0	0
23.5278	0.2225164	0.04695711	-0.001474885	-0.001094312	0.001083565	0.00081067	0	0
23.54396	0.2224914	0.04693853	-0.001548855	-0.001149426	-0.002232306	-0.001663249	0	0
23.56053	0.2224663	0.04695711	-0.001511226	0.001121501	0.001149744	0.06938747	0	0
23.57734	0.2224413	0.04693853	-0.001489446	-0.001105338	0.0006526265	-0.06672599	0	0
23.59366	0.2224163	0.04691995	-0.001533294	-0.00113765	-0.001323341	-0.0009751817	0	0
23.61023	0.2223412	0.04690138	-0.004534201	-0.00112163	-0.0912398	0.0004870637	0	0
23.62687	0.2222911	0.04686422	-0.003009491	-0.002232719	0.04591802	-0.03346145	0	0
23.64336	0.222216	0.04684564	-0.004553603	-0.001126203	-0.04660137	0.03339469	0	0
23.65993	0.2221659	0.04680849	-0.003023352	-0.002243001	0.04628964	-0.03378282	0	0
23.67649	0.2220157	0.04673418	-0.009068113	-0.004485262	-0.1824417	-0.06767544	0	0
23.69342	0.2219155	0.04669702	-0.005916373	-0.002194982	0.09409596	0.06837685	0	0
23.70963	0.2217152	0.04665987	-0.01236335	-0.002292899	-0.1945815	-0.002955295	0	0
23.72619	0.221615	0.04662271	-0.006046008	-0.002242743	0.1927662	0.00153044	0	0
23.74276	0.2214146	0.04651124	-0.01209471	-0.006728455	-0.1825503	-0.135379	0	0
23.75946	0.2211391	0.04630687	-0.0164995	-0.01223877	-0.1324108	-0.1656436	0	0
23.77597	0.2207633	0.04602816	-0.02275533	-0.016877	-0.1883567	-0.1396527	0	0
23.89186	0.2190089	0.04476444	-0.01513947	-0.01090485	0.05752138	0.04510675	0	0
23.90857	0.2190089	0.04476444	0	0	0.1141799	0.0822429	0	0
23.92499	0.2190089	0.04476444	0	0	0	0	0	0
23.94159	0.2189838	0.04478302	-0.001511141	0.001119887	-0.04576175	0.03391345	0	0
23.95813	0.2189838	0.04478302	0	0	0.04560633	-0.03379827	0	0
23.97469	0.2189838	0.04478302	0	0	0	0	0	0
23.99126	0.2189838	0.04478302	0	0	0	0	0	0
24.00782	0.2189336	0.0448202	-0.003026602	0.002243868	-0.09134828	0.06772396	0	0
24.03001	0.2183568	0.04483879	-0.02600226	0.0008380132	-0.5929248	-0.0362804	0	0
24.04666	0.2175541	0.04465291	-0.04819736	-0.01116023	-0.5714875	-0.3089352	0	0
24.06318	0.2135613	0.04407664	-0.2417842	-0.03489615	-5.836414	-0.7156098	0	0
24.07971	0.1938505	0.04208692	-1.192079	-0.1203354	-28.75444	-2.585258	0	0
24.09628	0.1712278	0.04110097	-1.36567	-0.05951915	-5.244421	1.837342	0	0
24.11284	0.1350157	0.04030085	-2.185768	-0.04829498	-24.75202	0.3387655	0	0
24.12941	0.106048	0.03987282	-1.748692	-0.02583927	13.19174	0.6777537	0	0
24.14598	0.08649419	0.03961225	-1.180272	-0.01572799	17.15592	0.3051768	0	0
24.16275	0.05730561	0.03922136	-1.740189	-0.02330424	-16.79391	-0.2272391	0	0
24.17911	0.01939231	0.03883043	-2.317264	-0.02389356	-17.41616	-0.01778578	0	0
24.19568	-0.01691944	0.03812293	-2.191781	-0.04270476	3.810762	-0.5712748	0	0
24.21224	-0.0420016	0.0374898	-1.513962	-0.03821613	20.45662	0.1354672	0	0
24.22881	-0.06396525	0.03683792	-1.325881	-0.0393517	5.676638	-0.03427352	0	0
24.24538	-0.0879828	0.03579469	-1.449702	-0.06296995	-3.737148	-0.7128413	0	0
24.26194	-0.1001376	0.0343784	-0.7336667	-0.08548734	21.60999	-0.679576	0	0
24.27883	-0.1081292	0.03096587	-0.4732223	-0.202072	7.784943	-3.484832	0	0
24.29508	-0.1096375	0.02977167	-0.09283604	-0.07350393	11.48008	3.880193	0	0
24.31186	-0.1113792	0.02852107	-0.10378	-0.07451719	-0.3313383	-0.0306775	0	0
24.32821	-0.1129384	0.02740076	-0.09536318	-0.06852137	0.2540346	0.1809645	0	0
24.34491	-0.1129384	0.02740076	0	0	2.885208	2.073111	0	0
24.36135	-0.1129384	0.02740076	0	0	0	0	0	0
24.37792	-0.1129384	0.02740076	0	0	0	0	0	0
24.39448	-0.1129124	0.02741943	0.001568347	0.001127348	0.04733553	0.03402538	0	0
24.41105	-0.1128605	0.02741943	0.003136783	0	0.04733821	-0.03402538	0	0
24.42794	-0.1127825	0.02740076	0.004615675	-0.00110583	0.04420557	-0.03305434	0	0
24.44445	-0.1127565	0.02741943	0.001573601	0.001131125	-0.0910864	0.06697935	0	0
24.46096	-0.1127306	0.02743811	0.00157342	0.001130994	-5.503141E-06	-3.955493E-06	0	0
24.47747	-0.1126526	0.02745678	0.00472071	0.001130994	0.09530361	0	0	0
24.49388	-0.1125487	0.02745678	0.006334828	0	0.04903311	-0.03435695	0	0
24.51049	-0.1123668	0.02736341	0.0109462	-0.00561927	0.1396376	-0.170158	0	0
24.52701	-0.1120809	0.02715798	0.01730523	-0.01243696	0.1919159	-0.2057584	0	0
24.54358	-0.1102095	0.02592515	0.1129597	-0.07441359	2.891185	-1.873262	0	0
24.56014	-0.1095335	0.02547674	0.04080716	-0.02706894	-2.177694	1.428946	0	0
24.60984	-0.092655	0.01679643	0.3396097	-0.174655	4.5092	-2.227206	0	0
24.62658	-0.08019605	0.01422939	0.7446505	-0.1534279	6.09716	0.3195357	0	0
24.64308	-0.07205923	0.01391072	0.4928988	-0.01930384	-7.573902	4.035097	0	0
24.6596	-0.05029964	0.01417315	1.317811	0.01589376	24.98219	1.065947	0	0
24.67611	-0.03840216	0.01366701	0.7204556	-0.03064983	-18.08757	-1.409312	0	0
24.69268	-0.02786121	0.01308579	0.6361799	-0.03507851	-2.547405	-0.1338661	0	0
24.70963	-0.01613018	0.01184802	0.6919157	-0.07300544	1.662585	-1.131351	0	0
24.72581	-0.01323607	0.01154789	0.1789114	-0.01855382	-15.48428	1.643542	0	0
24.75894	-0.004368393	0.007925489	0.267627	-0.1093243	1.799115	-1.840787	0	0
24.77551	-0.004394709	0.007944268	-0.001588404	0.001133514	-5.416624	2.222415	0	0
24.79572	-0.004421024	0.007925489	-0.001301937	-0.0009291029	0.00778877	-0.05608076	0	0
24.81229	-0.004421024	0.007925489	0	0	0.03539671	0.02526019	0	0
24.82886	-0.004421024	0.007925489	0	0	0	0	0	0
24.84542	-0.004421024	0.007925489	0	0	0	0	0	0
24.86199	-0.004421024	0.007925489	0	0	0	0	0	0
24.87856	-0.004421024	0.007925489	0	0	0	0	0	0
24.89513	-0.004473655	0.007963046	-0.003176807	0.002266972	-0.09587624	0.06841735	0	0
24.91169	-0.00449997	0.007981826	-0.001588559	0.001133645	0.0479362	-0.03420585	0	0
24.92829	-0.00449997	0.007981826	0	0	0.04790143	-0.03418395	0	0
24.94482	-0.00449997	0.007981826	0	0	0	0	0	0
24.96139	-0.00449997	0.007981826	0	0	0	0	0	0
24.97796	-0.00449997	0.007981826	0	0	0	0	0	0
24.99453	-0.004473655	0.007963046	0.001588376	-0.001133514	0.04793727	-0.03420952	0	0
25.01135	-0.004473655	0.007963046	0	0	-0.04756219	0.03394185	0	0
25.02766	-0.004473655	0.007963046	0	0	0	0	0	0
25.04423	-0.00449997	0.007944268	-0.001588376	-0.001133458	-0.04831832	-0.03447974	0	0
25.06088	-0.004526285	0.007925489	-0.001579855	-0.001127414	0.000256457	0.0001819246	0	0
25.0774	-0.00460523	0.007831594	-0.004780565	-0.005685843	-0.0964921	-0.1374234	0	0
25.09393	-0.004842068	0.007662575	-0.01432686	-0.01022439	-0.2888893	-0.1373451	0	0
25.15044	-0.006236761	0.006667073	-0.02468174	-0.01761729	-0.1417737	-0.1012198	0	0
25.167	-0.006236761	0.006667073	0	0	0.3377621	0.2410872	0	0
25.18357	-0.006289391	0.006629501	-0.003176723	-0.002267843	-0.09587369	-0.06844365	0	0
25.20049	-0.006499908	0.006479209	-0.01244608	-0.008885447	-0.2768492	-0.197649	0	0
25.21671	-0.006605167	0.006441636	-0.006489392	-0.002316494	0.1797731	0.1982514	0	0
25.23327	-0.006657796	0.006441636	-0.003177089	0	0.1010298	0.07065623	0	0
25.24984	-0.006710425	0.006404061	-0.003176695	-0.002267984	1.18901E-05	-0.06845182	0	0
25.26653	-0.00673674	0.006385274	-0.00157637	-0.001125468	0.04811512	0.03435068	0	0
25.28297	-0.006973571	0.006216183	-0.01440628	-0.01028566	-0.3872297	-0.276471	0	0
25.29956	-0.007789316	0.005633696	-0.04918184	-0.0351186	-1.052984	-0.7519268	0	0
25.3161	-0.009894414	0.004130038	-0.1272251	-0.09087604	-2.355485	-1.68286	0	0
25.33267	-0.01031542	0.003866829	-0.02541221	-0.01588731	3.074665	2.264598	0	0
25.34924	-0.01031542	0.003866829	0	0	0.7669862	0.4795077	0	0
25.3658	-0.01031542	0.003866829	0	0	0	0	0	0
25.38261	-0.01031542	0.003904432	0	0.002236977	0	0.06702213	0	0
25.39913	-0.01031542	0.003904432	0	0	0	-0.0671257	0	0
25.4155	-0.01031542	0.003904432	0	0	0	0	0	0
25.43215	-0.01031542	0.003904432	0	0	0	0	0	0
25.44866	-0.01031542	0.003904432	0	0	0	0	0	0
25.46521	-0.01028911	0.003923233	0.001590305	0.001136274	0.04810905	0.03437395	0	0
25.48219	-0.0102628	0.003942034	0.001549698	0.001107299	-0.001211241	-0.0008642636	0	0
25.49834	-0.01023648	0.003960835	0.001628738	0.001163775	0.002385434	0.001704456	0	0
25.53379	-0.01023648	0.003960835	0	0	-0.03156383	-0.02255317	0	0
25.55035	-0.01023648	0.003960835	0	0	0	0	0	0
25.56725	-0.01023648	0.003960835	0	0	0	0	0	0
25.58348	-0.01023648	0.003960835	0	0	0	0	0	0
25.68288	-0.01021017	0.003979635	0.0002647254	0.0001891418	0.002289283	0.001635653	0	0
25.69985	-0.01021017	0.003979635	0	0	-0.002275023	-0.001625465	0	0
25.71602	-0.01021017	0.003979635	0	0	0	0	0	0
25.73286	-0.01021017	0.003979635	0	0	0	0	0	0
25.74915	-0.01021017	0.003979635	0	0	0	0	0	0
25.76588	-0.01021017	0.003979635	0	0	0	0	0	0
25.7824	-0.01021017	0.003979635	0	0	0	0	0	0
25.79891	-0.01021017	0.003979635	0	0	0	0	0	0
25.81542	-0.01021017	0.003979635	0	0	0	0	0	0
25.83198	-0.01021017	0.003979635	0	0	0	0	0	0
25.84855	-0.01021017	0.003979635	0	0	0	0	0	0
25.86512	-0.01021017	0.003979635	0	0	0	0	0	0
25.88197	-0.01021017	0.003979635	0	0	0	0	0	0
25.89825	-0.01021017	0.003979635	0	0	0	0	0	0
25.91504	-0.01021017	0.003979635	0	0	0	0	0	0
25.93151	-0.01021017	0.003979635	0	0	0	0	0	0
25.94795	-0.01018386	0.003960835	0.001599653	-0.001142965	0.04860217	-0.03472665	0	0
25.96453	-0.01018386	0.003960835	0	0	-0.04843936	0.03461032	0	0
25.98109	-0.01018386	0.003960835	0	0	0	0	0	0
25.99805	-0.01018386	0.003960835	0	0	0	0	0	0
26.01422	-0.01018386	0.003960835	0	0	0	0	0	0
26.03079	-0.01018386	0.003960835	0	0	0	0	0	0
26.04759	-0.01018386	0.003960835	0	0	0	0	0	0
26.06392	-0.01018386	0.003960835	0	0	0	0	0	0
26.08049	-0.01018386	0.003960835	0	0	0	0	0	0
26.09705	-0.01018386	0.003960835	0	0	0	0	0	0
26.11363	-0.01018386	0.003960835	0	0	0	0	0	0
26.13019	-0.01018386	0.003960835	0	0	0	0	0	0
26.14675	-0.01018386	0.003960835	0	0	0	0	0	0
26.16367	-0.01018386	0.003960835	0	0	0	0	0	0
26.17989	-0.01018386	0.003960835	0	0	0	0	0	0
26.19645	-0.01018386	0.003960835	0	0	0	0	0	0
26.21302	-0.01018386	0.003960835	0	0	0	0	0	0
26.23901	-0.01018386	0.003960835	0	0	0	0	0	0
26.25573	-0.01018386	0.003960835	0	0	0	0	0	0
26.27215	-0.01015755	0.003942034	0.001603242	-0.001145517	0.04838873	-0.03457377	0	0
26.29611	-0.01013123	0.003923233	0.001097924	-0.0007844949	-0.01251452	0.008940945	0	0
26.31277	-0.01013123	0.003923233	0	0	-0.02702353	0.01930901	0	0
26.32929	-0.01013123	0.003923233	0	0	0	0	0	0
26.34581	-0.01013123	0.003923233	0	0	0	0	0	0
26.36238	-0.01013123	0.003923233	0	0	0	0	0	0
26.37895	-0.01013123	0.003923233	0	0	0	0	0	0
26.39551	-0.01013123	0.003923233	0	0	0	0	0	0
26.41208	-0.01013123	0.003923233	0	0	0	0	0	0
26.42865	-0.01013123	0.003923233	0	0	0	0	0	0
26.44537	-0.01013123	0.003923233	0	0	0	0	0	0
26.46178	-0.01013123	0.003923233	0	0	0	0	0	0
26.47835	-0.01013123	0.003923233	0	0	0	0	0	0
26.54494	-0.01013123	0.003923233	0	0	0	0	0	0
26.56118	-0.01013123	0.003923233	0	0	0	0	0	0
26.57796	-0.01013123	0.003923233	0	0	0	0	0	0
26.59431	-0.01013123	0.003923233	0	0	0	0	0	0
26.61098	-0.01013123	0.003923233	0	0	0	0	0	0
26.62749	-0.01013123	0.003923233	0	0	0	0	0	0
26.64401	-0.01013123	0.003923233	0	0	0	0	0	0
26.66058	-0.01013123	0.003923233	0	0	0	0	0	0
26.67715	-0.01013123	0.003923233	0	0	0	0	0	0
26.69371	-0.01013123	0.003923233	0	0	0	0	0	0
26.71028	-0.01013123	0.003923233	0	0	0	0	0	0
26.72706	-0.01013123	0.003923233	0	0	0	0	0	0
26.74358	-0.01013123	0.003923233	0	0	0	0	0	0
26.76009	-0.01013123	0.003923233	0	0	0	0	0	0
26.7766	-0.01013123	0.003923233	0	0	0	0	0	0
26.79311	-0.01013123	0.003923233	0	0	0	0	0	0
26.80968	-0.01013123	0.003923233	0	0	0	0	0	0
26.82625	-0.01013123	0.003923233	0	0	0	0	0	0
26.84281	-0.01013123	0.003923233	0	0	0	0	0	0
26.85938	-0.01013123	0.003923233	0	0	0	0	0	0
26.87595	-0.01013123	0.003923233	0	0	0	0	0	0
26.89252	-0.01013123	0.003923233	0	0	0	0	0	0
26.9092	-0.01013123	0.003923233	0	0	0	0	0	0
26.92565	-0.01013123	0.003923233	0	0	0	0	0	0
26.94221	-0.01013123	0.003923233	0	0	0	0	0	0
26.95878	-0.01013123	0.003923233	0	0	0	0	0	0
26.97535	-0.01013123	0.003923233	0	0	0	0	0	0
26.99557	-0.01013123	0.003923233	0	0	0	0	0	0
27.01277	-0.01013123	0.003923233	0	0	0	0	0	0
27.0287	-0.01013123	0.003923233	0	0	0	0	0	0
27.04529	-0.01013123	0.003923233	0	0	0	0	0	0
27.06183	-0.01013123	0.003923233	0	0	0	0	0	0
27.07882	-0.01013123	0.003923233	0	0	0	0	0	0
27.09497	-0.01013123	0.003923233	0	0	0	0	0	0
27.11153	-0.01013123	0.003923233	0	0	0	0	0	0
27.12835	-0.01013123	0.003923233	0	0	0	0	0	0
27.14486	-0.01013123	0.003923233	0	0	0	0	0	0
27.16138	-0.01013123	0.003923233	0	0	0	0	0	0
27.1779	-0.01013123	0.003923233	0	0	0	0	0	0
27.1944	-0.01013123	0.003923233	0	0	0	0	0	0
27.21094	-0.01013123	0.003923233	0	0	0	0	0	0
27.24407	-0.01010492	0.003904432	0.0007941914	-0.0005674502	0.01598959	-0.01142458	0	0
27.26064	-0.01010492	0.003904432	0	0	-0.01597978	0.01141756	0	0
27.2772	-0.01013123	0.003885631	-0.001588474	-0.001134966	-0.047943	-0.03425531	0	0
27.29377	-0.01013123	0.003885631	0	0	0.047943	0.03425531	0	0
27.31048	-0.01013123	0.003885631	0	0	0	0	0	0
27.3269	-0.01013123	0.003885631	0	0	0	0	0	0
27.34351	-0.01013123	0.003885631	0	0	0	0	0	0
27.36004	-0.01013123	0.003885631	0	0	0	0	0	0
27.39317	-0.01013123	0.003885631	0	0	0	0	0	0
27.41006	-0.01013123	0.003885631	0	0	0	0	0	0
27.4263	-0.01013123	0.003885631	0	0	0	0	0	0
27.44287	-0.01013123	0.003885631	0	0	0	0	0	0
27.45944	-0.01013123	0.003885631	0	0	0	0	0	0
27.4761	-0.01013123	0.003885631	0	0	0	0	0	0
27.49257	-0.01013123	0.003885631	0	0	0	0	0	0
27.50914	-0.01013123	0.003885631	0	0	0	0	0	0
27.52571	-0.01013123	0.003885631	0	0	0	0	0	0
27.54265	-0.01013123	0.003885631	0	0	0	0	0	0
27.55884	-0.01013123	0.003885631	0	0	0	0	0	0
27.57567	-0.01013123	0.003885631	0	0	0	0	0	0
27.59197	-0.01013123	0.003885631	0	0	0	0	0	0
27.60854	-0.01013123	0.003885631	0	0	0	0	0	0
27.62521	-0.01013123	0.003885631	0	0	0	0	0	0
27.64172	-0.01013123	0.003885631	0	0	0	0	0	0
27.65824	-0.01013123	0.003885631	0	0	0	0	0	0
27.67481	-0.01013123	0.003885631	0	0	0	0	0	0
27.69138	-0.01013123	0.003885631	0	0	0	0	0	0
27.70794	-0.01013123	0.003885631	0	0	0	0	0	0
27.72773	-0.01013123	0.003885631	0	0	0	0	0	0
27.7443	-0.01013123	0.003885631	0	0	0	0	0	0
27.76086	-0.01013123	0.003885631	0	0	0	0	0	0
27.77743	-0.01013123	0.003885631	0	0	0	0	0	0
27.794	-0.01013123	0.003885631	0	0	0	0	0	0
27.81084	-0.01013123	0.003885631	0	0	0	0	0	0
27.82713	-0.01013123	0.003885631	0	0	0	0	0	0
27.87705	-0.01013123	0.003885631	0	0	0	0	0	0
27.92889	-0.01013123	0.003885631	0	0	0	0	0	0
27.94546	-0.01010492	0.003904432	0.001588291	0.001134835	0.02321759	0.01658898	0	0
27.96202	-0.01010492	0.003904432	0	0	-0.04793473	-0.03424939	0	0
27.97859	-0.01010492	0.003904432	0	0	0	0	0	0
27.99516	-0.01010492	0.003904432	0	0	0	0	0	0
28.01173	-0.01010492	0.003904432	0	0	0	0	0	0
28.02829	-0.01010492	0.003904432	0	0	0	0	0	0
28.04486	-0.01010492	0.003904432	0	0	0	0	0	0
28.06143	-0.01013123	0.003885631	-0.001588291	-0.001134835	-0.04793473	-0.03424939	0	0
28.07803	-0.01013123	0.003885631	0	0	0.04787685	0.03420804	0	0
28.09456	-0.01013123	0.003885631	0	0	0	0	0	0
28.11113	-0.01013123	0.003885631	0	0	0	0	0	0
28.12807	-0.01013123	0.003885631	0	0	0	0	0	0
28.14458	-0.01013123	0.003885631	0	0	0	0	0	0
28.16083	-0.01013123	0.003885631	0	0	0	0	0	0
28.17739	-0.01013123	0.003885631	0	0	0	0	0	0
28.19396	-0.01013123	0.003885631	0	0	0	0	0	0
28.21062	-0.01013123	0.003885631	0	0	0	0	0	0
28.22709	-0.01013123	0.003885631	0	0	0	0	0	0
28.24366	-0.01013123	0.003885631	0	0	0	0	0	0
28.26023	-0.01013123	0.003885631	0	0	0	0	0	0
28.27679	-0.01013123	0.003885631	0	0	0	0	0	0
28.29336	-0.01013123	0.003885631	0	0	0	0	0	0
28.30993	-0.01013123	0.003885631	0	0	0	0	0	0
28.32671	-0.01013123	0.003885631	0	0	0	0	0	0
28.34322	-0.01013123	0.003885631	0	0	0	0	0	0
28.35963	-0.01013123	0.003885631	0	0	0	0	0	0
28.3762	-0.01013123	0.003885631	0	0	0	0	0	0
28.39276	-0.01013123	0.003885631	0	0	0	0	0	0
28.40933	-0.01013123	0.003885631	0	0	0	0	0	0
28.44246	-0.01013123	0.003885631	0	0	0	0	0	0
28.46166	-0.01013123	0.003885631	0	0	0	0	0	0
28.47823	-0.01010492	0.003904432	0.001588291	0.001134835	0.04440948	0.0317306	0	0
28.49483	-0.01010492	0.003904432	0	0	-0.04788511	-0.03421394	0	0
28.51136	-0.01010492	0.003904432	0	0	0	0	0	0
28.52793	-0.01013123	0.003885631	-0.001588291	-0.001134835	-0.04798445	-0.03428492	0	0
28.5445	-0.01013123	0.003885631	0	0	0.04793473	0.03424939	0	0
28.56106	-0.01013123	0.003885631	0	0	0	0	0	0
28.57763	-0.01013123	0.003885631	0	0	0	0	0	0
28.5942	-0.01013123	0.003885631	0	0	0	0	0	0
28.61091	-0.01013123	0.003885631	0	0	0	0	0	0
28.62733	-0.01013123	0.003885631	0	0	0	0	0	0
28.64393	-0.01013123	0.003885631	0	0	0	0	0	0
28.66046	-0.01013123	0.003885631	0	0	0	0	0	0
28.67703	-0.01013123	0.003885631	0	0	0	0	0	0
28.6936	-0.01013123	0.003885631	0	0	0	0	0	0
28.71016	-0.01013123	0.003885631	0	0	0	0	0	0
28.72673	-0.01010492	0.003904432	0.001588291	0.001134835	0.04794025	0.03425333	0	0
28.74351	-0.01010492	0.003904432	0	0	-0.04763312	-0.03403389	0	0
28.76002	-0.01015755	0.003942034	-0.003187167	0.002277273	-0.09574249	0.06840928	0	0
28.77653	-0.0102628	0.004017237	-0.006374335	0.004554462	-0.09651113	0.06895591	0	0
28.79305	-0.01060487	0.004261635	-0.02071166	0.0147979	-0.4341007	0.3101473	0	0
28.80956	-0.01147318	0.004881951	-0.05256895	0.03755475	-0.964397	0.6889048	0	0
28.82613	-0.01615649	0.008225937	-0.282685	0.2018434	-6.955328	4.965675	0	0
28.8427	-0.02239099	0.01263574	-0.3763154	0.2661763	-2.82577	1.941569	0	0
28.85927	-0.03185764	0.0193803	-0.5714079	0.4071027	-5.887903	4.253167	0	0
28.8761	-0.03979477	0.02502828	-0.4714333	0.335467	2.992947	-2.144563	0	0
28.89262	-0.05095585	0.03296156	-0.6758629	0.4804021	-6.129825	4.345881	0	0
28.90897	-0.0562826	0.03674479	-0.3257613	0.2313661	10.65255	-7.577422	0	0
28.92564	-0.06621883	0.04379778	-0.5959782	0.4230405	-8.18248	5.804121	0	0
28.9421	-0.07281839	0.04848008	-0.4008887	0.2844256	5.887814	-4.183407	0	0
28.95867	-0.07794701	0.05211794	-0.3095286	0.219556	2.76585	-1.963871	0	0
28.97523	-0.08009146	0.05367597	-0.129469	0.09406488	5.434524	-3.787549	0	0
28.9918	-0.07969924	0.0533978	0.0236745	-0.01679067	4.622412	-3.346012	0	0
29.00837	-0.0796731	0.05337925	0.001577879	-0.001119219	-0.666839	0.4729381	0	0
29.02493	-0.07964694	0.0533607	0.001578873	-0.001119831	3.002743E-05	-1.845707E-05	0	0
29.1409	-0.07833935	0.05439914	0.01127545	0.008954417	0.07316398	0.07601363	0	0
29.15747	-0.07781623	0.05480701	0.03157515	0.02461958	0.1531637	0.1181956	0	0
29.17404	-0.07640362	0.05584506	0.08526562	0.06265673	1.620382	1.147963	0	0
29.23576	-0.074729	0.05695695	0.02713166	0.0180145	-0.7425557	-0.5702233	0	0
29.25233	-0.07475517	0.05690137	-0.001579046	-0.003354348	-0.3667092	-0.2729349	0	0
29.2689	-0.07483368	0.05680872	-0.004739224	-0.005592886	-0.09536886	-0.06755532	0	0
29.28844	-0.07485985	0.05679019	-0.001339057	-0.0009479746	0.09415658	0.1286258	0	0
29.30501	-0.07488602	0.05677166	-0.001579409	-0.001118449	-0.006655427	-0.004720473	0	0
29.32192	-0.07485985	0.05675313	0.001546995	-0.001095494	0.09337679	0.0006855763	0	0
29.33814	-0.07480751	0.05671607	0.003226882	-0.00228477	0.05069911	-0.03589242	0	0
29.35471	-0.07478134	0.05669754	0.001579409	-0.001118673	-0.05024726	0.03556548	0	0
29.37128	-0.07467666	0.05666048	0.006318537	-0.002236897	0.1430272	-0.03374806	0	0
29.38784	-0.07150944	0.05464016	0.1911962	-0.1219607	5.57994	-3.613479	0	0
29.40441	-0.0704621	0.05434351	0.0632173	-0.01790552	-3.862633	3.140572	0	0
29.42098	-0.06700481	0.0564937	0.2086826	0.1297857	4.390152	4.457329	0	0
29.43754	-0.0601117	0.06136438	0.4161166	0.2940282	6.26073	4.957134	0	0
29.45411	-0.04436561	0.07249115	0.9504361	0.6716137	16.12672	11.39621	0	0
29.47068	-0.03351376	0.08018111	0.6550187	0.4641665	-8.915715	-6.26077	0	0
29.48725	-0.02191754	0.08829864	0.6999492	0.4899753	1.356006	0.7789133	0	0
29.50406	-0.006973571	0.09876864	0.8890213	0.6228636	5.664795	3.981469	0	0
29.52041	2.631579E-05	0.1036464	0.4280332	0.2982686	-13.90065	-9.787844	0	0
29.53694	0.009368147	0.1101483	0.5649798	0.3932245	4.163977	2.887213	0	0
29.55359	0.02139147	0.1185054	0.7224027	0.5021241	4.74475	3.282252	0	0
29.5701	0.02935998	0.1239291	0.4825913	0.3284679	-7.232942	-5.237638	0	0
29.58711	0.03840216	0.1302038	0.531529	0.3688474	1.4598	1.20451	0	0
29.60362	0.04457572	0.1344859	0.3738848	0.2593367	-4.70249	-3.266678	0	0
29.61978	0.04754309	0.1365438	0.1836788	0.1273797	-5.822544	-4.03944	0	0
29.63634	0.05308167	0.1404206	0.3343476	0.2340314	4.604711	3.259469	0	0
29.65316	0.05688593	0.1430945	0.2262652	0.1590373	-3.238075	-2.24677	0	0
29.66967	0.06139642	0.1463306	0.2731345	0.195964	1.406344	1.108007	0	0
29.6862	0.06462043	0.148602	0.1950954	0.1374518	-2.362024	-1.770998	0	0
29.70262	0.06590442	0.1495648	0.0781858	0.05862823	-3.548356	-2.392397	0	0
29.71918	0.06587821	0.1496557	-0.00158184	0.005482693	-2.41811	-1.611076	0	0
29.73574	0.06579961	0.1497102	-0.004746163	0.003290373	-0.09552145	-0.06617957	0	0
29.75231	0.06577341	0.1497283	-0.00158184	0.001096539	0.09552145	-0.06622531	0	0
29.76925	0.0656686	0.149801	-0.006185885	0.004288388	-0.1374001	0.09525548	0	0
29.78544	0.0649873	0.1502732	-0.04208239	0.02916986	-1.083421	0.7509674	0	0
29.80201	0.06469905	0.150473	-0.01739914	0.01205874	0.7535304	-0.5223684	0	0
29.88484	0.05963971	0.1540861	-0.06107919	0.04361925	-0.439439	0.3175116	0	0
29.90141	0.0529767	0.1587671	-0.4021803	0.2825443	-3.431616	2.403683	0	0
29.91797	0.05100835	0.1601634	-0.1188238	0.08429135	8.552209	-5.98363	0	0
29.93454	0.04050415	0.1674843	-0.6340346	0.441891	-15.54999	10.793	0	0
29.95111	0.03832333	0.1690597	-0.1316345	0.09509196	15.16247	-10.46642	0	0
29.96767	0.0343549	0.1719379	-0.2395626	0.173746	-3.257467	2.373922	0	0
29.98439	0.03317204	0.1730417	-0.0707703	0.06604384	5.071974	-3.236301	0	0
30.0009	0.0354851	0.1745977	0.1400844	0.09423191	6.346074	0.8483736	0	0
30.01737	0.04166009	0.1788475	0.3748379	0.2579744	7.116827	4.964047	0	0
30.03808	0.05287173	0.1865988	0.5413637	0.3742769	4.478456	3.127776	0	0
30.05494	0.05874811	0.1907509	0.3486382	0.2463408	-5.130422	-3.405703	0	0
30.07122	0.06561619	0.1957303	0.4218924	0.3058738	2.210815	1.796708	0	0
30.08779	0.06731918	0.1969025	0.1027925	0.07075413	-9.714898	-7.158145	0	0
30.10435	0.07276604	0.2007604	0.3287731	0.2328648	6.820107	4.892511	0	0
30.12099	0.07572336	0.2028328	0.1777879	0.124587	-4.547579	-3.261261	0	0
30.1375	0.07608966	0.203049	0.02217888	0.01309151	-4.694128	-3.363392	0	0
30.15405	0.07608966	0.203049	0	0	-0.6707498	-0.395923	0	0
30.17062	0.07601117	0.2031031	-0.004737779	0.003263153	-0.1430606	0.09853321	0	0
30.18719	0.0753832	0.2035355	-0.03790403	0.02609983	-1.000959	0.6892123	0	0
30.20375	0.07088105	0.2066337	-0.2717502	0.1870116	-7.05749	4.856327	0	0
30.22032	0.06456801	0.2109729	-0.381012	0.2618811	-3.29734	2.259435	0	0
30.23689	0.05670231	0.2163711	-0.4747747	0.3258386	-2.829599	1.930131	0	0
30.25346	0.0522419	0.2194286	-0.2692623	0.184572	6.202733	-4.263681	0	0
30.2701	0.0480157	0.2223233	-0.2539826	0.1739598	0.4601616	-0.3195972	0	0
30.28659	0.04318366	0.2256303	-0.2929439	0.2004898	-1.175854	0.8006787	0	0
30.30316	0.03926928	0.2283074	-0.2362728	0.16159	1.714086	-1.176574	0	0
30.31973	0.03430233	0.2317021	-0.2998056	0.204905	-1.917423	1.30725	0	0
30.33629	0.03317204	0.2324743	-0.06822446	0.04660787	6.989132	-4.777417	0	0
30.35286	0.03096378	0.2339825	-0.1332904	0.0910391	-1.963695	1.340937	0	0
30.36943	0.02749307	0.2363522	-0.2094927	0.1430319	-2.299788	1.569146	0	0
30.38599	0.02659899	0.2369624	-0.05396694	0.0368364	4.693776	-3.204986	0	0
30.40257	0.02659899	0.2369624	0	0	1.628538	-1.111597	0	0
30.41924	0.02659899	0.2369624	0	0	0	0	0	0
30.4357	0.02659899	0.2369624	0	0	0	0	0	0
30.45226	0.02659899	0.2369624	0	0	0	0	0	0
30.46883	0.02659899	0.2369624	0	0	0	0	0	0
30.4854	0.02659899	0.2369624	0	0	0	0	0	0
30.51853	0.02657269	0.2369804	-0.0007936854	0.0005419413	-0.01596959	0.0109043	0	0
30.5353	0.02657269	0.2369804	0	0	0.0159055	-0.01086054	0	0
30.55181	0.02657269	0.2369804	0	0	0	0	0	0
30.56832	0.02657269	0.2369804	0	0	0	0	0	0
30.58483	0.02657269	0.2369804	0	0	0	0	0	0
30.60136	0.02659899	0.2369624	0.001590392	-0.001085946	0.04812556	-0.03286092	0	0
30.61793	0.02659899	0.2369624	0	0	-0.04804514	0.03280601	0	0
30.6345	0.02662528	0.2369445	0.001587279	-0.001082921	0.04790419	-0.03268262	0	0
30.65107	0.02662528	0.2369445	0	0	-0.04790143	0.03268073	0	0
30.66763	0.02665158	0.2369265	0.001587279	-0.00108382	0.04790143	-0.03270788	0	0
30.6842	0.02673047	0.2368727	0.004761402	-0.003249288	0.09578971	-0.06535017	0	0
30.70092	0.02673047	0.2368727	0	0	-0.1430571	0.09762537	0	0
30.71734	0.02673047	0.2368727	0	0	0	0	0	0
30.7365	0.02673047	0.2368727	0	0	0	0	0	0
30.75307	0.02673047	0.2368727	0	0	0	0	0	0
30.76964	0.02673047	0.2368727	0	0	0	0	0	0
30.7862	0.02673047	0.2368727	0	0	0	0	0	0
30.80298	0.02673047	0.2368727	0	0	0	0	0	0
30.81949	0.02673047	0.2368727	0	0	0	0	0	0
30.83601	0.02673047	0.2368727	0	0	0	0	0	0
30.85252	0.02673047	0.2368727	0	0	0	0	0	0
30.9353	0.02670418	0.2368547	-0.0003176534	-0.0002168989	-0.003199037	-0.002184354	0	0
30.95187	0.02670418	0.2368547	0	0	0.003197317	0.00218318	0	0
30.96844	0.02670418	0.2368547	0	0	0	0	0	0
30.985	0.02670418	0.2368547	0	0	0	0	0	0
31.00162	0.02670418	0.2368547	0	0	0	0	0	0
31.01814	0.02673047	0.2368368	0.001592597	-0.001086548	0.04806743	-0.03279398	0	0
31.0347	0.02670418	0.2368189	-0.001587462	-0.001083945	-0.09614039	7.870657E-05	0	0
31.05127	0.02667788	0.236765	-0.001587279	-0.003250561	5.516389E-06	-0.06539237	0	0
31.06784	0.02659899	0.2367112	-0.004761402	-0.003249288	-0.09578971	3.842759E-05	0	0
31.0844	0.02654639	0.2366394	-0.00317529	-0.00433448	0.04787172	-0.03275305	0	0
31.10097	0.0265201	0.2366214	-0.001587279	-0.00108382	0.04793177	0.09811641	0	0
31.11753	0.02633601	0.2364958	-0.01111129	-0.007584043	-0.2874353	-0.1961771	0	0
31.13422	0.02607304	0.2363163	-0.01575726	-0.01075536	-0.1397007	-0.09535913	0	0
31.15073	0.02565227	0.2359573	-0.02549751	-0.02175436	-0.2934549	-0.3313784	0	0
31.16724	0.0246529	0.2350238	-0.06053108	-0.05653954	-1.061225	-1.053701	0	0
31.1838	0.02173342	0.2320972	-0.1762404	-0.1766723	-3.498356	-3.632094	0	0
31.20037	0.01847158	0.224552	-0.1968848	-0.4554248	-0.6230872	-8.413255	0	0
31.21694	0.01691944	0.2138884	-0.09368771	-0.6436606	3.114495	-5.680966	0	0
31.23379	0.01599864	0.1991381	-0.0546424	-0.8753095	1.168369	-6.931723	0	0
31.25007	0.01526197	0.181125	-0.04524108	-1.106252	0.2837323	-6.969847	0	0
31.26681	0.01463053	0.1535597	-0.03771425	-1.646407	0.2279082	-16.3556	0	0
31.2832	0.01328869	0.1252977	-0.08187038	-1.724358	-1.332712	-2.352682	0	0
31.29983	0.01226254	0.1121246	-0.06171107	-0.7922146	0.6105533	28.23127	0	0
31.31634	0.01013123	0.09502428	-0.1290772	-1.035634	-2.032762	-7.345144	0	0
31.3329	0.005131534	0.07776682	-0.3019215	-1.042142	-5.226379	-0.1967926	0	0
31.34987	0.0009736839	0.07190045	-0.2450715	-0.3457749	1.695725	20.7713	0	0
31.36604	-0.01392015	0.06214165	-0.9211584	-0.6035649	-20.40434	-7.780118	0	0
31.3826	-0.02218057	0.05628986	-0.4986573	-0.3532559	12.90714	7.646779	0	0
31.3994	-0.03301432	0.04861007	-0.6449417	-0.4571843	-4.384587	-3.115047	0	0
31.41574	-0.04095078	0.04299823	-0.4858702	-0.3435564	4.801066	3.429495	0	0
31.4323	-0.05116583	0.03575742	-0.6165817	-0.4370561	-3.972783	-2.841785	0	0
31.44887	-0.05570547	0.03253267	-0.2740129	-0.1946462	10.33875	7.315945	0	0
31.46545	-0.06228774	0.02784892	-0.396987	-0.2824841	-3.70987	-2.649885	0	0
31.482	-0.07030499	0.02213061	-0.4843124	-0.3454365	-2.635487	-1.899904	0	0
31.49897	-0.07548787	0.01846306	-0.3054198	-0.2161237	5.336325	3.857369	0	0
31.51795	-0.08171239	0.01396695	-0.328017	-0.2369337	-0.6286446	-0.5789259	0	0
31.53452	-0.08299313	0.01304828	-0.07729717	-0.05544462	7.05352	5.105846	0	0
31.55109	-0.08497906	0.01162293	-0.1198705	-0.08603486	-1.284792	-0.9231621	0	0
31.56765	-0.08918385	0.008601462	-0.2538019	-0.1823759	-4.042058	-2.907578	0	0
31.58422	-0.08926217	0.008545135	-0.004727435	-0.003399868	7.517083	5.401508	0	0
31.60105	-0.08923607	0.008563911	0.001551519	0.001115818	0.1880272	0.135225	0	0
31.61735	-0.08926217	0.008545135	-0.001601064	-0.00115145	-0.09515063	-0.06843025	0	0
31.63407	-0.08923607	0.008563911	0.001561609	0.001123075	0.09576941	0.06887526	0	0
31.65049	-0.08923607	0.008563911	0	0	-0.04713216	-0.03389641	0	0
31.66709	-0.08920996	0.008545135	0.001572011	-0.001130556	0.04760507	-0.03423652	0	0
31.68362	-0.08913163	0.008563911	0.004739343	0.001136036	0.09559026	0.06840587	0	0
31.70019	-0.08910552	0.008582686	0.001575812	0.001133289	-0.09559111	-8.299248E-05	0	0
31.71675	-0.0890011	0.008695336	0.006303973	0.006800349	0.1427044	0.1710421	0	0
31.73332	-0.08894888	0.008732885	0.003151986	0.002266727	-0.09513809	-0.1368407	0	0
31.75015	-0.08889666	0.008770433	0.003102426	0.002230712	-0.001483953	-0.00107836	0	0
31.84929	-0.08881834	0.008789208	0.0007900281	0.0001893809	-0.01993984	-0.01760243	0	0
31.86585	-0.08881834	0.008789208	0	0	-0.006828035	-0.001636776	0	0
31.88242	-0.08881834	0.008789208	0	0	0	0	0	0
31.89899	-0.08881834	0.008789208	0	0	0	0	0	0
31.91577	-0.08881834	0.008789208	0	0	0	0	0	0
31.93228	-0.08879223	0.008770433	0.001581724	-0.001137161	0.04750954	-0.03415638	0	0
31.94869	-0.08876612	0.008751659	0.0015912	-0.001144299	0.0002878569	-0.0002168661	0	0
31.96531	-0.08874001	0.008732885	0.001570748	-0.001129536	-0.000619227	0.000447006	0	0
31.98182	-0.08874001	0.008732885	0	0	-0.04740527	0.03408945	0	0
31.99839	-0.08874001	0.008732885	0	0	0	0	0	0
32.01495	-0.0887139	0.008714111	0.001576443	-0.001133363	0.04758262	-0.03420892	0	0
32.03152	-0.0887139	0.008714111	0	0	-0.04757988	0.03420695	0	0
32.04837	-0.08868779	0.008732885	0.001549762	0.0011145	0.04638211	0.03335534	0	0
32.06466	-0.08866169	0.008714111	0.001602752	-0.001152607	0.001599229	-0.06842141	0	0
32.08139	-0.08866169	0.008714111	0	0	-0.04853318	0.03490227	0	0
32.09779	-0.08866169	0.008714111	0	0	0	0	0	0
32.11441	-0.08863557	0.008732885	0.001570836	0.001129332	0.04757223	0.03420145	0	0
32.13092	-0.08863557	0.008770433	0	0.002274265	-0.04740792	0.03455412	0	0
32.14748	-0.08860946	0.008789208	0.001576175	0.001133494	0.04765683	-0.03449206	0	0
32.16405	-0.08860946	0.008789208	0	0	-0.04757452	-0.03421285	0	0
32.18062	-0.08858336	0.008807981	0.001575812	0.001133177	0.04755809	0.03419934	0	0
32.19747	-0.08853114	0.008807981	0.003099265	0	0.04558951	-0.03391044	0	0
32.21375	-0.08850502	0.008826756	0.001603585	0.001152877	-0.04513972	0.03479389	0	0
32.23032	-0.08840058	0.00890185	0.006305598	0.004533751	0.143143	0.1029237	0	0
32.247	-0.08832225	0.00895817	0.004694377	0.003375381	-0.04845938	-0.03483934	0	0
32.26345	-0.0881917	0.009014489	0.007937062	0.003423857	0.09786443	0.00146301	0	0
32.28002	-0.08813947	0.009014489	0.003152523	0	-0.1449149	-0.1037023	0	0
32.29659	-0.08808725	0.009014489	0.003152073	0	-1.356883E-05	0	0	0
32.31355	-0.08800891	0.008995716	0.004617755	-0.001106621	0.043711	-0.03300273	0	0
32.32972	-0.08793058	0.008976944	0.00484434	-0.001160921	0.006838341	-0.001638772	0	0
32.34629	-0.08772167	0.00890185	0.01260964	-0.004532651	0.2371973	-0.1029922	0	0
32.36285	-0.0872516	0.008639012	0.0283736	-0.01586498	0.4757574	-0.3420104	0	0
32.37942	-0.08254883	0.00548336	0.2838597	-0.1904755	7.710586	-5.269756	0	0
32.39872	-0.07425794	-0.000403799	0.4296968	-0.3051173	4.066622	-3.196752	0	0
32.41528	-0.06996457	-0.003492595	0.2591486	-0.1864401	-4.755683	3.309279	0	0
32.43185	-0.06087207	-0.009773287	0.5488241	-0.3791033	8.742423	-5.814589	0	0
32.44865	-0.0520057	-0.01544198	0.5278825	-0.3375006	-0.6276816	1.246959	0	0
32.46516	-0.04791068	-0.0180151	0.2479754	-0.1558158	-8.403113	5.454372	0	0
32.48155	-0.0395583	-0.02294011	0.5095475	-0.3004564	7.949172	-4.395625	0	0
32.61427	-0.0004736842	-0.01744732	0.2944956	0.04138717	-1.442247	2.292577	0	0
32.63065	-0.0005263158	-0.01744732	-0.003212353	0	-1.996683	-0.2775776	0	0
32.64729	-0.0005526315	-0.0174284	-0.001581865	0.001137457	0.04937878	0.03444749	0	0
32.6638	-0.0005526315	-0.0174284	0	0	0.0477243	-0.03431666	0	0
32.68035	-0.0006052631	-0.01739055	-0.003179778	0.002286673	-0.09617628	0.06916323	0	0
32.69733	-0.0006315788	-0.01737162	-0.001550228	0.001114817	0.04860358	-0.03495221	0	0
32.71383	-0.0007631577	-0.01727701	-0.007971485	0.005732198	-0.1917847	0.137908	0	0
32.73034	-0.001157894	-0.01699317	-0.02390892	0.01719172	-0.4827156	0.3470878	0	0
32.74686	-0.001842103	-0.01653909	-0.04142293	0.02749091	-0.5302831	0.3118354	0	0
32.76318	-0.001973682	-0.01644449	-0.008060877	0.005795016	1.015874	-0.6606398	0	0
32.77989	-0.001973682	-0.01644449	0	0	0.2440645	-0.1754595	0	0
32.79639	-0.001973682	-0.01644449	0	0	0	0	0	0
32.81291	-0.002052629	-0.01642558	-0.004780664	0.001145527	-0.1447808	0.03469188	0	0
32.82945	-0.002131576	-0.01636882	-0.004771846	0.003430466	0.0002667489	0.06911875	0	0
32.84602	-0.002157891	-0.01634991	-0.001588418	0.001141834	0.09614246	-0.06911879	0	0
32.86259	-0.002263154	-0.01627424	-0.006353671	0.004567448	-0.1438156	0.1033852	0	0
32.87915	-0.002368417	-0.01619857	-0.006353657	0.004567335	4.216106E-07	-3.386938E-06	0	0
32.89597	-0.002394732	-0.01617965	-0.00156535	0.001125252	0.1434544	-0.1031225	0	0
32.91229	-0.002421048	-0.01616073	-0.001612175	0.001158912	-0.001413186	0.001015867	0	0
32.92899	-0.002578942	-0.01604724	-0.009454288	0.006795898	-0.2374683	0.1706945	0	0
32.9455	-0.003210515	-0.01559329	-0.03824515	0.02748914	-0.8668141	0.623017	0	0
32.96201	-0.006499908	-0.01323001	-0.1992363	0.1431423	-4.874999	3.502113	0	0
32.97855	-0.01576185	-0.006584283	-0.5599545	0.4017842	-10.91414	7.825647	0	0
32.99512	-0.02076017	-0.003002716	-0.3016993	0.2161838	7.800443	-5.605947	0	0
33.01169	-0.03067459	0.004092438	-0.598435	0.4282643	-8.955502	6.400601	0	0
33.02826	-0.03698313	0.008601462	-0.3807844	0.2721652	6.56871	-4.711082	0	0
33.04482	-0.04197533	0.01216688	-0.3013299	0.2152092	2.397941	-1.718935	0	0
33.06158	-0.04557369	0.01473545	-0.2146762	0.1532396	2.599949	-1.85933	0	0
33.07795	-0.04578377	0.0148479	-0.01283459	0.006869677	6.092292	-4.417961	0	0
33.09461	-0.04581003	0.01475419	-0.001576681	-0.005626362	0.3409027	-0.3783946	0	0
33.11109	-0.04554743	0.01441683	0.01593169	-0.02046713	0.5283427	-0.4478438	0	0
33.12766	-0.04525855	0.01413566	0.01743669	-0.01697106	0.0455364	0.1057795	0	0
33.14423	-0.04389284	0.01312329	0.0824342	-0.06110711	1.961629	-1.332029	0	0
33.16079	-0.04252698	0.01214813	0.08244386	-0.05886083	0.0002916421	0.06779295	0	0
33.17736	-0.04129231	0.01126649	0.07452478	-0.05321546	-0.2389983	0.1703776	0	0
33.19418	-0.04134485	0.01130401	-0.003123228	0.002230371	-2.325484	1.66055	0	0
33.21049	-0.04134485	0.01130401	0	0	0.09425922	-0.06731274	0	0
33.22706	-0.04134485	0.01130401	0	0	0	0	0	0
33.24372	-0.04134485	0.01130401	0	0	0	0	0	0
33.33039	-0.04131858	0.01128525	0.000303126	-0.0002164694	0.002933717	-0.002095036	0	0
33.36594	-0.04131858	0.01128525	0	0	-0.002480263	0.001771214	0	0
33.3825	-0.04131858	0.01128525	0	0	0	0	0	0
33.39907	-0.04129231	0.01126649	0.001585705	-0.00113239	0.04785668	-0.03417559	0	0
33.41564	-0.04129231	0.01126649	0	0	-0.04785668	0.03417559	0	0
33.43221	-0.04126604	0.01124773	0.001585705	-0.00113239	0.04785668	-0.03417559	0	0
33.44877	-0.04126604	0.01124773	0	0	-0.04785668	0.03417559	0	0
33.46534	-0.04121349	0.01121021	0.003171636	-0.00226478	0.09572016	-0.06835118	0	0
33.48191	-0.04116095	0.01117269	0.003171411	-0.002264836	-6.78793E-06	-1.693469E-06	0	0
33.49847	-0.04100332	0.01106012	0.009514458	-0.00679462	0.1914335	-0.1367092	0	0
33.51504	-0.0407406	0.0108725	0.01585773	-0.01132491	0.1914403	-0.1367244	0	0
33.53161	-0.039243	0.009840396	0.09039533	-0.06229785	2.249549	-1.538366	0	0
33.54818	-0.03453889	0.006479209	0.2839407	-0.2028816	5.84121	-4.242827	0	0
33.56496	-0.027309	0.001308869	0.4307438	-0.3080395	4.401644	-3.152978	0	0
33.58131	-0.02223318	-0.002286869	0.3104516	-0.2199256	-3.630426	2.659282	0	0
33.59798	-0.01657743	-0.006339103	0.339195	-0.2430266	0.8703813	-0.6995242	0	0
33.61444	-0.01523566	-0.007301065	0.08153352	-0.05845445	-7.777133	5.571038	0	0
33.63101	-0.01165737	-0.009867684	0.2159864	-0.1549214	4.07139	-2.921132	0	0
33.64757	-0.01155212	-0.009943203	0.006354291	-0.004559391	-6.327439	4.538457	0	0
33.66453	-0.01155212	-0.009943203	0	0	-0.1895686	0.136021	0	0
33.68071	-0.01155212	-0.009943203	0	0	0	0	0	0
33.69728	-0.01157843	-0.009924323	-0.001588179	0.001139585	-0.04849523	0.03479737	0	0
33.71384	-0.01165737	-0.009867684	-0.004765747	0.003419543	-0.09591023	0.06881718	0	0
33.73041	-0.01189418	-0.009697772	-0.01429383	0.01025593	-0.2875914	0.2063463	0	0
33.74709	-0.01218361	-0.009490113	-0.01735029	0.01244832	-0.0919264	0.06593887	0	0
33.7636	-0.01244673	-0.009301344	-0.01593689	0.0114336	0.04258288	-0.03057167	0	0
33.78011	-0.01247304	-0.009282468	-0.001593315	0.001143045	0.4343401	-0.3116099	0	0
33.79668	-0.01252566	-0.009244715	-0.003177089	0.002279302	-0.04788109	0.03435162	0	0
33.81324	-0.01252566	-0.009244715	0	0	0.09589579	-0.06879739	0	0
33.83015	-0.01252566	-0.009244715	0	0	0	0	0	0
33.84666	-0.01252566	-0.009244715	0	0	0	0	0	0
33.86294	-0.01252566	-0.009244715	0	0	0	0	0	0
33.87951	-0.01249935	-0.009263591	0.001588179	-0.00113936	0.04834881	-0.03468546	0	0
33.9127	-0.01247304	-0.009282468	0.0007926294	-0.0005686608	-0.01598686	0.01146841	0	0
33.94578	-0.01247304	-0.009282468	0	0	-0.0119608	0.008581108	0	0
33.96234	-0.01247304	-0.009282468	0	0	0	0	0	0
33.97891	-0.01247304	-0.009282468	0	0	0	0	0	0
33.99548	-0.01249935	-0.009263591	-0.001588179	0.001139417	-0.04793134	0.03438766	0	0
34.01204	-0.01249935	-0.009263591	0	0	0.04793134	-0.03438766	0	0
34.04781	-0.01249935	-0.009263591	0	0	0	0	0	0
34.06432	-0.01252566	-0.009244715	-0.001592947	0.001142781	-0.03046928	0.02185868	0	0
34.08089	-0.01252566	-0.009244715	0	0	0.0481473	-0.0345409	0	0
34.09746	-0.01255197	-0.009225839	-0.001588179	0.00113936	-0.04793134	0.03438596	0	0
34.11403	-0.01255197	-0.009225839	0	0	0.04793134	-0.03438596	0	0
34.13059	-0.01255197	-0.009225839	0	0	0	0	0	0
34.14738	-0.0126046	-0.009188088	-0.00313373	0.002248124	-0.09393807	0.06739075	0	0
34.16373	-0.0126046	-0.009188088	0	0	0.09457614	-0.0678485	0	0
34.1804	-0.0126046	-0.009188088	0	0	0	0	0	0
34.19691	-0.0126046	-0.009188088	0	0	0	0	0	0
34.21343	-0.0126046	-0.009188088	0	0	0	0	0	0
34.23	-0.0126046	-0.009188088	0	0	0	0	0	0
34.24656	-0.0126046	-0.009188088	0	0	0	0	0	0
34.26313	-0.0126046	-0.009188088	0	0	0	0	0	0
34.27969	-0.0126046	-0.009188088	0	0	0	0	0	0
34.3791	-0.01273615	-0.00909371	-0.001323482	0.0009494389	-0.01141222	0.008186893	0	0
34.39566	-0.01273615	-0.00909371	0	0	0.0114126	-0.008187162	0	0
34.41223	-0.01273615	-0.00909371	0	0	0	0	0	0
34.42879	-0.01273615	-0.00909371	0	0	0	0	0	0
34.44559	-0.01273615	-0.00909371	0	0	0	0	0	0
34.46193	-0.01273615	-0.00909371	0	0	0	0	0	0
34.47861	-0.01273615	-0.00909371	0	0	0	0	0	0
34.49506	-0.01273615	-0.00909371	0	0	0	0	0	0
34.51163	-0.01273615	-0.00909371	0	0	0	0	0	0
34.5282	-0.01273615	-0.00909371	0	0	0	0	0	0
34.54477	-0.01273615	-0.00909371	0	0	0	0	0	0
34.56133	-0.01273615	-0.00909371	0	0	0	0	0	0
34.5947	-0.01273615	-0.00909371	0	0	0	0	0	0
34.61121	-0.01270984	-0.009112585	0.001593315	-0.001142989	0.03194478	-0.02291607	0	0
34.62772	-0.01270984	-0.009112585	0	0	-0.04824743	0.03461102	0	0
34.64423	-0.01270984	-0.009112585	0	0	0	0	0	0
34.66075	-0.01270984	-0.009112585	0	0	0	0	0	0
34.6773	-0.01270984	-0.009112585	0	0	0	0	0	0
34.69387	-0.01270984	-0.009112585	0	0	0	0	0	0
34.71043	-0.01270984	-0.009112585	0	0	0	0	0	0
34.727	-0.01270984	-0.009112585	0	0	0	0	0	0
34.74381	-0.01270984	-0.009112585	0	0	0	0	0	0
34.7767	-0.01270984	-0.009112585	0	0	0	0	0	0
34.79334	-0.01270984	-0.009112585	0	0	0	0	0	0
34.80985	-0.01270984	-0.009112585	0	0	0	0	0	0
34.8264	-0.01270984	-0.009112585	0	0	0	0	0	0
34.84338	-0.01270984	-0.009112585	0	0	0	0	0	0
34.85954	-0.01270984	-0.009112585	0	0	0	0	0	0
34.8761	-0.01270984	-0.009112585	0	0	0	0	0	0
