Time	Pos X	Pos Y	Vel X	Vel Y	Acc X	Acc YForce X	Force Y
0.01655173	-0.05258306	-0.01037747	0.0008646554	0.0001706431	-1.422193E-05	-2.806755E-06	0	0
0.04683664	-0.05258306	-0.01037747	0	0	1.422514E-05	2.807387E-06	0	0
0.06381629	-0.05258306	-0.01037747	0	0	0	0	0	0
0.1036586	-0.05258306	-0.01037747	0	0	0	0	0	0
0.1203584	-0.05258306	-0.01037747	0	0	0	0	0	0
0.1367909	-0.05260931	-0.01039636	-0.001597117	-0.001149097	-0.04820425	-0.03468209	0	0
0.1533581	-0.05260931	-0.01039636	0	0	0.04839801	0.0348215	0	0
0.169924	-0.05260931	-0.01039636	0	0	0	0	0	0
0.1864903	-0.05260931	-0.01039636	0	0	0	0	0	0
0.2039196	-0.05260931	-0.01039636	0	0	0	0	0	0
0.2199361	-0.05260931	-0.01039636	0	0	0	0	0	0
0.2361977	-0.05260931	-0.01039636	0	0	0	0	0	0
0.252764	-0.05260931	-0.01039636	0	0	0	0	0	0
0.2693248	-0.05260931	-0.01039636	0	0	0	0	0	0
0.3025092	-0.05258306	-0.01041524	0.0007908735	-0.0005690192	0.01589848	-0.01143867	0	0
0.319025	-0.05258306	-0.01041524	0	0	-0.01591287	0.01144903	0	0
0.3355933	-0.05255682	-0.01043412	0.001583804	-0.00113968	0.04787203	-0.03444794	0	0
0.3521581	-0.05255682	-0.01043412	0	0	-0.04780132	0.03439707	0	0
0.3687256	-0.05255682	-0.01043412	0	0	0	0	0	0
0.3852924	-0.05258306	-0.01041524	-0.001583955	0.001139789	-0.04780416	0.03439911	0	0
0.4018571	-0.05258306	-0.01041524	0	0	0.04780816	-0.03440199	0	0
0.4185711	-0.05258306	-0.01041524	0	0	0	0	0	0
0.4350778	-0.05260931	-0.01039636	-0.001589937	0.001143931	-0.04785983	0.03443428	0	0
0.4515573	-0.05260931	-0.01039636	0	0	0.04820004	-0.03467906	0	0
0.4681244	-0.05260931	-0.01039636	0	0	0	0	0	0
0.4846904	-0.05260931	-0.01039636	0	0	0	0	0	0
0.5012571	-0.05260931	-0.01039636	0	0	0	0	0	0
0.5178239	-0.05260931	-0.01039636	0	0	0	0	0	0
0.5343906	-0.05260931	-0.01039636	0	0	0	0	0	0
0.5509574	-0.05260931	-0.01039636	0	0	0	0	0	0
0.5675241	-0.05260931	-0.01039636	0	0	0	0	0	0
0.5840917	-0.05260931	-0.01039636	0	0	0	0	0	0
0.6006572	-0.05260931	-0.01039636	0	0	0	0	0	0
0.6172243	-0.05260931	-0.01039636	0	0	0	0	0	0
0.6337907	-0.05260931	-0.01039636	0	0	0	0	0	0
0.650357	-0.05260931	-0.01039636	0	0	0	0	0	0
0.6669269	-0.05260931	-0.01039636	0	0	0	0	0	0
0.6834909	-0.05260931	-0.01039636	0	0	0	0	0	0
0.7000572	-0.05260931	-0.01039636	0	0	0	0	0	0
0.7167779	-0.05260931	-0.01039636	0	0	0	0	0	0
0.7331903	-0.05260931	-0.01039636	0	0	0	0	0	0
0.7497598	-0.05260931	-0.01039636	0	0	0	0	0	0
0.7663242	-0.05260931	-0.01039636	0	0	0	0	0	0
0.7854896	-0.05260931	-0.01039636	0	0	0	0	0	0
0.8020618	-0.05260931	-0.01039636	0	0	0	0	0	0
0.8188551	-0.05260931	-0.01039636	0	0	0	0	0	0
0.8351909	-0.05260931	-0.01039636	0	0	0	0	0	0
0.8518741	-0.05260931	-0.01039636	0	0	0	0	0	0
0.8683236	-0.05260931	-0.01039636	0	0	0	0	0	0
0.8848919	-0.05260931	-0.01039636	0	0	0	0	0	0
0.9014586	-0.05260931	-0.01039636	0	0	0	0	0	0
0.918025	-0.05260931	-0.01039636	0	0	0	0	0	0
0.9345901	-0.05258306	-0.01041524	0.001584331	-0.001139897	0.0478195	-0.03440527	0	0
0.9511572	-0.05260931	-0.01039636	-0.001584143	0.001139762	-0.09563109	0.06880484	0	0
0.967724	-0.05260931	-0.01039636	0	0	0.04781038	-0.03439871	0	0
0.9842903	-0.05260931	-0.01039636	0	0	0	0	0	0
1.000859	-0.05260931	-0.01039636	0	0	0	0	0	0
1.067124	-0.05258306	-0.01041524	0.0003960514	-0.0002849518	0.004781255	-0.003440026	0	0
1.083691	-0.05258306	-0.01041524	0	0	-0.004781369	0.003440108	0	0
1.100259	-0.05258306	-0.01041524	0	0	0	0	0	0
1.116824	-0.05258306	-0.01041524	0	0	0	0	0	0
1.133391	-0.05258306	-0.01041524	0	0	0	0	0	0
1.149957	-0.05258306	-0.01041524	0	0	0	0	0	0
1.166524	-0.05258306	-0.01041524	0	0	0	0	0	0
1.183106	-0.05258306	-0.01041524	0	0	0	0	0	0
1.199657	-0.05258306	-0.01041524	0	0	0	0	0	0
1.249357	-0.05253058	-0.01045301	0.001056036	-0.0007598711	0.01593979	-0.01146949	0	0
1.265925	-0.05255682	-0.01047189	-0.001584063	-0.001139705	-0.03983938	-0.005731732	0	0
1.282491	-0.05253058	-0.01049077	0.001584325	-0.00113995	0.09562593	-7.389018E-06	0	0
1.299057	-0.05253058	-0.01049077	0	0	-0.04781916	0.03440672	0	0
1.315625	-0.05253058	-0.01049077	0	0	0	0	0	0
1.332191	-0.05253058	-0.01049077	0	0	0	0	0	0
1.348758	-0.05253058	-0.01049077	0	0	0	0	0	0
1.365324	-0.05250433	-0.01050965	0.001584177	-0.001139843	0.04781245	-0.03440189	0	0
1.38189	-0.05250433	-0.01050965	0	0	-0.04781314	0.03440239	0	0
1.398457	-0.05250433	-0.01050965	0	0	0	0	0	0
1.415024	-0.05250433	-0.01050965	0	0	0	0	0	0
1.431591	-0.05250433	-0.01050965	0	0	0	0	0	0
1.448158	-0.05250433	-0.01050965	0	0	0	0	0	0
1.464805	-0.05250433	-0.01050965	0	0	0	0	0	0
1.481322	-0.05247809	-0.01052854	0.001588765	-0.001143306	0.04790663	-0.03447455	0	0
1.497857	-0.05247809	-0.01052854	0	0	-0.04806853	0.03459105	0	0
1.514424	-0.05247809	-0.01052854	0	0	0	0	0	0
1.531353	-0.05247809	-0.01052854	0	0	0	0	0	0
1.547558	-0.05245185	-0.01054742	0.00161957	-0.001165309	0.04887907	-0.03516934	0	0
1.564375	-0.05245185	-0.01054742	0	0	-0.04904564	0.03528919	0	0
1.599612	-0.05245185	-0.01054742	0	0	0	0	0	0
1.616414	-0.05245185	-0.01054742	0	0	0	0	0	0
1.632744	-0.05245185	-0.01054742	0	0	0	0	0	0
1.649436	-0.05245185	-0.01054742	0	0	0	0	0	0
1.665947	-0.05245185	-0.01054742	0	0	0	0	0	0
1.682459	-0.05245185	-0.01054742	0	0	0	0	0	0
1.699011	-0.05245185	-0.01054742	0	0	0	0	0	0
1.715577	-0.05245185	-0.01054742	0	0	0	0	0	0
1.732144	-0.05245185	-0.01054742	0	0	0	0	0	0
1.748712	-0.05245185	-0.01054742	0	0	0	0	0	0
1.765278	-0.0524256	-0.01056631	0.001584257	-0.0011399	0.04781383	-0.03440288	0	0
1.782033	-0.0524256	-0.01056631	0	0	-0.04754544	0.03420977	0	0
1.798552	-0.0524256	-0.01056631	0	0	0	0	0	0
1.814977	-0.05245185	-0.01054742	-0.001597813	0.001149654	-0.04850145	0.03489764	0	0
1.831568	-0.05245185	-0.01054742	0	0	0.04839428	-0.03482053	0	0
1.84858	-0.05245185	-0.01054742	0	0	0	0	0	0
1.864678	-0.05245185	-0.01054742	0	0	0	0	0	0
1.881244	-0.05245185	-0.01054742	0	0	0	0	0	0
1.89781	-0.0524256	-0.01056631	0.001584211	-0.001139867	0.047814	-0.034403	0	0
1.914377	-0.0524256	-0.01056631	0	0	-0.04781296	0.03440226	0	0
1.931137	-0.0524256	-0.01056631	0	0	0	0	0	0
1.947512	-0.0524256	-0.01056631	0	0	0	0	0	0
1.964158	-0.0524256	-0.01056631	0	0	0	0	0	0
1.980669	-0.05245185	-0.01054742	-0.001589518	0.001143686	-0.04793899	0.03449294	0	0
1.997211	-0.05245185	-0.01054742	0	0	0.04809062	-0.03460204	0	0
2.013777	-0.05245185	-0.01054742	0	0	0	0	0	0
2.030344	-0.05245185	-0.01054742	0	0	0	0	0	0
2.046911	-0.05245185	-0.01054742	0	0	0	0	0	0
2.096751	-0.05245185	-0.01054742	0	0	0	0	0	0
2.113266	-0.05245185	-0.01054742	0	0	0	0	0	0
2.129744	-0.05245185	-0.01054742	0	0	0	0	0	0
2.146312	-0.05245185	-0.01054742	0	0	0	0	0	0
2.163302	-0.05245185	-0.01054742	0	0	0	0	0	0
2.179444	-0.05245185	-0.01054742	0	0	0	0	0	0
2.19601	-0.05245185	-0.01054742	0	0	0	0	0	0
2.212578	-0.05245185	-0.01054742	0	0	0	0	0	0
2.229355	-0.05245185	-0.01054742	0	0	0	0	0	0
2.245874	-0.05245185	-0.01054742	0	0	0	0	0	0
2.262279	-0.05245185	-0.01054742	0	0	0	0	0	0
2.278844	-0.05245185	-0.01054742	0	0	0	0	0	0
2.295411	-0.05245185	-0.01054742	0	0	0	0	0	0
2.33193	-0.05245185	-0.01054742	0	0	0	0	0	0
2.348497	-0.05245185	-0.01054742	0	0	0	0	0	0
2.365065	-0.05245185	-0.01054742	0	0	0	0	0	0
2.38163	-0.05245185	-0.01054742	0	0	0	0	0	0
2.398197	-0.05245185	-0.01054742	0	0	0	0	0	0
2.414763	-0.05245185	-0.01054742	0	0	0	0	0	0
2.431331	-0.05245185	-0.01054742	0	0	0	0	0	0
2.448002	-0.05245185	-0.01054742	0	0	0	0	0	0
2.464514	-0.05245185	-0.01054742	0	0	0	0	0	0
2.481031	-0.05245185	-0.01054742	0	0	0	0	0	0
2.497598	-0.05245185	-0.01054742	0	0	0	0	0	0
2.514164	-0.05245185	-0.01054742	0	0	0	0	0	0
2.530731	-0.05245185	-0.01054742	0	0	0	0	0	0
2.547298	-0.05245185	-0.01054742	0	0	0	0	0	0
2.563865	-0.05245185	-0.01054742	0	0	0	0	0	0
2.580594	-0.05245185	-0.01054742	0	0	0	0	0	0
2.596998	-0.05245185	-0.01054742	0	0	0	0	0	0
2.613616	-0.05245185	-0.01054742	0	0	0	0	0	0
2.630131	-0.05245185	-0.01054742	0	0	0	0	0	0
2.647147	-0.05245185	-0.01054742	0	0	0	0	0	0
2.663652	-0.05245185	-0.01054742	0	0	0	0	0	0
2.679831	-0.05245185	-0.01054742	0	0	0	0	0	0
2.696676	-0.05245185	-0.01054742	0	0	0	0	0	0
2.712964	-0.0524256	-0.01056631	0.001611237	-0.001159313	0.04862864	-0.03498915	0	0
2.72953	-0.0524256	-0.01056631	0	0	-0.04904116	0.03528597	0	0
2.746213	-0.0524256	-0.01056631	0	0	0	0	0	0
2.762664	-0.0524256	-0.01056631	0	0	0	0	0	0
2.779238	-0.0524256	-0.01056631	0	0	0	0	0	0
2.795798	-0.05245185	-0.01054742	-0.001584816	0.001140302	-0.04783121	0.03441539	0	0
2.812364	-0.05245185	-0.01054742	0	0	0.04784188	-0.03442306	0	0
2.82893	-0.05245185	-0.01054742	0	0	0	0	0	0
2.845497	-0.0524256	-0.01056631	0.001584177	-0.001139843	0.04781193	-0.03440152	0	0
2.862292	-0.0524256	-0.01056631	0	0	-0.04748494	0.03416624	0	0
2.878632	-0.05245185	-0.01054742	-0.001606136	0.001155643	-0.04847223	0.03487661	0	0
2.895316	-0.05245185	-0.01054742	0	0	0.04863495	-0.0349937	0	0
2.994597	-0.05239936	-0.01047189	0.0005286568	0.0007608095	0.004558757	0.006560675	0	0
3.011164	-0.05232063	-0.01041524	0.004752531	0.003419416	0.03646054	0.02294913	0	0
3.02791	-0.05229438	-0.01039636	0.001567038	0.001127616	-0.09562507	-0.06879738	0	0
3.044298	-0.05221565	-0.01033971	0.004804387	0.00345667	0.0977062	0.07029302	0	0
3.060935	-0.05218941	-0.01032083	0.00157748	0.001134968	-0.09771097	-0.07030128	0	0
3.077432	-0.05211068	-0.01022642	0.004772292	0.005722731	0.09641962	0.138459	0	0
3.093998	-0.05203194	-0.01013201	0.004752736	0.005698842	-0.0005914668	-0.0007225033	0	0
3.110564	-0.05176949	-0.009829924	0.01584245	0.01823492	0.3347099	0.3783641	0	0
3.127132	-0.0514283	-0.009433481	0.02059461	0.02392938	0.1434245	0.1718641	0	0
3.1437	-0.04783191	-0.005792232	0.217069	0.2197767	5.929482	5.910558	0	0
3.160507	-0.04250071	0.001308869	0.3171906	0.4224946	2.999854	6.073851	0	0
3.180817	-0.04008378	0.02538332	0.1190009	1.18534	-5.339492	20.55206	0	0
3.197385	-0.03855982	0.04353748	0.09198224	1.09574	-0.7326472	-2.429628	0	0
3.214042	-0.03619471	0.06219717	0.1419881	1.120223	1.505065	0.7368969	0	0
3.230556	-0.03075346	0.08616488	0.3294968	1.451373	5.6528	9.98312	0	0
3.247086	-0.02396909	0.1029866	0.4104384	1.017672	2.449556	-13.12519	0	0
3.263653	-0.0142885	0.1180669	0.5843217	0.9102502	5.253782	-3.245694	0	0
3.280218	-0.006078872	0.1272315	0.4955984	0.5532504	-2.67785	-10.77498	0	0
3.296785	0.01218361	0.1456944	1.102357	1.114456	18.31347	16.93855	0	0
3.313352	0.02546818	0.1598007	0.8018581	0.8514582	-9.069209	-7.937391	0	0
3.329918	0.03979477	0.1794079	0.8648046	1.183559	1.899784	10.02312	0	0
3.346637	0.04630897	0.1943595	0.3896374	0.8943062	-14.27576	-8.690218	0	0
3.363152	0.04961714	0.2135285	0.2003126	1.160701	-5.696783	8.015828	0	0
3.379618	0.05029964	0.2261873	0.04144827	0.7687685	-4.816786	-11.88345	0	0
3.396186	0.05032589	0.2364778	0.001584581	0.621136	-1.206762	-4.469162	0	0
3.412752	0.04987964	0.2456819	-0.02693718	0.5555919	-0.8608133	-1.978181	0	0
3.429319	0.04814697	0.2479414	-0.1045874	0.1363854	-2.343589	-12.65223	0	0
3.445885	0.04754309	0.2483179	-0.03645219	0.02272825	2.056413	-3.430327	0	0
3.462452	0.04754309	0.2483179	0	0	1.100161	-0.6859598	0	0
3.479018	0.04754309	0.2483179	0	0	0	0	0	0
3.495586	0.04751684	0.2483	-0.001584783	-0.001082006	-0.04782989	-0.0326557	0	0
3.512253	0.04751684	0.2483	0	0	0.04768543	0.03255708	0	0
3.528764	0.04751684	0.2483	0	0	0	0	0	0
3.545285	0.04751684	0.2483	0	0	0	0	0	0
3.561852	0.04751684	0.2483	0	0	0	0	0	0
3.578418	0.04751684	0.2483	0	0	0	0	0	0
3.611557	0.04746433	0.2482641	-0.001584567	-0.001081858	-0.03187894	-0.02176525	0	0
3.628119	0.04746433	0.2482641	0	0	0.03188216	0.02176744	0	0
3.644685	0.04743807	0.2482462	-0.001585122	-0.001082983	-0.04784906	-0.03269131	0	0
3.661252	0.04743807	0.2482462	0	0	0.04784115	0.03268591	0	0
3.677819	0.04743807	0.2482462	0	0	0	0	0	0
3.694385	0.04741181	0.2482283	-0.001584897	-0.001082084	-0.04783436	-0.03265876	0	0
3.710952	0.0473593	0.2481924	-0.003169703	-0.002165004	-0.04783161	-0.03268402	0	0
3.727519	0.04733304	0.2481745	-0.001585031	-0.001082021	0.0478262	0.03268496	0	0
3.744086	0.04733304	0.2481745	0	0	0.04783701	0.03265594	0	0
3.777221	0.04730678	0.2481565	-0.0007923802	-0.0005409951	-0.01594257	-0.01088474	0	0
3.793786	0.04730678	0.2481207	0	-0.002165223	0.0159431	-0.03268031	0	0
3.810352	0.04728053	0.2480669	-0.001584966	-0.003246391	-0.04783987	-0.03263349	0	0
3.826918	0.04725427	0.2480131	-0.001585076	-0.003247057	-3.344994E-06	-2.009105E-05	0	0
3.843487	0.04722801	0.2479952	-0.001584669	-0.001082827	1.228959E-05	0.0653147	0	0
3.860051	0.04720176	0.2480131	-0.00158508	0.001083108	-1.238886E-05	0.06537087	0	0
3.876619	0.04720176	0.2480131	0	0	0.0478409	-0.03269038	0	0
3.893185	0.04720176	0.2480131	0	0	0	0	0	0
3.919711	0.04720176	0.2480131	0	0	0	0	0	0
3.936279	0.0471755	0.2479952	-0.001584962	-0.001082874	-0.03677926	-0.02512823	0	0
3.952846	0.04709673	0.2479414	-0.00475478	-0.003246157	-0.09566459	-0.06528756	0	0
3.969591	0.04709673	0.2479414	0	0	0.1427334	0.09744615	0	0
3.98598	0.04707047	0.2479234	-0.001602028	-0.001094689	-0.04834895	-0.03303754	0	0
4.002546	0.04701795	0.2478876	-0.003170065	-0.002164199	-0.04758091	-0.03245347	0	0
4.019112	0.04699169	0.2478696	-0.001585168	-0.001083014	0.04783608	0.03263279	0	0
4.035679	0.04696544	0.2478159	-0.001584806	-0.003246064	1.091667E-05	-0.06528379	0	0
4.052246	0.04693918	0.2477979	-0.001585076	-0.001082952	-8.161795E-06	0.0652838	0	0
4.068813	0.04686041	0.2477441	-0.00475478	-0.003247057	-0.09566459	-0.0653147	0	0
4.085381	0.04678163	0.2476903	-0.004754731	-0.00324687	1.475637E-06	5.635528E-06	0	0
4.102173	0.04670286	0.2476365	-0.004691138	-0.003203444	0.001906252	0.00130173	0	0
4.118513	0.04657156	0.2475469	-0.008035245	-0.005486328	-0.1009326	-0.06890252	0	0
4.135079	0.04638775	0.2474214	-0.01109531	-0.007577066	-0.09299263	-0.06353565	0	0
4.151648	0.04565247	0.2469193	-0.04437921	-0.03030385	-1.004496	-0.6858858	0	0
4.168215	0.04360392	0.2455205	-0.1236468	-0.08442851	-2.392199	-1.633415	0	0
4.184784	0.04347259	0.2454308	-0.007926494	-0.005412338	3.492246	2.384576	0	0
4.201741	0.04347259	0.2454308	0	0	0.2364287	0.1614373	0	0
4.218254	0.04347259	0.2454308	0	0	0	0	0	0
4.234486	0.04347259	0.2454308	0	0	0	0	0	0
4.25105	0.04347259	0.2454308	0	0	0	0	0	0
4.267613	0.04347259	0.2454308	0	0	0	0	0	0
4.300812	0.04347259	0.245395	0	-0.001080372	0	-0.02171047	0	0
4.317328	0.04320993	0.2449287	-0.01590379	-0.02823381	-0.3199021	-0.5461867	0	0
4.33388	0.04299979	0.2440318	-0.01269517	-0.05417999	0.09703042	-0.7846268	0	0
4.350446	0.03514342	0.2373394	-0.4742662	-0.4040056	-13.93726	-10.56308	0	0
4.367012	0.0241532	0.2207412	-0.6634094	-1.001924	-5.708845	-18.04677	0	0
4.383579	0.02020778	0.2008685	-0.238153	-1.199551	12.83482	-5.964651	0	0
4.466414	0.004789437	0.08412212	-0.1861327	-1.409382	0.5233325	-2.110933	0	0
4.482982	-0.005184164	0.0688718	-0.6019905	-0.920485	-4.183558	4.918336	0	0
4.499548	-0.01663005	0.06093866	-0.6909146	-0.4788726	-2.683774	13.32808	0	0
4.516113	-0.02846599	0.05252605	-0.7145015	-0.5078444	-0.7119164	-0.8744477	0	0
4.532678	-0.03622099	0.04697568	-0.4681601	-0.3350694	7.435561	5.215036	0	0
4.549486	-0.05504959	0.03367005	-1.120246	-0.791646	-19.53967	-13.68126	0	0
4.565812	-0.06459422	0.02687783	-0.5846127	-0.4160261	16.16567	11.3364	0	0
4.582378	-0.07512153	0.01936159	-0.635466	-0.4537072	-1.546034	-1.145577	0	0
4.598945	-0.07739771	0.01773284	-0.1373946	-0.09831443	15.03247	10.72624	0	0
4.615513	-0.08537094	0.01205435	-0.4812514	-0.3427445	-10.37762	-7.376913	0	0
4.632545	-0.08591953	0.01162293	-0.03220797	-0.02532911	13.36425	9.446793	0	0
4.648645	-0.09041075	0.008394929	-0.2789588	-0.2004976	-7.447384	-5.286898	0	0
4.665212	-0.09226362	0.007061552	-0.1118431	-0.08048511	5.115784	3.673849	0	0
4.69859	-0.09213316	0.007155469	0.003908817	0.002813766	2.317616	1.667832	0	0
4.714913	-0.09210707	0.007211817	0.001598421	0.003451987	-0.04648571	0.01284115	0	0
4.752129	-0.09210707	0.007211817	0	0	-0.02985511	-0.06447579	0	0
4.76864	-0.09208097	0.007193035	0.001580325	-0.001137607	0.02941442	-0.02117416	0	0
4.785178	-0.09205488	0.007174252	0.001577682	-0.001135761	-7.996884E-05	5.586054E-05	0	0
4.801745	-0.09205488	0.007174252	0	0	-0.04765638	0.03430745	0	0
4.818314	-0.09202878	0.007155469	0.001575226	-0.001133641	0.04753836	-0.03421188	0	0
4.834879	-0.09202878	0.007155469	0	0	-0.04754042	0.03421335	0	0
4.851446	-0.0919766	0.007155469	0.003150006	0	0.09507421	0	0	0
4.86805	-0.0919766	0.007155469	0	0	-0.0949635	0	0	0
4.884581	-0.0919766	0.007155469	0	0	0	0	0	0
4.901146	-0.0919766	0.007155469	0	0	0	0	0	0
4.917714	-0.09195051	0.007136686	0.001574822	-0.001133674	0.04753026	-0.03421582	0	0
4.93428	-0.09195051	0.007136686	0	0	-0.04752821	0.03421434	0	0
4.950845	-0.09192441	0.007155469	0.001575634	0.001133935	0.0475582	0.03422616	0	0
4.967412	-0.09189831	0.007174252	0.001574958	0.001133771	-2.041855E-05	-4.926313E-06	0	0
4.983982	-0.09184612	0.007211817	0.00314973	0.002267086	0.04752331	0.03420105	0	0
5.000545	-0.09179394	0.007249383	0.00315055	0.002267972	2.474222E-05	2.672385E-05	0	0
5.017113	-0.09176784	0.007268166	0.001575317	0.001133706	-0.04754543	-0.03423565	0	0
5.033684	-0.09168956	0.007324513	0.004724099	0.003400321	0.09501813	0.06839772	0	0
5.050245	-0.09166346	0.007343295	0.001575502	0.001134107	-0.09503169	-0.0683994	0	0
5.066852	-0.09155908	0.007418422	0.006285533	0.004523896	0.142006	0.1022011	0	0
5.083378	-0.09150689	0.007455985	0.003158	0.00227287	-0.09439185	-0.06793805	0	0
5.100388	-0.0914025	0.007493548	0.006137079	0.002208326	0.0888311	-0.001924598	0	0
5.116513	-0.09111543	0.007625014	0.01780262	0.008152826	0.3520617	0.1794028	0	0
5.13308	-0.09069785	0.007625014	0.02520679	0	0.2264863	-0.2493869	0	0
5.149911	-0.09038464	0.007625014	0.018608	0	-0.1975796	0	0	0
5.166211	-0.08860946	0.006610715	0.1089083	-0.062228	2.725504	-1.878207	0	0
5.182778	-0.08688596	0.005445775	0.104034	-0.07031792	-0.1483063	-0.2461452	0	0
5.199345	-0.0722163	-0.004849563	0.8854877	-0.6214458	23.585	-16.63355	0	0
5.215957	-0.06634983	-0.009037086	0.3531351	-0.2520701	-16.04473	11.13272	0	0
5.232481	-0.05455109	-0.01754194	0.7140646	-0.5147172	10.8924	-7.926361	0	0
5.249044	-0.04578377	-0.02386915	0.5293028	-0.3819877	-5.584078	4.011499	0	0
5.265611	-0.04008378	-0.02798679	0.344072	-0.2485555	-5.591	4.027511	0	0
5.282503	-0.02951774	-0.03566747	0.6254896	-0.4546818	8.410892	-6.160617	0	0
5.298744	-0.02173342	-0.04130723	0.4792984	-0.347253	-4.412188	3.242302	0	0
5.315311	-0.00994704	-0.04990163	0.7114478	-0.5187742	7.076038	-5.228058	0	0
5.33204	-0.005657834	-0.05305921	0.2563953	-0.1887499	-13.66703	9.911939	0	0
5.348445	0.0003157895	-0.05740887	0.364132	-0.2651409	3.251547	-2.305516	0	0
5.365062	0.003710509	-0.05988363	0.2042942	-0.1489309	-4.840355	3.519175	0	0
5.381577	0.005289424	-0.06103541	0.09560066	-0.06973845	-3.280566	2.390172	0	0
5.398145	0.005236794	-0.06099701	-0.003176751	0.002317846	-2.985749	2.178048	0	0
5.43323	0.005184164	-0.06095861	-0.001500041	0.001094472	0.03246109	-0.02368452	0	0
5.450128	0.005184164	-0.06095861	0	0	0.02885645	-0.02105447	0	0
5.466365	0.005157849	-0.06097781	-0.001620683	-0.001182475	-0.04891231	-0.03568715	0	0
5.482931	0.005131534	-0.06099701	-0.001588513	-0.001159023	0.0009807112	0.000714915	0	0
5.499658	0.005131534	-0.06099701	0	0	0.04771276	0.03481256	0	0
5.516169	0.005131534	-0.06099701	0	0	0	0	0	0
5.532631	0.005078904	-0.06099701	-0.003197087	0	-0.09696132	0	0	0
5.549198	0.005052588	-0.06097781	-0.001588404	0.001158923	0.04870507	0.03508797	0	0
5.565764	0.004999958	-0.06101621	-0.003176934	-0.00231798	-0.04794332	-0.1049362	0	0
5.582331	0.004947328	-0.06105461	-0.003176962	-0.00231798	-8.502969E-07	0	0	0
5.599235	0.004868383	-0.06103541	-0.004670255	0.001135843	-0.04461566	0.1031911	0	0
5.63203	0.004447339	-0.06080502	-0.01283829	0.007025093	-0.1643476	0.1184965	0	0
5.648767	0.002657888	-0.05953819	-0.106916	0.07569044	-1.899297	1.386258	0	0
5.665164	-0.0004473684	-0.057313	-0.1893851	0.1357113	-2.488995	1.811486	0	0
5.681785	-0.0008421051	-0.05702538	-0.02374911	0.01730418	5.016591	-3.586179	0	0
5.6983	-0.0009736839	-0.05692951	-0.007967338	0.005804899	0.4762743	-0.3470341	0	0
5.714865	-0.001052631	-0.056872	-0.004765953	0.003472322	0.09677814	-0.07051401	0	0
5.731434	-0.001236841	-0.05673779	-0.01111767	0.008099612	-0.191698	0.1396539	0	0
5.748001	-0.001947366	-0.05622021	-0.04288858	0.03124213	-0.9588065	0.6984124	0	0
5.764565	-0.004026294	-0.05470633	-0.125506	0.09139375	-2.493651	1.815562	0	0
5.781359	-0.0171036	-0.04520027	-0.7787015	0.5660481	-19.58132	14.22906	0	0
5.797869	-0.02662528	-0.0382955	-0.5767222	0.4182172	6.064765	-4.438868	0	0
5.814379	-0.03566908	-0.03174868	-0.5477605	0.3965253	0.8770831	-0.6569228	0	0
5.830831	-0.04835701	-0.02257994	-0.7712392	0.557324	-6.779922	4.878329	0	0
5.847407	-0.05045713	-0.02106391	-0.1266945	0.09145792	19.51531	-14.10534	0	0
5.880531	-0.05654492	-0.01667152	-0.183788	0.1326044	-1.148756	0.8278934	0	0
5.897098	-0.05625637	-0.01691749	0.01741763	-0.01484685	4.049158	-2.967381	0	0
5.913664	-0.05615144	-0.01699317	0.006333967	-0.00456861	-0.3345199	0.3102114	0	0
5.930461	-0.05602027	-0.01704994	0.00780873	-0.00337931	0.04420246	0.03564639	0	0
5.946797	-0.05599404	-0.01706886	0.001605874	-0.001158341	-0.187208	0.06703093	0	0
5.963365	-0.05599404	-0.01706886	0	0	-0.0488053	0.035204	0	0
5.97993	-0.05599404	-0.01706886	0	0	0	0	0	0
5.996507	-0.05599404	-0.01706886	0	0	0	0	0	0
6.013064	-0.05594157	-0.0171067	0.00316892	-0.00228579	0.09564096	-0.06898726	0	0
6.02963	-0.05578417	-0.01722024	0.009501288	-0.006853309	0.1911773	-0.1378956	0	0
6.046197	-0.05512829	-0.01769335	0.03958981	-0.02855769	0.9081126	-0.6550677	0	0
6.063056	-0.05486593	-0.01788261	0.01556202	-0.0112261	-0.7188394	0.518509	0	0
6.079566	-0.05476099	-0.01799617	0.006356682	-0.006878471	-0.2758646	0.1302894	0	0
6.095897	-0.05476099	-0.01799617	0	0	-0.1935609	0.2094494	0	0
6.112463	-0.05476099	-0.01799617	0	0	0	0	0	0
6.131751	-0.05476099	-0.01799617	0	0	0	0	0	0
6.148615	-0.05481346	-0.01803403	-0.003111481	-0.002244592	-0.08606692	-0.06208782	0	0
6.186666	-0.0548397	-0.01820438	-0.0006895427	-0.004477083	0.04410345	-0.04065362	0	0
6.203655	-0.05473475	-0.01835581	0.006177203	-0.008913333	0.1247595	-0.08060063	0	0
6.220173	-0.05444613	-0.01860191	0.01747252	-0.01489846	0.337095	-0.1786189	0	0
6.236369	-0.05420999	-0.01884802	0.01458093	-0.01519658	-0.08839177	-0.009113056	0	0
6.252934	-0.05229438	-0.0202304	0.1156396	-0.08345016	3.084761	-2.083403	0	0
6.2695	-0.04554743	-0.02510197	0.4072707	-0.2940653	8.802203	-6.356927	0	0
6.286213	-0.03989987	-0.02918325	0.3379209	-0.2442031	-2.083895	1.498312	0	0
6.302632	-0.03356634	-0.03376452	0.3857455	-0.2790231	1.443475	-1.05096	0	0
6.319239	-0.03012246	-0.03625762	0.2073772	-0.1501258	-5.400888	3.902935	0	0
6.335766	-0.02599414	-0.03924825	0.2497898	-0.1809522	1.280035	-0.9303584	0	0
6.352333	-0.02575746	-0.03941979	0.0142863	-0.01035363	-7.116112	5.154908	0	0
6.368901	-0.02586265	-0.03934355	-0.006349273	0.004601606	-0.6227739	0.4513435	0	0
6.385466	-0.02588895	-0.03932449	-0.00158762	0.001150544	0.1437152	-0.1041593	0	0
6.402032	-0.02599414	-0.03924825	-0.006349638	0.004601646	-0.1437304	0.1041635	0	0
6.418807	-0.02625712	-0.03905768	-0.01567752	0.01136097	-0.2797728	0.2027335	0	0
6.435328	-0.02638861	-0.03892429	-0.007958382	0.008073826	0.2318331	-0.0987246	0	0
6.451837	-0.02665158	-0.03873373	-0.01592941	0.01154285	-0.2413232	0.1050248	0	0
6.468348	-0.02673047	-0.03867657	-0.004778317	0.003462319	0.3377169	-0.2447232	0	0
6.484865	-0.02673047	-0.03867657	0	0	0.1446742	-0.1048294	0	0
6.501871	-0.02673047	-0.03867657	0	0	0	0	0	0
6.517999	-0.02673047	-0.03867657	0	0	0	0	0	0
6.534565	-0.02673047	-0.03867657	0	0	0	0	0	0
6.551132	-0.02673047	-0.03867657	0	0	0	0	0	0
6.567917	-0.02675677	-0.03865752	-0.001566717	0.001135032	-0.04697602	0.03403249	0	0
6.584265	-0.02680936	-0.03861941	-0.003217059	0.002331103	-0.04980958	0.03609906	0	0
6.600832	-0.02686196	-0.0385813	-0.00317465	0.002300374	0.001288434	-0.0009336041	0	0
6.617399	-0.02688826	-0.03856225	-0.001587279	0.001149929	0.04790764	-0.03472099	0	0
6.633965	-0.02696715	-0.03850508	-0.004762113	0.003450435	-0.09581941	0.06943141	0	0
6.650971	-0.02707233	-0.03842887	-0.006185224	0.004481497	-0.04238959	0.0307118	0	0
6.667101	-0.02712492	-0.03839077	-0.003260616	0.002362434	0.08826103	-0.06395069	0	0
6.683994	-0.02765085	-0.03800974	-0.03113268	0.02255563	-0.8440228	0.6114909	0	0
6.700234	-0.02867635	-0.03726687	-0.06314804	0.04574408	-0.9662811	0.6998693	0	0
6.716799	-0.03125298	-0.03540098	-0.1555437	0.1126381	-2.816516	2.039142	0	0
6.734031	-0.03191022	-0.03488711	-0.03814069	0.0298208	3.473744	-2.450414	0	0
6.749936	-0.03530112	-0.03243315	-0.2132048	0.1542942	-5.283143	3.756398	0	0
6.766556	-0.03711453	-0.03112138	-0.1091058	0.07892449	3.200579	-2.31728	0	0
6.783103	-0.04809446	-0.02318656	-0.6635523	0.4795261	-16.71639	12.07801	0	0
6.799632	-0.05481346	-0.01833688	-0.4065072	0.2934111	7.771395	-5.626924	0	0
6.8162	-0.06247124	-0.01281425	-0.4622111	0.3333374	-1.683085	1.206368	0	0
6.833103	-0.06724058	-0.00937685	-0.2821609	0.2033612	5.379349	-3.883293	0	0
6.849332	-0.07030499	-0.007169015	-0.1888213	0.1360413	2.817198	-2.031863	0	0
6.868888	-0.07051447	-0.007055833	-0.0107118	0.005787583	4.977182	-3.639877	0	0
6.885642	-0.07033117	-0.007187879	0.01094084	-0.007881626	0.5963318	-0.3764614	0	0
6.902147	-0.06991219	-0.007489718	0.02538414	-0.01828698	0.4342623	-0.3128547	0	0
6.91866	-0.06957175	-0.007772719	0.02061661	-0.01713815	-0.1443892	0.03479352	0	0
6.935156	-0.06949318	-0.007829322	0.004762838	-0.003431378	-0.4802925	0.4152488	0	0
6.951723	-0.06951937	-0.007810454	-0.001580804	0.001138887	-0.1918684	0.1382312	0	0
6.968288	-0.06951937	-0.007810454	0	0	0.04771151	-0.03437366	0	0
6.984857	-0.06951937	-0.007810454	0	0	0	0	0	0
7.001422	-0.06954556	-0.007791586	-0.001580986	0.001139018	-0.04771563	0.03437663	0	0
7.017989	-0.06954556	-0.007791586	0	0	0.04771838	-0.03437861	0	0
7.034555	-0.06954556	-0.007791586	0	0	0	0	0	0
7.051254	-0.06954556	-0.007791586	0	0	0	0	0	0
7.067688	-0.06951937	-0.007810454	0.001593555	-0.001148074	0.04809567	-0.03465043	0	0
7.08428	-0.06951937	-0.007810454	0	0	-0.04825191	0.034763	0	0
7.100822	-0.06954556	-0.007753851	-0.001583128	0.003421656	-0.04777959	0.1032673	0	0
7.117389	-0.06954556	-0.007753851	0	0	0.04781606	-0.1033461	0	0
7.133955	-0.06954556	-0.007753851	0	0	0	0	0	0
7.150534	-0.06957175	-0.007772719	-0.001579622	-0.001138008	-0.04765731	-0.03433377	0	0
7.167334	-0.06957175	-0.007772719	0	0	0.04732371	0.03409344	0	0
7.183881	-0.06957175	-0.007772719	0	0	0	0	0	0
7.216873	-0.06957175	-0.007772719	0	0	0	0	0	0
7.233363	-0.06957175	-0.007772719	0	0	0	0	0	0
7.249924	-0.06957175	-0.007772719	0	0	0	0	0	0
7.26649	-0.06957175	-0.007772719	0	0	0	0	0	0
7.283062	-0.06957175	-0.007772719	0	0	0	0	0	0
7.299624	-0.06957175	-0.007772719	0	0	0	0	0	0
7.316192	-0.06957175	-0.007772719	0	0	0	0	0	0
7.332952	-0.06957175	-0.007772719	0	0	0	0	0	0
7.349463	-0.06957175	-0.007772719	0	0	0	0	0	0
7.365978	-0.06957175	-0.007772719	0	0	0	0	0	0
7.38249	-0.06957175	-0.007772719	0	0	0	0	0	0
7.399023	-0.06957175	-0.007772719	0	0	0	0	0	0
7.41559	-0.06957175	-0.007772719	0	0	0	0	0	0
7.448722	-0.06957175	-0.007772719	0	0	0	0	0	0
7.465288	-0.06957175	-0.007772719	0	0	0	0	0	0
7.482057	-0.06957175	-0.007772719	0	0	0	0	0	0
7.498572	-0.06957175	-0.007772719	0	0	0	0	0	0
7.514988	-0.06957175	-0.007772719	0	0	0	0	0	0
7.53159	-0.06957175	-0.007772719	0	0	0	0	0	0
7.548121	-0.06957175	-0.007772719	0	0	0	0	0	0
7.565116	-0.06957175	-0.007772719	0	0	0	0	0	0
7.601144	-0.06957175	-0.007772719	0	0	0	0	0	0
7.617652	-0.06957175	-0.007772719	0	0	0	0	0	0
7.634008	-0.06957175	-0.007772719	0	0	0	0	0	0
7.650574	-0.06957175	-0.007772719	0	0	0	0	0	0
7.667141	-0.06957175	-0.007772719	0	0	0	0	0	0
7.6842	-0.06957175	-0.007772719	0	0	0	0	0	0
7.700274	-0.06957175	-0.007772719	0	0	0	0	0	0
7.717225	-0.06957175	-0.007772719	0	0	0	0	0	0
7.733735	-0.06957175	-0.007772719	0	0	0	0	0	0
7.75075	-0.06957175	-0.007772719	0	0	0	0	0	0
7.766542	-0.06957175	-0.007772719	0	0	0	0	0	0
7.783274	-0.06957175	-0.007772719	0	0	0	0	0	0
7.799676	-0.06957175	-0.007772719	0	0	0	0	0	0
7.816295	-0.06957175	-0.007772719	0	0	0	0	0	0
7.832808	-0.06957175	-0.007772719	0	0	0	0	0	0
7.849818	-0.06957175	-0.007772719	0	0	0	0	0	0
7.865941	-0.06957175	-0.007772719	0	0	0	0	0	0
7.882843	-0.06957175	-0.007772719	0	0	0	0	0	0
7.899076	-0.06957175	-0.007772719	0	0	0	0	0	0
7.915642	-0.06957175	-0.007772719	0	0	0	0	0	0
7.932374	-0.06957175	-0.007772719	0	0	0	0	0	0
7.948887	-0.06957175	-0.007772719	0	0	0	0	0	0
7.965341	-0.06957175	-0.007772719	0	0	0	0	0	0
7.98191	-0.06957175	-0.007772719	0	0	0	0	0	0
7.998476	-0.06957175	-0.007772719	0	0	0	0	0	0
8.015042	-0.06957175	-0.007772719	0	0	0	0	0	0
8.031976	-0.06957175	-0.007772719	0	0	0	0	0	0
8.131007	-0.06957175	-0.007772719	0	0	0	0	0	0
8.147575	-0.06957175	-0.007772719	0	0	0	0	0	0
8.164538	-0.06957175	-0.007772719	0	0	0	0	0	0
8.180707	-0.06957175	-0.007772719	0	0	0	0	0	0
8.197274	-0.06957175	-0.007772719	0	0	0	0	0	0
8.214074	-0.06957175	-0.007772719	0	0	0	0	0	0
8.230592	-0.06957175	-0.007772719	0	0	0	0	0	0
8.247098	-0.06957175	-0.007772719	0	0	0	0	0	0
8.263541	-0.06957175	-0.007772719	0	0	0	0	0	0
8.280107	-0.06957175	-0.007772719	0	0	0	0	0	0
8.296675	-0.06957175	-0.007772719	0	0	0	0	0	0
8.313241	-0.06957175	-0.007772719	0	0	0	0	0	0
8.329807	-0.06957175	-0.007772719	0	0	0	0	0	0
8.346666	-0.06954556	-0.007791586	0.001553396	-0.001119141	0.04647362	-0.03348183	0	0
8.363178	-0.06954556	-0.007791586	0	0	-0.04654932	0.03353637	0	0
8.379507	-0.06954556	-0.007791586	0	0	0	0	0	0
8.396205	-0.06954556	-0.007791586	0	0	0	0	0	0
8.412715	-0.06954556	-0.007791586	0	0	0	0	0	0
8.432076	-0.06954556	-0.007791586	0	0	0	0	0	0
8.448747	-0.06954556	-0.007791586	0	0	0	0	0	0
8.46521	-0.06954556	-0.007791586	0	0	0	0	0	0
8.481776	-0.06954556	-0.007791586	0	0	0	0	0	0
8.498343	-0.06954556	-0.007791586	0	0	0	0	0	0
8.51491	-0.06954556	-0.007791586	0	0	0	0	0	0
8.531477	-0.06954556	-0.007791586	0	0	0	0	0	0
8.548043	-0.06954556	-0.007791586	0	0	0	0	0	0
8.56461	-0.06954556	-0.007791586	0	0	0	0	0	0
8.581176	-0.06954556	-0.007791586	0	0	0	0	0	0
8.597742	-0.06954556	-0.007791586	0	0	0	0	0	0
8.61431	-0.06954556	-0.007791586	0	0	0	0	0	0
8.630877	-0.06954556	-0.007791586	0	0	0	0	0	0
8.647879	-0.06951937	-0.007810454	0.001540326	-0.001109725	0.04588622	-0.03305864	0	0
8.664009	-0.06951937	-0.007810454	0	0	-0.04648982	0.0334935	0	0
8.680575	-0.06951937	-0.007810454	0	0	0	0	0	0
8.697142	-0.06951937	-0.007810454	0	0	0	0	0	0
8.713926	-0.06951937	-0.007810454	0	0	0	0	0	0
8.730275	-0.06951937	-0.007810454	0	0	0	0	0	0
8.746949	-0.06951937	-0.007810454	0	0	0	0	0	0
8.763459	-0.06951937	-0.007810454	0	0	0	0	0	0
8.779973	-0.06949318	-0.007791586	0.001585871	0.001142538	0.04802201	0.03459736	0	0
8.79654	-0.0694408	-0.007753851	0.003161517	0.002277681	0.04762987	0.034314	0	0
8.813107	-0.06936223	-0.007697249	0.004742998	0.003416704	0.04773057	0.03437677	0	0
8.829673	-0.06933604	-0.007678383	0.00158085	0.001138864	-0.09543933	-0.0687493	0	0
8.846239	-0.06928366	-0.007640649	0.003161699	0.002277756	0.04771288	0.0343738	0	0
8.86303	-0.06855032	-0.007112423	0.04367404	0.03145821	1.214485	0.8747764	0	0
8.879539	-0.06435836	-0.004133316	0.2539186	0.1804529	6.313576	4.474262	0	0
8.89594	-0.05651869	0.0013465	0.478019	0.3341283	6.809616	4.66965	0	0
8.912563	-0.03989987	0.0104597	0.9997188	0.5482116	15.79767	6.482693	0	0
8.929073	-0.01955014	0.01507278	1.232569	0.2794117	7.027635	-8.112633	0	0
8.94564	0.01568292	0.01861283	2.126795	0.2136899	27.03525	-1.986976	0	0
8.962206	0.04489087	0.0208025	1.763097	0.1321762	-10.97705	-2.460229	0	0
8.978772	0.05476099	0.02155079	0.5957955	0.04516957	-35.23125	-2.626017	0	0
8.995338	0.08362034	0.023533	1.742054	0.1196536	34.59615	2.248061	0	0
9.011905	0.1269193	0.02592515	2.613683	0.1443986	26.30733	0.7468489	0	0
9.028645	0.148787	0.02814767	1.306323	0.1327682	-39.25285	-0.3491957	0	0
9.045158	0.1709467	0.03113378	1.341888	0.1808248	1.069514	1.445151	0	0
9.061605	0.1825755	0.03337175	0.7070444	0.1360714	-19.26052	-1.357772	0	0
9.078178	0.1884476	0.03450887	0.3543192	0.06861248	-10.68216	-2.042971	0	0
9.094738	0.1948133	0.03691243	0.3844079	0.1451463	0.9081317	2.309928	0	0
9.111304	0.1985593	0.03966809	0.2261213	0.1663413	-4.778338	0.6398337	0	0
9.127872	0.198711	0.03977976	0.009159327	0.006740209	-6.547925	-4.816772	0	0
9.164741	0.1987363	0.03979837	0.0006858849	0.0005048146	-0.158571	-0.1166884	0	0
9.181252	0.1987363	0.03979837	0	0	-0.0128491	-0.009456996	0	0
9.197556	0.1987363	0.03979837	0	0	0	0	0	0
9.214123	0.1987363	0.03979837	0	0	0	0	0	0
9.230792	0.1987363	0.03979837	0	0	0	0	0	0
9.247301	0.1987363	0.03979837	0	0	0	0	0	0
9.263822	0.1987363	0.03979837	0	0	0	0	0	0
9.280392	0.198711	0.03977976	-0.001526079	-0.001123201	-0.04611822	-0.03394323	0	0
9.296955	0.1986857	0.03979837	-0.001527594	0.001123654	-4.571444E-05	0.06781219	0	0
9.313521	0.1986857	0.03979837	0	0	0.04610951	-0.03391683	0	0
9.330089	0.1986857	0.03979837	0	0	0	0	0	0
9.346683	0.1986857	0.03979837	0	0	0	0	0	0
9.363379	0.1986857	0.03979837	0	0	0	0	0	0
9.379788	0.1986351	0.03979837	-0.003082137	0	-0.09309947	0	0	0
9.396405	0.1986351	0.03979837	0	0	0.09332529	0	0	0
9.412921	0.1986351	0.03979837	0	0	0	0	0	0
9.429487	0.1986098	0.03981698	-0.001526431	0.00112346	-0.04614081	0.03395985	0	0
9.446054	0.1986098	0.03981698	0	0	0.04607042	-0.03390805	0	0
9.462948	0.1986098	0.03981698	0	0	0	0	0	0
9.479468	0.1986098	0.03981698	0	0	0	0	0	0
9.495753	0.1986098	0.03981698	0	0	0	0	0	0
9.51232	0.1985845	0.03979837	-0.00152733	-0.00112346	-0.04649234	-0.03419843	0	0
9.528886	0.1985845	0.03979837	0	0	0.04609757	0.03390805	0	0
9.545506	0.1985845	0.03979837	0	0	0	0	0	0
9.562026	0.1985845	0.03979837	0	0	0	0	0	0
9.578588	0.1985593	0.03981698	-0.00152687	0.001123784	-0.04615409	0.03396963	0	0
9.595152	0.1985593	0.03981698	0	0	0.04609297	-0.03392464	0	0
9.612052	0.1985593	0.03981698	0	0	0	0	0	0
9.644853	0.198534	0.03979837	-0.0007709375	-0.0005674136	-0.01551159	-0.0114166	0	0
9.661419	0.1985087	0.03981698	-0.00152733	0.00112346	-0.01532184	0.03425113	0	0
9.678099	0.1985087	0.03981698	0	0	0.04594021	-0.0337923	0	0
9.694552	0.1984834	0.03983559	-0.00153687	0.001131144	-0.04638417	0.03413897	0	0
9.711122	0.1984581	0.03985421	-0.001526167	0.001123266	0.0003241225	-0.0002385566	0	0
9.727686	0.1984328	0.03987282	-0.001527506	0.001123589	-4.041253E-05	9.760565E-06	0	0
9.744254	0.1984075	0.03985421	-0.001526255	-0.001123331	3.776091E-05	-0.06781609	0	0
9.761179	0.1983822	0.03987282	-0.001494091	0.001099658	0.000960327	0.06637165	0	0
9.777386	0.1983822	0.03987282	0	0	0.04509564	-0.0331906	0	0
9.79914	0.1983569	0.03989143	-0.00116309	0.0008555357	-0.03063908	0.02253723	0	0
9.815709	0.1983063	0.03985421	-0.003053233	-0.002246532	-0.04932086	-0.08094448	0	0
9.832276	0.1981799	0.03976115	-0.007633512	-0.005616977	-0.1382251	-0.1017144	0	0
9.848845	0.1975474	0.0394075	-0.03817216	-0.02134363	-0.9216051	-0.474604	0	0
9.865737	0.1933944	0.03665165	-0.2458617	-0.1631503	-6.206986	-4.238019	0	0
9.881975	0.1887269	0.03363276	-0.2874378	-0.1859127	-1.254948	-0.6870677	0	0
9.918742	0.1541618	0.01304828	-0.9401141	-0.5598628	-12.31343	-7.054968	0	0
9.935309	0.1436098	0.006291335	-0.6369175	-0.4078503	5.684839	2.850187	0	0
9.951878	0.1279032	-0.005151188	-0.9479967	-0.6906323	-9.388119	-8.534135	0	0
9.968446	0.1010494	-0.02375537	-1.620807	-1.122886	-20.30427	-13.04469	0	0
10.05128	-0.001710525	-0.03275643	-1.240577	-0.108666	3.825225	10.20337	0	0
10.06788	-0.006920942	-0.03172966	-0.313851	0.06184746	9.320023	1.714842	0	0
10.08441	-0.008605051	-0.03104535	-0.1018817	0.04139841	6.397799	-0.6172071	0	0
10.10098	-0.008289284	-0.03127344	0.01906082	-0.01376823	3.65426	-1.666852	0	0
10.11754	-0.008289284	-0.03127344	0	0	-0.5752566	0.4155261	0	0
10.13442	-0.008289284	-0.03127344	0	0	0	0	0	0
10.15094	-0.008289284	-0.03123542	0	0.002301861	0	0.06893264	0	0
10.16724	-0.008289284	-0.03123542	0	0	0	-0.07013442	0	0
10.18396	-0.008289284	-0.03123542	0	0	0	0	0	0
10.20047	-0.008236656	-0.03123542	0.00318728	0	0.09592175	0	0	0
10.21698	-0.00826297	-0.03121641	-0.001593796	0.001151319	-0.1447849	0.0348653	0	0
10.23351	-0.008236656	-0.03123542	0.001591773	-0.001149858	0.09641261	-0.06964612	0	0
10.25008	-0.008236656	-0.03123542	0	0	-0.04809518	0.03474278	0	0
10.26664	-0.008236656	-0.03123542	0	0	0	0	0	0
10.28321	-0.008236656	-0.03123542	0	0	0	0	0	0
10.29978	-0.008236656	-0.03123542	0	0	0	0	0	0
10.31634	-0.008210341	-0.03121641	0.001588439	0.001147409	0.04794194	0.03463086	0	0
10.33291	-0.008210341	-0.03121641	0	0	-0.04794194	-0.03463086	0	0
10.34958	-0.008210341	-0.03121641	0	0	0	0	0	0
10.36609	-0.008210341	-0.03121641	0	0	0	0	0	0
10.38261	-0.008210341	-0.03121641	0	0	0	0	0	0
10.39918	-0.008210341	-0.03121641	0	0	0	0	0	0
10.41574	-0.008210341	-0.03121641	0	0	0	0	0	0
10.43231	-0.008210341	-0.03121641	0	0	0	0	0	0
10.44888	-0.008236656	-0.03119741	-0.001588439	0.001147297	-0.04794056	0.03462647	0	0
10.46545	-0.008236656	-0.03119741	0	0	0.04793505	-0.03462249	0	0
10.48201	-0.008236656	-0.03119741	0	0	0	0	0	0
10.49858	-0.008236656	-0.03119741	0	0	0	0	0	0
10.51514	-0.00826297	-0.03121641	-0.001588291	-0.001147231	-0.04793887	-0.03462648	0	0
10.53171	-0.00826297	-0.03121641	0	0	0.04793749	0.03462548	0	0
10.54827	-0.00826297	-0.03121641	0	0	0	0	0	0
10.56484	-0.00826297	-0.03121641	0	0	0	0	0	0
10.58174	-0.00826297	-0.03121641	0	0	0	0	0	0
10.59797	-0.008289284	-0.03119741	-0.001621102	0.001170888	-0.04892917	0.03534053	0	0
10.61454	-0.00826297	-0.0311784	0.001588439	0.001147409	0.09785552	-0.0007158569	0	0
10.63111	-0.00826297	-0.0311784	0	0	-0.04794194	-0.03463086	0	0
10.64778	-0.00826297	-0.0311784	0	0	0	0	0	0
10.66429	-0.00826297	-0.0311784	0	0	0	0	0	0
10.68081	-0.008236656	-0.03119741	0.00159352	-0.00115112	0.04825363	-0.03485724	0	0
10.69984	-0.00826297	-0.0311784	-0.00138277	0.0009988794	-0.08373894	0.06049096	0	0
10.7164	-0.00826297	-0.0311784	0	0	0.03884426	-0.02806014	0	0
10.73297	-0.00826297	-0.0311784	0	0	0	0	0	0
10.74986	-0.008236656	-0.03119741	0.001558066	-0.001125509	0.04657215	-0.03364259	0	0
10.76611	-0.008236656	-0.03119741	0	0	-0.04702254	0.03396793	0	0
10.78268	-0.008236656	-0.03119741	0	0	0	0	0	0
10.79939	-0.008236656	-0.03119741	0	0	0	0	0	0
10.8158	-0.008236656	-0.03119741	0	0	0	0	0	0
10.83241	-0.00826297	-0.03121641	-0.001584188	-0.001144266	-0.04797243	-0.03465071	0	0
10.84894	-0.00826297	-0.03121641	0	0	0.04781226	0.03453502	0	0
10.8655	-0.00826297	-0.03121641	0	0	0	0	0	0
10.89897	-0.00826297	-0.03121641	0	0	0	0	0	0
10.9152	-0.00826297	-0.03121641	0	0	0	0	0	0
10.93177	-0.00826297	-0.03121641	0	0	0	0	0	0
10.9485	-0.00826297	-0.03121641	0	0	0	0	0	0
10.9649	-0.00826297	-0.03121641	0	0	0	0	0	0
10.98147	-0.00826297	-0.03121641	0	0	0	0	0	0
10.99804	-0.00826297	-0.03121641	0	0	0	0	0	0
11.0146	-0.00826297	-0.03121641	0	0	0	0	0	0
11.03117	-0.00826297	-0.0311784	0	0.002294705	0	0.06926033	0	0
11.04774	-0.00826297	-0.0311784	0	0	0	-0.06925634	0	0
11.0643	-0.00826297	-0.0311784	0	0	0	0	0	0
11.08087	-0.008289284	-0.03119741	-0.001588347	-0.001147343	-0.0479378	-0.03462787	0	0
11.09744	-0.008289284	-0.03119741	0	0	0.0479378	0.03462787	0	0
11.11411	-0.008289284	-0.03119741	0	0	0	0	0	0
11.13057	-0.008289284	-0.03119741	0	0	0	0	0	0
11.14714	-0.008289284	-0.03119741	0	0	0	0	0	0
11.1637	-0.008289284	-0.03119741	0	0	0	0	0	0
11.18027	-0.008289284	-0.03119741	0	0	0	0	0	0
11.19684	-0.008289284	-0.03119741	0	0	0	0	0	0
11.21342	-0.008289284	-0.03119741	0	0	0	0	0	0
11.22997	-0.008289284	-0.03119741	0	0	0	0	0	0
11.24654	-0.008289284	-0.03119741	0	0	0	0	0	0
11.26322	-0.008289284	-0.03119741	0	0	0	0	0	0
11.27967	-0.00826297	-0.03121641	0.001599859	-0.001155545	0.04828802	-0.03487743	0	0
11.29624	-0.00826297	-0.03121641	0	0	-0.04845399	0.03499731	0	0
11.3128	-0.00826297	-0.03121641	0	0	0	0	0	0
11.32977	-0.00826297	-0.03121641	0	0	0	0	0	0
11.34594	-0.00826297	-0.03121641	0	0	0	0	0	0
11.3625	-0.00826297	-0.03121641	0	0	0	0	0	0
11.37907	-0.00826297	-0.03121641	0	0	0	0	0	0
11.39564	-0.00826297	-0.03121641	0	0	0	0	0	0
11.4122	-0.00826297	-0.03121641	0	0	0	0	0	0
11.42883	-0.00826297	-0.03121641	0	0	0	0	0	0
11.44795	-0.00826297	-0.03121641	0	0	0	0	0	0
11.46452	-0.00826297	-0.03121641	0	0	0	0	0	0
11.48108	-0.00826297	-0.03121641	0	0	0	0	0	0
11.49765	-0.00826297	-0.03121641	0	0	0	0	0	0
11.51439	-0.00826297	-0.03121641	0	0	0	0	0	0
11.53091	-0.00826297	-0.03121641	0	0	0	0	0	0
11.54743	-0.00826297	-0.03121641	0	0	0	0	0	0
11.56392	-0.00826297	-0.03121641	0	0	0	0	0	0
11.58048	-0.00826297	-0.03121641	0	0	0	0	0	0
11.59705	-0.00826297	-0.03121641	0	0	0	0	0	0
11.61362	-0.00826297	-0.03121641	0	0	0	0	0	0
11.66332	-0.00826297	-0.03121641	0	0	0	0	0	0
11.68001	-0.00826297	-0.03121641	0	0	0	0	0	0
11.69645	-0.00826297	-0.03121641	0	0	0	0	0	0
11.71302	-0.00826297	-0.03121641	0	0	0	0	0	0
11.74656	-0.00826297	-0.03121641	0	0	0	0	0	0
11.76272	-0.00826297	-0.03121641	0	0	0	0	0	0
11.77928	-0.00826297	-0.03121641	0	0	0	0	0	0
11.80231	-0.00826297	-0.03121641	0	0	0	0	0	0
11.81888	-0.00826297	-0.03121641	0	0	0	0	0	0
11.83545	-0.00826297	-0.03121641	0	0	0	0	0	0
11.85213	-0.00826297	-0.03121641	0	0	0	0	0	0
11.86864	-0.00826297	-0.03121641	0	0	0	0	0	0
11.88516	-0.00826297	-0.03121641	0	0	0	0	0	0
11.90171	-0.00826297	-0.03121641	0	0	0	0	0	0
11.91828	-0.00826297	-0.03121641	0	0	0	0	0	0
11.93519	-0.00826297	-0.03121641	0	0	0	0	0	0
11.9517	-0.00826297	-0.03121641	0	0	0	0	0	0
11.96821	-0.00826297	-0.03121641	0	0	0	0	0	0
11.98455	-0.00826297	-0.03121641	0	0	0	0	0	0
12.00124	-0.00826297	-0.03121641	0	0	0	0	0	0
12.03425	-0.00826297	-0.03121641	0	0	0	0	0	0
12.05081	-0.00826297	-0.03121641	0	0	0	0	0	0
12.06738	-0.00826297	-0.03121641	0	0	0	0	0	0
12.08395	-0.00826297	-0.03121641	0	0	0	0	0	0
12.10081	-0.00826297	-0.03121641	0	0	0	0	0	0
12.11708	-0.00826297	-0.03121641	0	0	0	0	0	0
12.13383	-0.00826297	-0.03121641	0	0	0	0	0	0
12.15021	-0.00826297	-0.03121641	0	0	0	0	0	0
12.16685	-0.008236656	-0.03123542	0.001581101	-0.001142149	0.04787758	-0.03458559	0	0
12.18335	-0.008236656	-0.03123542	0	0	-0.0477191	0.03447111	0	0
12.20338	-0.008236656	-0.03123542	0	0	0	0	0	0
12.21995	-0.008236656	-0.03123542	0	0	0	0	0	0
12.23652	-0.008236656	-0.03123542	0	0	0	0	0	0
12.25309	-0.008236656	-0.03123542	0	0	0	0	0	0
12.26965	-0.008236656	-0.03123542	0	0	0	0	0	0
12.28622	-0.008236656	-0.03123542	0	0	0	0	0	0
12.372	-0.008236656	-0.03123542	0	0	0	0	0	0
12.38855	-0.008210341	-0.03125443	0.001589995	-0.001148533	0.0155376	-0.01122358	0	0
12.40512	-0.008210341	-0.03125443	0	0	-0.04801102	0.03468076	0	0
12.42168	-0.008210341	-0.03125443	0	0	0	0	0	0
12.43825	-0.008210341	-0.03125443	0	0	0	0	0	0
12.45482	-0.008210341	-0.03125443	0	0	0	0	0	0
12.47157	-0.008210341	-0.03125443	0	0	0	0	0	0
12.48808	-0.008210341	-0.03125443	0	0	0	0	0	0
12.50459	-0.008210341	-0.03125443	0	0	0	0	0	0
12.5211	-0.008210341	-0.03125443	0	0	0	0	0	0
12.53765	-0.008210341	-0.03125443	0	0	0	0	0	0
12.58765	-0.008210341	-0.03125443	0	0	0	0	0	0
12.60392	-0.008210341	-0.03125443	0	0	0	0	0	0
12.62048	-0.008210341	-0.03125443	0	0	0	0	0	0
12.63719	-0.008210341	-0.03125443	0	0	0	0	0	0
12.6537	-0.008210341	-0.03125443	0	0	0	0	0	0
12.67018	-0.008210341	-0.03125443	0	0	0	0	0	0
12.68675	-0.008210341	-0.03125443	0	0	0	0	0	0
12.70331	-0.008184028	-0.03127344	0.001588383	-0.001147297	0.04794025	-0.03462747	0	0
12.71988	-0.008184028	-0.03127344	0	0	-0.04793886	0.03462647	0	0
12.73645	-0.008210341	-0.03129245	-0.001588291	-0.001147455	-0.04793473	-0.03463027	0	0
12.75327	-0.008184028	-0.03127344	0.001564516	0.001130279	0.09443435	0.06822374	0	0
12.76958	-0.008184028	-0.03127344	0	0	-0.04721854	-0.03411286	0	0
12.78615	-0.008184028	-0.03127344	0	0	0	0	0	0
12.80272	-0.008184028	-0.03127344	0	0	0	0	0	0
12.81928	-0.008210341	-0.03129245	-0.001588108	-0.001147323	-0.04792783	-0.03462528	0	0
12.83585	-0.008210341	-0.03129245	0	0	0.04793059	0.03462728	0	0
12.85242	-0.008210341	-0.03129245	0	0	0	0	0	0
12.86935	-0.008210341	-0.03129245	0	0	0	0	0	0
12.88555	-0.008210341	-0.03129245	0	0	0	0	0	0
12.90237	-0.008210341	-0.03129245	0	0	0	0	0	0
12.91868	-0.008210341	-0.03129245	0	0	0	0	0	0
12.93525	-0.008210341	-0.03129245	0	0	0	0	0	0
12.95182	-0.008210341	-0.03129245	0	0	0	0	0	0
12.97203	-0.008210341	-0.03129245	0	0	0	0	0	0
12.9886	-0.008210341	-0.03129245	0	0	0	0	0	0
13.00516	-0.008210341	-0.03129245	0	0	0	0	0	0
13.02196	-0.008210341	-0.03129245	0	0	0	0	0	0
13.03847	-0.008210341	-0.03129245	0	0	0	0	0	0
13.05498	-0.008210341	-0.03129245	0	0	0	0	0	0
13.0715	-0.008210341	-0.03129245	0	0	0	0	0	0
13.088	-0.008210341	-0.03129245	0	0	0	0	0	0
13.10456	-0.008210341	-0.03129245	0	0	0	0	0	0
13.12113	-0.008210341	-0.03129245	0	0	0	0	0	0
13.1377	-0.008210341	-0.03129245	0	0	0	0	0	0
13.15427	-0.008210341	-0.03129245	0	0	0	0	0	0
13.17083	-0.008210341	-0.03129245	0	0	0	0	0	0
13.1874	-0.008210341	-0.03129245	0	0	0	0	0	0
13.20396	-0.008210341	-0.03129245	0	0	0	0	0	0
13.22053	-0.008210341	-0.03129245	0	0	0	0	0	0
13.23711	-0.008210341	-0.03129245	0	0	0	0	0	0
13.25366	-0.008210341	-0.03129245	0	0	0	0	0	0
13.27023	-0.008210341	-0.03129245	0	0	0	0	0	0
13.2868	-0.008210341	-0.03129245	0	0	0	0	0	0
13.30336	-0.008210341	-0.03129245	0	0	0	0	0	0
13.32017	-0.008210341	-0.03129245	0	0	0	0	0	0
13.33668	-0.008210341	-0.03129245	0	0	0	0	0	0
13.35319	-0.008210341	-0.03129245	0	0	0	0	0	0
13.3862	-0.008210341	-0.03129245	0	0	0	0	0	0
13.40276	-0.008210341	-0.03129245	0	0	0	0	0	0
13.41933	-0.008210341	-0.03129245	0	0	0	0	0	0
13.4359	-0.008210341	-0.03129245	0	0	0	0	0	0
13.45246	-0.008210341	-0.03129245	0	0	0	0	0	0
13.5353	-0.008210341	-0.03129245	0	0	0	0	0	0
13.55186	-0.008210341	-0.03129245	0	0	0	0	0	0
13.56843	-0.008210341	-0.03129245	0	0	0	0	0	0
13.585	-0.008210341	-0.03129245	0	0	0	0	0	0
13.60156	-0.008210341	-0.03129245	0	0	0	0	0	0
13.61813	-0.008210341	-0.03129245	0	0	0	0	0	0
13.63489	-0.008210341	-0.03129245	0	0	0	0	0	0
13.65126	-0.008210341	-0.03129245	0	0	0	0	0	0
13.66791	-0.008210341	-0.03129245	0	0	0	0	0	0
13.68442	-0.008210341	-0.03129245	0	0	0	0	0	0
13.70096	-0.008210341	-0.03129245	0	0	0	0	0	0
13.73746	-0.008210341	-0.03129245	0	0	0	0	0	0
13.75398	-0.008210341	-0.03129245	0	0	0	0	0	0
13.77052	-0.008210341	-0.03129245	0	0	0	0	0	0
13.7875	-0.008210341	-0.03129245	0	0	0	0	0	0
13.80401	-0.008210341	-0.03129245	0	0	0	0	0	0
13.82022	-0.008210341	-0.03129245	0	0	0	0	0	0
13.83703	-0.008210341	-0.03129245	0	0	0	0	0	0
13.85354	-0.008210341	-0.03129245	0	0	0	0	0	0
13.86992	-0.008210341	-0.03129245	0	0	0	0	0	0
13.88657	-0.008210341	-0.03129245	0	0	0	0	0	0
13.90308	-0.008210341	-0.03129245	0	0	0	0	0	0
13.92009	-0.008184028	-0.03131145	0.001546539	-0.001117072	0.04613027	-0.03332011	0	0
13.93619	-0.008184028	-0.03131145	0	0	-0.04670958	0.03373856	0	0
13.95275	-0.008157713	-0.03133046	0.001588347	-0.001147455	0.04862925	-0.03513078	0	0
13.96932	-0.0081314	-0.03134947	0.001588474	-0.001147363	3.822823E-06	2.800358E-06	0	0
13.98589	-0.0081314	-0.03134947	0	0	-0.047943	0.03462946	0	0
14.00245	-0.008105085	-0.03136848	0.001588439	-0.001147521	0.04794056	-0.03463326	0	0
14.01916	-0.008105085	-0.03136848	0	0	-0.04773858	0.03448734	0	0
14.03567	-0.008078772	-0.03138749	0.001593796	-0.001151432	0.04798071	-0.03466349	0	0
14.05218	-0.008026144	-0.03142551	0.003186912	-0.002302107	0.0482414	-0.03484376	0	0
14.06872	-0.007999829	-0.03144452	0.001591462	-0.001149705	-0.04827582	0.03486986	0	0
14.08529	-0.007947201	-0.03148253	0.003176456	-0.002294554	0.04788068	-0.03458444	0	0
14.10222	-0.007947201	-0.03148253	0	0	-0.09482578	0.06849862	0	0
14.11873	-0.007947201	-0.03148253	0	0	0	0	0	0
14.13524	-0.007947201	-0.03148253	0	0	0	0	0	0
14.15175	-0.007947201	-0.03148253	0	0	0	0	0	0
14.16812	-0.007973515	-0.03146353	-0.001607783	0.001161268	-0.04890019	0.03531959	0	0
14.18478	-0.007947201	-0.03148253	0.001579528	-0.00114086	0.09650712	-0.06970508	0	0
14.20129	-0.007947201	-0.03148253	0	0	-0.04762227	0.03439658	0	0
14.21782	-0.007973515	-0.03146353	-0.001591738	0.001149679	-0.04817601	0.03479653	0	0
14.23439	-0.007973515	-0.03146353	0	0	0.04808718	-0.03473237	0	0
14.25095	-0.007973515	-0.03146353	0	0	0	0	0	0
14.30065	-0.007973515	-0.03146353	0	0	0	0	0	0
14.31722	-0.007947201	-0.03148253	0.001588439	-0.001147297	0.02397063	-0.01731349	0	0
14.33388	-0.007973515	-0.03146353	-0.001579257	0.001140664	-0.09532962	0.0688546	0	0
14.35039	-0.007973515	-0.03138749	0	0.004604971	0.04760452	0.1044267	0	0
14.36692	-0.007736688	-0.03121641	0.0143296	0.01035122	0.4337166	0.1739229	0	0
14.38349	-0.006631482	-0.03041819	0.06671803	0.0481863	1.583091	1.143313	0	0
14.40005	-0.003973663	-0.02853748	0.1604355	0.1135262	2.828643	1.972134	0	0
14.41694	0.000736842	-0.02517785	0.2789317	0.19894	3.542071	2.553176	0	0
14.43319	0.008657678	-0.01947286	0.4875608	0.3511662	6.296621	4.594328	0	0
14.44975	0.01252566	-0.01672828	0.2334854	0.1656726	-7.743342	-5.653206	0	0
14.48549	0.02559967	-0.007338795	0.3658099	0.2627172	2.529807	1.855319	0	0
14.50206	0.02559967	-0.007414256	0	-0.004554303	-6.993245	-5.109471	0	0
14.51863	0.02552077	-0.007508584	-0.004762175	-0.005693682	-0.1437145	-0.03438454	0	0
14.53519	0.02499479	-0.007923662	-0.03175366	-0.02505845	-0.8146749	-0.5844803	0	0
14.55176	0.0247581	-0.008055743	-0.0142878	-0.00797289	0.5271814	0.5157026	0	0
14.56833	0.024311	-0.008376534	-0.02698546	-0.01936189	-0.3832161	-0.3437206	0	0
14.58506	0.0242584	-0.008338792	-0.003143881	0.002255768	0.7159752	0.6491896	0	0
14.60157	0.0242058	-0.008301051	-0.003185164	0.002285413	-0.001241763	0.0008917226	0	0
14.61809	0.0241795	-0.008282181	-0.001592179	0.001142377	0.0482249	-0.03460348	0	0
14.63459	0.0241795	-0.008282181	0	0	0.0482158	-0.03459449	0	0
14.65116	0.0241795	-0.008282181	0	0	0	0	0	0
14.66773	0.0241532	-0.00826331	-0.001587413	0.001138958	-0.04791097	0.03437579	0	0
14.68463	0.0241006	-0.008301051	-0.003112304	-0.002233056	-0.04556103	-0.1007498	0	0
14.70086	0.02386389	-0.008433147	-0.01458314	-0.008138231	-0.3462105	-0.1782288	0	0
14.71742	0.02346937	-0.008716229	-0.02381576	-0.01708883	-0.2815091	-0.2729103	0	0
14.73399	0.02197015	-0.009792166	-0.09049337	-0.06494366	-2.01245	-1.444345	0	0
14.75056	0.02026039	-0.01105732	-0.1032015	-0.0763648	-0.383532	-0.3446908	0	0
14.76719	0.02023408	-0.01111398	-0.001582195	-0.00340783	3.061413	2.197924	0	0
14.7837	0.02031299	-0.01120842	0.004779256	-0.00571927	0.1919669	-0.06975135	0	0
14.80026	0.02028669	-0.01149174	-0.001588278	-0.01710739	-0.1925272	-0.3443284	0	0
14.81682	0.01889249	-0.01521504	-0.08416383	-0.224765	-2.492709	-6.268564	0	0
14.83339	0.01420957	-0.02377433	-0.2826779	-0.5166694	-5.991683	-8.810451	0	0
14.84996	0.009762848	-0.03682885	-0.2684201	-0.7880177	0.4303257	-8.189781	0	0
14.86652	0.006868313	-0.0530975	-0.1747245	-0.9820341	2.827901	-5.855762	0	0
14.88327	0.00449997	-0.07740296	-0.1414472	-1.451621	0.9990212	-14.09752	0	0
14.89978	0.003894717	-0.08376419	-0.03665549	-0.3852509	3.151102	32.06591	0	0
14.91629	0.0001578947	-0.1211557	-0.2262584	-2.263994	-5.740732	-56.88395	0	0
14.9328	-0.002552626	-0.1386358	-0.1641934	-1.058882	1.8794	36.49219	0	0
14.94981	-0.005026273	-0.149737	-0.1454009	-0.6525257	0.5606214	12.12255	0	0
14.96592	-0.01163105	-0.1697921	-0.4100423	-1.245072	-7.990343	-17.89081	0	0
14.98284	-0.01597233	-0.1787689	-0.2566617	-0.5307196	4.644812	21.63267	0	0
14.99906	-0.02807157	-0.1997555	-0.7459857	-1.293942	-14.76825	-23.03477	0	0
15.01562	-0.03908535	-0.2140858	-0.6647928	-0.8649767	2.476421	13.08366	0	0
15.03237	-0.04602012	-0.2196156	-0.4140785	-0.3301892	7.525636	16.0526	0	0
15.04888	-0.05578417	-0.2272587	-0.5913337	-0.4628868	-5.329478	-3.989777	0	0
15.0654	-0.06844555	-0.2372253	-0.7667582	-0.6035654	-5.311904	-4.259789	0	0
15.08191	-0.07705764	-0.2440425	-0.5215384	-0.4128411	7.425112	5.775019	0	0
15.09845	-0.08495294	-0.2503209	-0.477165	-0.3794443	1.342244	1.010214	0	0
15.11502	-0.09448101	-0.2579359	-0.5750828	-0.4596159	-2.956954	-2.421045	0	0
15.13159	-0.1010494	-0.2632108	-0.3964905	-0.3184132	5.389926	4.261504	0	0
15.14816	-0.1096895	-0.2702246	-0.5215504	-0.4233781	-3.77453	-3.168027	0	0
15.16472	-0.1155877	-0.2750063	-0.3560361	-0.2886384	4.995518	4.066685	0	0
15.18129	-0.1193511	-0.2780247	-0.2271444	-0.1821828	3.889959	3.212834	0	0
15.19785	-0.1245105	-0.2822757	-0.3114556	-0.2566188	-2.544591	-2.246546	0	0
15.26905	-0.1321464	-0.2885323	-0.1072606	-0.08788547	2.326846	1.922752	0	0
15.28554	-0.1321206	-0.2885111	0.001567741	0.001288529	1.241174	1.017019	0	0
15.3021	-0.1321206	-0.2885111	0	0	-0.04742508	-0.03897877	0	0
15.31867	-0.1321206	-0.2885111	0	0	0	0	0	0
15.33524	-0.1321206	-0.2885111	0	0	0	0	0	0
15.3518	-0.1321206	-0.2885111	0	0	0	0	0	0
15.36837	-0.1320947	-0.2885323	0.0015616	-0.001282743	0.04713191	-0.03871549	0	0
15.38512	-0.1320947	-0.2885323	0	0	-0.04687019	0.03850051	0	0
15.4015	-0.1320947	-0.2885323	0	0	0	0	0	0
15.41815	-0.1320947	-0.2885323	0	0	0	0	0	0
15.43464	-0.1320947	-0.2885323	0	0	0	0	0	0
15.4512	-0.1320947	-0.2885323	0	0	0	0	0	0
15.46777	-0.1320947	-0.2885323	0	0	0	0	0	0
15.48434	-0.1320947	-0.2885323	0	0	0	0	0	0
15.5012	-0.1320947	-0.2885323	0	0	0	0	0	0
15.51771	-0.1320947	-0.2885323	0	0	0	0	0	0
15.53404	-0.1321206	-0.2885111	-0.001584774	0.001301779	-0.04826338	0.03964492	0	0
15.5506	-0.1321206	-0.2885111	0	0	0.04818641	-0.03958169	0	0
15.56725	-0.1321206	-0.2885111	0	0	0	0	0	0
15.58376	-0.1321206	-0.2885111	0	0	0	0	0	0
15.6003	-0.1321206	-0.2885111	0	0	0	0	0	0
15.61687	-0.1321206	-0.2885111	0	0	0	0	0	0
15.63344	-0.1320947	-0.2884898	0.001561511	0.001282669	0.0471292	0.03871327	0	0
15.65	-0.1320947	-0.2884898	0	0	-0.04712784	-0.03871215	0	0
15.66682	-0.1320947	-0.2884898	0	0	0	0	0	0
15.68314	-0.1320947	-0.2884898	0	0	0	0	0	0
15.6997	-0.1320947	-0.2884898	0	0	0	0	0	0
15.71627	-0.1320947	-0.2884898	0	0	0	0	0	0
15.73284	-0.1320947	-0.2884898	0	0	0	0	0	0
15.7494	-0.1320947	-0.2884898	0	0	0	0	0	0
15.76597	-0.1320947	-0.2884898	0	0	0	0	0	0
15.7829	-0.1320947	-0.2884898	0	0	0	0	0	0
15.79941	-0.1320947	-0.2884898	0	0	0	0	0	0
15.81567	-0.1320947	-0.2884898	0	0	0	0	0	0
15.83244	-0.1320947	-0.2884898	0	0	0	0	0	0
15.8488	-0.1320947	-0.2884898	0	0	0	0	0	0
15.86546	-0.1320947	-0.2884898	0	0	0	0	0	0
15.88197	-0.1320947	-0.2884898	0	0	0	0	0	0
15.8985	-0.1320947	-0.2884898	0	0	0	0	0	0
15.93401	-0.1320947	-0.2884898	0	0	0	0	0	0
15.95052	-0.1320947	-0.2884898	0	0	0	0	0	0
15.96683	-0.1320689	-0.2884686	0.00158488	0.001302616	0.04828343	0.03968425	0	0
16.00006	-0.1320689	-0.2884686	0	0	-0.03199406	-0.02629598	0	0
16.01656	-0.1320689	-0.2884686	0	0	0	0	0	0
16.0331	-0.1320689	-0.2884686	0	0	0	0	0	0
16.04967	-0.1320689	-0.2884686	0	0	0	0	0	0
16.06623	-0.1320689	-0.2884686	0	0	0	0	0	0
16.08311	-0.1320689	-0.2884686	0	0	0	0	0	0
16.13265	-0.131293	-0.2862181	0.0156623	0.04542993	0.2358287	0.6840428	0	0
16.14916	-0.1295338	-0.2829534	0.1065413	0.1977193	1.375921	2.305683	0	0
16.16567	-0.122152	-0.2751961	0.4470601	0.4697987	10.3113	8.238877	0	0
16.1822	-0.1157954	-0.2656229	0.3845211	0.5791093	-1.892659	3.308143	0	0
16.19877	-0.1102095	-0.2524251	0.3371679	0.7966177	-1.430687	6.571605	0	0
16.21534	-0.1069327	-0.2267442	0.1977913	1.550103	-4.206394	22.74023	0	0
16.23223	-0.1054235	-0.2021948	0.08935542	1.453524	-3.241072	-2.886687	0	0
16.24847	-0.1038878	-0.1755315	0.09453336	1.641335	0.1562707	5.668155	0	0
16.26504	-0.1016745	-0.139902	0.1336104	2.150851	1.191002	15.52919	0	0
16.2816	-0.100346	-0.114762	0.08018561	1.517451	-1.612456	-19.11716	0	0
16.29817	-0.09862634	-0.08496463	0.1038016	1.798573	0.7127334	8.484274	0	0
16.31478	-0.09721886	-0.0671284	0.08474068	1.073877	-0.5745334	-21.8437	0	0
16.3313	-0.09604568	-0.05328899	0.07100149	0.8375664	-0.4146735	-7.132277	0	0
16.34787	-0.09346374	-0.04096397	0.1558282	0.7438537	2.563322	-2.831841	0	0
16.36444	-0.09033244	-0.03738115	0.1890274	0.2162846	1.001954	-15.92207	0	0
16.38101	-0.08978428	-0.0373621	0.0330871	0.001149704	-4.706559	-6.493157	0	0
16.39757	-0.08957544	-0.03755257	0.01260705	-0.01149791	-0.6181248	-0.3817278	0	0
16.41435	-0.08936659	-0.03770495	0.01244698	-0.009081798	-0.004800362	0.07245968	0	0
16.43073	-0.08934049	-0.03776209	0.001593794	-0.003488698	-0.3273049	0.1686739	0	0
16.44738	-0.08934049	-0.03776209	0	0	-0.04825077	0.1056174	0	0
16.46384	-0.08934049	-0.03776209	0	0	0	0	0	0
16.48041	-0.08934049	-0.03776209	0	0	0	0	0	0
16.49697	-0.08934049	-0.03776209	0	0	0	0	0	0
16.51354	-0.08934049	-0.03776209	0	0	0	0	0	0
16.5301	-0.08934049	-0.03780019	0	-0.002300427	0	-0.06943503	0	0
16.54667	-0.08947102	-0.03793354	-0.007878152	-0.008047676	-0.2377905	-0.1734723	0	0
16.56346	-0.08973207	-0.03804784	-0.01555132	-0.006809196	-0.2300407	0.03712947	0	0
16.57997	-0.08975817	-0.03802879	-0.001580457	0.001153648	0.4195405	0.2391216	0	0
16.59637	-0.08975817	-0.03802879	0	0	0.04801613	-0.03504918	0	0
16.61526	-0.08975817	-0.03802879	0	0	0	0	0	0
16.63183	-0.08975817	-0.03802879	0	0	0	0	0	0
16.64852	-0.08975817	-0.03806689	0	-0.002283297	0	-0.06866103	0	0
16.66503	-0.08983649	-0.03820024	-0.00474282	-0.00807624	-0.142859	-0.1744899	0	0
16.68153	-0.09014972	-0.03842887	-0.01898354	-0.01385588	-0.4313749	-0.1750748	0	0
16.6981	-0.09043685	-0.03867657	-0.01733078	-0.01495087	0.04998094	-0.03311376	0	0
16.71467	-0.09048904	-0.03875279	-0.003150724	-0.004600614	0.427955	0.3123714	0	0
16.73123	-0.09048904	-0.03886712	0	-0.006901941	0.09509451	-0.06945819	0	0
16.74809	-0.09048904	-0.03917202	0	-0.01808546	0	-0.3345918	0	0
16.76437	-0.08978428	-0.04033476	0.04330247	-0.07144139	1.306871	-1.610285	0	0
16.78093	-0.08834836	-0.04142166	0.08668232	-0.06561285	1.320916	0.1774789	0	0
16.79762	-0.08646806	-0.04283331	0.1126519	-0.08457448	0.7808853	-0.5701626	0	0
16.81407	-0.084352	-0.04437926	0.1286888	-0.09401711	0.4839945	-0.2849791	0	0
16.8472	-0.08098041	-0.04684299	0.1017548	-0.07435558	-0.5432683	0.39658	0	0
16.86377	-0.08092812	-0.0468812	0.003155757	-0.002306338	-1.98374	1.449578	0	0
16.88034	-0.08092812	-0.0468812	0	0	-0.0952245	0.06959339	0	0
16.8969	-0.08092812	-0.0468812	0	0	0	0	0	0
16.91347	-0.08092812	-0.0468812	0	0	0	0	0	0
16.93004	-0.08092812	-0.0468812	0	0	0	0	0	0
16.94673	-0.08092812	-0.0468812	0	0	0	0	0	0
16.97976	-0.08092812	-0.0468812	0	0	0	0	0	0
16.99631	-0.08092812	-0.0468812	0	0	0	0	0	0
17.01287	-0.08090198	-0.04690031	0.001578242	-0.001153434	0.04766162	-0.03483278	0	0
17.02944	-0.08090198	-0.04690031	0	0	-0.04763692	0.03481473	0	0
17.04601	-0.08087584	-0.04691942	0.00157806	-0.001153302	0.04762869	-0.03480872	0	0
17.06257	-0.08087584	-0.04691942	0	0	-0.04762595	0.03480671	0	0
17.07933	-0.08087584	-0.04691942	0	0	0	0	0	0
17.09571	-0.08087584	-0.04691942	0	0	0	0	0	0
17.11227	-0.08090198	-0.04690031	-0.00157806	0.001153302	-0.04789892	0.03500621	0	0
17.12886	-0.08090198	-0.04690031	0	0	0.04759034	-0.03478068	0	0
17.14588	-0.08087584	-0.04691942	0.001536835	-0.001123173	0.04573414	-0.03342411	0	0
17.16197	-0.08087584	-0.04691942	0	0	-0.04642186	0.03392672	0	0
17.17854	-0.08087584	-0.04691942	0	0	0	0	0	0
17.1951	-0.08087584	-0.04691942	0	0	0	0	0	0
17.21192	-0.08087584	-0.04695763	0	-0.00227259	0	-0.06807747	0	0
17.22824	-0.08087584	-0.04699584	0	-0.002341376	0	-0.002075842	0	0
17.2448	-0.08087584	-0.04707228	0	-0.004614494	0	-0.06912408	0	0
17.26137	-0.08090198	-0.04709138	-0.00157806	-0.001153302	-0.04763144	0.104471	0	0
17.27794	-0.08090198	-0.0471296	0	-0.002306828	0.04762595	-0.03481349	0	0
17.29498	-0.08092812	-0.04714871	-0.001534255	-0.001121287	-0.04565217	0.0352761	0	0
17.31107	-0.08090198	-0.04716782	0.001624633	-0.00118757	0.09534092	-0.002000552	0	0
17.32764	-0.08092812	-0.04718693	-0.00157806	-0.001153302	-0.09806306	0.001049271	0	0
17.3442	-0.08095427	-0.04720604	-0.001578242	-0.001153659	-5.484766E-06	-1.079385E-05	0	0
17.36102	-0.08095427	-0.04724425	0	-0.002272039	0.04727224	-0.03349822	0	0
17.37734	-0.0810327	-0.04730158	-0.004807798	-0.003514163	-0.1450996	-0.0374874	0	0
17.41306	-0.08150326	-0.0476838	-0.01317176	-0.01069891	-0.1607273	-0.1380668	0	0
17.42947	-0.08176467	-0.04787493	-0.01593103	-0.01164792	-0.05292706	-0.01820335	0	0
17.44609	-0.08291473	-0.04871603	-0.06921084	-0.05061759	-1.613281	-1.179979	0	0
17.46261	-0.08354194	-0.04917492	-0.03797227	-0.02778174	0.942782	0.6891875	0	0
17.47918	-0.08356807	-0.0491558	-0.001576979	0.001154068	1.099995	0.874543	0	0
17.49574	-0.08356807	-0.0491558	0	0	0.04759333	-0.03482985	0	0
17.51231	-0.08356807	-0.0491558	0	0	0	0	0	0
17.52888	-0.08356807	-0.0491558	0	0	0	0	0	0
17.57858	-0.08356807	-0.0491558	0	0	0	0	0	0
17.59514	-0.08356807	-0.0491558	0	0	0	0	0	0
17.61171	-0.08356807	-0.0491558	0	0	0	0	0	0
17.62828	-0.08356807	-0.0491558	0	0	0	0	0	0
17.64484	-0.08356807	-0.0491558	0	0	0	0	0	0
17.66141	-0.08356807	-0.0491558	0	0	0	0	0	0
17.67798	-0.08356807	-0.0491558	0	0	0	0	0	0
17.69454	-0.08356807	-0.0491558	0	0	0	0	0	0
17.71111	-0.08356807	-0.0491558	0	0	0	0	0	0
17.72779	-0.08356807	-0.0491558	0	0	0	0	0	0
17.74425	-0.08356807	-0.0491558	0	0	0	0	0	0
17.81051	-0.08356807	-0.0491558	0	0	0	0	0	0
17.82708	-0.08356807	-0.0491558	0	0	0	0	0	0
17.84365	-0.08356807	-0.0491558	0	0	0	0	0	0
17.86021	-0.08356807	-0.0491558	0	0	0	0	0	0
17.87678	-0.08356807	-0.0491558	0	0	0	0	0	0
17.89335	-0.08356807	-0.0491558	0	0	0	0	0	0
17.90992	-0.08354194	-0.04917492	0.001576435	-0.00115367	0.04756594	-0.03480981	0	0
17.92648	-0.08354194	-0.04917492	0	0	-0.04757963	0.03481983	0	0
17.94305	-0.08354194	-0.04917492	0	0	0	0	0	0
17.95961	-0.08354194	-0.04917492	0	0	0	0	0	0
17.97618	-0.08354194	-0.04917492	0	0	0	0	0	0
17.99275	-0.08354194	-0.04917492	0	0	0	0	0	0
18.01781	-0.08354194	-0.04917492	0	0	0	0	0	0
18.03438	-0.08354194	-0.04917492	0	0	0	0	0	0
18.05102	-0.08354194	-0.04917492	0	0	0	0	0	0
18.06751	-0.08354194	-0.04917492	0	0	0	0	0	0
18.08408	-0.08354194	-0.04917492	0	0	0	0	0	0
18.10065	-0.08356807	-0.0491558	-0.001576979	0.001154068	-0.04759059	0.03482784	0	0
18.11721	-0.08356807	-0.0491558	0	0	0.04759333	-0.03482985	0	0
18.13378	-0.08356807	-0.0491558	0	0	0	0	0	0
18.15034	-0.08356807	-0.0491558	0	0	0	0	0	0
18.1671	-0.08356807	-0.0491558	0	0	0	0	0	0
18.18348	-0.08356807	-0.0491558	0	0	0	0	0	0
18.20004	-0.08356807	-0.0491558	0	0	0	0	0	0
18.23516	-0.08356807	-0.0491558	0	0	0	0	0	0
18.25169	-0.08356807	-0.0491558	0	0	0	0	0	0
18.26825	-0.08356807	-0.0491558	0	0	0	0	0	0
18.28482	-0.08356807	-0.0491558	0	0	0	0	0	0
18.30139	-0.08356807	-0.0491558	0	0	0	0	0	0
18.31795	-0.08356807	-0.0491558	0	0	0	0	0	0
18.33452	-0.08356807	-0.0491558	0	0	0	0	0	0
18.35123	-0.08356807	-0.0491558	0	0	0	0	0	0
18.36774	-0.08354194	-0.04917492	0.00158281	-0.001158335	0.04764041	-0.0348643	0	0
18.38422	-0.08356807	-0.0491558	-0.001585925	0.001160615	-0.09606948	0.07030576	0	0
18.40079	-0.08356807	-0.0491558	0	0	0.04799592	-0.03512447	0	0
18.41735	-0.08356807	-0.0491558	0	0	0	0	0	0
18.43392	-0.08356807	-0.0491558	0	0	0	0	0	0
18.45049	-0.08356807	-0.0491558	0	0	0	0	0	0
18.46705	-0.08356807	-0.0491558	0	0	0	0	0	0
18.48362	-0.08356807	-0.0491558	0	0	0	0	0	0
18.50019	-0.08356807	-0.0491558	0	0	0	0	0	0
18.51685	-0.08356807	-0.0491558	0	0	0	0	0	0
18.53336	-0.08356807	-0.0491558	0	0	0	0	0	0
18.54989	-0.08356807	-0.0491558	0	0	0	0	0	0
18.56645	-0.08356807	-0.0491558	0	0	0	0	0	0
18.5834	-0.08356807	-0.0491558	0	0	0	0	0	0
18.59991	-0.08356807	-0.0491558	0	0	0	0	0	0
18.61642	-0.08356807	-0.0491558	0	0	0	0	0	0
18.63272	-0.08356807	-0.0491558	0	0	0	0	0	0
18.64929	-0.08356807	-0.0491558	0	0	0	0	0	0
18.66585	-0.08356807	-0.0491558	0	0	0	0	0	0
18.68242	-0.08356807	-0.0491558	0	0	0	0	0	0
18.69899	-0.08356807	-0.0491558	0	0	0	0	0	0
18.71555	-0.08356807	-0.0491558	0	0	0	0	0	0
18.73212	-0.08356807	-0.0491558	0	0	0	0	0	0
18.74869	-0.08356807	-0.0491558	0	0	0	0	0	0
18.76525	-0.08356807	-0.0491558	0	0	0	0	0	0
18.78183	-0.08356807	-0.0491558	0	0	0	0	0	0
18.79855	-0.08356807	-0.0491558	0	0	0	0	0	0
18.81736	-0.08356807	-0.0491558	0	0	0	0	0	0
18.83393	-0.08356807	-0.0491558	0	0	0	0	0	0
18.8505	-0.08356807	-0.0491558	0	0	0	0	0	0
18.86707	-0.08356807	-0.0491558	0	0	0	0	0	0
18.88363	-0.08356807	-0.0491558	0	0	0	0	0	0
18.9002	-0.08356807	-0.0491558	0	0	0	0	0	0
18.91677	-0.08356807	-0.0491558	0	0	0	0	0	0
18.93333	-0.08356807	-0.0491558	0	0	0	0	0	0
18.9499	-0.08356807	-0.0491558	0	0	0	0	0	0
18.96647	-0.08356807	-0.0491558	0	0	0	0	0	0
18.98318	-0.08356807	-0.0491558	0	0	0	0	0	0
18.99969	-0.08356807	-0.0491558	0	0	0	0	0	0
19.01616	-0.08356807	-0.0491558	0	0	0	0	0	0
19.03273	-0.08356807	-0.0491558	0	0	0	0	0	0
19.0493	-0.08356807	-0.0491558	0	0	0	0	0	0
19.06587	-0.08356807	-0.0491558	0	0	0	0	0	0
19.08243	-0.08356807	-0.0491558	0	0	0	0	0	0
19.099	-0.08356807	-0.0491558	0	0	0	0	0	0
19.11557	-0.08356807	-0.0491558	0	0	0	0	0	0
19.1322	-0.08356807	-0.0491558	0	0	0	0	0	0
19.1487	-0.08356807	-0.0491558	0	0	0	0	0	0
19.16527	-0.08356807	-0.0491558	0	0	0	0	0	0
19.18184	-0.08356807	-0.0491558	0	0	0	0	0	0
19.1984	-0.08356807	-0.0491558	0	0	0	0	0	0
19.21497	-0.08356807	-0.0491558	0	0	0	0	0	0
19.23154	-0.08356807	-0.0491558	0	0	0	0	0	0
19.2481	-0.08356807	-0.0491558	0	0	0	0	0	0
19.28123	-0.08356807	-0.0491558	0	0	0	0	0	0
19.2978	-0.08356807	-0.0491558	0	0	0	0	0	0
19.31437	-0.08356807	-0.0491558	0	0	0	0	0	0
19.33094	-0.08356807	-0.0491558	0	0	0	0	0	0
19.3475	-0.08356807	-0.0491558	0	0	0	0	0	0
19.36446	-0.08356807	-0.0491558	0	0	0	0	0	0
19.38064	-0.08356807	-0.0491558	0	0	0	0	0	0
19.3972	-0.08356807	-0.0491558	0	0	0	0	0	0
19.41399	-0.08356807	-0.0491558	0	0	0	0	0	0
19.43051	-0.08356807	-0.0491558	0	0	0	0	0	0
19.44691	-0.08356807	-0.0491558	0	0	0	0	0	0
19.46353	-0.08356807	-0.0491558	0	0	0	0	0	0
19.51317	-0.08354194	-0.04917492	0.0005263262	-0.0003851771	0.007942507	-0.005812502	0	0
19.52974	-0.08354194	-0.04917492	0	0	-0.007949143	0.005817358	0	0
19.54633	-0.08354194	-0.04917492	0	0	0	0	0	0
19.56571	-0.08354194	-0.04917492	0	0	0	0	0	0
19.58262	-0.08354194	-0.04917492	0	0	0	0	0	0
19.59884	-0.08354194	-0.04917492	0	0	0	0	0	0
19.61541	-0.08354194	-0.04917492	0	0	0	0	0	0
19.63198	-0.08354194	-0.04917492	0	0	0	0	0	0
19.64867	-0.08354194	-0.04917492	0	0	0	0	0	0
19.68168	-0.08356807	-0.0491558	-0.0007914506	0.000579201	-0.01592402	0.01165355	0	0
19.69824	-0.08356807	-0.0491558	0	0	0.01596384	-0.01168269	0	0
19.71481	-0.08356807	-0.0491558	0	0	0	0	0	0
19.73138	-0.08356807	-0.0491558	0	0	0	0	0	0
19.74795	-0.08356807	-0.0491558	0	0	0	0	0	0
19.76475	-0.08356807	-0.0491558	0	0	0	0	0	0
19.78108	-0.08356807	-0.0491558	0	0	0	0	0	0
19.79765	-0.08356807	-0.0491558	0	0	0	0	0	0
19.81421	-0.08356807	-0.0491558	0	0	0	0	0	0
19.83078	-0.08356807	-0.0491558	0	0	0	0	0	0
19.84735	-0.08356807	-0.0491558	0	0	0	0	0	0
19.86391	-0.08356807	-0.0491558	0	0	0	0	0	0
19.88083	-0.08354194	-0.04917492	0.001544618	-0.001130386	0.04613335	-0.0337614	0	0
19.89705	-0.08356807	-0.0491558	-0.001611104	0.001179042	-0.09523989	0.06969865	0	0
19.91385	-0.08356807	-0.0491558	0	0	0.0487861	-0.03570275	0	0
19.93018	-0.08356807	-0.0491558	0	0	0	0	0	0
19.94692	-0.08356807	-0.0491558	0	0	0	0	0	0
19.96339	-0.08356807	-0.0491558	0	0	0	0	0	0
19.97994	-0.08356807	-0.0491558	0	0	0	0	0	0
19.99645	-0.08354194	-0.04917492	0.001582444	-0.001158067	0.04786571	-0.03502919	0	0
20.01302	-0.08356807	-0.0491558	-0.001577342	0.001154334	-0.09552751	0.06990914	0	0
20.02958	-0.08356807	-0.0491558	0	0	0.04760703	-0.03483987	0	0
20.04645	-0.08356807	-0.0491558	0	0	0	0	0	0
20.06272	-0.08356807	-0.0491558	0	0	0	0	0	0
20.07928	-0.08356807	-0.0491558	0	0	0	0	0	0
20.09585	-0.08356807	-0.0491558	0	0	0	0	0	0
20.1125	-0.08356807	-0.0491558	0	0	0	0	0	0
20.12898	-0.08356807	-0.0491558	0	0	0	0	0	0
20.14555	-0.08356807	-0.0491558	0	0	0	0	0	0
20.16212	-0.08356807	-0.0491558	0	0	0	0	0	0
20.17868	-0.08356807	-0.0491558	0	0	0	0	0	0
20.19525	-0.08356807	-0.0491558	0	0	0	0	0	0
20.21207	-0.08356807	-0.0491558	0	0	0	0	0	0
20.22838	-0.08356807	-0.0491558	0	0	0	0	0	0
20.24509	-0.08356807	-0.0491558	0	0	0	0	0	0
20.28153	-0.08356807	-0.0491558	0	0	0	0	0	0
20.29813	-0.08356807	-0.0491558	0	0	0	0	0	0
20.31466	-0.08354194	-0.04917492	0.001580436	-0.001156598	0.0477004	-0.0349082	0	0
20.33123	-0.08354194	-0.04917492	0	0	-0.04774712	0.0349424	0	0
20.3478	-0.08354194	-0.04917492	0	0	0	0	0	0
20.36436	-0.08354194	-0.04917492	0	0	0	0	0	0
20.38093	-0.08354194	-0.04917492	0	0	0	0	0	0
20.3975	-0.08354194	-0.04917492	0	0	0	0	0	0
20.41421	-0.08354194	-0.04917492	0	0	0	0	0	0
20.43063	-0.08354194	-0.04917492	0	0	0	0	0	0
20.4472	-0.08354194	-0.04917492	0	0	0	0	0	0
20.46376	-0.08354194	-0.04917492	0	0	0	0	0	0
20.48033	-0.08354194	-0.04917492	0	0	0	0	0	0
20.4969	-0.08354194	-0.04917492	0	0	0	0	0	0
20.51346	-0.08356807	-0.0491558	-0.001577161	0.001154201	-0.04759881	0.03483386	0	0
20.53003	-0.08356807	-0.0491558	0	0	0.04759881	-0.03483386	0	0
20.5466	-0.08356807	-0.0491558	0	0	0	0	0	0
20.56317	-0.08356807	-0.0491558	0	0	0	0	0	0
20.5963	-0.08356807	-0.0491558	0	0	0	0	0	0
20.61287	-0.08356807	-0.0491558	0	0	0	0	0	0
20.62943	-0.08356807	-0.0491558	0	0	0	0	0	0
20.646	-0.08356807	-0.0491558	0	0	0	0	0	0
20.66256	-0.08356807	-0.0491558	0	0	0	0	0	0
20.67913	-0.08356807	-0.0491558	0	0	0	0	0	0
20.69591	-0.08356807	-0.0491558	0	0	0	0	0	0
20.71227	-0.08354194	-0.04917492	0.00159739	-0.001169005	0.04820378	-0.03527659	0	0
20.72883	-0.08354194	-0.04917492	0	0	-0.04852498	0.03551165	0	0
20.74545	-0.08354194	-0.04917492	0	0	0	0	0	0
20.76196	-0.08354194	-0.04917492	0	0	0	0	0	0
20.77853	-0.08354194	-0.04917492	0	0	0	0	0	0
20.7951	-0.08356807	-0.04919404	-0.001577342	-0.001154334	-0.04760703	-0.03483987	0	0
20.81167	-0.08356807	-0.04919404	0	0	0.04759881	0.03483386	0	0
20.82823	-0.08356807	-0.04919404	0	0	0	0	0	0
20.84502	-0.08359421	-0.04921316	-0.001556996	-0.00113912	-0.04668923	-0.03415847	0	0
20.86137	-0.08396005	-0.04974863	-0.02237833	-0.03275421	-0.6283892	-0.9541453	0	0
20.87793	-0.09030634	-0.05574105	-0.383063	-0.3617034	-10.95802	-9.993865	0	0
20.89455	-0.09792265	-0.06699371	-0.4582964	-0.6771069	-2.267026	-9.504125	0	0
20.91107	-0.1025079	-0.07802103	-0.2776271	-0.6676859	5.452612	0.2843261	0	0
20.96878	-0.1170935	-0.1733624	-0.2527453	-1.652114	0.3352226	-13.26285	0	0
21.00463	-0.1212704	-0.2096112	-0.1164976	-1.010999	1.456213	6.852219	0	0
21.02094	-0.123137	-0.2253864	-0.1144323	-0.9671157	0.03959095	0.8412306	0	0
21.03751	-0.1237331	-0.2442501	-0.03598383	-1.138747	2.386122	-5.220403	0	0
21.05408	-0.1241218	-0.2572671	-0.02346268	-0.7857058	0.3779106	10.65541	0	0
21.07064	-0.1236553	-0.2727509	0.02815504	-0.934602	1.557826	-4.493697	0	0
21.08721	-0.1229556	-0.2830805	0.04223886	-0.6234961	0.4250504	9.389194	0	0
21.10378	-0.1229556	-0.2922114	0	-0.5511419	-1.274771	2.183654	0	0
21.12034	-0.1259352	-0.3020086	-0.1798539	-0.5913611	-5.428001	-1.213817	0	0
21.13691	-0.127955	-0.3058651	-0.1219254	-0.2328098	1.748387	10.82172	0	0
21.15374	-0.1364365	-0.3137326	-0.5039988	-0.467505	-11.44143	-7.028096	0	0
21.17004	-0.1403346	-0.3169886	-0.2390585	-0.1996853	7.995913	8.082816	0	0
21.18661	-0.1445634	-0.3205318	-0.2552509	-0.2138679	-0.4925728	-0.4314336	0	0
21.20327	-0.1477831	-0.3232373	-0.19325	-0.1623855	1.865927	1.54937	0	0
21.21975	-0.1477831	-0.3231939	0	0.002630398	5.832297	4.98019	0	0
21.23631	-0.1477831	-0.3231939	0	0	0	-0.07961013	0	0
21.25288	-0.1477831	-0.3231939	0	0	0	0	0	0
21.26944	-0.1477316	-0.3231939	0.003107909	0	0.09380767	0	0	0
21.28634	-0.1476544	-0.3231723	0.004571622	0.001280478	0.04374187	0.03826602	0	0
21.30284	-0.1476029	-0.323129	0.003119763	0.002625838	-0.04346939	0.04028076	0	0
21.31914	-0.1475771	-0.3231073	0.001579686	0.001329204	-0.04694985	-0.03952842	0	0
21.33571	-0.1475771	-0.3231073	0	0	-0.04806236	-0.04044136	0	0
21.35228	-0.1475256	-0.323064	0.00310845	0.002613761	0.09381322	0.07888345	0	0
21.36884	-0.1474999	-0.3230423	0.001554225	0.00130778	-0.04690661	-0.03941458	0	0
21.43511	-0.1473969	-0.3229124	0.001554	0.00196077	-2.715172E-06	0.007882916	0	0
21.50149	-0.1473969	-0.3229124	0	0	-0.01171585	-0.01478255	0	0
21.51795	-0.1473969	-0.3229124	0	0	0	0	0	0
21.53451	-0.1473969	-0.3229124	0	0	0	0	0	0
21.55108	-0.1473711	-0.3229341	0.001554225	-0.00130778	0.04690661	-0.03946887	0	0
21.56765	-0.1473454	-0.3229124	0.001554225	0.00130778	0	0.07893775	0	0
21.58421	-0.1473454	-0.3229124	0	0	-0.04690931	-0.03947115	0	0
21.60106	-0.1473454	-0.3229124	0	0	0	0	0	0
21.61735	-0.1473454	-0.3229124	0	0	0	0	0	0
21.63408	-0.1473454	-0.3229124	0	0	0	0	0	0
21.65059	-0.1473454	-0.3229124	0	0	0	0	0	0
21.6671	-0.1473454	-0.3229124	0	0	0	0	0	0
21.68362	-0.1473454	-0.3229124	0	0	0	0	0	0
21.70018	-0.1473454	-0.3229124	0	0	0	0	0	0
21.71675	-0.1473454	-0.3229124	0	0	0	0	0	0
21.73332	-0.1473454	-0.3229124	0	0	0	0	0	0
21.74989	-0.1473454	-0.3229124	0	0	0	0	0	0
21.76645	-0.1473454	-0.3229124	0	0	0	0	0	0
21.78319	-0.1473454	-0.3229124	0	0	0	0	0	0
21.81883	-0.1473196	-0.3228907	0.0007223887	0.0006078433	0.01379091	0.01160416	0	0
21.8354	-0.1473196	-0.3228907	0	0	-0.01383575	-0.01164188	0	0
21.85196	-0.1473196	-0.3228907	0	0	0	0	0	0
21.86853	-0.1472939	-0.3228691	0.001554404	0.001306131	0.04691471	0.03942139	0	0
21.88526	-0.1472939	-0.3228691	0	0	-0.04668627	-0.03922943	0	0
21.90166	-0.1472939	-0.3228691	0	0	0	0	0	0
21.91828	-0.1472166	-0.3228041	0.004648227	0.003909388	0.1407537	0.1183808	0	0
21.9348	-0.1469076	-0.3224577	0.01871282	0.02097951	0.4244948	0.515207	0	0
21.95136	-0.1463668	-0.3217001	0.03264413	0.04572912	0.4211263	0.7481505	0	0
21.96793	-0.1438676	-0.3178306	0.1508552	0.2335637	3.567617	5.668859	0	0
21.9845	-0.1385023	-0.3059938	0.3238864	0.7145491	5.222392	14.517	0	0
22.00134	-0.1351965	-0.2904028	0.196236	0.9255177	-3.820606	6.314339	0	0
22.01785	-0.1310602	-0.2612415	0.2505063	1.766076	1.626924	25.1984	0	0
22.03436	-0.1276961	-0.2351165	0.2037848	1.582557	-1.414943	-5.557814	0	0
22.05076	-0.1251322	-0.2158865	0.1563381	1.172607	-1.441821	-12.45764	0	0
22.06739	-0.121063	-0.1849752	0.244777	1.859385	2.678032	20.79642	0	0
22.08389	-0.1151203	-0.1418618	0.3599838	2.611654	3.477149	22.70484	0	0
22.10046	-0.1094035	-0.09991831	0.3450668	2.531712	-0.4510022	-2.416967	0	0
22.11703	-0.1055276	-0.07173087	0.2339518	1.701397	-3.353456	-25.05897	0	0
22.1336	-0.1021693	-0.04764558	0.2027045	1.453791	-0.9430455	-7.47274	0	0
22.15016	-0.09729706	-0.0227695	0.2940904	1.501523	2.75803	1.440544	0	0
22.16673	-0.09294198	-0.01007537	0.2628732	0.7662193	-0.9421366	-22.19151	0	0
22.18347	-0.08641583	-0.002418723	0.3898799	0.4574164	3.813314	-9.271658	0	0
22.19998	-0.07642978	0.002512858	0.6047086	0.2986335	6.460485	-4.775034	0	0
22.2165	-0.0738392	0.002193091	0.1568916	-0.01936585	-13.55963	-9.628833	0	0
22.23301	-0.06993838	-0.001025094	0.2362153	-0.1948782	2.401875	-5.314411	0	0
22.24957	-0.06634983	-0.003643341	0.2167546	-0.158147	-0.5884789	1.110725	0	0
22.26653	-0.05935127	-0.008640739	0.4125552	-0.2945891	5.841351	-4.070501	0	0
22.2827	-0.05641376	-0.01079292	0.181701	-0.1331243	-6.967994	4.87358	0	0
22.29955	-0.05234687	-0.01368362	0.2413108	-0.1715212	1.805264	-1.162837	0	0
22.31606	-0.04998465	-0.01538525	0.1430288	-0.1030307	-2.945304	2.052515	0	0
22.3324	-0.05008965	-0.01534742	-0.006429664	0.002316114	-4.550216	3.20725	0	0
22.34896	-0.05008965	-0.01534742	0	0	0.1954314	-0.0703989	0	0
22.3656	-0.05008965	-0.01534742	0	0	0	0	0	0
22.3821	-0.05014215	-0.01538525	-0.003181758	-0.002292286	-0.09603118	-0.06918532	0	0
22.39866	-0.05019464	-0.01538525	-0.003168713	0	0.0003945159	0.069321	0	0
22.41523	-0.05019464	-0.01538525	0	0	0.09562643	0	0	0
22.43498	-0.0502209	-0.01536634	-0.001329695	0.0009578823	-0.0366185	0.02637915	0	0
22.45155	-0.05024714	-0.01538525	-0.001584174	-0.001141365	-0.007008104	-0.05781123	0	0
22.46817	-0.05027339	-0.01544198	-0.001578903	-0.003412871	0.0001587903	-0.06843206	0	0
22.48468	-0.05045713	-0.01557437	-0.01112787	-0.00801775	-0.2881719	-0.1389675	0	0
22.50169	-0.05087711	-0.01591483	-0.02468747	-0.02001302	-0.4044795	-0.357816	0	0
22.51781	-0.05148079	-0.01638774	-0.03745585	-0.02934241	-0.3854173	-0.2816103	0	0
22.53438	-0.05281925	-0.0173527	-0.08079888	-0.05825181	-1.326188	-0.8845552	0	0
22.55095	-0.05384265	-0.01809081	-0.06176525	-0.04454719	0.5744362	0.4136064	0	0
22.56751	-0.05384265	-0.01809081	0	0	1.864079	1.344437	0	0
22.60065	-0.05381641	-0.01810974	0.0007918408	-0.0005712542	0.01593248	-0.0114941	0	0
22.61728	-0.05379017	-0.01812867	0.001577731	-0.001138054	0.01579153	-0.01138917	0	0
22.63378	-0.05379017	-0.01812867	0	0	-0.04761875	0.03434851	0	0
22.65034	-0.05376393	-0.0181476	0.001583907	-0.001142508	0.0478989	-0.03455058	0	0
22.66691	-0.05376393	-0.0181476	0	0	-0.0478024	0.03448097	0	0
22.68348	-0.05379017	-0.01812867	-0.001583907	0.001142508	-0.0478024	0.03448097	0	0
22.70005	-0.05379017	-0.01812867	0	0	0.0478024	-0.03448097	0	0
22.71661	-0.05379017	-0.01812867	0	0	0	0	0	0
22.73318	-0.05379017	-0.01812867	0	0	0	0	0	0
22.74975	-0.05379017	-0.01812867	0	0	0	0	0	0
22.76638	-0.05379017	-0.01812867	0	0	0	0	0	0
22.7829	-0.05379017	-0.01812867	0	0	0	0	0	0
22.79944	-0.05379017	-0.01812867	0	0	0	0	0	0
22.81601	-0.05379017	-0.01812867	0	0	0	0	0	0
22.83258	-0.05379017	-0.01812867	0	0	0	0	0	0
22.84914	-0.05379017	-0.01812867	0	0	0	0	0	0
22.86571	-0.05379017	-0.01812867	0	0	0	0	0	0
22.88246	-0.05379017	-0.01812867	0	0	0	0	0	0
22.89898	-0.05379017	-0.01812867	0	0	0	0	0	0
22.91549	-0.05379017	-0.01812867	0	0	0	0	0	0
22.932	-0.05379017	-0.01812867	0	0	0	0	0	0
22.94854	-0.05379017	-0.01812867	0	0	0	0	0	0
22.96553	-0.05379017	-0.01812867	0	0	0	0	0	0
22.98168	-0.05379017	-0.01812867	0	0	0	0	0	0
22.99854	-0.05376393	-0.0181476	0.00155561	-0.001122097	0.04711383	-0.0339843	0	0
23.01481	-0.05376393	-0.0181476	0	0	-0.0469511	0.03386691	0	0
23.03138	-0.05376393	-0.0181476	0	0	0	0	0	0
23.04794	-0.05376393	-0.0181476	0	0	0	0	0	0
23.06451	-0.05376393	-0.0181476	0	0	0	0	0	0
23.08107	-0.05376393	-0.0181476	0	0	0	0	0	0
23.09764	-0.05376393	-0.0181476	0	0	0	0	0	0
23.11421	-0.05376393	-0.0181476	0	0	0	0	0	0
23.13395	-0.05376393	-0.0181476	0	0	0	0	0	0
23.15065	-0.05376393	-0.0181476	0	0	0	0	0	0
23.16716	-0.05376393	-0.0181476	0	0	0	0	0	0
23.18365	-0.05376393	-0.0181476	0	0	0	0	0	0
23.20022	-0.05376393	-0.0181476	0	0	0	0	0	0
23.29962	-0.05376393	-0.0181476	0	0	0	0	0	0
23.31627	-0.05376393	-0.0181476	0	0	0	0	0	0
23.33275	-0.05376393	-0.0181476	0	0	0	0	0	0
23.34932	-0.05376393	-0.0181476	0	0	0	0	0	0
23.36589	-0.05379017	-0.01816652	-0.001584089	-0.00114264	-0.04781065	-0.03448693	0	0
23.38245	-0.05379017	-0.01816652	0	0	0.04781065	0.03448693	0	0
23.39932	-0.05376393	-0.01818545	0.001555434	-0.00112197	0.04651733	-0.03355402	0	0
23.41584	-0.05376393	-0.01818545	0	0	-0.04659174	0.0336077	0	0
23.43235	-0.05376393	-0.01818545	0	0	0	0	0	0
23.44872	-0.05376393	-0.01818545	0	0	0	0	0	0
23.46537	-0.05379017	-0.01820438	-0.001575924	-0.00113675	-0.04772079	-0.03442211	0	0
23.48189	-0.05379017	-0.01820438	0	0	0.04752043	0.03427759	0	0
23.49842	-0.05379017	-0.01820438	0	0	0	0	0	0
23.51499	-0.05379017	-0.01820438	0	0	0	0	0	0
23.53192	-0.05379017	-0.01820438	0	0	0	0	0	0
23.54812	-0.05379017	-0.01820438	0	0	0	0	0	0
23.56469	-0.05379017	-0.01820438	0	0	0	0	0	0
23.58126	-0.05376393	-0.01822331	0.001583907	-0.001142621	0.04780515	-0.03448635	0	0
23.59797	-0.05376393	-0.01822331	0	0	-0.04759691	0.03433612	0	0
23.61439	-0.05376393	-0.01822331	0	0	0	0	0	0
23.63099	-0.05376393	-0.01822331	0	0	0	0	0	0
23.64752	-0.05376393	-0.01822331	0	0	0	0	0	0
23.66409	-0.05376393	-0.01822331	0	0	0	0	0	0
23.68065	-0.05376393	-0.01822331	0	0	0	0	0	0
23.69754	-0.05376393	-0.01822331	0	0	0	0	0	0
23.71379	-0.05376393	-0.01822331	0	0	0	0	0	0
23.73035	-0.05376393	-0.01822331	0	0	0	0	0	0
23.74692	-0.05376393	-0.01822331	0	0	0	0	0	0
23.76358	-0.05376393	-0.01822331	0	0	0	0	0	0
23.78005	-0.05376393	-0.01822331	0	0	0	0	0	0
23.79662	-0.05376393	-0.01822331	0	0	0	0	0	0
23.81318	-0.05376393	-0.01822331	0	0	0	0	0	0
23.82975	-0.05376393	-0.01822331	0	0	0	0	0	0
23.84632	-0.05376393	-0.01822331	0	0	0	0	0	0
23.87052	-0.05376393	-0.01822331	0	0	0	0	0	0
23.88709	-0.05376393	-0.01822331	0	0	0	0	0	0
23.99307	-0.05379017	-0.01824224	-0.0002475985	-0.0001785986	-0.002020372	-0.001457341	0	0
24.00975	-0.05379017	-0.01824224	0	0	0.002018456	0.001455959	0	0
24.0262	-0.05379017	-0.01824224	0	0	0	0	0	0
24.04278	-0.05379017	-0.01824224	0	0	0	0	0	0
24.05934	-0.05379017	-0.01824224	0	0	0	0	0	0
24.0759	-0.05379017	-0.01824224	0	0	0	0	0	0
24.09247	-0.05379017	-0.01824224	0	0	0	0	0	0
24.10904	-0.05379017	-0.01824224	0	0	0	0	0	0
24.12584	-0.05376393	-0.01826117	0.001561968	-0.001126683	0.04681421	-0.03376817	0	0
24.14217	-0.05376393	-0.01826117	0	0	-0.04714299	0.03400533	0	0
24.15874	-0.05376393	-0.01826117	0	0	0	0	0	0
24.1753	-0.05376393	-0.01826117	0	0	0	0	0	0
24.19187	-0.05376393	-0.01826117	0	0	0	0	0	0
24.20844	-0.05376393	-0.01826117	0	0	0	0	0	0
24.22501	-0.05376393	-0.01826117	0	0	0	0	0	0
24.24157	-0.05376393	-0.01826117	0	0	0	0	0	0
24.25814	-0.05376393	-0.01826117	0	0	0	0	0	0
24.2747	-0.05376393	-0.01826117	0	0	0	0	0	0
24.29145	-0.05376393	-0.01826117	0	0	0	0	0	0
24.30784	-0.05376393	-0.01826117	0	0	0	0	0	0
24.3244	-0.05376393	-0.01826117	0	0	0	0	0	0
24.34099	-0.05376393	-0.01826117	0	0	0	0	0	0
24.35754	-0.05376393	-0.01826117	0	0	0	0	0	0
24.3741	-0.05376393	-0.01826117	0	0	0	0	0	0
24.39067	-0.05376393	-0.01826117	0	0	0	0	0	0
24.40724	-0.05376393	-0.01826117	0	0	0	0	0	0
24.42381	-0.05376393	-0.01826117	0	0	0	0	0	0
24.44056	-0.05376393	-0.01826117	0	0	0	0	0	0
24.45708	-0.05376393	-0.01826117	0	0	0	0	0	0
24.47359	-0.05376393	-0.01826117	0	0	0	0	0	0
24.4901	-0.05376393	-0.01826117	0	0	0	0	0	0
24.50711	-0.05376393	-0.01826117	0	0	0	0	0	0
24.52321	-0.05376393	-0.01826117	0	0	0	0	0	0
24.53977	-0.05376393	-0.01826117	0	0	0	0	0	0
24.55634	-0.05376393	-0.01826117	0	0	0	0	0	0
24.57291	-0.05376393	-0.01826117	0	0	0	0	0	0
24.58967	-0.05376393	-0.01826117	0	0	0	0	0	0
24.60604	-0.05376393	-0.01826117	0	0	0	0	0	0
24.62269	-0.05376393	-0.01826117	0	0	0	0	0	0
24.63921	-0.05376393	-0.01826117	0	0	0	0	0	0
24.65574	-0.05376393	-0.01826117	0	0	0	0	0	0
24.67273	-0.05376393	-0.01826117	0	0	0	0	0	0
24.68887	-0.05376393	-0.01826117	0	0	0	0	0	0
24.70887	-0.05376393	-0.01826117	0	0	0	0	0	0
24.72577	-0.05376393	-0.01826117	0	0	0	0	0	0
24.74201	-0.05376393	-0.01826117	0	0	0	0	0	0
24.75858	-0.05376393	-0.01826117	0	0	0	0	0	0
24.82484	-0.05379017	-0.01824224	-0.000395988	0.0002856353	-0.004780597	0.003448355	0	0
24.84141	-0.05379017	-0.01824224	0	0	0.004780487	-0.003448276	0	0
24.85798	-0.05379017	-0.01824224	0	0	0	0	0	0
24.87454	-0.05379017	-0.01824224	0	0	0	0	0	0
24.89111	-0.05379017	-0.01824224	0	0	0	0	0	0
24.9079	-0.05379017	-0.01824224	0	0	0	0	0	0
24.92441	-0.05379017	-0.01824224	0	0	0	0	0	0
24.94092	-0.05379017	-0.01824224	0	0	0	0	0	0
24.95738	-0.05379017	-0.01824224	0	0	0	0	0	0
24.97395	-0.05379017	-0.01824224	0	0	0	0	0	0
24.99051	-0.05379017	-0.01824224	0	0	0	0	0	0
25.00708	-0.05379017	-0.01824224	0	0	0	0	0	0
25.02365	-0.05379017	-0.01824224	0	0	0	0	0	0
25.04021	-0.05379017	-0.01824224	0	0	0	0	0	0
25.05678	-0.05379017	-0.01824224	0	0	0	0	0	0
25.07335	-0.05379017	-0.01824224	0	0	0	0	0	0
25.08994	-0.05379017	-0.01824224	0	0	0	0	0	0
25.10648	-0.05379017	-0.01824224	0	0	0	0	0	0
25.12305	-0.05379017	-0.01824224	0	0	0	0	0	0
25.13961	-0.05379017	-0.01824224	0	0	0	0	0	0
25.15618	-0.05379017	-0.01824224	0	0	0	0	0	0
25.17309	-0.05379017	-0.01824224	0	0	0	0	0	0
25.18932	-0.05379017	-0.01824224	0	0	0	0	0	0
25.20588	-0.05379017	-0.01824224	0	0	0	0	0	0
25.22263	-0.05379017	-0.01824224	0	0	0	0	0	0
25.23914	-0.05379017	-0.01824224	0	0	0	0	0	0
25.25558	-0.05379017	-0.01824224	0	0	0	0	0	0
25.27216	-0.05379017	-0.01824224	0	0	0	0	0	0
25.28872	-0.05379017	-0.01824224	0	0	0	0	0	0
25.30528	-0.05379017	-0.01824224	0	0	0	0	0	0
25.32185	-0.05379017	-0.01824224	0	0	0	0	0	0
25.33841	-0.05379017	-0.01824224	0	0	0	0	0	0
25.35498	-0.05379017	-0.01824224	0	0	0	0	0	0
25.37155	-0.05379017	-0.01824224	0	0	0	0	0	0
25.38824	-0.05379017	-0.01824224	0	0	0	0	0	0
25.40468	-0.05379017	-0.01824224	0	0	0	0	0	0
25.42126	-0.05379017	-0.01824224	0	0	0	0	0	0
25.4565	-0.05379017	-0.01824224	0	0	0	0	0	0
25.47307	-0.05379017	-0.01824224	0	0	0	0	0	0
25.5062	-0.05379017	-0.01824224	0	0	0	0	0	0
25.52277	-0.05379017	-0.01824224	0	0	0	0	0	0
25.53933	-0.05379017	-0.01824224	0	0	0	0	0	0
25.5559	-0.05379017	-0.01824224	0	0	0	0	0	0
25.57247	-0.05379017	-0.01824224	0	0	0	0	0	0
25.58904	-0.05379017	-0.01824224	0	0	0	0	0	0
25.6056	-0.05379017	-0.01824224	0	0	0	0	0	0
25.62217	-0.05379017	-0.01824224	0	0	0	0	0	0
25.63892	-0.05379017	-0.01824224	0	0	0	0	0	0
25.65543	-0.05379017	-0.01824224	0	0	0	0	0	0
25.67187	-0.05379017	-0.01824224	0	0	0	0	0	0
25.68844	-0.05379017	-0.01824224	0	0	0	0	0	0
25.705	-0.05379017	-0.01824224	0	0	0	0	0	0
25.72157	-0.05379017	-0.01824224	0	0	0	0	0	0
25.73814	-0.05379017	-0.01824224	0	0	0	0	0	0
25.75471	-0.05379017	-0.01824224	0	0	0	0	0	0
25.77127	-0.05379017	-0.01824224	0	0	0	0	0	0
25.83754	-0.05379017	-0.01824224	0	0	0	0	0	0
25.8541	-0.05379017	-0.01824224	0	0	0	0	0	0
25.87067	-0.05379017	-0.01824224	0	0	0	0	0	0
25.88724	-0.05379017	-0.01824224	0	0	0	0	0	0
25.9038	-0.05379017	-0.01824224	0	0	0	0	0	0
25.92037	-0.05379017	-0.01824224	0	0	0	0	0	0
25.93694	-0.05379017	-0.01824224	0	0	0	0	0	0
25.9535	-0.05379017	-0.01824224	0	0	0	0	0	0
25.97016	-0.05379017	-0.01824224	0	0	0	0	0	0
25.98664	-0.05379017	-0.01824224	0	0	0	0	0	0
26.00368	-0.05379017	-0.01824224	0	0	0	0	0	0
26.01977	-0.05379017	-0.01824224	0	0	0	0	0	0
26.03671	-0.05379017	-0.01824224	0	0	0	0	0	0
26.0529	-0.05379017	-0.01824224	0	0	0	0	0	0
26.06973	-0.05379017	-0.01824224	0	0	0	0	0	0
26.08604	-0.05379017	-0.01824224	0	0	0	0	0	0
26.10261	-0.05379017	-0.01824224	0	0	0	0	0	0
26.11926	-0.05379017	-0.01824224	0	0	0	0	0	0
26.13574	-0.05379017	-0.01824224	0	0	0	0	0	0
26.15231	-0.05379017	-0.01824224	0	0	0	0	0	0
26.1693	-0.05379017	-0.01824224	0	0	0	0	0	0
26.18544	-0.05379017	-0.01824224	0	0	0	0	0	0
26.20435	-0.05379017	-0.01824224	0	0	0	0	0	0
26.22092	-0.05379017	-0.01824224	0	0	0	0	0	0
26.25406	-0.05379017	-0.01824224	0	0	0	0	0	0
26.27062	-0.05379017	-0.01824224	0	0	0	0	0	0
26.28719	-0.05379017	-0.01824224	0	0	0	0	0	0
26.30379	-0.05379017	-0.01824224	0	0	0	0	0	0
26.32041	-0.05379017	-0.01824224	0	0	0	0	0	0
26.33689	-0.05379017	-0.01824224	0	0	0	0	0	0
26.35346	-0.05379017	-0.01824224	0	0	0	0	0	0
26.37002	-0.05379017	-0.01824224	0	0	0	0	0	0
26.38659	-0.05379017	-0.01824224	0	0	0	0	0	0
26.40316	-0.05379017	-0.01824224	0	0	0	0	0	0
26.41998	-0.05379017	-0.01824224	0	0	0	0	0	0
26.43629	-0.05379017	-0.01824224	0	0	0	0	0	0
26.45286	-0.05379017	-0.01824224	0	0	0	0	0	0
26.46943	-0.05379017	-0.01824224	0	0	0	0	0	0
26.48602	-0.05379017	-0.01824224	0	0	0	0	0	0
26.50256	-0.05379017	-0.01824224	0	0	0	0	0	0
26.51957	-0.05379017	-0.01824224	0	0	0	0	0	0
26.53569	-0.05379017	-0.01824224	0	0	0	0	0	0
26.55226	-0.05379017	-0.01824224	0	0	0	0	0	0
26.56882	-0.05379017	-0.01824224	0	0	0	0	0	0
26.58539	-0.05379017	-0.01824224	0	0	0	0	0	0
26.61852	-0.05379017	-0.01820438	0	0.001142565	0	0.02298844	0	0
26.68479	-0.05331784	-0.01775012	0.007127821	0.006855136	0.07170878	0.05747078	0	0
26.70136	-0.05258306	-0.01722024	0.04435141	0.03198394	0.4493847	0.3033695	0	0
26.71819	-0.04880332	-0.01442088	0.2245521	0.1663081	5.395296	4.021731	0	0
26.73449	-0.04683415	-0.01300322	0.1208067	0.08697194	-3.131221	-2.394508	0	0
26.75106	-0.03390805	-0.003454909	0.780131	0.5762709	20.05895	14.88618	0	0
26.76772	-0.02004994	0.006798571	0.8315942	0.6152886	1.548529	1.17404	0	0
26.78419	0.009157639	0.02766219	1.773591	1.266915	28.43116	19.66727	0	0
26.80076	0.02178603	0.0366144	0.762251	0.540356	-30.61394	-21.99344	0	0
26.81776	0.04741181	0.05473286	1.507212	1.06566	22.19172	15.64833	0	0
26.83389	0.06640223	0.06813277	1.177303	0.8307213	-9.95726	-7.090872	0	0
26.85046	0.08385552	0.08043904	1.053483	0.7428081	-3.786823	-2.688668	0	0
26.86729	0.103289	0.09406934	1.15427	0.8095846	3.017269	1.999092	0	0
26.88359	0.1148347	0.1022166	0.7084792	0.4999438	-13.45476	-9.345515	0	0
26.90032	0.1242773	0.1088853	0.5644338	0.3986188	-4.36161	-3.068062	0	0
26.91672	0.1348348	0.116422	0.6436265	0.4594708	2.390178	1.836625	0	0
26.93639	0.143584	0.1226148	0.4449616	0.3149455	-5.50836	-4.007239	0	0
26.95296	0.1469334	0.1250605	0.2020758	0.1475583	-6.702569	-4.619145	0	0
26.96952	0.1525425	0.1292557	0.3386862	0.2533111	4.122673	3.191442	0	0
26.98638	0.1546242	0.1308053	0.1234762	0.09191155	-6.439449	-4.829348	0	0
27.00266	0.1552665	0.1313703	0.03944599	0.03470412	-2.535599	-1.726226	0	0
27.01922	0.1551894	0.131425	-0.004654562	0.003301931	-1.342939	-0.956252	0	0
27.03579	0.1551637	0.1314432	-0.001549728	0.00110001	0.09373105	-0.06647324	0	0
27.05235	0.1551637	0.1314432	0	0	0.04677088	-0.03319837	0	0
27.06892	0.1551637	0.1314432	0	0	0	0	0	0
27.08549	0.1551637	0.1314432	0	0	0	0	0	0
27.10246	0.1551894	0.131425	0.001512805	-0.001073802	0.04510865	-0.0320185	0	0
27.11862	0.1551637	0.1314068	-0.001588499	-0.00112753	-0.09359752	-0.001621518	0	0
27.13519	0.1551637	0.1314068	0	0	0.04853609	0.03445133	0	0
27.15175	0.1551637	0.1314068	0	0	0	0	0	0
27.16832	0.155138	0.131425	-0.001550627	0.00110001	-0.04679803	0.03319837	0	0
27.18489	0.1551123	0.1314068	-0.001550806	-0.001100137	-5.389899E-06	-0.06640439	0	0
27.20145	0.1551123	0.1314068	0	0	0.04680611	0.0332041	0	0
27.21804	0.1551123	0.1314068	0	0	0	0	0	0
27.23459	0.1550867	0.1313885	-0.001552236	-0.001101151	-0.04684387	-0.03323089	0	0
27.25118	0.155061	0.1313339	-0.001548666	-0.003295856	0.0001077196	-0.06622872	0	0
27.26772	0.1550353	0.1313156	-0.001552773	-0.001101532	-0.0001239431	0.06622866	0	0
27.28429	0.1550353	0.1313156	0	0	0.04689787	0.0332692	0	0
27.30086	0.1550096	0.1312609	-0.001550627	-0.00330093	-0.04680072	-0.09962799	0	0
27.31761	0.1549582	0.1312245	-0.003065957	-0.00217498	-0.04547099	0.03378674	0	0
27.33413	0.1549068	0.131188	-0.003111644	-0.00220739	-0.001373209	-0.0009741551	0	0
27.35064	0.1548041	0.1311151	-0.006224006	-0.004416192	-0.09425139	-0.06688896	0	0
27.36712	0.154727	0.131024	-0.004674485	-0.005526775	0.04695926	-0.03365693	0	0
27.38369	0.1546756	0.1309876	-0.003101255	-0.00220092	0.04759526	0.1006178	0	0
27.40026	0.1546499	0.1309693	-0.001550627	-0.00110001	0.04679803	0.03322552	0	0
27.41682	0.1546499	0.1309693	0	0	0.04679803	0.03319837	0	0
27.4337	0.1546242	0.1309511	-0.001522409	-0.001079992	-0.04552447	-0.03229491	0	0
27.45021	0.1546242	0.1309511	0	0	0.04559469	0.03234472	0	0
27.46673	0.1546242	0.1309511	0	0	0	0	0	0
27.48324	0.1546242	0.1309511	0	0	0	0	0	0
27.54936	0.1545728	0.1309511	-0.0007772163	0	-0.009405313	0	0	0
27.56593	0.1545728	0.1309511	0	0	0.009399022	0	0	0
27.58249	0.1545728	0.1309511	0	0	0	0	0	0
27.59906	0.1545728	0.1309511	0	0	0	0	0	0
27.61563	0.1545728	0.1309511	0	0	0	0	0	0
27.63219	0.1545472	0.1309693	-0.001550627	0.00110001	-0.04680072	0.03320028	0	0
27.65414	0.1545472	0.1309693	0	0	0.04026624	-0.02856474	0	0
27.67071	0.1545472	0.1309693	0	0	0	0	0	0
27.68738	0.1545472	0.1309693	0	0	0	0	0	0
27.70389	0.1545472	0.1309693	0	0	0	0	0	0
27.7204	0.1545215	0.1309876	-0.001555642	0.001103568	-0.04710393	0.03341537	0	0
27.73697	0.1545215	0.1309876	0	0	0.04702517	-0.0333595	0	0
27.75354	0.1544958	0.1310058	-0.001550627	0.00110001	-0.04679803	0.03319837	0	0
27.77044	0.1544958	0.1310058	0	0	0.04633394	-0.03286915	0	0
27.78667	0.1544444	0.1309329	-0.003166312	-0.00449104	-0.09557047	-0.1355555	0	0
27.80324	0.1538534	0.1304772	-0.03567163	-0.02750565	-0.9910529	-0.7016913	0	0
27.8198	0.1516426	0.1288728	-0.1334421	-0.09683866	-2.950719	-2.092474	0	0
27.83637	0.143584	0.1231259	-0.4864194	-0.346885	-10.65288	-7.546413	0	0
27.85299	0.1261683	0.1106974	-1.047594	-0.7476076	-16.90708	-12.07298	0	0
27.8695	0.1101575	0.0993924	-0.9697649	-0.6847332	2.34888	1.897554	0	0
27.88607	0.08748663	0.08347781	-1.368417	-0.9606065	-12.05216	-8.340276	0	0
27.90264	0.07098579	0.07188199	-0.9961077	-0.7000054	11.23696	7.86541	0	0
27.9192	0.05578417	0.0611978	-0.9175714	-0.6448994	2.370366	1.663199	0	0
27.93577	0.03766639	0.04851722	-1.093591	-0.7654011	-5.312295	-3.636748	0	0
27.95234	0.02617823	0.04069163	-0.6934266	-0.4723538	12.077	8.844184	0	0
27.9689	0.01365705	0.03312937	-0.7558672	-0.4565113	-1.884569	0.478155	0	0
27.9856	0.01097324	0.03160014	-0.1607546	-0.09159828	17.89256	10.97141	0	0
28.00204	0.003105253	0.0271393	-0.4786602	-0.2713811	-9.594961	-5.42617	0	0
28.0186	0.0001052632	0.02549543	-0.1810798	-0.09922431	9.016288	5.216122	0	0
28.03517	0.0002368421	0.02570095	0.007942121	0.01240558	5.704692	3.368997	0	0
28.05174	5.263158E-05	0.02583174	-0.01111897	0.007894011	-0.5752648	-0.1361595	0	0
28.06865	2.631579E-05	0.02585042	-0.001556176	0.001104773	0.285646	-0.2027983	0	0
28.08487	5.263158E-05	0.02583174	0.001622038	-0.001151531	0.09591866	-0.0680954	0	0
28.10144	5.263158E-05	0.02583174	0	0	-0.04946861	0.03511918	0	0
28.11818	7.894737E-05	0.02581305	0.001571598	-0.001115722	0.04718104	-0.03349516	0	0
28.13471	0.0001052632	0.02579437	0.001592457	-0.001130644	0.0006269864	-0.0004485172	0	0
28.15121	0.0001052632	0.025757	0	-0.002264573	-0.04821867	-0.0343347	0	0
28.16771	0.0001315789	0.02573832	0.001595219	-0.001132492	0.04834418	0.03430847	0	0
28.18427	0.0001578947	0.02571964	0.001588425	-0.00112778	-0.0002054915	0.0001425022	0	0
28.20084	0.0001842105	0.02570095	0.001588424	-0.001127668	-2.459395E-08	3.393965E-06	0	0
28.21775	0.0002368421	0.02566359	0.003111649	-0.002209269	0.04549439	-0.03230435	0	0
28.23397	0.0002894737	0.02562622	0.003244839	-0.002303833	0.004019677	-0.002853952	0	0
28.25078	0.0003157895	0.02560754	0.001565711	-0.001111544	-0.05084007	0.03609974	0	0
28.26729	0.0003421053	0.02558885	0.001594114	-0.00113182	0.0008525528	-0.0006086009	0	0
28.28367	0.000368421	0.02557017	0.001606362	-0.001140517	0.0003723838	-0.0002644291	0	0
28.30031	0.000368421	0.02557017	0	0	-0.04864531	0.03453816	0	0
28.31682	0.0003947368	0.02555148	0.00159393	-0.001131689	0.04808276	-0.03413872	0	0
28.33337	0.0003947368	0.02555148	0	0	-0.04821592	0.03423326	0	0
28.35035	0.0003947368	0.02555148	0	0	0	0	0	0
28.38591	0.0004210526	0.0255328	0.0007400259	-0.0005254706	0.01408556	-0.01000174	0	0
28.40247	0.0003947368	0.02551411	-0.001588606	-0.00112791	-0.0446732	-0.01155738	0	0
28.41904	0.0003947368	0.02551411	0	0	0.04794698	0.03404235	0	0
28.43591	0.0003947368	0.02551411	0	0	0	0	0	0
28.45218	0.000368421	0.0255328	-0.001617664	0.00114854	-0.0488212	0.03466301	0	0
28.46874	0.000368421	0.0255328	0	0	0.04926645	-0.03497913	0	0
28.48531	0.000368421	0.0255328	0	0	0	0	0	0
28.50195	0.000368421	0.0255328	0	0	0	0	0	0
28.51847	0.000368421	0.0255328	0	0	0	0	0	0
28.53501	0.000368421	0.0255328	0	0	0	0	0	0
28.55157	0.000368421	0.0255328	0	0	0	0	0	0
28.56814	0.0003421053	0.02555148	-0.001588423	0.001127893	-0.0479387	0.03403987	0	0
28.58471	0.0003157895	0.02557017	-0.001588425	0.00112778	-5.270132E-08	-3.393965E-06	0	0
28.60128	0.0003157895	0.02557017	0	0	0.047936	-0.03403451	0	0
28.61784	0.0003157895	0.02557017	0	0	0	0	0	0
28.63455	0.0003157895	0.02557017	0	0	0	0	0	0
28.65098	0.0003421053	0.02555148	0.001602074	-0.001137471	0.04835346	-0.03433092	0	0
28.66754	0.0003421053	0.02555148	0	0	-0.04855752	0.0344758	0	0
28.68411	0.0003157895	0.0255328	-0.001588608	-0.001128022	-0.04794703	-0.03404574	0	0
28.70068	0.0003421053	0.02551411	0.001588425	-0.00112778	0.09588855	7.311851E-06	0	0
28.71724	0.0003421053	0.02551411	0	0	-0.04794151	0.03403843	0	0
28.73381	0.0003421053	0.02551411	0	0	0	0	0	0
28.75063	0.0003421053	0.02551411	0	0	0	0	0	0
28.76714	0.0003421053	0.02551411	0	0	0	0	0	0
28.78351	0.0003421053	0.02551411	0	0	0	0	0	0
28.80008	0.0003421053	0.02551411	0	0	0	0	0	0
28.81664	0.0003421053	0.02551411	0	0	0	0	0	0
28.83321	0.0003421053	0.02551411	0	0	0	0	0	0
28.84978	0.0003421053	0.02551411	0	0	0	0	0	0
28.86634	0.0003421053	0.02551411	0	0	0	0	0	0
28.88322	0.0003421053	0.02551411	0	0	0	0	0	0
28.89948	0.0003421053	0.02551411	0	0	0	0	0	0
28.91604	0.0003421053	0.02551411	0	0	0	0	0	0
28.94927	0.0003421053	0.02551411	0	0	0	0	0	0
28.96579	0.0003421053	0.02551411	0	0	0	0	0	0
28.99016	0.000368421	0.02549543	0.00107975	-0.0007666222	0.02640884	-0.01875027	0	0
29.00673	0.000368421	0.02549543	0	0	-0.02637316	0.01872494	0	0
29.02329	0.000368421	0.02549543	0	0	0	0	0	0
29.03986	0.0003421053	0.02547674	-0.001588423	-0.00112778	-0.04794146	-0.03403843	0	0
29.05643	0.0003421053	0.02547674	0	0	0.0479387	0.03403647	0	0
29.073	0.0003421053	0.02547674	0	0	0	0	0	0
29.08956	0.0003421053	0.02547674	0	0	0	0	0	0
29.10638	0.0003421053	0.02547674	0	0	0	0	0	0
29.12289	0.0003421053	0.02547674	0	0	0	0	0	0
29.13926	0.0003421053	0.02547674	0	0	0	0	0	0
29.15583	0.0003421053	0.02547674	0	0	0	0	0	0
29.17243	0.0003421053	0.02547674	0	0	0	0	0	0
29.18896	0.0003421053	0.02547674	0	0	0	0	0	0
29.20553	0.0003421053	0.02547674	0	0	0	0	0	0
29.2221	0.0003421053	0.02547674	0	0	0	0	0	0
29.23898	0.000368421	0.02545806	0.001559164	-0.001107117	0.04661559	-0.03310036	0	0
29.25523	0.000368421	0.02545806	0	0	-0.04706108	0.03341669	0	0
29.272	0.000368421	0.02545806	0	0	0	0	0	0
29.28851	0.000368421	0.02545806	0	0	0	0	0	0
29.30502	0.000368421	0.02545806	0	0	0	0	0	0
29.3215	0.000368421	0.02545806	0	0	0	0	0	0
29.33806	0.000368421	0.02545806	0	0	0	0	0	0
29.35463	0.000368421	0.02545806	0	0	0	0	0	0
29.3712	0.000368421	0.02545806	0	0	0	0	0	0
29.38776	0.000368421	0.02545806	0	0	0	0	0	0
29.4046	0.000368421	0.02545806	0	0	0	0	0	0
29.4209	0.000368421	0.02545806	0	0	0	0	0	0
29.43762	0.000368421	0.02545806	0	0	0	0	0	0
29.45405	0.000368421	0.02545806	0	0	0	0	0	0
29.47064	0.000368421	0.02545806	0	0	0	0	0	0
29.48717	0.0003421053	0.02547674	-0.00159264	0.001130887	-0.04808813	0.03414596	0	0
29.50373	0.0003421053	0.02547674	0	0	0.0481297	-0.03417549	0	0
29.5203	0.0003421053	0.02547674	0	0	0	0	0	0
29.53687	0.0003421053	0.02547674	0	0	0	0	0	0
29.55343	0.0003421053	0.02547674	0	0	0	0	0	0
29.57021	0.000368421	0.02545806	0.001568381	-0.001113661	0.0470333	-0.03339696	0	0
29.58657	0.000368421	0.02545806	0	0	-0.04733654	0.03361228	0	0
29.60324	0.000368421	0.02545806	0	0	0	0	0	0
29.6197	0.000368421	0.02545806	0	0	0	0	0	0
29.63626	0.000368421	0.02545806	0	0	0	0	0	0
29.65283	0.000368421	0.02545806	0	0	0	0	0	0
29.68809	0.000368421	0.02545806	0	0	0	0	0	0
29.72837	0.000368421	0.02545806	0	0	0	0	0	0
29.74494	0.000368421	0.02545806	0	0	0	0	0	0
29.76151	0.000368421	0.02545806	0	0	0	0	0	0
29.77807	0.0003947368	0.02543937	0.001588608	-0.00112791	0.04794703	-0.03404235	0	0
29.79464	0.0003947368	0.02543937	0	0	-0.04794703	0.03404235	0	0
29.8112	0.0003947368	0.02543937	0	0	0	0	0	0
29.8279	0.0003947368	0.02543937	0	0	0	0	0	0
29.84434	0.0003947368	0.02543937	0	0	0	0	0	0
29.8609	0.0003947368	0.02543937	0	0	0	0	0	0
29.87747	0.0003947368	0.02543937	0	0	0	0	0	0
29.89404	0.0003947368	0.02543937	0	0	0	0	0	0
29.91061	0.0003947368	0.02543937	0	0	0	0	0	0
29.92747	0.0003947368	0.02543937	0	0	0	0	0	0
29.94398	0.0003947368	0.02543937	0	0	0	0	0	0
29.96031	0.0003947368	0.02543937	0	0	0	0	0	0
29.977	0.0003947368	0.02543937	0	0	0	0	0	0
29.99352	0.0003947368	0.02543937	0	0	0	0	0	0
30.01003	0.0004210526	0.02542069	0.001593928	-0.001131689	0.04826321	-0.03426687	0	0
30.02658	0.0004210526	0.02542069	0	0	-0.04821865	0.03423524	0	0
30.04314	0.0004210526	0.02542069	0	0	0	0	0	0
30.05971	0.0004210526	0.02542069	0	0	0	0	0	0
30.07657	0.0004210526	0.02542069	0	0	0	0	0	0
30.09309	0.0004210526	0.02542069	0	0	0	0	0	0
30.1096	0.0004210526	0.02542069	0	0	0	0	0	0
30.12598	0.0004210526	0.02542069	0	0	0	0	0	0
30.14254	0.0004210526	0.02542069	0	0	0	0	0	0
30.15913	0.0004210526	0.02542069	0	0	0	0	0	0
30.17567	0.0004210526	0.02542069	0	0	0	0	0	0
30.19224	0.0004210526	0.02542069	0	0	0	0	0	0
30.20881	0.0004210526	0.02542069	0	0	0	0	0	0
30.22537	0.0004210526	0.02542069	0	0	0	0	0	0
30.24219	0.0004210526	0.02542069	0	0	0	0	0	0
30.25871	0.0004473684	0.025402	0.001593378	-0.00113141	0.04780206	-0.0339428	0	0
30.27811	0.0004473684	0.025402	0	0	-0.04435772	0.03149708	0	0
30.29468	0.0004473684	0.025402	0	0	0	0	0	0
30.31125	0.0004473684	0.025402	0	0	0	0	0	0
30.32781	0.0004736842	0.02538332	0.001588423	-0.00112778	0.0479387	-0.03403647	0	0
30.34438	0.0005263158	0.02534595	0.003177215	-0.002256045	0.04795261	-0.03405306	0	0
30.36095	0.0005263158	0.02534595	0	0	-0.09589407	0.06809149	0	0
30.37751	0.0005526315	0.02532726	0.001588421	-0.00112778	0.04793865	-0.03403647	0	0
30.39408	0.0005789473	0.02530858	0.001588608	-0.001128022	5.625312E-06	-7.311851E-06	0	0
30.41065	0.0005789473	0.02530858	0	0	-0.04794703	0.03404574	0	0
30.42721	0.0005789473	0.02530858	0	0	0	0	0	0
30.44383	0.0005789473	0.02530858	0	0	0	0	0	0
30.46035	0.0005789473	0.02530858	0	0	0	0	0	0
30.47692	0.0005789473	0.02530858	0	0	0	0	0	0
30.49348	0.0005789473	0.02530858	0	0	0	0	0	0
30.51005	0.0006052631	0.02528989	0.001588425	-0.001127893	0.04793876	-0.03403987	0	0
30.52662	0.0006052631	0.02528989	0	0	-0.04793876	0.03403987	0	0
30.54318	0.0006052631	0.02528989	0	0	0	0	0	0
30.55994	0.0006052631	0.02528989	0	0	0	0	0	0
30.57631	0.0006052631	0.02528989	0	0	0	0	0	0
30.59294	0.0006052631	0.02525252	0	-0.002248279	0	-0.06813558	0	0
30.60945	0.0006052631	0.02525252	0	0	0	0.06784929	0	0
30.62601	0.0006052631	0.02525252	0	0	0	0	0	0
30.64258	0.0006052631	0.02525252	0	0	0	0	0	0
30.65915	0.0006052631	0.02525252	0	0	0	0	0	0
30.67572	0.0006052631	0.02525252	0	0	0	0	0	0
30.69251	0.0006052631	0.02525252	0	0	0	0	0	0
30.70885	0.0006052631	0.02525252	0	0	0	0	0	0
30.72553	0.0006052631	0.02525252	0	0	0	0	0	0
30.74205	0.0006052631	0.02525252	0	0	0	0	0	0
30.75856	0.0006052631	0.02525252	0	0	0	0	0	0
30.77511	0.0006052631	0.02525252	0	0	0	0	0	0
30.79169	0.0006052631	0.02525252	0	0	0	0	0	0
30.80825	0.0006052631	0.02525252	0	0	0	0	0	0
30.82481	0.0006052631	0.02525252	0	0	0	0	0	0
30.84138	0.0006052631	0.02525252	0	0	0	0	0	0
30.85795	0.0006052631	0.02525252	0	0	0	0	0	0
30.87464	0.0006052631	0.02525252	0	0	0	0	0	0
30.89115	0.0006315788	0.02523383	0.001593742	-0.001131558	0.04800253	-0.03408182	0	0
30.90765	0.0006315788	0.02523383	0	0	-0.04827989	0.03427875	0	0
30.92421	0.0006315788	0.02523383	0	0	0	0	0	0
30.94078	0.0006315788	0.02523383	0	0	0	0	0	0
30.96079	0.0006315788	0.02523383	0	0	0	0	0	0
30.97736	0.0006578946	0.02521515	0.001588242	-0.001127763	0.04342161	-0.03083237	0	0
30.99393	0.0006578946	0.02521515	0	0	-0.04793048	0.03403399	0	0
31.01049	0.0006578946	0.02521515	0	0	0	0	0	0
31.02706	0.0006578946	0.02521515	0	0	0	0	0	0
31.04362	0.0006578946	0.02521515	0	0	0	0	0	0
31.06027	0.0006578946	0.02521515	0	0	0	0	0	0
31.07678	0.0006578946	0.02521515	0	0	0	0	0	0
31.09332	0.0006578946	0.02521515	0	0	0	0	0	0
31.11031	0.0006578946	0.02521515	0	0	0	0	0	0
31.12646	0.0006842104	0.02519646	0.001629702	-0.001157318	0.04918734	-0.03492993	0	0
31.14302	0.0006842104	0.02519646	0	0	-0.04981538	0.03537592	0	0
31.15959	0.0006842104	0.02519646	0	0	0	0	0	0
31.19272	0.0006842104	0.02519646	0	0	0	0	0	0
31.20937	0.0007105262	0.02517777	0.001580778	-0.001122465	0.03175413	-0.0225477	0	0
31.22586	0.0007105262	0.02517777	0	0	-0.04770796	0.03387606	0	0
31.259	0.000736842	0.02515909	0.0007939382	-0.0005637516	0.01599617	-0.0113584	0	0
31.27555	0.000736842	0.02515909	0	0	-0.01597591	0.01134401	0	0
31.29212	0.0007631577	0.0251404	0.001588604	-0.001128022	0.04797179	-0.03406339	0	0
31.30869	0.0007631577	0.0251404	0	0	-0.04794417	0.03404379	0	0
31.32526	0.0007894735	0.02512172	0.001588242	-0.001127763	0.04792772	-0.03403203	0	0
31.34183	0.0007894735	0.02512172	0	0	-0.04793048	0.03403399	0	0
31.35848	0.0008157893	0.02510303	0.001580054	-0.001122063	0.04756017	-0.03377449	0	0
31.37499	0.0008157893	0.02510303	0	0	-0.04764223	0.03383276	0	0
31.39153	0.0008157893	0.02510303	0	0	0	0	0	0
31.40809	0.0008157893	0.02510303	0	0	0	0	0	0
31.42466	0.0008157893	0.02510303	0	0	0	0	0	0
31.44122	0.0008157893	0.02510303	0	0	0	0	0	0
31.4578	0.0008157893	0.02510303	0	0	0	0	0	0
31.47436	0.0008421051	0.02508434	0.001589706	-0.001128802	0.04798018	-0.03406928	0	0
31.49107	0.0008421051	0.02508434	0	0	-0.04778487	0.0339306	0	0
31.50749	0.0008421051	0.02508434	0	0	0	0	0	0
31.52409	0.0008421051	0.02508434	0	0	0	0	0	0
31.54062	0.0008684208	0.02506566	0.001592271	-0.001130626	0.0480576	-0.03412433	0	0
31.55719	0.0008684208	0.02506566	0	0	-0.04811299	0.03416366	0	0
31.57375	0.0008684208	0.02506566	0	0	0	0	0	0
31.59064	0.0008947366	0.02504697	0.001558461	-0.001106727	0.04658927	-0.03308493	0	0
31.60769	0.0008947366	0.02504697	0	0	-0.04591899	0.03260894	0	0
31.62426	0.0009210524	0.02502828	0.001588421	-0.001127893	0.04724515	-0.03354743	0	0
31.64083	0.0009473682	0.02500959	0.001588425	-0.001128005	1.054026E-07	-3.390452E-06	0	0
31.65769	0.0009473682	0.02500959	0	0	-0.0475121	0.03374027	0	0
31.67396	0.0009473682	0.02500959	0	0	0	0	0	0
31.69366	0.0009736839	0.02499091	0.001336015	-0.0009487607	0.03714571	-0.02637874	0	0
31.71023	0.0009736839	0.02499091	0	0	-0.03684093	0.0261623	0	0
31.72679	0.0009736839	0.02499091	0	0	0	0	0	0
31.74336	0.0009736839	0.02499091	0	0	0	0	0	0
31.76027	0.0009736839	0.02499091	0	0	0	0	0	0
31.77649	0.0009736839	0.02499091	0	0	0	0	0	0
31.79306	0.0009736839	0.02499091	0	0	0	0	0	0
31.80963	0.0009736839	0.02499091	0	0	0	0	0	0
31.82631	0.0009736839	0.02499091	0	0	0	0	0	0
31.84282	0.0009736839	0.02499091	0	0	0	0	0	0
31.85933	0.0009999997	0.02497222	0.001593746	-0.001131671	0.04826326	-0.03427029	0	0
31.87589	0.0009999997	0.02497222	0	0	-0.04819089	0.0342189	0	0
31.89246	0.0009999997	0.02497222	0	0	0	0	0	0
31.90903	0.0009999997	0.02497222	0	0	0	0	0	0
31.92588	0.0009999997	0.02497222	0	0	0	0	0	0
31.94239	0.0009999997	0.02497222	0	0	0	0	0	0
31.95873	0.001026315	0.02495353	0.001610858	-0.001143941	0.04903637	-0.03482287	0	0
31.9753	0.001026315	0.02495353	0	0	-0.04895678	0.03476635	0	0
31.99193	0.001026315	0.02495353	0	0	0	0	0	0
32.00844	0.001026315	0.02495353	0	0	0	0	0	0
32.02499	0.001052631	0.02493485	0.001589889	-0.001129045	0.04807982	-0.03414343	0	0
32.04156	0.001052631	0.02493485	0	0	-0.04799953	0.03408642	0	0
32.05813	0.001078947	0.02491616	0.001588425	-0.001128005	0.04793324	-0.03403934	0	0
32.0747	0.001131578	0.02487878	0.003177574	-0.002256417	0.04796615	-0.03405947	0	0
32.09126	0.001236841	0.02480403	0.006353685	-0.004512133	0.09586625	-0.06808546	0	0
32.15754	0.002973675	0.02357039	0.02620435	-0.01861241	0.2396046	-0.1701954	0	0
32.1741	0.002973675	0.02357039	0	0	-0.3163542	0.2246998	0	0
32.19066	0.002921044	0.02357039	-0.003177553	0	-0.09595398	0	0	0
32.20723	0.002894729	0.02358909	-0.001588418	0.001128455	0.04796572	0.03406075	0	0
32.2238	0.002499995	0.0238695	-0.0238207	0.01692158	-0.6708943	0.4765825	0	0
32.24061	0.0006052631	0.02521515	-0.1127054	0.08004422	-2.66262	1.890895	0	0
32.25693	-0.004131556	0.02857707	-0.2901913	0.2059612	-5.356536	3.800183	0	0
32.2735	-0.01613018	0.03708006	-0.7242383	0.5132414	-13.1968	9.342572	0	0
32.29006	-0.02833452	0.04563794	-0.7368252	0.5166735	-0.3799151	0.1035928	0	0
32.30665	-0.04305233	0.05569679	-0.887347	0.606455	-4.540667	2.708363	0	0
32.32319	-0.06776451	0.06924126	-1.493694	0.8186773	-18.30169	6.40562	0	0
32.33976	-0.09607175	0.07542495	-1.708629	0.3732479	-6.491233	-13.45238	0	0
32.35633	-0.1187025	0.07804333	-1.365993	0.1580462	10.34075	-6.494801	0	0
32.3732	-0.1671622	0.08261244	-2.87213	0.2708035	-45.04046	3.371965	0	0
32.38946	-0.2015166	0.08631207	-2.11255	0.2275008	22.92417	-1.306876	0	0
32.40603	-0.2387275	0.09217723	-2.246053	0.3540215	-4.066589	3.853899	0	0
32.4226	-0.2637854	0.09920895	-1.512499	0.4244357	22.13872	2.125103	0	0
32.44262	-0.2774688	0.1065779	-0.6835	0.3680904	22.65843	-1.540047	0	0
32.45918	-0.284465	0.1119233	-0.4222905	0.3226483	7.139453	-1.242034	0	0
32.47575	-0.2857251	0.1128746	-0.07606529	0.05741999	10.4491	-8.004608	0	0
32.49231	-0.2872506	0.1141001	-0.09210005	0.07398439	-0.4839857	0.4999723	0	0
32.50888	-0.2872506	0.1141001	0	0	2.779905	-2.23311	0	0
32.52545	-0.2872991	0.1141001	-0.002923167	0	-0.08822134	0	0	0
32.54202	-0.2872991	0.1141001	0	0	0.08822134	0	0	0
32.55883	-0.2872749	0.1141183	0.001439471	0.001087581	0.04312557	0.03258317	0	0
32.57515	-0.2872749	0.1141183	0	0	-0.04344333	-0.03282325	0	0
32.59172	-0.2872749	0.1141183	0	0	0	0	0	0
32.60886	-0.2872506	0.1141366	0.001413343	0.001066961	0.04192592	0.03165072	0	0
32.62485	-0.2872264	0.1141183	0.001513299	-0.001143827	0.00301669	-0.0667217	0	0
32.64141	-0.2872022	0.1141001	0.00146102	-0.001103862	-0.001605881	0.001227623	0	0
32.65798	-0.287178	0.1140818	0.00146102	-0.001104312	0	-1.357899E-05	0	0
32.67455	-0.287178	0.1140818	0	0	-0.04409876	0.03333203	0	0
32.69111	-0.2871538	0.1140635	0.001460684	-0.001103608	0.04408353	-0.03330695	0	0
32.70768	-0.2871296	0.1140452	0.001460684	-0.001104058	0	-1.357235E-05	0	0
32.72444	-0.2871054	0.1140269	0.001445508	-0.001091243	-0.0004553326	0.0003844858	0	0
32.74081	-0.286936	0.1138989	0.01035052	-0.007820693	0.2687846	-0.2031186	0	0
32.75747	-0.2862338	0.1133685	0.04215029	-0.03183858	0.9628227	-0.7272054	0	0
32.77399	-0.2860885	0.1132587	0.008797633	-0.006644234	-1.005312	0.7594051	0	0
32.79051	-0.2860643	0.1132405	0.001466196	-0.001106861	-0.2218762	0.1675813	0	0
32.80708	-0.2860643	0.1132405	0	0	-0.044306	0.03344749	0	0
32.82365	-0.2860643	0.1132405	0	0	0	0	0	0
32.84021	-0.2860643	0.1132405	0	0	0	0	0	0
32.85678	-0.2860643	0.1132405	0	0	0	0	0	0
32.87355	-0.2860643	0.1132405	0	0	0	0	0	0
32.89006	-0.2860643	0.1132405	0	0	0	0	0	0
32.90648	-0.2860885	0.1132587	-0.001475735	0.001114062	-0.04481119	0.03382887	0	0
32.92305	-0.2860885	0.1132587	0	0	0.04473864	-0.0337741	0	0
32.93962	-0.2860885	0.1132587	0	0	0	0	0	0
32.95618	-0.2860885	0.1132587	0	0	0	0	0	0
32.97275	-0.2860885	0.1132587	0	0	0	0	0	0
33.00615	-0.2860885	0.1132587	0	0	0	0	0	0
33.02245	-0.2860885	0.1132587	0	0	0	0	0	0
33.03917	-0.2860885	0.1132587	0	0	0	0	0	0
33.05568	-0.2860885	0.1132587	0	0	0	0	0	0
33.07747	-0.2860885	0.1132587	0	0	0	0	0	0
33.09404	-0.2860885	0.1132587	0	0	0	0	0	0
33.1106	-0.2860885	0.1132587	0	0	0	0	0	0
33.12724	-0.2860885	0.1132587	0	0	0	0	0	0
33.14375	-0.2860885	0.1132587	0	0	0	0	0	0
33.1603	-0.2860643	0.1132405	0.001463494	-0.001104821	0.04426005	-0.0334128	0	0
33.17687	-0.2860643	0.1132405	0	0	-0.04418359	0.03335508	0	0
33.19344	-0.2860643	0.1132405	0	0	0	0	0	0
33.21	-0.2860643	0.1132405	0	0	0	0	0	0
33.22657	-0.2860643	0.1132405	0	0	0	0	0	0
33.24313	-0.2860643	0.1132405	0	0	0	0	0	0
33.25982	-0.2860643	0.1132405	0	0	0	0	0	0
33.27626	-0.2860643	0.1132405	0	0	0	0	0	0
33.29285	-0.2860643	0.1132405	0	0	0	0	0	0
33.3094	-0.28604	0.1132222	0.001463831	-0.001105075	0.0441785	-0.03335124	0	0
33.32597	-0.2860158	0.1132039	0.001462483	-0.001104058	-4.070768E-05	3.0732E-05	0	0
33.34288	-0.285822	0.1130575	0.01145364	-0.008649239	0.2983733	-0.2253274	0	0
33.3591	-0.2852648	0.1126368	0.03436324	-0.02594472	0.6914131	-0.5219787	0	0
33.37567	-0.2803387	0.1091416	0.2973409	-0.2109748	8.021645	-5.644	0	0
33.39242	-0.2752523	0.1060467	0.3035864	-0.1847188	0.1874329	0.787962	0	0
33.4088	-0.2582833	0.09891541	1.036182	-0.4354613	22.11231	-7.568295	0	0
33.42544	-0.2374352	0.0941979	1.252627	-0.2834444	6.554969	4.603781	0	0
33.44194	-0.2002027	0.08833542	2.257234	-0.355415	30.31562	-2.171826	0	0
33.4585	-0.1680321	0.08419575	1.941822	-0.2498709	-9.540037	3.192309	0	0
33.47507	-0.1259093	0.07837513	2.542532	-0.3513331	18.12948	-3.062136	0	0
33.49163	-0.09860028	0.07330322	1.648758	-0.3062115	-26.97727	1.361931	0	0
33.5082	-0.09067175	0.07160507	0.4785669	-0.1025006	-35.32051	6.148715	0	0
33.52477	-0.05942993	0.06206763	1.88576	-0.575681	42.46916	-14.28061	0	0
33.54134	-0.05318663	0.05784624	0.3768463	-0.2548039	-45.5391	9.684092	0	0
33.5579	-0.05087711	0.05617866	0.1394031	-0.100655	-7.16605	4.652224	0	0
33.57505	-0.05176949	0.05677166	-0.05204285	0.03458291	-5.678481	4.011292	0	0
33.59104	-0.05208443	0.05680872	-0.01969925	0.002318025	0.9761318	-0.9737563	0	0
33.6076	-0.05229438	0.05666048	-0.01267575	-0.008949874	0.2157706	-0.3461634	0	0
33.62417	-0.0524256	0.05660489	-0.007920207	-0.003355345	0.143539	0.1688626	0	0
33.64074	-0.05247809	0.05656783	-0.003168263	-0.002237122	0.143414	0.03374806	0	0
33.65761	-0.05255682	0.05651223	-0.004666216	-0.003294877	-0.04479573	-0.03163179	0	0
33.74017	-0.05510206	0.05471432	-0.03082839	-0.02177667	-0.2631112	-0.1858701	0	0
33.75671	-0.05510206	0.05471432	0	0	0.3110892	0.2197484	0	0
33.77327	-0.05510206	0.05471432	0	0	0	0	0	0
33.79021	-0.05510206	0.05471432	0	0	0	0	0	0
33.8064	-0.05510206	0.05471432	0	0	0	0	0	0
33.82297	-0.05515453	0.05471432	-0.003167363	0	-0.09667078	0	0	0
33.83974	-0.05512829	0.05469578	0.001564588	-0.00110563	0.1419445	-0.03316562	0	0
33.85625	-0.05518077	0.0546587	-0.003178115	-0.002245778	-0.1425116	-0.03425983	0	0
33.88924	-0.055207	0.05464016	-0.0007954122	-0.0005620853	0.0481396	0.03401694	0	0
33.9058	-0.05523324	0.0546587	-0.001583457	0.001119123	-0.01590309	0.03392754	0	0
33.92557	-0.055207	0.05464016	0.001327085	-0.0009379297	0.080103	-0.05661355	0	0
33.94231	-0.05523324	0.0546587	-0.001567218	0.001107646	-0.07928152	0.05603296	0	0
33.95871	-0.05523324	0.0546587	0	0	0.04729874	-0.03342883	0	0
33.97533	-0.055207	0.05464016	0.001578007	-0.001115271	0.04778939	-0.03377561	0	0
33.99184	-0.05523324	0.0546587	-0.001588945	0.001123002	-0.09557878	0.06755121	0	0
34.00841	-0.05523324	0.0546587	0	0	0.04803741	-0.03395089	0	0
34.02498	-0.05523324	0.0546587	0	0	0	0	0	0
34.04154	-0.05523324	0.0546587	0	0	0	0	0	0
34.05811	-0.05523324	0.0546587	0	0	0	0	0	0
34.07467	-0.05523324	0.0546587	0	0	0	0	0	0
34.09142	-0.05523324	0.0546587	0	0	0	0	0	0
34.10793	-0.055207	0.05464016	0.001588578	-0.001122742	0.04776739	-0.03376006	0	0
34.12444	-0.055207	0.05464016	0	0	-0.04810954	0.03400187	0	0
34.14094	-0.055207	0.05464016	0	0	0	0	0	0
34.15751	-0.055207	0.05464016	0	0	0	0	0	0
34.17407	-0.055207	0.05464016	0	0	0	0	0	0
34.19064	-0.055207	0.05464016	0	0	0	0	0	0
34.20721	-0.055207	0.05464016	0	0	0	0	0	0
34.22404	-0.05518077	0.05462162	0.001558208	-0.001100901	0.04664553	-0.03295586	0	0
34.24052	-0.05518077	0.05462162	0	0	-0.04677907	0.03305022	0	0
34.2569	-0.05518077	0.05462162	0	0	0	0	0	0
34.27347	-0.05518077	0.05462162	0	0	0	0	0	0
34.29005	-0.05518077	0.05462162	0	0	0	0	0	0
34.32317	-0.05518077	0.05462162	0	0	0	0	0	0
34.33973	-0.055207	0.05464016	-0.001583682	0.001118898	-0.03187352	0.02251919	0	0
34.3563	-0.055207	0.05464016	0	0	0.04779561	-0.03376842	0	0
34.37287	-0.055207	0.05464016	0	0	0	0	0	0
34.38962	-0.055207	0.05464016	0	0	0	0	0	0
34.406	-0.055207	0.05464016	0	0	0	0	0	0
34.42257	-0.055207	0.05464016	0	0	0	0	0	0
34.4557	-0.055207	0.05464016	0	0	0	0	0	0
34.47227	-0.055207	0.05464016	0	0	0	0	0	0
34.48884	-0.055207	0.05464016	0	0	0	0	0	0
34.50541	-0.055207	0.05464016	0	0	0	0	0	0
34.52222	-0.055207	0.05464016	0	0	0	0	0	0
34.53854	-0.055207	0.05464016	0	0	0	0	0	0
34.55511	-0.055207	0.05464016	0	0	0	0	0	0
34.57167	-0.055207	0.05464016	0	0	0	0	0	0
34.58826	-0.055207	0.05464016	0	0	0	0	0	0
34.60481	-0.055207	0.05464016	0	0	0	0	0	0
34.62138	-0.055207	0.05464016	0	0	0	0	0	0
34.63794	-0.055207	0.05464016	0	0	0	0	0	0
34.65482	-0.055207	0.05464016	0	0	0	0	0	0
34.67532	-0.055207	0.05464016	0	0	0	0	0	0
34.69188	-0.055207	0.05464016	0	0	0	0	0	0
34.70845	-0.055207	0.05464016	0	0	0	0	0	0
34.72501	-0.055207	0.05464016	0	0	0	0	0	0
34.79128	-0.05518077	0.05462162	0.0003959432	-0.0002797407	0.004780276	-0.003377347	0	0
34.80792	-0.05518077	0.05462162	0	0	-0.004775657	0.003374084	0	0
34.82441	-0.05518077	0.05462162	0	0	0	0	0	0
34.84144	-0.05515453	0.05460308	0.001540536	-0.001088788	0.04595906	-0.032482	0	0
34.85755	-0.05515453	0.05460308	0	0	-0.04648812	0.03285592	0	0
34.87411	-0.05515453	0.05460308	0	0	0	0	0	0
34.89068	-0.05515453	0.05460308	0	0	0	0	0	0
34.90749	-0.05515453	0.05460308	0	0	0	0	0	0
34.92382	-0.05515453	0.05460308	0	0	0	0	0	0
34.94052	-0.05515453	0.05460308	0	0	0	0	0	0
34.95702	-0.05515453	0.05460308	0	0	0	0	0	0
34.97354	-0.05515453	0.05460308	0	0	0	0	0	0
34.99008	-0.05512829	0.05458454	0.001586238	-0.00112093	0.04798879	-0.03391172	0	0
35.00706	-0.05512829	0.05458454	0	0	-0.04731174	0.03343327	0	0
35.02321	-0.05515453	0.054566	-0.001624836	-0.001148205	-0.04903764	-0.03465289	0	0
35.03978	-0.05515453	0.054566	0	0	0.04966662	0.03509737	0	0
35.05635	-0.05515453	0.054566	0	0	0	0	0	0
35.07291	-0.05515453	0.054566	0	0	0	0	0	0
35.08948	-0.05515453	0.054566	0	0	0	0	0	0
35.10613	-0.05515453	0.054566	0	0	0	0	0	0
35.12267	-0.05515453	0.054566	0	0	0	0	0	0
35.13918	-0.05515453	0.054566	0	0	0	0	0	0
35.15575	-0.05515453	0.054566	0	0	0	0	0	0
35.17231	-0.05515453	0.054566	0	0	0	0	0	0
35.18888	-0.05515453	0.054566	0	0	0	0	0	0
35.2117	-0.05515453	0.054566	0	0	0	0	0	0
35.22827	-0.05515453	0.054566	0	0	0	0	0	0
35.24483	-0.05515453	0.054566	0	0	0	0	0	0
35.2614	-0.05515453	0.054566	0	0	0	0	0	0
35.27797	-0.05515453	0.054566	0	0	0	0	0	0
35.29453	-0.05515453	0.054566	0	0	0	0	0	0
35.3111	-0.05515453	0.054566	0	0	0	0	0	0
35.32779	-0.05515453	0.054566	0	0	0	0	0	0
35.36431	-0.05515453	0.054566	0	0	0	0	0	0
35.38045	-0.05515453	0.054566	0	0	0	0	0	0
35.39734	-0.05515453	0.054566	0	0	0	0	0	0
35.41359	-0.05512829	0.05454746	0.001614537	-0.001140928	0.04872684	-0.03443326	0	0
35.43036	-0.05512829	0.05454746	0	0	-0.04888442	0.03454462	0	0
35.44687	-0.05512829	0.05454746	0	0	0	0	0	0
35.46338	-0.05512829	0.05454746	0	0	0	0	0	0
35.4799	-0.05512829	0.05454746	0	0	0	0	0	0
35.49642	-0.05512829	0.05454746	0	0	0	0	0	0
35.51299	-0.05512829	0.05454746	0	0	0	0	0	0
35.52955	-0.05515453	0.054566	-0.001583682	0.001119123	-0.04779561	0.0337752	0	0
35.54612	-0.05515453	0.054566	0	0	0.04780111	-0.03377909	0	0
35.56268	-0.05515453	0.054566	0	0	0	0	0	0
35.57925	-0.05515453	0.054566	0	0	0	0	0	0
35.59597	-0.05515453	0.054566	0	0	0	0	0	0
35.61248	-0.05515453	0.054566	0	0	0	0	0	0
35.67865	-0.05512829	0.05454746	0.0003965139	-0.0002802001	0.00479578	-0.003388981	0	0
35.69522	-0.05512829	0.05454746	0	0	-0.004792463	0.003386637	0	0
35.71206	-0.05512829	0.05454746	0	0	0	0	0	0
35.72836	-0.05512829	0.05454746	0	0	0	0	0	0
35.74492	-0.05512829	0.05454746	0	0	0	0	0	0
35.76149	-0.05512829	0.05454746	0	0	0	0	0	0
35.77805	-0.05512829	0.05454746	0	0	0	0	0	0
35.79462	-0.05512829	0.05454746	0	0	0	0	0	0
35.81119	-0.05512829	0.05454746	0	0	0	0	0	0
35.82775	-0.05515453	0.05452892	-0.001583682	-0.001118898	-0.04779561	-0.03376842	0	0
35.84432	-0.05512829	0.05451038	0.001583682	-0.001119123	0.09559122	-6.784417E-06	0	0
35.86089	-0.05512829	0.05451038	0	0	-0.04779561	0.0337752	0	0
35.87768	-0.05512829	0.05451038	0	0	0	0	0	0
35.89402	-0.05512829	0.05451038	0	0	0	0	0	0
35.9107	-0.05512829	0.05451038	0	0	0	0	0	0
35.92722	-0.05512829	0.05451038	0	0	0	0	0	0
35.94373	-0.05512829	0.05451038	0	0	0	0	0	0
35.96029	-0.05512829	0.05451038	0	0	0	0	0	0
35.97686	-0.05512829	0.05451038	0	0	0	0	0	0
35.99343	-0.05512829	0.05451038	0	0	0	0	0	0
36.00999	-0.05515453	0.05452892	-0.001583682	0.001119123	-0.04779561	0.0337752	0	0
36.02656	-0.05515453	0.05452892	0	0	0.04779561	-0.0337752	0	0
36.0433	-0.05515453	0.05452892	0	0	0	0	0	0
36.05981	-0.05515453	0.05452892	0	0	0	0	0	0
36.07632	-0.05515453	0.05452892	0	0	0	0	0	0
36.09284	-0.05515453	0.05452892	0	0	0	0	0	0
36.1094	-0.05515453	0.05452892	0	0	0	0	0	0
36.14253	-0.05515453	0.05452892	0	0	0	0	0	0
36.15939	-0.05515453	0.05452892	0	0	0	0	0	0
36.17815	-0.05515453	0.05452892	0	0	0	0	0	0
36.19473	-0.05515453	0.05452892	0	0	0	0	0	0
36.21129	-0.05515453	0.05452892	0	0	0	0	0	0
36.22786	-0.05515453	0.05452892	0	0	0	0	0	0
36.24442	-0.05515453	0.05452892	0	0	0	0	0	0
36.26099	-0.05515453	0.05452892	0	0	0	0	0	0
36.27756	-0.05515453	0.05452892	0	0	0	0	0	0
36.29412	-0.05515453	0.05452892	0	0	0	0	0	0
36.31099	-0.05515453	0.05452892	0	0	0	0	0	0
36.32726	-0.05512829	0.05451038	0.001613401	-0.001140125	0.04869816	-0.03441299	0	0
36.34402	-0.05512829	0.05451038	0	0	-0.04885566	0.0345243	0	0
36.36039	-0.05512829	0.05451038	0	0	0	0	0	0
36.37704	-0.05512829	0.05451038	0	0	0	0	0	0
36.42665	-0.05512829	0.05451038	0	0	0	0	0	0
36.44322	-0.05512829	0.05451038	0	0	0	0	0	0
36.45979	-0.05512829	0.05451038	0	0	0	0	0	0
36.47636	-0.05512829	0.05451038	0	0	0	0	0	0
36.49292	-0.05512829	0.05451038	0	0	0	0	0	0
36.50964	-0.05515453	0.05449184	-0.001569945	-0.001109416	-0.04717465	-0.0333364	0	0
36.52615	-0.05515453	0.05449184	0	0	0.04725048	0.03338998	0	0
36.54266	-0.05515453	0.05449184	0	0	0	0	0	0
36.55919	-0.05515453	0.05449184	0	0	0	0	0	0
36.57576	-0.05515453	0.05449184	0	0	0	0	0	0
36.59232	-0.05515453	0.05449184	0	0	0	0	0	0
36.60889	-0.05515453	0.05449184	0	0	0	0	0	0
36.62546	-0.05515453	0.05449184	0	0	0	0	0	0
36.64223	-0.05515453	0.05449184	0	0	0	0	0	0
36.65874	-0.05515453	0.05449184	0	0	0	0	0	0
36.67525	-0.05515453	0.05449184	0	0	0	0	0	0
36.69172	-0.05515453	0.05449184	0	0	0	0	0	0
36.70829	-0.05515453	0.05449184	0	0	0	0	0	0
36.72486	-0.05518077	0.0544733	-0.001583457	-0.001119123	-0.04778882	-0.0337752	0	0
36.74142	-0.05515453	0.05445476	0.001583457	-0.001119123	0.09557765	0	0	0
36.75799	-0.05515453	0.05445476	0	0	-0.04778882	0.0337752	0	0
36.77482	-0.05515453	0.05445476	0	0	0	0	0	0
36.79133	-0.05515453	0.05445476	0	0	0	0	0	0
36.80769	-0.05515453	0.05445476	0	0	0	0	0	0
36.82436	-0.05515453	0.05445476	0	0	0	0	0	0
36.84087	-0.05515453	0.05445476	0	0	0	0	0	0
36.85739	-0.05515453	0.05445476	0	0	0	0	0	0
36.87439	-0.05515453	0.05445476	0	0	0	0	0	0
36.89052	-0.05515453	0.05445476	0	0	0	0	0	0
36.90709	-0.05515453	0.05445476	0	0	0	0	0	0
36.92392	-0.05515453	0.05445476	0	0	0	0	0	0
36.94022	-0.05515453	0.05445476	0	0	0	0	0	0
