Time	Pos X	Pos Y	Vel X	Vel Y	Acc X	Acc YForce X	Force Y
0.01684346	-0.1517712	0.3525501	0.002309218	-0.005364095	-3.514391E-05	8.163597E-05	0	0
0.04318435	-0.1517712	0.3525501	0	0	3.514914E-05	-8.164811E-05	0	0
0.05975464	-0.1517969	0.3525322	-0.00155214	-0.001077326	-0.036171	-0.02510594	0	0
0.07638691	-0.1517969	0.3525322	0	0	0.04674762	0.03244707	0	0
0.09288613	-0.1517969	0.3525322	0	0	0	0	0	0
0.1094541	-0.1518226	0.3525144	-0.001551463	-0.00107748	-0.04691856	-0.0325846	0	0
0.1260184	-0.1518483	0.3524965	-0.001552694	-0.00107951	-3.717795E-05	-6.126755E-05	0	0
0.1425848	-0.1518741	0.3524787	-0.00155251	-0.001077582	5.56589E-06	5.816777E-05	0	0
0.1591519	-0.1518998	0.3524608	-0.001551537	-0.001077531	2.938011E-05	1.552979E-06	0	0
0.1759539	-0.1519769	0.3524072	-0.004591314	-0.003189176	-0.09109546	-0.06328137	0	0
0.192285	-0.1520798	0.3523358	-0.006297681	-0.004374251	-0.05150042	-0.03576714	0	0
0.2089784	-0.1539819	0.35105	-0.1139439	-0.07702367	-3.259586	-2.199863	0	0
0.2254891	-0.1596301	0.3472284	-0.342098	-0.231463	-6.871253	-4.651207	0	0
0.2420033	-0.1677763	0.3418355	-0.4932781	-0.3265614	-4.577763	-2.879596	0	0
0.2585515	-0.1735521	0.3385855	-0.3490289	-0.1963963	4.362939	3.93695	0	0
0.2751182	-0.1799021	0.3387105	-0.3833036	0.007544699	-1.035025	6.158586	0	0
0.2920379	-0.1916451	0.340639	-0.6940424	0.113984	-9.279561	3.178585	0	0
0.3082521	-0.198711	0.342264	-0.4357854	0.1002207	7.79435	-0.415382	0	0
0.3248188	-0.2066897	0.3425855	-0.4816114	0.01940322	-1.397944	-2.465381	0	0
0.3415707	-0.2088566	0.3427998	-0.1293498	0.01279132	10.57252	-0.1984449	0	0
0.3579515	-0.2088566	0.3427998	0	0	3.903991	-0.3860632	0	0
0.3745944	-0.2088818	0.3427819	-0.001513133	-0.001072623	-0.04581954	-0.03248036	0	0
0.3911075	-0.2088818	0.3427819	0	0	0.04563681	0.03235082	0	0
0.4081195	-0.2088818	0.3427819	0	0	0	0	0	0
0.4242189	-0.2088818	0.3427819	0	0	0	0	0	0
0.4407856	-0.2089069	0.3427998	-0.001520093	0.001077557	-0.04653433	0.03298706	0	0
0.4573519	-0.2089069	0.3427998	0	0	0.04587844	-0.03252211	0	0
0.4739183	-0.2089069	0.3427998	0	0	0	0	0	0
0.4904866	-0.2089069	0.3427998	0	0	0	0	0	0
0.5070521	-0.2088818	0.3427819	0.0015202	-0.001077633	0.04588055	-0.03252361	0	0
0.5236189	-0.2088818	0.3427819	0	0	-0.04588269	0.03252513	0	0
0.5401848	-0.2088818	0.3427819	0	0	0	0	0	0
0.5567515	-0.2088566	0.342764	0.00152009	-0.001077555	0.04587889	-0.03252244	0	0
0.5733187	-0.2088818	0.3427462	-0.001520058	-0.001079331	-0.0917535	-5.358767E-05	0	0
0.6079384	-0.2094609	0.342264	-0.01672928	-0.01392679	-0.2971314	-0.2509913	0	0
0.6247704	-0.2124803	0.3401212	-0.179385	-0.127308	-3.161326	-2.203641	0	0
0.6410726	-0.2165001	0.3372283	-0.2465778	-0.1774513	-2.027896	-1.51334	0	0
0.6577941	-0.2183819	0.3359247	-0.1125392	-0.07795858	4.058858	3.012766	0	0
0.6743056	-0.2218905	0.3334247	-0.2124913	-0.1514118	-3.007623	-2.210255	0	0
0.6908233	-0.2217652	0.333514	0.007580596	0.005405562	6.662951	4.747841	0	0
0.7073399	-0.2217652	0.333514	0	0	-0.2294759	-0.1636344	0	0
0.7239055	-0.2217652	0.333514	0	0	0	0	0	0
0.7404723	-0.2217652	0.333514	0	0	0	0	0	0
0.7570386	-0.2217652	0.333514	0	0	0	0	0	0
0.8398746	-0.2217903	0.3335319	-0.0003023908	0.0002155051	-0.003042088	0.002168008	0	0
0.8564402	-0.2217402	0.3335676	0.003023308	0.002155266	0.0334572	0.01951438	0	0
0.8730073	-0.2216901	0.3336033	0.003023026	0.002156863	-8.531048E-06	4.820674E-05	0	0
0.8895736	-0.2216901	0.3336033	0	0	-0.09123789	-0.06509624	0	0
0.9061388	-0.2216651	0.3336211	0.001512142	0.00107766	0.04564064	0.03252677	0	0
0.9227055	-0.2216651	0.3336211	0	0	-0.04564007	-0.03252636	0	0
0.9392723	-0.221615	0.3336211	0.003023091	0	0.09123969	0	0	0
0.9558394	-0.221615	0.3336211	0	0	-0.09123871	0	0	0
0.9725174	-0.221615	0.3336211	0	0	0	0	0	0
0.9890285	-0.22159	0.3336033	0.001517093	-0.001081188	0.04571056	-0.03257659	0	0
1.005541	-0.2215399	0.3336033	0.003033978	0	0.04593379	0.03274017	0	0
1.022554	-0.2215148	0.3335854	0.001471443	-0.001051031	-0.04660749	-0.03135028	0	0
1.038672	-0.2215148	0.3335854	0	0	-0.04441225	0.03172303	0	0
1.055239	-0.2215148	0.3335854	0	0	0	0	0	0
1.072088	-0.2214898	0.3335676	0.001486632	-0.001059479	0.04448842	-0.03170561	0	0
1.088372	-0.2214898	0.3335676	0	0	-0.04486841	0.03197642	0	0
1.104939	-0.2215148	0.3335854	-0.001511995	0.001077555	-0.04602655	0.03280179	0	0
1.121624	-0.2215148	0.3335854	0	0	0.04547146	-0.03240619	0	0
1.138072	-0.2215148	0.3335854	0	0	0	0	0	0
1.154639	-0.2215148	0.3335854	0	0	0	0	0	0
1.171658	-0.2215148	0.3335854	0	0	0	0	0	0
1.187772	-0.2215148	0.3335854	0	0	0	0	0	0
1.204339	-0.2215148	0.3335854	0	0	0	0	0	0
1.220906	-0.2215148	0.3335854	0	0	0	0	0	0
1.237473	-0.2215148	0.3335854	0	0	0	0	0	0
1.25404	-0.2215148	0.3335854	0	0	0	0	0	0
1.270728	-0.2215148	0.3335854	0	0	0	0	0	0
1.28724	-0.2215148	0.3335854	0	0	0	0	0	0
1.303751	-0.2214898	0.3335676	0.001517093	-0.001081188	0.04594001	-0.03274011	0	0
1.320306	-0.2214898	0.3335676	0	0	-0.04588071	0.03269786	0	0
1.353562	-0.2214898	0.3335676	0	0	0	0	0	0
1.370302	-0.2214647	0.3335497	0.001496276	-0.001066352	0.02992754	-0.02132849	0	0
1.403322	-0.2213896	0.3334961	0.002275402	-0.001622837	0.01565773	-0.01118341	0	0
1.419834	-0.2213395	0.3334604	0.003033836	-0.002162127	0.01531198	-0.01088769	0	0
1.436395	-0.2212643	0.3334068	0.004537618	-0.003235629	0.0454675	-0.03245778	0	0
1.452963	-0.2212393	0.333389	0.001511886	-0.001077478	-0.09133254	0.06514437	0	0
1.469528	-0.2212393	0.333389	0	0	-0.04563063	0.03251963	0	0
1.486097	-0.2212393	0.333389	0	0	0	0	0	0
1.502662	-0.2212393	0.333389	0	0	0	0	0	0
1.535795	-0.2212393	0.333389	0	0	0	0	0	0
1.55243	-0.2212393	0.333389	0	0	0	0	0	0
1.56894	-0.2212393	0.333389	0	0	0	0	0	0
1.585496	-0.2212142	0.3333711	0.00151304	-0.0010783	0.04575815	-0.03261051	0	0
1.602062	-0.2212142	0.3333711	0	0	-0.04568074	0.03255534	0	0
1.618975	-0.2212142	0.3333711	0	0	0	0	0	0
1.635195	-0.2212142	0.3333711	0	0	0	0	0	0
1.651762	-0.2212142	0.3333711	0	0	0	0	0	0
1.668329	-0.2211892	0.3333533	0.001511995	-0.001077555	0.04563342	-0.03252162	0	0
1.684898	-0.2211892	0.3333533	0	0	-0.04563079	0.03251975	0	0
1.718029	-0.2211642	0.3333354	0.0007560411	-0.0005388086	0.01521202	-0.01084116	0	0
1.734596	-0.2211642	0.3333354	0	0	-0.01521249	0.0108415	0	0
1.751162	-0.2211642	0.3333354	0	0	0	0	0	0
1.76773	-0.2211642	0.3333354	0	0	0	0	0	0
1.784296	-0.2211642	0.3333354	0	0	0	0	0	0
1.801105	-0.2211642	0.3333354	0	0	0	0	0	0
1.817431	-0.2211642	0.3333354	0	0	0	0	0	0
1.834128	-0.2211642	0.3333354	0	0	0	0	0	0
1.850563	-0.2211642	0.3333354	0	0	0	0	0	0
1.867131	-0.2211642	0.3333354	0	0	0	0	0	0
1.883698	-0.2211642	0.3333354	0	0	0	0	0	0
1.900265	-0.2211642	0.3333354	0	0	0	0	0	0
1.916831	-0.2211391	0.3333175	0.001512071	-0.001079408	0.04563687	-0.03257837	0	0
1.933422	-0.2211391	0.3333175	0	0	-0.04560323	0.03255436	0	0
1.969575	-0.2211391	0.3333175	0	0	0	0	0	0
1.986241	-0.2211391	0.3333175	0	0	0	0	0	0
2.002747	-0.2211391	0.3333175	0	0	0	0	0	0
2.019275	-0.2211391	0.3333175	0	0	0	0	0	0
2.035842	-0.2211391	0.3333175	0	0	0	0	0	0
2.052408	-0.2211141	0.3332997	0.001512104	-0.001077633	0.04563769	-0.03252466	0	0
2.069294	-0.2211141	0.3332997	0	0	-0.0452028	0.03221473	0	0
2.085541	-0.2211141	0.3332997	0	0	0	0	0	0
2.102315	-0.2211141	0.3332997	0	0	0	0	0	0
2.118675	-0.2211141	0.3332997	0	0	0	0	0	0
2.135241	-0.2211391	0.3332818	-0.001512039	-0.001077586	-0.04592222	-0.03272744	0	0
2.151852	-0.2211141	0.333264	0.001508002	-0.001074709	0.09102842	8.671261E-05	0	0
2.168375	-0.2210389	0.3332104	0.004548931	-0.003243052	0.09177804	-0.06544261	0	0
2.185374	-0.2209637	0.3331569	0.004420644	-0.003150465	-0.003826945	0.002761992	0	0
2.201508	-0.2207383	0.3329604	0.01397437	-0.0121762	0.2883403	-0.2724051	0	0
2.218075	-0.2203123	0.3326211	0.02571201	-0.02047895	0.3589356	-0.2538969	0	0
2.234642	-0.2185073	0.3312282	0.1089487	-0.08407567	2.512123	-1.919381	0	0
2.251208	-0.2152447	0.3287638	0.1969483	-0.148763	2.655931	-1.952338	0	0
2.267933	-0.2115749	0.3259779	0.2194164	-0.1665716	0.6748973	-0.5349367	0	0
2.284342	-0.2030823	0.3182088	0.5175743	-0.4734823	8.998681	-9.26285	0	0
2.300908	-0.201744	0.3077943	0.08078606	-0.6286374	-13.24596	-4.705207	0	0
2.317475	-0.2031076	0.2908518	-0.08231302	-1.022708	-4.922553	-11.8936	0	0
2.334041	-0.2045461	0.2785656	-0.08683224	-0.7416206	-0.1363963	8.483613	0	0
2.350608	-0.2066393	0.263477	-0.1263519	-0.9107996	-1.192758	-5.106053	0	0
2.367175	-0.2075214	0.2561148	-0.0532448	-0.4443843	2.206441	14.07685	0	0
2.384015	-0.2091336	0.245108	-0.0957334	-0.6536021	-1.27183	-6.262609	0	0
2.400527	-0.2110466	0.2296367	-0.1158597	-0.9370072	-0.603458	-8.497483	0	0
2.416875	-0.2121786	0.2170726	-0.06924038	-0.7685194	1.418735	5.127476	0	0
2.43355	-0.2140137	0.1993365	-0.1100533	-1.063639	-1.235879	-8.936705	0	0
2.450008	-0.2153703	0.1808178	-0.08242311	-1.12519	0.8339096	-1.857672	0	0
2.466575	-0.2157469	0.1762798	-0.02273749	-0.2739176	1.807284	25.77659	0	0
2.483142	-0.2171777	0.152888	-0.08636542	-1.411973	-1.92035	-34.34758	0	0
2.499708	-0.2183318	0.1343766	-0.06966172	-1.117416	0.5041403	8.890153	0	0
2.516611	-0.218733	0.1211358	-0.02373933	-0.7833561	1.372089	9.981171	0	0
2.532842	-0.2191593	0.1082811	-0.02626177	-0.7919714	-0.07612839	-0.2600145	0	0
2.549408	-0.2195353	0.09616259	-0.02269947	-0.7315146	0.1086147	1.843332	0	0
2.566145	-0.2199364	0.08115748	-0.02396155	-0.8965114	-0.03789643	-4.954339	0	0
2.599674	-0.2207132	0.05856863	-0.02316879	-0.6737099	0.0157713	4.432426	0	0
2.616073	-0.2210138	0.0535647	-0.01833264	-0.3051424	0.09686296	7.382023	0	0
2.632641	-0.2206882	0.04630687	0.01965779	-0.4380777	1.152408	-4.032479	0	0
2.649207	-0.2209136	0.03821604	-0.01361124	-0.4883987	-1.00409	-1.518736	0	0
2.665774	-0.2224663	0.03333446	-0.09372032	-0.2946523	-2.417784	5.847489	0	0
2.68234	-0.2270179	0.02900643	-0.2747552	-0.2612596	-5.463839	1.007829	0	0
2.69891	-0.2261934	0.02753148	0.04976492	-0.08901538	9.793683	5.198154	0	0
2.715473	-0.224068	0.02594383	0.1283133	-0.09584971	2.370663	-0.2062664	0	0
2.73204	-0.2234425	0.02547674	0.03775671	-0.0281943	-2.733318	2.042079	0	0
2.748607	-0.2234175	0.02545806	0.001510196	-0.001127925	-1.093953	0.8168884	0	0
2.765173	-0.2234175	0.02545806	0	0	-0.04557978	0.03404231	0	0
2.781742	-0.2234175	0.02545806	0	0	0	0	0	0
2.798308	-0.2234175	0.02545806	0	0	0	0	0	0
2.815322	-0.2234175	0.02545806	0	0	0	0	0	0
2.83144	-0.2234175	0.02545806	0	0	0	0	0	0
2.848007	-0.2234175	0.02545806	0	0	0	0	0	0
2.864574	-0.2234175	0.02545806	0	0	0	0	0	0
2.881141	-0.2234175	0.02545806	0	0	0	0	0	0
2.897707	-0.2234175	0.02545806	0	0	0	0	0	0
2.914274	-0.2234175	0.02545806	0	0	0	0	0	0
2.93084	-0.2234175	0.02545806	0	0	0	0	0	0
2.947407	-0.2234175	0.02545806	0	0	0	0	0	0
2.963974	-0.2233924	0.02543937	0.001511052	-0.00112778	0.0456043	-0.03403696	0	0
2.980541	-0.2233924	0.02543937	0	0	-0.04560529	0.0340377	0	0
2.997107	-0.2233924	0.02543937	0	0	0	0	0	0
3.013674	-0.2233924	0.02543937	0	0	0	0	0	0
3.030241	-0.2233924	0.02543937	0	0	0	0	0	0
3.046808	-0.2233924	0.02543937	0	0	0	0	0	0
3.063375	-0.2233924	0.02543937	0	0	0	0	0	0
3.080008	-0.2233924	0.02543937	0	0	0	0	0	0
3.09652	-0.2233924	0.02543937	0	0	0	0	0	0
3.113076	-0.2233924	0.02543937	0	0	0	0	0	0
3.129643	-0.2233924	0.02543937	0	0	0	0	0	0
3.146557	-0.2233924	0.02543937	0	0	0	0	0	0
3.162775	-0.2233924	0.02543937	0	0	0	0	0	0
3.179579	-0.2233924	0.02543937	0	0	0	0	0	0
3.195908	-0.2233924	0.02543937	0	0	0	0	0	0
3.212475	-0.2233924	0.02543937	0	0	0	0	0	0
3.246271	-0.2233924	0.02543937	0	0	0	0	0	0
3.316175	-0.2233924	0.02543937	0	0	0	0	0	0
3.332659	-0.2233924	0.02543937	0	0	0	0	0	0
3.349225	-0.2233924	0.02543937	0	0	0	0	0	0
3.36621	-0.2233924	0.02543937	0	0	0	0	0	0
3.382358	-0.2233924	0.02543937	0	0	0	0	0	0
3.448625	-0.2233674	0.0255328	0.0003775491	0.001409794	0.004581053	0.01710596	0	0
3.465281	-0.2234175	0.02609329	-0.003005203	0.03365208	-0.04079416	0.3888246	0	0
3.481793	-0.2234925	0.02723268	-0.004545438	0.0690013	-0.04643726	1.06576	0	0
3.498325	-0.2256435	0.02924908	-0.1301136	0.1219754	-3.800046	1.603144	0	0
3.515316	-0.2296395	0.03253267	-0.2351759	0.193245	-3.134027	2.125986	0	0
3.531458	-0.2353708	0.03760153	-0.3550609	0.3140236	-3.618242	3.645213	0	0
3.548339	-0.2430706	0.04727289	-0.4561245	0.5729143	-3.060433	7.839792	0	0
3.564596	-0.2475281	0.05651223	-0.2741921	0.5683365	5.490177	-0.138143	0	0
3.581362	-0.2500002	0.0713466	-0.1474399	0.8847595	3.838259	9.581792	0	0
3.597725	-0.2501237	0.07937035	-0.00754794	0.4903838	4.222676	-11.90434	0	0
3.614385	-0.2496296	0.09596066	0.02965799	0.9957758	1.126671	15.3043	0	0
3.630898	-0.2486656	0.1124722	0.05837418	0.9999328	0.8656412	0.1253099	0	0
3.647425	-0.2479486	0.1241481	0.04338728	0.7064762	-0.4536048	-8.881974	0	0
3.663992	-0.2466374	0.1355058	0.07914454	0.6855751	1.080486	-0.6315713	0	0
3.680559	-0.2441612	0.1500189	0.1494673	0.8760136	2.122377	5.747529	0	0
3.697127	-0.2435416	0.1536323	0.03739423	0.2180939	-3.382301	-19.85563	0	0
3.713694	-0.2399942	0.171775	0.2141304	1.095126	5.333869	26.4687	0	0
3.730469	-0.2390008	0.178974	0.05921614	0.4291318	-4.646135	-19.97428	0	0
3.746825	-0.2355201	0.197786	0.2128134	1.15019	4.636008	21.76363	0	0
3.779958	-0.2319339	0.2222334	0.1082349	0.7378442	-2.113165	-8.332075	0	0
3.796525	-0.2294149	0.2392417	0.1520486	1.026653	0.8815584	5.811007	0	0
3.813092	-0.2274176	0.2521901	0.1205586	0.7815693	-0.9503849	-7.396741	0	0
3.829661	-0.2247183	0.2692422	0.162916	1.029177	1.278296	7.472491	0	0
3.846226	-0.2225164	0.2811952	0.1329251	0.7215796	-0.9051493	-9.283508	0	0
3.862793	-0.2206631	0.2887063	0.1118688	0.4533845	-0.635531	-8.094784	0	0
3.87936	-0.2160231	0.3029164	0.280065	0.8577113	5.076209	12.2027	0	0
3.896088	-0.2111221	0.3117961	0.2929904	0.5308362	0.3882071	-9.817497	0	0
3.912491	-0.2036377	0.3209951	0.4562773	0.5608031	4.928538	0.9044984	0	0
3.929059	-0.198711	0.3260136	0.2973699	0.3029149	-4.819658	-7.821746	0	0
3.963631	-0.1888539	0.3330318	0.285118	0.2030028	-0.2395784	-1.953712	0	0
3.980119	-0.1868982	0.3344426	0.1186104	0.08556323	-3.261021	-2.300033	0	0
3.996686	-0.1868728	0.3344247	0.001533516	-0.001077509	-3.541847	-2.621084	0	0
4.013258	-0.1868982	0.3344426	-0.001533075	0.001077199	-0.09253525	0.06501891	0	0
4.029819	-0.1871015	0.3348354	-0.0122729	0.0237216	-0.3241401	0.6834341	0	0
4.046386	-0.1885746	0.3365855	-0.08891809	0.1056346	-2.313623	2.472637	0	0
4.062954	-0.1905036	0.3382998	-0.1164322	0.1034717	-0.8303781	-0.06527521	0	0
4.07952	-0.1970666	0.3429605	-0.3961773	0.2813463	-8.442966	5.368419	0	0
4.096087	-0.2022491	0.3466569	-0.3128265	0.2231259	2.515675	-1.757196	0	0
4.112652	-0.2052777	0.3487999	-0.1828207	0.1293572	3.923808	-2.830106	0	0
4.178919	-0.2068158	0.3498892	-0.02321039	0.01643901	1.926898	-1.363207	0	0
4.195492	-0.206841	0.3498713	-0.001520465	-0.001078981	0.2618307	-0.2114691	0	0
4.212054	-0.2068158	0.3498535	0.001521384	-0.001077834	0.09180185	3.461724E-05	0	0
4.228822	-0.2068158	0.3498178	0	-0.002129248	-0.04564548	-0.03154514	0	0
4.245333	-0.2068158	0.3498178	0	0	0	0.06398275	0	0
4.261754	-0.2068158	0.3498178	0	0	0	0	0	0
4.278371	-0.206841	0.3497999	-0.00151632	-0.00107604	-0.04589538	-0.03256917	0	0
4.294888	-0.206841	0.3497642	0	-0.002161706	0.04576328	-0.03276592	0	0
4.311453	-0.2068662	0.3497106	-0.001521977	-0.003234651	-0.04600618	-0.03243289	0	0
4.328021	-0.2068914	0.3496571	-0.001520946	-0.003232572	3.111269E-05	6.272431E-05	0	0
4.344586	-0.2069418	0.3495856	-0.003043054	-0.004312268	-0.0459393	-0.03258668	0	0
4.361153	-0.2069418	0.3494785	0	-0.00646713	0.09184485	-0.06503761	0	0
4.377928	-0.206967	0.3494249	-0.001502985	-0.003194286	-0.04507798	0.09816013	0	0
4.394439	-0.2070426	0.3493356	-0.00457929	-0.005407786	-0.09242015	-0.06649923	0	0
4.410854	-0.2070678	0.349282	-0.00153504	-0.003264343	0.09245711	0.06509864	0	0
4.427421	-0.2070678	0.3492106	0	-0.004312144	0.0465426	-0.03176945	0	0
4.443986	-0.2070426	0.3491927	0.001521121	-0.001077648	0.04591149	0.0976257	0	0
4.460553	-0.2070426	0.349157	0	-0.00215511	-0.04591083	-0.03252022	0	0
4.477119	-0.2070174	0.3491035	0.001521933	-0.003234558	0.04593402	-0.03257918	0	0
4.493686	-0.2069922	0.3490499	0.00152099	-0.003234464	-2.847048E-05	2.810858E-06	0	0
4.510252	-0.2067653	0.3488892	0.0136938	-0.009700075	0.367392	-0.1951409	0	0
4.526819	-0.2063116	0.348532	0.02738872	-0.02155948	0.4133255	-0.3579278	0	0
4.543385	-0.206009	0.3483177	0.01826372	-0.01293501	-0.2754049	0.2602984	0	0
4.559952	-0.2059838	0.3482641	0.001522745	-0.003234371	-0.5052656	0.2927783	0	0
4.576519	-0.2059838	0.3482641	0	0	-0.04595719	0.09761492	0	0
4.593086	-0.2059838	0.3482641	0	0	0	0	0	0
4.609653	-0.2059838	0.3482641	0	0	0	0	0	0
4.626218	-0.2059838	0.3482641	0	0	0	0	0	0
4.642786	-0.2059838	0.3482641	0	0	0	0	0	0
4.659624	-0.206009	0.3482463	-0.001498209	-0.001060162	-0.04484879	-0.03173588	0	0
4.693569	-0.2060342	0.3481927	-0.0007427516	-0.001578567	0.014876	-0.0102081	0	0
4.710159	-0.2060342	0.3481927	0	0	0.01469771	0.03123697	0	0
4.726701	-0.2060342	0.3481927	0	0	0	0	0	0
4.743268	-0.2060847	0.3481927	-0.003043866	0	-0.09193683	0	0	0
4.759834	-0.2060847	0.3481927	0	0	0.09186804	0	0	0
4.776401	-0.2060847	0.3481927	0	0	0	0	0	0
4.89279	-0.2061603	0.3481034	-0.0006498761	-0.0007671508	-0.00488792	-0.005769979	0	0
4.908934	-0.2061855	0.3480856	-0.001561716	-0.001105754	-0.00688009	-0.002554855	0	0
4.925501	-0.2061855	0.3480856	0	0	0.04774278	0.03380369	0	0
4.94207	-0.2061855	0.3480856	0	0	0	0	0	0
4.958634	-0.2061855	0.3480856	0	0	0	0	0	0
4.975348	-0.2061855	0.3480856	0	0	0	0	0	0
4.991858	-0.2061855	0.3480856	0	0	0	0	0	0
5.008381	-0.2061855	0.3480856	0	0	0	0	0	0
5.024901	-0.2062107	0.3481034	-0.001526194	0.001080603	-0.04618826	0.03270303	0	0
5.041894	-0.2061855	0.3481213	0.001483711	0.001052277	0.08981287	-0.0008452243	0	0
5.074601	-0.2061855	0.3481213	0	0	-0.02985375	-0.02117287	0	0
5.091167	-0.2061855	0.3481213	0	0	0	0	0	0
5.107734	-0.2061855	0.3481213	0	0	0	0	0	0
5.124301	-0.2061855	0.3481213	0	0	0	0	0	0
5.140868	-0.2061855	0.3481213	0	0	0	0	0	0
5.157435	-0.2061855	0.3481213	0	0	0	0	0	0
5.174001	-0.2061855	0.3481213	0	0	0	0	0	0
5.190567	-0.2061855	0.3481213	0	0	0	0	0	0
5.207511	-0.2061855	0.3481213	0	0	0	0	0	0
5.223701	-0.2062107	0.3481034	-0.001557346	-0.0011045	-0.04700214	-0.03333485	0	0
5.240268	-0.2061855	0.3480856	0.001521889	-0.001077555	0.09400428	0.000822597	0	0
5.256835	-0.2061855	0.3480856	0	0	-0.04593203	0.03252162	0	0
5.273401	-0.2061855	0.3480856	0	0	0	0	0	0
5.289968	-0.2062107	0.3480677	-0.001521889	-0.001077555	-0.0459327	-0.03252209	0	0
5.306581	-0.2062107	0.3480677	0	0	0.045868	0.03247628	0	0
5.323102	-0.2061855	0.3480498	0.001526106	-0.001080541	0.04605864	-0.03261126	0	0
5.339668	-0.2062107	0.348032	-0.001521889	-0.001077555	-0.09211861	9.023598E-05	0	0
5.356234	-0.2062107	0.348032	0	0	0.04593335	0.03252256	0	0
5.372802	-0.2062359	0.3480498	-0.001521802	0.001077493	-0.04592939	0.03251975	0	0
5.389639	-0.2062359	0.3480498	0	0	0.04555569	-0.03225515	0	0
5.405934	-0.2062359	0.3480498	0	0	0	0	0	0
5.422502	-0.2062359	0.3480498	0	0	0	0	0	0
5.439074	-0.2062359	0.3480498	0	0	0	0	0	0
5.472348	-0.2062359	0.3480498	0	0	0	0	0	0
5.488915	-0.2062359	0.3480498	0	0	0	0	0	0
5.505722	-0.2062359	0.3480498	0	0	0	0	0	0
5.522049	-0.2062359	0.3480498	0	0	0	0	0	0
5.538615	-0.2062107	0.3480677	0.001521933	0.001077586	0.04626895	0.03276017	0	0
5.555256	-0.2062107	0.3480677	0	0	-0.04583112	-0.03245017	0	0
5.571769	-0.2062107	0.3480677	0	0	0	0	0	0
5.588315	-0.2062107	0.3480677	0	0	0	0	0	0
5.605293	-0.2062359	0.3480498	-0.001485044	-0.001051467	-0.04429853	-0.03136503	0	0
5.621448	-0.2062359	0.3480498	0	0	0.04482066	0.03173472	0	0
5.638015	-0.2062359	0.3480498	0	0	0	0	0	0
5.654827	-0.2062612	0.348032	-0.001499702	-0.001061846	-0.04492941	-0.03181172	0	0
5.671148	-0.2063116	0.3479606	-0.003089576	-0.004376899	-0.04798455	-0.1000528	0	0
5.687716	-0.2065385	0.3477284	-0.01369402	-0.0140124	-0.3224278	-0.2929672	0	0
5.704362	-0.2076978	0.3466927	-0.06964915	-0.06222428	-1.684705	-1.45157	0	0
5.720848	-0.2088062	0.3457284	-0.0672317	-0.05849048	0.07296517	0.1126958	0	0
5.737416	-0.209058	0.3448712	-0.01520049	-0.05173617	1.574111	0.2043396	0	0
5.753982	-0.2090329	0.3448533	0.001520222	-0.001077648	0.5046466	1.528921	0	0
5.770548	-0.2090329	0.3448533	0	0	-0.04588369	0.03252583	0	0
5.787421	-0.2090329	0.3448533	0	0	0	0	0	0
5.803932	-0.2090077	0.3448712	0.001525183	0.001081165	0.04568624	0.03238587	0	0
5.820249	-0.2090077	0.3448712	0	0	-0.04646002	-0.03293438	0	0
5.836957	-0.2090077	0.3448712	0	0	0	0	0	0
5.853467	-0.2090077	0.3448712	0	0	0	0	0	0
5.869948	-0.2090077	0.3448712	0	0	0	0	0	0
5.886515	-0.2090077	0.3448712	0	0	0	0	0	0
5.903082	-0.2090077	0.3448712	0	0	0	0	0	0
5.919649	-0.2090077	0.3448712	0	0	0	0	0	0
5.936215	-0.2090077	0.3448712	0	0	0	0	0	0
5.952782	-0.2090077	0.3448712	0	0	0	0	0	0
5.96955	-0.2090077	0.3448355	0	-0.002129248	0	-0.06387567	0	0
5.985915	-0.2089573	0.3447998	0.003077652	-0.002183494	0.09288772	-0.001637213	0	0
6.002573	-0.2086803	0.3446033	0.01663047	-0.01179188	0.4104068	-0.2909615	0	0
6.068748	-0.1879143	0.3239062	0.313799	-0.312759	3.587529	-3.633386	0	0
6.085632	-0.1864155	0.3045246	0.08877835	-1.147969	-2.709157	-10.05558	0	0
6.101882	-0.1865171	0.2865785	-0.006254768	-1.104368	-2.868188	1.315916	0	0
6.118449	-0.1863138	0.2603428	0.01227136	-1.583637	0.5645303	-14.60436	0	0
6.151679	-0.1865679	0.2193207	-0.007647479	-1.234495	-0.4000041	7.011369	0	0
6.168157	-0.1875587	0.1922848	-0.06012718	-1.640676	-1.055752	-8.171288	0	0
6.184716	-0.1887777	0.1726617	-0.07361469	-1.185062	-0.4082526	13.79095	0	0
6.217849	-0.1919494	0.1305866	-0.09572615	-1.269886	-0.444973	-1.707003	0	0
6.234416	-0.1937492	0.1090866	-0.1086388	-1.297776	-0.2598129	-0.5611664	0	0
6.250983	-0.1941039	0.1041412	-0.02141197	-0.2985048	2.632549	30.15849	0	0
6.267761	-0.195649	0.08520803	-0.09208657	-1.128423	-2.119452	-24.88831	0	0
6.284116	-0.1973956	0.06815124	-0.1067938	-1.042938	-0.4438831	2.58006	0	0
6.300786	-0.1987616	0.0559748	-0.08194599	-0.7304516	0.7524084	9.462298	0	0
6.317249	-0.2007587	0.0403939	-0.1213018	-0.9463755	-1.187795	-6.516784	0	0
6.333816	-0.2026279	0.02947306	-0.1128326	-0.6592212	0.2564085	8.693734	0	0
6.350383	-0.2056812	0.01501656	-0.1842936	-0.8725706	-2.156727	-6.438991	0	0
6.36695	-0.2076474	0.004167638	-0.118684	-0.6548613	1.980102	6.57048	0	0
6.383516	-0.208781	-0.006244809	-0.06842852	-0.6285328	1.516778	0.794632	0	0
6.400084	-0.2104175	-0.0201357	-0.09877785	-0.8384558	-0.9159707	-6.335672	0	0
6.41665	-0.2110466	-0.02345199	-0.03797547	-0.2001835	1.835072	19.26365	0	0
6.433216	-0.212078	-0.03555326	-0.06225714	-0.7304758	-0.7328644	-16.00518	0	0
6.449892	-0.2149684	-0.04839103	-0.1733338	-0.7698596	-3.34148	-1.184766	0	0
6.466349	-0.2155209	-0.05275287	-0.03357333	-0.2650358	4.218161	15.23627	0	0
6.482916	-0.2146167	-0.05577938	0.05458024	-0.1826856	2.669354	2.493622	0	0
6.499483	-0.2135362	-0.059519	0.06521989	-0.225724	0.3211101	-1.298919	0	0
6.516049	-0.2118516	-0.06141944	0.101688	-0.1147175	1.100641	3.350279	0	0
6.532616	-0.2116001	-0.06214924	0.01518335	-0.04405331	-2.610865	2.132772	0	0
6.54946	-0.2117007	-0.06218766	-0.005972938	-0.002280544	-0.6332128	1.250269	0	0
6.56575	-0.2117258	-0.06220686	-0.001544113	-0.001179124	0.1336622	0.03324091	0	0
6.582316	-0.2117258	-0.06220686	0	0	0.04699641	0.03588766	0	0
6.598883	-0.2117258	-0.06220686	0	0	0	0	0	0
6.615507	-0.2117258	-0.06220686	0	0	0	0	0	0
6.632017	-0.2117258	-0.06220686	0	0	0	0	0	0
6.648582	-0.2117258	-0.06220686	0	0	0	0	0	0
6.665149	-0.2117258	-0.06220686	0	0	0	0	0	0
6.681716	-0.2117258	-0.06220686	0	0	0	0	0	0
6.698286	-0.2117258	-0.06220686	0	0	0	0	0	0
6.714849	-0.2117258	-0.06220686	0	0	0	0	0	0
6.731416	-0.211751	-0.06222607	-0.001519235	-0.00115944	-0.04585653	-0.03499649	0	0
6.747983	-0.211751	-0.06222607	0	0	0.04585257	0.03499347	0	0
6.764549	-0.211751	-0.06222607	0	0	0	0	0	0
6.781124	-0.211751	-0.06222607	0	0	0	0	0	0
6.797683	-0.211751	-0.06222607	0	0	0	0	0	0
6.814249	-0.211751	-0.06222607	0	0	0	0	0	0
6.863949	-0.211751	-0.06222607	0	0	0	0	0	0
6.880516	-0.211751	-0.06222607	0	0	0	0	0	0
6.904803	-0.211751	-0.06222607	0	0	0	0	0	0
6.921371	-0.211751	-0.06222607	0	0	0	0	0	0
6.937937	-0.211751	-0.06222607	0	0	0	0	0	0
6.954504	-0.211751	-0.06222607	0	0	0	0	0	0
6.971071	-0.211751	-0.06222607	0	0	0	0	0	0
6.98764	-0.211751	-0.06222607	0	0	0	0	0	0
7.004281	-0.211751	-0.06222607	0	0	0	0	0	0
7.020771	-0.211751	-0.06222607	0	0	0	0	0	0
7.037338	-0.211751	-0.06222607	0	0	0	0	0	0
7.053904	-0.211751	-0.06222607	0	0	0	0	0	0
7.070471	-0.211751	-0.06222607	0	0	0	0	0	0
7.087038	-0.211751	-0.06222607	0	0	0	0	0	0
7.103852	-0.211751	-0.06222607	0	0	0	0	0	0
7.120171	-0.211751	-0.06222607	0	0	0	0	0	0
7.136874	-0.211751	-0.06222607	0	0	0	0	0	0
7.153305	-0.211751	-0.06222607	0	0	0	0	0	0
7.169871	-0.211751	-0.06222607	0	0	0	0	0	0
7.186455	-0.211751	-0.06222607	0	0	0	0	0	0
7.203007	-0.211751	-0.06222607	0	0	0	0	0	0
7.219572	-0.211751	-0.06222607	0	0	0	0	0	0
7.236446	-0.211751	-0.06222607	0	0	0	0	0	0
7.252706	-0.211751	-0.06222607	0	0	0	0	0	0
7.269469	-0.211751	-0.06222607	0	0	0	0	0	0
7.28598	-0.211751	-0.06222607	0	0	0	0	0	0
7.318972	-0.211751	-0.06222607	0	0	0	0	0	0
7.335539	-0.211751	-0.06222607	0	0	0	0	0	0
7.352529	-0.211751	-0.06222607	0	0	0	0	0	0
7.368672	-0.211751	-0.06222607	0	0	0	0	0	0
7.385238	-0.211751	-0.06222607	0	0	0	0	0	0
7.402063	-0.211751	-0.06222607	0	0	0	0	0	0
7.418371	-0.211751	-0.06222607	0	0	0	0	0	0
7.434938	-0.211751	-0.06222607	0	0	0	0	0	0
7.451597	-0.211751	-0.06222607	0	0	0	0	0	0
7.468071	-0.211751	-0.06222607	0	0	0	0	0	0
7.550904	-0.2117762	-0.06224528	-0.0003036618	-0.0002318839	-0.003057792	-0.002335008	0	0
7.567472	-0.2117762	-0.06224528	0	0	0.003054946	0.002332835	0	0
7.584038	-0.2117762	-0.06224528	0	0	0	0	0	0
7.600605	-0.2117762	-0.06224528	0	0	0	0	0	0
7.634017	-0.2117762	-0.06224528	0	0	0	0	0	0
7.650584	-0.2117762	-0.06224528	0	0	0	0	0	0
7.667256	-0.2117762	-0.06224528	0	0	0	0	0	0
7.683762	-0.2118013	-0.06222607	-0.001523906	0.001163693	-0.04593076	0.0350739	0	0
7.700286	-0.2118013	-0.06222607	0	0	0.04613698	-0.03523137	0	0
7.716851	-0.2118013	-0.06218766	0	0.002319146	0	0.0700888	0	0
7.733808	-0.2119271	-0.06209162	-0.007415954	0.005663684	-0.2212319	0.09977387	0	0
7.749984	-0.2120528	-0.06199558	-0.007773581	0.005936579	-0.01079351	0.00823623	0	0
7.766551	-0.2121786	-0.06189955	-0.007590558	0.005796806	0.005589622	-0.004268714	0	0
7.783336	-0.2122037	-0.06184193	-0.00149858	0.003432617	0.1826602	-0.07088721	0	0
7.799685	-0.2123295	-0.06174591	-0.007690373	0.005873274	-0.1868687	0.07365915	0	0
7.816357	-0.2123546	-0.06168829	-0.001508781	0.003455984	0.187202	-0.07320466	0	0
7.832818	-0.2124552	-0.06161148	-0.006110234	0.004666409	-0.1388801	0.03653277	0	0
7.849384	-0.2125558	-0.06149625	-0.006071541	0.006955288	0.001171525	0.06930193	0	0
7.865952	-0.2128575	-0.06118902	-0.01821088	0.01854479	-0.3663765	0.349782	0	0
7.882904	-0.2135865	-0.06055545	-0.04300215	0.03737329	-0.7396021	0.5617137	0	0
7.899085	-0.2149433	-0.05948062	-0.08385119	0.06642536	-1.232862	0.8768184	0	0
7.915928	-0.21941	-0.05583687	-0.2651928	0.2163317	-5.491156	4.539272	0	0
7.932218	-0.2236927	-0.05248485	-0.2629082	0.2057755	0.06895463	-0.3185998	0	0
7.948786	-0.2281918	-0.0485822	-0.271551	0.2355507	-0.2630382	0.9061811	0	0
7.965462	-0.2321582	-0.04443653	-0.2378587	0.2486091	1.013497	0.3928086	0	0
7.981973	-0.2355201	-0.04018224	-0.2036092	0.2576568	1.032018	0.2726286	0	0
7.998488	-0.239423	-0.03696216	-0.2363225	0.1949764	-0.9905125	-1.897871	0	0
8.015498	-0.2433929	-0.03384061	-0.2333886	0.1835156	0.08751529	-0.3418596	0	0
8.031618	-0.2470828	-0.03100733	-0.2289035	0.1757618	0.1353792	-0.2340417	0	0
8.048521	-0.2515066	-0.0274172	-0.261717	0.2123972	-0.9936588	1.109392	0	0
8.064752	-0.2553538	-0.02434325	-0.2370329	0.1893925	0.7449896	-0.6943008	0	0
8.081318	-0.2592179	-0.01943499	-0.2332497	0.2962804	0.1153506	3.25909	0	0
8.097884	-0.2590457	-0.01748517	0.01039088	0.117698	7.353512	-5.38994	0	0
8.11445	-0.2558465	-0.009622257	0.1931182	0.4746337	5.515039	10.77296	0	0
8.131078	-0.253801	-0.001382862	0.1230158	0.4955338	-2.111925	0.6296436	0	0
8.14759	-0.2524198	0.00884553	0.08365341	0.6194551	-1.18779	3.739414	0	0
8.164152	-0.2513585	0.01797626	0.06407806	0.5512906	-0.5918582	-2.060945	0	0
8.180718	-0.2504942	0.02712062	0.05217028	0.5519867	-0.3594396	0.02101085	0	0
8.197628	-0.248814	0.03935166	0.09936605	0.7233192	1.409844	5.118088	0	0
8.213851	-0.2471076	0.04829439	0.1051856	0.5512391	0.175645	-5.193685	0	0
8.23065	-0.2453997	0.06021669	0.1016658	0.7097043	-0.106589	4.798786	0	0
8.247162	-0.244731	0.06634006	0.0404983	0.3708453	-1.836263	-10.17262	0	0
8.263552	-0.2437151	0.07843042	0.06198086	0.7376739	0.6529305	11.14921	0	0
8.280118	-0.2431698	0.09061517	0.03291675	0.7355151	-0.8819032	-0.06550591	0	0
8.296695	-0.2425251	0.100603	0.03888901	0.6025194	0.1801964	-4.012779	0	0
8.313251	-0.2422028	0.1108804	0.01947275	0.6207715	-0.5860177	0.5508822	0	0
8.347319	-0.2400687	0.1357061	0.06264215	0.7287105	0.8527476	2.132175	0	0
8.364253	-0.2388766	0.1464397	0.07039478	0.6338292	0.1520048	-1.860326	0	0
8.380756	-0.2363908	0.1610699	0.1506212	0.8865032	2.399279	7.556551	0	0
8.397019	-0.2344001	0.1714311	0.1224097	0.6371029	-0.8609895	-7.611477	0	0
8.413777	-0.232831	0.1779254	0.09362996	0.387535	-0.8715605	-7.557859	0	0
8.430152	-0.22939	0.1906065	0.210144	0.7744367	3.516602	11.67739	0	0
8.4468	-0.2267681	0.2001476	0.1574879	0.5730975	-1.594534	-6.096962	0	0
8.463313	-0.2231422	0.2126647	0.2195811	0.7580205	1.872469	5.576495	0	0
8.479853	-0.2207884	0.2216941	0.1423134	0.5459254	-2.337732	-6.416926	0	0
8.496419	-0.2174036	0.2330309	0.2043186	0.684332	1.872939	4.180728	0	0
8.513348	-0.216475	0.2358855	0.05485255	0.1686225	-4.462347	-15.39663	0	0
8.529552	-0.2129832	0.2468476	0.2154918	0.6765108	4.848383	15.32898	0	0
8.546118	-0.2098637	0.2603965	0.1883014	0.8178636	-0.8297306	4.313464	0	0
8.562684	-0.2086803	0.2651424	0.07143731	0.286476	-3.52717	-16.03823	0	0
8.579394	-0.2076978	0.270352	0.05879484	0.3117634	-0.3799212	0.7599169	0	0
8.595819	-0.2051768	0.2825904	0.1534937	0.7451443	2.858018	13.07946	0	0
8.612418	-0.2035115	0.2901009	0.1003228	0.4524517	-1.610077	-8.86307	0	0
8.645517	-0.1994949	0.308098	0.1213503	0.5437331	0.4230974	1.83669	0	0
8.662085	-0.1970666	0.3132788	0.1465721	0.3127105	0.5078245	-4.651486	0	0
8.678964	-0.1970413	0.3164762	0.001499025	0.1894298	-4.33749	-3.685926	0	0
8.695249	-0.1963326	0.3237991	0.0435196	0.4496717	1.267053	7.847114	0	0
8.773388	-0.1997982	0.334889	-0.04435242	0.1419254	-0.9306086	-3.259187	0	0
8.806523	-0.2015672	0.336139	-0.05338448	0.03772395	-0.08116902	-0.9364339	0	0
8.823088	-0.2015419	0.3361212	0.001525707	-0.00107771	1.104838	-0.780721	0	0
8.839654	-0.2015672	0.3361033	-0.001525531	-0.001077586	-0.09209714	3.745738E-06	0	0
8.85622	-0.2015672	0.3361033	0	0	0.04604327	0.03252349	0	0
8.872787	-0.2015672	0.3361033	0	0	0	0	0	0
8.889353	-0.2015672	0.3361033	0	0	0	0	0	0
8.905919	-0.2015672	0.3361033	0	0	0	0	0	0
8.922485	-0.2015672	0.3361033	0	0	0	0	0	0
8.939052	-0.2015672	0.3361033	0	0	0	0	0	0
8.955618	-0.2015672	0.3361033	0	0	0	0	0	0
8.972184	-0.2015672	0.3361033	0	0	0	0	0	0
8.98875	-0.2015672	0.3361033	0	0	0	0	0	0
9.023286	-0.2015672	0.3361033	0	0	0	0	0	0
9.039852	-0.2015672	0.3361033	0	0	0	0	0	0
9.056418	-0.2015672	0.3361033	0	0	0	0	0	0
9.072985	-0.2015672	0.3361033	0	0	0	0	0	0
9.106117	-0.2015672	0.3361033	0	0	0	0	0	0
9.122775	-0.2015924	0.3360855	-0.001516252	-0.001071664	-0.03045271	-0.02152351	0	0
9.139282	-0.2015924	0.3360855	0	0	0.04571847	0.03231311	0	0
9.155817	-0.2015924	0.3360497	0	-0.002161077	0	-0.06540403	0	0
9.172383	-0.2016177	0.3360319	-0.001524632	-0.001077586	-0.04605987	0.03273278	0	0
9.212845	-0.2016177	0.3360319	0	0	0.02673487	0.0188958	0	0
9.229295	-0.2016177	0.3360319	0	0	0	0	0	0
9.245861	-0.2016177	0.3360319	0	0	0	0	0	0
9.262428	-0.2016177	0.3360319	0	0	0	0	0	0
9.278995	-0.2016177	0.3360319	0	0	0	0	0	0
9.295561	-0.2016177	0.3360319	0	0	0	0	0	0
9.312127	-0.2015924	0.3360497	0.001524632	0.001077586	0.04601612	0.03252349	0	0
9.328693	-0.2015924	0.3360497	0	0	-0.04601612	-0.03252349	0	0
9.34526	-0.2015924	0.3360497	0	0	0	0	0	0
9.361826	-0.2015924	0.3360497	0	0	0	0	0	0
9.378392	-0.2015924	0.3360497	0	0	0	0	0	0
9.394968	-0.2016177	0.3360676	-0.001523754	0.001076966	-0.04597642	0.03249542	0	0
9.411525	-0.2016177	0.3360676	0	0	0.04598965	-0.03250477	0	0
9.428091	-0.2016177	0.3360676	0	0	0	0	0	0
9.444696	-0.2016429	0.3360855	-0.001521042	0.001076844	-0.04585365	0.03246276	0	0
9.461226	-0.2016429	0.3360855	0	0	0.0459038	-0.03249827	0	0
9.477792	-0.2016682	0.3361033	-0.001524719	0.001077648	-0.04607049	0.03256191	0	0
9.494359	-0.2016682	0.3361033	0	0	0.04601877	-0.03252536	0	0
9.511043	-0.2016682	0.3361033	0	0	0	0	0	0
9.527491	-0.2016682	0.3361033	0	0	0	0	0	0
9.544057	-0.2016682	0.3361033	0	0	0	0	0	0
9.560624	-0.2016682	0.3361033	0	0	0	0	0	0
9.577191	-0.2016682	0.3361033	0	0	0	0	0	0
9.593758	-0.2016682	0.3361033	0	0	0	0	0	0
9.610324	-0.2016682	0.3361033	0	0	0	0	0	0
9.62689	-0.2016429	0.3360855	0.001524632	-0.001077586	0.04601612	-0.03252349	0	0
9.661145	-0.2016429	0.3360855	0	0	-0.02999985	0.02120343	0	0
9.67766	-0.2016429	0.3360497	0	-0.002163697	0	-0.0426178	0	0
9.693914	-0.2016177	0.3360319	0.001553883	-0.00109826	0.04741899	0.03251337	0	0
9.710481	-0.2016429	0.3359783	-0.001524632	-0.003234558	-0.09379794	-0.06508993	0	0
9.727047	-0.2016429	0.3359426	0	-0.002155172	0.04601612	0.03257778	0	0
9.743609	-0.2016429	0.3359069	0	-0.002155669	0	-1.498382E-05	0	0
9.760177	-0.2016429	0.3359069	0	0	0	0.06506757	0	0
9.776743	-0.2016682	0.335889	-0.001524632	-0.001079385	-0.04601479	-0.03257685	0	0
9.79331	-0.2016429	0.3358712	0.001524544	-0.001077524	0.09202694	5.616717E-05	0	0
9.809876	-0.2016682	0.3358533	-0.001524632	-0.001077586	-0.09202694	-1.872707E-06	0	0
9.826444	-0.2016682	0.3358533	0	0	0.04601479	0.03252255	0	0
9.84301	-0.2016682	0.3358533	0	0	0	0	0	0
9.859576	-0.2016682	0.3358176	0	-0.002155172	0	-0.06504697	0	0
9.876143	-0.2016682	0.3358176	0	0	0	0.06504697	0	0
9.892711	-0.2016429	0.3357997	0.001524456	-0.001079261	0.04600818	-0.03257216	0	0
9.909322	-0.2016682	0.3357819	-0.001520518	-0.001074678	-0.09177334	0.000138112	0	0
9.925842	-0.2016429	0.335764	0.001528856	-0.001080572	0.09203823	-0.0001778823	0	0
9.94241	-0.2016429	0.335764	0	0	-0.04620614	0.03265779	0	0
9.958976	-0.2016429	0.335764	0	0	0	0	0	0
9.975542	-0.2016429	0.335764	0	0	0	0	0	0
9.99211	-0.2016429	0.335764	0	0	0	0	0	0
10.00868	-0.2016429	0.335764	0	0	0	0	0	0
10.02524	-0.2016682	0.3357462	-0.001524807	-0.00107771	-0.04602407	-0.03252911	0	0
10.04181	-0.2016682	0.3357462	0	0	0.04602407	0.03252911	0	0
10.05837	-0.2016682	0.3357462	0	0	0	0	0	0
10.07494	-0.2016682	0.3357462	0	0	0	0	0	0
10.09151	-0.2016682	0.3357462	0	0	0	0	0	0
10.10809	-0.2016682	0.3357462	0	0	0	0	0	0
10.12464	-0.2016682	0.3357462	0	0	0	0	0	0
10.14121	-0.2016682	0.3357462	0	0	0	0	0	0
10.15777	-0.2016682	0.3357462	0	0	0	0	0	0
10.17434	-0.2016682	0.3357462	0	0	0	0	0	0
10.19091	-0.2016682	0.3357462	0	0	0	0	0	0
10.20747	-0.2016682	0.3357462	0	0	0	0	0	0
10.22404	-0.2016682	0.3357462	0	0	0	0	0	0
10.2406	-0.2016682	0.3357462	0	0	0	0	0	0
10.25717	-0.2016682	0.3357462	0	0	0	0	0	0
10.27374	-0.2016682	0.3357462	0	0	0	0	0	0
10.2903	-0.2016682	0.3357462	0	0	0	0	0	0
10.32417	-0.2016682	0.3357462	0	0	0	0	0	0
10.39044	-0.2016682	0.3357462	0	0	0	0	0	0
10.40701	-0.2016682	0.3357462	0	0	0	0	0	0
10.42368	-0.2016682	0.3357462	0	0	0	0	0	0
10.44019	-0.2016935	0.335764	-0.001530376	0.001081009	-0.0461165	0.03257522	0	0
10.45671	-0.2016935	0.335764	0	0	0.04633489	-0.03272948	0	0
10.47327	-0.2016682	0.3357462	0.001525531	-0.001077586	0.04611495	-0.03257412	0	0
10.48984	-0.2016682	0.3357462	0	0	-0.04604327	0.03252349	0	0
10.5064	-0.2016682	0.3357462	0	0	0	0	0	0
10.52325	-0.2016935	0.3357283	-0.001500566	-0.001059952	-0.04491615	-0.03172733	0	0
10.53954	-0.2017187	0.3357105	-0.001550335	-0.001095753	-0.00150207	-0.001080514	0	0
10.55628	-0.2017187	0.3356747	0	-0.002134363	0.04693239	-0.03144125	0	0
10.57267	-0.2018197	0.3355676	-0.006163457	-0.006536174	-0.1860189	-0.1328507	0	0
10.58924	-0.2020218	0.3354247	-0.01219705	-0.008624287	-0.1830691	-0.06335675	0	0
10.6058	-0.2022744	0.3352104	-0.01524452	-0.01293463	-0.09197795	-0.130094	0	0
10.62237	-0.2022996	0.3351569	-0.001524632	-0.003232759	0.4140908	0.29282	0	0
10.63894	-0.2023754	0.3351033	-0.004572732	-0.003234371	-0.0919945	-4.866931E-05	0	0
10.6555	-0.2025774	0.3349604	-0.01219435	-0.008624287	-0.2300276	-0.1626727	0	0
10.67207	-0.2025774	0.3349604	0	0	0.3680475	0.2602965	0	0
10.68886	-0.2026026	0.3349426	-0.00150394	-0.001062961	-0.04508147	-0.03186289	0	0
10.70538	-0.2026531	0.3349069	-0.003058576	-0.002162392	-0.04667854	-0.03301083	0	0
10.72177	-0.2026784	0.334889	-0.001539686	-0.001088869	0.04615903	0.03262436	0	0
10.7384	-0.2027289	0.3348176	-0.003035955	-0.004294591	-0.0453022	-0.09705894	0	0
10.75492	-0.2029814	0.334639	-0.01528578	-0.01081183	-0.3695196	-0.1965943	0	0
10.77147	-0.2032086	0.3344783	-0.01372961	-0.009711937	0.04706261	0.03326362	0	0
10.78804	-0.2037639	0.3340497	-0.03351838	-0.02586957	-0.5975529	-0.4879053	0	0
10.8046	-0.2045714	0.3334783	-0.04874234	-0.03449355	-0.4594732	-0.2602796	0	0
10.82117	-0.2047227	0.3333711	-0.009137895	-0.006467316	1.195333	0.8458821	0	0
10.83774	-0.2047227	0.3333711	0	0	0.2757981	0.1951952	0	0
10.8543	-0.204748	0.3333533	-0.001522657	-0.001077462	-0.04595388	-0.03251787	0	0
10.87087	-0.204748	0.3333533	0	0	0.04595256	0.03251693	0	0
10.8875	-0.204748	0.3333533	0	0	0	0	0	0
10.90401	-0.204748	0.3333533	0	0	0	0	0	0
10.92057	-0.204748	0.3333533	0	0	0	0	0	0
10.93714	-0.204748	0.3333533	0	0	0	0	0	0
10.9537	-0.204748	0.3333533	0	0	0	0	0	0
10.97027	-0.204748	0.3333533	0	0	0	0	0	0
11.00359	-0.2047227	0.3333711	0.0007571015	0.0005357398	0.01517555	0.01073851	0	0
11.01997	-0.204748	0.3333533	-0.001540211	-0.001089884	-0.04622291	-0.03270824	0	0
11.03661	-0.2047227	0.3333354	0.00151646	-0.001073077	0.0925836	0.0005090606	0	0
11.05312	-0.2046975	0.3333533	0.001527846	0.001081134	0.0003434953	0.06498802	0	0
11.06967	-0.2047227	0.3333354	-0.001524149	-0.001078518	-0.09230599	-0.06531753	0	0
11.08624	-0.2046975	0.3333533	0.001522833	0.001077586	0.09200309	0.0651032	0	0
11.1028	-0.2046975	0.3333533	0	0	-0.04596182	-0.03252349	0	0
11.11966	-0.2046975	0.3333533	0	0	0	0	0	0
11.13594	-0.2046975	0.3333533	0	0	0	0	0	0
11.15269	-0.2047227	0.3333711	-0.001505928	0.001065624	-0.04560123	0.03226833	0	0
11.16907	-0.2047227	0.3333711	0	0	0.0454503	-0.03216152	0	0
11.18564	-0.2047227	0.3333711	0	0	0	0	0	0
11.2022	-0.2047227	0.3333711	0	0	0	0	0	0
11.21877	-0.204748	0.3333533	-0.001522745	-0.001077524	-0.04595786	-0.03252068	0	0
11.23534	-0.204748	0.3333533	0	0	0.04595786	0.03252068	0	0
11.2519	-0.204748	0.3333533	0	0	0	0	0	0
11.26847	-0.2047227	0.3333711	0.001522833	0.001077586	0.04596182	0.03252349	0	0
11.28528	-0.2047227	0.3333711	0	0	-0.04562302	-0.03228374	0	0
11.3016	-0.2047227	0.3333711	0	0	0	0	0	0
11.3183	-0.2047227	0.3333711	0	0	0	0	0	0
11.33481	-0.2047227	0.3333711	0	0	0	0	0	0
11.35133	-0.2047227	0.3333711	0	0	0	0	0	0
11.36787	-0.2047227	0.3333711	0	0	0	0	0	0
11.38443	-0.2047227	0.3333711	0	0	0	0	0	0
11.40136	-0.204748	0.333389	-0.001490233	0.001054518	-0.04449128	0.0314829	0	0
11.41757	-0.204748	0.333389	0	0	0.04497661	-0.03182633	0	0
11.43413	-0.204748	0.333389	0	0	0	0	0	0
11.4509	-0.204748	0.333389	0	0	0	0	0	0
11.46727	-0.204748	0.333389	0	0	0	0	0	0
11.48383	-0.204748	0.333389	0	0	0	0	0	0
11.5004	-0.204748	0.333389	0	0	0	0	0	0
11.51697	-0.204748	0.333389	0	0	0	0	0	0
11.53353	-0.204748	0.333389	0	0	0	0	0	0
11.5501	-0.204748	0.333389	0	0	0	0	0	0
11.56667	-0.204748	0.333389	0	0	0	0	0	0
11.58323	-0.204748	0.333389	0	0	0	0	0	0
11.5998	-0.204748	0.333389	0	0	0	0	0	0
11.61651	-0.204748	0.333389	0	0	0	0	0	0
11.63293	-0.204748	0.333389	0	0	0	0	0	0
11.64954	-0.204748	0.333389	0	0	0	0	0	0
11.66607	-0.204748	0.333389	0	0	0	0	0	0
11.6992	-0.204748	0.333389	0	0	0	0	0	0
11.71608	-0.204748	0.333389	0	0	0	0	0	0
11.73233	-0.204748	0.333389	0	0	0	0	0	0
11.74911	-0.204748	0.333389	0	0	0	0	0	0
11.76562	-0.2047227	0.3333711	0.001527846	-0.001081134	0.04590306	-0.0324819	0	0
11.78203	-0.2046975	0.3333175	0.0015369	-0.003264438	0.0002749817	-0.06630829	0	0
11.79864	-0.2046218	0.3332283	0.004556694	-0.005375804	0.09144285	-0.06393462	0	0
11.81517	-0.2042686	0.332764	0.0213774	-0.02809741	0.5076646	-0.685759	0	0
11.83173	-0.2029309	0.3312818	0.08074415	-0.08946509	1.794016	-1.854482	0	0
11.84868	-0.1970919	0.3266565	0.3446251	-0.2729898	7.874643	-5.476682	0	0
11.86486	-0.1903006	0.3209058	0.4195103	-0.3552338	2.260236	-2.482342	0	0
11.88143	-0.1856022	0.3113495	0.2835984	-0.576819	-4.14924	-6.764752	0	0
11.898	-0.1853988	0.3069903	0.01227621	-0.2631343	-8.188757	9.467295	0	0
11.98083	-0.1875841	0.1851901	-0.02638263	-1.470426	-0.3889235	-12.14584	0	0
11.9974	-0.1881429	0.1743082	-0.03372809	-0.6568689	-0.07389835	8.184716	0	0
12.01396	-0.1893362	0.1542494	-0.07203277	-1.21082	-1.156104	-16.71924	0	0
12.0308	-0.1902499	0.1407299	-0.05425173	-0.8027812	0.5322517	12.2141	0	0
12.0471	-0.1918226	0.1241481	-0.09653221	-1.017751	-1.276064	-6.488003	0	0
12.06382	-0.1918733	0.1203505	-0.003031464	-0.2270275	2.831638	23.9468	0	0
12.08023	-0.1926086	0.1041962	-0.04481867	-0.9846525	-1.261177	-22.86583	0	0
12.0968	-0.1927861	0.09878699	-0.010712	-0.3265203	1.034403	19.96013	0	0
12.11336	-0.1930396	0.09463865	-0.01530118	-0.2504084	-0.1385099	2.297195	0	0
12.12993	-0.1914422	0.08668002	0.09641773	-0.4803842	3.37178	-6.940884	0	0
12.1465	-0.1923805	0.08592569	-0.05663388	-0.04553124	-4.619106	13.12389	0	0
12.16306	-0.1923551	0.08594409	0.001530928	0.001110418	1.755468	1.407689	0	0
12.17963	-0.1923551	0.08590729	0	-0.002221285	-0.04620616	-0.1005568	0	0
12.19642	-0.1923551	0.08590729	0	0	0	0.06659383	0	0
12.21276	-0.1923551	0.08590729	0	0	0	0	0	0
12.22933	-0.1923297	0.08588888	0.00152994	-0.001110803	0.04648678	-0.03375142	0	0
12.24595	-0.1923297	0.08588888	0	0	-0.04609542	0.03346728	0	0
12.26246	-0.1923297	0.08588888	0	0	0	0	0	0
12.27903	-0.1923297	0.08588888	0	0	0	0	0	0
12.2956	-0.1923297	0.08588888	0	0	0	0	0	0
12.31216	-0.1923297	0.08588888	0	0	0	0	0	0
12.32873	-0.1923297	0.08588888	0	0	0	0	0	0
12.34529	-0.1923551	0.08590729	-0.001530029	0.001110867	-0.04617901	0.03352797	0	0
12.36186	-0.1923551	0.08590729	0	0	0.04617901	-0.03352797	0	0
12.39506	-0.1923551	0.08590729	0	0	0	0	0	0
12.41157	-0.1923551	0.08590729	0	0	0	0	0	0
12.42813	-0.1923551	0.08590729	0	0	0	0	0	0
12.44469	-0.1923551	0.08590729	0	0	0	0	0	0
12.46126	-0.1923551	0.08590729	0	0	0	0	0	0
12.47783	-0.1923551	0.08590729	0	0	0	0	0	0
12.49439	-0.1923551	0.08590729	0	0	0	0	0	0
12.51096	-0.1923551	0.08590729	0	0	0	0	0	0
12.52753	-0.1923551	0.08590729	0	0	0	0	0	0
12.54409	-0.1923551	0.08590729	0	0	0	0	0	0
12.56066	-0.1923551	0.08590729	0	0	0	0	0	0
12.57723	-0.1923551	0.08590729	0	0	0	0	0	0
12.59379	-0.1923551	0.08590729	0	0	0	0	0	0
12.61036	-0.1923551	0.08590729	0	0	0	0	0	0
12.72633	-0.1923551	0.08590729	0	0	0	0	0	0
12.7429	-0.1923551	0.08590729	0	0	0	0	0	0
12.75946	-0.1923551	0.08590729	0	0	0	0	0	0
12.77603	-0.1923551	0.08590729	0	0	0	0	0	0
12.79259	-0.1923551	0.08590729	0	0	0	0	0	0
12.80916	-0.1923551	0.08590729	0	0	0	0	0	0
12.82573	-0.1923551	0.08590729	0	0	0	0	0	0
12.84229	-0.1923551	0.08590729	0	0	0	0	0	0
12.85886	-0.1923551	0.08590729	0	0	0	0	0	0
12.87543	-0.1923551	0.08590729	0	0	0	0	0	0
12.89199	-0.1923805	0.08596249	-0.00153084	0.00333196	-0.04620217	0.1005616	0	0
12.90856	-0.1926847	0.08625688	-0.01836288	0.01776925	-0.5079921	0.4357184	0	0
12.92513	-0.1928621	0.08645926	-0.010712	0.01221639	0.2309108	-0.1675906	0	0
12.97497	-0.1993432	0.09252632	-0.1300369	0.1217308	-1.796893	1.649158	0	0
12.99148	-0.2043443	0.09953916	-0.3028781	0.4247141	-2.604917	4.56631	0	0
13.00796	-0.2065133	0.1045627	-0.1316028	0.3048014	5.191212	-3.634455	0	0
13.02453	-0.2070174	0.1180669	-0.03043057	0.8151602	3.061402	15.44311	0	0
13.04109	-0.2064628	0.1296386	0.03347443	0.6985111	1.928768	-3.520681	0	0
13.05766	-0.205883	0.1418577	0.03500446	0.7375907	0.04617902	1.179493	0	0
13.07423	-0.2058325	0.1498918	0.003044766	0.4849651	-0.9646011	-7.624695	0	0
13.09079	-0.2051263	0.1743625	0.04262426	1.477054	1.194546	29.94215	0	0
13.10736	-0.2045714	0.1867613	0.03350142	0.7484349	-0.275336	-21.99039	0	0
13.12407	-0.2038143	0.1995708	0.04529164	0.7663899	0.3542696	0.5395073	0	0
13.14058	-0.2032591	0.2131146	0.03363364	0.8203387	-0.3508897	1.623784	0	0
13.17446	-0.2014661	0.2435655	0.0529303	0.8989577	0.3829951	1.56041	0	0
13.19102	-0.2003291	0.2637635	0.0686293	1.219087	0.3112304	6.346521	0	0
13.20763	-0.199065	0.2783688	0.07612028	0.8795497	0.2258117	-10.23519	0	0
13.22416	-0.1971678	0.29659	0.1147946	1.102499	1.167261	6.729019	0	0
13.24072	-0.1958769	0.3091164	0.07792532	0.7561381	-1.114096	-10.46615	0	0
13.25729	-0.1946613	0.3198341	0.07337841	0.6469619	-0.1372339	-3.295135	0	0
13.27418	-0.1929382	0.3315139	0.1020386	0.6916562	0.8567293	1.336033	0	0
13.29069	-0.1909603	0.3389069	0.1197736	0.4476821	0.5309812	-7.304497	0	0
13.30699	-0.1896408	0.3450498	0.08094796	0.3768594	-1.183203	-2.158303	0	0
13.32371	-0.1869491	0.3478713	0.1609813	0.1687425	2.423711	-6.302567	0	0
13.34022	-0.1841274	0.3497106	0.1708751	0.1113882	0.2977072	-1.725789	0	0
13.35673	-0.1835678	0.3500678	0.03389644	0.02163545	-4.148114	-2.717976	0	0
13.37326	-0.1835424	0.3500142	0.001540226	-0.003242771	-0.9795008	-0.7531239	0	0
13.38982	-0.1831862	0.3497285	0.02149955	-0.01724678	0.6031722	-0.423202	0	0
13.40639	-0.18283	0.3494428	0.02150225	-0.01724857	8.145985E-05	-5.430657E-05	0	0
13.42296	-0.1828554	0.3494249	-0.001535425	-0.001077586	-0.6953185	0.4880695	0	0
13.43979	-0.1828809	0.349407	-0.001511783	-0.001060372	0.0007078329	0.0005153658	0	0
13.45609	-0.1828809	0.3493713	0	-0.002192437	0.04562701	-0.03416677	0	0
13.47266	-0.1828809	0.3492642	0	-0.006467316	0	-0.1300756	0	0
13.48933	-0.1828809	0.3491927	0	-0.00428501	0	0.06565806	0	0
13.50584	-0.1829318	0.3490856	-0.003081863	-0.006488607	-0.09287448	-0.06640723	0	0
13.52236	-0.1829572	0.349032	-0.001540849	-0.003244082	0.04665562	0.09823097	0	0
13.53892	-0.1830335	0.3489785	-0.004606911	-0.003232572	-0.09267262	0.0003478786	0	0
13.55549	-0.1830335	0.3489427	0	-0.002156971	0.1390408	0.03246264	0	0
13.57239	-0.183059	0.3489249	-0.001506237	-0.001056482	-0.04501136	0.03288628	0	0
13.60519	-0.183059	0.348782	0	-0.004355521	0.0303067	-0.06637934	0	0
13.62176	-0.1831353	0.348657	-0.004607176	-0.007544903	-0.0933215	-0.06460311	0	0
13.63832	-0.1832371	0.3485499	-0.006143501	-0.006467316	-0.04636904	0.03252349	0	0
13.65489	-0.1833643	0.3484249	-0.007678926	-0.007546701	-0.0463419	-0.03257778	0	0
13.67146	-0.1833643	0.3484249	0	0	0.2317638	0.227773	0	0
13.68802	-0.1833897	0.348407	-0.00153516	-0.0010774	-0.0463299	-0.03251507	0	0
13.70459	-0.1833897	0.348407	0	0	0.04633256	0.03251694	0	0
13.72149	-0.1834152	0.3483891	-0.001505015	-0.001056244	-0.04497229	-0.03156227	0	0
13.73772	-0.1834152	0.3483891	0	0	0.04542275	0.03187842	0	0
13.75451	-0.1834152	0.3483891	0	0	0	0	0	0
13.77085	-0.1834152	0.3483891	0	0	0	0	0	0
13.80465	-0.1834406	0.3483713	-0.0007525712	-0.0005290483	-0.01500928	-0.01055134	0	0
13.82156	-0.1834661	0.3483534	-0.001505472	-0.001055946	-0.01484866	-0.01039144	0	0
13.83779	-0.1834661	0.3483534	0	0	0.04543654	0.03186942	0	0
13.85435	-0.1834915	0.3483356	-0.001535425	-0.001077586	-0.04682032	-0.03285925	0	0
13.90412	-0.1835424	0.3482999	-0.001022283	-0.0007174546	0.00773621	0.005429395	0	0
13.92063	-0.1835424	0.3482999	0	0	0.01542473	0.01082532	0	0
13.93719	-0.1835424	0.3482999	0	0	0	0	0	0
13.95375	-0.1835424	0.3482999	0	0	0	0	0	0
13.97032	-0.1835424	0.3482999	0	0	0	0	0	0
13.98689	-0.1835424	0.3482999	0	0	0	0	0	0
14.00345	-0.1835424	0.3482999	0	0	0	0	0	0
14.0202	-0.1835424	0.3482999	0	0	0	0	0	0
14.03659	-0.1835424	0.3482999	0	0	0	0	0	0
14.05322	-0.1835424	0.3482999	0	0	0	0	0	0
14.06972	-0.1835424	0.3482999	0	0	0	0	0	0
14.08629	-0.1835424	0.3482999	0	0	0	0	0	0
14.10285	-0.1835424	0.3482999	0	0	0	0	0	0
14.11942	-0.1835424	0.3482999	0	0	0	0	0	0
14.13598	-0.1835678	0.348282	-0.001536325	-0.001079385	-0.04636905	-0.03257778	0	0
14.15255	-0.1835678	0.348282	0	0	0.04636905	0.03257778	0	0
14.16912	-0.1835678	0.348282	0	0	0	0	0	0
14.18568	-0.1835678	0.348282	0	0	0	0	0	0
14.20225	-0.1835678	0.348282	0	0	0	0	0	0
14.21882	-0.1835678	0.348282	0	0	0	0	0	0
14.23538	-0.1835678	0.348282	0	0	0	0	0	0
14.25195	-0.1835424	0.3482641	0.001536236	-0.001077524	0.04636505	-0.03252068	0	0
14.26852	-0.1835678	0.3482463	-0.001536325	-0.001077586	-0.09273275	-1.872707E-06	0	0
14.28508	-0.1835678	0.3482463	0	0	0.04636905	0.03252349	0	0
14.30165	-0.1835678	0.3482463	0	0	0	0	0	0
14.31822	-0.1835678	0.3482463	0	0	0	0	0	0
14.33492	-0.1835678	0.3482463	0	0	0	0	0	0
14.35135	-0.1835678	0.3482463	0	0	0	0	0	0
14.36794	-0.1835933	0.3482284	-0.001533043	-0.001075914	-0.04642097	-0.03257898	0	0
14.38449	-0.1835933	0.3482284	0	0	0.04626865	0.03247208	0	0
14.40105	-0.1835933	0.3482284	0	0	0	0	0	0
14.41798	-0.1836187	0.3482106	-0.001502726	-0.001054637	-0.0448668	-0.03148824	0	0
14.43419	-0.1836187	0.3482106	0	0	0.04535365	0.03182992	0	0
14.451	-0.1836187	0.3482106	0	0	0	0	0	0
14.4839	-0.1836187	0.3482106	0	0	0	0	0	0
14.50046	-0.1836441	0.3481927	-0.001535425	-0.001079385	-0.03104412	-0.02182364	0	0
14.51703	-0.1836441	0.3481927	0	0	0.04634057	0.03257685	0	0
14.5336	-0.1836441	0.3481927	0	0	0	0	0	0
14.55016	-0.1836187	0.3481748	0.001535425	-0.001077586	0.0463419	-0.03252349	0	0
14.56673	-0.1836441	0.3481927	-0.001535425	0.001077586	-0.0926838	0.06504697	0	0
14.58329	-0.1836441	0.3481927	0	0	0.0463419	-0.03252349	0	0
14.59986	-0.1836441	0.3481927	0	0	0	0	0	0
14.61662	-0.1836441	0.3481927	0	0	0	0	0	0
14.63299	-0.1836441	0.3481927	0	0	0	0	0	0
14.64964	-0.1836441	0.3481927	0	0	0	0	0	0
14.66615	-0.1836441	0.3481927	0	0	0	0	0	0
14.68269	-0.1836441	0.3481927	0	0	0	0	0	0
14.69926	-0.1836441	0.3481927	0	0	0	0	0	0
14.71583	-0.1836441	0.3481927	0	0	0	0	0	0
14.73239	-0.1836441	0.3481927	0	0	0	0	0	0
14.81523	-0.1836441	0.3481927	0	0	0	0	0	0
14.83179	-0.1836441	0.3481927	0	0	0	0	0	0
14.84836	-0.1836441	0.3481927	0	0	0	0	0	0
14.86493	-0.1836441	0.3481927	0	0	0	0	0	0
14.88149	-0.1836441	0.3481927	0	0	0	0	0	0
14.89806	-0.1836696	0.3482106	-0.001535425	0.001079385	-0.04634057	0.03257685	0	0
14.91483	-0.1836696	0.3482106	0	0	0.04606215	-0.03238112	0	0
14.93119	-0.183695	0.3482284	-0.001554124	0.001090709	-0.04690355	0.03291767	0	0
14.94776	-0.1837204	0.3482463	-0.001535425	0.001077586	0.0005677703	-0.0003984703	0	0
14.96436	-0.1837459	0.3482641	-0.001532162	0.001075296	9.839262E-05	-6.905349E-05	0	0
14.98089	-0.1837713	0.348282	-0.001538614	0.001079824	-0.00019473	0.0001366655	0	0
14.99746	-0.1837967	0.3482999	-0.001535425	0.001079385	9.633798E-05	-1.32601E-05	0	0
15.01403	-0.1838476	0.3483356	-0.003070851	0.002155172	-0.0463419	0.03246919	0	0
15.03091	-0.1839239	0.3483891	-0.004520146	0.003174076	-0.04332952	0.03046213	0	0
15.04716	-0.1839748	0.3484249	-0.003130318	0.002196908	0.0419463	-0.02949186	0	0
15.06393	-0.1840765	0.3484963	-0.006065926	0.004258941	-0.08889103	0.06243896	0	0
15.08029	-0.1844326	0.3486749	-0.02176297	0.01091519	-0.4737514	0.2008916	0	0
15.09696	-0.1846106	0.3487284	-0.01068255	0.003215676	0.3355279	-0.2331501	0	0
15.11347	-0.1869237	0.3503178	-0.1400835	0.0962552	-3.900502	2.804467	0	0
15.12999	-0.1941039	0.3553004	-0.4345027	0.3015116	-8.911751	6.212892	0	0
15.16383	-0.2203624	0.3739136	-0.7761312	0.5501563	-6.784021	4.937558	0	0
15.18052	-0.2327314	0.3827595	-0.7411295	0.5300375	0.6928043	-0.3982192	0	0
15.19696	-0.2409126	0.3886408	-0.4975171	0.3576506	7.352447	-5.202798	0	0
15.21353	-0.2558465	0.3994428	-0.9014083	0.6520082	-12.23489	8.916839	0	0
15.23009	-0.2689533	0.4089988	-0.7911749	0.5768343	3.326945	-2.26882	0	0
15.24666	-0.2782719	0.4158387	-0.5625018	0.4128828	6.901767	-4.948349	0	0
15.26323	-0.2907324	0.4250481	-0.7521173	0.5558801	-5.722772	4.315791	0	0
15.27979	-0.2998852	0.4318973	-0.5524695	0.4134185	6.025382	-4.2995	0	0
15.29636	-0.3121359	0.4410846	-0.7394958	0.5545791	-5.644626	4.260359	0	0
15.31311	-0.3180592	0.4455559	-0.353621	0.2669363	11.58205	-8.633616	0	0
15.32949	-0.3292003	0.4540558	-0.6800327	0.5188184	-9.851406	7.602036	0	0
15.34606	-0.3366983	0.4598292	-0.4526042	0.3485047	6.902345	-5.168939	0	0
15.36265	-0.3456953	0.4668314	-0.5424717	0.4221922	-2.710802	2.22274	0	0
15.39576	-0.3604308	0.4783666	-0.4449851	0.3483435	1.961509	-1.485895	0	0
15.41233	-0.3640895	0.4813076	-0.220853	0.1775301	4.511452	-3.438224	0	0
15.42889	-0.3709878	0.4867782	-0.4163831	0.3302063	-5.901278	4.60791	0	0
15.44546	-0.3759609	0.4907171	-0.3001968	0.2377652	3.506609	-2.789959	0	0
15.46203	-0.3814588	0.4951288	-0.3318714	0.2663077	-0.9559953	0.8614654	0	0
15.47859	-0.3836558	0.4968836	-0.1326074	0.1059176	6.01397	-4.840724	0	0
15.51175	-0.3853517	0.4982407	-0.05114829	0.04092906	1.638175	-1.306944	0	0
15.52829	-0.3853517	0.4982407	0	0	1.029145	-0.8235259	0	0
15.54486	-0.3853517	0.4982407	0	0	0	0	0	0
15.56143	-0.3853517	0.4982407	0	0	0	0	0	0
15.57799	-0.3853517	0.4982407	0	0	0	0	0	0
15.59456	-0.3853517	0.4982407	0	0	0	0	0	0
15.61112	-0.3853291	0.4982226	0.001365422	-0.001093777	0.0412109	-0.03301216	0	0
15.66085	-0.3853291	0.4981864	0	-0.0007275665	-0.02059656	0.005524061	0	0
15.67739	-0.3853065	0.4981683	0.001365904	-0.001093804	0.02061241	-0.005526774	0	0
15.69396	-0.3852614	0.4981321	0.002726933	-0.002185503	0.04111025	-0.03297507	0	0
15.71053	-0.3852161	0.4980959	0.002729045	-0.002183956	6.37686E-05	4.669337E-05	0	0
15.72709	-0.3851483	0.4980054	0.004092669	-0.005461689	0.0411566	-0.09892787	0	0
15.74366	-0.3849901	0.4978788	0.00955076	-0.007647444	0.164735	-0.06597001	0	0
15.76022	-0.3847867	0.4976797	0.0122816	-0.01201536	0.08242179	-0.1318314	0	0
15.77679	-0.3846736	0.4975531	0.006823513	-0.007645645	-0.164735	0.1318857	0	0
15.79336	-0.3845832	0.4974807	0.00545989	-0.004369711	-0.04115659	0.09887358	0	0
15.80992	-0.384538	0.4974445	0.002729045	-0.002183956	-0.0824218	0.06597001	0	0
15.82649	-0.3845153	0.4974264	0.001365422	-0.001091978	-0.0411566	0.03295786	0	0
15.84306	-0.3844927	0.4974083	0.001365422	-0.001091978	0	0	0	0
15.85962	-0.3844701	0.4973902	0.001365422	-0.001093777	0	-5.429603E-05	0	0
15.87619	-0.3844927	0.4973721	-0.001365422	-0.001091978	-0.08242179	5.429603E-05	0	0
15.90938	-0.3844701	0.497354	0.0006814558	-0.0005449851	0.04113512	0.01099265	0	0
15.92604	-0.3844475	0.4973359	0.001356129	-0.001085976	0.01353368	-0.01085208	0	0
15.94256	-0.3844475	0.4973359	0	0	-0.04087393	0.0327315	0	0
15.95909	-0.3844475	0.4973359	0	0	0	0	0	0
15.97565	-0.3844475	0.4973359	0	0	0	0	0	0
15.99222	-0.3844249	0.4973178	0.001365422	-0.001091978	0.0412192	-0.0329645	0	0
16.02535	-0.3843344	0.4972093	0.002730766	-0.003276739	0.02747182	-0.04395917	0	0
16.04192	-0.3841761	0.4970464	0.009555607	-0.009829035	0.1373187	-0.131835	0	0
16.05848	-0.3841082	0.4969559	0.004096502	-0.005462003	-0.1647656	0.1318049	0	0
16.07505	-0.3841082	0.4969559	0	0	-0.1236398	0.1648531	0	0
16.09161	-0.3840856	0.4969378	0.001365501	-0.001092041	0.04121327	-0.03295976	0	0
16.10818	-0.384063	0.4969198	0.001365344	-0.001091915	-4.743392E-06	3.794714E-06	0	0
16.12475	-0.384063	0.4969198	0	0	-0.04120615	0.03295407	0	0
16.14132	-0.384063	0.4968836	0	-0.00218383	0	-0.06590813	0	0
16.15788	-0.384063	0.4968836	0	0	0	0.06590433	0	0
16.17445	-0.384063	0.4968836	0	0	0	0	0	0
16.19173	-0.384063	0.4968836	0	0	0	0	0	0
16.20758	-0.384063	0.4968836	0	0	0	0	0	0
16.22425	-0.384063	0.4968836	0	0	0	0	0	0
16.24072	-0.384063	0.4968836	0	0	0	0	0	0
16.25728	-0.384063	0.4968836	0	0	0	0	0	0
16.27385	-0.3840404	0.4968655	0.001365344	-0.001091915	0.04120853	-0.03295596	0	0
16.29042	-0.3840404	0.4968655	0	0	-0.04120615	0.03295407	0	0
16.30698	-0.3840404	0.4968655	0	0	0	0	0	0
16.32356	-0.3840404	0.4968655	0	0	0	0	0	0
16.34012	-0.3840178	0.4968474	0.001366287	-0.00109267	0.04123701	-0.03297874	0	0
16.35668	-0.3839951	0.4967931	0.001365344	-0.003277544	-2.849315E-05	-0.06596242	0	0
16.37336	-0.383882	0.4966665	0.006784775	-0.007594443	0.1630332	-0.1298656	0	0
16.38982	-0.3834521	0.4960694	0.02612194	-0.03627484	0.5836306	-0.865626	0	0
16.40638	-0.3819348	0.4946043	0.0915947	-0.08844632	1.982591	-1.579813	0	0
16.42295	-0.378622	0.4916028	0.199959	-0.1811716	3.270629	-2.798615	0	0
16.43952	-0.3748904	0.4885305	0.2252421	-0.1854421	0.7630467	-0.1288847	0	0
16.45608	-0.3727238	0.4866337	0.130778	-0.1144928	-2.850934	2.141254	0	0
16.47265	-0.3684253	0.4829862	0.2594567	-0.2201639	3.883531	-3.189161	0	0
16.48944	-0.3664083	0.4810008	0.120155	-0.1182714	-4.176484	3.0549	0	0
16.55925	-0.3634459	0.4386613	0.0424309	-0.606439	-0.8974744	-5.636834	0	0
16.576	-0.3615824	0.4354851	0.1112901	-0.1896874	0.7954971	4.814531	0	0
16.59239	-0.3594626	0.4304984	0.1293349	-0.3042538	0.5445945	-3.457622	0	0
16.60902	-0.3568313	0.4264104	0.1581904	-0.2457609	0.8737758	1.771232	0	0
16.62555	-0.3528514	0.4230766	0.2408385	-0.20174	2.492462	1.327563	0	0
16.64209	-0.3497426	0.4206754	0.1879252	-0.1451523	-1.600152	1.711265	0	0
16.65866	-0.3475576	0.4189913	0.1319013	-0.1016659	-1.692169	1.313481	0	0
16.67522	-0.3458584	0.4177194	0.1025663	-0.07677045	-0.8853828	0.7513908	0	0
16.6918	-0.3435506	0.4159462	0.1392493	-0.1069977	1.106906	-0.9121032	0	0
16.7086	-0.3428506	0.4154088	0.04167021	-0.03198265	-2.923905	2.247785	0	0
16.72492	-0.3421968	0.4149074	0.04003621	-0.03070976	-0.0493229	0.03842238	0	0
16.7415	-0.3421735	0.4148895	0.00140803	-0.001080749	-1.174046	0.9005296	0	0
16.75806	-0.3421034	0.4148358	0.004229635	-0.003243739	0.08514638	-0.06527168	0	0
16.77463	-0.3417998	0.4146029	0.01833113	-0.01405602	0.4256573	-0.3263717	0	0
16.79119	-0.3412624	0.4141911	0.03243546	-0.02486041	0.4257186	-0.3261146	0	0
16.80776	-0.3341641	0.4087661	0.4284553	-0.327454	11.9519	-9.132294	0	0
16.82433	-0.325614	0.4022695	0.5160873	-0.3921306	2.64474	-1.951944	0	0
16.84089	-0.3191035	0.3973498	0.3929743	-0.2969559	-3.715557	2.872378	0	0
16.85746	-0.3109199	0.3911977	0.494018	-0.3713875	3.049681	-2.246477	0	0
16.87403	-0.3056874	0.3872821	0.3157606	-0.2362904	-5.37951	4.077004	0	0
16.89059	-0.3025971	0.384976	0.1865949	-0.1392448	-3.898455	2.929009	0	0
16.90724	-0.2971929	0.3809543	0.3246695	-0.2416065	4.158005	-3.08254	0	0
16.92373	-0.2960376	0.3800965	0.07006218	-0.0520261	-7.684064	5.721548	0	0
16.94029	-0.2960858	0.3801322	-0.002907312	0.002157096	-2.207561	1.639215	0	0
16.95686	-0.2960376	0.3800965	0.002907312	-0.002157096	0.1755059	-0.1302175	0	0
16.97342	-0.2959654	0.3800429	0.004360465	-0.00323617	0.04385879	-0.03256841	0	0
16.98999	-0.2959172	0.3800071	0.002905178	-0.002158646	-0.04392066	0.03251974	0	0
17.00656	-0.2950261	0.3793459	0.05378986	-0.03991157	1.535703	-1.139385	0	0
17.03969	-0.2883878	0.3744317	0.2003546	-0.1483183	2.949001	-2.181232	0	0
17.05626	-0.2851194	0.3720196	0.1972823	-0.1455917	-0.0618173	0.054862	0	0
17.07285	-0.2824031	0.3700187	0.1636773	-0.1205716	-1.013325	0.7544556	0	0
17.08939	-0.2824273	0.3700365	-0.001468786	0.001079513	-4.984406	3.67165	0	0
17.10596	-0.2824031	0.3700187	0.00146608	-0.001077524	0.08865611	-0.06515951	0	0
17.12253	-0.2824031	0.3700187	0	0	-0.04424639	0.03251974	0	0
17.13909	-0.2824031	0.3700187	0	0	0	0	0	0
17.15566	-0.2823788	0.3700365	0.001464282	0.001077524	0.04419211	0.03251974	0	0
17.17223	-0.2823788	0.3700365	0	0	-0.04419211	-0.03251974	0	0
17.1888	-0.2823302	0.3700365	0.002930362	0	0.0884385	0	0	0
17.20536	-0.2823302	0.3700365	0	0	-0.0884385	0	0	0
17.2389	-0.2821118	0.3699472	0.006515379	-0.002663564	0.1300466	-0.05316461	0	0
17.25546	-0.2816747	0.3696256	0.02637866	-0.01940983	0.39647	-0.3342546	0	0
17.27203	-0.2749842	0.3648559	0.4038413	-0.2878986	11.39185	-8.103008	0	0
17.2886	-0.2713486	0.3622302	0.219448	-0.1584896	-5.565003	3.905572	0	0
17.30516	-0.2665304	0.3587473	0.2908272	-0.2102287	2.154229	-1.56149	0	0
17.32173	-0.2614785	0.3551039	0.3049321	-0.2199157	0.4256886	-0.2923522	0	0
17.3383	-0.2581849	0.3527108	0.1988005	-0.1444476	-3.203059	2.277631	0	0
17.35487	-0.2553784	0.350675	0.1693998	-0.1228845	-0.8873169	0.6507751	0	0
17.37158	-0.2530365	0.3490142	0.140115	-0.09936487	-0.8799143	0.7066923	0	0
17.38808	-0.2475034	0.3450141	0.3352549	-0.2423672	5.874455	-4.304914	0	0
17.40459	-0.244508	0.3428533	0.1814276	-0.1308738	-4.659415	3.377123	0	0
17.42113	-0.2395472	0.3393176	0.2999874	-0.2138102	3.58764	-2.50967	0	0
17.47083	-0.2354703	0.3364605	0.08202706	-0.05748595	-3.290543	2.360024	0	0
17.4874	-0.2353957	0.3364069	0.004505274	-0.003234371	-1.169806	0.8186579	0	0
17.50397	-0.2353459	0.3363712	0.003004116	-0.002155048	-0.04530505	0.03257403	0	0
17.52053	-0.2352713	0.3363176	0.004506174	-0.003234371	0.04533219	-0.03257403	0	0
17.53719	-0.2352713	0.3363176	0	0	-0.1356296	0.09735014	0	0
17.55367	-0.2352464	0.3362997	0.00151023	-0.001083386	0.04557883	-0.03269666	0	0
17.57024	-0.2352464	0.3362997	0	0	-0.04570247	0.03278537	0	0
17.5868	-0.2352464	0.3362997	0	0	0	0	0	0
17.60337	-0.2352464	0.3362997	0	0	0	0	0	0
17.61994	-0.2352215	0.3362819	0.001502957	-0.001077524	0.04535934	-0.03251974	0	0
17.6365	-0.2351966	0.336264	0.001502058	-0.001079323	-2.714469E-05	-5.428939E-05	0	0
17.65307	-0.2351717	0.3362462	0.001502058	-0.001077524	0	5.428939E-05	0	0
17.66979	-0.2351717	0.3362462	0	0	-0.04512957	0.03237438	0	0
17.6862	-0.2351468	0.3362283	0.001515669	-0.001087288	0.04574297	-0.03281442	0	0
17.70281	-0.2351219	0.3362105	0.001498607	-0.001075049	-0.0005166344	0.0003706174	0	0
17.71934	-0.2351219	0.3362105	0	0	-0.04523327	0.03244877	0	0
17.7359	-0.2351219	0.3362105	0	0	0	0	0	0
17.75247	-0.2351219	0.3362105	0	0	0	0	0	0
17.78587	-0.2351219	0.3362105	0	0	0	0	0	0
17.80217	-0.2350971	0.3361926	0.001526664	-0.001095176	0.03071773	-0.02203583	0	0
17.81874	-0.2350971	0.3361926	0	0	-0.04644916	0.03332101	0	0
17.8353	-0.2350722	0.3361747	0.001502058	-0.001079323	0.0453322	-0.03257403	0	0
17.85187	-0.2350224	0.336139	0.003005361	-0.002155297	0.0453724	-0.03247482	0	0
17.86844	-0.2349726	0.3361033	0.003005015	-0.002155048	-1.044249E-05	7.491045E-06	0	0
17.885	-0.2349726	0.3360676	0	-0.002156847	-0.09069154	-5.428939E-05	0	0
17.91855	-0.2348979	0.336014	0.002225416	-0.001596436	0.04440737	0.01118279	0	0
17.93547	-0.234873	0.3359962	0.001471282	-0.001054815	-0.01494212	0.01073148	0	0
17.95199	-0.234873	0.3359962	0	0	-0.04400317	0.03154746	0	0
17.96825	-0.2348482	0.3359783	0.001529887	-0.00109932	0.0466745	-0.03353857	0	0
17.98482	-0.2348482	0.3359783	0	0	-0.04659587	0.03348206	0	0
18.00138	-0.2348482	0.3359783	0	0	0	0	0	0
18.01795	-0.2348482	0.3359783	0	0	0	0	0	0
18.03454	-0.2348482	0.3359783	0	0	0	0	0	0
18.05108	-0.234873	0.3359962	-0.001504483	0.001081066	-0.045408	0.0326285	0	0
18.06807	-0.234873	0.3359962	0	0	0.04487837	-0.03224793	0	0
18.08422	-0.234873	0.3359962	0	0	0	0	0	0
18.10078	-0.2348979	0.336014	-0.00150313	0.001077648	-0.04594643	0.03294065	0	0
18.1176	-0.2349228	0.3360319	-0.001479573	0.001061394	0.0007056408	-0.0004868724	0	0
18.13391	-0.2349228	0.3360319	0	0	0.04465618	-0.03203479	0	0
18.15048	-0.2349228	0.3360319	0	0	0	0	0	0
18.16705	-0.2349228	0.3360319	0	0	0	0	0	0
18.18362	-0.234873	0.3359962	0.003005015	-0.002155048	0.09069154	-0.06503949	0	0
18.2025	-0.234873	0.3359962	0	0	-0.08476319	0.06078797	0	0
18.21907	-0.234873	0.3359604	0	-0.002156847	0	-0.06083871	0	0
18.23569	-0.2348482	0.3359426	0.001497575	-0.001074308	0.04512937	0.03262226	0	0
18.2522	-0.2347735	0.335889	0.004522029	-0.003244457	0.09128346	-0.06549898	0	0
18.26877	-0.2347735	0.335889	0	0	-0.1366876	0.09807032	0	0
18.36817	-0.2336032	0.3351212	0.01177257	-0.007724655	0.1015134	-0.06660873	0	0
18.38479	-0.2302632	0.3329068	0.2009314	-0.1332114	1.630315	-1.081541	0	0
18.40181	-0.2253435	0.3296746	0.2892018	-0.1900034	2.624424	-1.688521	0	0
18.41787	-0.2185073	0.3257279	0.4255127	-0.2456629	4.12099	-1.682712	0	0
18.43444	-0.2151944	0.3242277	0.1999662	-0.0905498	-6.911646	4.753284	0	0
18.45101	-0.210644	0.3232454	0.2746661	-0.05929081	2.254449	0.9433983	0	0
18.46757	-0.210644	0.3232811	0	0.002156847	-8.28944	1.854494	0	0
18.48437	-0.2106188	0.3232633	0.001498786	-0.001063082	0.04492828	-0.09652203	0	0
18.50088	-0.2105937	0.3232454	0.001523334	-0.001082939	0.0007370744	-0.0005962157	0	0
18.51739	-0.2105685	0.3232276	0.001524236	-0.001081134	2.732728E-05	5.465456E-05	0	0
18.53384	-0.2104427	0.323174	0.007649457	-0.003257246	0.1858222	-0.06601723	0	0
18.55041	-0.2102917	0.3231025	0.009111736	-0.004310407	0.04427952	-0.03189091	0	0
18.56697	-0.2090832	0.3223167	0.07297426	-0.0474545	1.927486	-1.302166	0	0
18.58354	-0.2064881	0.3206914	0.1566449	-0.09810147	2.525765	-1.528881	0	0
18.60045	-0.1980534	0.3162262	0.4988385	-0.2640828	10.2221	-4.958236	0	0
18.63497	-0.1837459	0.3179766	0.4144108	0.05070075	-1.64149	6.120196	0	0
18.65149	-0.1778125	0.3204592	0.3591297	0.1502684	-1.082959	1.950534	0	0
18.66806	-0.1751601	0.3223167	0.1601032	0.1121165	-6.014941	-1.153021	0	0
18.68501	-0.1737052	0.3233704	0.08581796	0.06215719	-2.216163	-1.490444	0	0
18.7012	-0.1737052	0.3233704	0	0	-2.589991	-1.875908	0	0
18.71803	-0.1737052	0.3233704	0	0	0	0	0	0
18.73454	-0.1737052	0.3233704	0	0	0	0	0	0
18.75105	-0.1737052	0.3233704	0	0	0	0	0	0
18.76746	-0.1737308	0.3233883	-0.001555779	0.001089863	-0.04726093	0.03310748	0	0
18.78408	-0.1737308	0.3233883	0	0	0.0471108	-0.03300231	0	0
18.8006	-0.1737563	0.3234062	-0.001546262	0.001080759	-0.04666627	0.03261738	0	0
18.81716	-0.1737818	0.323424	-0.001540734	0.001077524	0.0001670849	-9.778081E-05	0	0
18.83412	-0.1737563	0.3234062	0.001505548	-0.001052917	0.09087503	-0.06355417	0	0
18.8503	-0.1737563	0.3234062	0	0	-0.04543751	0.03177708	0	0
18.86687	-0.1738074	0.3234062	-0.003081467	0	-0.09409845	0	0	0
18.88365	-0.1738329	0.323424	-0.001520601	0.001063445	0.04679723	0.03188375	0	0
18.9	-0.1738329	0.323424	0	0	0.04589448	-0.03209667	0	0
18.91667	-0.1738839	0.323424	-0.003062271	0	-0.09273448	0	0	0
18.93319	-0.1738839	0.323424	0	0	0.09227081	0	0	0
18.9497	-0.1739095	0.3234419	-0.001545895	0.001081134	-0.04681149	0.03273798	0	0
18.96626	-0.1740116	0.3235133	-0.006162934	0.004311895	-0.1395755	0.09766763	0	0
18.98322	-0.1741903	0.3236383	-0.01053853	0.007373102	-0.1305229	0.09131508	0	0
18.9994	-0.1745476	0.3238884	-0.02208982	0.01545735	-0.3486387	0.243997	0	0
19.01596	-0.1749049	0.3241384	-0.02156577	0.01509253	0.01600454	-0.01114153	0	0
19.03253	-0.1749814	0.324192	-0.004620934	0.003232945	0.5114257	-0.3579437	0	0
19.04927	-0.1749814	0.324192	0	0	0.1387572	-0.0970787	0	0
19.06578	-0.1749814	0.324192	0	0	0	0	0	0
19.08229	-0.175007	0.3242098	-0.001545895	0.001082939	-0.04681149	0.03279264	0	0
19.0988	-0.1750325	0.3242277	-0.001544992	0.001081134	2.732728E-05	-5.465456E-05	0	0
19.11536	-0.1750325	0.3242277	0	0	0.04671671	-0.03269078	0	0
19.1485	-0.1750325	0.3242277	0	0	0	0	0	0
19.24792	-0.1750325	0.324192	0	-0.0003594194	0	-0.002711512	0	0
19.26446	-0.175058	0.3241741	-0.00154251	-0.001078766	-0.0133013	-0.006203041	0	0
19.28103	-0.1750835	0.3241205	-0.001539834	-0.003234371	8.078844E-05	-0.06509376	0	0
19.29794	-0.1752111	0.3238884	-0.007543772	-0.01372716	-0.1793307	-0.3134077	0	0
19.33147	-0.1761295	0.3227096	-0.02739665	-0.03516158	-0.3936249	-0.4249824	0	0
19.34798	-0.1759765	0.3226025	0.009270123	-0.006489357	0.7328434	0.5730598	0	0
19.36452	-0.1758234	0.3224953	0.009253921	-0.006479186	-0.0004902256	0.00030774	0	0
19.38108	-0.1757214	0.3224239	0.006159337	-0.004311895	-0.09347007	0.06546171	0	0
19.39765	-0.1757214	0.3224239	0	0	-0.1858892	0.1301333	0	0
19.41422	-0.1757214	0.3223881	0	-0.002156847	0	-0.06509378	0	0
19.43104	-0.1757469	0.3223346	-0.001516956	-0.003184544	-0.04543917	-0.03078382	0	0
19.44755	-0.1757724	0.3222453	-0.001544992	-0.005409278	-0.0008412051	-0.06675068	0	0
19.46406	-0.1757724	0.3222453	0	0	0.04678416	0.1637992	0	0
19.48057	-0.1757724	0.3222453	0	0	0	0	0	0
19.49705	-0.1757979	0.3222631	-0.001548757	0.001083136	-0.04694155	0.03282894	0	0
19.51362	-0.1758234	0.3222453	-0.001538935	-0.001077524	0.0002972184	-0.0653782	0	0
19.53019	-0.1758234	0.3222453	0	0	0.04644514	0.03251974	0	0
19.54675	-0.1758234	0.3222453	0	0	0	0	0	0
19.56332	-0.1758234	0.3222453	0	0	0	0	0	0
19.57989	-0.1758234	0.3222453	0	0	0	0	0	0
19.59666	-0.1758234	0.3222453	0	0	0	0	0	0
19.61302	-0.1758234	0.3222453	0	0	0	0	0	0
19.62968	-0.1758489	0.3222631	-0.001531372	0.001071602	-0.04637171	0.03244936	0	0
19.64616	-0.1758489	0.3222631	0	0	0.04621689	-0.03234102	0	0
19.66272	-0.1758489	0.3222631	0	0	0	0	0	0
19.67929	-0.1758234	0.3222453	0.001539834	-0.001077524	0.04647229	-0.03251974	0	0
19.69586	-0.1758234	0.3222453	0	0	-0.04646961	0.03251787	0	0
19.71243	-0.1758234	0.3222453	0	0	0	0	0	0
19.72925	-0.1758234	0.3222453	0	0	0	0	0	0
19.74556	-0.1758234	0.3222453	0	0	0	0	0	0
19.76213	-0.1758489	0.3222631	-0.001539834	0.001077524	-0.04684169	0.03277824	0	0
19.77869	-0.1758489	0.3222631	0	0	0.04647229	-0.03251974	0	0
19.7953	-0.1758489	0.3222631	0	0	0	0	0	0
19.81183	-0.1758489	0.3222631	0	0	0	0	0	0
19.9278	-0.1758234	0.3222453	0.0002199799	-0.0001539346	0.001660301	-0.001161823	0	0
19.94436	-0.1758234	0.3222453	0	0	-0.001659776	0.001161455	0	0
19.96093	-0.1758234	0.3222096	0	-0.002155048	0	-0.06503949	0	0
19.9775	-0.1758234	0.3221381	0	-0.004313694	0	-0.06514806	0	0
19.99406	-0.1756448	0.3219059	0.01078008	-0.01401482	0.3253622	-0.2927975	0	0
20.01063	-0.1745731	0.3206557	0.06468923	-0.07546267	1.627075	-1.854606	0	0
20.0272	-0.1721475	0.3183874	0.1463933	-0.1369018	2.465692	-1.854129	0	0
20.04398	-0.1689272	0.3146006	0.1919017	-0.2256585	1.364571	-2.661373	0	0
20.06033	-0.1697965	0.3073834	-0.05317002	-0.4414281	-7.397132	-6.512689	0	0
20.07701	-0.1700777	0.3047212	-0.0168617	-0.1596438	1.099394	8.532265	0	0
20.11153	-0.1740371	0.2736988	-0.1146943	-0.8986495	-1.910902	-14.43454	0	0
20.12804	-0.1747773	0.2632621	-0.04481699	-0.6319238	1.369154	5.22614	0	0
20.14461	-0.1751345	0.2513656	-0.02156398	-0.7180772	0.7028698	-2.604164	0	0
20.16118	-0.1753642	0.2429556	-0.01386121	-0.5076272	0.23247	6.351395	0	0
20.17808	-0.1764611	0.2259537	-0.06490988	-1.006081	-1.525374	-14.89418	0	0
20.19431	-0.1769457	0.2178101	-0.02984924	-0.5016587	1.058193	15.22436	0	0
20.21088	-0.1794945	0.2006342	-0.1538503	-1.036736	-3.780442	-16.31299	0	0
20.22762	-0.1837967	0.1902636	-0.2569315	-0.619342	-3.09443	12.52989	0	0
20.24401	-0.1846869	0.1877905	-0.0543111	-0.1508923	6.115096	14.13784	0	0
20.26058	-0.1914422	0.1757915	-0.4077502	-0.72426	-10.72423	-17.39741	0	0
20.27715	-0.1944586	0.1676654	-0.1820509	-0.4904365	6.811226	7.0564	0	0
20.29371	-0.1967376	0.1590754	-0.1375896	-0.5186145	1.341923	-0.8504637	0	0
20.31028	-0.1980787	0.1475845	-0.08094833	-0.6935883	1.709634	-5.281325	0	0
20.32685	-0.1986604	0.1392742	-0.03511488	-0.5016136	1.383256	5.793806	0	0
20.34341	-0.1989133	0.1286358	-0.01526523	-0.6421351	0.5990636	-4.240948	0	0
20.35998	-0.1985845	0.1211358	0.01984515	-0.4527009	1.059633	5.717136	0	0
20.37672	-0.1970413	0.1149046	0.09218518	-0.3722131	2.17185	2.41647	0	0
20.39311	-0.1957756	0.1070725	0.07720605	-0.4777569	-0.4520713	-3.185318	0	0
20.40974	-0.1945093	0.1015382	0.07614566	-0.3327826	-0.03210958	4.38999	0	0
20.42625	-0.1939266	0.09373873	0.03530658	-0.4725741	-1.232526	-4.218916	0	0
20.44327	-0.1939012	0.0896409	0.001489137	-0.2407491	-1.008709	6.914891	0	0
20.45938	-0.1935972	0.0850424	0.01887096	-0.2853856	0.5245845	-1.347131	0	0
20.47595	-0.1928875	0.08051273	0.04283563	-0.2734114	0.7333016	0.3664014	0	0
20.49252	-0.1933944	0.07675278	-0.03059791	-0.2269511	-2.216229	1.402176	0	0
20.50908	-0.1934451	0.07542495	-0.003058981	-0.08014828	0.8311265	4.430517	0	0
20.52565	-0.1934704	0.07544339	-0.00152994	0.001113502	0.04614655	2.452486	0	0
20.54222	-0.1934704	0.07544339	0	0	0.04617369	-0.03360555	0	0
20.55879	-0.1934704	0.07544339	0	0	0	0	0	0
20.59192	-0.1934704	0.07544339	0	0	0	0	0	0
20.62505	-0.1934704	0.07544339	0	0	0	0	0	0
20.64162	-0.1934704	0.07544339	0	0	0	0	0	0
20.65819	-0.1934704	0.07544339	0	0	0	0	0	0
20.67475	-0.1934704	0.07544339	0	0	0	0	0	0
20.69132	-0.1934704	0.07548028	0	0.002226297	0	0.06718592	0	0
20.70789	-0.1934704	0.07548028	0	0	0	-0.06718978	0	0
20.72445	-0.1934704	0.07548028	0	0	0	0	0	0
20.7615	-0.1934704	0.07548028	0	0	0	0	0	0
20.77801	-0.1934704	0.07548028	0	0	0	0	0	0
20.79453	-0.1934704	0.07548028	0	0	0	0	0	0
20.8111	-0.1934704	0.07548028	0	0	0	0	0	0
20.82767	-0.1934704	0.07548028	0	0	0	0	0	0
20.84423	-0.1934704	0.07548028	0	0	0	0	0	0
20.86107	-0.1934704	0.07548028	0	0	0	0	0	0
20.87737	-0.1934704	0.07548028	0	0	0	0	0	0
20.89409	-0.1934704	0.07548028	0	0	0	0	0	0
20.9106	-0.1934704	0.07548028	0	0	0	0	0	0
20.92707	-0.1934704	0.07548028	0	0	0	0	0	0
20.94363	-0.1934704	0.07548028	0	0	0	0	0	0
20.9602	-0.1934704	0.07548028	0	0	0	0	0	0
20.97677	-0.1934451	0.07549872	0.00152994	0.001113052	0.04617369	0.03359197	0	0
20.99334	-0.1934198	0.07551717	0.001529041	0.001113502	-2.714469E-05	1.357235E-05	0	0
21.0099	-0.1933944	0.07557251	0.00152994	0.003340055	2.714469E-05	0.06719752	0	0
21.02647	-0.1933944	0.07564628	0	0.004453107	-0.04617369	0.03359197	0	0
21.04304	-0.1933184	0.07592294	0.004589821	0.01669893	0.1385211	0.3695796	0	0
21.0596	-0.1930649	0.07640243	0.0152985	0.02894205	0.3231887	0.3694981	0	0
21.07617	-0.1929635	0.0768081	0.006119762	0.02448669	-0.277015	-0.1344628	0	0
21.09274	-0.193141	0.07723217	-0.01070958	0.02559705	-0.5079107	0.03351051	0	0
21.10931	-0.1931663	0.07739811	-0.00152994	0.01001567	0.2770422	-0.4702469	0	0
21.12587	-0.1940279	0.07879905	-0.05200718	0.08456092	-1.523406	2.24978	0	0
21.14244	-0.1963326	0.08110222	-0.1391094	0.13902	-2.628752	1.643577	0	0
21.15929	-0.1994949	0.08509761	-0.1877008	0.2371487	-1.454184	2.936681	0	0
21.17558	-0.2024006	0.09166273	-0.1784103	0.4030931	0.2803879	5.008212	0	0
21.19231	-0.2031581	0.1046177	-0.04525641	0.7740318	4.032053	11.23245	0	0
21.20871	-0.2033348	0.116093	-0.01077592	0.6998226	1.040623	-2.239637	0	0
21.22534	-0.2031581	0.1288546	0.01062758	0.7675519	0.648123	2.050922	0	0
21.24185	-0.2031328	0.1471484	0.001528748	1.107917	-0.2745717	10.27104	0	0
21.25886	-0.2031833	0.1610155	-0.002967349	0.8150618	-0.1341099	-8.735293	0	0
21.27498	-0.2027794	0.1793356	0.02506584	1.13682	0.8461893	9.712358	0	0
21.29154	-0.2025269	0.1926637	0.01524094	0.8044842	-0.3006171	-10.16864	0	0
21.30811	-0.2022744	0.2058233	0.01524274	0.7943143	5.427533E-05	-0.3069289	0	0
21.32468	-0.2015924	0.2227906	0.04116178	1.024153	0.7822382	6.936531	0	0
21.34125	-0.2013398	0.2359034	0.01524814	0.7914892	-0.7820754	-7.021793	0	0
21.35793	-0.2007081	0.2531042	0.03785687	1.030882	0.6799062	7.199196	0	0
21.37438	-0.200607	0.265393	0.006146353	0.7471769	-0.9570802	-8.56273	0	0
21.39095	-0.2004049	0.2734841	0.01220355	0.4883739	0.1834718	-7.839118	0	0
21.42478	-0.1990145	0.3013975	0.0410895	0.8249086	0.5730714	6.676546	0	0
21.44149	-0.1988122	0.3210844	0.01210987	1.178397	-0.5733462	6.993572	0	0
21.45792	-0.1990398	0.3286388	-0.01385442	0.4598499	-0.7836037	-21.68579	0	0
21.47449	-0.1990398	0.3360676	0	0.448403	0.4198917	-0.3469276	0	0
21.49105	-0.1997477	0.3530323	-0.0427304	1.02399	-1.289606	17.37124	0	0
21.50762	-0.2002785	0.3636949	-0.0320406	0.6435967	0.3226187	-11.48029	0	0
21.52419	-0.2010871	0.3674461	-0.04880968	0.2264258	-0.5060919	-12.59024	0	0
21.54075	-0.2020218	0.3729666	-0.05641622	0.3332158	-0.2295656	3.222929	0	0
21.55732	-0.2032338	0.3743602	-0.07315651	0.08412064	-0.5052232	-7.517707	0	0
21.57389	-0.2031833	0.3743245	0.003046938	-0.002156599	2.299692	-2.603702	0	0
21.59046	-0.2032086	0.3743066	-0.00152382	-0.001077648	-0.1379458	0.0325628	0	0
21.60702	-0.2031581	0.3742709	0.00304764	-0.002157096	0.1379828	-0.03258154	0	0
21.62359	-0.2030823	0.3741458	0.004571833	-0.007549865	0.04600289	-0.1627635	0	0
21.64015	-0.2030571	0.3740565	0.00152382	-0.005393638	-0.09199451	0.06507879	0	0
21.65672	-0.2030319	0.3737885	0.001523644	-0.01617725	-5.295031E-06	-0.3254689	0	0
21.67329	-0.2030066	0.3736634	0.00152382	-0.007550734	5.295031E-06	0.2603639	0	0
21.69018	-0.2030319	0.3735026	-0.001494396	-0.009520382	-0.09021234	-0.05887136	0	0
21.70668	-0.2030823	0.3734668	-0.00305891	-0.002165073	-0.04684766	0.2202467	0	0
21.72299	-0.2031076	0.3734133	-0.001548432	-0.00328505	0.04602881	-0.03412908	0	0
21.73971	-0.2031328	0.3733954	-0.001510084	-0.001069717	0.001161081	0.06707511	0	0
21.75622	-0.2031328	0.3733954	0	0	0.04545145	0.03219701	0	0
21.77269	-0.2031833	0.3733597	-0.003064932	-0.002169335	-0.09293313	-0.06577735	0	0
21.78926	-0.2032086	0.3733418	-0.00152382	-0.001077648	0.04664779	0.03304417	0	0
21.80582	-0.2032338	0.3732882	-0.001523644	-0.00323617	5.295031E-06	-0.06514807	0	0
21.82239	-0.2032591	0.3732703	-0.001523644	-0.001077524	0	0.06514806	0	0
21.88881	-0.2033348	0.3732167	-0.001140043	-0.0008071376	0.004622121	0.003257961	0	0
21.90522	-0.203562	0.3730559	-0.0138451	-0.009800361	-0.1533792	-0.1085689	0	0
21.92179	-0.2037891	0.3728951	-0.013711	-0.009704913	0.004066469	0.002894441	0	0
21.93836	-0.2038143	0.3728415	-0.001522745	-0.00323617	0.3678423	0.1952271	0	0
21.95493	-0.2038396	0.3727879	-0.001523644	-0.00323617	-2.714469E-05	0	0	0
21.97149	-0.2038648	0.37277	-0.001523644	-0.001077524	0	0.06514806	0	0
21.98806	-0.2038143	0.3727343	0.003047289	-0.002156847	0.137951	-0.03257403	0	0
22.00463	-0.2038396	0.3727164	-0.001523644	-0.001079323	-0.137951	0.03251974	0	0
22.02119	-0.2038143	0.3726628	0.00152382	-0.003234744	0.09197794	-0.06505448	0	0
22.03776	-0.2037891	0.372645	0.001522745	-0.001079323	-3.244129E-05	0.06505448	0	0
22.09425	-0.2036882	0.3724306	0.001787199	-0.003795457	0.003619919	-0.03717916	0	0
22.12898	-0.2036882	0.3724306	0	0	-0.01959118	0.0416056	0	0
22.1455	-0.2036882	0.3724306	0	0	0	0	0	0
22.16201	-0.2036629	0.3724127	0.001528748	-0.001081134	0.04629228	-0.03273798	0	0
22.17854	-0.2036377	0.3723948	0.001526456	-0.001081315	-6.935893E-05	-5.481082E-06	0	0
22.19511	-0.2036124	0.3723412	0.001523644	-0.003234371	-8.494141E-05	-0.06503928	0	0
22.21168	-0.2036124	0.3723412	0	0	-0.04598632	0.09761914	0	0
22.22825	-0.2036124	0.3723412	0	0	0	0	0	0
22.24481	-0.2036124	0.3723412	0	0	0	0	0	0
22.26138	-0.2036124	0.3723412	0	0	0	0	0	0
22.27809	-0.2036124	0.3723412	0	0	0	0	0	0
22.29451	-0.2036124	0.3723412	0	0	0	0	0	0
22.31112	-0.2036124	0.3723412	0	0	0	0	0	0
22.32765	-0.2036124	0.3723412	0	0	0	0	0	0
22.34421	-0.2036124	0.3723412	0	0	0	0	0	0
22.37735	-0.2035872	0.3723234	0.0007618222	-0.0005396615	0.01532789	-0.01085801	0	0
22.41048	-0.2035872	0.3723234	0	0	-0.01149625	0.008143743	0	0
22.4272	-0.2035367	0.3722519	0.003018932	-0.004274814	0.06055975	-0.08575275	0	0
22.44372	-0.2034862	0.3722162	0.003055732	-0.002162823	0.00110713	0.06353886	0	0
22.46022	-0.2035115	0.3721983	-0.001529455	-0.001081633	-0.1388368	0.03273779	0	0
22.47675	-0.2034862	0.3721804	0.00152769	-0.001082189	0.09256319	-1.680617E-05	0	0
22.49331	-0.2034862	0.3721804	0	0	-0.04616689	0.03270381	0	0
22.52645	-0.2034357	0.3721447	0.001523732	-0.001078486	0.03065873	-0.02170001	0	0
22.55958	-0.20336	0.3720911	0.002285467	-0.001617186	0.01149493	-0.008129232	0	0
22.57615	-0.2033348	0.3720732	0.001523644	-0.001079323	-0.01532789	0.01082182	0	0
22.59282	-0.2033095	0.3720554	0.001514404	-0.001070989	-0.0002780296	0.0002507468	0	0
22.60928	-0.2033095	0.3720554	0	0	-0.04570743	0.03232438	0	0
22.62585	-0.2033095	0.3720554	0	0	0	0	0	0
22.64242	-0.2033095	0.3720554	0	0	0	0	0	0
22.65898	-0.2033095	0.3720196	0	-0.002156847	0	-0.06509378	0	0
22.67588	-0.2032591	0.3719839	0.002988118	-0.002114967	0.08929744	0.001251562	0	0
22.69212	-0.2031833	0.3719303	0.004663275	-0.003301547	0.05055634	-0.03581107	0	0
22.70868	-0.2028804	0.3717159	0.01829064	-0.01294406	0.4154358	-0.293956	0	0
22.72541	-0.2027541	0.3716266	0.007546175	-0.005338972	-0.3227268	0.2284307	0	0
22.74181	-0.2027036	0.3715909	0.003077762	-0.002178416	-0.1348647	0.09539127	0	0
22.75838	-0.2024006	0.3713765	0.01829003	-0.01294108	0.4613912	-0.326434	0	0
22.79165	-0.2012893	0.3705904	0.03340051	-0.02362514	0.3031742	-0.2143632	0	0
22.80847	-0.2012135	0.3705367	0.004507586	-0.003188812	-0.576855	0.4080169	0	0
22.82479	-0.2011882	0.3704832	0.001548621	-0.003283514	-0.0893069	-0.002858298	0	0
22.84149	-0.2010619	0.3703581	0.007563592	-0.007486868	0.1821508	-0.1272898	0	0
22.85792	-0.200885	0.3701973	0.01076463	-0.009787845	0.09661321	-0.06944764	0	0
22.87449	-0.2004301	0.3698757	0.02745618	-0.01940983	0.5058483	-0.2916005	0	0
22.89105	-0.1976992	0.3679106	0.1648405	-0.1186158	4.146267	-2.994042	0	0
22.90804	-0.1835933	0.3578364	0.8302167	-0.5929238	19.82771	-14.13402	0	0
22.92419	-0.1761295	0.3526037	0.4623285	-0.3241338	-11.10289	8.112098	0	0
22.94106	-0.1600918	0.3413712	0.9505276	-0.6657317	14.78665	-10.34637	0	0
22.95732	-0.1479633	0.3329068	0.7459054	-0.5205572	-6.175866	4.381628	0	0
22.97389	-0.1361524	0.3247277	0.7129073	-0.4936914	-1.005202	0.8183965	0	0
22.99046	-0.1205962	0.3139933	0.9389764	-0.6479302	6.822781	-4.654938	0	0
23.00702	-0.1167041	0.3113138	0.234925	-0.1617384	-21.24831	14.6733	0	0
23.02362	-0.09346374	0.2954282	1.400212	-0.9570932	35.13607	-23.98177	0	0
23.04016	-0.08223517	0.2878481	0.6790869	-0.4584331	-21.76485	15.05046	0	0
23.05672	-0.07841781	0.2852731	0.2304166	-0.1554279	-13.55416	9.153671	0	0
23.07365	-0.06000682	0.2729114	1.087379	-0.7300996	25.5819	-17.15501	0	0
23.08986	-0.04573125	0.2633875	0.8811526	-0.587858	-6.224273	4.293107	0	0
23.10668	-0.03537997	0.2565448	0.6152424	-0.4067017	-8.051604	5.485305	0	0
23.12299	-0.02533668	0.2499853	0.6158566	-0.4022341	0.01854024	0.1348395	0	0
23.1397	-0.01865573	0.2455743	0.3997196	-0.263907	-6.545258	4.188947	0	0
23.15612	-0.001710525	0.2350597	1.032083	-0.6404135	19.08585	-11.36364	0	0
23.17273	0.009078698	0.2292056	0.6496681	-0.3525037	-11.57929	8.717738	0	0
23.20582	0.03099008	0.2161732	0.662087	-0.3937922	0.2498693	-0.8307244	0	0
23.22239	0.03892769	0.2107389	0.4791707	-0.3280575	-3.683393	1.323701	0	0
23.23895	0.04827825	0.2043282	0.5644005	-0.3869508	2.572388	-1.777505	0	0
23.25579	0.0549184	0.1997691	0.3944879	-0.2708534	-5.087268	3.476013	0	0
23.27209	0.06092451	0.1956401	0.3684249	-0.2532778	-0.786581	0.5304315	0	0
23.28881	0.06697861	0.1914728	0.3621328	-0.2492745	-0.190556	0.1212409	0	0
23.30532	0.06936223	0.1898304	0.1443575	-0.0994643	-6.553607	4.508304	0	0
23.32183	0.07056684	0.188964	0.0729624	-0.05247986	-2.162052	1.422826	0	0
23.33835	0.07048829	0.188982	-0.004753416	0.001092884	-2.35251	1.621683	0	0
23.35492	0.0704621	0.1889279	-0.001580759	-0.003269449	0.0958724	-0.1318224	0	0
23.37149	0.0704621	0.1889279	0	0	0.04770739	0.09867217	0	0
23.38806	0.07040973	0.1888918	-0.003161067	-0.002179333	-0.09540121	-0.0657724	0	0
23.40489	0.07038355	0.1888737	-0.001555242	-0.001071939	0.04807647	0.03315402	0	0
23.42119	0.07035736	0.1888556	-0.001606843	-0.001108104	-0.001557407	-0.001091514	0	0
23.43776	0.07035736	0.1888556	0	0	0.04889143	0.03371631	0	0
23.45432	0.07033117	0.1888376	-0.001580759	-0.001089217	-0.04770739	-0.03287263	0	0
23.47094	0.07030499	0.1888556	-0.001575773	0.001086091	0.0001502355	0.06555657	0	0
23.5043	0.0702788	0.1888376	-0.000784957	-0.0005408723	0.01582321	-0.03255342	0	0
23.52087	0.07025262	0.1888196	-0.001580309	-0.001089217	-0.01592915	-0.01098214	0	0
23.53749	0.07022643	0.1888376	-0.001576041	0.001085966	0.0001286095	0.06554905	0	0
23.554	0.07020024	0.1888196	-0.001585688	-0.001092613	-0.0002911529	-0.06575345	0	0
23.57101	0.07017406	0.1888015	-0.001539197	-0.001061757	0.001386714	0.0009203784	0	0
23.6037	0.0700955	0.1887473	-0.002403005	-0.001656396	-0.01737984	-0.01196416	0	0
23.62027	0.07006931	0.1887293	-0.001580759	-0.001090116	0.01669224	0.01149592	0	0
23.7031	0.06949318	0.1883321	-0.006955228	-0.004794643	-0.0540683	-0.03726833	0	0
23.71967	0.0694408	0.1883321	-0.003161517	0	0.03816554	0.04823513	0	0
23.73624	0.06941461	0.1883141	-0.001581208	-0.001090116	0.04769382	-0.03289977	0	0
23.75281	0.06936223	0.188278	-0.003161517	-0.002179333	-0.04769382	-0.03287262	0	0
23.76965	0.06925748	0.1882419	-0.006217805	-0.002143064	-0.09146499	0.001085408	0	0
23.78617	0.06915271	0.1881696	-0.006343934	-0.004372762	-0.003780683	-0.06683459	0	0
23.8025	0.06910034	0.1881335	-0.003206181	-0.002211033	0.09551684	0.06580552	0	0
23.81919	0.06873366	0.1879169	-0.02198058	-0.01298719	-0.5686092	-0.326371	0	0
23.83564	0.06852412	0.1877724	-0.01273584	-0.008778874	0.2790069	0.1270071	0	0
23.85221	0.06828839	0.187646	-0.01422908	-0.007629015	-0.04522208	0.03482308	0	0
23.86877	0.06800026	0.1874835	-0.01739349	-0.009809477	-0.09550782	-0.06581027	0	0
23.88534	0.06726678	0.186978	-0.04427293	-0.03051696	-0.8112698	-0.624989	0	0
23.90191	0.06663803	0.1865446	-0.03795125	-0.02615919	0.1907889	0.1315176	0	0
23.91847	0.06655943	0.1865265	-0.004744074	-0.001090116	1.002194	0.7565863	0	0
23.93504	0.06655943	0.1865265	0	0	0.1431765	0.03289977	0	0
23.95161	0.06655943	0.1865265	0	0	0	0	0	0
23.96829	0.06650703	0.1865265	-0.003140091	0	-0.09442569	0	0	0
23.9848	0.06645463	0.1865265	-0.003173828	0	-0.001016259	0	0	0
24.00132	0.06645463	0.1865265	0	0	0.09611275	0	0	0
24.01787	0.06642843	0.1865446	-0.001582569	0.001090744	-0.04785569	0.03298328	0	0
24.03484	0.06640223	0.1865265	-0.001543882	-0.001064383	0.001153956	-0.06428328	0	0
24.05101	0.06637603	0.1865446	-0.001621036	0.001117257	-0.002328647	0.0658458	0	0
24.06786	0.06629743	0.1865626	-0.004662484	0.001071368	-0.09210389	-0.00138964	0	0
24.08438	0.06608783	0.1867071	-0.0126943	0.008749242	-0.2406964	0.2300896	0	0
24.10089	0.06582581	0.1869238	-0.01586821	0.01312341	-0.09610973	0.1324549	0	0
24.1174	0.06391283	0.1882419	-0.1158546	0.07982431	-3.027703	2.019781	0	0
24.15142	0.05234687	0.1962353	-0.3399234	0.2349259	-4.433749	3.069064	0	0
24.16793	0.03995241	0.2047785	-0.7507238	0.5174599	-8.128995	5.590834	0	0
24.18445	0.02583635	0.2145181	-0.8549012	0.5898523	-3.154793	2.192254	0	0
24.21797	0.003157884	0.2300139	-0.6764165	0.462182	3.566891	-2.551403	0	0
24.23449	-0.01249935	0.2406951	-0.9482384	0.6468807	-5.432168	3.691075	0	0
24.25099	-0.0241006	0.2486048	-0.702842	0.479194	7.432175	-5.078628	0	0
24.26728	-0.03929555	0.2589276	-0.9330677	0.6338885	-7.020975	4.71757	0	0
24.28384	-0.05032589	0.2664494	-0.6657928	0.4540173	8.135686	-5.475172	0	0
24.30053	-0.06113425	0.2737883	-0.6478442	0.4398848	0.5397934	-0.4250273	0	0
24.31698	-0.07132617	0.2807123	-0.619536	0.4208895	0.8543435	-0.573278	0	0
24.33355	-0.08474392	0.2898149	-0.8095242	0.5491819	-5.752732	3.884618	0	0
24.35011	-0.09419411	0.2962504	-0.5707436	0.3886721	7.20683	-4.844473	0	0
24.36668	-0.1005545	0.300504	-0.3839107	0.2567476	5.64025	-3.982637	0	0
24.38361	-0.1132242	0.309027	-0.7482931	0.503383	-10.87749	7.362525	0	0
24.4001	-0.1193252	0.3131537	-0.3700007	0.2502693	11.31915	-7.573593	0	0
24.41638	-0.1316292	0.3215666	-0.7558138	0.5167838	-11.77399	8.133316	0	0
24.43312	-0.1468304	0.3320497	-0.9079277	0.6261286	-4.60645	3.311276	0	0
24.44951	-0.1560113	0.3384247	-0.560158	0.3889649	10.49632	-7.158027	0	0
24.46614	-0.1619122	0.3425319	-0.3547525	0.246913	6.219914	-4.301496	0	0
24.48267	-0.1702822	0.3483713	-0.5065545	0.3534013	-4.578229	3.211606	0	0
24.49921	-0.1801059	0.3551753	-0.5938482	0.4113106	-2.639999	1.751335	0	0
24.51578	-0.1882191	0.3606941	-0.4897122	0.3331151	3.145182	-2.361713	0	0
24.53269	-0.1922537	0.3633912	-0.2385037	0.159437	7.502458	-5.186974	0	0
24.54891	-0.1931156	0.3639985	-0.05315202	0.03745075	5.594245	-3.681765	0	0
24.56572	-0.1933691	0.3641057	-0.01508147	0.006378745	1.152887	-0.9409506	0	0
24.58204	-0.1937239	0.3643558	-0.02172826	0.01531473	-0.2006005	0.2696885	0	0
24.59861	-0.1949146	0.3651953	-0.07187212	0.05067422	-1.524313	1.074886	0	0
24.61518	-0.1949399	0.3652132	-0.001529041	0.001079323	2.122958	-1.496777	0	0
24.63175	-0.1949399	0.3652132	0	0	0.04614655	-0.03257403	0	0
24.64831	-0.1949399	0.3651775	0	-0.002156847	0	-0.06509378	0	0
24.66488	-0.1949399	0.3651775	0	0	0	0.06509378	0	0
24.6818	-0.1949146	0.3651239	0.001497154	-0.00316692	0.04470808	-0.09457073	0	0
24.69802	-0.1949146	0.3650882	0	-0.002203526	-0.04518159	0.02907363	0	0
24.71458	-0.1949399	0.3650703	-0.001529393	-0.001077772	-0.04665672	0.03434301	0	0
24.73115	-0.1949146	0.3650524	0.001529041	-0.001079323	0.09231435	-4.680416E-05	0	0
24.74771	-0.1948639	0.3650167	0.003058082	-0.002156847	0.04614655	-0.03251974	0	0
24.78098	-0.1948386	0.3649631	0.0007614086	-0.001610603	-0.0460836	0.01096059	0	0
24.79755	-0.1948133	0.364981	0.001528142	0.001079323	0.01538478	0.05397435	0	0
24.81412	-0.1947879	0.3649631	0.001529041	-0.001079323	2.714469E-05	-0.06514806	0	0
24.83091	-0.1948133	0.3649453	-0.00150889	-0.001063324	-0.09107678	0.0004796572	0	0
24.84725	-0.1948133	0.3649453	0	0	0.04554101	0.03209302	0	0
24.86393	-0.1948133	0.3649453	0	0	0	0	0	0
24.88038	-0.1948386	0.3649274	-0.001538414	-0.001084768	-0.0464321	-0.03274024	0	0
24.89695	-0.1948386	0.3649274	0	0	0.04658227	0.03284613	0	0
24.91352	-0.1948386	0.3649274	0	0	0	0	0	0
24.93048	-0.1948386	0.3649274	0	0	0	0	0	0
24.94665	-0.1948639	0.3649453	-0.001566001	0.00110357	-0.04726199	0.0333058	0	0
24.96322	-0.1948639	0.3649453	0	0	0.04782637	-0.03370352	0	0
24.98002	-0.1948639	0.3649453	0	0	0	0	0	0
24.99635	-0.1948639	0.3649453	0	0	0	0	0	0
25.01292	-0.1948892	0.3649631	-0.001529041	0.001077524	-0.0464837	0.03275733	0	0
25.02949	-0.1948639	0.3649453	0.001529041	-0.001077524	0.0922931	-0.06503949	0	0
25.06262	-0.1948892	0.3649274	-0.0007645205	-0.0005387621	-0.04614655	0.01083991	0	0
25.0796	-0.1948892	0.3648917	0	-0.002104749	0.01525631	-0.03124989	0	0
25.09575	-0.1948892	0.3648917	0	0	0	0.06352512	0	0
25.11232	-0.1949146	0.3648738	-0.001529041	-0.001079323	-0.04672755	-0.03298415	0	0
25.12889	-0.1949399	0.3648559	-0.001529041	-0.001077524	0	5.428939E-05	0	0
25.14545	-0.1949399	0.3648559	0	0	0.04614655	0.03251974	0	0
25.16202	-0.1949399	0.3648559	0	0	0	0	0	0
25.17859	-0.1949399	0.3648559	0	0	0	0	0	0
25.19516	-0.1949652	0.3648381	-0.001528142	-0.001077524	-0.0461194	-0.03251974	0	0
25.21172	-0.1949906	0.3648202	-0.001529041	-0.001079323	-2.714469E-05	-5.428939E-05	0	0
25.22829	-0.1950159	0.3648024	-0.001529041	-0.001077524	0	5.428939E-05	0	0
25.26143	-0.1950412	0.3647845	-0.0007645205	-0.0005387621	0.01538218	0.01083991	0	0
25.27824	-0.1950665	0.3647666	-0.001505437	-0.001063287	-0.0148327	-0.01050067	0	0
25.29456	-0.1950665	0.3647666	0	0	0.04543679	0.03209191	0	0
25.31126	-0.1950665	0.3647666	0	0	0	0	0	0
25.32769	-0.1950665	0.3647666	0	0	0	0	0	0
25.34429	-0.1950665	0.3647666	0	0	0	0	0	0
25.36082	-0.1950665	0.3647666	0	0	0	0	0	0
25.37739	-0.1950665	0.3647666	0	0	0	0	0	0
25.39432	-0.1950665	0.3647666	0	0	0	0	0	0
25.41052	-0.1950665	0.3647666	0	0	0	0	0	0
25.42709	-0.1950665	0.3647666	0	0	0	0	0	0
25.44366	-0.1950665	0.3647666	0	0	0	0	0	0
25.46022	-0.1950665	0.3647666	0	0	0	0	0	0
25.47688	-0.1950665	0.3647666	0	0	0	0	0	0
25.56012	-0.1950919	0.3647488	-0.0003043296	-0.0002144629	-0.003046422	-0.002146832	0	0
25.57695	-0.1950919	0.3647488	0	0	0.003041081	0.002143068	0	0
25.59325	-0.1950919	0.3647488	0	0	0	0	0	0
25.60998	-0.1950919	0.3647488	0	0	0	0	0	0
25.62638	-0.1950919	0.3647488	0	0	0	0	0	0
25.643	-0.1950919	0.3647488	0	0	0	0	0	0
25.65952	-0.1950919	0.3647488	0	0	0	0	0	0
25.67608	-0.1950919	0.3647488	0	0	0	0	0	0
25.69265	-0.1950919	0.3647488	0	0	0	0	0	0
25.70955	-0.1950919	0.3647488	0	0	0	0	0	0
25.72578	-0.1950919	0.3647488	0	0	0	0	0	0
25.74257	-0.1951172	0.3647666	-0.001509061	0.001063445	-0.04569613	0.03220233	0	0
25.75892	-0.1951172	0.3647666	0	0	0.04554356	-0.03209482	0	0
25.77559	-0.1951172	0.3647666	0	0	0	0	0	0
25.79205	-0.1951172	0.3647666	0	0	0	0	0	0
25.80862	-0.1951172	0.3647666	0	0	0	0	0	0
25.82519	-0.1951172	0.3647666	0	0	0	0	0	0
25.84175	-0.1951172	0.3647666	0	0	0	0	0	0
25.8623	-0.1951172	0.3647666	0	0	0	0	0	0
25.87886	-0.1950919	0.3647488	0.001529041	-0.001077524	0.04120151	-0.02903495	0	0
25.89543	-0.1951172	0.3647309	-0.001529041	-0.001079323	-0.0922931	-5.428939E-05	0	0
25.912	-0.1951425	0.3647488	-0.001528142	0.001079323	2.714469E-05	0.06514806	0	0
25.92857	-0.1951425	0.3647488	0	0	0.0461194	-0.03257403	0	0
25.96173	-0.1951425	0.3647488	0	0	0	0	0	0
25.97827	-0.1951425	0.3647488	0	0	0	0	0	0
25.99483	-0.1951425	0.3647488	0	0	0	0	0	0
26.0114	-0.1951679	0.3647666	-0.001529041	0.001077524	-0.04614655	0.03251974	0	0
26.02797	-0.1951679	0.3647666	0	0	0.04614655	-0.03251974	0	0
26.04453	-0.1951679	0.3647666	0	0	0	0	0	0
26.0611	-0.1951425	0.3647845	0.001529041	0.001079323	0.04614655	0.03257403	0	0
26.07767	-0.1951425	0.3647845	0	0	-0.04614655	-0.03257403	0	0
26.09424	-0.1951425	0.3647845	0	0	0	0	0	0
26.11084	-0.1951425	0.3647845	0	0	0	0	0	0
26.12737	-0.1951679	0.3647666	-0.001532216	-0.001081564	-0.04624504	-0.03264356	0	0
26.14394	-0.1951679	0.3647666	0	0	0.04629034	0.03267553	0	0
26.1605	-0.1951679	0.3647666	0	0	0	0	0	0
26.17707	-0.1951679	0.3647666	0	0	0	0	0	0
26.21058	-0.1951679	0.3647666	0	0	0	0	0	0
26.22742	-0.1951679	0.3647666	0	0	0	0	0	0
26.24371	-0.1951679	0.3647666	0	0	0	0	0	0
26.26027	-0.1951679	0.3647666	0	0	0	0	0	0
26.27684	-0.1951679	0.3647666	0	0	0	0	0	0
26.29341	-0.1951679	0.3647666	0	0	0	0	0	0
26.30998	-0.1951679	0.3647666	0	0	0	0	0	0
26.34311	-0.1951679	0.3647666	0	0	0	0	0	0
26.40955	-0.1951679	0.3647666	0	0	0	0	0	0
26.42606	-0.1951679	0.3647666	0	0	0	0	0	0
26.44258	-0.1951679	0.3647666	0	0	0	0	0	0
26.45909	-0.1951679	0.3647666	0	0	0	0	0	0
26.47565	-0.1951679	0.3647666	0	0	0	0	0	0
26.49221	-0.1951679	0.3647666	0	0	0	0	0	0
26.50878	-0.1951679	0.3647666	0	0	0	0	0	0
26.52535	-0.1951679	0.3647666	0	0	0	0	0	0
26.54214	-0.1951679	0.3647666	0	0	0	0	0	0
26.55848	-0.1951679	0.3647666	0	0	0	0	0	0
26.57505	-0.1951679	0.3647666	0	0	0	0	0	0
26.59161	-0.1951679	0.3647666	0	0	0	0	0	0
26.60818	-0.1951679	0.3647666	0	0	0	0	0	0
26.62475	-0.1951679	0.3647666	0	0	0	0	0	0
26.64172	-0.1951679	0.3647666	0	0	0	0	0	0
26.65788	-0.1951679	0.3647666	0	0	0	0	0	0
26.67474	-0.1951679	0.3647666	0	0	0	0	0	0
26.69102	-0.1951679	0.3647666	0	0	0	0	0	0
26.70758	-0.1951679	0.3647666	0	0	0	0	0	0
26.72415	-0.1951679	0.3647666	0	0	0	0	0	0
26.74079	-0.1951679	0.3647666	0	0	0	0	0	0
26.7573	-0.1951679	0.3647666	0	0	0	0	0	0
26.77385	-0.1951679	0.3647666	0	0	0	0	0	0
26.79041	-0.1951679	0.3647666	0	0	0	0	0	0
26.80733	-0.1951679	0.3647666	0	0	0	0	0	0
26.84086	-0.1951679	0.3647666	0	0	0	0	0	0
26.85788	-0.1951679	0.3647666	0	0	0	0	0	0
26.87399	-0.1951679	0.3647666	0	0	0	0	0	0
26.89089	-0.1951679	0.3647666	0	0	0	0	0	0
26.90713	-0.1951679	0.3647666	0	0	0	0	0	0
26.92392	-0.1951679	0.3647666	0	0	0	0	0	0
26.94043	-0.1951679	0.3647666	0	0	0	0	0	0
26.95683	-0.1951679	0.3647666	0	0	0	0	0	0
26.97345	-0.1951679	0.3647666	0	0	0	0	0	0
26.98996	-0.1951679	0.3647666	0	0	0	0	0	0
27.00652	-0.1951679	0.3647666	0	0	0	0	0	0
27.02309	-0.1952185	0.3647309	-0.003057183	-0.002156847	-0.09228189	-0.06510502	0	0
27.04	-0.1953705	0.364588	-0.008988386	-0.008453331	-0.1771986	-0.1881116	0	0
27.05622	-0.1956996	0.3643558	-0.02028605	-0.01430822	-0.3409839	-0.1767112	0	0
27.07302	-0.2029814	0.3592474	-0.4335352	-0.304141	-12.51366	-8.776472	0	0
27.08936	-0.2072694	0.3562469	-0.2624547	-0.1836476	5.163218	3.636499	0	0
27.10592	-0.214893	0.3508357	-0.4601622	-0.3266229	-6.008326	-4.345019	0	0
27.12249	-0.2173534	0.3490856	-0.1485239	-0.1056473	9.405806	6.669441	0	0
27.13906	-0.2205629	0.3468355	-0.1937259	-0.1358148	-1.364279	-0.9105095	0	0
27.15562	-0.2218404	0.3459248	-0.07710954	-0.05497172	3.519489	2.439849	0	0
27.17219	-0.2218404	0.3459248	0	0	2.32717	1.65905	0	0
27.18876	-0.2218404	0.3459248	0	0	0	0	0	0
27.20533	-0.2218404	0.3459248	0	0	0	0	0	0
27.22213	-0.2218153	0.3459069	0.001490123	-0.001062599	0.04465836	-0.03184567	0	0
27.23846	-0.2218404	0.3458891	-0.001532757	-0.001094827	-0.09123594	-0.0009726764	0	0
27.25516	-0.2218404	0.3458891	0	0	0.04640562	0.03314688	0	0
27.30472	-0.2218654	0.3459069	-0.0005053414	0.0003607434	-0.007626056	0.005443943	0	0
27.32129	-0.2218654	0.3459069	0	0	0.007641011	-0.005454619	0	0
27.33786	-0.2218654	0.3459069	0	0	0	0	0	0
27.35443	-0.2218654	0.3459069	0	0	0	0	0	0
27.37099	-0.2218654	0.3459069	0	0	0	0	0	0
27.38756	-0.2218654	0.3459069	0	0	0	0	0	0
27.40413	-0.2218654	0.3459069	0	0	0	0	0	0
27.42069	-0.2218654	0.3459069	0	0	0	0	0	0
27.43726	-0.2218654	0.3459069	0	0	0	0	0	0
27.4743	-0.2218654	0.3459069	0	0	0	0	0	0
27.49073	-0.2218654	0.3459069	0	0	0	0	0	0
27.50733	-0.2218404	0.3458891	0.001509519	-0.001077586	0.04570998	-0.03263056	0	0
27.52386	-0.2218654	0.3458712	-0.001514567	-0.001079388	-0.09127235	-5.438738E-05	0	0
27.54043	-0.2218654	0.3458712	0	0	0.04574923	0.03260415	0	0
27.557	-0.2218654	0.3458712	0	0	0	0	0	0
27.57356	-0.2218654	0.3458712	0	0	0	0	0	0
27.59013	-0.2218654	0.3458712	0	0	0	0	0	0
27.6067	-0.2218654	0.3458355	0	-0.002155048	0	-0.06503949	0	0
27.62327	-0.2218654	0.3457998	0	-0.002156847	0	-5.428939E-05	0	0
27.63992	-0.2219155	0.3457284	-0.003007079	-0.004287391	-0.09051414	-0.06413014	0	0
27.65643	-0.2220157	0.3456212	-0.00606606	-0.006491162	-0.09223527	-0.06644874	0	0
27.67296	-0.2221659	0.3454784	-0.009086943	-0.008639896	-0.09142306	-0.0650286	0	0
27.68953	-0.222216	0.3453712	-0.003022656	-0.0064662	0.1831998	0.06566656	0	0
27.7061	-0.222241	0.3453176	-0.0015114	-0.003235116	0.04561241	0.0975199	0	0
27.72266	-0.2222911	0.3451748	-0.003022105	-0.008623791	-0.04559839	-0.1626492	0	0
27.73923	-0.222266	0.3450855	0.001511052	-0.005387621	0.1368109	0.09766781	0	0
27.7558	-0.2223161	0.3449426	-0.003023004	-0.008623791	-0.1368381	-0.09766781	0	0
27.78904	-0.2289158	0.3381212	-0.1985606	-0.2052339	-3.926089	-3.947623	0	0
27.80554	-0.2339021	0.3228346	-0.3021565	-0.9263231	-2.082754	-14.49722	0	0
27.83863	-0.2362913	0.2838781	-0.07219043	-1.177065	4.636534	-5.055422	0	0
27.8552	-0.2379572	0.2581215	-0.1005515	-1.554675	-0.5710647	-7.603354	0	0
27.87177	-0.2384045	0.2514193	-0.02699395	-0.4044479	2.219717	34.70992	0	0
27.88834	-0.2408878	0.2169827	-0.1499282	-2.079078	-3.710163	-50.54043	0	0
27.9049	-0.242302	0.1961811	-0.0853672	-1.255729	1.948792	24.853	0	0
27.92147	-0.2428227	0.1893792	-0.03143258	-0.4105691	1.627843	25.50845	0	0
27.93814	-0.2457463	0.1469304	-0.1754192	-2.546967	-4.332554	-64.28419	0	0
27.95465	-0.2464889	0.1366348	-0.04495886	-0.6233076	3.931415	57.9694	0	0
27.97117	-0.2474786	0.1227426	-0.05993283	-0.8412478	-0.4533243	-6.597958	0	0
27.98773	-0.2492342	0.1059368	-0.1059756	-1.014513	-1.391899	-5.237891	0	0
28.0043	-0.2504201	0.09438156	-0.0715843	-0.6974779	1.037993	9.568683	0	0
28.02087	-0.2522964	0.0793335	-0.1132516	-0.9083025	-1.257521	-6.3627	0	0
28.03743	-0.2532092	0.06831754	-0.05510219	-0.6650012	1.755053	7.343271	0	0
28.07056	-0.2552799	0.04630687	-0.0624973	-0.6643217	-0.1488014	0.01367247	0	0
28.08724	-0.256339	0.03243943	-0.06351331	-0.8315831	-0.02039824	-3.358091	0	0
28.12126	-0.2578651	0.01396695	-0.04485924	-0.5429971	0.3679636	5.692546	0	0
28.13777	-0.2576928	0.005877977	0.0104311	-0.4898307	1.094137	1.052107	0	0
28.15417	-0.2589965	-0.005811088	-0.0794878	-0.7126918	-2.731842	-6.770782	0	0
28.17074	-0.2587752	-0.01054742	0.01336304	-0.2859845	2.816837	12.94512	0	0
28.20387	-0.2601027	-0.01652017	-0.04006678	-0.1802682	-1.075175	2.127341	0	0
28.22044	-0.2601519	-0.01648233	-0.002968138	0.00228378	0.7464547	3.673095	0	0
28.237	-0.2601519	-0.01648233	0	0	0.08957859	-0.06892462	0	0
28.25357	-0.2601519	-0.01648233	0	0	0	0	0	0
28.27013	-0.2601519	-0.01648233	0	0	0	0	0	0
28.28688	-0.2601519	-0.01648233	0	0	0	0	0	0
28.30339	-0.2601519	-0.01648233	0	0	0	0	0	0
28.3199	-0.2601519	-0.01648233	0	0	0	0	0	0
28.33645	-0.2601273	-0.01646341	0.00148578	0.001143262	0.04494441	0.03458336	0	0
28.36954	-0.2601519	-0.01644449	-0.0007430612	0.000571763	-0.04490296	-0.01151362	0	0
28.38645	-0.2601519	-0.01644449	0	0	0.01486088	-0.011435	0	0
28.40296	-0.2601519	-0.01644449	0	0	0	0	0	0
28.41947	-0.2601765	-0.01642558	-0.001487236	0.001145659	-0.04503522	0.03469188	0	0
28.43598	-0.2601765	-0.01638774	0	0.002291695	0.04503782	0.03470531	0	0
28.45237	-0.2602011	-0.01636882	-0.001500305	0.00115444	-0.04560483	-0.03456919	0	0
28.46894	-0.2601765	-0.01634991	0.001484069	0.001141834	0.09055863	-0.0003825136	0	0
28.48552	-0.2601765	-0.01634991	0	0	-0.04477125	-0.03444673	0	0
28.50207	-0.2601519	-0.01629315	0.001483637	0.003428772	0.04477882	0.1034865	0	0
28.51864	-0.260029	-0.0161229	0.007416748	0.01027639	0.1791442	0.2067568	0	0
28.5352	-0.2599799	-0.01608507	0.002968138	0.002283668	-0.1342593	-0.2412209	0	0
28.55177	-0.2598816	-0.01597157	0.005932679	0.006850553	0.08947001	0.1378289	0	0
28.56834	-0.2598324	-0.01589591	0.002968138	0.004566886	-0.08947001	-0.06892123	0	0
28.58509	-0.2597587	-0.01583917	0.004401759	0.003387611	0.04302898	-0.03539497	0	0
28.60147	-0.2594637	-0.01565003	0.01800422	0.01154424	0.4105231	0.2461676	0	0
28.61804	-0.2587506	-0.01510158	0.04303981	0.03310424	0.7597741	0.6542979	0	0
28.63461	-0.2578651	-0.01442088	0.05345168	0.04108707	0.3142309	0.2409222	0	0
28.65117	-0.2557726	-0.01285204	0.126306	0.09469537	2.198747	1.617902	0	0
28.66774	-0.2543681	-0.01177509	0.08478519	0.06501253	-1.253172	-0.8958814	0	0
28.68431	-0.2484184	-0.007301065	0.35908	0.2700215	8.278234	6.187183	0	0
28.70087	-0.2433185	-0.003454909	0.3078656	0.2321812	-1.545655	-1.142024	0	0
28.71769	-0.2359928	0.002061413	0.4356603	0.328056	3.828424	2.87218	0	0
28.73401	-0.2320834	0.005051108	0.2395559	0.1832002	-5.918441	-4.371756	0	0
28.75058	-0.2260434	0.009596399	0.3645782	0.2743543	3.80163	2.771779	0	0
28.76714	-0.2182064	0.0154663	0.4730439	0.3543079	3.2735	2.413004	0	0
28.78371	-0.2123546	0.01986691	0.3532121	0.2656212	-3.616533	-2.676569	0	0
28.81781	-0.1994696	0.02952905	0.3778856	0.2833666	0.486995	0.3502499	0	0
28.83437	-0.1956743	0.03240213	0.22911	0.1734395	-2.936574	-2.169771	0	0
28.85094	-0.1872539	0.03892351	0.5082559	0.3936314	8.425125	6.645786	0	0
28.86751	-0.1842292	0.04128702	0.1825756	0.1426613	-9.829051	-7.574292	0	0
28.90064	-0.1747007	0.04838724	0.2875851	0.2142974	2.112876	1.441377	0	0
28.91721	-0.1705378	0.05141291	0.2512745	0.1826298	-0.7305984	-0.6371788	0	0
28.93377	-0.1679042	0.0533607	0.1589663	0.1175693	-2.785867	-1.963529	0	0
28.95034	-0.1673413	0.05376869	0.03397349	0.02462633	-3.77229	-2.805025	0	0
28.96691	-0.1673413	0.05376869	0	0	-1.025322	-0.7432241	0	0
28.98348	-0.1673669	0.05378724	-0.001545231	0.001119348	-0.04663516	0.03378199	0	0
29.00004	-0.1673669	0.05378724	0	0	0.04663516	-0.03378199	0	0
29.04975	-0.1673413	0.05376869	0.000515077	-0.000373116	0.007772527	-0.005630332	0	0
29.06631	-0.1673413	0.05376869	0	0	-0.007772527	0.005630332	0	0
29.08296	-0.1673413	0.05376869	0	0	0	0	0	0
29.09945	-0.1673413	0.05376869	0	0	0	0	0	0
29.11601	-0.1673669	0.05375015	-0.001545231	-0.001119348	-0.04675088	-0.03386582	0	0
29.13258	-0.1673925	0.05376869	-0.001544331	0.001119348	2.714469E-05	0.06756398	0	0
29.14915	-0.1673925	0.05376869	0	0	0.04660802	-0.03378199	0	0
29.16571	-0.1673925	0.05376869	0	0	0	0	0	0
29.18228	-0.1673925	0.05376869	0	0	0	0	0	0
29.19885	-0.1673925	0.05376869	0	0	0	0	0	0
29.21541	-0.1673925	0.05376869	0	0	0	0	0	0
29.23198	-0.1673669	0.05375015	0.001544331	-0.001119348	0.0466107	-0.03378394	0	0
29.24855	-0.1673669	0.05375015	0	0	-0.0466107	0.03378394	0	0
29.26511	-0.1673669	0.05375015	0	0	0	0	0	0
29.28168	-0.1673669	0.05375015	0	0	0	0	0	0
29.29824	-0.1673669	0.05375015	0	0	0	0	0	0
29.31481	-0.1673669	0.05375015	0	0	0	0	0	0
29.33138	-0.1673669	0.05375015	0	0	0	0	0	0
29.34814	-0.1673669	0.05375015	0	0	0	0	0	0
29.36465	-0.1673669	0.05375015	0	0	0	0	0	0
29.38108	-0.1673669	0.05375015	0	0	0	0	0	0
29.39765	-0.1673669	0.05375015	0	0	0	0	0	0
29.41468	-0.1673669	0.05375015	0	0	0	0	0	0
29.43078	-0.1673925	0.05376869	-0.001589721	0.001152246	-0.04798063	0.03477687	0	0
29.46406	-0.1688249	0.05484409	-0.04303972	0.03231236	-0.8394845	0.6310841	0	0
29.48063	-0.1706911	0.05623426	-0.1126454	0.08391062	-1.396342	1.0351	0	0
29.49719	-0.1783478	0.06271526	-0.462158	0.3911941	-10.54831	9.273834	0	0
29.51376	-0.1850937	0.07090346	-0.4071827	0.4942405	1.659158	3.109945	0	0
29.53033	-0.1880413	0.08292546	-0.1779174	0.7256496	6.919241	6.983942	0	0
29.5469	-0.1883714	0.1006947	-0.019927	1.072553	4.768159	10.46957	0	0
29.56346	-0.1882699	0.1131856	0.006131454	0.7539517	0.7864458	-9.615408	0	0
29.58003	-0.1876096	0.1248051	0.0398567	0.7013527	1.01783	-1.587441	0	0
29.5966	-0.1873047	0.1392378	0.01840188	0.871262	-0.6475452	5.128168	0	0
29.61333	-0.1872539	0.1500734	0.003036116	0.6476288	-0.4614816	-6.716398	0	0
29.62973	-0.1872539	0.1657092	0	0.9533267	-0.09163544	9.226511	0	0
29.64635	-0.1876604	0.1779073	-0.02444768	0.7337458	-0.7402612	-6.648782	0	0
29.66286	-0.1877111	0.1901192	-0.003077159	0.7397494	0.6450006	0.1812018	0	0
29.67943	-0.1879905	0.2063276	-0.01686352	0.978338	-0.4168171	7.21349	0	0
29.696	-0.1876349	0.2184216	0.02146077	0.7299116	1.156563	-7.497091	0	0
29.71256	-0.1872031	0.2299779	0.02606865	0.6976243	0.1390662	-0.9744326	0	0
29.72913	-0.1868728	0.2411616	0.0199351	0.6750473	-0.1851217	-0.6814141	0	0
29.7457	-0.1863392	0.255416	0.0322088	0.8603958	0.3704211	5.593829	0	0
29.77883	-0.1849412	0.2759177	0.04219586	0.6187782	0.2009478	-4.861543	0	0
29.79546	-0.1844072	0.2858811	0.03211756	0.5992529	-0.2025428	-0.392399	0	0
29.87823	-0.1858309	0.3173336	-0.01720057	0.3799841	-0.4961604	-2.205933	0	0
29.8948	-0.1858055	0.3173157	0.001533538	-0.001077524	0.1885849	-3.835917	0	0
29.91136	-0.1857801	0.3172978	0.001534438	-0.001079323	2.714469E-05	-5.428939E-05	0	0
29.92806	-0.1858055	0.31728	-0.001522518	-0.001069154	-0.09189939	0.0003057007	0	0
29.94456	-0.1857547	0.3172443	0.003081291	-0.002165573	0.1386798	-0.03302726	0	0
29.96107	-0.1857547	0.3172085	0	-0.002164072	-0.09333742	4.546957E-05	0	0
29.97763	-0.1857293	0.3171907	0.001535498	-0.001078269	0.04643498	0.03283577	0	0
29.9942	-0.1857293	0.3171549	0	-0.002156847	-0.04635744	-0.0325628	0	0
30.01076	-0.1857293	0.3171549	0	0	0	0.06509378	0	0
30.02762	-0.1857293	0.3171192	0	-0.002117745	0	-0.06335568	0	0
30.0439	-0.1857293	0.3170835	0	-0.00219552	0	-0.002347261	0	0
30.06046	-0.1857547	0.3170657	-0.001534438	-0.001077524	-0.0467209	0.034041	0	0
30.07703	-0.1857801	0.3170121	-0.001534438	-0.003234371	0	-0.06509378	0	0
30.0936	-0.1857801	0.3170121	0	0	0.04630942	0.09761352	0	0
30.11017	-0.1857801	0.3170121	0	0	0	0	0	0
30.12673	-0.1857801	0.3170121	0	0	0	0	0	0
30.14371	-0.1857801	0.3170121	0	0	0	0	0	0
30.15987	-0.1857801	0.3170121	0	0	0	0	0	0
30.17643	-0.1857801	0.3170121	0	0	0	0	0	0
30.21106	-0.1857801	0.3170121	0	0	0	0	0	0
30.22777	-0.1857801	0.3170121	0	0	0	0	0	0
30.24428	-0.1857801	0.3170121	0	0	0	0	0	0
30.26076	-0.1857801	0.3170121	0	0	0	0	0	0
30.27733	-0.1857801	0.3170121	0	0	0	0	0	0
30.2939	-0.1857801	0.3170121	0	0	0	0	0	0
30.31082	-0.1857801	0.3170121	0	0	0	0	0	0
30.32703	-0.1857801	0.3170121	0	0	0	0	0	0
30.3436	-0.1857801	0.3170121	0	0	0	0	0	0
30.36016	-0.1858055	0.3169942	-0.001534438	-0.001079323	-0.04630942	-0.03257403	0	0
30.37687	-0.1858055	0.3169942	0	0	0.04611563	0.03243772	0	0
30.3933	-0.1858055	0.3169942	0	0	0	0	0	0
30.40989	-0.1858309	0.3169763	-0.001530719	-0.001075543	-0.04635193	-0.03256869	0	0
30.42643	-0.1858309	0.3169763	0	0	0.04619984	0.03246182	0	0
30.443	-0.1858309	0.3169763	0	0	0	0	0	0
30.45956	-0.1858309	0.3169763	0	0	0	0	0	0
30.47613	-0.1858309	0.3169763	0	0	0	0	0	0
30.49295	-0.1858309	0.3169763	0	0	0	0	0	0
30.50947	-0.1858563	0.3169585	-0.001539578	-0.001081134	-0.0461854	-0.03243265	0	0
30.52583	-0.1858563	0.3169585	0	0	0.04682846	0.03288423	0	0
30.54249	-0.1858563	0.3169585	0	0	0	0	0	0
30.55897	-0.1858563	0.3169585	0	0	0	0	0	0
30.57553	-0.1858563	0.3169585	0	0	0	0	0	0
30.5921	-0.1858563	0.3169585	0	0	0	0	0	0
30.60867	-0.1858563	0.3169585	0	0	0	0	0	0
30.62555	-0.1858563	0.3169585	0	0	0	0	0	0
30.6418	-0.1858563	0.3169585	0	0	0	0	0	0
30.65857	-0.1858563	0.3169585	0	0	0	0	0	0
30.70812	-0.1859072	0.3169228	-0.001025808	-0.0007211631	-0.01546701	-0.01087361	0	0
30.72463	-0.1859326	0.3169049	-0.0015394	-0.001081009	-0.007774285	-0.005447016	0	0
30.7412	-0.185958	0.316887	-0.001534614	-0.001079447	0.0001446747	4.720784E-05	0	0
30.75777	-0.1860088	0.3168513	-0.003067976	-0.002155048	-0.04627961	-0.03246357	0	0
30.77433	-0.1860088	0.3168513	0	0	0.0925917	0.06503949	0	0
30.7909	-0.1860088	0.3168513	0	0	0	0	0	0
30.80768	-0.1860088	0.3168513	0	0	0	0	0	0
30.82403	-0.1860088	0.3168513	0	0	0	0	0	0
30.84072	-0.1860088	0.3168513	0	0	0	0	0	0
30.85721	-0.1860088	0.3168513	0	0	0	0	0	0
30.89079	-0.1860088	0.3168513	0	0	0	0	0	0
30.90736	-0.1860343	0.3168334	-0.001534438	-0.001079323	-0.03059818	-0.02152275	0	0
30.92393	-0.1860343	0.3168334	0	0	0.04630942	0.03257403	0	0
30.9405	-0.1860343	0.3168334	0	0	0	0	0	0
30.95706	-0.1860343	0.3168334	0	0	0	0	0	0
30.97363	-0.1860343	0.3168334	0	0	0	0	0	0
30.9902	-0.1860343	0.3168334	0	0	0	0	0	0
31.00682	-0.1860343	0.3168334	0	0	0	0	0	0
31.02384	-0.1860343	0.3168334	0	0	0	0	0	0
31.04035	-0.1860597	0.3168156	-0.001538675	-0.001081134	-0.04589572	-0.03224813	0	0
31.05646	-0.1861105	0.3167441	-0.003154034	-0.004432847	-0.04950973	-0.1027279	0	0
31.07303	-0.1862122	0.3166727	-0.006135952	-0.004313694	-0.09123918	0.003645781	0	0
31.08988	-0.1863392	0.3165834	-0.00754103	-0.005300297	-0.04204473	-0.02952251	0	0
31.10616	-0.1863646	0.3165298	-0.001560304	-0.003290822	0.1804987	0.06064606	0	0
31.12291	-0.1864409	0.3164762	-0.004553806	-0.003200837	-0.09064671	0.002724846	0	0
31.1393	-0.1864663	0.3164226	-0.001550864	-0.003268996	0.09063417	-0.002057142	0	0
31.15586	-0.1865679	0.3163154	-0.006135052	-0.006468743	-0.1390877	-0.09708269	0	0
31.17243	-0.1865933	0.3162619	-0.001533538	-0.003234371	0.138874	0.09761352	0	0
31.18945	-0.1866442	0.3162262	-0.002985278	-0.002097574	-0.04322146	0.03384493	0	0
31.20557	-0.1866696	0.3162083	-0.001577666	-0.00110973	0.04248182	0.02981319	0	0
31.22213	-0.1866442	0.3161904	0.001534438	-0.001077524	0.09522812	0.0009854787	0	0
31.23899	-0.1866442	0.3161904	0	0	-0.04591036	0.03223951	0	0
31.25527	-0.1866696	0.3161725	-0.001561585	-0.001098418	-0.04712872	-0.03315033	0	0
31.27201	-0.186695	0.3161547	-0.00151712	-0.001065988	0.001346369	0.0009819663	0	0
31.2884	-0.186695	0.316119	0	-0.002180698	0.0457894	-0.03364395	0	0
31.3051	-0.186695	0.316119	0	0	0	0.06591984	0	0
31.32155	-0.1867204	0.3161368	-0.001544026	0.001086705	-0.04657735	0.03278171	0	0
31.3381	-0.1867204	0.3161368	0	0	0.04677922	-0.03292379	0	0
31.35467	-0.1867204	0.3161368	0	0	0	0	0	0
31.37124	-0.1867204	0.3161368	0	0	0	0	0	0
31.3878	-0.1867204	0.3161368	0	0	0	0	0	0
31.40437	-0.1867204	0.3161368	0	0	0	0	0	0
31.42094	-0.1867204	0.3161368	0	0	0	0	0	0
31.43764	-0.1867458	0.3161547	-0.001521626	0.001069154	-0.0457437	0.03214132	0	0
31.45415	-0.1867458	0.3161547	0	0	0.04581989	-0.03219486	0	0
31.47066	-0.1867458	0.3161547	0	0	0	0	0	0
31.4872	-0.1867458	0.3161547	0	0	0	0	0	0
31.5208	-0.186822	0.3161725	-0.002269147	0.00053136	-0.04525415	0.01059704	0	0
31.5377	-0.1871523	0.3159761	-0.01953698	-0.01162135	-0.3419314	-0.2406435	0	0
31.55393	-0.1875587	0.3156903	-0.02504334	-0.01761003	-0.1661822	-0.1807388	0	0
31.58707	-0.1927354	0.3122248	-0.1562406	-0.1045933	-2.657849	-1.762144	0	0
31.60363	-0.1995202	0.3081159	-0.4095293	-0.2480159	-5.096376	-2.885778	0	0
31.62026	-0.2057064	0.3053108	-0.3719911	-0.1686744	1.130757	2.38999	0	0
31.63677	-0.2116755	0.3057932	-0.3616701	0.02922939	0.3114899	5.972747	0	0
31.65333	-0.2387524	0.313386	-1.634548	0.4583513	-38.49086	12.97632	0	0
31.6699	-0.2441612	0.3151008	-0.3264763	0.1035089	39.47995	-10.70978	0	0
31.68647	-0.2660895	0.3223881	-1.323597	0.4398637	-30.09317	10.15121	0	0
31.70304	-0.2881218	0.3289424	-1.329564	0.395524	-0.1800499	-1.338021	0	0
31.71984	-0.3043467	0.3326568	-0.9658812	0.2211238	10.89879	-5.226403	0	0
31.73617	-0.325614	0.3353354	-1.30229	0.1640224	-10.15458	-1.723623	0	0
31.75273	-0.345043	0.3362283	-1.172872	0.0539004	3.934148	-3.347574	0	0
31.7693	-0.3495103	0.3363712	-0.2696509	0.008623791	27.26083	-1.36653	0	0
31.78587	-0.3654445	0.3359426	-0.9617884	-0.02586957	-20.88875	-1.041012	0	0
31.8029	-0.3753005	0.3356747	-0.5787182	-0.01572824	11.40159	0.3018437	0	0
31.819	-0.3859843	0.3340854	-0.6634361	-0.09869123	-2.556789	-2.503828	0	0
31.83557	-0.3938415	0.3312818	-0.4742617	-0.1692289	5.790287	-2.159031	0	0
31.85213	-0.3975161	0.3283531	-0.2218264	-0.1767973	7.618952	-0.2284285	0	0
31.8687	-0.4018038	0.3249242	-0.2587721	-0.2069436	-1.115022	-0.9098167	0	0
31.88527	-0.403697	0.3234419	-0.1142883	-0.08948439	4.360529	3.544925	0	0
31.90183	-0.4049204	0.3226025	-0.07385219	-0.05067106	1.220504	1.171523	0	0
31.9184	-0.4072967	0.3207272	-0.1434384	-0.113194	-2.100238	-1.887055	0	0
31.93497	-0.4089595	0.3193876	-0.1003662	-0.08085569	1.299921	0.9759722	0	0
31.95153	-0.4089595	0.3194233	0	0.002157096	3.029234	2.505475	0	0
31.9681	-0.4089595	0.3194233	0	0	0	-0.06510502	0	0
31.98467	-0.4089595	0.3194233	0	0	0	0	0	0
32.00124	-0.4089595	0.3194233	0	0	0	0	0	0
32.0178	-0.4089595	0.3194233	0	0	0	0	0	0
32.03437	-0.4089595	0.3194233	0	0	0	0	0	0
32.05094	-0.4089595	0.3194233	0	0	0	0	0	0
32.0675	-0.4089374	0.3194055	0.001338361	-0.001079323	0.0403918	-0.03257403	0	0
32.08407	-0.4089374	0.3194055	0	0	-0.0403918	0.03257403	0	0
32.11862	-0.4089152	0.3193876	0.0006409062	-0.0005166929	0.01253804	-0.01010805	0	0
32.13484	-0.4089152	0.3193876	0	0	-0.01262377	0.01017717	0	0
32.15141	-0.4089152	0.3193876	0	0	0	0	0	0
32.16816	-0.4089152	0.3193876	0	0	0	0	0	0
32.18467	-0.4089152	0.3193876	0	0	0	0	0	0
32.20118	-0.4089152	0.3193876	0	0	0	0	0	0
32.21769	-0.4089152	0.3193876	0	0	0	0	0	0
32.23424	-0.4089152	0.3193876	0	0	0	0	0	0
32.25121	-0.4089152	0.3193876	0	0	0	0	0	0
32.26737	-0.4089152	0.3193876	0	0	0	0	0	0
32.28394	-0.4089152	0.3193876	0	0	0	0	0	0
32.3005	-0.4089152	0.3193876	0	0	0	0	0	0
32.31726	-0.4089152	0.3193876	0	0	0	0	0	0
32.33364	-0.4089152	0.3193876	0	0	0	0	0	0
32.3502	-0.4089152	0.3193876	0	0	0	0	0	0
32.36677	-0.4089152	0.3193876	0	0	0	0	0	0
32.38334	-0.4089152	0.3193876	0	0	0	0	0	0
32.39991	-0.4089152	0.3193876	0	0	0	0	0	0
32.41647	-0.4089152	0.3193876	0	0	0	0	0	0
32.43304	-0.4089152	0.3193876	0	0	0	0	0	0
32.44986	-0.4089152	0.3193876	0	0	0	0	0	0
32.48274	-0.4089152	0.3193876	0	0	0	0	0	0
32.49931	-0.4089152	0.3193876	0	0	0	0	0	0
32.51587	-0.4089152	0.3193876	0	0	0	0	0	0
32.53244	-0.4089152	0.3193876	0	0	0	0	0	0
32.54901	-0.4089152	0.3193876	0	0	0	0	0	0
32.56557	-0.4089152	0.3193876	0	0	0	0	0	0
32.58214	-0.4089152	0.3193876	0	0	0	0	0	0
32.59871	-0.4089152	0.3193876	0	0	0	0	0	0
32.61528	-0.4089152	0.3193876	0	0	0	0	0	0
32.63184	-0.4089152	0.3193876	0	0	0	0	0	0
32.64841	-0.4089152	0.3193876	0	0	0	0	0	0
32.66501	-0.4089152	0.3193876	0	0	0	0	0	0
32.68155	-0.4089152	0.3193876	0	0	0	0	0	0
32.69811	-0.4089152	0.3193876	0	0	0	0	0	0
32.71468	-0.4089152	0.3193876	0	0	0	0	0	0
32.73124	-0.4089152	0.3193876	0	0	0	0	0	0
32.74807	-0.4089152	0.3193876	0	0	0	0	0	0
32.78259	-0.4088487	0.319334	0.00192572	-0.001551969	0.0375021	-0.03022357	0	0
32.79906	-0.4087158	0.3192269	0.008074968	-0.00650921	0.1205947	-0.09721784	0	0
32.81562	-0.408339	0.318959	0.02274134	-0.01617006	0.4440121	-0.2924741	0	0
32.83219	-0.40794	0.3188161	0.02408689	-0.00862559	0.04060897	0.2276925	0	0
32.84876	-0.4076295	0.3186732	0.01874065	-0.00862559	-0.16135	0	0	0
32.86533	-0.4066088	0.3182445	0.06161136	-0.02587317	1.293841	-0.5205331	0	0
32.88189	-0.405676	0.3177444	0.05630109	-0.03018687	-0.1602643	-0.1301876	0	0
32.89846	-0.402606	0.3163154	0.1853072	-0.0862523	3.893411	-1.692058	0	0
32.91503	-0.4007333	0.3157081	0.1130339	-0.03665741	-2.181212	1.496777	0	0
32.9317	-0.3951199	0.3142613	0.3366542	-0.08677398	6.727189	-1.507661	0	0
32.94821	-0.380461	0.3140112	0.8878812	-0.01514665	16.6112	2.158487	0	0
32.96473	-0.3727466	0.3147793	0.4670413	0.04650152	-12.74205	1.866562	0	0
32.9813	-0.3566002	0.3170121	0.9745981	0.1347715	15.34105	2.667985	0	0
32.99786	-0.3484646	0.318566	0.4910668	0.09379677	-14.593	-1.236619	0	0
33.01443	-0.3315549	0.3215487	1.020669	0.1800365	15.98343	2.60272	0	0
33.031	-0.3143985	0.3238884	1.035564	0.1412204	0.4495237	-1.171471	0	0
33.04757	-0.3013498	0.3252099	0.7876234	0.07977097	-7.482853	-1.854548	0	0
33.06413	-0.2889682	0.3261029	0.7473503	0.05389779	-1.215446	-0.7808539	0	0
33.16353	-0.2190339	0.3316032	0.7035676	0.05533572	-0.3775452	0.01239945	0	0
33.1801	-0.2125809	0.3315139	0.3895043	-0.00538942	-2.708217	-0.5236424	0	0
33.1969	-0.2068914	0.3319782	0.3387419	0.02764273	-1.521504	0.9900731	0	0
33.21323	-0.20442	0.3314068	0.1512639	-0.03497475	-5.658096	-1.889799	0	0
33.28265	-0.1895646	0.3382462	0.2139924	0.09852173	0.7314581	1.556661	0	0
33.29922	-0.18959	0.3382283	-0.001531739	-0.001077524	-2.506471	-1.158305	0	0
33.31579	-0.1895646	0.3382462	0.001531739	0.001077524	0.09245597	0.06503949	0	0
33.33236	-0.1895646	0.3382462	0	0	-0.04622798	-0.03251974	0	0
33.34892	-0.1895646	0.3382462	0	0	0	0	0	0
33.36549	-0.18959	0.3382283	-0.001531739	-0.001077524	-0.04622798	-0.03251974	0	0
33.38206	-0.18959	0.3382283	0	0	0.04622798	0.03251974	0	0
33.39862	-0.18959	0.3382283	0	0	0	0	0	0
33.41519	-0.18959	0.3382283	0	0	0	0	0	0
33.43176	-0.18959	0.3382283	0	0	0	0	0	0
33.44832	-0.18959	0.3382283	0	0	0	0	0	0
33.46489	-0.18959	0.3382283	0	0	0	0	0	0
33.48146	-0.18959	0.3382283	0	0	0	0	0	0
33.49802	-0.18959	0.3382283	0	0	0	0	0	0
33.51459	-0.18959	0.3382283	0	0	0	0	0	0
33.54815	-0.1896154	0.3382105	-0.000756564	-0.0005319036	-0.01509236	-0.01061071	0	0
33.56472	-0.1896154	0.3382105	0	0	0.01509236	0.01061071	0	0
33.58129	-0.1896408	0.3382283	-0.001531739	0.001077524	-0.04622798	0.03251974	0	0
33.59785	-0.1896408	0.3382283	0	0	0.04622798	-0.03251974	0	0
33.61442	-0.1896662	0.3382105	-0.001531739	-0.001077524	-0.04622798	-0.03251974	0	0
33.63121	-0.1896662	0.3382105	0	0	0.0459266	0.03230773	0	0
33.64772	-0.1896916	0.3381926	-0.001537595	-0.001081009	-0.04617612	-0.0324642	0	0
33.66423	-0.1896916	0.3381569	0	-0.002164322	0.04656017	-0.03280399	0	0
33.68074	-0.1897169	0.338139	-0.001537048	-0.001081259	-0.04654897	0.03280022	0	0
33.69725	-0.1897169	0.338139	0	0	0.0465436	0.03274177	0	0
33.71382	-0.1897423	0.3381212	-0.001532092	-0.001077772	-0.04631862	-0.0325835	0	0
33.73038	-0.1897423	0.3381212	0	0	0.04624395	0.03253098	0	0
33.74695	-0.1897931	0.3381212	-0.003063479	0	-0.09245597	0	0	0
33.76352	-0.1898185	0.3381033	-0.001532639	-0.001077524	0.04620084	-0.03251974	0	0
33.78031	-0.1898185	0.3381033	0	0	0.04594831	0.03230404	0	0
33.79682	-0.1898438	0.3380855	-0.001537048	-0.001081259	-0.04615969	-0.0324717	0	0
33.81333	-0.1898438	0.3380855	0	0	0.04654897	0.03274555	0	0
33.82984	-0.1898438	0.3380855	0	0	0	0	0	0
33.84636	-0.1898692	0.3380676	-0.001536338	-0.001082564	-0.04651135	-0.03277371	0	0
33.86292	-0.1898946	0.3380497	-0.001532445	-0.001078021	0.0001176956	0.0001373414	0	0
33.87949	-0.1898946	0.3380497	0	0	0.04625993	0.03254222	0	0
33.89605	-0.1898946	0.3380497	0	0	0	0	0	0
33.91262	-0.18992	0.3380676	-0.001531739	0.001077524	-0.04622798	0.03251974	0	0
33.92919	-0.18992	0.3380676	0	0	0.04622798	-0.03251974	0	0
33.94576	-0.18992	0.3380676	0	0	0	0	0	0
33.96232	-0.18992	0.3380676	0	0	0	0	0	0
33.97889	-0.18992	0.3380676	0	0	0	0	0	0
33.99546	-0.18992	0.3380676	0	0	0	0	0	0
34.01202	-0.1899453	0.3380497	-0.001531739	-0.001077524	-0.04622798	-0.03251974	0	0
34.02859	-0.1899453	0.3380497	0	0	0.04622798	0.03251974	0	0
34.04516	-0.1899453	0.3380497	0	0	0	0	0	0
34.06202	-0.1899453	0.3380497	0	0	0	0	0	0
34.07829	-0.1899453	0.3380497	0	0	0	0	0	0
34.09486	-0.1899453	0.3380497	0	0	0	0	0	0
34.11155	-0.1899707	0.3380319	-0.001520536	-0.001069643	-0.04572142	-0.03216339	0	0
34.12799	-0.1899707	0.3380319	0	0	0.04589514	0.0322856	0	0
34.14457	-0.1899707	0.3380319	0	0	0	0	0	0
34.16113	-0.1899961	0.3380497	-0.001533151	0.001078518	-0.0462706	0.03254972	0	0
34.21138	-0.1899961	0.3380497	0	0	0.02294772	-0.01614291	0	0
34.22813	-0.1900215	0.3380319	-0.00151534	-0.001065988	-0.02261528	-0.01590905	0	0
34.24452	-0.1900468	0.338014	-0.001548497	-0.001089313	-0.001000675	-0.0007039386	0	0
34.26109	-0.1900722	0.3379962	-0.001531739	-0.001077524	0.000508505	0.0003577152	0	0
34.27767	-0.1900722	0.3379962	0	0	0.04620671	0.03250477	0	0
34.29422	-0.1900722	0.3379962	0	0	0	0	0	0
34.31079	-0.1900722	0.3379962	0	0	0	0	0	0
34.32771	-0.1900976	0.3379783	-0.001499965	-0.001055172	-0.04479457	-0.03151139	0	0
34.34392	-0.1900976	0.3379783	0	0	0.04526903	0.03184515	0	0
34.36049	-0.1900976	0.3379783	0	0	0	0	0	0
34.37724	-0.1900976	0.3379783	0	0	0	0	0	0
34.39375	-0.1900976	0.3379783	0	0	0	0	0	0
34.41026	-0.1900976	0.3379783	0	0	0	0	0	0
34.42677	-0.1900976	0.3379783	0	0	0	0	0	0
34.44332	-0.1900976	0.3379783	0	0	0	0	0	0
34.45988	-0.1900976	0.3379783	0	0	0	0	0	0
34.47645	-0.1900976	0.3379783	0	0	0	0	0	0
34.49332	-0.1900976	0.3379783	0	0	0	0	0	0
34.50959	-0.1900976	0.3379783	0	0	0	0	0	0
34.52615	-0.190123	0.3379605	-0.001531739	-0.001079323	-0.04665229	-0.03287302	0	0
34.54272	-0.190123	0.3379605	0	0	0.04622798	0.03257403	0	0
34.55937	-0.190123	0.3379605	0	0	0	0	0	0
34.57588	-0.190123	0.3379605	0	0	0	0	0	0
34.59242	-0.190123	0.3379605	0	0	0	0	0	0
34.61184	-0.190123	0.3379605	0	0	0	0	0	0
