Time	Pos X	Pos Y	Vel X	Vel Y	Acc X	Acc YForce X	Force Y
0.0210188	-0.1978004	0.28234	0.002936271	-0.004191229	-4.359853E-05	6.223248E-05	0	0
0.1703314	-0.1978004	0.28234	0	0	4.368463E-05	-6.235539E-05	0	0
0.1869009	-0.1978004	0.28234	0	0	0	0	0	0
0.2036859	-0.1978004	0.28234	0	0	0	0	0	0
0.2201994	-0.1978004	0.28234	0	0	0	0	0	0
0.2366015	-0.1978004	0.28234	0	0	0	0	0	0
0.2531678	-0.1978004	0.28234	0	0	0	0	0	0
0.2697342	-0.1978004	0.28234	0	0	0	0	0	0
0.2863017	-0.1978004	0.28234	0	0	0	0	0	0
0.3028684	-0.1978004	0.28234	0	0	0	0	0	0
0.3691358	-0.1978004	0.28234	0	0	0	0	0	0
0.3857017	-0.1978004	0.28234	0	0	0	0	0	0
0.4022689	-0.1978004	0.28234	0	0	0	0	0	0
0.4188415	-0.1977751	0.2823221	0.001526742	-0.001080768	0.04606976	-0.03261239	0	0
0.4354019	-0.1977751	0.2823221	0	0	-0.04607912	0.03261903	0	0
0.4523622	-0.1977751	0.2823221	0	0	0	0	0	0
0.468535	-0.1977751	0.2823221	0	0	0	0	0	0
0.4851009	-0.1977751	0.2823221	0	0	0	0	0	0
0.501668	-0.1977751	0.2823221	0	0	0	0	0	0
0.5182351	-0.1977751	0.2823221	0	0	0	0	0	0
0.5348015	-0.1977751	0.2823221	0	0	0	0	0	0
0.5513678	-0.1977498	0.2823042	0.001527325	-0.001079381	0.04609723	-0.03257755	0	0
0.5679365	-0.1977498	0.2823042	0	0	-0.04609392	0.03257521	0	0
0.5845001	-0.1977498	0.2823042	0	0	0	0	0	0
0.6015047	-0.1977498	0.2823042	0	0	0	0	0	0
0.6176348	-0.1977498	0.2823042	0	0	0	0	0	0
0.6342019	-0.1977498	0.2823042	0	0	0	0	0	0
0.6507679	-0.1977498	0.2823042	0	0	0	0	0	0
0.6675142	-0.1977751	0.2823221	-0.001510907	0.001067779	-0.04535589	0.03205363	0	0
0.6840256	-0.1977751	0.2823221	0	0	0.04543019	-0.03210614	0	0
0.700468	-0.1977751	0.2823221	0	0	0	0	0	0
0.7170351	-0.1977751	0.2823221	0	0	0	0	0	0
0.7501666	-0.1977751	0.2823221	0	0	0	0	0	0
0.7667325	-0.1977751	0.2823221	0	0	0	0	0	0
0.7832993	-0.1977751	0.2823221	0	0	0	0	0	0
0.8068749	-0.1977751	0.2823221	0	0	0	0	0	0
0.823442	-0.1977751	0.2823221	0	0	0	0	0	0
0.8400091	-0.1977751	0.2823221	0	0	0	0	0	0
0.8565754	-0.1977751	0.2823221	0	0	0	0	0	0
0.8731425	-0.1977751	0.2823221	0	0	0	0	0	0
0.8897089	-0.1977751	0.2823221	0	0	0	0	0	0
0.9062756	-0.1977751	0.2823221	0	0	0	0	0	0
0.922842	-0.1977751	0.2823221	0	0	0	0	0	0
0.9397028	-0.1977751	0.2823221	0	0	0	0	0	0
0.9559755	-0.1977751	0.2823221	0	0	0	0	0	0
0.9725422	-0.1977751	0.2823221	0	0	0	0	0	0
0.989109	-0.1977751	0.2823221	0	0	0	0	0	0
1.005748	-0.1977751	0.2823221	0	0	0	0	0	0
1.02226	-0.1977751	0.2823221	0	0	0	0	0	0
1.038809	-0.1977751	0.2823221	0	0	0	0	0	0
1.055376	-0.1977751	0.2823221	0	0	0	0	0	0
1.071943	-0.1977751	0.2823221	0	0	0	0	0	0
1.088509	-0.1977751	0.2823221	0	0	0	0	0	0
1.105075	-0.1977751	0.2823221	0	0	0	0	0	0
1.121642	-0.1977751	0.2823221	0	0	0	0	0	0
1.138342	-0.1977751	0.2823221	0	0	0	0	0	0
1.171342	-0.1977751	0.2823221	0	0	0	0	0	0
1.187909	-0.1977751	0.2823221	0	0	0	0	0	0
1.204476	-0.1977751	0.2823221	0	0	0	0	0	0
1.221042	-0.1977751	0.2823221	0	0	0	0	0	0
1.237609	-0.1977751	0.2823221	0	0	0	0	0	0
1.254188	-0.1977751	0.2823221	0	0	0	0	0	0
1.270936	-0.1977751	0.2823221	0	0	0	0	0	0
1.303959	-0.1977751	0.2823221	0	0	0	0	0	0
1.320442	-0.1977751	0.2823221	0	0	0	0	0	0
1.337009	-0.1977751	0.2823221	0	0	0	0	0	0
1.353576	-0.1977751	0.2823221	0	0	0	0	0	0
1.370143	-0.1977751	0.2823221	0	0	0	0	0	0
1.38671	-0.1977751	0.2823221	0	0	0	0	0	0
1.403276	-0.1977751	0.2823221	0	0	0	0	0	0
1.420042	-0.1977751	0.2823221	0	0	0	0	0	0
1.436409	-0.1977751	0.2823221	0	0	0	0	0	0
1.456961	-0.1977751	0.2823221	0	0	0	0	0	0
1.473528	-0.1977751	0.2823221	0	0	0	0	0	0
1.490095	-0.1977751	0.2823221	0	0	0	0	0	0
1.506662	-0.1977751	0.2823221	0	0	0	0	0	0
1.523229	-0.1977751	0.2823221	0	0	0	0	0	0
1.539796	-0.1977751	0.2823221	0	0	0	0	0	0
1.556372	-0.1977751	0.2823221	0	0	0	0	0	0
1.573152	-0.1977751	0.2823221	0	0	0	0	0	0
1.589495	-0.1977751	0.2823221	0	0	0	0	0	0
1.606062	-0.1977751	0.2823221	0	0	0	0	0	0
1.622629	-0.1977751	0.2823221	0	0	0	0	0	0
1.639196	-0.1977751	0.2823221	0	0	0	0	0	0
1.655762	-0.1977751	0.2823221	0	0	0	0	0	0
1.672328	-0.1977751	0.2823221	0	0	0	0	0	0
1.688895	-0.1977751	0.2823221	0	0	0	0	0	0
1.705462	-0.1977751	0.2823221	0	0	0	0	0	0
1.722029	-0.1977751	0.2823221	0	0	0	0	0	0
1.738595	-0.1977751	0.2823221	0	0	0	0	0	0
1.755162	-0.1977751	0.2823221	0	0	0	0	0	0
1.771729	-0.1977751	0.2823221	0	0	0	0	0	0
1.788295	-0.1977751	0.2823221	0	0	0	0	0	0
1.804862	-0.1977751	0.2823221	0	0	0	0	0	0
1.821429	-0.1977751	0.2823221	0	0	0	0	0	0
1.837996	-0.1977751	0.2823221	0	0	0	0	0	0
1.854562	-0.1977751	0.2823221	0	0	0	0	0	0
1.871129	-0.1977751	0.2823221	0	0	0	0	0	0
1.887695	-0.1977751	0.2823221	0	0	0	0	0	0
1.904262	-0.1977751	0.2823221	0	0	0	0	0	0
1.920896	-0.1977498	0.2823042	0.001521124	-0.001074999	0.04581612	-0.03237889	0	0
1.937396	-0.1977498	0.2823042	0	0	-0.04590843	0.03244412	0	0
1.970529	-0.1977498	0.2823042	0	0	0	0	0	0
1.987095	-0.1977498	0.2823042	0	0	0	0	0	0
2.003954	-0.1977245	0.2822863	0.001499943	-0.001060655	0.04487413	-0.03173186	0	0
2.020229	-0.1977245	0.2822863	0	0	-0.04526969	0.03201156	0	0
2.036978	-0.1977245	0.2822863	0	0	0	0	0	0
2.053362	-0.1977245	0.2822863	0	0	0	0	0	0
2.07	-0.1977245	0.2822863	0	0	0	0	0	0
2.090165	-0.1977245	0.2822863	0	0	0	0	0	0
2.106732	-0.1977245	0.2822863	0	0	0	0	0	0
2.123299	-0.1977245	0.2822863	0	0	0	0	0	0
2.139866	-0.1977245	0.2822863	0	0	0	0	0	0
2.172999	-0.1977245	0.2822863	0	0	0	0	0	0
2.189584	-0.1977245	0.2822863	0	0	0	0	0	0
2.206132	-0.1977245	0.2822863	0	0	0	0	0	0
2.222699	-0.1977245	0.2822863	0	0	0	0	0	0
2.239265	-0.1977498	0.2822684	-0.001526431	-0.001079385	-0.04606909	-0.03257685	0	0
2.256131	-0.1977498	0.2822684	0	0	0.04565744	0.03228575	0	0
2.272643	-0.1977245	0.2822506	0.0015315	-0.00108297	0.04588433	-0.03244619	0	0
2.289156	-0.1976992	0.2822327	0.001532248	-0.001082861	2.263829E-05	3.313608E-06	0	0
2.305667	-0.1976486	0.2821969	0.003064805	-0.002167745	0.04640661	-0.03285084	0	0
2.322179	-0.1976233	0.282179	0.001532402	-0.00108297	-0.04640426	0.03284919	0	0
2.355232	-0.1975727	0.2821432	0.001530977	-0.001081962	-2.876733E-05	2.033067E-05	0	0
2.371799	-0.1975727	0.2821432	0	0	-0.03085408	0.021805	0	0
2.388365	-0.1975727	0.2821432	0	0	0	0	0	0
2.404932	-0.1975727	0.2821432	0	0	0	0	0	0
2.421499	-0.1975727	0.2821432	0	0	0	0	0	0
2.438261	-0.1975727	0.2821432	0	0	0	0	0	0
2.454772	-0.1975727	0.2821432	0	0	0	0	0	0
2.471287	-0.1975727	0.2821432	0	0	0	0	0	0
2.487765	-0.1975727	0.2821432	0	0	0	0	0	0
2.504332	-0.1975727	0.2821432	0	0	0	0	0	0
2.520898	-0.1975727	0.2821432	0	0	0	0	0	0
2.537465	-0.1975727	0.2821432	0	0	0	0	0	0
2.554032	-0.1975727	0.2821432	0	0	0	0	0	0
2.570599	-0.1975727	0.2821432	0	0	0	0	0	0
2.587165	-0.1975727	0.2821432	0	0	0	0	0	0
2.603732	-0.1975727	0.2821432	0	0	0	0	0	0
2.620389	-0.1975474	0.2821254	0.001519044	-0.00107353	0.04572214	-0.03231246	0	0
2.6369	-0.1975474	0.2821254	0	0	-0.04579838	0.03236635	0	0
2.653432	-0.1975474	0.2821254	0	0	0	0	0	0
2.669999	-0.1975474	0.2821254	0	0	0	0	0	0
2.686565	-0.1975474	0.2821254	0	0	0	0	0	0
2.703132	-0.1975474	0.2821254	0	0	0	0	0	0
2.719699	-0.1975727	0.2821432	-0.001527286	0.001079354	-0.04609491	0.03257591	0	0
2.736266	-0.1975727	0.2821432	0	0	0.04609425	-0.03257544	0	0
2.752832	-0.1975727	0.2821432	0	0	0	0	0	0
2.769398	-0.1975727	0.2821432	0	0	0	0	0	0
2.785966	-0.1975727	0.2821432	0	0	0	0	0	0
2.802532	-0.1975474	0.2821254	0.001527286	-0.001079354	0.04609425	-0.03257544	0	0
2.839545	-0.1975474	0.2821254	0	0	-0.02850501	0.02014488	0	0
2.855736	-0.1975727	0.2821432	-0.001562707	0.001104387	-0.02937195	0.02075756	0	0
2.872304	-0.1975727	0.2821432	0	0	0.04770356	-0.03371276	0	0
2.88887	-0.1975727	0.2821432	0	0	0	0	0	0
2.905591	-0.1975727	0.2821432	0	0	0	0	0	0
2.922003	-0.1975727	0.2821432	0	0	0	0	0	0
2.938615	-0.1975727	0.2821432	0	0	0	0	0	0
2.955136	-0.1975727	0.2821432	0	0	0	0	0	0
3.054697	-0.1975474	0.2821254	0.0002541374	-0.0001796024	0.002189293	-0.001547204	0	0
3.071211	-0.1975474	0.2821254	0	0	-0.002189419	0.001547293	0	0
3.087722	-0.1975474	0.2821254	0	0	0	0	0	0
3.104237	-0.1975474	0.2821254	0	0	0	0	0	0
3.120803	-0.1975474	0.2821254	0	0	0	0	0	0
3.13737	-0.1975474	0.2821254	0	0	0	0	0	0
3.153937	-0.1975474	0.2821254	0	0	0	0	0	0
3.170778	-0.1975474	0.2821254	0	0	0	0	0	0
3.18707	-0.1975474	0.2821254	0	0	0	0	0	0
3.203637	-0.1975474	0.2821254	0	0	0	0	0	0
3.220203	-0.1975474	0.2821254	0	0	0	0	0	0
3.23677	-0.1975474	0.2821254	0	0	0	0	0	0
3.253337	-0.1975474	0.2821254	0	0	0	0	0	0
3.269903	-0.1975474	0.2821254	0	0	0	0	0	0
3.28647	-0.1975474	0.2821254	0	0	0	0	0	0
3.303037	-0.1975474	0.2821254	0	0	0	0	0	0
3.319603	-0.1975221	0.2820717	0.001527352	-0.003240001	0.0460979	-0.09778836	0	0
3.33617	-0.1974968	0.2820538	0.001527242	-0.001079323	-3.316789E-06	0.06521174	0	0
3.352908	-0.1974715	0.2820359	0.001511644	-0.0010683	-0.0004683226	0.0003309678	0	0
3.369303	-0.1974715	0.2820359	0	0	-0.04562316	0.03224252	0	0
3.385932	-0.1974968	0.2820538	-0.001521636	0.001075361	-0.04607758	0.03256366	0	0
3.402443	-0.1974968	0.2820538	0	0	0.04591646	-0.0324498	0	0
3.419003	-0.1974968	0.2820538	0	0	0	0	0	0
3.43557	-0.1975221	0.2820717	-0.001527286	0.001079354	-0.04610321	0.03258177	0	0
3.452137	-0.1976233	0.282179	-0.00610932	0.00647811	-0.138292	0.1629418	0	0
3.468704	-0.1979016	0.2824115	-0.01679714	0.01403419	-0.3225613	0.2280446	0	0
3.485271	-0.1991156	0.2836635	-0.07328501	0.07557604	-1.704832	1.857363	0	0
3.501837	-0.2024511	0.2863818	-0.2013373	0.1640798	-3.864821	2.671184	0	0
3.53854	-0.2137121	0.2945881	-0.3068137	0.2235854	-1.980038	1.117059	0	0
3.555044	-0.2286412	0.3053465	-0.9045954	0.6518885	-11.23509	8.0498	0	0
3.571611	-0.2387524	0.3126357	-0.6103016	0.4399671	8.898837	-6.408064	0	0
3.588178	-0.2531352	0.3230489	-0.8682008	0.6285818	-7.78358	5.692524	0	0
3.604744	-0.2640552	0.3309782	-0.6591508	0.4786252	6.309414	-4.525894	0	0
3.621311	-0.2746429	0.3387105	-0.6391129	0.4667459	0.604769	-0.3585315	0	0
3.637878	-0.2887022	0.3490499	-0.8486214	0.624088	-6.323159	4.748729	0	0
3.654444	-0.2988761	0.3565862	-0.614143	0.4549296	7.076826	-5.105393	0	0
3.671135	-0.3090344	0.3641593	-0.6086175	0.453729	0.1661475	-0.03610231	0	0
3.687644	-0.3187476	0.3714479	-0.5883524	0.4414913	0.6103967	-0.3686068	0	0
3.704144	-0.3311785	0.3809543	-0.7533558	0.5761209	-4.998622	4.078476	0	0
3.720711	-0.3428972	0.3901069	-0.7073979	0.5524912	1.389853	-0.7146032	0	0
3.737278	-0.3487203	0.3947563	-0.3514797	0.2806402	10.74202	-8.204777	0	0
3.754191	-0.3619967	0.4058843	-0.7849662	0.6579381	-12.94737	11.26913	0	0
3.770411	-0.3667752	0.4099655	-0.294604	0.2516095	14.79959	-12.26337	0	0
3.786978	-0.3729064	0.4160536	-0.370096	0.3675037	-2.302542	3.534827	0	0
3.803544	-0.3776901	0.4243311	-0.2887578	0.4996456	2.454898	3.988224	0	0
3.82011	-0.3783493	0.4317	-0.03979211	0.4448174	7.514178	-1.654802	0	0
3.836678	-0.3781902	0.43911	0.009602239	0.4472632	1.490767	0.07381703	0	0
3.853263	-0.377963	0.4471905	0.0137036	0.48722	0.1237126	1.205248	0	0
3.869811	-0.3777584	0.4514132	0.01236529	0.2551777	-0.04039212	-7.003353	0	0
3.886378	-0.3777129	0.4524558	0.002745078	0.06292813	-0.2905058	-5.805445	0	0
3.902945	-0.3778266	0.4525456	-0.006862893	0.005425553	-0.2899733	-1.735456	0	0
3.919809	-0.3784175	0.453049	-0.03504199	0.02984639	-0.8429078	0.730489	0	0
3.936078	-0.3816402	0.455746	-0.1980883	0.1657794	-4.920994	4.102674	0	0
3.952833	-0.3863005	0.4619346	-0.2781386	0.3693492	-2.424001	6.164283	0	0
3.969211	-0.3852614	0.4694252	0.06344622	0.4573598	10.30942	2.656263	0	0
3.985855	-0.3824106	0.477104	0.171281	0.4613558	3.26555	0.1210109	0	0
4.002367	-0.3792126	0.481055	0.1936774	0.2392842	0.6754912	-6.697847	0	0
4.018911	-0.3716048	0.4870853	0.4598441	0.3644927	8.05199	3.787766	0	0
4.035478	-0.3703019	0.488115	0.07864534	0.06215461	-11.51272	-9.13102	0	0
4.052402	-0.3675776	0.4902653	0.1609747	0.1270568	2.458277	1.93792	0	0
4.068915	-0.3668669	0.4908255	0.04303406	0.03392914	-3.527221	-2.785147	0	0
4.085178	-0.366844	0.4908436	0.00140921	0.001110508	-1.269966	-1.00129	0	0
4.101745	-0.366844	0.4908436	0	0	-0.04292476	-0.03382627	0	0
4.122249	-0.366844	0.4908436	0	0	0	0	0	0
4.138816	-0.3668211	0.4908617	0.001383332	0.001091915	0.03731553	0.02945452	0	0
4.155475	-0.3668211	0.4908617	0	0	-0.04163342	-0.03286279	0	0
4.215296	-0.3668211	0.4908617	0	0	0	0	0	0
4.231864	-0.3668211	0.4908617	0	0	0	0	0	0
4.24843	-0.3668211	0.4908617	0	0	0	0	0	0
4.264997	-0.366844	0.4908436	-0.001383372	-0.001091947	-0.04175266	-0.03295691	0	0
4.281566	-0.366844	0.4908436	0	0	0.04174845	0.03295359	0	0
4.298131	-0.366844	0.4908436	0	0	0	0	0	0
4.315087	-0.366844	0.4908436	0	0	0	0	0	0
4.331264	-0.366844	0.4908436	0	0	0	0	0	0
4.34783	-0.366844	0.4908436	0	0	0	0	0	0
4.364397	-0.366844	0.4908436	0	0	0	0	0	0
4.381135	-0.366844	0.4908436	0	0	0	0	0	0
4.397531	-0.366844	0.4908436	0	0	0	0	0	0
4.414097	-0.366844	0.4908436	0	0	0	0	0	0
4.430664	-0.366844	0.4908436	0	0	0	0	0	0
4.44723	-0.366844	0.4908436	0	0	0	0	0	0
4.463798	-0.366844	0.4908436	0	0	0	0	0	0
4.480365	-0.366844	0.4908436	0	0	0	0	0	0
4.49693	-0.366844	0.4908436	0	0	0	0	0	0
4.513516	-0.366844	0.4908436	0	0	0	0	0	0
4.530066	-0.366844	0.4908436	0	0	0	0	0	0
4.546757	-0.366844	0.4908436	0	0	0	0	0	0
4.563265	-0.366844	0.4908436	0	0	0	0	0	0
4.579764	-0.366844	0.4908436	0	0	0	0	0	0
4.596331	-0.3668899	0.4908074	-0.002768543	-0.002182094	-0.08372831	-0.06599249	0	0
4.612898	-0.3668899	0.4908074	0	0	0.083556	0.06585668	0	0
4.629464	-0.3669358	0.4907713	-0.002768782	-0.002182283	-0.08356683	-0.06586522	0	0
4.646031	-0.3670504	0.4906809	-0.006918262	-0.005454022	-0.1252369	-0.09874555	0	0
4.662629	-0.3672567	0.4905183	-0.01243069	-0.009800189	-0.16621	-0.131045	0	0
4.679165	-0.3680359	0.4899038	-0.04711921	-0.03715973	-1.046932	-0.8257362	0	0
4.695732	-0.3686772	0.4893978	-0.03871103	-0.03054212	0.2540042	0.1999124	0	0
4.712299	-0.3686543	0.4893797	0.001381533	-0.001091915	1.210014	0.8888218	0	0
4.733604	-0.3686543	0.4893797	0	0	-0.03647826	0.02883112	0	0
4.750396	-0.3686543	0.4893797	0	0	0	0	0	0
4.766739	-0.3686543	0.4893797	0	0	0	0	0	0
4.783307	-0.3686543	0.4893797	0	0	0	0	0	0
4.799931	-0.3686543	0.4893797	0	0	0	0	0	0
4.816442	-0.3686543	0.4893797	0	0	0	0	0	0
4.833006	-0.3686543	0.4893797	0	0	0	0	0	0
4.849572	-0.3686543	0.4893797	0	0	0	0	0	0
4.866139	-0.3686543	0.4893797	0	0	0	0	0	0
4.882706	-0.3686543	0.4893797	0	0	0	0	0	0
4.899503	-0.3687001	0.4893436	-0.002725182	-0.002150339	-0.0816796	-0.06445032	0	0
4.915839	-0.3687916	0.4892713	-0.005606191	-0.004425844	-0.08695152	-0.06867685	0	0
4.932525	-0.3688146	0.4892533	-0.001373528	-0.00108239	0.1281792	0.101251	0	0
4.948972	-0.3688832	0.489199	-0.00417476	-0.003295959	-0.08454499	-0.06680851	0	0
4.982105	-0.3689061	0.489181	-0.0006916961	-0.0005450817	0.07025058	0.05548296	0	0
4.998672	-0.3689061	0.489181	0	0	0.01391749	0.01096749	0	0
5.015583	-0.3689061	0.489181	0	0	0	0	0	0
5.031805	-0.3689061	0.489181	0	0	0	0	0	0
5.048607	-0.3689061	0.489181	0	0	0	0	0	0
5.064939	-0.368929	0.4891629	-0.00140146	-0.001107664	-0.04229736	-0.03343033	0	0
5.081506	-0.368929	0.4891629	0	0	0.04259898	0.03366873	0	0
5.098141	-0.3689748	0.4891268	-0.002751741	-0.002171296	-0.08287717	-0.06539527	0	0
5.114657	-0.3690206	0.4890906	-0.002771683	-0.002188835	-0.000601525	-0.0005290726	0	0
5.131665	-0.3691122	0.4890184	-0.005384577	-0.004249138	-0.07794094	-0.06145747	0	0
5.147772	-0.3692953	0.4888738	-0.01136835	-0.008974036	-0.1806971	-0.1426819	0	0
5.164708	-0.3697301	0.4885305	-0.02567184	-0.02026965	-0.4328764	-0.3418469	0	0
5.180905	-0.3703705	0.4880246	-0.03954089	-0.03123344	-0.4185808	-0.3308973	0	0
5.197472	-0.3730889	0.4858751	-0.1640888	-0.1297474	-3.80137	-3.006777	0	0
5.214226	-0.3774173	0.4824086	-0.2583517	-0.2069144	-2.828982	-2.315908	0	0
5.247172	-0.3812094	0.4793949	-0.1151021	-0.09147272	2.882298	2.32278	0	0
5.263739	-0.3819348	0.4788176	-0.04378274	-0.03484594	1.440407	1.143667	0	0
5.280306	-0.3819348	0.4788176	0	0	1.321385	1.051668	0	0
5.296873	-0.3819348	0.4788176	0	0	0	0	0	0
5.313439	-0.3819348	0.4788176	0	0	0	0	0	0
5.330006	-0.3819348	0.4788176	0	0	0	0	0	0
5.350868	-0.3819574	0.4787996	-0.00108569	-0.000864266	-0.02900712	-0.02309119	0	0
5.367435	-0.3819801	0.4787815	-0.001367103	-0.001090085	-0.007518437	-0.006033131	0	0
5.384002	-0.3819801	0.4787454	0	-0.002176697	0.04125926	-0.03279403	0	0
5.400569	-0.3820254	0.4787093	-0.002736163	-0.002178496	-0.08257993	-5.429798E-05	0	0
5.417136	-0.3820254	0.4786733	0	-0.002176697	0.08257993	5.429798E-05	0	0
5.433702	-0.3820254	0.4786372	0	-0.002178496	0	-5.429798E-05	0	0
5.450269	-0.3820254	0.4786011	0	-0.002178559	0	-1.890302E-06	0	0
5.466903	-0.3820254	0.478565	0	-0.002167837	0	0.0003229401	0	0
5.483402	-0.3820481	0.4784748	-0.001372793	-0.005467689	-0.04143216	-0.09959258	0	0
5.499969	-0.3820707	0.4784207	-0.001367182	-0.003266845	0.0001696845	0.06655952	0	0
5.516941	-0.3820707	0.4783486	0	-0.004251306	0.04076475	-0.02935331	0	0
5.533103	-0.3820934	0.4782944	-0.001403231	-0.003348576	-0.04235019	0.02724484	0	0
5.549669	-0.3821387	0.4782584	-0.002734442	-0.00217676	-0.04067418	0.03580396	0	0
5.566236	-0.3822067	0.4781682	-0.004103344	-0.005445342	-0.04131532	-0.09865024	0	0
5.582802	-0.382252	0.4781321	-0.002734442	-0.00217676	0.04131532	0.09865024	0	0
5.599499	-0.384651	0.4761842	-0.1436848	-0.1166625	-4.237488	-3.441863	0	0
5.615936	-0.387429	0.4739305	-0.1690062	-0.1371153	-0.7642218	-0.617283	0	0
5.632503	-0.3924718	0.4696053	-0.3043976	-0.2610742	-4.102298	-3.755898	0	0
5.649068	-0.3933702	0.4688847	-0.05422628	-0.04350048	7.550622	6.566765	0	0
5.665636	-0.3933702	0.4688847	0	0	1.636623	1.312904	0	0
5.682556	-0.3933477	0.4688667	0.001326265	-0.00106383	0.03960441	-0.03176768	0	0
5.69877	-0.3933477	0.4688667	0	0	-0.04002732	0.03210691	0	0
5.715336	-0.3933702	0.4688487	-0.001354628	-0.001086581	-0.04132523	-0.03314799	0	0
5.748469	-0.3933702	0.4688487	0	0	0.02725622	0.02186289	0	0
5.765115	-0.3933702	0.4688487	0	0	0	0	0	0
5.782126	-0.3933702	0.4688487	0	0	0	0	0	0
5.798169	-0.3933702	0.4688487	0	0	0	0	0	0
5.814736	-0.3933702	0.4688487	0	0	0	0	0	0
5.831303	-0.3933702	0.4688487	0	0	0	0	0	0
5.847869	-0.3933702	0.4688487	0	0	0	0	0	0
5.864435	-0.3933702	0.4688487	0	0	0	0	0	0
5.881002	-0.3933702	0.4688487	0	0	0	0	0	0
5.897569	-0.3933702	0.4688487	0	0	0	0	0	0
5.914136	-0.3933702	0.4688487	0	0	0	0	0	0
5.930732	-0.3933702	0.4688487	0	0	0	0	0	0
5.947269	-0.3933702	0.4688487	0	0	0	0	0	0
5.964256	-0.3933702	0.4688487	0	0	0	0	0	0
5.980403	-0.3933702	0.4688487	0	0	0	0	0	0
6.005364	-0.3933702	0.4688487	0	0	0	0	0	0
6.021932	-0.3933702	0.4688487	0	0	0	0	0	0
6.038808	-0.3933702	0.4688487	0	0	0	0	0	0
6.055065	-0.3933702	0.4688487	0	0	0	0	0	0
6.071831	-0.3933702	0.4688487	0	0	0	0	0	0
6.088199	-0.3933702	0.4688487	0	0	0	0	0	0
6.104854	-0.3933702	0.4688487	0	0	0	0	0	0
6.121367	-0.3933702	0.4688487	0	0	0	0	0	0
6.137898	-0.3933702	0.4688487	0	0	0	0	0	0
6.154465	-0.3933702	0.4688487	0	0	0	0	0	0
6.171402	-0.3933702	0.4688487	0	0	0	0	0	0
6.187598	-0.3933702	0.4688487	0	0	0	0	0	0
6.204164	-0.3933702	0.4688487	0	0	0	0	0	0
6.220731	-0.3933477	0.4688307	0.001354589	-0.001088349	0.04088394	-0.03284832	0	0
6.237447	-0.3933028	0.4687946	0.002686696	-0.002155418	0.04002335	-0.03206027	0	0
6.253865	-0.3931681	0.4686866	0.008205053	-0.006582196	0.1665467	-0.1336023	0	0
6.270431	-0.3929885	0.4685425	0.01084242	-0.008699845	0.07995962	-0.06420273	0	0
6.286998	-0.3926291	0.4682542	0.02169142	-0.01739739	0.3274375	-0.2625037	0	0
6.303564	-0.3917977	0.4675518	0.05018781	-0.04240185	0.86006	-0.7546686	0	0
6.320131	-0.3901331	0.4662191	0.1004771	-0.08044247	1.517799	-1.148118	0	0
6.336698	-0.3870003	0.4637165	0.1891046	-0.1510628	2.674862	-2.131387	0	0
6.353264	-0.383271	0.4607468	0.2251047	-0.1792555	1.086515	-0.8508827	0	0
6.369832	-0.380892	0.4588577	0.1435985	-0.1140305	-2.459896	1.968524	0	0
6.403063	-0.3696385	0.4500833	0.3386355	-0.2640359	3.916487	-3.012219	0	0
6.41953	-0.3659953	0.4473342	0.2212421	-0.1669442	-2.362096	1.953601	0	0
6.436098	-0.363009	0.445035	0.1802523	-0.1387794	-1.240824	0.8525925	0	0
6.452664	-0.3616284	0.4441011	0.08333753	-0.05637269	-2.924979	2.48711	0	0
6.469614	-0.3580784	0.4415155	0.2094487	-0.1525488	3.762722	-2.869564	0	0
6.485798	-0.3562073	0.4403127	0.1156105	-0.07432014	-2.832081	2.36098	0	0
6.502634	-0.3520169	0.437746	0.2488937	-0.1524477	4.036375	-2.366034	0	0
6.518931	-0.3483716	0.4354671	0.2236793	-0.1398364	-0.7610037	0.3806285	0	0
6.535658	-0.3429206	0.4336372	0.325873	-0.1093964	3.0945	0.9217448	0	0
6.552168	-0.33883	0.4332605	0.2477617	-0.02281654	-2.3501	2.604888	0	0
6.651466	-0.2747405	0.427504	0.6454297	-0.05797252	3.43387	-0.3035724	0	0
6.668032	-0.2668732	0.4263208	0.4748953	-0.07142112	-1.471852	-0.1160725	0	0
6.684763	-0.2601273	0.4243311	0.4032013	-0.1189222	-2.153162	-1.426586	0	0
6.705389	-0.2485173	0.422987	0.5628945	-0.06516877	4.274856	1.438937	0	0
6.721956	-0.2445823	0.4217863	0.2375081	-0.07246906	-8.748522	-0.1962799	0	0
6.738523	-0.2412601	0.4193854	0.2005453	-0.1449272	-1.115556	-2.186824	0	0
6.755089	-0.238156	0.4171462	0.187366	-0.1351639	-0.3977689	0.2946706	0	0
6.771656	-0.2322081	0.4128659	0.3590291	-0.258365	5.180954	-3.718323	0	0
6.788337	-0.2288159	0.4104309	0.2033555	-0.1459786	-4.682271	3.380298	0	0
6.80479	-0.222967	0.4062423	0.3554893	-0.2545772	4.591473	-3.27756	0	0
6.821358	-0.2193348	0.4036474	0.2192267	-0.1566205	-4.126487	2.966457	0	0
6.837923	-0.2152698	0.4007845	0.2453987	-0.1728263	0.7899083	-0.4891114	0	0
6.85449	-0.2121534	0.3986019	0.1881107	-0.1317442	-1.729104	1.239968	0	0
6.871395	-0.2075466	0.3955075	0.2725137	-0.1830503	2.521631	-1.532827	0	0
6.887907	-0.2045461	0.393415	0.1817119	-0.1267218	-2.717217	1.685612	0	0
6.90419	-0.2014156	0.3913407	0.1922634	-0.1273959	0.3217429	-0.02055405	0	0
6.920757	-0.1981799	0.3890878	0.1953089	-0.1359875	0.09270986	-0.2615422	0	0
6.937323	-0.1976992	0.3887481	0.02901561	-0.02050531	-5.018958	3.48541	0	0
6.953889	-0.1937999	0.3859949	0.2353702	-0.1661863	6.228154	-4.396915	0	0
6.970467	-0.1915183	0.3843861	0.1376339	-0.09704983	-2.948839	2.085944	0	0
6.987023	-0.1871777	0.3813297	0.2621711	-0.1846091	3.758648	-2.64262	0	0
7.003589	-0.1833134	0.3786131	0.2332623	-0.1639784	-0.872783	0.6228599	0	0
7.020156	-0.1780674	0.374932	0.3166473	-0.222193	2.516636	-1.756972	0	0
7.037011	-0.1765886	0.3738957	0.08774154	-0.06148857	-6.849053	4.808414	0	0
7.053289	-0.1761805	0.3736098	0.02506847	-0.01756056	-1.891559	1.325807	0	0
7.070035	-0.1736797	0.3718231	0.1493429	-0.1066974	3.76312	-2.699128	0	0
7.086547	-0.1725817	0.3710549	0.06649695	-0.04652666	-2.491048	1.80924	0	0
7.103058	-0.1720709	0.3706976	0.03093865	-0.02163954	-1.076762	0.7536215	0	0
7.119555	-0.1716877	0.3704295	0.02322817	-0.01624599	-0.2335901	0.1633986	0	0
7.136123	-0.1715599	0.3703402	0.007709964	-0.005391219	-0.4693333	0.3282921	0	0
7.152689	-0.1715599	0.3703402	0	0	-0.2326905	0.1627096	0	0
7.169257	-0.1715599	0.3703402	0	0	0	0	0	0
7.185823	-0.171611	0.3703402	-0.003084343	0	-0.09308834	0	0	0
7.202389	-0.171611	0.3703402	0	0	0.09309102	0	0	0
7.219141	-0.1716621	0.3703045	-0.003050191	-0.002133087	-0.09154771	-0.06402199	0	0
7.235652	-0.1716877	0.3702866	-0.001546887	-0.001081196	0.04519485	0.03162372	0	0
7.252089	-0.1717132	0.3702688	-0.001554749	-0.001087871	-0.0002386251	-0.0002025819	0	0
7.268656	-0.1717899	0.3702152	-0.004625932	-0.003234464	-0.09305541	-0.06504078	0	0
7.285223	-0.1718154	0.3701973	-0.001541678	-0.001079354	0.09308566	0.06504323	0	0
7.301788	-0.171841	0.3701794	-0.001542666	-0.001077617	-2.982715E-05	5.242326E-05	0	0
7.422499	-0.1724285	0.3698043	-0.004867089	-0.003108113	-0.02421704	-0.01479132	0	0
7.439294	-0.1724285	0.3697685	0	-0.002127516	0.03539546	0.007131299	0	0
7.455632	-0.172454	0.3697507	-0.001563275	-0.001092651	-0.0471811	0.03123319	0	0
7.472199	-0.1724796	0.3697328	-0.001541633	-0.001079323	0.0006577154	0.0004050413	0	0
7.488766	-0.1725051	0.3697149	-0.001541678	-0.001077555	-1.342146E-06	5.335207E-05	0	0
7.505342	-0.1725562	0.3696792	-0.003081758	-0.002155792	-0.04646903	-0.03253377	0	0
7.521899	-0.1726328	0.3695899	-0.004626797	-0.005394479	-0.04663203	-0.09774939	0	0
7.538465	-0.1727094	0.3695363	-0.004625032	-0.003236264	5.326628E-05	0.06515571	0	0
7.555033	-0.1728371	0.3694112	-0.007707266	-0.007548066	-0.09302334	-0.1301323	0	0
7.604732	-0.1732201	0.3689646	-0.007707036	-0.008986395	3.471385E-06	-0.02170521	0	0
7.621424	-0.1734755	0.3686788	-0.01529692	-0.01712434	-0.114321	-0.122576	0	0
7.637866	-0.1735265	0.3685716	-0.003105877	-0.006519895	0.3679371	0.320052	0	0
7.654432	-0.1735521	0.3684823	-0.001540778	-0.005391374	0.04741493	0.03418873	0	0
7.671	-0.1736286	0.3683929	-0.004622967	-0.005391064	-0.09302066	9.359755E-06	0	0
7.687566	-0.1737818	0.3682857	-0.009246999	-0.0064711	-0.1395576	-0.03259651	0	0
7.704133	-0.1745221	0.3677677	-0.04468256	-0.03127069	-1.069509	-0.7484961	0	0
7.720699	-0.1754662	0.3671067	-0.0569917	-0.03989653	-0.3715011	-0.2603358	0	0
7.737266	-0.1757724	0.3668924	-0.01847997	-0.01294003	1.162336	0.8135837	0	0
7.753832	-0.1757724	0.3668924	0	0	0.5577508	0.3905477	0	0
7.770399	-0.1757469	0.3668745	0.001539923	-0.001079385	0.04647697	-0.03257732	0	0
7.787041	-0.1757724	0.3668924	-0.001532907	0.001074468	-0.0925318	0.06485873	0	0
7.803554	-0.1757724	0.3668924	0	0	0.04623463	-0.03240745	0	0
7.820098	-0.1757724	0.3668924	0	0	0	0	0	0
7.836665	-0.1757724	0.3668924	0	0	0	0	0	0
7.853232	-0.1757724	0.3668924	0	0	0	0	0	0
7.870099	-0.1757724	0.3668924	0	0	0	0	0	0
7.886365	-0.1757724	0.3668924	0	0	0	0	0	0
7.902932	-0.1757724	0.3668924	0	0	0	0	0	0
7.919501	-0.1757724	0.3668924	0	0	0	0	0	0
7.936065	-0.1757724	0.3668924	0	0	0	0	0	0
7.952632	-0.1757724	0.3668924	0	0	0	0	0	0
7.969198	-0.1757724	0.3668924	0	0	0	0	0	0
7.985765	-0.1757724	0.3668924	0	0	0	0	0	0
8.002332	-0.1757469	0.3668745	0.001539879	-0.001079354	0.04647496	-0.03257591	0	0
8.018898	-0.1757469	0.3668745	0	0	-0.04647563	0.03257638	0	0
8.035716	-0.1757469	0.3668745	0	0	0	0	0	0
8.052032	-0.1757469	0.3668745	0	0	0	0	0	0
8.068741	-0.1757469	0.3668745	0	0	0	0	0	0
8.085251	-0.1757469	0.3668745	0	0	0	0	0	0
8.154477	-0.1757469	0.3668745	0	0	0	0	0	0
8.171314	-0.1757469	0.3668745	0	0	0	0	0	0
8.187824	-0.1757469	0.3668745	0	0	0	0	0	0
8.204335	-0.1757469	0.3668745	0	0	0	0	0	0
8.220846	-0.1757469	0.3668745	0	0	0	0	0	0
8.23731	-0.1757469	0.3668745	0	0	0	0	0	0
8.29948	-0.1757469	0.3668745	0	0	0	0	0	0
8.316049	-0.1757469	0.3668745	0	0	0	0	0	0
8.332616	-0.1757469	0.3668745	0	0	0	0	0	0
8.349182	-0.1757469	0.3668745	0	0	0	0	0	0
8.365749	-0.1757469	0.3668745	0	0	0	0	0	0
8.382316	-0.1757469	0.3668745	0	0	0	0	0	0
8.398973	-0.1757469	0.3668745	0	0	0	0	0	0
8.415485	-0.1757469	0.3668745	0	0	0	0	0	0
8.465151	-0.1757469	0.3668745	0	0	0	0	0	0
8.481716	-0.1757469	0.3668745	0	0	0	0	0	0
8.498281	-0.1757469	0.3668745	0	0	0	0	0	0
8.514849	-0.1757469	0.3668745	0	0	0	0	0	0
8.531567	-0.1757469	0.3668745	0	0	0	0	0	0
8.547982	-0.1757724	0.3668566	-0.001554058	-0.001087477	-0.04690291	-0.03282108	0	0
8.564548	-0.1757724	0.3668566	0	0	0.04711855	0.03297197	0	0
8.581115	-0.1757469	0.3668388	0.001539923	-0.001079385	0.04647764	-0.03257778	0	0
8.597681	-0.1757469	0.3668388	0	0	-0.04647764	0.03257778	0	0
8.614248	-0.1757469	0.3668388	0	0	0	0	0	0
8.630815	-0.1757469	0.3668388	0	0	0	0	0	0
8.647382	-0.1757469	0.3668388	0	0	0	0	0	0
8.663948	-0.1757469	0.3668388	0	0	0	0	0	0
8.680514	-0.1757469	0.3668388	0	0	0	0	0	0
8.697182	-0.1757469	0.3668388	0	0	0	0	0	0
8.713695	-0.1757469	0.3668388	0	0	0	0	0	0
8.730214	-0.1757469	0.3668388	0	0	0	0	0	0
8.74678	-0.1757469	0.3668388	0	0	0	0	0	0
8.763347	-0.1757724	0.3668209	-0.001539923	-0.001077586	-0.04647764	-0.03252349	0	0
8.779913	-0.1757724	0.3668209	0	0	0.04647764	0.03252349	0	0
8.796479	-0.1757724	0.3668209	0	0	0	0	0	0
8.813264	-0.1757724	0.3668209	0	0	0	0	0	0
8.829775	-0.1757724	0.3668209	0	0	0	0	0	0
8.848278	-0.1757724	0.3668209	0	0	0	0	0	0
8.881413	-0.1757724	0.3668209	0	0	0	0	0	0
8.89798	-0.1757724	0.3668209	0	0	0	0	0	0
8.914834	-0.1757724	0.3668209	0	0	0	0	0	0
8.931347	-0.1757724	0.3668209	0	0	0	0	0	0
8.94786	-0.1757724	0.3668209	0	0	0	0	0	0
8.964247	-0.1757724	0.3668209	0	0	0	0	0	0
8.980885	-0.1757724	0.3668209	0	0	0	0	0	0
8.997381	-0.1757724	0.3668209	0	0	0	0	0	0
9.013947	-0.1757724	0.3668209	0	0	0	0	0	0
9.030918	-0.1757724	0.3668209	0	0	0	0	0	0
9.047081	-0.1757724	0.3668209	0	0	0	0	0	0
9.063941	-0.1757724	0.3668209	0	0	0	0	0	0
9.080215	-0.1757724	0.3668209	0	0	0	0	0	0
9.096965	-0.1757724	0.3668209	0	0	0	0	0	0
9.113477	-0.1757724	0.3668209	0	0	0	0	0	0
9.12999	-0.1757724	0.3668209	0	0	0	0	0	0
9.1465	-0.1757724	0.3668209	0	0	0	0	0	0
9.163048	-0.1757724	0.3668209	0	0	0	0	0	0
9.179614	-0.1757724	0.3668209	0	0	0	0	0	0
9.19618	-0.1757469	0.3668031	0.001539923	-0.001077586	0.04647764	-0.03252349	0	0
9.213045	-0.1757469	0.3668031	0	0	-0.04606265	0.03223309	0	0
9.229314	-0.1757469	0.3668031	0	0	0	0	0	0
9.295605	-0.1757469	0.3668031	0	0	0	0	0	0
9.329128	-0.1757214	0.3667852	0.0007609809	-0.0005333978	0.007623958	-0.005343896	0	0
9.345281	-0.1757214	0.3667852	0	0	-0.0153189	0.01073755	0	0
9.361847	-0.1757214	0.3667852	0	0	0	0	0	0
9.378664	-0.1757214	0.3667852	0	0	0	0	0	0
9.39498	-0.1757214	0.3667852	0	0	0	0	0	0
9.411689	-0.1757214	0.3667852	0	0	0	0	0	0
9.428113	-0.1757214	0.3667852	0	0	0	0	0	0
9.444712	-0.1757214	0.3667852	0	0	0	0	0	0
9.461247	-0.1757469	0.3667673	-0.001542765	-0.001079575	-0.04656073	-0.03258163	0	0
9.477814	-0.1757469	0.3667673	0	0	0.04660634	0.03261355	0	0
9.494381	-0.1757469	0.3667673	0	0	0	0	0	0
9.511257	-0.1757469	0.3667673	0	0	0	0	0	0
9.527513	-0.1757469	0.3667673	0	0	0	0	0	0
9.548936	-0.1757214	0.3667494	0.001190794	-0.0008346688	0.03160389	-0.02215226	0	0
9.565504	-0.1757469	0.3667316	-0.001539746	-0.001077462	-0.07187234	-0.006390722	0	0
9.582071	-0.1757469	0.3667316	0	0	0.04646828	0.03251693	0	0
9.598638	-0.1757469	0.3667316	0	0	0	0	0	0
9.626896	-0.1757214	0.3667137	0.0009027707	-0.0006317286	0.02014007	-0.01409335	0	0
9.643464	-0.1757214	0.3667137	0	0	-0.02013922	0.01409275	0	0
9.66003	-0.1757214	0.3667137	0	0	0	0	0	0
9.676597	-0.1757214	0.3667137	0	0	0	0	0	0
9.693164	-0.1757214	0.3667137	0	0	0	0	0	0
9.709896	-0.1757214	0.3667137	0	0	0	0	0	0
9.726297	-0.1757214	0.3667137	0	0	0	0	0	0
9.742924	-0.1757214	0.3667137	0	0	0	0	0	0
9.759433	-0.1757214	0.3667137	0	0	0	0	0	0
9.775996	-0.1757214	0.3667137	0	0	0	0	0	0
9.792566	-0.1757214	0.3667137	0	0	0	0	0	0
9.809131	-0.1757214	0.3667137	0	0	0	0	0	0
9.825978	-0.1757214	0.3667137	0	0	0	0	0	0
9.842262	-0.1757214	0.3667137	0	0	0	0	0	0
9.858829	-0.1757214	0.3667137	0	0	0	0	0	0
9.875511	-0.1757214	0.3667137	0	0	0	0	0	0
9.892023	-0.1757214	0.3667137	0	0	0	0	0	0
9.908541	-0.1757214	0.3667137	0	0	0	0	0	0
9.925096	-0.1757214	0.3667137	0	0	0	0	0	0
9.941662	-0.1757214	0.3667137	0	0	0	0	0	0
9.958228	-0.1757214	0.3667137	0	0	0	0	0	0
9.975081	-0.1757214	0.3667137	0	0	0	0	0	0
9.991593	-0.1757214	0.3667137	0	0	0	0	0	0
10.00793	-0.1757214	0.3667137	0	0	0	0	0	0
10.02449	-0.1757214	0.3667137	0	0	0	0	0	0
10.04106	-0.1757214	0.3667137	0	0	0	0	0	0
10.05764	-0.1757214	0.3667137	0	0	0	0	0	0
10.07419	-0.1757214	0.3667137	0	0	0	0	0	0
10.09076	-0.1757214	0.3667137	0	0	0	0	0	0
10.17372	-0.1757214	0.3667137	0	0	0	0	0	0
10.19695	-0.1756959	0.3666959	0.001098202	-0.0007697676	0.01034188	-0.007248984	0	0
10.21352	-0.1756959	0.3666959	0	0	-0.02759455	0.01934197	0	0
10.23008	-0.1756703	0.366678	0.001539923	-0.001077586	0.04647497	-0.03252162	0	0
10.24665	-0.1756703	0.366678	0	0	-0.04647764	0.03252349	0	0
10.26322	-0.1756703	0.366678	0	0	0	0	0	0
10.27979	-0.1756703	0.3666423	0	-0.002155482	0	-0.06503387	0	0
10.29635	-0.1756448	0.3666244	0.001540987	-0.001078331	0.04650977	0.03251036	0	0
10.31332	-0.1756193	0.3666065	0.001503485	-0.001053844	-0.00111873	0.0007304528	0	0
10.32983	-0.1756193	0.3666065	0	0	-0.04490736	0.03147713	0	0
10.34605	-0.1755938	0.3665887	0.001572789	-0.001100585	0.0480505	-0.03362412	0	0
10.36285	-0.1755938	0.3665887	0	0	-0.04762863	0.03332891	0	0
10.37918	-0.1755938	0.3665887	0	0	0	0	0	0
10.39588	-0.1755938	0.3665887	0	0	0	0	0	0
10.41239	-0.1755938	0.3665887	0	0	0	0	0	0
10.42888	-0.1755683	0.3665708	0.001546511	-0.001084003	0.04685315	-0.03284099	0	0
10.44545	-0.1755683	0.3665708	0	0	-0.04677611	0.032787	0	0
10.46202	-0.1755683	0.3665708	0	0	0	0	0	0
10.47858	-0.1755683	0.3665708	0	0	0	0	0	0
10.49515	-0.1755683	0.3665708	0	0	0	0	0	0
10.51172	-0.1755683	0.3665708	0	0	0	0	0	0
10.52828	-0.1755683	0.3665708	0	0	0	0	0	0
10.54498	-0.1755683	0.3665708	0	0	0	0	0	0
10.56142	-0.1755683	0.3665708	0	0	0	0	0	0
10.57805	-0.1755428	0.3665529	0.001533918	-0.001073384	0.04638854	-0.03246114	0	0
10.59455	-0.1755428	0.3665529	0	0	-0.04629508	0.03239574	0	0
10.61112	-0.1755428	0.3665529	0	0	0	0	0	0
10.62804	-0.1755428	0.3665172	0	-0.002111629	0	-0.06305399	0	0
10.64425	-0.1755173	0.3664994	0.001573715	-0.001101232	0.04749753	0.03049559	0	0
10.66082	-0.1754662	0.3664636	0.003080568	-0.002156847	0.04597178	-0.03220519	0	0
10.67758	-0.1754407	0.3664458	0.001522222	-0.001065199	-0.04676047	0.03275649	0	0
10.69395	-0.1754152	0.3663922	0.00155795	-0.003274243	0.001078314	-0.06667098	0	0
10.71052	-0.1753387	0.3663386	0.004620934	-0.003234744	0.09298702	0.001199123	0	0
10.72708	-0.1752876	0.3663028	0.003080745	-0.002156971	-0.046487	0.03253004	0	0
10.74365	-0.1752621	0.366285	0.001539568	-0.001077338	-0.04651013	0.03258152	0	0
10.76022	-0.1752621	0.366285	0	0	-0.0464656	0.03251506	0	0
10.77678	-0.1752621	0.366285	0	0	0	0	0	0
10.79681	-0.1752366	0.3662671	0.001273809	-0.0008913691	0.03480887	-0.02435808	0	0
10.81338	-0.1752366	0.3662671	0	0	-0.03480797	0.02435744	0	0
10.82994	-0.1752366	0.3662671	0	0	0	0	0	0
10.84651	-0.1752366	0.3662671	0	0	0	0	0	0
10.87964	-0.1752111	0.3662493	0.000770389	-0.000539677	0.01550085	-0.01085874	0	0
10.89623	-0.1752111	0.3662135	0	-0.002154863	-0.0154958	-0.03248825	0	0
10.91278	-0.1752111	0.3662135	0	0	0	0.06503762	0	0
10.92975	-0.1752111	0.3662135	0	0	0	0	0	0
10.94591	-0.1751856	0.3661957	0.00157873	-0.001104742	0.04764754	-0.03334214	0	0
10.96278	-0.1751856	0.3661957	0	0	-0.04780577	0.03345287	0	0
10.97904	-0.1751601	0.3661778	0.001568087	-0.001097295	0.04732633	-0.03311737	0	0
10.99561	-0.1751601	0.3661778	0	0	-0.04775518	0.03341747	0	0
11.04533	-0.1751601	0.3661421	0	-0.0007186457	0	-0.01084095	0	0
11.06188	-0.1751601	0.3661421	0	0	0	0.0108447	0	0
11.07845	-0.1751601	0.3661421	0	0	0	0	0	0
11.09501	-0.1751601	0.3661421	0	0	0	0	0	0
11.11158	-0.1751345	0.3661242	0.001540822	-0.001079385	0.04650479	-0.03257778	0	0
11.12814	-0.1751345	0.3661242	0	0	-0.04650479	0.03257778	0	0
11.1449	-0.1751345	0.3661242	0	0	0	0	0	0
11.16128	-0.1751345	0.3661242	0	0	0	0	0	0
11.17807	-0.1751345	0.3661242	0	0	0	0	0	0
11.19441	-0.1751345	0.3661242	0	0	0	0	0	0
11.21098	-0.1751345	0.3661242	0	0	0	0	0	0
11.22754	-0.1751345	0.3661242	0	0	0	0	0	0
11.24411	-0.175109	0.3661064	0.001539923	-0.001077586	0.04647764	-0.03252349	0	0
11.26068	-0.175109	0.3661064	0	0	-0.0464763	0.03252255	0	0
11.27725	-0.175109	0.3661064	0	0	0	0	0	0
11.29381	-0.1750835	0.3660885	0.001540822	-0.001077586	0.04650345	-0.03252255	0	0
11.31052	-0.175058	0.3660349	0.001526739	-0.00320865	-0.0004232228	-0.06404282	0	0
11.32694	-0.1750325	0.366017	0.001554334	-0.001087035	0.0008328687	0.06403597	0	0
11.34354	-0.1749814	0.3659813	0.003074197	-0.002152387	0.04602323	-0.03226008	0	0
11.36008	-0.1748538	0.3658563	0.007717407	-0.007562374	0.1401364	-0.1632784	0	0
11.37664	-0.174471	0.3655883	0.02310874	-0.01617459	0.4650199	-0.2602017	0	0
11.39321	-0.1705378	0.3628375	0.2374234	-0.1660508	6.4684	-4.523534	0	0
11.40978	-0.1657034	0.3594617	0.2918226	-0.2037735	1.641866	-1.138539	0	0
11.4266	-0.159784	0.3553361	0.351744	-0.2451565	1.794334	-1.239203	0	0
11.44291	-0.1564221	0.3530323	0.2061652	-0.1412802	-4.393451	3.134902	0	0
11.45948	-0.1547527	0.3518715	0.1007741	-0.07007009	-3.205993	2.166209	0	0
11.47614	-0.1548298	0.351925	-0.004625258	0.00321586	-3.171921	2.20549	0	0
11.49261	-0.1548041	0.3519072	0.001559605	-0.001083763	0.1866595	-0.1297629	0	0
11.57921	-0.1548041	0.3519072	0	0	-0.01513162	0.01051489	0	0
11.59547	-0.1548041	0.3519072	0	0	0	0	0	0
11.61204	-0.1548041	0.3519072	0	0	0	0	0	0
11.62875	-0.1548041	0.3519072	0	0	0	0	0	0
11.64526	-0.1548041	0.3519072	0	0	0	0	0	0
11.66174	-0.1548041	0.3519072	0	0	0	0	0	0
11.67831	-0.1548041	0.3519072	0	0	0	0	0	0
11.69487	-0.1548298	0.351925	-0.001550717	0.001077586	-0.04680342	0.03252349	0	0
11.71144	-0.1548298	0.351925	0	0	0.04680342	-0.03252349	0	0
11.72801	-0.1548298	0.351925	0	0	0	0	0	0
11.74483	-0.1548298	0.351925	0	0	0	0	0	0
11.76114	-0.1548298	0.351925	0	0	0	0	0	0
11.77771	-0.1548298	0.351925	0	0	0	0	0	0
11.79436	-0.1548298	0.351925	0	0	0	0	0	0
11.81089	-0.1548298	0.351925	0	0	0	0	0	0
11.82741	-0.1548298	0.351925	0	0	0	0	0	0
11.86054	-0.1548298	0.351925	0	0	0	0	0	0
11.91044	-0.1548298	0.351925	0	0	0	0	0	0
11.92681	-0.1548298	0.351925	0	0	0	0	0	0
11.94347	-0.1548298	0.351925	0	0	0	0	0	0
11.95994	-0.1548298	0.351925	0	0	0	0	0	0
11.97651	-0.1548298	0.351925	0	0	0	0	0	0
11.99307	-0.1548041	0.3519072	0.001550627	-0.001077524	0.04679938	-0.03252068	0	0
12.00964	-0.1548041	0.3519072	0	0	-0.04679938	0.03252068	0	0
12.02653	-0.1548041	0.3519072	0	0	0	0	0	0
12.04304	-0.1548041	0.3519072	0	0	0	0	0	0
12.05934	-0.1548041	0.3519072	0	0	0	0	0	0
12.07591	-0.1548041	0.3519072	0	0	0	0	0	0
12.09247	-0.1548298	0.351925	-0.001550717	0.001077586	-0.04680207	0.03252255	0	0
12.10908	-0.1548298	0.351925	0	0	0.04674153	-0.03248048	0	0
12.12561	-0.1548298	0.351925	0	0	0	0	0	0
12.14217	-0.1548298	0.351925	0	0	0	0	0	0
12.15874	-0.1548298	0.351925	0	0	0	0	0	0
12.17531	-0.1548041	0.3519072	0.001550627	-0.001077524	0.04680072	-0.03252162	0	0
12.19187	-0.1548041	0.3519072	0	0	-0.04679938	0.03252068	0	0
12.20865	-0.1548041	0.3519072	0	0	0	0	0	0
12.22516	-0.1548041	0.3519072	0	0	0	0	0	0
12.24518	-0.1548041	0.3519072	0	0	0	0	0	0
12.26175	-0.1548041	0.3519072	0	0	0	0	0	0
12.27832	-0.1548041	0.3519072	0	0	0	0	0	0
12.29488	-0.1548041	0.3519072	0	0	0	0	0	0
12.31172	-0.1548041	0.3519072	0	0	0	0	0	0
12.32802	-0.1548041	0.3519072	0	0	0	0	0	0
12.39561	-0.1548041	0.3519072	0	0	0	0	0	0
12.41229	-0.1548041	0.3519072	0	0	0	0	0	0
12.42875	-0.1548041	0.3519072	0	0	0	0	0	0
12.44532	-0.1548041	0.3519072	0	0	0	0	0	0
12.46188	-0.1548041	0.3519072	0	0	0	0	0	0
12.47935	-0.1548041	0.3519072	0	0	0	0	0	0
12.49501	-0.1548041	0.3519072	0	0	0	0	0	0
12.51158	-0.1548041	0.3519072	0	0	0	0	0	0
12.52815	-0.1548041	0.3519072	0	0	0	0	0	0
12.54471	-0.1548041	0.3519072	0	0	0	0	0	0
12.5614	-0.1548041	0.3519072	0	0	0	0	0	0
12.57792	-0.1548041	0.3519072	0	0	0	0	0	0
12.59442	-0.1548041	0.3519072	0	0	0	0	0	0
12.61098	-0.1548041	0.3519072	0	0	0	0	0	0
12.62755	-0.1548041	0.3519072	0	0	0	0	0	0
12.64411	-0.1548041	0.3519072	0	0	0	0	0	0
12.66097	-0.1548041	0.3519072	0	0	0	0	0	0
12.67748	-0.1548041	0.3519072	0	0	0	0	0	0
12.69381	-0.1548041	0.3519072	0	0	0	0	0	0
12.71038	-0.1548041	0.3519072	0	0	0	0	0	0
12.72702	-0.1548041	0.3519072	0	0	0	0	0	0
12.74351	-0.1548041	0.3519072	0	0	0	0	0	0
12.76008	-0.1548041	0.3519072	0	0	0	0	0	0
12.77665	-0.1548041	0.3519072	0	0	0	0	0	0
12.79322	-0.1548041	0.3519072	0	0	0	0	0	0
12.80978	-0.1548041	0.3519072	0	0	0	0	0	0
12.82636	-0.1548041	0.3519072	0	0	0	0	0	0
12.84292	-0.1548041	0.3519072	0	0	0	0	0	0
12.85948	-0.1548041	0.3519072	0	0	0	0	0	0
12.89617	-0.1548041	0.3519072	0	0	0	0	0	0
12.91274	-0.1548041	0.3519072	0	0	0	0	0	0
12.92931	-0.1548041	0.3519072	0	0	0	0	0	0
12.94587	-0.1548041	0.3519072	0	0	0	0	0	0
12.96268	-0.1548041	0.3519072	0	0	0	0	0	0
12.979	-0.1548041	0.3519072	0	0	0	0	0	0
12.99571	-0.1548041	0.3519072	0	0	0	0	0	0
13.01222	-0.1548041	0.3519072	0	0	0	0	0	0
13.02871	-0.1548041	0.3519072	0	0	0	0	0	0
13.04527	-0.1548041	0.3519072	0	0	0	0	0	0
13.06184	-0.1548041	0.3519072	0	0	0	0	0	0
13.0784	-0.1548041	0.3519072	0	0	0	0	0	0
13.09528	-0.1548041	0.3519072	0	0	0	0	0	0
13.11154	-0.1548041	0.3519072	0	0	0	0	0	0
13.1281	-0.1548041	0.3519072	0	0	0	0	0	0
13.14467	-0.1548041	0.3519072	0	0	0	0	0	0
13.16132	-0.1548041	0.3519072	0	0	0	0	0	0
13.17783	-0.1548041	0.3519072	0	0	0	0	0	0
13.19437	-0.1548041	0.3519072	0	0	0	0	0	0
13.21094	-0.1548041	0.3519072	0	0	0	0	0	0
13.2275	-0.1548041	0.3519072	0	0	0	0	0	0
13.24407	-0.1548041	0.3519072	0	0	0	0	0	0
13.26089	-0.1548041	0.3519072	0	0	0	0	0	0
13.27721	-0.1548041	0.3519072	0	0	0	0	0	0
13.29392	-0.1548041	0.3519072	0	0	0	0	0	0
13.31044	-0.1548041	0.3519072	0	0	0	0	0	0
13.32691	-0.1548041	0.3519072	0	0	0	0	0	0
13.36004	-0.1547784	0.3518893	0.0007753807	-0.0005397081	0.01563339	-0.01088171	0	0
13.3766	-0.1548041	0.3519072	-0.001550717	0.001079385	-0.04680476	0.03257872	0	0
13.39317	-0.1547784	0.3518893	0.001550717	-0.001079385	0.09360684	-0.06515557	0	0
13.40974	-0.1547784	0.3518893	0	0	-0.04680207	0.03257685	0	0
13.42651	-0.1547784	0.3518893	0	0	0	0	0	0
13.44287	-0.1547784	0.3518893	0	0	0	0	0	0
13.45944	-0.1547784	0.3518893	0	0	0	0	0	0
13.476	-0.1547784	0.3518893	0	0	0	0	0	0
13.49257	-0.1547784	0.3518893	0	0	0	0	0	0
13.50957	-0.1548041	0.3519072	-0.00151122	0.001051893	-0.04502171	0.03133762	0	0
13.5257	-0.1548041	0.3519072	0	0	0.04561134	-0.03174803	0	0
13.54227	-0.1548041	0.3519072	0	0	0	0	0	0
13.57864	-0.1548811	0.3519607	-0.00211895	0.001472449	-0.04002521	0.02781334	0	0
13.59521	-0.1551894	0.3522108	-0.0186077	0.0150934	-0.3114758	0.2573025	0	0
13.61214	-0.1555747	0.3525144	-0.02275159	0.01792779	-0.1236957	0.08460682	0	0
13.66148	-0.1781694	0.3682857	-0.4579989	0.3196882	-6.567989	4.553638	0	0
13.67804	-0.1959528	0.3809007	-1.073472	0.7614847	-9.339521	6.70406	0	0
13.6947	-0.2175541	0.3962945	-1.296988	0.9242746	-6.7281	4.900174	0	0
13.71118	-0.2234925	0.4005698	-0.3603715	0.2594497	28.26795	-20.06503	0	0
13.72774	-0.2425003	0.414585	-1.147381	0.8460077	-23.81643	17.75038	0	0
13.74431	-0.2766653	0.4401511	-2.062321	1.54326	-27.61453	21.04433	0	0
13.76088	-0.2967597	0.4559258	-1.21297	0.9522192	25.63494	-17.83867	0	0
13.77744	-0.3196491	0.4765269	-1.381606	1.243483	-5.089579	8.790604	0	0
13.79401	-0.3322371	0.4914943	-0.759811	0.9034365	18.76579	-10.26261	0	0
13.81058	-0.3407249	0.5118122	-0.5123535	1.226457	7.468497	9.74905	0	0
13.82729	-0.3417531	0.5168582	-0.06151753	0.3019015	13.5466	-27.7808	0	0
13.8438	-0.3431306	0.5369302	-0.08342779	1.215609	-0.6594307	27.49978	0	0
13.86031	-0.3437373	0.5557919	-0.0367405	1.142305	1.413745	-2.219732	0	0
13.87684	-0.3435273	0.5691686	0.01270303	0.8093301	1.496473	-10.07793	0	0
13.89341	-0.3435506	0.5816339	-0.001406637	0.7523636	-0.4263215	-1.721235	0	0
13.90998	-0.3437606	0.5891489	-0.01267378	0.4536332	-0.3400431	-9.015699	0	0
13.92654	-0.3428739	0.6043409	0.05352311	0.9170457	1.997941	13.98662	0	0
13.94311	-0.3432473	0.6115545	-0.02253806	0.4354133	-2.295597	-14.53611	0	0
13.95968	-0.3438306	0.6170878	-0.03520774	0.3340085	-0.3823827	-3.06049	0	0
13.97624	-0.3439938	0.6216599	-0.009856585	0.2759916	0.7651436	-1.751056	0	0
13.99281	-0.342337	0.6230236	0.1000158	0.08231751	3.316147	-5.845432	0	0
14.00942	-0.3423136	0.6230797	0.001406429	0.003376148	-2.972017	-2.379236	0	0
14.02594	-0.342407	0.6232292	-0.005653284	0.009048142	-0.2130626	0.1711811	0	0
14.04251	-0.3436673	0.624388	-0.07607507	0.06994776	-2.128335	1.84055	0	0
14.05945	-0.3453226	0.6257904	-0.09768967	0.08276115	-0.6449969	0.3823618	0	0
14.07564	-0.3455323	0.6259961	-0.01295364	0.01271062	2.557486	-2.114251	0	0
14.09248	-0.3455323	0.6259961	0	0	0.3922624	-0.3849033	0	0
14.10878	-0.3455323	0.6259961	0	0	0	0	0	0
14.1255	-0.3455323	0.6259961	0	0	0	0	0	0
14.14191	-0.345509	0.6259774	0.001420372	-0.001140657	0.04286814	-0.03442608	0	0
14.15853	-0.3454857	0.6259587	0.001402681	-0.001126449	-0.0005357317	0.0004302303	0	0
14.17504	-0.3454857	0.6259587	0	0	-0.04233542	0.03399827	0	0
14.19161	-0.3454624	0.62594	0.001406718	-0.001129691	0.04251846	-0.03414526	0	0
14.20818	-0.3454391	0.6259213	0.001404919	-0.001126094	-5.428939E-05	0.0001085823	0	0
14.22474	-0.3454158	0.6259026	0.00140688	-0.001129822	5.917996E-05	-0.0001125133	0	0
14.24478	-0.3454158	0.6259026	0	0	-0.03843822	0.03086854	0	0
14.2616	-0.3453925	0.6258839	0.001385581	-0.001112718	0.03759477	-0.03019119	0	0
14.27791	-0.3453925	0.6258839	0	0	-0.04181693	0.03358188	0	0
14.29448	-0.3453925	0.6258839	0	0	0	0	0	0
14.31113	-0.3453925	0.6258839	0	0	0	0	0	0
14.36541	-0.3453925	0.6258839	0	0	0	0	0	0
14.38198	-0.3453925	0.6258839	0	0	0	0	0	0
14.39855	-0.3453925	0.6258839	0	0	0	0	0	0
14.41511	-0.3453925	0.6258839	0	0	0	0	0	0
14.51451	-0.3453925	0.6258464	0	-0.0003765747	0	-0.003247263	0	0
14.53108	-0.3453925	0.6258464	0	0	0	0.003247263	0	0
14.5478	-0.3453692	0.6258278	0.00139388	-0.001115817	0.04187574	-0.03352201	0	0
14.56431	-0.3453459	0.6258091	0.001411675	-0.001133672	0.0005355251	-0.0005373469	0	0
14.58082	-0.3452993	0.6257716	0.002821055	-0.002266952	0.04268138	-0.03431999	0	0
14.59735	-0.3452527	0.6257343	0.002820417	-0.002261383	-1.933082E-05	0.000168558	0	0
14.61391	-0.3452294	0.6257156	0.001406799	-0.001129756	-0.04271717	0.03419586	0	0
14.63048	-0.3451595	0.6256595	0.004220396	-0.003385671	0.08491944	-0.06808757	0	0
14.64705	-0.3451129	0.625622	0.002811637	-0.002259383	-0.04251768	0.03399243	0	0
14.66361	-0.3450896	0.6256033	0.00140688	-0.001129822	-0.04239809	0.0340922	0	0
14.68018	-0.3449964	0.6255285	0.005626871	-0.004515168	0.1273669	-0.1021759	0	0
14.71331	-0.3448565	0.6253415	0.004221295	-0.005643385	-0.02828132	-0.02270065	0	0
14.72988	-0.3448099	0.6253041	0.002813597	-0.002259513	-0.02832457	0.06808757	0	0
14.74644	-0.34474	0.6252106	0.004220396	-0.005641587	0.04245972	-0.1020771	0	0
14.76301	-0.3445768	0.6249301	0.009851188	-0.01693195	0.1699474	-0.3407636	0	0
14.77958	-0.3444602	0.6247245	0.007035792	-0.01241293	-0.08497372	0.1363923	0	0
14.79647	-0.3444835	0.6243319	-0.001379481	-0.02323949	-0.2514979	-0.3235612	0	0
14.81271	-0.3451828	0.6231357	-0.04305707	-0.07365377	-1.257832	-1.521506	0	0
14.82928	-0.3457187	0.6199422	-0.03234737	-0.1927746	0.3264513	-3.631025	0	0
14.84601	-0.3432006	0.6136772	0.1505241	-0.3745119	5.492514	-5.458448	0	0
14.86252	-0.3420567	0.6040624	0.06927339	-0.5822625	-2.444273	-6.24978	0	0
14.87903	-0.3414727	0.5927368	0.03537082	-0.6859441	-1.026609	-3.139598	0	0
14.89555	-0.3403741	0.5766574	0.06652062	-0.9736386	0.9431975	-8.711221	0	0
14.91211	-0.3396491	0.5646495	0.04376727	-0.7248395	-0.687806	7.520894	0	0
14.92868	-0.3390173	0.5563415	0.03813828	-0.5015004	-0.1698931	6.740777	0	0
14.94558	-0.3379871	0.5479957	0.06096219	-0.4938558	0.6820155	0.228432	0	0
14.96181	-0.3354083	0.5229455	0.1588458	-1.543034	2.954217	-31.66516	0	0
14.97838	-0.3342346	0.514988	0.07084677	-0.4803168	-2.682763	32.3983	0	0
14.99796	-0.3300955	0.4974445	0.2113937	-0.8959972	3.888193	-11.49969	0	0
15.01453	-0.3254722	0.4886208	0.2790608	-0.5325956	1.87199	10.05341	0	0
15.03109	-0.3205501	0.4803873	0.2971016	-0.4969797	0.5444744	1.07489	0	0
15.04766	-0.3128984	0.4746155	0.4618549	-0.3483821	4.972264	4.484684	0	0
15.06466	-0.3025252	0.4668314	0.610113	-0.4578349	4.416472	-3.260501	0	0
15.08079	-0.2952188	0.4613587	0.4529569	-0.3392788	-4.743254	3.578236	0	0
15.09736	-0.2862096	0.4546491	0.5438616	-0.4050374	2.78032	-2.011226	0	0
15.11392	-0.2818204	0.4513952	0.2649306	-0.1964026	-8.418637	6.296974	0	0
15.13071	-0.2716905	0.4439215	0.6036256	-0.4453458	10.15606	-7.464778	0	0
15.14706	-0.2674118	0.4407794	0.2616816	-0.1921697	-10.32048	7.641309	0	0
15.16362	-0.2577913	0.433709	0.5806956	-0.4267733	9.691177	-7.126915	0	0
15.18019	-0.2490859	0.4273068	0.5254897	-0.3864595	-1.666165	1.21671	0	0
15.19676	-0.2367887	0.4183822	0.7422995	-0.5387176	6.54371	-4.595423	0	0
15.21332	-0.2272178	0.4115051	0.5777364	-0.4151261	-4.966809	3.730211	0	0
15.22989	-0.2181562	0.4050253	0.5469595	-0.3911233	-0.928876	0.7244283	0	0
15.24646	-0.2096623	0.3989776	0.5127187	-0.3650589	-1.033419	0.7866486	0	0
15.26302	-0.2040667	0.3950067	0.3377729	-0.2396991	-5.28018	3.783584	0	0
15.27959	-0.1918226	0.3862809	0.7390973	-0.5267202	12.11269	-8.662812	0	0
15.29632	-0.1847123	0.381276	0.4249466	-0.2991183	-9.434382	6.835199	0	0
15.31283	-0.1801314	0.3780234	0.2774487	-0.1969961	-4.436938	3.071975	0	0
15.32934	-0.1698477	0.3708226	0.6228052	-0.4360976	10.4581	-7.240479	0	0
15.34586	-0.1668296	0.3687145	0.1827829	-0.1276712	-13.32439	9.339508	0	0
15.36242	-0.1600149	0.3639628	0.4113591	-0.2868286	6.910178	-4.811551	0	0
15.37899	-0.1563708	0.3614264	0.2199706	-0.1531054	-5.776449	4.036008	0	0
15.39556	-0.1545728	0.3601761	0.1085304	-0.07547241	-3.363466	2.343103	0	0
15.41212	-0.1545215	0.3601404	0.003101255	-0.002155048	-3.181949	2.212786	0	0
15.42892	-0.1545215	0.3601047	0	-0.002127818	-0.09296193	0.0008162425	0	0
15.44526	-0.1545215	0.3601047	0	0	0	0.06421953	0	0
15.46182	-0.1544958	0.3600511	0.001550627	-0.003234371	0.04712081	-0.09828679	0	0
15.47845	-0.1544701	0.3600333	0.001545113	-0.001073692	-0.0001661273	0.06509326	0	0
15.49496	-0.1543673	0.3599618	0.006226348	-0.00432784	0.1412881	-0.09821602	0	0
15.51152	-0.1541104	0.3597832	0.01551076	-0.01078126	0.2807295	-0.1951296	0	0
15.52809	-0.151334	0.3578543	0.1675889	-0.1164369	4.589993	-3.188876	0	0
15.545	-0.1484267	0.3558004	0.1719464	-0.1214696	0.1301703	-0.1503436	0	0
15.56122	-0.1478861	0.3553182	0.03331827	-0.02971992	-4.183925	2.769091	0	0
15.57779	-0.1479118	0.3553361	-0.001553415	0.001079385	-1.063449	0.939257	0	0
15.59435	-0.147989	0.3552825	-0.004662044	-0.003234558	-0.09382401	-0.1302025	0	0
15.61104	-0.147989	0.3552825	0	0	0.1401924	0.09726641	0	0
15.62755	-0.1480148	0.3552646	-0.001559432	-0.001082939	-0.04697046	-0.03261837	0	0
15.66331	-0.1480148	0.3552289	0	-0.0009985996	0.02983692	0.001613676	0	0
15.68009	-0.1480663	0.3551932	-0.003067294	-0.002128906	-0.05838249	-0.02151411	0	0
15.69644	-0.1482207	0.3551218	-0.009448098	-0.004369495	-0.1925786	-0.06762305	0	0
15.71301	-0.1536478	0.3513536	-0.3275791	-0.2274475	-9.664913	-6.777177	0	0
15.72958	-0.1586296	0.3479248	-0.3007185	-0.2069721	0.8106759	0.6179675	0	0
15.74614	-0.1604509	0.3466927	-0.109939	-0.07437863	5.75807	4.00191	0	0
15.76271	-0.168518	0.3410319	-0.4869348	-0.3416849	-11.37808	-8.067552	0	0
15.77927	-0.1698221	0.3400855	-0.07871776	-0.05712826	12.32037	8.588184	0	0
15.79584	-0.1725817	0.3381926	-0.166571	-0.1142535	-2.651493	-1.724094	0	0
15.81241	-0.1753132	0.3362819	-0.1648797	-0.1153377	0.05104625	-0.03272107	0	0
15.8292	-0.1754152	0.3361747	-0.006079052	-0.006383493	4.760959	3.266527	0	0
15.84554	-0.1753897	0.3362283	0.001561771	0.003278533	0.2306138	0.2916173	0	0
15.86211	-0.1753897	0.3362283	0	0	-0.04745393	-0.09961724	0	0
15.87873	-0.1753897	0.3362283	0	0	0	0	0	0
15.89524	-0.1753897	0.3362283	0	0	0	0	0	0
15.91181	-0.1753897	0.3362283	0	0	0	0	0	0
15.92838	-0.1753897	0.3362283	0	0	0	0	0	0
15.94494	-0.1753897	0.3362283	0	0	0	0	0	0
15.96151	-0.1753897	0.3362283	0	0	0	0	0	0
15.97807	-0.1753897	0.3362283	0	0	0	0	0	0
15.99464	-0.1754152	0.3362462	-0.001540822	0.001077586	-0.04650479	0.03252349	0	0
16.01121	-0.1754152	0.3362462	0	0	0.04650345	-0.03252255	0	0
16.07748	-0.1754407	0.336264	-0.0003849585	0.000269381	-0.004647229	0.003251974	0	0
16.09404	-0.1754407	0.336264	0	0	0.004647229	-0.003251974	0	0
16.11061	-0.1754407	0.336264	0	0	0	0	0	0
16.12741	-0.1754407	0.336264	0	0	0	0	0	0
16.14375	-0.1754407	0.336264	0	0	0	0	0	0
16.16043	-0.1754152	0.3362462	0.001528571	-0.001069643	0.04628692	-0.03239002	0	0
16.17695	-0.1754152	0.3362462	0	0	-0.04603962	0.03221698	0	0
16.19345	-0.1754152	0.3362462	0	0	0	0	0	0
16.21001	-0.1754152	0.3362462	0	0	0	0	0	0
16.22658	-0.1754152	0.3362462	0	0	0	0	0	0
16.24315	-0.1753897	0.3362283	0.001540734	-0.001077524	0.04649943	-0.03251974	0	0
16.25971	-0.1753897	0.3362283	0	0	-0.04649943	0.03251974	0	0
16.27628	-0.1753897	0.3362283	0	0	0	0	0	0
16.29285	-0.1753897	0.3362283	0	0	0	0	0	0
16.30955	-0.1753897	0.3362283	0	0	0	0	0	0
16.32891	-0.1754152	0.3362462	-0.001318114	0.0009218334	-0.03655109	0.02556229	0	0
16.34548	-0.1754152	0.3362462	0	0	0.03668302	-0.02565456	0	0
16.36205	-0.1754152	0.3362462	0	0	0	0	0	0
16.37861	-0.1754152	0.3362462	0	0	0	0	0	0
16.39518	-0.1754152	0.3362462	0	0	0	0	0	0
16.41175	-0.1754152	0.3362462	0	0	0	0	0	0
16.42831	-0.1754152	0.3362462	0	0	0	0	0	0
16.48189	-0.1754152	0.3362462	0	0	0	0	0	0
16.49845	-0.1754152	0.3362462	0	0	0	0	0	0
16.51519	-0.1754152	0.3362462	0	0	0	0	0	0
16.53159	-0.1754152	0.3362462	0	0	0	0	0	0
16.54816	-0.1754152	0.3362462	0	0	0	0	0	0
16.56472	-0.1754152	0.3362462	0	0	0	0	0	0
16.58129	-0.1754152	0.3362462	0	0	0	0	0	0
16.59785	-0.1754152	0.3362462	0	0	0	0	0	0
16.61442	-0.1754152	0.3362462	0	0	0	0	0	0
16.64779	-0.1754152	0.3362462	0	0	0	0	0	0
16.66412	-0.1754152	0.3362462	0	0	0	0	0	0
16.68081	-0.1754152	0.3362462	0	0	0	0	0	0
16.69732	-0.1754152	0.3362462	0	0	0	0	0	0
16.71383	-0.1753897	0.3362283	0.001545895	-0.001081134	0.0468142	-0.03273987	0	0
16.73039	-0.1753897	0.3362283	0	0	-0.04674939	0.03269455	0	0
16.74696	-0.1753897	0.3362283	0	0	0	0	0	0
16.76352	-0.1753897	0.3362283	0	0	0	0	0	0
16.78009	-0.1753897	0.3362283	0	0	0	0	0	0
16.79666	-0.1753642	0.3362105	0.001539834	-0.001077524	0.04647496	-0.03252162	0	0
16.81322	-0.1753642	0.3362105	0	0	-0.04647229	0.03251974	0	0
16.82991	-0.1753642	0.3362105	0	0	0	0	0	0
16.84636	-0.1753642	0.3362105	0	0	0	0	0	0
16.86292	-0.1753642	0.3362105	0	0	0	0	0	0
16.87949	-0.1753642	0.3362105	0	0	0	0	0	0
16.89606	-0.1753642	0.3362105	0	0	0	0	0	0
16.91298	-0.1753642	0.3362105	0	0	0	0	0	0
16.92919	-0.1753642	0.3362105	0	0	0	0	0	0
16.946	-0.1753642	0.3362105	0	0	0	0	0	0
16.96232	-0.1753642	0.3362105	0	0	0	0	0	0
16.97902	-0.1753642	0.3362105	0	0	0	0	0	0
16.99553	-0.1753642	0.3362105	0	0	0	0	0	0
17.01466	-0.1753642	0.3362105	0	0	0	0	0	0
17.03156	-0.1753642	0.3362105	0	0	0	0	0	0
17.04779	-0.1753642	0.3362105	0	0	0	0	0	0
17.06436	-0.1753642	0.3362105	0	0	0	0	0	0
17.08093	-0.1753642	0.3362105	0	0	0	0	0	0
17.09761	-0.1753642	0.3362105	0	0	0	0	0	0
17.11406	-0.1753642	0.3362105	0	0	0	0	0	0
17.13063	-0.1753642	0.3362105	0	0	0	0	0	0
17.14764	-0.1753642	0.3362105	0	0	0	0	0	0
17.16376	-0.1753642	0.3362105	0	0	0	0	0	0
17.18033	-0.1753642	0.3362105	0	0	0	0	0	0
17.1969	-0.1753642	0.3362105	0	0	0	0	0	0
17.21346	-0.1753642	0.3362105	0	0	0	0	0	0
17.23003	-0.1753642	0.3362105	0	0	0	0	0	0
17.24671	-0.1753642	0.3362105	0	0	0	0	0	0
17.26316	-0.1753642	0.3362105	0	0	0	0	0	0
17.27973	-0.1753642	0.3362105	0	0	0	0	0	0
17.2963	-0.1753642	0.3362105	0	0	0	0	0	0
17.31286	-0.1753642	0.3362105	0	0	0	0	0	0
17.32943	-0.1753642	0.3362105	0	0	0	0	0	0
17.34628	-0.1753387	0.3361926	0.001513523	-0.001059112	0.04528458	-0.03168863	0	0
17.36256	-0.1753387	0.3361926	0	0	-0.04567821	0.03196407	0	0
17.37913	-0.1753387	0.3361926	0	0	0	0	0	0
17.39582	-0.1753387	0.3361926	0	0	0	0	0	0
17.41233	-0.1753387	0.3361926	0	0	0	0	0	0
17.42883	-0.1753387	0.3361926	0	0	0	0	0	0
17.4454	-0.1753387	0.3361926	0	0	0	0	0	0
17.46196	-0.1753387	0.3361926	0	0	0	0	0	0
17.47853	-0.1753387	0.3361926	0	0	0	0	0	0
17.4951	-0.1753387	0.3361926	0	0	0	0	0	0
17.5119	-0.1753387	0.3361926	0	0	0	0	0	0
17.52841	-0.1753387	0.3361926	0	0	0	0	0	0
17.5448	-0.1753387	0.3361926	0	0	0	0	0	0
17.57549	-0.1753387	0.3361926	0	0	0	0	0	0
17.59206	-0.1753642	0.3361747	-0.001539834	-0.001079323	-0.03258331	-0.02283877	0	0
17.60862	-0.1753642	0.3361747	0	0	0.04647229	0.03257403	0	0
17.64711	-0.1753642	0.3361747	0	0	0	0	0	0
17.66401	-0.1753642	0.3361747	0	0	0	0	0	0
17.68052	-0.1753642	0.3361747	0	0	0	0	0	0
17.69681	-0.1753642	0.3361747	0	0	0	0	0	0
17.71354	-0.1753387	0.3361569	0.00152439	-0.001066717	0.0461603	-0.03230143	0	0
17.73005	-0.1753387	0.3361569	0	0	-0.04585047	0.03208461	0	0
17.74657	-0.1753387	0.3361569	0	0	0	0	0	0
17.76308	-0.1753387	0.3361569	0	0	0	0	0	0
17.77964	-0.1753387	0.3361569	0	0	0	0	0	0
17.79621	-0.1753387	0.3361569	0	0	0	0	0	0
17.81278	-0.1753387	0.3361569	0	0	0	0	0	0
17.82934	-0.1753387	0.3361569	0	0	0	0	0	0
17.84591	-0.1753387	0.3361569	0	0	0	0	0	0
17.86265	-0.1753387	0.3361569	0	0	0	0	0	0
17.87916	-0.1753387	0.3361569	0	0	0	0	0	0
17.89561	-0.1753387	0.3361569	0	0	0	0	0	0
17.91218	-0.1753387	0.3361569	0	0	0	0	0	0
17.96188	-0.1753387	0.3361569	0	0	0	0	0	0
17.97873	-0.1753387	0.3361569	0	0	0	0	0	0
17.99524	-0.1753132	0.336139	0.001545171	-0.001081259	0.04630814	-0.03240488	0	0
18.01158	-0.1753132	0.336139	0	0	-0.04704772	0.03292241	0	0
18.02827	-0.1753132	0.336139	0	0	0	0	0	0
18.04471	-0.1753132	0.336139	0	0	0	0	0	0
18.06129	-0.1753132	0.336139	0	0	0	0	0	0
18.07784	-0.1753132	0.336139	0	0	0	0	0	0
18.09441	-0.1753132	0.336139	0	0	0	0	0	0
18.11097	-0.1753132	0.336139	0	0	0	0	0	0
18.16086	-0.1752876	0.3361212	0.0005116732	-0.0003578427	0.007699889	-0.005384977	0	0
18.17737	-0.1752876	0.3361212	0	0	-0.007706304	0.005389463	0	0
18.19381	-0.1752876	0.3361212	0	0	0	0	0	0
18.21037	-0.1752876	0.3361212	0	0	0	0	0	0
18.22694	-0.1752876	0.3361212	0	0	0	0	0	0
18.24351	-0.1752876	0.3361212	0	0	0	0	0	0
18.26007	-0.1752876	0.3361212	0	0	0	0	0	0
18.27664	-0.1752876	0.3361212	0	0	0	0	0	0
18.29346	-0.1752876	0.3361212	0	0	0	0	0	0
18.30997	-0.1752876	0.3361212	0	0	0	0	0	0
18.33072	-0.1752876	0.3361212	0	0	0	0	0	0
18.34729	-0.1752621	0.3361033	0.001539834	-0.001077524	0.04125276	-0.0288673	0	0
18.36401	-0.1752621	0.3361033	0	0	-0.04626721	0.03237624	0	0
18.38052	-0.1752621	0.3361033	0	0	0	0	0	0
18.39703	-0.1752366	0.3360497	0.001544992	-0.003245206	0.04678686	-0.09827428	0	0
18.41356	-0.1752366	0.3360497	0	0	-0.04675716	0.09821188	0	0
18.43013	-0.1751856	0.336014	0.003080568	-0.002155048	0.09307352	-0.0651107	0	0
18.44706	-0.1751601	0.3359962	0.001506194	-0.001053984	-0.04698995	0.0328632	0	0
18.46326	-0.1751345	0.3359783	0.001575932	-0.00110398	0.002104701	-0.001508899	0	0
18.47983	-0.1751345	0.3359783	0	0	-0.04809885	0.03369447	0	0
18.4966	-0.1751345	0.3359783	0	0	0	0	0	0
18.51311	-0.1751345	0.3359783	0	0	0	0	0	0
18.52963	-0.175109	0.3359604	0.001544457	-0.001080759	0.04675715	-0.03271908	0	0
18.54613	-0.175109	0.3359604	0	0	-0.04677066	0.03272853	0	0
18.56266	-0.175109	0.3359604	0	0	0	0	0	0
18.57966	-0.175109	0.3359604	0	0	0	0	0	0
18.59579	-0.175109	0.3359604	0	0	0	0	0	0
18.67863	-0.175109	0.3359604	0	0	0	0	0	0
18.69519	-0.175109	0.3359604	0	0	0	0	0	0
18.71176	-0.175109	0.3359604	0	0	0	0	0	0
18.72833	-0.175109	0.3359604	0	0	0	0	0	0
18.74528	-0.175109	0.3359604	0	0	0	0	0	0
18.76179	-0.175109	0.3359604	0	0	0	0	0	0
18.77803	-0.175109	0.3359604	0	0	0	0	0	0
18.7946	-0.175109	0.3359604	0	0	0	0	0	0
18.81132	-0.175109	0.3359604	0	0	0	0	0	0
18.82773	-0.175109	0.3359604	0	0	0	0	0	0
18.84435	-0.175109	0.3359604	0	0	0	0	0	0
18.86086	-0.175109	0.3359604	0	0	0	0	0	0
18.87743	-0.175109	0.3359604	0	0	0	0	0	0
18.894	-0.175109	0.3359604	0	0	0	0	0	0
18.91056	-0.175109	0.3359604	0	0	0	0	0	0
18.9437	-0.175109	0.3359604	0	0	0	0	0	0
18.96026	-0.1750835	0.3359426	0.001540734	-0.001077524	0.03100081	-0.02168066	0	0
18.97694	-0.1749814	0.3358712	0.006120268	-0.004283294	0.1377507	-0.09642838	0	0
18.9972	-0.1717132	0.3335854	0.1613291	-0.1128322	4.202125	-2.938853	0	0
19.01377	-0.1704356	0.3326925	0.07711943	-0.0538942	-2.286742	1.600481	0	0
19.03033	-0.1650121	0.3289067	0.3273605	-0.2285143	7.552289	-5.270044	0	0
19.0469	-0.1601431	0.3255135	0.2938934	-0.2048105	-1.010039	0.7153798	0	0
19.0635	-0.1580907	0.3240848	0.1236276	-0.08605957	-5.133312	3.580202	0	0
19.08003	-0.157141	0.323424	0.05744278	-0.03996921	-1.997462	1.39101	0	0
19.0966	-0.1571667	0.3234419	-0.001549906	0.001077648	-1.782352	1.240153	0	0
19.11317	-0.1571667	0.3234419	0	0	0.04677896	-0.03252536	0	0
19.13005	-0.1571667	0.3234419	0	0	0	0	0	0
19.1463	-0.1571667	0.3234419	0	0	0	0	0	0
19.16307	-0.1571667	0.3234419	0	0	0	0	0	0
19.17958	-0.1571667	0.3234419	0	0	0	0	0	0
19.1961	-0.1571667	0.3234419	0	0	0	0	0	0
19.21261	-0.1571667	0.3234419	0	0	0	0	0	0
19.22914	-0.1571667	0.3234419	0	0	0	0	0	0
19.2457	-0.1571667	0.3234419	0	0	0	0	0	0
19.26227	-0.1571667	0.3234419	0	0	0	0	0	0
19.27916	-0.1571667	0.3234776	0	0.002115922	0	0.06324702	0	0
19.2954	-0.1571667	0.3234776	0	0	0	-0.06386234	0	0
19.31218	-0.1571667	0.3234776	0	0	0	0	0	0
19.32854	-0.1571667	0.3234776	0	0	0	0	0	0
19.3452	-0.1571667	0.3234776	0	0	0	0	0	0
19.36172	-0.1571924	0.3234954	-0.001554919	0.001081134	-0.04686551	0.03258554	0	0
19.41137	-0.1571924	0.3234954	0	0	0.02349963	-0.01633926	0	0
19.42794	-0.1571924	0.3234954	0	0	0	0	0	0
19.44477	-0.1571924	0.3234954	0	0	0	0	0	0
19.46107	-0.1571924	0.3234954	0	0	0	0	0	0
19.47764	-0.1571667	0.3234776	0.001549728	-0.001077524	0.04715634	-0.03278775	0	0
19.4942	-0.1571667	0.3234776	0	0	-0.04677358	0.03252162	0	0
19.51082	-0.1571667	0.3234776	0	0	0	0	0	0
19.52734	-0.1571667	0.3234776	0	0	0	0	0	0
19.54391	-0.1571667	0.3234776	0	0	0	0	0	0
19.56086	-0.1571667	0.3234776	0	0	0	0	0	0
19.57737	-0.1571667	0.3234776	0	0	0	0	0	0
19.59361	-0.1571667	0.3234776	0	0	0	0	0	0
19.61039	-0.1571667	0.3234776	0	0	0	0	0	0
19.62674	-0.1571667	0.3234776	0	0	0	0	0	0
19.64342	-0.1571667	0.3234776	0	0	0	0	0	0
19.65987	-0.1571667	0.3234776	0	0	0	0	0	0
19.67644	-0.1571667	0.3234776	0	0	0	0	0	0
19.69301	-0.1571667	0.3234776	0	0	0	0	0	0
19.71399	-0.1571667	0.3234776	0	0	0	0	0	0
19.73055	-0.1571667	0.3234776	0	0	0	0	0	0
19.74712	-0.1571667	0.3234776	0	0	0	0	0	0
19.764	-0.1571667	0.3234776	0	0	0	0	0	0
19.78052	-0.1571667	0.3234776	0	0	0	0	0	0
19.81354	-0.1571667	0.3234776	0	0	0	0	0	0
19.89622	-0.1571667	0.3234776	0	0	0	0	0	0
19.91279	-0.1571667	0.3234776	0	0	0	0	0	0
19.92936	-0.1571667	0.3234776	0	0	0	0	0	0
19.94614	-0.1571667	0.3234776	0	0	0	0	0	0
19.96249	-0.1571667	0.3234776	0	0	0	0	0	0
19.97916	-0.1571667	0.3234776	0	0	0	0	0	0
20.01219	-0.1571667	0.3234776	0	0	0	0	0	0
20.02876	-0.1571667	0.3234776	0	0	0	0	0	0
20.04533	-0.1571667	0.3234776	0	0	0	0	0	0
20.06189	-0.1571667	0.3234776	0	0	0	0	0	0
20.07874	-0.1571667	0.3234776	0	0	0	0	0	0
20.09524	-0.1571667	0.3234776	0	0	0	0	0	0
20.11159	-0.1571667	0.3234776	0	0	0	0	0	0
20.12827	-0.1571667	0.3234776	0	0	0	0	0	0
20.14478	-0.1571667	0.3234776	0	0	0	0	0	0
20.16129	-0.1571667	0.3234776	0	0	0	0	0	0
20.17786	-0.1571667	0.3234776	0	0	0	0	0	0
20.19443	-0.1571667	0.3234776	0	0	0	0	0	0
20.211	-0.1571667	0.3234776	0	0	0	0	0	0
20.22756	-0.1571667	0.3234776	0	0	0	0	0	0
20.2607	-0.1571667	0.3234776	0	0	0	0	0	0
20.27727	-0.1571667	0.3234776	0	0	0	0	0	0
20.29389	-0.1571667	0.3234776	0	0	0	0	0	0
20.3104	-0.1571667	0.3234776	0	0	0	0	0	0
20.32697	-0.1571667	0.3234776	0	0	0	0	0	0
20.34392	-0.1571667	0.3234776	0	0	0	0	0	0
20.3601	-0.1571667	0.3234776	0	0	0	0	0	0
20.39559	-0.1571667	0.3234776	0	0	0	0	0	0
20.41216	-0.1571667	0.3234776	0	0	0	0	0	0
20.42898	-0.1571667	0.3234776	0	0	0	0	0	0
20.4455	-0.1571667	0.3234776	0	0	0	0	0	0
20.46186	-0.1571667	0.3234776	0	0	0	0	0	0
20.47843	-0.1571667	0.3234776	0	0	0	0	0	0
20.49499	-0.1571667	0.3234776	0	0	0	0	0	0
20.51156	-0.1571667	0.3234776	0	0	0	0	0	0
20.56498	-0.1571667	0.3234776	0	0	0	0	0	0
20.58162	-0.1571667	0.3234776	0	0	0	0	0	0
20.59812	-0.1571667	0.3234776	0	0	0	0	0	0
20.61469	-0.1571667	0.3234776	0	0	0	0	0	0
20.63125	-0.1571667	0.3234776	0	0	0	0	0	0
20.64782	-0.1571667	0.3234776	0	0	0	0	0	0
20.66439	-0.1571667	0.3234776	0	0	0	0	0	0
20.68095	-0.1571667	0.3234776	0	0	0	0	0	0
20.69752	-0.1571667	0.3234776	0	0	0	0	0	0
20.74722	-0.1571667	0.3234776	0	0	0	0	0	0
20.76379	-0.1571924	0.3234954	-0.001549728	0.001077524	-0.02338544	0.01625987	0	0
20.78036	-0.1571924	0.3234954	0	0	0.04677088	-0.03251974	0	0
20.79692	-0.1571924	0.3234954	0	0	0	0	0	0
20.81349	-0.1571924	0.3234954	0	0	0	0	0	0
20.83006	-0.1571924	0.3234954	0	0	0	0	0	0
20.84663	-0.1571924	0.3234954	0	0	0	0	0	0
20.86319	-0.1571924	0.3234954	0	0	0	0	0	0
20.87981	-0.1571924	0.3234954	0	0	0	0	0	0
20.89633	-0.1571924	0.3234954	0	0	0	0	0	0
20.9129	-0.1571924	0.3234954	0	0	0	0	0	0
20.92946	-0.1571924	0.3234954	0	0	0	0	0	0
20.94603	-0.1571924	0.3234954	0	0	0	0	0	0
20.96259	-0.1571924	0.3234954	0	0	0	0	0	0
20.97916	-0.1571667	0.3234776	0.001549728	-0.001077524	0.04677358	-0.03252162	0	0
20.99573	-0.1571667	0.3234776	0	0	-0.04677088	0.03251974	0	0
21.01241	-0.1571667	0.3234776	0	0	0	0	0	0
21.02892	-0.1571667	0.3234776	0	0	0	0	0	0
21.06651	-0.1571667	0.3234776	0	0	0	0	0	0
21.08308	-0.1571667	0.3234776	0	0	0	0	0	0
21.09965	-0.1571667	0.3234776	0	0	0	0	0	0
21.11622	-0.1571667	0.3234776	0	0	0	0	0	0
21.13278	-0.1571667	0.3234776	0	0	0	0	0	0
21.14935	-0.1571924	0.3234954	-0.001549728	0.001077524	-0.04677088	0.03251974	0	0
21.16602	-0.1571924	0.3234954	0	0	0.04662862	-0.03242083	0	0
21.18249	-0.1571924	0.3234954	0	0	0	0	0	0
21.19905	-0.1571924	0.3234954	0	0	0	0	0	0
21.21562	-0.1571924	0.3234954	0	0	0	0	0	0
21.23219	-0.1571924	0.3234954	0	0	0	0	0	0
21.24875	-0.1571667	0.3234776	0.001549906	-0.001077648	0.04677896	-0.03252536	0	0
21.26532	-0.1571667	0.3234776	0	0	-0.04677896	0.03252536	0	0
21.28189	-0.1571924	0.3234954	-0.001549728	0.001077524	-0.04677088	0.03251974	0	0
21.29861	-0.1571924	0.3234954	0	0	0.04654582	-0.03236325	0	0
21.31513	-0.1571924	0.3234954	0	0	0	0	0	0
21.33159	-0.1571924	0.3234954	0	0	0	0	0	0
21.34865	-0.1571924	0.3234954	0	0	0	0	0	0
21.36472	-0.1571924	0.3234954	0	0	0	0	0	0
21.38129	-0.1571667	0.3234776	0.001549728	-0.001077524	0.04748152	-0.03301385	0	0
21.39819	-0.1571667	0.3234776	0	0	-0.04630706	0.03219725	0	0
21.4147	-0.1571924	0.3234597	-0.001554919	-0.001081134	-0.04653911	-0.03235859	0	0
21.43121	-0.1571924	0.3234597	0	0	0.04708476	0.03273798	0	0
21.44756	-0.1571924	0.3234597	0	0	0	0	0	0
21.46424	-0.1571667	0.3234776	0.001539272	0.001070254	0.04661096	0.03240855	0	0
21.48075	-0.1571667	0.3234776	0	0	-0.04637792	-0.03224652	0	0
21.49726	-0.1571667	0.3234776	0	0	0	0	0	0
21.51382	-0.1571667	0.3234776	0	0	0	0	0	0
21.53039	-0.1571667	0.3234776	0	0	0	0	0	0
21.54696	-0.1571667	0.3234776	0	0	0	0	0	0
21.56352	-0.1571924	0.3234597	-0.001549728	-0.001077524	-0.04677088	-0.03251974	0	0
21.58009	-0.1571667	0.3234776	0.001549906	0.001077648	0.09355254	0.06504697	0	0
21.59665	-0.1571924	0.3234597	-0.001549728	-0.001077524	-0.09355254	-0.06504697	0	0
21.62979	-0.1571667	0.3234776	0.000774864	0.0005387621	0.04677088	0.03251974	0	0
21.64636	-0.1571924	0.3234597	-0.001549193	-0.001077152	-0.04675473	-0.03250851	0	0
21.66292	-0.1571924	0.3234597	0	0	0.04675743	0.03251038	0	0
21.67949	-0.1571924	0.3234597	0	0	0	0	0	0
21.7007	-0.1571924	0.3234597	0	0	0	0	0	0
21.71727	-0.1571667	0.3234776	0.001549728	0.001077524	0.04102104	0.02852189	0	0
21.73384	-0.1571924	0.3234954	-0.001549728	0.001077524	-0.09354176	0	0	0
21.7504	-0.157218	0.3235133	-0.001549728	0.001077524	0	0	0	0
21.76697	-0.157218	0.3235848	0	0.004313694	0.04677088	0.09766781	0	0
21.78354	-0.1571924	0.3236383	0.001549728	0.003232572	0.04677088	-0.03262832	0	0
21.8001	-0.157064	0.3237633	0.00774774	0.007546267	0.1870564	0.1301876	0	0
21.81667	-0.1568586	0.3239062	0.01239692	0.008623791	0.1403126	0.03251974	0	0
21.8335	-0.1564735	0.324567	0.02288756	0.0392715	0.3141487	0.9177647	0	0
21.85001	-0.1562167	0.3251742	0.015551	0.03677299	-0.2200624	-0.07494351	0	0
21.86637	-0.1536478	0.329246	0.156994	0.248838	4.302441	6.450635	0	0
21.88294	-0.1493017	0.336014	0.2623313	0.4085202	3.198788	4.849084	0	0
21.89951	-0.1467016	0.3508535	0.1569597	0.8958172	-3.180302	14.7075	0	0
21.91607	-0.1459804	0.3636056	0.0435309	0.7697138	-3.423486	-3.806026	0	0
21.93264	-0.1451818	0.3720554	0.04820437	0.5100323	0.1410456	-7.837204	0	0
21.94921	-0.1406958	0.3903573	0.270777	1.104703	6.717254	17.94721	0	0
21.96609	-0.1385023	0.3963839	0.1298892	0.3568673	-4.211275	-22.35356	0	0
21.98261	-0.1318102	0.4059559	0.4052376	0.5796355	8.243595	6.669409	0	0
21.99891	-0.1269193	0.4123825	0.3000869	0.3943096	-3.20463	-5.648095	0	0
22.01563	-0.1203627	0.4197079	0.392056	0.4380293	2.785093	1.32396	0	0
22.03214	-0.1152502	0.4244924	0.309666	0.2897954	-2.479115	-4.460356	0	0
22.04865	-0.1079212	0.4295838	0.4438609	0.3083469	4.063813	0.5617952	0	0
22.06518	-0.1034452	0.4328838	0.2708858	0.1997143	-5.236073	-3.288382	0	0
22.08174	-0.1018308	0.4341395	0.09744848	0.07579366	-5.241288	-3.74489	0	0
22.09831	-0.09495047	0.4401691	0.4152956	0.3639459	9.592646	8.696453	0	0
22.11488	-0.09461142	0.4477294	0.02046486	0.456345	-11.91602	2.788609	0	0
22.13144	-0.0950287	0.4524378	-0.0251869	0.2841966	-1.377773	-5.19545	0	0
22.14823	-0.09896511	0.4632485	-0.2345508	0.6441535	-6.27778	10.79331	0	0
22.16474	-0.1005284	0.4667053	-0.09467681	0.2093555	4.201091	-13.05908	0	0
22.18115	-0.1053714	0.4710648	-0.2951803	0.2657067	-6.090825	1.711819	0	0
22.19776	-0.1052673	0.4709927	0.006265426	-0.004338983	9.128653	-8.17777	0	0
22.21428	-0.1052673	0.4709927	0	0	-0.1891018	0.1309583	0	0
22.23085	-0.1052673	0.4710287	0	0.002174836	0	0.06573506	0	0
22.24741	-0.1053454	0.4711188	-0.004712594	0.005439788	-0.1422264	0.09853645	0	0
22.26398	-0.1055536	0.4716595	-0.01256692	0.03263154	-0.237044	0.8206486	0	0
22.28082	-0.1064643	0.4733717	-0.05407568	0.1016634	-1.242438	2.066257	0	0
22.29733	-0.1085714	0.4823725	-0.1276067	0.5451098	-2.204577	13.29523	0	0
22.31385	-0.1094555	0.4918016	-0.0535459	0.5710516	2.242647	0.7855474	0	0
22.33025	-0.1104435	0.4980959	-0.06023684	0.3837692	-0.2032903	-5.69019	0	0
22.35111	-0.1124187	0.5122657	-0.0946713	0.6791354	-0.9240237	7.925939	0	0
22.36768	-0.1146788	0.5186382	-0.1364188	0.3846419	-1.115297	-7.867486	0	0
22.38425	-0.1181316	0.5266197	-0.2084105	0.4817666	-2.172715	2.931229	0	0
22.40081	-0.1204146	0.5323368	-0.1378021	0.3450848	2.130966	-4.125067	0	0
22.41738	-0.1213741	0.5386631	-0.05791692	0.3818537	2.41094	1.109689	0	0
22.43395	-0.1208555	0.5417292	0.03130487	0.1850679	2.692719	-5.939006	0	0
22.45052	-0.1205962	0.5420213	0.01565378	0.01763254	-0.4723507	-5.05321	0	0
22.46708	-0.1205962	0.5420213	0	0	-0.4724321	-0.5321511	0	0
22.54992	-0.1252359	0.5654023	-0.05601195	0.2822624	-0.5634921	2.83962	0	0
22.56648	-0.1272042	0.5684518	-0.1188211	0.1840889	-0.6318852	-0.9876649	0	0
22.58305	-0.1270747	0.5693892	0.007815198	0.05658171	3.82211	-3.848398	0	0
22.59962	-0.1233443	0.5788499	0.2251652	0.5710483	6.559637	15.52663	0	0
22.61618	-0.1197402	0.5831097	0.2175452	0.2571271	-0.2299727	-9.474158	0	0
22.63275	-0.1154839	0.5870607	0.256914	0.2384836	1.188151	-0.5626624	0	0
22.64932	-0.1176385	0.5907019	-0.1300557	0.2197825	-11.67877	-0.5643996	0	0
22.6661	-0.1223075	0.5944396	-0.278201	0.2227064	-4.442139	0.08767247	0	0
22.68245	-0.1253654	0.5987747	-0.187007	0.2651165	2.752241	1.279939	0	0
22.69913	-0.1194808	0.6043966	0.3529187	0.337169	16.34863	2.181707	0	0
22.71564	-0.1158214	0.6070162	0.2216472	0.1586652	-3.95586	-5.379203	0	0
22.73215	-0.1102355	0.611387	0.3382175	0.2646452	3.529679	3.20901	0	0
22.74916	-0.1092475	0.6123178	0.05809085	0.05472692	-8.356112	-6.261812	0	0
22.76529	-0.1082073	0.6131371	0.06451227	0.05080805	0.19381	-0.1182787	0	0
22.78185	-0.1077651	0.6134164	0.02668941	0.01686262	-1.156947	-1.038342	0	0
22.7987	-0.107479	0.6135841	0.01698739	0.00995428	-0.2903838	-0.2067684	0	0
22.81499	-0.1073749	0.6136214	0.006387389	0.002286764	-0.3199086	-0.2314061	0	0
22.83172	-0.1058399	0.6144224	0.09173699	0.0478706	2.584485	1.380331	0	0
22.84823	-0.09768806	0.617498	0.4936914	0.1862691	12.09064	4.162975	0	0
22.86469	-0.09166346	0.6197929	0.3661325	0.139464	-3.869337	-1.41977	0	0
22.88126	-0.08732995	0.6210623	0.2615416	0.07661592	-3.167135	-1.903114	0	0
22.89782	-0.08529257	0.621137	0.1229904	0.004508492	-4.181482	-2.176207	0	0
22.91439	-0.08045752	0.6228741	0.2918445	0.1048526	5.096318	3.028567	0	0
22.93096	-0.0772146	0.6226873	0.1957429	-0.01127533	-2.900352	-3.504749	0	0
22.94752	-0.07279221	0.6199049	0.2669359	-0.1679499	2.14861	-4.728447	0	0
22.96432	-0.06731918	0.6162301	0.3259252	-0.2188352	1.768288	-1.525361	0	0
22.98066	-0.06378179	0.613938	0.2164829	-0.1402766	-3.303163	2.371038	0	0
22.99734	-0.05987571	0.6119082	0.2341271	-0.1216631	0.5342872	0.5636384	0	0
23.01385	-0.05649246	0.6117779	0.2048976	-0.007891013	-0.8805263	3.427336	0	0
23.03036	-0.05176949	0.6130812	0.2860669	0.07894091	2.458042	2.629523	0	0
23.04692	-0.05095585	0.6136586	0.04912842	0.03486338	-7.164428	-1.332794	0	0
23.06389	-0.05077212	0.6135282	0.01083069	-0.007687767	-1.142347	-1.269219	0	0
23.08006	-0.04917086	0.6123922	0.09902353	-0.07024799	2.661665	-1.888071	0	0
23.10077	-0.04294726	0.6079828	0.3004566	-0.2128741	5.461215	-3.86685	0	0
23.11734	-0.03795545	0.6044523	0.3013063	-0.2131015	0.02279079	-0.006100993	0	0
23.13394	-0.03135814	0.5997202	0.3974366	-0.2850705	2.898381	-2.169904	0	0
23.15047	-0.02717752	0.5967731	0.2528377	-0.1782357	-4.364005	3.224282	0	0
23.16704	-0.02210166	0.5931624	0.3063791	-0.2179441	1.617467	-1.199577	0	0
23.18361	-0.02097061	0.5923297	0.06827056	-0.05026408	-7.18613	5.060593	0	0
23.20049	-0.01807698	0.5902951	0.1714426	-0.1205468	3.084795	-2.10142	0	0
23.21674	-0.01673528	0.5893522	0.0825436	-0.05800795	-2.683132	1.887535	0	0
23.33271	-0.01573554	0.5883911	0.008620611	-0.008287659	-0.5590695	0.3760279	0	0
23.34959	-0.01576185	0.5883726	-0.001558462	-0.001094509	-0.07661933	0.05414386	0	0
23.3661	-0.01578816	0.5883541	-0.001593386	-0.001119037	-0.001045835	-0.0007344892	0	0
23.38262	-0.01581447	0.5883356	-0.001593273	-0.001119037	3.41591E-06	0	0	0
23.39898	-0.01584078	0.5883172	-0.001608061	-0.001129342	-0.0004498293	-0.000313505	0	0
23.41554	-0.01586709	0.5882987	-0.001588066	-0.0011153	0.000607205	0.00042644	0	0
23.43215	-0.01591971	0.5882987	-0.00316836	0	-0.04763578	0.0336192	0	0
23.44868	-0.01591971	0.5882987	0	0	0.0956213	0	0	0
23.46525	-0.01594602	0.5882802	-0.001588066	-0.0011153	-0.04798595	-0.03370057	0	0
23.48219	-0.01597233	0.5882617	-0.001552738	-0.001090566	0.001054269	0.0007381089	0	0
23.49838	-0.01602494	0.5882248	-0.003250108	-0.002282634	-0.05122967	-0.03597876	0	0
23.51521	-0.01605125	0.5882063	-0.001562876	-0.001097609	0.05109132	0.03588393	0	0
23.53151	-0.01610387	0.5881693	-0.00322805	-0.002267143	-0.05025505	-0.03529658	0	0
23.54808	-0.01615649	0.5881324	-0.00317602	-0.002230601	0.001583011	0.001111788	0	0
23.56465	-0.01620911	0.5880954	-0.00317602	-0.002230601	0	0	0	0
23.58121	-0.01628803	0.58804	-0.004763974	-0.003345901	-0.04792454	-0.03365983	0	0
23.59778	-0.01644589	0.5879291	-0.009528061	-0.006691803	-0.1437804	-0.1009795	0	0
23.61435	-0.01673528	0.5877259	-0.01746984	-0.01226972	-0.2396973	-0.1683515	0	0
23.63091	-0.01784021	0.586913	-0.06669384	-0.04906603	-1.485669	-1.110579	0	0
23.64748	-0.01907663	0.5860448	-0.07463047	-0.05240113	-0.2395279	-0.1006537	0	0
23.66433	-0.01905033	0.5860264	0.001561593	-0.001093325	2.280317	1.535567	0	0
23.68062	-0.01905033	0.5860264	0	0	-0.04712898	0.03299663	0	0
23.69734	-0.01905033	0.5860264	0	0	0	0	0	0
23.71375	-0.01902402	0.586008	0.001603534	-0.001126323	0.04839752	-0.03399444	0	0
23.73037	-0.01899771	0.5859895	0.001583103	-0.001111972	-0.0006186997	0.0004345754	0	0
23.74688	-0.01897141	0.585971	0.001592793	-0.001118778	0.0002924565	-0.0002054205	0	0
23.76345	-0.01899771	0.5859525	-0.001587842	-0.0011153	-0.09614116	0.0001051198	0	0
23.78002	-0.01899771	0.5859525	0	0	0.04792115	0.03365983	0	0
23.79658	-0.01897141	0.585934	0.001587842	-0.0011153	0.04792115	-0.03365983	0	0
23.81343	-0.01899771	0.5859156	-0.00156177	-0.001093449	-0.09426863	0.0006540138	0	0
23.82972	-0.01899771	0.5859156	0	0	0.04713703	0.03300226	0	0
23.84887	-0.01899771	0.5858787	0	-0.001929012	0	-0.0544209	0	0
23.86546	-0.01899771	0.5858787	0	0	0	0.053965	0	0
23.88201	-0.0189188	0.5858233	0.004769565	-0.003346542	0.1439458	-0.1009988	0	0
23.89857	-0.01886618	0.5857494	0.003175683	-0.004461202	-0.04813392	-0.03366182	0	0
23.91514	-0.01883988	0.5857309	0.001587954	-0.0011153	-0.04791776	0.1009795	0	0
23.93201	-0.01878726	0.5856571	0.003119302	-0.004378463	0.04580223	-0.09760038	0	0
23.94827	-0.01873465	0.5855832	0.00323452	-0.004540191	0.00347749	-0.004881239	0	0
23.96484	-0.01868204	0.5854724	0.003175796	-0.006688205	-0.00178857	-0.06542221	0	0
23.98154	-0.01862942	0.5853617	0.003149936	-0.00663041	-0.0007772806	0.001737159	0	0
23.99806	-0.01860312	0.5852693	0.001593273	-0.005591573	-0.04686685	0.03127654	0	0
24.01457	-0.01876096	0.5849001	-0.009558085	-0.0223601	-0.3376566	-0.5077412	0	0
24.03111	-0.01907663	0.5844201	-0.01908717	-0.02902275	-0.2883021	-0.201578	0	0
24.04768	-0.02023408	0.5834234	-0.06986368	-0.06015787	-1.533762	-0.9404719	0	0
24.06424	-0.02391649	0.580804	-0.2222708	-0.15811	-4.599658	-2.956203	0	0
24.08081	-0.03490687	0.5708968	-0.6633804	-0.5979989	-13.31271	-13.27587	0	0
24.09738	-0.03729848	0.5583572	-0.1443581	-0.7568897	15.66412	-4.795333	0	0
24.11395	-0.03737732	0.5548211	-0.00475869	-0.2134397	4.213119	16.40135	0	0
24.13051	-0.03947948	0.5370579	-0.1268863	-1.072192	-3.68582	-25.91721	0	0
24.14708	-0.04299979	0.5273294	-0.2124868	-0.5872093	-2.583426	14.63682	0	0
24.16365	-0.05239936	0.5172214	-0.567359	-0.6101233	-10.71006	-0.6915475	0	0
24.18021	-0.06024281	0.5109958	-0.4734313	-0.3757771	2.834741	7.072583	0	0
24.19678	-0.06915271	0.5049044	-0.5378031	-0.367675	-1.942742	0.2445224	0	0
24.22992	-0.08847892	0.4915666	-0.583266	-0.4025362	-0.9147155	-0.7014095	0	0
24.24648	-0.09836572	0.4846833	-0.596769	-0.41548	-0.2716812	-0.2604293	0	0
24.26305	-0.1053454	0.479846	-0.4212944	-0.2919803	5.295833	3.72723	0	0
24.27962	-0.1077391	0.4782223	-0.1444827	-0.09800613	8.354195	5.854151	0	0
24.29618	-0.1167301	0.4719478	-0.5426967	-0.3787291	-12.01812	-8.472236	0	0
24.31275	-0.1245882	0.4664172	-0.474317	-0.3338274	2.063701	1.355134	0	0
24.32932	-0.1305428	0.4622405	-0.359424	-0.2521047	3.467478	2.466398	0	0
24.34589	-0.1381925	0.4567711	-0.4617326	-0.3301362	-3.087679	-2.354995	0	0
24.36245	-0.1441253	0.4520603	-0.358105	-0.2843423	3.127487	1.382062	0	0
24.37902	-0.1497906	0.4467055	-0.3419601	-0.3232195	0.4872532	-1.173317	0	0
24.39559	-0.1556517	0.4386972	-0.3537778	-0.4833784	-0.3566578	-4.833606	0	0
24.41216	-0.1598354	0.4318973	-0.2525238	-0.410445	3.055851	2.201135	0	0
24.42872	-0.1627067	0.4244028	-0.1733159	-0.4523659	2.3905	-1.265175	0	0
24.46505	-0.1708189	0.4096253	-0.2233202	-0.4068087	-0.9453914	0.8613133	0	0
24.48162	-0.176053	0.4060633	-0.3159296	-0.215003	-1.750892	3.626319	0	0
24.49818	-0.1793926	0.4037189	-0.201603	-0.1415227	3.450582	2.217765	0	0
24.51475	-0.1825755	0.4014465	-0.1921195	-0.137164	0.2862282	0.1315555	0	0
24.53145	-0.1827791	0.4013034	-0.01219125	-0.008571887	5.408762	3.865563	0	0
24.54796	-0.1827791	0.4013034	0	0	0.3670663	0.2580909	0	0
24.56445	-0.1827537	0.4012855	0.001542619	-0.001086249	0.04674198	-0.0329138	0	0
24.58103	-0.1827282	0.4012676	0.001535353	-0.001078702	-0.0002197421	0.0002282446	0	0
24.59758	-0.1827282	0.4012676	0	0	-0.04633703	0.0325553	0	0
24.66103	-0.1827282	0.4012676	0	0	0	0	0	0
24.67806	-0.1827282	0.4012676	0	0	0	0	0	0
24.69416	-0.1827282	0.4012676	0	0	0	0	0	0
24.71073	-0.1827282	0.4012676	0	0	0	0	0	0
24.7273	-0.1827282	0.4012676	0	0	0	0	0	0
24.79357	-0.1827282	0.4012676	0	0	0	0	0	0
24.81015	-0.1827282	0.4012676	0	0	0	0	0	0
24.8267	-0.1827282	0.4012676	0	0	0	0	0	0
24.84327	-0.1827282	0.4012676	0	0	0	0	0	0
24.85983	-0.1827282	0.4012676	0	0	0	0	0	0
24.8764	-0.1827282	0.4012676	0	0	0	0	0	0
24.89321	-0.1827282	0.4012676	0	0	0	0	0	0
24.90953	-0.1827282	0.4012676	0	0	0	0	0	0
24.92623	-0.1826519	0.4012497	0.004571495	-0.001070817	0.1384302	-0.03242557	0	0
24.94267	-0.1825755	0.401196	0.004645613	-0.00326571	0.002236911	-0.06624202	0	0
24.95923	-0.1822447	0.4009634	0.01997247	-0.01404181	0.464437	-0.3265391	0	0
24.9758	-0.1812519	0.4002657	0.05992401	-0.04211519	1.205809	-0.8473049	0	0
24.99237	-0.1765376	0.3969563	0.2845536	-0.1997557	6.779335	-4.757601	0	0
25.00893	-0.1660362	0.3896063	0.6338685	-0.4436468	10.54234	-7.360646	0	0
25.05882	-0.1409796	0.3721447	0.5022317	-0.3499983	-1.980758	1.409142	0	0
25.09177	-0.118443	0.356622	0.6841325	-0.4712162	2.196012	-1.463413	0	0
25.10836	-0.1113532	0.3517465	0.427299	-0.2938466	-5.18501	3.580775	0	0
25.1249	-0.1100015	0.3507821	0.0817218	-0.05830367	-10.43014	7.10911	0	0
25.14147	-0.1092995	0.3503	0.04237377	-0.02910215	-1.188484	0.8820144	0	0
25.15803	-0.1084673	0.3497285	0.05022945	-0.03449336	0.2370847	-0.1627073	0	0
25.19117	-0.1069066	0.348657	0.04710233	-0.03233742	-0.06291763	0.04337769	0	0
25.20793	-0.1068806	0.3486392	0.001552188	-0.001065018	-0.9128973	0.6267487	0	0
25.2243	-0.1068286	0.3486034	0.003178066	-0.00218273	0.04907194	-0.03373458	0	0
25.24678	-0.1067245	0.3484963	0.004630219	-0.004766792	0.03738135	-0.066519	0	0
25.26334	-0.1066725	0.3484606	0.00314083	-0.002156847	-0.03814698	0.06684723	0	0
25.27991	-0.1065944	0.348407	0.004711245	-0.003232572	0.04739523	-0.03246545	0	0
25.29648	-0.1065684	0.3483891	0.001570415	-0.001077524	-0.09479044	0.06503949	0	0
25.31305	-0.1064123	0.348282	0.00942294	-0.006468743	0.2369897	-0.1627073	0	0
25.32961	-0.1062302	0.348157	0.0109938	-0.007544468	0.04740879	-0.03246546	0	0
25.34618	-0.1056837	0.3477463	0.03298366	-0.02479205	0.6636553	-0.5205331	0	0
25.36275	-0.1048509	0.3471748	0.05026857	-0.03449157	0.5216596	-0.2927319	0	0
25.37931	-0.1042783	0.3467819	0.03456442	-0.02371453	-0.4739522	0.3252517	0	0
25.39588	-0.1042783	0.3467819	0	0	-1.043156	0.7157058	0	0
25.41245	-0.1042522	0.3467284	0.001571315	-0.003232572	0.04742237	-0.09755923	0	0
25.42909	-0.1042262	0.3466748	0.001564291	-0.003219914	-0.0002115004	0.0003811796	0	0
25.4456	-0.1042002	0.3466569	0.001576578	-0.001081134	0.0003706212	0.06451138	0	0
25.46215	-0.1041741	0.3465319	0.001573126	-0.007554965	-0.0001044355	-0.1958202	0	0
25.47872	-0.1041741	0.3465319	0	0	-0.04750711	0.2281538	0	0
25.49528	-0.1042002	0.3465141	-0.001571315	-0.001077524	-0.04742509	-0.03252162	0	0
25.51215	-0.1042002	0.3464784	0	-0.002116787	0.04699763	-0.0310841	0	0
25.52842	-0.1042002	0.3464784	0	0	0	0.06388476	0	0
25.54517	-0.1042262	0.3464605	-0.001553607	-0.001065381	-0.04704502	-0.03226098	0	0
25.56168	-0.1042262	0.3464248	0	-0.002164322	0.04670246	-0.03303489	0	0
25.57812	-0.1042522	0.3463712	-0.001584264	-0.003259214	-0.0480928	-0.03323712	0	0
25.59471	-0.1042522	0.3463355	0	-0.002153624	0.04797336	0.03347854	0	0
25.61125	-0.1042783	0.3462105	-0.001573851	-0.007556648	-0.04750166	-0.163073	0	0
25.62782	-0.1042783	0.3461748	0	-0.002156847	0.04753723	0.1630978	0	0
25.64438	-0.1042002	0.3460498	0.004713943	-0.007544468	0.1422671	-0.1625987	0	0
25.66125	-0.104018	0.3458534	0.01079981	-0.01164191	0.1819957	-0.1225326	0	0
25.67777	-0.1039659	0.3458177	0.003153156	-0.002162267	-0.2290494	0.283955	0	0
25.69408	-0.1039659	0.3458177	0	0	-0.09605265	0.06586781	0	0
25.71065	-0.1039659	0.3458177	0	0	0	0	0	0
25.72722	-0.10407	0.3458891	-0.006285258	0.004310097	-0.1896895	0.130079	0	0
25.74381	-0.1041221	0.3459605	-0.003136851	0.004303968	0.09493169	-0.0001848044	0	0
25.76035	-0.1042783	0.3460676	-0.009445924	0.006479626	-0.1904192	0.06566527	0	0
25.77692	-0.1046687	0.3463355	-0.02356702	0.01616826	-0.4265929	0.2926899	0	0
25.79348	-0.1052413	0.3467284	-0.03456172	0.02371453	-0.3318208	0.2277468	0	0
25.81005	-0.1057358	0.3470677	-0.02984553	0.02047836	0.142335	-0.09766778	0	0
25.83088	-0.1065164	0.3476034	-0.03747203	0.02571787	-0.203921	0.1400967	0	0
25.84745	-0.1090915	0.3493713	-0.1554333	0.1067109	-3.154105	2.165629	0	0
25.86402	-0.1148866	0.3533537	-0.3497938	0.2403796	-5.86581	4.034131	0	0
25.88058	-0.1200256	0.3568899	-0.310188	0.2134415	1.195304	-0.8129933	0	0
25.89742	-0.1232666	0.3591224	-0.1924606	0.1325709	3.524013	-2.420753	0	0
25.91372	-0.1271524	0.3618015	-0.2384733	0.1644219	-1.388667	0.961264	0	0
25.93029	-0.1275408	0.3620695	-0.023442	0.01617186	6.543521	-4.511331	0	0
25.94685	-0.1275149	0.3620159	0.00156232	-0.003234371	0.7546318	-0.5856811	0	0
25.96347	-0.1275149	0.3620159	0	0	-0.04707775	0.09746204	0	0
25.97999	-0.127489	0.361998	0.001567373	-0.001082814	0.04730612	-0.03268126	0	0
25.99655	-0.127489	0.361998	0	0	-0.04737977	0.03273214	0	0
26.01312	-0.1274631	0.3619801	0.00156322	-0.001077524	0.04717806	-0.03251974	0	0
26.04626	-0.1274113	0.3619444	0.00156277	-0.001078424	-9.048231E-06	-1.809646E-05	0	0
26.06282	-0.1273336	0.3618551	0.004688759	-0.00538942	0.06289503	-0.08673742	0	0
26.07956	-0.1273077	0.3618015	0.001546651	-0.003201932	-0.09435108	0.06568578	0	0
26.09607	-0.1273077	0.3617658	0	-0.002164322	-0.04652268	0.03121091	0	0
26.11258	-0.1272818	0.361748	0.001568456	-0.001081134	0.04749741	0.0328021	0	0
26.12909	-0.1272301	0.3617122	0.003136372	-0.002164322	0.04748106	-0.0328021	0	0
26.14566	-0.1272301	0.3617122	0	0	-0.09481964	0.06543238	0	0
26.16222	-0.1272042	0.3616944	0.00156232	-0.001077524	0.04715092	-0.03251974	0	0
26.17879	-0.1271783	0.3616765	0.00156322	-0.001079323	2.714469E-05	-5.428939E-05	0	0
26.19536	-0.1271783	0.3616765	0	0	-0.04717806	0.03257403	0	0
26.21193	-0.1271783	0.3616765	0	0	0	0	0	0
26.22866	-0.1271783	0.3616765	0	0	0	0	0	0
26.24518	-0.1271524	0.3616586	0.001568456	-0.001081134	0.04717047	-0.03251451	0	0
26.26169	-0.1271006	0.3616229	0.00313601	-0.002164072	0.04746734	-0.03279264	0	0
26.2782	-0.1269711	0.3615336	0.007840476	-0.005407474	0.1424567	-0.09821395	0	0
26.29476	-0.1269452	0.36148	0.00156394	-0.003235862	-0.1897868	0.06566411	0	0
26.31133	-0.1269193	0.3614621	0.00156322	-0.001079323	-2.173903E-05	0.06509946	0	0
26.32789	-0.1268935	0.3614443	0.0015625	-0.001077648	-2.171771E-05	5.054699E-05	0	0
26.34446	-0.1269193	0.3614264	-0.00156232	-0.001077524	-0.09431268	3.745523E-06	0	0
26.36103	-0.1268935	0.3614086	0.00156232	-0.001079323	0.09430183	-5.428939E-05	0	0
26.37759	-0.1268935	0.3613729	0	-0.002155048	-0.04715092	-0.03246545	0	0
26.39416	-0.1268676	0.361355	0.00156322	-0.001079323	0.04717806	0.03246545	0	0
26.41073	-0.1269193	0.3613193	-0.00312554	-0.002155048	-0.141507	-0.03246545	0	0
26.4273	-0.1268935	0.3613014	0.00156232	-0.001079323	0.1414799	0.03246545	0	0
26.46398	-0.1269193	0.3613193	-0.0007056111	0.0004874688	-0.04259077	0.02942367	0	0
26.48055	-0.1269193	0.3613193	0	0	0.0132506	-0.009154126	0	0
26.49711	-0.1269193	0.3613193	0	0	0	0	0	0
26.51368	-0.1269193	0.3613193	0	0	0	0	0	0
26.53025	-0.1269452	0.3613371	-0.00156322	0.001077524	-0.04717806	0.03251974	0	0
26.54681	-0.1269452	0.3613371	0	0	0.04717806	-0.03251974	0	0
26.56338	-0.1269711	0.361355	-0.00156322	0.001077524	-0.04717806	0.03251974	0	0
26.57995	-0.126997	0.3613729	-0.0015625	0.001079447	2.171771E-05	5.804506E-05	0	0
26.59651	-0.126997	0.3613729	0	0	0.04715906	-0.03257966	0	0
26.61308	-0.1270229	0.3613907	-0.00156322	0.001077524	-0.04717806	0.03251974	0	0
26.62996	-0.1270488	0.3614086	-0.001534772	0.001057915	0.0008506768	-0.0005863664	0	0
26.64621	-0.1270488	0.3614086	0	0	0.04632217	-0.03192978	0	0
26.66298	-0.1270747	0.3614264	-0.00154366	0.001066432	-0.04674111	0.03229092	0	0
26.67935	-0.1270747	0.3614264	0	0	0.04658774	-0.03218497	0	0
26.69592	-0.1271006	0.3614443	-0.00156322	0.001077524	-0.04746495	0.0327175	0	0
26.71249	-0.1271265	0.3614621	-0.00156268	0.001077152	1.628892E-05	-1.122696E-05	0	0
26.72905	-0.1271265	0.3614621	0	0	0.04716448	-0.03251038	0	0
26.74561	-0.1271265	0.3614621	0	0	0	0	0	0
26.76218	-0.1271265	0.3614621	0	0	0	0	0	0
26.78989	-0.1271265	0.3614621	0	0	0	0	0	0
26.80646	-0.1271265	0.3614621	0	0	0	0	0	0
26.82302	-0.1271265	0.3614621	0	0	0	0	0	0
26.83959	-0.1271265	0.3614621	0	0	0	0	0	0
26.85616	-0.1271265	0.3614621	0	0	0	0	0	0
26.87272	-0.1271006	0.3614443	0.00156322	-0.001077524	0.04717806	-0.03251974	0	0
26.88929	-0.1271006	0.3614443	0	0	-0.04717534	0.03251787	0	0
26.90615	-0.1271006	0.3614443	0	0	0	0	0	0
26.92243	-0.1271006	0.3614443	0	0	0	0	0	0
26.93899	-0.1271006	0.3614443	0	0	0	0	0	0
26.95556	-0.1271006	0.3614443	0	0	0	0	0	0
26.97213	-0.1271006	0.3614443	0	0	0	0	0	0
26.98869	-0.1271006	0.3614443	0	0	0	0	0	0
27.00526	-0.1271265	0.3614621	-0.00156322	0.001077524	-0.04717806	0.03251974	0	0
27.02487	-0.1271006	0.3614443	0.001320958	-0.0009105336	0.07973317	-0.05495992	0	0
27.04143	-0.1271006	0.3614443	0	0	-0.03651792	0.02517173	0	0
27.058	-0.1271006	0.3614443	0	0	0	0	0	0
27.07478	-0.1271006	0.3614443	0	0	0	0	0	0
27.09114	-0.1271006	0.3614443	0	0	0	0	0	0
27.1077	-0.1271006	0.3614443	0	0	0	0	0	0
27.12427	-0.1271006	0.3614443	0	0	0	0	0	0
27.14084	-0.1271006	0.3614443	0	0	0	0	0	0
27.1574	-0.1271006	0.3614443	0	0	0	0	0	0
27.17397	-0.1271265	0.3614264	-0.00156322	-0.001077524	-0.04717806	-0.03251974	0	0
27.19054	-0.1271265	0.3614264	0	0	0.04717806	0.03251974	0	0
27.20711	-0.1271265	0.3614264	0	0	0	0	0	0
27.22367	-0.1271265	0.3614264	0	0	0	0	0	0
27.24024	-0.1271265	0.3614264	0	0	0	0	0	0
27.27337	-0.1271265	0.3614264	0	0	0	0	0	0
27.28994	-0.1271265	0.3614264	0	0	0	0	0	0
27.30651	-0.1271265	0.3614264	0	0	0	0	0	0
27.32308	-0.1271265	0.3614264	0	0	0	0	0	0
27.33997	-0.1271265	0.3614264	0	0	0	0	0	0
27.35621	-0.1271265	0.3614264	0	0	0	0	0	0
27.37299	-0.1271265	0.3614264	0	0	0	0	0	0
27.38934	-0.1271265	0.3614264	0	0	0	0	0	0
27.40591	-0.1271265	0.3614264	0	0	0	0	0	0
27.42248	-0.1271265	0.3614264	0	0	0	0	0	0
27.43905	-0.1271265	0.3614264	0	0	0	0	0	0
27.45561	-0.1271265	0.3614264	0	0	0	0	0	0
27.47218	-0.1271265	0.3614264	0	0	0	0	0	0
27.48874	-0.1271265	0.3614264	0	0	0	0	0	0
27.50531	-0.1271265	0.3614264	0	0	0	0	0	0
27.5221	-0.1271265	0.3614264	0	0	0	0	0	0
27.53844	-0.1271265	0.3614264	0	0	0	0	0	0
27.55501	-0.1271265	0.3614264	0	0	0	0	0	0
27.57158	-0.1271265	0.3614264	0	0	0	0	0	0
27.58815	-0.1271265	0.3614264	0	0	0	0	0	0
27.60755	-0.1271265	0.3614264	0	0	0	0	0	0
27.62417	-0.1271265	0.3614264	0	0	0	0	0	0
27.64069	-0.1271265	0.3614264	0	0	0	0	0	0
27.65726	-0.1271265	0.3614264	0	0	0	0	0	0
27.67382	-0.1271265	0.3614264	0	0	0	0	0	0
27.69039	-0.1271265	0.3614264	0	0	0	0	0	0
27.70696	-0.1271524	0.3614443	-0.00156232	0.001077524	-0.04715092	0.03251974	0	0
27.72352	-0.1271265	0.3614264	0.00156232	-0.001077524	0.09430183	-0.06503949	0	0
27.74009	-0.1271265	0.3614264	0	0	-0.04715363	0.03252162	0	0
27.75666	-0.1271265	0.3614264	0	0	0	0	0	0
27.77328	-0.1271265	0.3614264	0	0	0	0	0	0
27.78979	-0.1271265	0.3614264	0	0	0	0	0	0
27.80636	-0.1271265	0.3614264	0	0	0	0	0	0
27.82292	-0.1271524	0.3614086	-0.00156232	-0.001079323	-0.04715092	-0.03257403	0	0
27.83983	-0.1271524	0.3614086	0	0	0.04667801	0.03224733	0	0
27.87262	-0.1271524	0.3614086	0	0	0	0	0	0
27.88936	-0.1271524	0.3614086	0	0	0	0	0	0
27.92233	-0.1271783	0.3613907	-0.0007857257	-0.0005415992	-0.01580883	-0.010897	0	0
27.9389	-0.1272042	0.3613729	-0.0015625	-0.001077028	-0.01568109	-0.01080894	0	0
27.95546	-0.1272042	0.3613371	0	-0.002157592	0.04715363	-0.03260962	0	0
27.97203	-0.1272042	0.3613371	0	0	0	0.06513127	0	0
27.98859	-0.1272301	0.3613193	-0.00156232	-0.001077524	-0.04715363	-0.03252162	0	0
28.00516	-0.127256	0.3613014	-0.0015634	-0.001079447	-3.257832E-05	-5.804506E-05	0	0
28.02173	-0.1272818	0.3612835	-0.00156232	-0.001077524	3.257832E-05	5.804506E-05	0	0
28.03847	-0.1272818	0.3612835	0	0	0.04690253	0.03234843	0	0
28.05486	-0.1272818	0.3612835	0	0	0	0	0	0
28.0715	-0.1273077	0.3613014	-0.001556946	0.0010732	-0.0471434	0.03249586	0	0
28.088	-0.1273077	0.3613014	0	0	0.04698872	-0.03238923	0	0
28.10456	-0.1273077	0.3613014	0	0	0	0	0	0
28.12113	-0.1273077	0.3613014	0	0	0	0	0	0
28.13769	-0.1273077	0.3613014	0	0	0	0	0	0
28.15426	-0.1273077	0.3613014	0	0	0	0	0	0
28.17083	-0.1273077	0.3613014	0	0	0	0	0	0
28.18757	-0.1273077	0.3613014	0	0	0	0	0	0
28.20409	-0.1273077	0.3613014	0	0	0	0	0	0
28.22053	-0.1273336	0.3612835	-0.001574647	-0.001086026	-0.04778703	-0.03295847	0	0
28.23711	-0.1273336	0.3612835	0	0	0.04768215	0.03288614	0	0
28.25366	-0.1273077	0.3613014	0.001564121	0.001078766	0.04720526	0.03255723	0	0
28.27023	-0.1273077	0.3613014	0	0	-0.04723517	-0.03257786	0	0
28.29076	-0.1273077	0.3613014	0	0	0	0	0	0
28.30732	-0.1273336	0.3612835	-0.00156232	-0.001077524	-0.0421134	-0.0290454	0	0
28.32389	-0.1273336	0.3612835	0	0	0.04715092	0.03251974	0	0
28.34046	-0.1273336	0.3612835	0	0	0	0	0	0
28.35719	-0.1273336	0.3612835	0	0	0	0	0	0
28.3737	-0.1273336	0.3612835	0	0	0	0	0	0
28.39022	-0.1273336	0.3612835	0	0	0	0	0	0
28.40673	-0.1273336	0.3612835	0	0	0	0	0	0
28.42329	-0.1273336	0.3612478	0	-0.002157344	0	-0.06522516	0	0
28.43986	-0.1273854	0.3612121	-0.003126439	-0.002155048	-0.09436698	6.929265E-05	0	0
28.45643	-0.1274631	0.3611585	-0.00468786	-0.003234371	-0.04712376	-0.03257403	0	0
28.47328	-0.1287315	0.3602833	-0.07524592	-0.05191892	-2.110976	-1.456558	0	0
28.48979	-0.1343179	0.3564612	-0.3384445	-0.2315548	-7.888855	-5.384228	0	0
28.50613	-0.1435067	0.3501035	-0.5624681	-0.3891747	-6.821121	-4.799247	0	0
28.52281	-0.1497906	0.3457819	-0.3766111	-0.2590021	5.62829	3.942006	0	0
28.53926	-0.1549325	0.3422105	-0.3126332	-0.2171482	1.930968	1.263225	0	0
28.55583	-0.1586809	0.339639	-0.226254	-0.155212	2.616418	1.87604	0	0
28.57285	-0.1614252	0.3377283	-0.1612269	-0.1122552	1.935997	1.278918	0	0
28.58896	-0.1623479	0.3370855	-0.05727348	-0.03990137	3.137502	2.183769	0	0
28.60637	-0.1622711	0.337139	0.004415017	0.003077418	1.840153	1.282047	0	0
28.62209	-0.1622711	0.337139	0	0	-0.1332455	-0.09287667	0	0
28.63867	-0.1622711	0.337139	0	0	0	0	0	0
28.65541	-0.1622711	0.337139	0	0	0	0	0	0
28.67192	-0.1622711	0.337139	0	0	0	0	0	0
28.68836	-0.1622711	0.337139	0	0	0	0	0	0
28.74605	-0.1623223	0.3371747	-0.0008883477	0.0006189244	-0.01198379	0.008349276	0	0
28.79575	-0.1623223	0.3371747	0	0	0.008272354	-0.005763466	0	0
28.81231	-0.1623479	0.3371926	-0.001547208	0.001077648	-0.02334808	0.01626221	0	0
28.82903	-0.1623479	0.3371926	0	0	0.04649143	-0.03238182	0	0
28.84554	-0.1623479	0.3371926	0	0	0	0	0	0
28.86201	-0.1623479	0.3371926	0	0	0	0	0	0
28.87858	-0.1623479	0.3371926	0	0	0	0	0	0
28.89557	-0.1623479	0.3371926	0	0	0	0	0	0
28.91171	-0.1623479	0.3371926	0	0	0	0	0	0
28.9286	-0.1623479	0.3371926	0	0	0	0	0	0
28.94511	-0.1623479	0.3371926	0	0	0	0	0	0
28.96162	-0.1623479	0.3371926	0	0	0	0	0	0
28.99865	-0.1623479	0.3371926	0	0	0	0	0	0
29.01509	-0.1623479	0.3371926	0	0	0	0	0	0
29.03166	-0.1623479	0.3371926	0	0	0	0	0	0
29.04823	-0.1623479	0.3371926	0	0	0	0	0	0
29.06479	-0.1623479	0.3371926	0	0	0	0	0	0
29.08136	-0.1623479	0.3371926	0	0	0	0	0	0
29.09793	-0.1623479	0.3371926	0	0	0	0	0	0
29.11449	-0.1623479	0.3371926	0	0	0	0	0	0
29.13106	-0.1623479	0.3371926	0	0	0	0	0	0
29.14763	-0.1623479	0.3371926	0	0	0	0	0	0
29.16477	-0.1623479	0.3371926	0	0	0	0	0	0
29.18076	-0.1623479	0.3371926	0	0	0	0	0	0
29.19733	-0.1623479	0.3371926	0	0	0	0	0	0
29.2139	-0.1623479	0.3371926	0	0	0	0	0	0
29.23046	-0.1623479	0.3371926	0	0	0	0	0	0
29.24703	-0.1623479	0.3371926	0	0	0	0	0	0
29.26384	-0.1623479	0.3371926	0	0	0	0	0	0
29.28016	-0.1623479	0.3371926	0	0	0	0	0	0
29.29673	-0.1623479	0.3371926	0	0	0	0	0	0
29.31338	-0.1623479	0.3371926	0	0	0	0	0	0
29.32986	-0.1623479	0.3371926	0	0	0	0	0	0
29.34643	-0.1623479	0.3371926	0	0	0	0	0	0
29.363	-0.1623479	0.3371926	0	0	0	0	0	0
29.37957	-0.1623223	0.3371747	0.00154703	-0.001077524	0.04668945	-0.03251974	0	0
29.39613	-0.1623223	0.3371747	0	0	-0.04668945	0.03251974	0	0
29.4127	-0.1623223	0.3371747	0	0	0	0	0	0
29.42946	-0.1623223	0.3371747	0	0	0	0	0	0
29.44584	-0.1623223	0.3371747	0	0	0	0	0	0
29.46248	-0.1623223	0.3371747	0	0	0	0	0	0
29.479	-0.1623223	0.3371747	0	0	0	0	0	0
29.49553	-0.1623223	0.3371747	0	0	0	0	0	0
29.5121	-0.1623223	0.3371747	0	0	0	0	0	0
29.52867	-0.1623223	0.3371747	0	0	0	0	0	0
29.54524	-0.1623223	0.3371747	0	0	0	0	0	0
29.5618	-0.1623223	0.3371747	0	0	0	0	0	0
29.57837	-0.1623223	0.3371747	0	0	0	0	0	0
29.59494	-0.1623223	0.3371747	0	0	0	0	0	0
29.61403	-0.1623223	0.3371747	0	0	0	0	0	0
29.6306	-0.1623223	0.3371747	0	0	0	0	0	0
29.68029	-0.1623223	0.3371747	0	0	0	0	0	0
29.69686	-0.1623223	0.3371747	0	0	0	0	0	0
29.71343	-0.1623223	0.3371747	0	0	0	0	0	0
29.73	-0.1623223	0.3371747	0	0	0	0	0	0
29.74656	-0.1623223	0.3371747	0	0	0	0	0	0
29.76313	-0.1623479	0.3371569	-0.00154703	-0.001077524	-0.04668945	-0.03251974	0	0
29.7797	-0.1623479	0.3371569	0	0	0.04668945	0.03251974	0	0
29.79626	-0.1623223	0.337139	0.001547208	-0.001077648	0.04669751	-0.03252536	0	0
29.81324	-0.1623223	0.337139	0	0	-0.04613185	0.03213137	0	0
29.8294	-0.1623223	0.337139	0	0	0	0	0	0
29.84596	-0.1623223	0.337139	0	0	0	0	0	0
29.86253	-0.1623223	0.337139	0	0	0	0	0	0
29.8791	-0.1623223	0.337139	0	0	0	0	0	0
29.89567	-0.1622967	0.3371212	0.00154703	-0.001079323	0.04668945	-0.03257403	0	0
29.91223	-0.1622967	0.3371212	0	0	-0.04669214	0.03257591	0	0
29.92882	-0.1622967	0.3370855	0	-0.002152075	0	-0.06490866	0	0
29.94536	-0.1622967	0.3370855	0	0	0	0.0649535	0	0
29.96193	-0.1622967	0.3370855	0	0	0	0	0	0
29.9785	-0.1622967	0.3370855	0	0	0	0	0	0
29.99507	-0.1622967	0.3370855	0	0	0	0	0	0
30.01163	-0.1622967	0.3370855	0	0	0	0	0	0
30.0282	-0.1622967	0.3370855	0	0	0	0	0	0
30.04477	-0.1622967	0.3370855	0	0	0	0	0	0
30.06133	-0.1622967	0.3370855	0	0	0	0	0	0
30.07793	-0.1622967	0.3370855	0	0	0	0	0	0
30.09447	-0.1622967	0.3370855	0	0	0	0	0	0
30.11104	-0.1622967	0.3370855	0	0	0	0	0	0
30.12797	-0.1622967	0.3370855	0	0	0	0	0	0
30.14417	-0.1622967	0.3370855	0	0	0	0	0	0
30.16099	-0.1622967	0.3370855	0	0	0	0	0	0
30.1773	-0.1622967	0.3370855	0	0	0	0	0	0
30.19387	-0.1622967	0.3370855	0	0	0	0	0	0
30.21052	-0.1622967	0.3370855	0	0	0	0	0	0
30.22704	-0.1622967	0.3370855	0	0	0	0	0	0
30.24357	-0.1622967	0.3370855	0	0	0	0	0	0
30.26014	-0.1622967	0.3370855	0	0	0	0	0	0
30.27974	-0.1622967	0.3370855	0	0	0	0	0	0
30.2963	-0.1622967	0.3370855	0	0	0	0	0	0
30.3131	-0.1623223	0.3370676	-0.001526468	-0.001063203	-0.04576071	-0.03187286	0	0
30.32944	-0.1623223	0.3370676	0	0	0.04607156	0.03208937	0	0
30.346	-0.1623223	0.3370676	0	0	0	0	0	0
30.36257	-0.1623223	0.3370676	0	0	0	0	0	0
30.37914	-0.1623223	0.3370676	0	0	0	0	0	0
30.3957	-0.1623223	0.3370676	0	0	0	0	0	0
30.41227	-0.1623223	0.3370676	0	0	0	0	0	0
30.42884	-0.1623223	0.3370676	0	0	0	0	0	0
30.44541	-0.1622967	0.3370498	0.00154703	-0.001077524	0.04668945	-0.03251974	0	0
30.46197	-0.1622967	0.3370498	0	0	-0.04668945	0.03251974	0	0
30.47854	-0.1622967	0.3370498	0	0	0	0	0	0
30.49511	-0.1622967	0.3370498	0	0	0	0	0	0
30.51167	-0.1622967	0.3370498	0	0	0	0	0	0
30.52825	-0.1622967	0.3370498	0	0	0	0	0	0
30.54481	-0.1622967	0.3370498	0	0	0	0	0	0
30.56137	-0.1622967	0.3370498	0	0	0	0	0	0
30.57829	-0.1622967	0.3370498	0	0	0	0	0	0
30.59451	-0.1622967	0.3370498	0	0	0	0	0	0
30.61107	-0.1622711	0.3370676	0.00154613	0.001077524	0.0471536	0.03286214	0	0
30.62764	-0.1622711	0.3370676	0	0	-0.0466623	-0.03251974	0	0
30.64421	-0.1622711	0.3370676	0	0	0	0	0	0
30.66078	-0.1622711	0.3370676	0	0	0	0	0	0
30.67734	-0.1622711	0.3370676	0	0	0	0	0	0
30.69391	-0.1622454	0.3370498	0.00154703	-0.001077524	0.04668945	-0.03251974	0	0
30.71048	-0.1621685	0.3369962	0.004641089	-0.003234371	0.0933789	-0.06509378	0	0
30.72705	-0.1621173	0.3369605	0.003094059	-0.002155048	-0.04668945	0.03257403	0	0
30.74361	-0.1620404	0.3369426	0.004641089	-0.001077524	0.04668945	0.03251974	0	0
30.76042	-0.1619635	0.3369247	0.004576134	-0.001064011	-0.001946358	0.0004049173	0	0
30.79331	-0.1617072	0.3370676	0.007792567	0.00434365	0.06471974	0.1088107	0	0
30.80995	-0.1614765	0.3371569	0.01386213	0.005364715	0.1225289	0.02061268	0	0
30.82646	-0.1610406	0.337389	0.02639787	0.01405997	0.3781119	0.2622724	0	0
30.86253	-0.1602201	0.3377819	0.02275206	0.01089263	-0.06934355	-0.06024305	0	0
30.8791	-0.1598097	0.3377819	0.02476957	0	0.03833129	-0.2069533	0	0
30.89566	-0.1594762	0.3379069	0.02012758	0.007546267	-0.1400955	0.2277468	0	0
30.91223	-0.1589632	0.3382283	0.03096938	0.01940083	0.3272062	0.3577715	0	0
30.9288	-0.1579367	0.3388354	0.06195494	0.03664662	0.9351462	0.5204788	0	0
30.94537	-0.1571154	0.3393712	0.0495787	0.03233652	-0.3735156	-0.130079	0	0
30.96193	-0.1571154	0.3393712	0	0	-1.496288	-0.9759181	0	0
30.97857	-0.1571154	0.3393712	0	0	0	0	0	0
30.99508	-0.1571154	0.3393712	0	0	0	0	0	0
31.01163	-0.1571154	0.3394069	0	0.002157781	0	0.06527602	0	0
31.02911	-0.1571154	0.3394426	0	0.002044345	0	-0.00333389	0	0
31.04476	-0.157064	0.339514	0.003280355	0.004563558	0.09900701	0.0760344	0	0
31.06133	-0.1568843	0.3397105	0.01084845	0.01185773	0.2348958	0.2263939	0	0
31.0779	-0.156191	0.3402283	0.04184536	0.0312572	0.9355424	0.5855108	0	0
31.09446	-0.1524397	0.3428355	0.2264303	0.1573671	5.570784	3.806004	0	0
31.11117	-0.1401282	0.3515143	0.7370996	0.5196093	15.3493	10.88799	0	0
31.1276	-0.1297925	0.3587652	0.6290028	0.4412707	-3.262367	-2.364265	0	0
31.14417	-0.1246918	0.3623552	0.30788	0.2166957	-9.731277	-6.805501	0	0
31.16073	-0.1167041	0.3679999	0.4821394	0.3407153	5.259159	3.742919	0	0
31.1773	-0.1094295	0.3733597	0.4390951	0.3235127	-1.29908	-0.5191751	0	0
31.19423	-0.09953837	0.380436	0.5843164	0.4180352	4.335618	2.821993	0	0
31.21043	-0.08874001	0.3881938	0.666288	0.4786781	2.473907	1.830207	0	0
31.22725	-0.08090198	0.394345	0.4660225	0.3657256	-6.063921	-3.420135	0	0
31.24357	-0.07564486	0.398763	0.3222549	0.2708169	-4.339165	-2.864516	0	0
31.26027	-0.06430595	0.4114156	0.678714	0.7573496	10.79524	14.73448	0	0
31.2767	-0.06071476	0.4172358	0.2186271	0.3543239	-13.88625	-12.16404	0	0
31.29327	-0.05473475	0.4332246	0.3609542	0.9650893	4.313817	18.51179	0	0
31.30983	-0.05232063	0.4391818	0.1457167	0.3595783	-6.49588	-18.27436	0	0
31.32682	-0.04788442	0.4471725	0.261126	0.4703516	3.439307	3.30115	0	0
31.34297	-0.03750871	0.4580841	0.6427053	0.6758994	11.51675	6.203802	0	0
31.35985	-0.029991	0.4632305	0.445361	0.3048782	-5.975811	-11.23495	0	0
31.3761	-0.02538928	0.4664892	0.2831059	0.2004848	-4.896869	-3.150599	0	0
31.39287	-0.01749821	0.4732996	0.4706167	0.4061629	5.678371	6.228533	0	0
31.40938	-0.01663005	0.4808564	0.05257218	0.4576097	-12.56093	1.545814	0	0
31.4258	-0.01999733	0.4899942	-0.2050678	0.556487	-7.822873	3.002271	0	0
31.44237	-0.024311	0.5054843	-0.2603733	0.9349852	-1.676554	11.47395	0	0
31.45894	-0.02507369	0.5118484	-0.04603628	0.3841419	6.468704	-16.62448	0	0
31.49207	-0.03038538	0.5319543	-0.1603164	0.6068304	-2.299408	4.480673	0	0
31.50895	-0.03159475	0.5370579	-0.07162841	0.3022763	1.773177	-6.089083	0	0
31.52547	-0.03682545	0.5496782	-0.3167835	0.7643164	-7.340903	13.83529	0	0
31.54177	-0.04032024	0.5571293	-0.2143516	0.4570111	3.121408	-9.364515	0	0
31.5621	-0.04554743	0.5662838	-0.2570632	0.4502011	-1.165766	-0.1858723	0	0
31.57867	-0.04961714	0.5733619	-0.2456483	0.427232	0.3093345	-0.6224431	0	0
31.59524	-0.05518077	0.5785918	-0.3358212	0.3156804	-2.721425	-3.366634	0	0
31.61203	-0.05767281	0.5855832	-0.1484379	0.4164394	5.617727	3.020743	0	0
31.62854	-0.05848585	0.5885944	-0.04923964	0.1823633	2.978892	-7.029231	0	0
31.64505	-0.06116047	0.590517	-0.1619995	0.116451	-3.414696	-1.996014	0	0
31.66156	-0.06165859	0.5908684	-0.03016729	0.02127974	3.992263	-2.882063	0	0
31.67807	-0.0616848	0.5908868	-0.001587633	0.001119037	0.8654251	-0.6104897	0	0
31.7116	-0.06252366	0.5915157	-0.0250216	0.01875853	-0.4683292	0.3525264	0	0
31.72777	-0.06310033	0.5922187	-0.03565749	0.04346769	-0.2140109	0.4971873	0	0
31.74462	-0.06441078	0.59344	-0.07778227	0.07249095	-1.275735	0.8789595	0	0
31.7609	-0.07116907	0.5985522	-0.4150027	0.3139238	-10.17792	7.286877	0	0
31.77747	-0.07593267	0.60267	-0.2875317	0.2485501	3.88014	-1.989935	0	0
31.79416	-0.07614198	0.6082803	-0.01254439	0.3362376	8.269619	2.637002	0	0
31.81067	-0.07300162	0.6122991	0.1902095	0.2434186	6.107872	-2.796132	0	0
31.82717	-0.06983363	0.615559	0.1919498	0.1975182	0.05271373	-1.390319	0	0
31.84374	-0.07033117	0.6177778	-0.03003171	0.133926	-6.712165	-1.922869	0	0
31.8607	-0.07040973	0.6178338	-0.004630931	0.003299275	0.7575271	-3.895678	0	0
31.87687	-0.07040973	0.6178338	0	0	0.1397698	-0.09957804	0	0
31.89344	-0.07030499	0.6179084	0.006322135	0.004500777	0.1931259	0.1374878	0	0
31.91	-0.07017406	0.6180016	0.007902893	0.005630468	0.04770739	0.03409416	0	0
31.92657	-0.07006931	0.6180763	0.006322585	0.004504375	-0.04769381	-0.03398558	0	0
31.94314	-0.07006931	0.6180763	0	0	-0.190816	-0.1359423	0	0
31.9597	-0.07001694	0.6180763	0.003161881	0	0.09543125	0	0	0
31.97628	-0.06999075	0.6180576	0.001579218	-0.001125316	-0.04775112	-0.03395234	0	0
31.99329	-0.06991219	0.618039	0.004618389	-0.001096676	0.09047758	0.0008526484	0	0
32.0094	-0.06985982	0.6180016	0.003250892	-0.002316185	-0.04128777	-0.03681971	0	0
32.02597	-0.06980744	0.6179643	0.003161517	-0.002252187	-0.002735117	0.001958519	0	0
32.04283	-0.06978125	0.6179457	0.001553572	-0.001106727	-0.04810696	0.03427022	0	0
32.0591	-0.06928366	0.6175913	0.03057653	-0.02177464	0.8760153	-0.6238308	0	0
32.07585	-0.06810503	0.6167521	0.07036454	-0.05009892	1.204827	-0.8576921	0	0
32.09224	-0.06438457	0.6141429	0.2270773	-0.159255	4.7296	-3.294335	0	0
32.1088	-0.06344107	0.6134723	0.05695003	-0.04047462	-5.162982	3.604718	0	0
32.12537	-0.0612129	0.611964	0.1344922	-0.0910409	2.340227	-1.526093	0	0
32.1585	-0.04686041	0.6018349	0.4331592	-0.3056985	6.009192	-4.318918	0	0
32.17507	-0.04116095	0.5978108	0.3440201	-0.2428945	-1.793483	1.263619	0	0
32.19164	-0.03443375	0.5930699	0.4060544	-0.2861645	1.872199	-1.305893	0	0
32.21147	-0.02602044	0.5871531	0.424216	-0.2983326	0.4989479	-0.3342894	0	0
32.22804	-0.01886618	0.582095	0.4318319	-0.3053081	0.2092279	-0.1916355	0	0
32.24461	-0.01526197	0.5795687	0.2175505	-0.1524904	-6.467023	4.612049	0	0
32.26117	-0.01023648	0.5760496	0.3033391	-0.2124144	2.589103	-1.80851	0	0
32.27774	-0.004078925	0.5717061	0.3716711	-0.2621748	2.062264	-1.501771	0	0
32.29431	0.001894735	0.5674962	0.3605708	-0.254105	-0.3350075	0.2435447	0	0
32.31102	0.005210479	0.5651819	0.1984028	-0.1384815	-4.872922	3.474325	0	0
32.32753	0.006815684	0.5640253	0.09722616	-0.07005618	-3.045452	2.059627	0	0
32.34401	0.007473545	0.5635297	0.03992923	-0.03008147	-1.737024	1.21188	0	0
32.36057	0.007473545	0.5635297	0	0	-1.208405	0.910376	0	0
32.37714	0.007447231	0.563548	-0.001588347	0.001108105	-0.04793642	0.03344267	0	0
32.39371	0.007394602	0.5635114	-0.003176667	-0.002212612	-0.04793558	-0.1002194	0	0
32.41027	0.007341973	0.5634747	-0.003176667	-0.00221621	0	-0.0001085788	0	0
32.42684	0.007289344	0.5634379	-0.003176695	-0.00221621	-8.432211E-07	0	0	0
32.44341	0.007184087	0.5633645	-0.006353362	-0.00443242	-0.095872	-0.06688534	0	0
32.45998	0.007105144	0.5632728	-0.004765015	-0.005536927	0.04793642	-0.03333411	0	0
32.49316	0.006868313	0.5631076	-0.007136882	-0.00497902	-0.0476745	0.01121392	0	0
32.50967	0.006841999	0.5630893	-0.001593484	-0.001108079	0.1115419	0.07788947	0	0
32.52624	0.006841999	0.5630893	0	0	0.04816909	0.03349588	0	0
32.54281	0.006815684	0.5630709	-0.001588347	-0.001108105	-0.04793642	-0.03344267	0	0
32.55938	0.006763055	0.5630709	-0.003176695	0	-0.04793642	0.03344267	0	0
32.57594	0.00673674	0.5630893	-0.001588376	0.001108105	0.04793557	0.03344267	0	0
32.59251	0.006710425	0.5631076	-0.001588347	0.001104507	8.50248E-07	-0.0001085788	0	0
32.60908	0.006710425	0.5631076	0	0	0.04793642	-0.0333341	0	0
32.62564	0.006657796	0.5631076	-0.003176695	0	-0.09587284	0	0	0
32.64221	0.006605167	0.5630709	-0.003176723	-0.002212612	-8.50248E-07	-0.06677677	0	0
32.65878	0.006420964	0.5629424	-0.01111849	-0.007756735	-0.239683	-0.167322	0	0
32.67535	0.006131502	0.5627406	-0.01747196	-0.01218196	-0.1917482	-0.1335535	0	0
32.69191	0.005920983	0.5625938	-0.01270695	-0.008861242	0.1438084	0.1002194	0	0
32.70881	0.005868354	0.5625203	-0.003115039	-0.004346353	0.2866463	0.1349237	0	0
32.72504	0.005868354	0.5625203	0	0	0.0940229	0.1311883	0	0
32.74161	0.005842039	0.562502	-0.001588376	-0.001104507	-0.04842228	-0.03367135	0	0
32.75818	0.005842039	0.562502	0	0	0.04793727	0.0333341	0	0
32.77475	0.005842039	0.562502	0	0	0	0	0	0
32.84302	0.005815724	0.5624837	-0.0003854238	-0.0002688848	-0.004542806	-0.003169216	0	0
32.85959	0.005815724	0.5624837	0	0	0.004542806	0.003169216	0	0
32.88348	0.005815724	0.5624837	0	0	0	0	0	0
32.90005	0.005815724	0.5624837	0	0	0	0	0	0
32.91662	0.005815724	0.5624837	0	0	0	0	0	0
32.93319	0.005815724	0.5624837	0	0	0	0	0	0
33.01603	0.005763094	0.5624102	-0.000635321	-0.0008864432	-0.006391097	-0.008917294	0	0
33.03259	0.005684149	0.5623552	-0.004767294	-0.003322247	-0.04156932	-0.02450518	0	0
33.04915	0.005552575	0.5622635	-0.007941878	-0.005536927	-0.09583122	-0.06685457	0	0
33.06572	0.005210479	0.5619882	-0.02064891	-0.01661438	-0.383499	-0.3343182	0	0
33.08257	0.004868383	0.5617498	-0.02029846	-0.01415021	0.01048615	0.07373214	0	0
33.09885	0.003894717	0.5610343	-0.05980331	-0.04394257	-1.192259	-0.8991351	0	0
33.11542	0.003289462	0.5605758	-0.03653328	-0.02767744	0.7084077	0.495158	0	0
33.13211	0.003289462	0.5605758	0	0	1.09853	0.8322408	0	0
33.14856	0.003289462	0.5605391	0	-0.002229036	0	-0.06727245	0	0
33.16512	0.003263146	0.5605208	-0.001588404	-0.001108105	-0.04811538	0.03395487	0	0
33.19826	0.0031842	0.5604658	-0.002382613	-0.001660359	-0.01597951	-0.01111137	0	0
33.21482	0.003157884	0.5604474	-0.001588404	-0.001108105	0.01597951	0.01111137	0	0
33.23139	0.003105253	0.5604107	-0.003176822	-0.002212612	-0.04793855	-0.0333341	0	0
33.24796	0.003105253	0.5603741	0	-0.002212612	0.09587666	0	0	0
33.26453	0.002999991	0.5603007	-0.006353643	-0.004428822	-0.1917533	-0.06688534	0	0
33.28109	0.002921044	0.5602457	-0.004765225	-0.003320717	0.04793856	0.03344267	0	0
33.29773	0.002789466	0.560154	-0.007907467	-0.005509228	-0.09462606	-0.06590521	0	0
33.31424	0.002184207	0.5597323	-0.03666014	-0.02554586	-0.867358	-0.6044285	0	0
33.3308	0.0003947368	0.5584856	-0.1081122	-0.07531977	-2.161155	-1.505473	0	0
33.34736	-0.003578932	0.5557186	-0.2398511	-0.1670144	-3.97772	-2.768626	0	0
33.36393	-0.0164985	0.5467344	-0.7798268	-0.5422879	-16.2965	-11.32578	0	0
33.3805	-0.02207536	0.5428612	-0.3366198	-0.233785	13.37601	9.310637	0	0
33.39706	-0.03070088	0.5368755	-0.5206372	-0.3612998	-5.553656	-3.848405	0	0
33.41363	-0.04305233	0.5283487	-0.745535	-0.5146788	-6.787427	-4.628987	0	0
33.4302	-0.05268803	0.5216729	-0.5816123	-0.4029509	4.947194	3.371954	0	0
33.44677	-0.06477766	0.5134089	-0.7297317	-0.4988163	-4.47025	-2.893225	0	0
33.46336	-0.07085487	0.5092003	-0.3663149	-0.253679	10.96037	7.393152	0	0
33.4799	-0.07899318	0.5036362	-0.4919087	-0.336314	-3.790429	-2.493929	0	0
33.49647	-0.08915775	0.4966665	-0.6135345	-0.4206967	-3.673209	-2.548437	0	0
33.53848	-0.1099755	0.4823364	-0.4955736	-0.3411321	2.013855	1.358345	0	0
33.55504	-0.1185727	0.4763646	-0.5189291	-0.3604579	-0.3987306	-0.3299348	0	0
33.57161	-0.1244586	0.4722722	-0.3552731	-0.2470175	4.939146	3.42364	0	0
33.58818	-0.1300772	0.4683623	-0.3391345	-0.2359994	0.4870634	0.3325268	0	0
33.60496	-0.1373663	0.4632485	-0.4343707	-0.3047443	-2.855822	-2.061436	0	0
33.62131	-0.1414181	0.4604229	-0.2477621	-0.1727771	5.631859	3.98278	0	0
33.63799	-0.1496105	0.4545592	-0.4912163	-0.3515893	-7.370372	-5.413391	0	0
33.65445	-0.1565762	0.4496161	-0.4232767	-0.300372	2.050421	1.545742	0	0
33.67101	-0.1658058	0.4430775	-0.5570989	-0.3946671	-4.05229	-2.855365	0	0
33.68758	-0.1755938	0.4361669	-0.5908061	-0.4171278	-1.017287	-0.6778662	0	0
33.72104	-0.1865933	0.4283825	-0.3287119	-0.2326303	5.238767	3.687756	0	0
33.73728	-0.192634	0.4241161	-0.3719802	-0.2627235	-0.8705586	-0.6054775	0	0
33.75385	-0.1983316	0.4200841	-0.3439101	-0.2433676	0.8556277	0.5900064	0	0
33.77042	-0.2046218	0.4156238	-0.3796771	-0.2692281	-1.079449	-0.7804738	0	0
33.78701	-0.2043443	0.415785	0.01672593	0.009712644	11.95383	8.41167	0	0
33.80355	-0.2041172	0.4159462	0.01372953	0.009745806	-0.09043156	0.001000819	0	0
33.82012	-0.2041172	0.4159462	0	0	-0.4146923	-0.2943662	0	0
33.83669	-0.204092	0.4159282	0.001522745	-0.001081122	0.04595653	-0.03262833	0	0
33.85325	-0.2040667	0.4159103	0.001523644	-0.001081122	2.714469E-05	0	0	0
33.87016	-0.2038901	0.4157491	0.01045105	-0.009536857	0.2667273	-0.2526351	0	0
33.88639	-0.2034862	0.4154626	0.02487882	-0.01765386	0.435431	-0.2449718	0	0
33.90295	-0.20336	0.415373	0.007618222	-0.005405609	-0.5262575	0.3734364	0	0
33.91952	-0.20336	0.415373	0	0	-0.2299184	0.1631416	0	0
33.93609	-0.2033095	0.4153372	0.003047289	-0.002162244	0.09196735	-0.06525666	0	0
33.95266	-0.2031076	0.4151939	0.01218915	-0.008647176	0.2759021	-0.1957157	0	0
33.96923	-0.2017187	0.414209	0.08381352	-0.05943903	2.161379	-1.532725	0	0
33.98579	-0.1983316	0.4118095	0.2045396	-0.1448993	3.643939	-2.579493	0	0
34.00275	-0.1871523	0.40388	0.6591529	-0.4675375	13.56255	-9.625319	0	0
34.01892	-0.1804625	0.3991744	0.413705	-0.2909977	-7.408485	5.328597	0	0
34.05228	-0.168518	0.3908043	0.358011	-0.250879	-1.124362	0.8099249	0	0
34.06879	-0.1619891	0.3862452	0.3954509	-0.2761397	0.750701	-0.5064985	0	0
34.0853	-0.161015	0.3855659	0.05900351	-0.04114559	-10.1892	7.116717	0	0
34.10175	-0.1610663	0.3856016	-0.003117209	0.002174165	-1.884789	1.314354	0	0
34.11833	-0.1610406	0.3855838	0.001545962	-0.001078578	0.1411899	-0.09848545	0	0
34.13488	-0.161015	0.3855659	0.001549356	-0.001080318	0.0001024526	-5.252115E-05	0	0
34.15145	-0.1609893	0.385548	0.001547929	-0.001079323	-4.308736E-05	3.004305E-05	0	0
34.16801	-0.1609124	0.3854944	0.004642888	-0.00323617	0.09340604	-0.06509378	0	0
34.18458	-0.1608611	0.3854586	0.003094959	-0.002158646	-0.04671659	0.03251974	0	0
34.22137	-0.155472	0.3817407	0.1464896	-0.1010602	2.6875	-1.853611	0	0
34.23794	-0.150511	0.3782915	0.2994456	-0.2081978	2.866697	-2.00797	0	0
34.25451	-0.1457486	0.3749856	0.287457	-0.1995399	-0.3618161	0.2612978	0	0
34.27143	-0.1417018	0.3721804	0.2390373	-0.1656979	-1.4455	1.010303	0	0
34.28764	-0.1398185	0.3708762	0.116242	-0.08050352	-3.706398	2.571467	0	0
34.3042	-0.1398443	0.3708583	-0.001556923	-0.001077524	-3.59491	2.42387	0	0
34.32097	-0.1397927	0.3708226	0.003077894	-0.002131328	0.1390467	-0.03161461	0	0
34.33734	-0.1396895	0.3707154	0.006305895	-0.006548954	0.09742126	-0.1333242	0	0
34.3539	-0.1390443	0.3702688	0.03894467	-0.02695969	0.9909729	-0.6197072	0	0
34.3705	-0.1342146	0.3669281	0.2909873	-0.201272	7.599664	-5.255915	0	0
34.38704	-0.1291974	0.3634627	0.303468	-0.2096072	0.3767118	-0.2515854	0	0
34.4036	-0.1236813	0.3596582	0.3329536	-0.2296404	0.8907997	-0.6052302	0	0
34.42054	-0.1212704	0.3579972	0.1423713	-0.09809008	-5.68891	3.926795	0	0
34.43676	-0.118936	0.3563898	0.1438879	-0.09907529	0.04573755	-0.02971303	0	0
34.4533	-0.1188322	0.3563184	0.006272787	-0.004317861	-4.199646	2.891745	0	0
34.46988	-0.1188322	0.3563184	0	0	-0.1894221	0.1303884	0	0
34.48644	-0.1188322	0.3563184	0	0	0	0	0	0
34.50301	-0.1188322	0.3563184	0	0	0	0	0	0
34.51957	-0.1188322	0.3563184	0	0	0	0	0	0
34.53614	-0.1188322	0.3563184	0	0	0	0	0	0
34.55271	-0.1188322	0.3562826	0	-0.002156847	0	-0.06509378	0	0
34.56928	-0.1188322	0.3562826	0	0	0	0.06508628	0	0
34.58584	-0.1188322	0.3562826	0	0	0	0	0	0
34.60268	-0.1188322	0.3562826	0	0	0	0	0	0
34.61919	-0.1188322	0.3562826	0	0	0	0	0	0
34.63554	-0.1188322	0.3562826	0	0	0	0	0	0
34.65221	-0.1188322	0.3562826	0	0	0	0	0	0
34.66872	-0.1188322	0.3562826	0	0	0	0	0	0
34.68525	-0.1188322	0.3562826	0	0	0	0	0	0
34.70181	-0.1188322	0.3562826	0	0	0	0	0	0
34.71838	-0.1188582	0.3562648	-0.001565918	-0.001077524	-0.04725949	-0.03251974	0	0
34.73495	-0.1188582	0.3562648	0	0	0.04725949	0.03251974	0	0
34.75151	-0.1188582	0.3562648	0	0	0	0	0	0
34.76808	-0.1188582	0.3562648	0	0	0	0	0	0
34.78465	-0.1188582	0.3562648	0	0	0	0	0	0
34.80121	-0.1188841	0.3562469	-0.001565918	-0.001077524	-0.04725949	-0.03251974	0	0
34.81778	-0.1188841	0.3562469	0	0	0.04725949	0.03251974	0	0
34.83434	-0.1188841	0.3562469	0	0	0	0	0	0
34.85091	-0.1189101	0.3562291	-0.001566368	-0.001077524	-0.04727851	-0.03252349	0	0
34.86748	-0.1189101	0.3562291	0	0	0.04727307	0.03251974	0	0
34.93391	-0.1192992	0.3565684	-0.005857917	0.005107845	-0.07057716	0.06154017	0	0
34.95486	-0.1199477	0.3570506	-0.03095554	0.02301643	-0.2872131	0.204943	0	0
34.97143	-0.1205702	0.3574792	-0.03757348	0.02587317	-0.176396	0.07614412	0	0
34.988	-0.1230074	0.3591581	-0.1471081	0.1013358	-3.305762	2.277468	0	0
35.00456	-0.1237331	0.3596582	-0.04380208	0.03018507	3.117783	-2.147335	0	0
35.02113	-0.1237331	0.3596582	0	0	1.321949	-0.9109871	0	0
35.0377	-0.1237331	0.3596939	0	0.002156847	0	0.06509378	0	0
35.05426	-0.123759	0.3597118	-0.001564929	0.001077772	-0.04723509	-0.03257029	0	0
35.07083	-0.1238627	0.3598189	-0.006256476	0.006468743	-0.1416075	0.1627185	0	0
35.08739	-0.1244327	0.3602119	-0.03440972	0.02371812	-0.8496665	0.5205874	0	0
35.10396	-0.1274113	0.3622302	-0.1797873	0.1218268	-4.387506	2.960925	0	0
35.12054	-0.1317068	0.3651953	-0.2590978	0.1788516	-2.392769	1.720418	0	0
35.1371	-0.1367465	0.368643	-0.3044049	0.2082481	-1.36737	0.8871887	0	0
35.15366	-0.1379859	0.3695005	-0.07481508	0.05175894	6.931428	-4.724485	0	0
35.17058	-0.1376761	0.3692147	0.01831726	-0.01689889	2.781598	-2.050614	0	0
35.1868	-0.1376761	0.3692147	0	0	-0.5528161	0.5100096	0	0
35.2036	-0.1377019	0.3691969	-0.001535897	-0.001062358	-0.04650873	-0.03216944	0	0
35.21993	-0.1377278	0.369179	-0.001581297	-0.001094954	-0.001370175	-0.000983758	0	0
35.2365	-0.1377536	0.3691611	-0.001558722	-0.001077524	0.0006861925	0.0005298289	0	0
35.25307	-0.1377794	0.3691432	-0.001558722	-0.001079323	0	-5.428939E-05	0	0
35.26963	-0.1378052	0.3691254	-0.001557823	-0.001077524	2.714469E-05	5.428939E-05	0	0
35.2862	-0.137831	0.3691075	-0.001558722	-0.001077524	-2.714469E-05	0	0	0
35.30277	-0.1378569	0.3690897	-0.001558722	-0.001079323	0	-5.428939E-05	0	0
35.31934	-0.1378569	0.3690897	0	0	0.04704233	0.03257403	0	0
35.3359	-0.1378569	0.3690897	0	0	0	0	0	0
35.35247	-0.1378569	0.3690897	0	0	0	0	0	0
35.36923	-0.1378569	0.3690897	0	0	0	0	0	0
35.3856	-0.1378569	0.3690897	0	0	0	0	0	0
35.40217	-0.1378569	0.3690897	0	0	0	0	0	0
35.41876	-0.1378569	0.3690897	0	0	0	0	0	0
35.43531	-0.137831	0.3690718	0.001560879	-0.001079015	0.04710742	-0.03256473	0	0
35.45187	-0.137831	0.3690718	0	0	-0.04713998	0.03258724	0	0
35.46844	-0.137831	0.3690718	0	0	0	0	0	0
35.48501	-0.1378052	0.3690539	0.001558722	-0.001079323	0.04704233	-0.03257403	0	0
35.50158	-0.1377536	0.3690182	0.003116545	-0.002156847	0.04701519	-0.03251974	0	0
35.51814	-0.1377019	0.3689468	0.003117445	-0.004311895	2.714469E-05	-0.06503949	0	0
35.53471	-0.1376761	0.3688931	0.001558182	-0.003236916	-0.04706407	0.03244669	0	0
35.55127	-0.1376503	0.3688753	0.001558722	-0.001077524	1.631821E-05	0.06517807	0	0
35.65067	-0.1376503	0.3688038	0	-0.0007189767	-0.01344111	0.003091812	0	0
35.66725	-0.1376503	0.3688038	0	0	0	0.006199441	0	0
35.68774	-0.1376503	0.3688038	0	0	0	0	0	0
35.70446	-0.1376761	0.3688217	-0.00154485	0.001067934	-0.04151441	0.02869836	0	0
35.72088	-0.1376761	0.3688217	0	0	0.04662366	-0.03223032	0	0
35.73748	-0.1376761	0.3688217	0	0	0	0	0	0
35.75401	-0.1376761	0.3688217	0	0	0	0	0	0
35.77058	-0.1376761	0.3688217	0	0	0	0	0	0
35.78715	-0.1376761	0.3688217	0	0	0	0	0	0
35.80371	-0.1376761	0.3688217	0	0	0	0	0	0
35.82055	-0.1376761	0.3688217	0	0	0	0	0	0
35.83706	-0.1376761	0.3688217	0	0	0	0	0	0
35.86998	-0.1376761	0.3688217	0	0	0	0	0	0
35.88655	-0.1376761	0.3688217	0	0	0	0	0	0
35.90311	-0.1376503	0.3688038	0.001558722	-0.001077524	0.04704233	-0.03251974	0	0
35.91968	-0.1376761	0.368786	-0.001558722	-0.001077524	-0.09408467	0	0	0
35.93713	-0.1376761	0.368786	0	0	0.04582367	0.0316773	0	0
35.95282	-0.1376761	0.368786	0	0	0	0	0	0
35.96938	-0.1377019	0.3688038	-0.001557823	0.001077524	-0.0482997	0.03340822	0	0
35.98666	-0.1377019	0.3688038	0	0	0.04602434	-0.03183438	0	0
36.00252	-0.1377019	0.3688038	0	0	0	0	0	0
36.01908	-0.1377019	0.3688038	0	0	0	0	0	0
36.0357	-0.1377019	0.3688038	0	0	0	0	0	0
36.05222	-0.1377019	0.3688038	0	0	0	0	0	0
36.06879	-0.1377019	0.3688038	0	0	0	0	0	0
36.08535	-0.1377019	0.3688038	0	0	0	0	0	0
36.10192	-0.1377019	0.3688038	0	0	0	0	0	0
36.11849	-0.1377019	0.3688038	0	0	0	0	0	0
36.13506	-0.1377019	0.3688038	0	0	0	0	0	0
36.15179	-0.1377019	0.3688038	0	0	0	0	0	0
36.1683	-0.1377019	0.3688038	0	0	0	0	0	0
36.18481	-0.1377019	0.3688038	0	0	0	0	0	0
36.20132	-0.1376761	0.368786	0.001562861	-0.001081009	0.04732524	-0.0327342	0	0
36.22836	-0.1376761	0.368786	0	0	-0.03588776	0.02482306	0	0
36.24492	-0.1376761	0.368786	0	0	0	0	0	0
36.26149	-0.1376761	0.368786	0	0	0	0	0	0
36.28341	-0.1376761	0.368786	0	0	0	0	0	0
36.29998	-0.1376761	0.368786	0	0	0	0	0	0
36.31655	-0.1376761	0.368786	0	0	0	0	0	0
36.33311	-0.1376761	0.368786	0	0	0	0	0	0
36.34968	-0.1376761	0.368786	0	0	0	0	0	0
36.36625	-0.1376761	0.368786	0	0	0	0	0	0
36.39946	-0.1376761	0.368786	0	0	0	0	0	0
36.41597	-0.1376761	0.368786	0	0	0	0	0	0
36.43299	-0.1376761	0.368786	0	0	0	0	0	0
36.44909	-0.1376761	0.368786	0	0	0	0	0	0
36.46565	-0.1377019	0.3688038	-0.001557823	0.001077524	-0.04769052	0.03298686	0	0
36.48222	-0.1377019	0.3688038	0	0	0.04701519	-0.03251974	0	0
36.49903	-0.1377019	0.3688038	0	0	0	0	0	0
36.51535	-0.1377019	0.3688038	0	0	0	0	0	0
36.53192	-0.1377019	0.3688038	0	0	0	0	0	0
36.54848	-0.1377278	0.3688217	-0.001558722	0.001077524	-0.04704233	0.03251974	0	0
36.56505	-0.1377278	0.3688217	0	0	0.04704233	-0.03251974	0	0
36.58162	-0.1377278	0.3688217	0	0	0	0	0	0
36.59861	-0.1377278	0.3688217	0	0	0	0	0	0
36.61475	-0.1377278	0.3688217	0	0	0	0	0	0
36.63163	-0.1377278	0.3688217	0	0	0	0	0	0
36.64814	-0.1377278	0.3688217	0	0	0	0	0	0
36.66465	-0.1377019	0.3688038	0.001564125	-0.001081259	0.04736898	-0.03274555	0	0
36.68116	-0.1377019	0.3688038	0	0	-0.04736351	0.03274177	0	0
36.73072	-0.1377019	0.3688038	0	0	0	0	0	0
36.74729	-0.1377019	0.3688038	0	0	0	0	0	0
36.76385	-0.1377019	0.3688038	0	0	0	0	0	0
36.78042	-0.1377019	0.3688038	0	0	0	0	0	0
36.79699	-0.1377019	0.3688038	0	0	0	0	0	0
36.81376	-0.1377019	0.3688038	0	0	0	0	0	0
36.83027	-0.1377019	0.3688038	0	0	0	0	0	0
36.84669	-0.1377019	0.3688038	0	0	0	0	0	0
36.86326	-0.1377019	0.3688038	0	0	0	0	0	0
36.89472	-0.1377019	0.3688038	0	0	0	0	0	0
36.91129	-0.1377019	0.3688038	0	0	0	0	0	0
36.92785	-0.1377019	0.3688038	0	0	0	0	0	0
36.94442	-0.1377019	0.3688038	0	0	0	0	0	0
