Time	Pos X	Pos Y	Vel X	Vel Y	Acc X	Acc YForce X	Force Y
0.01676451	-0.2397459	0.3944523	0.003533379	-0.005813445	-5.208748E-05	8.569919E-05	0	0
0.1324948	-0.239572	0.3942913	0.001502087	-0.00139084	2.998837E-05	-6.52918E-05	0	0
0.1493592	-0.2395472	0.3942735	0.001472058	-0.001060306	-0.0002264711	0.002492818	0	0
0.1656283	-0.2395224	0.3942556	0.001526836	-0.001099102	0.001653269	-0.001170922	0	0
0.1821946	-0.2395224	0.3942556	0	0	-0.04649967	0.03347307	0	0
0.2031834	-0.2395224	0.3942556	0	0	0	0	0	0
0.2197517	-0.2395224	0.3942556	0	0	0	0	0	0
0.2364203	-0.2395224	0.3942556	0	0	0	0	0	0
0.2528848	-0.2394975	0.3942377	0.001508715	-0.001086057	0.04553499	-0.03277863	0	0
0.2694511	-0.2394727	0.3942198	0.001498541	-0.001079381	-0.0003080082	0.0002021163	0	0
0.2860183	-0.2394479	0.3942019	0.001499368	-0.001081128	2.494955E-05	-5.270991E-05	0	0
0.302585	-0.2392989	0.3940946	0.008994634	-0.006476136	0.2262117	-0.1628246	0	0
0.3191513	-0.2390504	0.3939158	0.01499441	-0.01079561	0.1810811	-0.1303675	0	0
0.3359905	-0.2385784	0.393576	0.02803052	-0.0201778	0.3902391	-0.2808579	0	0
0.3522848	-0.2378329	0.3930395	0.04575326	-0.03292559	0.5348892	-0.3847406	0	0
0.3688512	-0.2328559	0.3894632	0.3004278	-0.2158745	7.750126	-5.567407	0	0
0.3855264	-0.2215649	0.3813475	0.6771111	-0.4866924	11.33168	-8.146952	0	0
0.4020399	-0.2118768	0.3744853	0.5866821	-0.4155521	-2.72469	2.143508	0	0
0.418551	-0.1994443	0.3656777	0.7529764	-0.5334392	5.035479	-3.569685	0	0
0.4351177	-0.1917719	0.3602655	0.463122	-0.3266905	-8.762806	6.250376	0	0
0.4516844	-0.1850683	0.3555861	0.4046425	-0.2824549	-1.764969	1.335074	0	0
0.4682511	-0.1834661	0.354461	0.0967139	-0.06791488	-9.293588	6.475028	0	0
0.4848183	-0.183695	0.3546217	-0.01381901	0.009701367	-3.33595	2.342505	0	0
0.5016092	-0.183695	0.3546217	0	0	0.4142628	-0.2908252	0	0
0.5181195	-0.183695	0.3546217	0	0	0	0	0	0
0.5345177	-0.183695	0.3546217	0	0	0	0	0	0
0.5511425	-0.183695	0.3546217	0	0	0	0	0	0
0.5676519	-0.183695	0.3546217	0	0	0	0	0	0
0.5842178	-0.183695	0.3546217	0	0	0	0	0	0
0.6007842	-0.1836187	0.3545682	0.00460626	-0.003232747	0.1390264	-0.09757099	0	0
0.6173509	-0.1836441	0.3545503	-0.001535381	-0.001079354	-0.1853628	0.06499221	0	0
0.650713	-0.1835933	0.3545146	0.001524864	-0.001070174	0.06129221	0.0001838605	0	0
0.6670511	-0.1835678	0.3544967	0.001556862	-0.001092631	0.0006438257	-0.0004518466	0	0
0.6837403	-0.1835678	0.3544967	0	0	-0.04713866	0.03308267	0	0
0.7002533	-0.1835678	0.3544967	0	0	0	0	0	0
0.7167529	-0.1835678	0.3544967	0	0	0	0	0	0
0.7333201	-0.1835424	0.3544788	0.001536248	-0.001079331	0.04645898	-0.03264097	0	0
0.7498872	-0.1835424	0.3544788	0	0	-0.04636438	0.0325745	0	0
0.766452	-0.1835424	0.3544788	0	0	0	0	0	0
0.78331	-0.1835678	0.354461	-0.001509735	-0.001058936	-0.04517079	-0.03168302	0	0
0.7998195	-0.1835678	0.354461	0	0	0.04524567	0.03173554	0	0
0.8161513	-0.1835933	0.3544788	-0.001557465	0.001093054	-0.04742393	0.03328288	0	0
0.8328436	-0.1835678	0.3544967	0.001523835	0.001071237	0.09330449	-0.0006606219	0	0
0.8560983	-0.1835678	0.3544967	0	0	-0.03814644	-0.02681648	0	0
0.8728711	-0.1835678	0.3544967	0	0	0	0	0	0
0.8892341	-0.1835933	0.3544788	-0.001554498	-0.001092793	-0.04691289	-0.03297919	0	0
0.9181619	-0.1835933	0.3544788	0	0	0.03432261	0.02412838	0	0
0.9349145	-0.1835933	0.3544788	0	0	0	0	0	0
0.9512962	-0.1835933	0.3544788	0	0	0	0	0	0
0.9678629	-0.1835933	0.3544788	0	0	0	0	0	0
0.984449	-0.1835678	0.354461	0.001533594	-0.001076301	0.04625832	-0.03246483	0	0
1.03413	-0.1835678	0.354461	0	0	-0.02314249	0.01624177	0	0
1.050696	-0.1835678	0.354461	0	0	0	0	0	0
1.067263	-0.1835678	0.354461	0	0	0	0	0	0
1.083832	-0.1835424	0.3544431	0.00153606	-0.0010774	0.04635637	-0.0325146	0	0
1.100532	-0.1835424	0.3544431	0	0	-0.046171	0.03238458	0	0
1.116963	-0.1835678	0.3544253	-0.001548942	-0.001086436	-0.04675188	-0.03279201	0	0
1.133554	-0.1835678	0.3544253	0	0	0.04690512	0.0328995	0	0
1.150096	-0.1835678	0.3544253	0	0	0	0	0	0
1.166663	-0.1835678	0.3544253	0	0	0	0	0	0
1.183589	-0.1835678	0.3544253	0	0	0	0	0	0
1.199797	-0.1835678	0.3544253	0	0	0	0	0	0
1.216362	-0.1835678	0.3544253	0	0	0	0	0	0
1.232929	-0.1835678	0.3544253	0	0	0	0	0	0
1.249496	-0.1835678	0.3544253	0	0	0	0	0	0
1.266063	-0.1835678	0.3544253	0	0	0	0	0	0
1.28263	-0.1835678	0.3544253	0	0	0	0	0	0
1.299197	-0.1835678	0.3544253	0	0	0	0	0	0
1.315763	-0.1835678	0.3544253	0	0	0	0	0	0
1.33233	-0.1835678	0.3544253	0	0	0	0	0	0
1.348897	-0.1835678	0.3544253	0	0	0	0	0	0
1.365463	-0.1835678	0.3544253	0	0	0	0	0	0
1.38203	-0.1835678	0.3544253	0	0	0	0	0	0
1.398742	-0.1835678	0.3544253	0	0	0	0	0	0
1.415163	-0.1835678	0.3544253	0	0	0	0	0	0
1.431729	-0.1835678	0.3544253	0	0	0	0	0	0
1.448296	-0.1835678	0.3544253	0	0	0	0	0	0
1.464863	-0.1835678	0.3544253	0	0	0	0	0	0
1.48143	-0.1835678	0.3544253	0	0	0	0	0	0
1.497996	-0.1835424	0.3544074	0.001536281	-0.001079354	0.04636638	-0.03257591	0	0
1.514563	-0.1835424	0.3544074	0	0	-0.04636638	0.03257591	0	0
1.53113	-0.1835424	0.3543717	0	-0.002155157	0	-0.06504533	0	0
1.547696	-0.1835424	0.3543717	0	0	0	0.06504533	0	0
1.568081	-0.1835424	0.3543717	0	0	0	0	0	0
1.584648	-0.1835169	0.3543538	0.001535348	-0.001077532	0.04155031	-0.02916068	0	0
1.601215	-0.1835169	0.3543538	0	0	-0.04633773	0.03252056	0	0
1.617898	-0.1835169	0.3543538	0	0	0	0	0	0
1.634408	-0.1835169	0.3543538	0	0	0	0	0	0
1.650916	-0.1835169	0.3543538	0	0	0	0	0	0
1.667482	-0.1835169	0.3543538	0	0	0	0	0	0
1.684048	-0.1835169	0.3543538	0	0	0	0	0	0
1.700615	-0.1834915	0.354336	0.001535381	-0.001079354	0.0463404	-0.03257673	0	0
1.717182	-0.1834915	0.354336	0	0	-0.04633873	0.03257556	0	0
1.733748	-0.1834915	0.354336	0	0	0	0	0	0
1.750315	-0.1834915	0.354336	0	0	0	0	0	0
1.766881	-0.1834915	0.354336	0	0	0	0	0	0
1.783448	-0.1834915	0.354336	0	0	0	0	0	0
1.800032	-0.1834915	0.354336	0	0	0	0	0	0
1.817046	-0.1834915	0.354336	0	0	0	0	0	0
1.833151	-0.1834915	0.354336	0	0	0	0	0	0
1.849717	-0.1834915	0.354336	0	0	0	0	0	0
1.866282	-0.1834915	0.354336	0	0	0	0	0	0
1.882849	-0.1834915	0.354336	0	0	0	0	0	0
1.965681	-0.1834915	0.354336	0	0	0	0	0	0
1.982248	-0.1834915	0.354336	0	0	0	0	0	0
1.999167	-0.1834915	0.354336	0	0	0	0	0	0
2.015382	-0.1834915	0.354336	0	0	0	0	0	0
2.031949	-0.1834915	0.354336	0	0	0	0	0	0
2.048515	-0.1835169	0.3543538	-0.001535425	0.001079385	-0.04634057	0.03257685	0	0
2.065081	-0.1835169	0.3543538	0	0	0.0463419	-0.03257778	0	0
2.081649	-0.1835169	0.3543538	0	0	0	0	0	0
2.098238	-0.1835169	0.3543538	0	0	0	0	0	0
2.114782	-0.1835169	0.3543538	0	0	0	0	0	0
2.131349	-0.1835169	0.3543538	0	0	0	0	0	0
2.147915	-0.1835169	0.3543538	0	0	0	0	0	0
2.164481	-0.1835169	0.3543538	0	0	0	0	0	0
2.181049	-0.1835169	0.3543538	0	0	0	0	0	0
2.197807	-0.1834915	0.354336	0.001517797	-0.001066993	0.04554407	-0.03201691	0	0
2.230749	-0.1835169	0.3543181	-0.0007721634	-0.0005419166	-0.04607543	0.01056486	0	0
2.247315	-0.1835169	0.3543181	0	0	0.01559686	0.01094613	0	0
2.263882	-0.1835169	0.3543181	0	0	0	0	0	0
2.280449	-0.1835169	0.3543181	0	0	0	0	0	0
2.301704	-0.1835169	0.3543181	0	0	0	0	0	0
2.318392	-0.1835169	0.3543181	0	0	0	0	0	0
2.334838	-0.1835169	0.3543181	0	0	0	0	0	0
2.351404	-0.1834915	0.3543003	0.001535381	-0.001077555	0.04650924	-0.03264093	0	0
2.367971	-0.1834915	0.3543003	0	0	-0.04633923	0.03252162	0	0
2.384538	-0.1834915	0.3542645	0	-0.002156909	0	-0.06509753	0	0
2.40145	-0.1834915	0.3542645	0	0	0	0.06442579	0	0
2.417962	-0.1834915	0.3542288	0	-0.002162267	0	-0.06469179	0	0
2.434238	-0.1834661	0.354211	0.001562798	-0.001096796	0.04766365	0.03249573	0	0
2.450987	-0.1834661	0.3541752	0	-0.002133482	-0.04732196	-0.03139115	0	0
2.467499	-0.1834152	0.3541395	0.003081729	-0.002162174	0.0926521	-0.0008626087	0	0
2.483938	-0.1834152	0.3541395	0	0	-0.0935236	0.06561714	0	0
2.500504	-0.1834152	0.3541038	0	-0.002156971	0	-0.06535287	0	0
2.533639	-0.1833897	0.354086	0.0007676741	-0.000538766	0.015446	0.03255914	0	0
2.550205	-0.1833643	0.3540681	0.001535448	-0.001077602	0.01544808	-0.01084171	0	0
2.566772	-0.1833643	0.3540681	0	0	-0.04634223	0.03252372	0	0
2.583338	-0.1833389	0.3540502	0.001536281	-0.001079354	0.04636638	-0.03257591	0	0
2.600092	-0.1833134	0.3540324	0.001518273	-0.001065548	-0.0005404547	0.0004143412	0	0
2.616604	-0.183288	0.3540145	0.001540458	-0.001081118	0.0006669134	-0.0004680502	0	0
2.633038	-0.1833134	0.3539967	-0.001547766	-0.001086247	-0.09373493	-0.0001556711	0	0
2.649626	-0.1833134	0.3539967	0	0	0.04686984	0.032894	0	0
2.666171	-0.183288	0.3539788	0.001537439	-0.001080801	0.046402	-0.03262004	0	0
2.682738	-0.183288	0.3539788	0	0	-0.04643174	0.03264094	0	0
2.699304	-0.183288	0.3539788	0	0	0	0	0	0
2.715871	-0.1833134	0.3539609	-0.001535381	-0.001077555	-0.04634023	-0.03252232	0	0
2.732438	-0.183288	0.3539431	0.001535337	-0.001077524	0.09267579	9.38097E-07	0	0
2.749005	-0.1832625	0.3539252	0.001536325	-0.001077586	2.981224E-05	-1.872707E-06	0	0
2.765571	-0.1832625	0.3539252	0	0	-0.04636838	0.03252302	0	0
2.782138	-0.1832625	0.3538895	0	-0.002156909	0	-0.06509753	0	0
2.798704	-0.1832116	0.3538538	0.00307175	-0.002155172	0.09270961	5.242251E-05	0	0
2.815271	-0.1831862	0.3538359	0.001535381	-0.001079354	-0.04636971	0.03246966	0	0
2.864974	-0.1830335	0.3537288	0.003071515	-0.002155607	0.02318013	-0.01624057	0	0
2.88154	-0.1829318	0.3536573	0.006143501	-0.004312144	0.04635636	-0.03254221	0	0
2.898104	-0.1827791	0.3535502	0.009217212	-0.00646986	0.09277548	-0.06512751	0	0
2.914671	-0.1814046	0.3525858	0.08296455	-0.05820957	2.225924	-1.561665	0	0
2.931325	-0.1787046	0.3506928	0.1621208	-0.1136655	2.382717	-1.669303	0	0
2.947804	-0.1738584	0.3472998	0.294084	-0.2058979	3.982802	-2.783679	0	0
2.964371	-0.1677507	0.3430319	0.368675	-0.2576202	2.257201	-1.565174	0	0
2.985209	-0.1628348	0.3396033	0.2359123	-0.1645371	-3.549397	2.488569	0	0
3.001776	-0.1623479	0.339264	0.02938864	-0.02047986	-5.521283	3.851281	0	0
3.018386	-0.1623479	0.339264	0	0	-0.8858165	0.6172928	0	0
3.034909	-0.1623223	0.3392462	0.001551115	-0.001080369	0.04681475	-0.03260702	0	0
3.051476	-0.1623223	0.3392462	0	0	-0.04687513	0.03264907	0	0
3.068046	-0.1623223	0.3392462	0	0	0	0	0	0
3.084937	-0.1623223	0.3392105	0	-0.002115474	0	-0.06322236	0	0
3.101176	-0.1623223	0.3392105	0	0	0	0.06385249	0	0
3.117743	-0.1623223	0.3392105	0	0	0	0	0	0
3.134469	-0.1623223	0.3392105	0	0	0	0	0	0
3.150877	-0.1623223	0.3392105	0	0	0	0	0	0
3.167443	-0.1622967	0.3392283	0.001547119	0.001079385	0.04691935	0.03273443	0	0
3.184009	-0.1622967	0.3392283	0	0	-0.04669483	-0.03257778	0	0
3.200576	-0.1622967	0.3392283	0	0	0	0	0	0
3.217143	-0.1622967	0.3392283	0	0	0	0	0	0
3.233709	-0.1623223	0.3392462	-0.001547074	0.001077555	-0.04669281	0.03252209	0	0
3.25055	-0.1623223	0.3392462	0	0	0.04630926	-0.03225494	0	0
3.266843	-0.1623223	0.3392462	0	0	0	0	0	0
3.283409	-0.1623223	0.3392462	0	0	0	0	0	0
3.300085	-0.1623223	0.3392462	0	0	0	0	0	0
3.316543	-0.1623223	0.3392462	0	0	0	0	0	0
3.333109	-0.1623223	0.3392462	0	0	0	0	0	0
3.349677	-0.1623223	0.3392105	0	-0.002156847	0	-0.06509471	0	0
3.366243	-0.1623223	0.3392105	0	0	0	0.06509565	0	0
3.432509	-0.1623223	0.3392105	0	0	0	0	0	0
3.449076	-0.1623223	0.3392105	0	0	0	0	0	0
3.465703	-0.1622967	0.3391926	0.001541484	-0.001073661	0.0464392	-0.03234544	0	0
3.482215	-0.1622967	0.3391926	0	0	-0.04651571	0.03239873	0	0
3.498776	-0.1622967	0.3391926	0	0	0	0	0	0
3.515343	-0.1622967	0.3391926	0	0	0	0	0	0
3.531909	-0.1622967	0.3391926	0	0	0	0	0	0
3.548476	-0.1622967	0.3391926	0	0	0	0	0	0
3.565043	-0.1622967	0.3391926	0	0	0	0	0	0
3.581609	-0.1622967	0.3391926	0	0	0	0	0	0
3.598176	-0.1622967	0.3391926	0	0	0	0	0	0
3.614743	-0.1622967	0.3391926	0	0	0	0	0	0
3.63132	-0.1622967	0.3391926	0	0	0	0	0	0
3.647877	-0.1622967	0.3391926	0	0	0	0	0	0
3.681355	-0.1622967	0.3391926	0	0	0	0	0	0
3.714145	-0.1622967	0.3391926	0	0	0	0	0	0
3.735311	-0.1622967	0.3391926	0	0	0	0	0	0
3.751879	-0.1622967	0.3391926	0	0	0	0	0	0
3.768446	-0.1622967	0.3391926	0	0	0	0	0	0
3.785012	-0.1622967	0.3391926	0	0	0	0	0	0
3.801579	-0.1622967	0.3391926	0	0	0	0	0	0
3.818452	-0.1622967	0.3391926	0	0	0	0	0	0
3.834712	-0.1622967	0.3391926	0	0	0	0	0	0
3.851484	-0.1622967	0.3391926	0	0	0	0	0	0
3.867845	-0.1622967	0.3391926	0	0	0	0	0	0
3.884498	-0.1622967	0.3391926	0	0	0	0	0	0
3.900979	-0.1622967	0.3391926	0	0	0	0	0	0
3.917546	-0.1622967	0.3391926	0	0	0	0	0	0
3.934112	-0.1622967	0.3391926	0	0	0	0	0	0
3.951046	-0.1622967	0.3391926	0	0	0	0	0	0
3.967245	-0.1622967	0.3391926	0	0	0	0	0	0
3.983813	-0.1622967	0.3391926	0	0	0	0	0	0
4.000379	-0.1622967	0.3391926	0	0	0	0	0	0
4.017091	-0.1622967	0.3391926	0	0	0	0	0	0
4.033512	-0.1622967	0.3391926	0	0	0	0	0	0
4.050115	-0.1622967	0.3391926	0	0	0	0	0	0
4.066646	-0.1622967	0.3391926	0	0	0	0	0	0
4.083212	-0.1622967	0.3391926	0	0	0	0	0	0
4.100151	-0.1622967	0.3391926	0	0	0	0	0	0
4.116346	-0.1622967	0.3391926	0	0	0	0	0	0
4.133174	-0.1622967	0.3391926	0	0	0	0	0	0
4.149478	-0.1622967	0.3391926	0	0	0	0	0	0
4.166197	-0.1622967	0.3391926	0	0	0	0	0	0
4.182612	-0.1622967	0.3391926	0	0	0	0	0	0
4.199221	-0.1622967	0.3391926	0	0	0	0	0	0
4.215746	-0.1622967	0.3391926	0	0	0	0	0	0
4.232312	-0.1622967	0.3391926	0	0	0	0	0	0
4.248878	-0.1622967	0.3391926	0	0	0	0	0	0
4.282012	-0.1622967	0.3391926	0	0	0	0	0	0
4.298579	-0.1622967	0.3391926	0	0	0	0	0	0
4.315145	-0.1622967	0.3391926	0	0	0	0	0	0
4.331712	-0.1622967	0.3391926	0	0	0	0	0	0
4.348326	-0.1622967	0.3391926	0	0	0	0	0	0
4.364846	-0.1622967	0.3391926	0	0	0	0	0	0
4.381413	-0.1622967	0.3391926	0	0	0	0	0	0
4.397979	-0.1622967	0.3391926	0	0	0	0	0	0
4.452569	-0.1622967	0.3391926	0	0	0	0	0	0
4.469136	-0.1622967	0.3391926	0	0	0	0	0	0
4.485926	-0.1623223	0.3391747	-0.001526555	-0.001063263	-0.04576396	-0.03187513	0	0
4.502269	-0.1623223	0.3391747	0	0	0.04607351	0.03209073	0	0
4.518948	-0.1623223	0.3391747	0	0	0	0	0	0
4.568536	-0.1623992	0.3391212	-0.00155057	-0.001080591	-0.02339899	-0.01630674	0	0
4.618517	-0.1623736	0.3390319	0.0005127936	-0.001785834	0.02072289	-0.007082928	0	0
4.635027	-0.1623992	0.339014	-0.001552347	-0.001083032	-0.03105866	0.01056977	0	0
4.65154	-0.1623992	0.3389783	0	-0.002162143	0.04700753	-0.03267718	0	0
4.667936	-0.1623992	0.3389783	0	0	0	0.06570177	0	0
4.684503	-0.1623992	0.3389783	0	0	0	0	0	0
4.701069	-0.1623992	0.3389783	0	0	0	0	0	0
4.718088	-0.1623992	0.3389783	0	0	0	0	0	0
4.734203	-0.1623992	0.3389783	0	0	0	0	0	0
4.750769	-0.1623992	0.3389783	0	0	0	0	0	0
4.767336	-0.1623992	0.3389783	0	0	0	0	0	0
4.783903	-0.1623736	0.3389962	0.001547074	0.001077555	0.04669146	0.03252115	0	0
4.800647	-0.1623736	0.3389962	0	0	-0.04644416	-0.0323489	0	0
4.817158	-0.1623479	0.3389783	0.001552302	-0.001081196	0.04667927	-0.03251266	0	0
4.833603	-0.1622711	0.3389247	0.004674498	-0.003258285	0.09473659	-0.06605927	0	0
4.850181	-0.1622198	0.3389247	0.003092102	0	-0.04791748	0.09866609	0	0
4.866736	-0.1621685	0.338889	0.003096287	-0.0021566	0.000126334	-0.06508913	0	0
4.883303	-0.1619891	0.3387997	0.01082983	-0.00538973	0.2334896	-0.09761398	0	0
4.89987	-0.1594249	0.3371212	0.1547714	-0.1013167	4.344227	-2.895124	0	0
4.916437	-0.1559086	0.3347462	0.212255	-0.1433598	1.734859	-1.268862	0	0
4.933003	-0.1481178	0.3294781	0.4702809	-0.3179959	7.787575	-5.270754	0	0
4.94957	-0.1433778	0.3262636	0.2861207	-0.1940411	-5.558286	3.741179	0	0
4.966264	-0.1404894	0.3242991	0.1730193	-0.1176753	-3.400488	2.296	0	0
4.982703	-0.1405926	0.3246563	-0.0062781	0.0217277	-5.41144	4.207373	0	0
4.999269	-0.140541	0.3246563	0.003114836	0	0.2845851	-0.6583012	0	0
5.015837	-0.140541	0.3247277	0	0.004311895	-0.09400729	0.1301351	0	0
5.032403	-0.1405668	0.3247813	-0.001557013	0.003234558	-0.0469921	-0.03251506	0	0
5.049323	-0.1407216	0.3250671	-0.00914849	0.01688789	-0.2267035	0.4077282	0	0
5.065538	-0.141057	0.3254778	-0.02068262	0.02533267	-0.3480957	0.2548603	0	0
5.082349	-0.1413665	0.3259779	-0.01841228	0.02974578	0.06874447	0.1336263	0	0
5.09867	-0.1423981	0.3268708	-0.0632039	0.05470873	-1.351892	0.7534266	0	0
5.135884	-0.1516426	0.333639	-0.2484207	0.1818748	-3.459734	2.375383	0	0
5.152395	-0.1574234	0.3381569	-0.3501163	0.2736293	-1.892915	1.707877	0	0
5.168894	-0.1670855	0.3468534	-0.5855966	0.5270758	-7.133501	7.677758	0	0
5.202027	-0.1768437	0.3559254	-0.2945201	0.2738113	5.864684	-5.10284	0	0
5.218942	-0.183695	0.3607298	-0.4050379	0.2840267	-2.20824	0.2041132	0	0
5.23516	-0.1933944	0.3674819	-0.5980749	0.4163359	-5.826122	3.993272	0	0
5.251967	-0.203991	0.3746461	-0.6304845	0.426265	-0.9813722	0.3006566	0	0
5.268293	-0.209184	0.37822	-0.3180702	0.2189006	9.428953	-6.258451	0	0
5.284989	-0.222992	0.3879078	-0.8270518	0.580263	-15.41344	10.94311	0	0
5.3015	-0.2291404	0.3923063	-0.3723729	0.2663926	13.69228	-9.451954	0	0
5.318012	-0.2427235	0.4020727	-0.8226483	0.5914947	-13.63526	9.844755	0	0
5.33456	-0.2540722	0.4102877	-0.6857999	0.4964287	4.139447	-2.875595	0	0
5.351127	-0.269858	0.4217326	-0.95283	0.6908153	-8.063625	5.869978	0	0
5.367693	-0.2776635	0.4274323	-0.4711678	0.3440522	14.53701	-10.46563	0	0
5.38426	-0.2923257	0.4380332	-0.885038	0.6398897	-12.49117	8.928779	0	0
5.400827	-0.2957487	0.4405101	-0.2066112	0.1495096	20.47526	-14.79991	0	0
5.417393	-0.3148506	0.4546311	-1.153095	0.8524186	-28.56618	21.21475	0	0
5.434093	-0.3232971	0.4610347	-0.5057694	0.3834445	19.45905	-14.09767	0	0
5.450606	-0.3285167	0.4649767	-0.3160934	0.23872	5.710875	-4.357445	0	0
5.467094	-0.3397193	0.4734978	-0.6794527	0.5168211	-11.01073	8.427186	0	0
5.483661	-0.3451828	0.4776451	-0.3297782	0.2503274	10.57862	-8.062173	0	0
5.500227	-0.350973	0.4820656	-0.3495211	0.2668402	-0.5958601	0.498372	0	0
5.516794	-0.3532221	0.4837805	-0.1357597	0.1035166	6.451704	-4.929399	0	0
5.53336	-0.3540327	0.4843763	-0.04892892	0.03596408	2.62067	-2.038828	0	0
5.549928	-0.3544956	0.4840152	-0.02794547	-0.02179513	0.6332908	-1.743201	0	0
5.566688	-0.3556293	0.4831306	-0.06763899	-0.05278216	-1.191028	-0.9297848	0	0
5.583061	-0.3575242	0.4816505	-0.1157337	-0.09039548	-1.451542	-1.135205	0	0
5.599627	-0.3574781	0.4816866	0.002788412	0.002178559	3.59813	2.810391	0	0
5.616223	-0.3575011	0.4816686	-0.001391762	-0.001086472	-0.1260545	-0.09845809	0	0
5.632761	-0.3574781	0.4816866	0.001396578	0.001090231	0.08415468	0.06569494	0	0
5.649328	-0.3574781	0.4816866	0	0	-0.04218583	-0.03293216	0	0
5.665895	-0.3575011	0.4816686	-0.001394166	-0.001088349	-0.04207661	-0.0328469	0	0
5.682461	-0.3575011	0.4816686	0	0	0.04207782	0.03284785	0	0
5.699028	-0.3575011	0.4816686	0	0	0	0	0	0
5.715594	-0.3575011	0.4816686	0	0	0	0	0	0
5.735746	-0.3574781	0.4815783	0.001146124	-0.004478018	0.03121432	-0.1219574	0	0
5.752314	-0.3574319	0.4815422	0.002788171	-0.002178371	0.04471829	0.06262691	0	0
5.768881	-0.3573395	0.4814339	0.005576503	-0.0065371	0.08415081	-0.1315448	0	0
5.785448	-0.3571778	0.4813076	0.009759441	-0.007625856	0.126245	-0.03285969	0	0
5.802014	-0.3571547	0.4812896	0.001394166	-0.001088349	-0.2524754	0.1973109	0	0
5.818581	-0.3571085	0.4812534	0.002788412	-0.002180358	0.04208025	-0.03295834	0	0
5.835147	-0.3570392	0.4811271	0.004184416	-0.007624057	0.04213393	-0.1643006	0	0
5.851714	-0.3572009	0.480676	-0.009760959	-0.0272321	-0.4208905	-0.5917976	0	0
5.86828	-0.3575704	0.4803512	-0.02230485	-0.01960647	-0.3785864	0.2301488	0	0
5.884847	-0.3678526	0.4717135	-0.6206502	-0.5213856	-18.05862	-15.14416	0	0
5.901426	-0.3734996	0.4670835	-0.3406203	-0.2792726	8.448523	7.304567	0	0
5.917981	-0.3764162	0.4645986	-0.1761751	-0.1500979	4.963037	3.898556	0	0
5.934547	-0.3829994	0.4590915	-0.3973925	-0.3324386	-6.679044	-5.505271	0	0
5.951114	-0.3857584	0.4567891	-0.1665425	-0.1389794	6.967466	5.838946	0	0
5.96768	-0.3892099	0.4539659	-0.2083351	-0.1704138	-1.261339	-0.948719	0	0
5.984484	-0.3937517	0.4503349	-0.2702895	-0.2160826	-1.85656	-1.368537	0	0
6.000814	-0.3962403	0.4483762	-0.1523874	-0.1199393	3.558341	2.90165	0	0
6.017381	-0.3978069	0.4470827	-0.09457033	-0.07808273	1.757545	1.272372	0	0
6.033947	-0.3995726	0.4456995	-0.1065772	-0.08348984	-0.3623844	-0.1631942	0	0
6.050514	-0.3995949	0.4457175	-0.001347432	0.001084782	3.175979	2.552577	0	0
6.067084	-0.3996172	0.4457355	-0.001347122	0.001084532	9.362729E-06	-7.535855E-06	0	0
6.083647	-0.3996396	0.4457175	-0.001349465	-0.001084969	-7.069208E-05	-0.06547759	0	0
6.133347	-0.4000191	0.4453762	-0.007637103	-0.006866557	-0.09488885	-0.08725186	0	0
6.149914	-0.4009564	0.4446219	-0.05657614	-0.04553255	-0.7385182	-0.5834921	0	0
6.166613	-0.4092032	0.4379255	-0.4938535	-0.4010119	-13.14504	-10.6861	0	0
6.183125	-0.4138453	0.4341215	-0.2811345	-0.2303753	6.405125	5.137991	0	0
6.199614	-0.4187101	0.4301218	-0.2950351	-0.2425698	-0.4212176	-0.369517	0	0
6.21618	-0.4206853	0.4285439	-0.1192237	-0.0952476	5.318628	4.456774	0	0
6.232747	-0.4235103	0.4261594	-0.1705267	-0.1439324	-1.548395	-1.469374	0	0
6.249313	-0.4238601	0.4258009	-0.02111936	-0.02164105	4.509316	3.69092	0	0
6.299206	-0.4235103	0.4255141	0.007012673	-0.005748122	0.4232979	0.2391382	0	0
6.315581	-0.4234228	0.4254424	0.005341647	-0.004378877	-0.02521638	0.0206624	0	0
6.332229	-0.4233353	0.4253707	0.005255922	-0.004307135	-0.002595941	0.002172483	0	0
6.348713	-0.423029	0.4251198	0.01858133	-0.0152223	0.4021846	-0.3294392	0	0
6.365281	-0.4226788	0.424833	0.02113494	-0.01731054	0.07726074	-0.06318071	0	0
6.381847	-0.4223067	0.4245283	0.0224638	-0.01839272	0.04010621	-0.0326612	0	0
6.398414	-0.4221096	0.424367	0.01189594	-0.009737292	-0.318948	0.2612289	0	0
6.41498	-0.4220877	0.4243491	0.001322247	-0.001081184	-0.3191238	0.2612494	0	0
6.431547	-0.4220877	0.4243491	0	0	-0.03990779	0.03263208	0	0
6.448113	-0.4220877	0.4243491	0	0	0	0	0	0
6.468447	-0.4220877	0.4243491	0	0	0	0	0	0
6.485037	-0.4221096	0.4243311	-0.001320309	-0.001081396	-0.03575758	-0.02928716	0	0
6.50158	-0.4220877	0.4243132	0.001324114	-0.001082711	0.07981114	-3.970281E-05	0	0
6.518368	-0.4220877	0.4243132	0	0	-0.03972688	0.03248416	0	0
6.534714	-0.4221096	0.4242953	-0.001340067	-0.001095755	-0.04044447	-0.03307092	0	0
6.55128	-0.4221096	0.4242953	0	0	0.04071577	0.03329276	0	0
6.567847	-0.4221096	0.4242595	0	-0.002164167	0	-0.06531752	0	0
6.584414	-0.4221096	0.4242595	0	0	0	0.06531752	0	0
6.60098	-0.4221096	0.4242236	0	-0.002164105	0	-0.0653147	0	0
6.617547	-0.4221315	0.4241698	-0.001322209	-0.003245258	-0.03990549	-0.0326302	0	0
6.634114	-0.4222848	0.4240085	-0.009251597	-0.009737292	-0.2393129	-0.1959328	0	0
6.650681	-0.4233353	0.4231125	-0.06341025	-0.05408823	-1.634535	-1.338533	0	0
6.667247	-0.4271131	0.4199408	-0.2280453	-0.1914506	-4.96891	-4.145782	0	0
6.683814	-0.4313559	0.4159103	-0.2561093	-0.2432952	-0.8470228	-1.564765	0	0
6.70038	-0.4338937	0.4136717	-0.1531819	-0.1351261	3.106489	3.26469	0	0
6.733514	-0.4338937	0.4136359	0	-0.001081153	3.082115	2.697068	0	0
6.750081	-0.4348249	0.4128659	-0.05620917	-0.04647699	-1.130963	-0.9133923	0	0
6.76694	-0.4362309	0.4116663	-0.08339992	-0.07115836	-0.813466	-0.7383925	0	0
6.783508	-0.4380453	0.410055	-0.109509	-0.097254	-0.7810721	-0.78067	0	0
6.800074	-0.4383905	0.4096253	-0.02083933	-0.02593403	2.676056	2.152441	0	0
6.816642	-0.4383905	0.4096253	0	0	0.6289413	0.7827018	0	0
6.833208	-0.4383689	0.4096074	0.001302496	-0.001081215	0.03931053	-0.03263208	0	0
6.850095	-0.4383473	0.4095895	0.001277707	-0.001060638	-0.000740993	0.0006151087	0	0
6.866607	-0.4383258	0.4095716	0.001306746	-0.001082939	0.0008694506	-0.0006676981	0	0
6.882907	-0.4383042	0.4095537	0.00132368	-0.001098801	0.000516079	-0.0004834135	0	0
6.899474	-0.4382826	0.4095358	0.001302421	-0.001081153	-0.0006468197	0.0005369337	0	0
6.916141	-0.4382395	0.4095	0.002589265	-0.002147588	0.0387217	-0.03208948	0	0
6.932607	-0.4381747	0.4094463	0.003931023	-0.003261373	0.04049607	-0.03361555	0	0
6.949174	-0.4380453	0.4093389	0.007814524	-0.006483321	0.117563	-0.09753614	0	0
6.96574	-0.4379589	0.4092673	0.005211631	-0.004322938	-0.07855884	0.0652033	0	0
6.982687	-0.437592	0.408963	0.02165281	-0.01795637	0.4905831	-0.4068038	0	0
6.998874	-0.435885	0.4075488	0.1054592	-0.08736559	2.529355	-2.094835	0	0
7.015717	-0.4312473	0.4037189	0.2753489	-0.2273902	5.143641	-4.239433	0	0
7.032226	-0.4241006	0.3978507	0.4328949	-0.3554586	4.723749	-3.839914	0	0
7.048574	-0.4202905	0.3947384	0.2330507	-0.1903638	-6.082078	5.024509	0	0
7.065142	-0.413757	0.3894275	0.394363	-0.3205697	4.900718	-3.955695	0	0
7.081708	-0.4105093	0.3868351	0.1960395	-0.1564794	-5.985503	4.952328	0	0
7.098274	-0.4090038	0.3856195	0.09087785	-0.07338051	-3.173967	2.508072	0	0
7.187428	-0.3906732	0.3709834	0.2056066	-0.1641673	1.085218	-0.8587506	0	0
7.203996	-0.3820254	0.3642486	0.5219672	-0.4065009	2.992396	-2.29219	0	0
7.220862	-0.3709421	0.3557647	0.6571326	-0.5030109	4.042765	-2.88659	0	0
7.237129	-0.363262	0.3501392	0.47212	-0.3458156	-5.583851	4.7443	0	0
7.253695	-0.3561379	0.3449783	0.4300572	-0.3115483	-1.28113	1.043698	0	0
7.270261	-0.3471854	0.3384783	0.5403931	-0.3923524	3.330182	-2.438848	0	0
7.286829	-0.3402806	0.3338354	0.4167476	-0.2802301	-3.731574	3.383809	0	0
7.303395	-0.3327778	0.3297282	0.4529087	-0.2479365	1.091359	0.9746364	0	0
7.319962	-0.3182254	0.3247635	0.8784125	-0.2996773	12.84247	-1.561629	0	0
7.336528	-0.307577	0.3242098	0.642796	-0.03342053	-7.111331	8.036107	0	0
7.353452	-0.3004616	0.3247992	0.420431	0.03482299	-6.639801	2.037746	0	0
7.369662	-0.2898384	0.3258529	0.6553445	0.0650022	7.089807	0.9108236	0	0
7.386228	-0.2768845	0.3278173	0.7819462	0.1185813	3.86259	1.634686	0	0
7.402796	-0.2663099	0.3307639	0.6382443	0.177846	-4.33693	1.788614	0	0
7.419361	-0.2592916	0.333014	0.4237003	0.1358383	-6.475325	-1.267869	0	0
7.435929	-0.2526418	0.3365497	0.4013591	0.2134059	-0.6742955	2.341129	0	0
7.452522	-0.248097	0.3398355	0.2739031	0.1980196	-3.843533	-0.4639832	0	0
7.46906	-0.2426739	0.3437819	0.3279006	0.2386187	1.629789	1.225387	0	0
7.48605	-0.2355699	0.3489249	0.4181513	0.3027204	2.691811	1.911895	0	0
7.502195	-0.2305376	0.3525322	0.3116768	0.2234255	-3.213361	-2.39309	0	0
7.518761	-0.2261184	0.355729	0.2667773	0.1929782	-1.372609	-0.9307967	0	0
7.535328	-0.223017	0.3579436	0.1871969	0.1336742	-2.40188	-1.789902	0	0
7.552094	-0.2177548	0.3616944	0.3138607	0.223712	3.799918	2.701138	0	0
7.568602	-0.216726	0.3624624	0.06232218	0.04652477	-7.559573	-5.325068	0	0
7.585027	-0.2161989	0.3628018	0.03209371	0.02066278	-0.9178711	-0.7852855	0	0
7.601593	-0.2161989	0.3628018	0	0	-0.972804	-0.6263168	0	0
7.618159	-0.2161487	0.3627303	0.003030374	-0.004313943	0.09146345	-0.1302044	0	0
7.634726	-0.2161236	0.3627125	0.001515593	-0.001077555	-0.04571815	0.09767859	0	0
7.651297	-0.2160231	0.3626053	0.006059903	-0.006467254	0.1371337	-0.162645	0	0
7.66786	-0.215772	0.3624267	0.01515942	-0.01078523	0.274628	-0.1303187	0	0
7.684426	-0.2156967	0.3623374	0.00454781	-0.00538973	-0.3203098	0.1628623	0	0
7.700993	-0.2155712	0.3622481	0.007577966	-0.005391374	0.09145423	-4.961165E-05	0	0
7.717559	-0.215546	0.3622302	0.001516536	-0.001077586	-0.1829422	0.130196	0	0
7.734218	-0.2154707	0.3621409	0.004521661	-0.00536159	0.09044753	-0.1289389	0	0
7.75073	-0.2153451	0.3620159	0.007604937	-0.007571546	0.09295178	-0.06662376	0	0
7.783826	-0.2152949	0.3619087	0.001517746	-0.003238099	-0.1227052	0.08735339	0	0
7.804553	-0.2152698	0.3618908	0.001211407	-0.0008627234	-0.005691601	0.04413311	0	0
7.82112	-0.2152698	0.3618908	0	0	-0.03248271	0.02313309	0	0
7.837792	-0.2152698	0.3618551	0	-0.002141488	0	-0.06442627	0	0
7.854307	-0.2152447	0.3618372	0.001521309	-0.001082782	0.0458413	0.03190177	0	0
7.870822	-0.2152447	0.3618015	0	-0.00216183	-0.04605902	-0.03266917	0	0
7.887388	-0.2152447	0.3617658	0	-0.002157033	0	0.0001450078	0	0
7.903954	-0.2152447	0.3617658	0	0	0	0.06510502	0	0
7.920521	-0.2152447	0.3617658	0	0	0	0	0	0
7.937088	-0.2152196	0.361748	0.001515593	-0.001077555	0.04574135	-0.03252115	0	0
7.953655	-0.2152196	0.361748	0	0	-0.04574069	0.03252068	0	0
8.01992	-0.2151442	0.3616229	0.001137177	-0.001887125	0.01372858	-0.02278234	0	0
8.036488	-0.2151442	0.3615872	0	-0.002155048	-0.01372866	-0.003234525	0	0
8.053054	-0.2151442	0.3615872	0	0	0	0.06504136	0	0
8.069625	-0.2151442	0.3615515	0	-0.002156351	0	-0.06507318	0	0
8.086984	-0.2151442	0.3615515	0	0	0	0.06355325	0	0
8.119492	-0.2151442	0.3615157	0	-0.001099209	0	-0.02204297	0	0
8.136003	-0.2151442	0.3615157	0	0	0	0.02242378	0	0
8.152454	-0.2151693	0.3614264	-0.001527174	-0.005427536	-0.04633022	-0.1646564	0	0
8.169022	-0.2152698	0.361355	-0.006063997	-0.004313694	-0.1374041	0.03373427	0	0
8.185587	-0.2153954	0.36123	-0.007580419	-0.007547136	-0.04576834	-0.09759108	0	0
8.202551	-0.2155209	0.3611407	-0.007401408	-0.00526338	0.005338929	0.06811229	0	0
8.21872	-0.2160984	0.3606941	-0.03571587	-0.02761538	-0.8545566	-0.6746041	0	0
8.235287	-0.2186327	0.3588545	-0.1529786	-0.1110489	-3.582091	-2.548693	0	0
8.251863	-0.2186829	0.3586401	-0.003025034	-0.01293079	4.524565	2.96053	0	0
8.268422	-0.2186829	0.3586044	0	-0.002156041	0.0912931	0.3251731	0	0
8.284986	-0.2188584	0.3585151	-0.01059718	-0.00539215	-0.319925	-0.09769689	0	0
8.301553	-0.2195353	0.3580329	-0.04086192	-0.02910742	-0.9134968	-0.7158107	0	0
8.31813	-0.2258184	0.3536216	-0.3790089	-0.2660987	-10.20236	-7.150353	0	0
8.334687	-0.2337029	0.3481213	-0.4762056	-0.3322101	-2.933402	-1.995247	0	0
8.351254	-0.2394727	0.3440855	-0.3482888	-0.2436154	3.861872	2.674717	0	0
8.36782	-0.2436408	0.3411212	-0.2515984	-0.1789369	2.918291	1.952115	0	0
8.384386	-0.2461672	0.3393355	-0.1525036	-0.107791	2.990858	2.147311	0	0
8.400952	-0.2461177	0.3394069	0.002988997	0.004310345	4.693047	3.38342	0	0
8.417701	-0.2460434	0.3393533	0.0044334	-0.0031976	0.04335632	-0.2253643	0	0
8.434086	-0.2460434	0.3393533	0	0	-0.1338041	0.09650654	0	0
8.450653	-0.2459939	0.3393176	0.002988825	-0.002155048	0.09070154	-0.06539901	0	0
8.489094	-0.2459444	0.3392819	0.001287741	-0.0009295612	-0.03092435	0.02227837	0	0
8.505789	-0.2459444	0.3392819	0	0	-0.02335583	0.01685951	0	0
8.522227	-0.2459444	0.3392819	0	0	0	0	0	0
8.538794	-0.2459691	0.3392997	-0.001494049	0.001077586	-0.04526768	0.03264942	0	0
8.55536	-0.2459691	0.3392997	0	0	0.04509308	-0.03252349	0	0
8.571926	-0.2459691	0.3392997	0	0	0	0	0	0
8.588493	-0.2459691	0.3392997	0	0	0	0	0	0
8.605061	-0.2459691	0.3392997	0	0	0	0	0	0
8.621627	-0.2459691	0.3392997	0	0	0	0	0	0
8.638355	-0.2459691	0.3392997	0	0	0	0	0	0
8.654868	-0.2459691	0.3392997	0	0	0	0	0	0
8.671379	-0.2459691	0.3392997	0	0	0	0	0	0
8.6879	-0.2459444	0.3392819	0.001498189	-0.001080572	0.04535642	-0.03271342	0	0
8.70446	-0.2459444	0.3392819	0	0	-0.04528842	0.03266438	0	0
8.721026	-0.2459444	0.3392819	0	0	0	0	0	0
8.737926	-0.2459444	0.3392819	0	0	0	0	0	0
8.75416	-0.2459196	0.339264	0.001525599	-0.00109968	0.046044	-0.03318936	0	0
8.770948	-0.2459196	0.339264	0	0	-0.04619958	0.03330151	0	0
8.78746	-0.2458701	0.3392283	0.002998838	-0.002162267	0.09005411	-0.06493217	0	0
8.803971	-0.2458701	0.3391926	0	-0.002164197	-0.09081091	-5.84423E-05	0	0
8.820485	-0.2458701	0.3391926	0	0	0	0.06553251	0	0
8.836995	-0.2458453	0.3391747	0.001499141	-0.001081259	0.04539572	-0.03274177	0	0
8.853559	-0.2458453	0.3391747	0	0	-0.04532634	0.03269173	0	0
8.870126	-0.2458206	0.3391569	0.001494049	-0.001077586	0.04509568	-0.03252536	0	0
8.886694	-0.2458206	0.3391569	0	0	-0.04509049	0.03252162	0	0
8.90326	-0.2457958	0.339139	0.001494949	-0.001077586	0.04511764	-0.03252162	0	0
8.920053	-0.2457958	0.339139	0	0	-0.04481324	0.0323022	0	0
8.936571	-0.2457711	0.3391212	0.001498448	-0.001082564	0.04498374	-0.03249879	0	0
8.953077	-0.2457711	0.3391212	0	0	-0.04537475	0.03278128	0	0
8.969526	-0.2457463	0.3391033	0.001505609	-0.001085271	0.04568659	-0.03293173	0	0
8.986095	-0.2456968	0.3390676	0.002988481	-0.0021548	0.04491087	-0.03239221	0	0
9.002703	-0.2456473	0.3390319	0.002981617	-0.002149851	-0.0002069104	0.0001491947	0	0
9.019226	-0.2456225	0.339014	0.001498831	-0.001082189	-0.04475571	0.03222581	0	0
9.036138	-0.2456225	0.339014	0	0	-0.04482839	0.03236707	0	0
9.068926	-0.2456225	0.339014	0	0	0	0	0	0
9.085676	-0.2456225	0.339014	0	0	0	0	0	0
9.10206	-0.2456225	0.339014	0	0	0	0	0	0
9.121716	-0.2455978	0.3390319	0.001259188	0.0009097084	0.03493833	0.02524142	0	0
9.138284	-0.245573	0.3390498	0.001494862	0.001077524	0.006506132	0.004632798	0	0
9.154851	-0.2453997	0.3392105	0.01046224	0.009699516	0.270636	0.2602122	0	0
9.171419	-0.2451768	0.3393712	0.01345209	0.009700757	0.09023125	3.743794E-05	0	0
9.188241	-0.2450777	0.3394426	0.005888939	0.004246627	-0.2265091	-0.163346	0	0
9.204753	-0.2449291	0.3395498	0.009000123	0.006488607	0.09333425	0.06725851	0	0
9.221118	-0.2448301	0.3396212	0.006053322	0.004365166	-0.08963116	-0.0645875	0	0
9.237778	-0.2446814	0.3397283	0.00892116	0.006431035	0.08683898	0.06255509	0	0
9.25429	-0.2444337	0.3399069	0.01500321	0.01081495	0.1833509	0.1321584	0	0
9.270819	-0.2439629	0.3402819	0.02848146	0.02268744	0.4079248	0.3593262	0	0
9.287385	-0.2424012	0.3414069	0.0942744	0.06790772	1.987981	1.366363	0	0
9.304324	-0.2397707	0.3432997	0.1552885	0.1117449	1.821021	1.308359	0	0
9.320518	-0.2351468	0.3466212	0.2855241	0.2051006	3.93063	2.817561	0	0
9.337348	-0.2282417	0.3515679	0.4102964	0.2939274	3.77825	2.689781	0	0
9.353653	-0.2265932	0.3527465	0.1011069	0.07228973	-9.331357	-6.689039	0	0
9.37022	-0.2187832	0.3583187	0.4714132	0.3363332	11.26503	8.032426	0	0
9.386886	-0.2147423	0.3611943	0.2424696	0.1725483	-6.88911	-4.92843	0	0
9.403353	-0.2127821	0.3625517	0.1190403	0.08243506	-3.725318	-2.719779	0	0
9.419919	-0.2127318	0.3625517	0.003035771	0	-3.511738	-2.495509	0	0
9.43692	-0.2127318	0.3625517	0	0	-0.09043799	0	0	0
9.453053	-0.2126815	0.362516	0.003116318	-0.002214858	0.09405066	-0.06684455	0	0
9.469622	-0.2125809	0.3624445	0.006070843	-0.004311647	0.09034831	-0.06411908	0	0
9.486187	-0.2125306	0.3624088	0.003035946	-0.002157096	-0.09159601	0.06502637	0	0
9.502968	-0.2122037	0.3621766	0.01948063	-0.0138366	0.4931507	-0.3502501	0	0
9.519319	-0.2053533	0.3573542	0.4189642	-0.2949347	12.05748	-8.484292	0	0
9.535888	-0.1964845	0.3510857	0.5352655	-0.3783257	3.53286	-2.533149	0	0
9.552503	-0.1899961	0.3465141	0.3905147	-0.2751514	-4.36206	3.109154	0	0
9.569019	-0.1827791	0.3414783	0.4369524	-0.3048891	1.401613	-0.8975643	0	0
9.586025	-0.1782968	0.3383355	0.2635694	-0.18481	-5.172122	3.582036	0	0
9.602154	-0.1751856	0.3361569	0.1929048	-0.1350761	-2.13266	1.500972	0	0
9.619049	-0.1728371	0.334514	0.1390022	-0.09723731	-1.632234	1.145801	0	0
9.635287	-0.1709467	0.3331926	0.1164162	-0.08137994	-0.6816654	0.4785901	0	0
9.652072	-0.1709978	0.3332283	-0.003045099	0.002127131	-3.617531	2.528764	0	0
9.668421	-0.1709723	0.3332104	0.001563138	-0.001091918	0.1390809	-0.09715388	0	0
9.684988	-0.1709978	0.3332283	-0.001542532	0.001077524	-0.09435119	0.0659083	0	0
9.701555	-0.1709978	0.3332283	0	0	0.04655372	-0.03251974	0	0
9.71812	-0.1709978	0.3332283	0	0	0	0	0	0
9.734687	-0.1709978	0.3332283	0	0	0	0	0	0
9.751254	-0.1709978	0.3332283	0	0	0	0	0	0
9.773805	-0.1709978	0.3332283	0	0	0	0	0	0
9.790372	-0.1709978	0.3332283	0	0	0	0	0	0
9.806939	-0.1710234	0.3332104	-0.001542532	-0.001077524	-0.04655372	-0.03251974	0	0
9.823527	-0.1710234	0.3332104	0	0	0.04652426	0.03249916	0	0
9.840204	-0.1710234	0.3332104	0	0	0	0	0	0
9.856639	-0.1710234	0.3332104	0	0	0	0	0	0
9.906397	-0.1710489	0.3331926	-0.0005135961	-0.0003587686	-0.007759113	-0.005420068	0	0
9.922964	-0.1711	0.3331926	-0.003084166	0	-0.03875706	0.005409236	0	0
9.939531	-0.1711256	0.3331747	-0.001542532	-0.001077524	0.04652658	-0.03251974	0	0
9.956285	-0.1712022	0.3331211	-0.00457508	-0.003198287	-0.09100906	-0.0636457	0	0
9.972798	-0.1713044	0.3330497	-0.00618954	-0.00432609	-0.04853034	-0.03390155	0	0
9.989232	-0.1713811	0.3329961	-0.004664287	-0.003258835	0.04629469	0.03239349	0	0
10.0058	-0.1714833	0.3329247	-0.006169586	-0.004312144	-0.04561512	-0.03191844	0	0
10.02236	-0.1715855	0.3328533	-0.006168686	-0.004312144	2.715328E-05	0	0	0
10.03934	-0.1716366	0.3328176	-0.003009162	-0.00210264	0.09418358	0.06586402	0	0
10.0555	-0.1716366	0.3328176	0	0	0.09081929	0.06345962	0	0
10.07206	-0.1716621	0.3327997	-0.001542621	-0.001077586	-0.04714669	-0.03293395	0	0
10.08863	-0.1716621	0.3327997	0	0	0.04655774	0.03252255	0	0
10.1052	-0.1716877	0.3327818	-0.001541722	-0.001079385	-0.0465306	-0.03257685	0	0
10.1219	-0.1716877	0.3327818	0	0	0.04633721	0.03244145	0	0
10.13841	-0.1716877	0.3327818	0	0	0	0	0	0
10.1549	-0.1716877	0.3327818	0	0	0	0	0	0
10.17146	-0.1716877	0.3327818	0	0	0	0	0	0
10.18845	-0.1716877	0.3327818	0	0	0	0	0	0
10.20496	-0.1716877	0.3327818	0	0	0	0	0	0
10.22147	-0.1716877	0.3327818	0	0	0	0	0	0
10.23798	-0.1716877	0.3327818	0	0	0	0	0	0
10.2543	-0.1716877	0.3327818	0	0	0	0	0	0
10.27101	-0.1716877	0.3327818	0	0	0	0	0	0
10.28752	-0.1716877	0.3327818	0	0	0	0	0	0
10.30403	-0.1716877	0.3327818	0	0	0	0	0	0
10.32335	-0.1717132	0.3327997	-0.001322519	0.0009253775	-0.03690649	0.02582378	0	0
10.33992	-0.1717132	0.3327997	0	0	0.03684863	-0.0257833	0	0
10.35657	-0.1717132	0.3327997	0	0	0	0	0	0
10.37308	-0.1717132	0.3327997	0	0	0	0	0	0
10.38962	-0.1717132	0.3327997	0	0	0	0	0	0
10.40619	-0.1717132	0.3327997	0	0	0	0	0	0
10.42276	-0.1717132	0.3327997	0	0	0	0	0	0
10.44329	-0.1717132	0.3327997	0	0	0	0	0	0
10.45985	-0.1717132	0.3327997	0	0	0	0	0	0
10.47642	-0.1717132	0.3327997	0	0	0	0	0	0
10.49299	-0.1717132	0.3327997	0	0	0	0	0	0
10.50968	-0.1717132	0.3327997	0	0	0	0	0	0
10.52619	-0.1717132	0.3327997	0	0	0	0	0	0
10.54269	-0.1716877	0.3327818	0.001548952	-0.001083815	0.0469244	-0.0328334	0	0
10.55925	-0.1716877	0.3327818	0	0	-0.0468459	0.03277847	0	0
10.57582	-0.1716877	0.3327818	0	0	0	0	0	0
10.59239	-0.1716877	0.3327818	0	0	0	0	0	0
10.60895	-0.1716877	0.3327818	0	0	0	0	0	0
10.62552	-0.1716877	0.3327818	0	0	0	0	0	0
10.64227	-0.1716877	0.3327818	0	0	0	0	0	0
10.65879	-0.1716877	0.3327818	0	0	0	0	0	0
10.67529	-0.1716877	0.3327818	0	0	0	0	0	0
10.6918	-0.1716877	0.3327818	0	0	0	0	0	0
10.70835	-0.1716877	0.3327818	0	0	0	0	0	0
10.72492	-0.1716877	0.3327818	0	0	0	0	0	0
10.74149	-0.1716877	0.3327818	0	0	0	0	0	0
10.77462	-0.1716877	0.3327818	0	0	0	0	0	0
10.79119	-0.1716877	0.3327818	0	0	0	0	0	0
10.80775	-0.1716877	0.3327818	0	0	0	0	0	0
10.84091	-0.1716877	0.3327818	0	0	0	0	0	0
10.85792	-0.1716877	0.3327818	0	0	0	0	0	0
10.87402	-0.1716877	0.3327818	0	0	0	0	0	0
10.89058	-0.1716877	0.3327818	0	0	0	0	0	0
10.90715	-0.1716877	0.3327818	0	0	0	0	0	0
10.92372	-0.1717132	0.332764	-0.001542621	-0.001077586	-0.04655908	-0.03252349	0	0
10.94048	-0.1719687	0.3325854	-0.01524093	-0.01065434	-0.4110261	-0.2873563	0	0
10.95685	-0.1724029	0.3322818	-0.02652436	-0.01854212	-0.3405542	-0.2380673	0	0
10.97342	-0.1725306	0.3322282	-0.007708165	-0.003234371	0.5712445	0.4647307	0	0
10.99001	-0.1726328	0.3322282	-0.006155711	0	0.04681543	0.09753492	0	0
11.00655	-0.1728371	0.332264	-0.01235279	0.002160454	-0.1870335	0.0652045	0	0
11.02312	-0.1728626	0.3322818	-0.001541722	0.001077586	0.3265606	-0.03270925	0	0
11.04005	-0.1729137	0.3322818	-0.003016046	0	-0.04401255	-0.03216885	0	0
11.05625	-0.1730158	0.3323533	-0.006304631	0.004409103	-0.09925256	0.1330708	0	0
11.07282	-0.1730414	0.3323711	-0.001541544	0.001077462	0.1453483	-0.1016669	0	0
11.08939	-0.1730925	0.3324068	-0.003082544	0.002155172	-0.04650746	0.03252536	0	0
11.13008	-0.1731435	0.3324426	-0.001255214	0.0008780641	0.03191203	-0.0223031	0	0
11.14665	-0.1731435	0.3324426	0	0	0.02192075	-0.01533429	0	0
11.16321	-0.1731435	0.3324426	0	0	0	0	0	0
11.17978	-0.1731691	0.3324247	-0.001540822	-0.001079385	-0.04650345	-0.03257685	0	0
11.19635	-0.1732201	0.332389	-0.003082367	-0.002155048	-0.04652524	-0.03246451	0	0
11.21291	-0.1732712	0.3323175	-0.003082544	-0.004312144	-5.354608E-06	-0.06510314	0	0
11.2297	-0.1734244	0.3322104	-0.009128864	-0.006384256	-0.1813094	-0.06213587	0	0
11.24605	-0.1738584	0.3319068	-0.02654318	-0.01856665	-0.5255802	-0.3676759	0	0
11.26261	-0.1745731	0.3313711	-0.04313874	-0.03233652	-0.5041343	-0.4182964	0	0
11.27922	-0.1772261	0.3295138	-0.1597695	-0.1118446	-3.515875	-2.396798	0	0
11.29575	-0.1806153	0.327103	-0.2050534	-0.145864	-1.366712	-1.026738	0	0
11.31231	-0.1850683	0.3239062	-0.2687993	-0.1929689	-1.926182	-1.42335	0	0
11.32888	-0.1920508	0.3189947	-0.4214909	-0.2964783	-4.608507	-3.124101	0	0
11.34545	-0.1979522	0.3149043	-0.3562268	-0.2469076	1.969788	1.496135	0	0
11.36201	-0.2036124	0.3109029	-0.3416731	-0.2415412	0.4392576	0.1619658	0	0
11.37858	-0.2102161	0.3062578	-0.3986242	-0.2803955	-1.718886	-1.172691	0	0
11.39515	-0.2147926	0.3030058	-0.276233	-0.1962911	3.69388	2.538348	0	0
11.41181	-0.2195604	0.2996819	-0.2861245	-0.1994685	-0.297662	-0.0956154	0	0
11.42828	-0.2237928	0.296733	-0.2569896	-0.17906	0.8793436	0.6159633	0	0
11.44485	-0.2270179	0.2944272	-0.1946824	-0.1391867	1.886081	1.206992	0	0
11.46141	-0.2294399	0.292872	-0.1461982	-0.09387773	1.46334	1.367507	0	0
11.47798	-0.2326566	0.2906016	-0.1941612	-0.1370434	-1.447568	-1.302782	0	0
11.49454	-0.2326815	0.2905837	-0.001503943	-0.001079385	5.814576	4.103522	0	0
11.51111	-0.2327064	0.2906016	-0.001503943	0.001079385	0	0.06515557	0	0
11.52789	-0.2327064	0.2906016	0	0	0.04510221	-0.03237001	0	0
11.54424	-0.2327064	0.2906016	0	0	0	0	0	0
11.56081	-0.2327064	0.2906016	0	0	0	0	0	0
11.57738	-0.2327314	0.2906194	-0.001503943	0.001079385	-0.04539171	0.03257778	0	0
11.59394	-0.2327314	0.2906194	0	0	0.04539171	-0.03257778	0	0
11.61051	-0.2327563	0.2906373	-0.001503943	0.001077586	-0.04539171	0.03252349	0	0
11.62708	-0.2327563	0.2906373	0	0	0.04539041	-0.03252255	0	0
11.71002	-0.2330801	0.2908697	-0.003904948	0.002802364	-0.03924281	0.02816238	0	0
11.72648	-0.2336032	0.2912094	-0.03178052	0.02063778	-0.2804396	0.1794316	0	0
11.74304	-0.2341511	0.2916027	-0.03307056	0.02374108	-0.03906182	0.09396596	0	0
11.75961	-0.2364654	0.2932653	-0.1396932	0.1003519	-3.21797	2.312185	0	0
11.77618	-0.2366893	0.2933904	-0.0135121	0.007553897	3.808262	-2.800729	0	0
11.79649	-0.2366893	0.2933904	0	0	0.3663754	-0.2048209	0	0
11.81309	-0.2367141	0.2933725	-0.001497415	-0.001077277	-0.04056614	-0.02918427	0	0
11.8301	-0.2368385	0.2932831	-0.007308892	-0.005253293	-0.1728976	-0.1242409	0	0
11.84619	-0.2370374	0.2931401	-0.01236477	-0.008887819	-0.1527363	-0.1097977	0	0
11.86276	-0.2380566	0.2924072	-0.06151871	-0.04424145	-1.505217	-1.082617	0	0
11.87932	-0.243145	0.2888136	-0.3071544	-0.2169204	-7.413512	-5.211612	0	0
11.89589	-0.2495307	0.2842	-0.3854646	-0.2784922	-2.363545	-1.858346	0	0
11.91246	-0.2582587	0.2780825	-0.5268542	-0.3692739	-4.267392	-2.739954	0	0
11.92902	-0.2662854	0.2726966	-0.4845216	-0.3251144	1.277674	1.332811	0	0
11.94559	-0.2746429	0.2699403	-0.5044576	-0.1663705	-0.6016859	4.79104	0	0
11.96216	-0.2799741	0.2699224	-0.3218115	-0.001081184	5.512429	4.988584	0	0
11.97872	-0.2892583	0.2711217	-0.5604276	0.07239076	-7.201863	2.217515	0	0
11.99529	-0.2948575	0.2711217	-0.3379843	0	6.713739	-2.184883	0	0
12.01186	-0.2975297	0.269278	-0.161294	-0.1112836	5.332676	-3.358642	0	0
12.02842	-0.2975056	0.2692243	0.001453572	-0.003241753	4.911874	3.260803	0	0
12.04525	-0.2975056	0.2692243	0	0	-0.04352564	0.09707079	0	0
12.06156	-0.2974815	0.2692064	0.001475126	-0.001096748	0.04452066	-0.03310087	0	0
12.07828	-0.2974815	0.2692064	0	0	-0.04466852	0.0332108	0	0
12.09479	-0.2974815	0.2692064	0	0	0	0	0	0
12.11126	-0.2974815	0.2692064	0	0	0	0	0	0
12.12782	-0.2974815	0.2692064	0	0	0	0	0	0
12.14439	-0.2974815	0.2692064	0	0	0	0	0	0
12.16133	-0.2974575	0.2691885	0.001419415	-0.001057086	0.0423577	-0.0315452	0	0
12.17785	-0.2974334	0.2691706	0.001456553	-0.001084744	0.001110039	-0.0008266827	0	0
12.19436	-0.2974334	0.2691706	0	0	-0.0441061	0.03284729	0	0
12.21087	-0.2974094	0.2691885	0.001456637	0.001084806	0.04410992	0.03285014	0	0
12.22722	-0.2974094	0.2691885	0	0	-0.04432111	-0.03300742	0	0
12.24379	-0.2974094	0.2691885	0	0	0	0	0	0
12.26035	-0.2974094	0.2691885	0	0	0	0	0	0
12.27692	-0.2974094	0.2691885	0	0	0	0	0	0
12.29349	-0.2974094	0.2691885	0	0	0	0	0	0
12.31005	-0.2974094	0.2691885	0	0	0	0	0	0
12.32662	-0.2974094	0.2691885	0	0	0	0	0	0
12.34346	-0.2974094	0.2691885	0	0	0	0	0	0
12.35997	-0.2974094	0.2691885	0	0	0	0	0	0
12.37632	-0.2974094	0.2691885	0	0	0	0	0	0
12.39289	-0.2973853	0.2691706	0.001451773	-0.001081184	0.04410658	-0.03284765	0	0
12.40945	-0.2973853	0.2691706	0	0	-0.04381712	0.03263208	0	0
12.42602	-0.2973853	0.2691706	0	0	0	0	0	0
12.49229	-0.2973853	0.2691706	0	0	0	0	0	0
12.54842	-0.2973613	0.2691527	0.000428984	-0.0003185525	0.003504763	-0.002602547	0	0
12.56512	-0.2973613	0.2691527	0	0	-0.005890272	0.004373964	0	0
12.58155	-0.2973613	0.2691527	0	0	0	0	0	0
12.59812	-0.2973613	0.2691885	0	0.002160445	0	0.06545858	0	0
12.61469	-0.2973613	0.2691885	0	0	0	-0.06520423	0	0
12.63126	-0.2973613	0.2691885	0	0	0	0	0	0
12.64818	-0.2973613	0.2691885	0	0	0	0	0	0
12.66439	-0.2973613	0.2691885	0	0	0	0	0	0
12.6812	-0.2973613	0.2691885	0	0	0	0	0	0
12.69771	-0.2973613	0.2691885	0	0	0	0	0	0
12.71409	-0.2973613	0.2691885	0	0	0	0	0	0
12.73073	-0.2973613	0.2691885	0	0	0	0	0	0
12.74726	-0.2973372	0.2691706	0.001455796	-0.00108418	0.04389305	-0.03268863	0	0
12.76379	-0.2973372	0.2691706	0	0	-0.04404375	0.03280086	0	0
12.78035	-0.2973372	0.2691706	0	0	0	0	0	0
12.79692	-0.2973372	0.2691706	0	0	0	0	0	0
12.81349	-0.2973372	0.2691706	0	0	0	0	0	0
12.83005	-0.2973372	0.2691706	0	0	0	0	0	0
12.84682	-0.2973372	0.2691706	0	0	0	0	0	0
12.86319	-0.2973372	0.2691706	0	0	0	0	0	0
12.87975	-0.2973372	0.2691706	0	0	0	0	0	0
12.89632	-0.2973372	0.2691706	0	0	0	0	0	0
12.91289	-0.2973372	0.2691706	0	0	0	0	0	0
12.92945	-0.2973372	0.2691706	0	0	0	0	0	0
12.94638	-0.2973372	0.2691706	0	0	0	0	0	0
12.96259	-0.2973372	0.2691706	0	0	0	0	0	0
12.97915	-0.2973132	0.2691527	0.001451773	-0.001079385	0.04430426	-0.03293997	0	0
12.99572	-0.2973132	0.2691527	0	0	-0.04381712	0.03257778	0	0
13.01228	-0.2973132	0.2691527	0	0	0	0	0	0
13.02885	-0.2973132	0.2691527	0	0	0	0	0	0
13.04542	-0.2973132	0.2691527	0	0	0	0	0	0
13.06198	-0.2973132	0.2691527	0	0	0	0	0	0
13.07855	-0.2973132	0.2691527	0	0	0	0	0	0
13.09512	-0.2973132	0.2691527	0	0	0	0	0	0
13.11168	-0.2973132	0.2691527	0	0	0	0	0	0
13.13466	-0.2973132	0.2691527	0	0	0	0	0	0
13.15153	-0.2973132	0.2691527	0	0	0	0	0	0
13.1678	-0.2973132	0.2691527	0	0	0	0	0	0
13.18455	-0.2973132	0.2691527	0	0	0	0	0	0
13.20093	-0.2973132	0.2691527	0	0	0	0	0	0
13.21758	-0.2972891	0.2691348	0.001444373	-0.001075673	0.04372844	-0.03256604	0	0
13.23409	-0.2972891	0.2691348	0	0	-0.04356242	0.0324424	0	0
13.25063	-0.2972891	0.2691348	0	0	0	0	0	0
13.2672	-0.2972891	0.2691348	0	0	0	0	0	0
13.28412	-0.2972891	0.2691348	0	0	0	0	0	0
13.30063	-0.2972891	0.2691348	0	0	0	0	0	0
13.3169	-0.2972891	0.2691348	0	0	0	0	0	0
13.33346	-0.2972891	0.2691348	0	0	0	0	0	0
13.35003	-0.2972891	0.2691348	0	0	0	0	0	0
13.39973	-0.2972891	0.2691348	0	0	0	0	0	0
13.41672	-0.2972891	0.2691348	0	0	0	0	0	0
13.43286	-0.2972891	0.2691348	0	0	0	0	0	0
13.44943	-0.2972891	0.2691348	0	0	0	0	0	0
13.466	-0.2972891	0.2691348	0	0	0	0	0	0
13.48256	-0.2972891	0.2691348	0	0	0	0	0	0
13.4993	-0.2972891	0.2691348	0	0	0	0	0	0
13.5157	-0.2972891	0.2691348	0	0	0	0	0	0
13.53229	-0.2972891	0.2691348	0	0	0	0	0	0
13.54883	-0.2972891	0.2691348	0	0	0	0	0	0
13.56539	-0.297265	0.2691169	0.001453572	-0.001081184	0.04391439	-0.03266405	0	0
13.58196	-0.297265	0.2691169	0	0	-0.04387142	0.03263208	0	0
13.59884	-0.297265	0.2691169	0	0	0	0	0	0
13.61535	-0.297265	0.2691169	0	0	0	0	0	0
13.63166	-0.297265	0.2691169	0	0	0	0	0	0
13.64823	-0.297265	0.2691169	0	0	0	0	0	0
13.66489	-0.297265	0.2691169	0	0	0	0	0	0
13.68136	-0.2972891	0.2691348	-0.001461819	0.001087318	-0.04411906	0.03281628	0	0
13.69793	-0.2972891	0.2691348	0	0	0.04424385	-0.03290911	0	0
13.71449	-0.2972891	0.2691348	0	0	0	0	0	0
13.73106	-0.2972891	0.2691348	0	0	0	0	0	0
13.74763	-0.2972891	0.2691348	0	0	0	0	0	0
13.76446	-0.2972891	0.2691348	0	0	0	0	0	0
13.78076	-0.2972891	0.2691348	0	0	0	0	0	0
13.79748	-0.2972891	0.2691348	0	0	0	0	0	0
13.81389	-0.2972891	0.2691348	0	0	0	0	0	0
13.83377	-0.2972891	0.2691348	0	0	0	0	0	0
13.85052	-0.2972891	0.2691348	0	0	0	0	0	0
13.8669	-0.2972891	0.2691348	0	0	0	0	0	0
13.88354	-0.2972891	0.2691348	0	0	0	0	0	0
13.90004	-0.2972891	0.2691348	0	0	0	0	0	0
13.9166	-0.2972891	0.2691348	0	0	0	0	0	0
13.93317	-0.2972891	0.2691348	0	0	0	0	0	0
13.94974	-0.297265	0.2691527	0.001453572	0.001081184	0.04387142	0.03263208	0	0
13.9663	-0.297265	0.2691527	0	0	-0.04387142	-0.03263208	0	0
13.98287	-0.297265	0.2691527	0	0	0	0	0	0
13.99944	-0.297265	0.2691527	0	0	0	0	0	0
14.016	-0.297265	0.2691527	0	0	0	0	0	0
14.03257	-0.297265	0.2691527	0	0	0	0	0	0
14.04913	-0.297265	0.2691527	0	0	0	0	0	0
14.0657	-0.297265	0.2691527	0	0	0	0	0	0
14.08227	-0.297265	0.2691527	0	0	0	0	0	0
14.09883	-0.297265	0.2691527	0	0	0	0	0	0
14.1154	-0.297265	0.2691527	0	0	0	0	0	0
14.13197	-0.297265	0.2691527	0	0	0	0	0	0
14.14873	-0.297265	0.2691527	0	0	0	0	0	0
14.1651	-0.297265	0.2691527	0	0	0	0	0	0
14.18175	-0.297265	0.2691527	0	0	0	0	0	0
14.24793	-0.297241	0.2691348	0.0003633983	-0.0002706349	0.004387155	-0.003267261	0	0
14.29763	-0.297241	0.2691348	0	0	-0.003135884	0.002335398	0	0
14.3142	-0.297241	0.2691348	0	0	0	0	0	0
14.33077	-0.297241	0.2691348	0	0	0	0	0	0
14.34733	-0.297241	0.2691348	0	0	0	0	0	0
14.3639	-0.297241	0.2691348	0	0	0	0	0	0
14.38047	-0.297241	0.2691348	0	0	0	0	0	0
14.3974	-0.297241	0.2691348	0	0	0	0	0	0
14.4136	-0.297265	0.2691527	-0.001484679	0.00110569	-0.04480898	0.03337075	0	0
14.43042	-0.297265	0.2691527	0	0	0.04495779	-0.03348158	0	0
14.44673	-0.297265	0.2691527	0	0	0	0	0	0
14.46345	-0.297265	0.2691527	0	0	0	0	0	0
14.47996	-0.297265	0.2691527	0	0	0	0	0	0
14.49643	-0.297241	0.2691348	0.00146001	-0.001087318	0.0442632	-0.03296429	0	0
14.513	-0.297241	0.2691348	0	0	-0.0441891	0.03290911	0	0
14.52999	-0.297241	0.2691348	0	0	0	0	0	0
14.55077	-0.297241	0.2691348	0	0	0	0	0	0
14.56734	-0.297241	0.2691348	0	0	0	0	0	0
14.58403	-0.297241	0.2691348	0	0	0	0	0	0
14.60047	-0.2972169	0.2691169	0.001462889	-0.001089463	0.04415136	-0.032881	0	0
14.61704	-0.2972169	0.2691169	0	0	-0.04432103	0.03300736	0	0
14.63361	-0.2972169	0.2691169	0	0	0	0	0	0
14.65017	-0.2972169	0.2691169	0	0	0	0	0	0
14.66674	-0.2972169	0.2691169	0	0	0	0	0	0
14.6836	-0.2972169	0.2691169	0	0	0	0	0	0
14.69987	-0.2972169	0.2691169	0	0	0	0	0	0
14.71644	-0.2972169	0.2691169	0	0	0	0	0	0
14.73301	-0.2972169	0.2691169	0	0	0	0	0	0
14.74957	-0.2972169	0.2691169	0	0	0	0	0	0
14.76614	-0.2972169	0.2691169	0	0	0	0	0	0
14.78271	-0.2972169	0.2691169	0	0	0	0	0	0
14.79927	-0.2972169	0.2691169	0	0	0	0	0	0
14.81584	-0.2971929	0.269099	0.001451773	-0.001079385	0.04381712	-0.03257778	0	0
14.83241	-0.2971447	0.2690632	0.002905345	-0.002162368	0.04387141	-0.03268638	0	0
14.84897	-0.2970485	0.2689916	0.005808891	-0.004321139	0.08763424	-0.06515557	0	0
14.86573	-0.2968079	0.2687768	0.01435892	-0.01281723	0.2565563	-0.2549377	0	0
14.88224	-0.2963506	0.2684366	0.02769915	-0.02060287	0.4009815	-0.2340213	0	0
14.89867	-0.2962543	0.268365	0.005860055	-0.004358314	-0.6629788	0.4931429	0	0
14.91524	-0.2960617	0.2682218	0.01162498	-0.008644076	0.1747048	-0.1298791	0	0
14.9318	-0.2956283	0.2678638	0.0261625	-0.02161289	0.4387684	-0.3914221	0	0
14.94837	-0.2941345	0.266718	0.09017004	-0.0691634	1.931863	-1.43516	0	0
14.96494	-0.2918913	0.2649812	0.1354071	-0.1048389	1.365335	-1.07675	0	0
14.9815	-0.287178	0.2612742	0.2844934	-0.2237581	4.499562	-3.589091	0	0
14.99807	-0.2822331	0.257154	0.2984914	-0.2487065	0.4224736	-0.7529683	0	0
15.01464	-0.279415	0.2538211	0.1701147	-0.2011884	-3.874639	1.434183	0	0
15.0312	-0.2799741	0.2457357	-0.03375237	-0.488062	-6.153075	-8.65836	0	0
15.04777	-0.2850952	0.2331566	-0.3091251	-0.7593205	-8.311244	-8.187069	0	0
15.06437	-0.2915292	0.2238511	-0.3876221	-0.5606148	-2.366863	5.991433	0	0
15.14717	-0.3250233	0.1780339	-0.4045184	-0.5533484	-0.169985	0.07310366	0	0
15.1803	-0.346068	0.1482205	-0.6351312	-0.8997709	-1.989167	-2.988092	0	0
15.19687	-0.3564615	0.1364345	-0.627389	-0.7114444	0.1557769	3.78921	0	0
15.21344	-0.3657888	0.129274	-0.5630289	-0.4322353	1.942505	8.427032	0	0
15.23	-0.3744802	0.1223409	-0.5246406	-0.4185046	1.158628	0.4144165	0	0
15.24657	-0.377349	0.1200765	-0.1731766	-0.1366884	10.60782	8.505721	0	0
15.26313	-0.3925617	0.1077684	-0.9182906	-0.7429633	-22.48888	-18.29847	0	0
15.28412	-0.4012241	0.1006764	-0.4127582	-0.3379313	13.4619	10.78566	0	0
15.30103	-0.4068085	0.09607081	-0.3301973	-0.2723163	2.178443	1.73131	0	0
15.36492	-0.4228758	0.08259402	-0.2514932	-0.2109453	0.9740598	0.7595419	0	0
15.38149	-0.423554	0.08202315	-0.04093277	-0.03445585	2.617095	2.193621	0	0
15.39806	-0.4236415	0.08191265	-0.005279993	-0.006670151	1.076003	0.8385742	0	0
15.41462	-0.4236415	0.08191265	0	0	0.1593597	0.2013171	0	0
15.43119	-0.4236196	0.08189423	0.001320448	-0.001111767	0.03985349	-0.03355512	0	0
15.44775	-0.4236196	0.08189423	0	0	-0.03985234	0.03355416	0	0
15.48116	-0.4235978	0.08187582	0.0006539224	-0.0005513289	0.01308539	-0.01103243	0	0
15.49745	-0.4235978	0.08187582	0	0	-0.01315745	0.01109318	0	0
15.51402	-0.4235759	0.0818574	0.001320448	-0.001111767	0.04018429	-0.03383364	0	0
15.53059	-0.4235759	0.0818574	0	0	-0.03985349	0.03355512	0	0
15.54721	-0.4235759	0.0818574	0	0	0	0	0	0
15.56372	-0.4235759	0.0818574	0	0	0	0	0	0
15.58029	-0.4235759	0.0818574	0	0	0	0	0	0
15.59685	-0.423554	0.08183898	0.001320448	-0.001111767	0.03985349	-0.03355512	0	0
15.61342	-0.423554	0.08183898	0	0	-0.03985349	0.03355512	0	0
15.62998	-0.4235321	0.08182056	0.001320448	-0.001111767	0.03985349	-0.03355512	0	0
15.64655	-0.4234884	0.08178373	0.002640896	-0.002223534	0.03985349	-0.03355512	0	0
15.66329	-0.4233134	0.08163638	0.01045585	-0.008804924	0.2346804	-0.197637	0	0
15.6798	-0.4228539	0.08124959	0.02782791	-0.02342532	0.5225304	-0.4397634	0	0
15.69631	-0.4205318	0.07929664	0.1406422	-0.1182818	3.416245	-2.872447	0	0
15.71282	-0.4148596	0.07453949	0.3435605	-0.2881374	6.145134	-5.14387	0	0
15.72938	-0.4102659	0.07070034	0.2772923	-0.2317449	-2.003496	1.704922	0	0
15.74595	-0.4055205	0.06674672	0.2864508	-0.2386548	0.2764224	-0.2085521	0	0
15.76252	-0.4012018	0.06315929	0.2606931	-0.2165503	-0.7774146	0.6671522	0	0
15.77908	-0.3958595	0.05873532	0.3224789	-0.2670464	1.864807	-1.524064	0	0
15.79588	-0.3922472	0.05575239	0.2150804	-0.1776067	-3.219241	2.680931	0	0
15.81222	-0.3882634	0.0524704	0.243831	-0.2008761	0.8677189	-0.7022926	0	0
15.89545	-0.3863005	0.05085621	0.02358377	-0.01939416	-2.211999	1.82267	0	0
15.91162	-0.3863005	0.05085621	0	0	-0.2372623	0.1951131	0	0
15.92818	-0.3863005	0.05085621	0	0	0	0	0	0
15.94475	-0.3863005	0.05085621	0	0	0	0	0	0
15.96132	-0.3863005	0.05085621	0	0	0	0	0	0
15.97788	-0.3863005	0.05085621	0	0	0	0	0	0
15.99452	-0.3863005	0.05085621	0	0	0	0	0	0
16.01103	-0.3863005	0.05085621	0	0	0	0	0	0
16.02758	-0.3863005	0.05085621	0	0	0	0	0	0
16.04902	-0.3863005	0.05085621	0	0	0	0	0	0
16.06558	-0.3863005	0.05085621	0	0	0	0	0	0
16.08215	-0.3863005	0.05085621	0	0	0	0	0	0
16.0991	-0.3863005	0.05085621	0	0	0	0	0	0
16.11528	-0.3863005	0.05085621	0	0	0	0	0	0
16.13185	-0.3863005	0.05085621	0	0	0	0	0	0
16.14842	-0.3863005	0.05085621	0	0	0	0	0	0
16.16514	-0.3863005	0.05085621	0	0	0	0	0	0
16.18155	-0.3863005	0.05085621	0	0	0	0	0	0
16.19816	-0.3863005	0.05085621	0	0	0	0	0	0
16.21469	-0.3863005	0.05085621	0	0	0	0	0	0
16.23125	-0.3863005	0.05085621	0	0	0	0	0	0
16.24782	-0.3863005	0.05085621	0	0	0	0	0	0
16.26439	-0.3863005	0.05085621	0	0	0	0	0	0
16.28096	-0.3863005	0.05085621	0	0	0	0	0	0
16.29752	-0.3863005	0.05085621	0	0	0	0	0	0
16.31425	-0.3863005	0.05085621	0	0	0	0	0	0
16.33076	-0.3863005	0.05085621	0	0	0	0	0	0
16.34722	-0.3863005	0.05085621	0	0	0	0	0	0
16.36379	-0.3863005	0.05085621	0	0	0	0	0	0
16.38036	-0.3863005	0.05085621	0	0	0	0	0	0
16.39692	-0.3863005	0.05085621	0	0	0	0	0	0
16.41349	-0.3863005	0.05085621	0	0	0	0	0	0
16.43006	-0.3863005	0.05085621	0	0	0	0	0	0
16.44684	-0.3863005	0.05085621	0	0	0	0	0	0
16.46319	-0.3863005	0.05085621	0	0	0	0	0	0
16.47976	-0.3863005	0.05085621	0	0	0	0	0	0
16.49632	-0.3863005	0.05085621	0	0	0	0	0	0
16.51289	-0.3863005	0.05085621	0	0	0	0	0	0
16.52991	-0.3863005	0.05085621	0	0	0	0	0	0
16.54602	-0.3863005	0.05085621	0	0	0	0	0	0
16.56293	-0.3863005	0.05085621	0	0	0	0	0	0
16.57916	-0.3863005	0.05085621	0	0	0	0	0	0
16.59595	-0.3863005	0.05085621	0	0	0	0	0	0
16.61246	-0.3863005	0.05085621	0	0	0	0	0	0
16.62886	-0.3863231	0.05087477	-0.001377821	0.001131976	-0.04186953	0.03439875	0	0
16.6655	-0.3863682	0.05091188	-0.00123214	0.001012856	0.002746648	-0.002245882	0	0
16.68192	-0.3865263	0.05104179	-0.009625857	0.007911881	-0.1581857	0.1300171	0	0
16.69849	-0.3868197	0.05132013	-0.01771349	0.01680079	-0.2451862	0.2694777	0	0
16.71506	-0.3869326	0.05141291	-0.006810528	0.005600112	0.3290521	-0.338037	0	0
16.73162	-0.3869551	0.05146857	-0.001361746	0.003359843	0.1644446	-0.06761147	0	0
16.74856	-0.3869777	0.05163556	-0.001333756	0.009859323	0.0008354165	0.1939883	0	0
16.76507	-0.3870228	0.0518582	-0.0027323	0.01348216	-0.04180863	0.1083025	0	0
16.78132	-0.3871808	0.05221069	-0.00972206	0.02169601	-0.2133586	0.2507235	0	0
16.79809	-0.3871582	0.05252605	0.001345022	0.01880144	0.3351628	-0.08766121	0	0
16.81446	-0.3865488	0.05373161	0.03724462	0.07368345	1.083452	1.656342	0	0
16.83112	-0.3855777	0.05512217	0.05827587	0.08344451	0.6368137	0.2955593	0	0
16.86415	-0.3820934	0.06312229	0.1054724	0.242169	0.9496317	3.193666	0	0
16.88072	-0.3789628	0.06900112	0.1889643	0.3548468	1.68322	2.271614	0	0
16.89729	-0.3784175	0.07232503	0.03291216	0.2006318	-4.709662	-4.654218	0	0
16.91386	-0.3746397	0.07951777	0.2280286	0.434155	5.888626	7.047745	0	0
16.93069	-0.3701418	0.08458228	0.2671882	0.3008454	1.172392	-3.991127	0	0
16.94699	-0.3670275	0.09061517	0.1910616	0.370111	-2.297506	2.09044	0	0
16.96371	-0.3602464	0.1008047	0.4054766	0.6092908	6.492735	7.24264	0	0
16.98012	-0.3559068	0.1042512	0.2644699	0.2100362	-4.255836	-12.05022	0	0
16.99669	-0.3516226	0.1076402	0.2585896	0.2045596	-0.1783188	-0.1660779	0	0
17.01326	-0.3406547	0.1163307	0.6620262	0.5245582	12.17574	9.657577	0	0
17.02983	-0.3357133	0.1202592	0.2982637	0.2371246	-10.97837	-8.674764	0	0
17.04639	-0.3306371	0.1244948	0.3064018	0.2556655	0.2456081	0.5595674	0	0
17.06296	-0.3268655	0.1306595	0.2276544	0.3720993	-2.376601	3.513978	0	0
17.07953	-0.3250469	0.1425853	0.1097545	0.7197599	-3.558021	10.49181	0	0
17.09631	-0.3238885	0.1530696	0.06902418	0.6247061	-1.22123	-2.850028	0	0
17.11266	-0.3211899	0.1673213	0.1650734	0.8717787	2.899104	7.457526	0	0
17.12934	-0.3188187	0.174055	0.1421905	0.4037936	-0.6929188	-14.17113	0	0
17.14584	-0.3121597	0.186671	0.4033777	0.7642331	7.870865	10.86183	0	0
17.16236	-0.3072423	0.1923028	0.2977448	0.3409973	-3.198689	-12.81607	0	0
17.17893	-0.2972891	0.1998592	0.6007746	0.4561048	9.159695	3.479361	0	0
17.19549	-0.2755204	0.2160833	1.313961	0.9792887	21.524	15.78972	0	0
17.21206	-0.2645701	0.2241746	0.6609613	0.4883928	-19.70756	-14.81527	0	0
17.22891	-0.2610364	0.2267982	0.2097699	0.155744	-13.5035	-9.955688	0	0
17.24519	-0.2440621	0.2396903	1.042212	0.7915621	25.12459	19.19013	0	0
17.26176	-0.2368136	0.2492323	0.4375171	0.5759565	-18.40546	-6.562522	0	0
17.27833	-0.2316597	0.2599666	0.3110906	0.6479248	-3.815559	2.17201	0	0
17.2949	-0.2265932	0.2746651	0.3058145	0.8872036	-0.1592325	7.221447	0	0
17.31146	-0.2227918	0.285291	0.2294815	0.6414508	-2.303867	-7.417262	0	0
17.32803	-0.2168515	0.2989671	0.3585547	0.8254914	3.895662	5.554678	0	0
17.34796	-0.209612	0.3120462	0.3632835	0.6563203	0.1295722	-4.635435	0	0
17.36452	-0.2017945	0.3206914	0.4718657	0.5218275	2.975245	-3.685217	0	0
17.38109	-0.1951679	0.3299782	0.3999845	0.5605482	-2.169376	1.168594	0	0
17.39766	-0.1886	0.3396033	0.3964381	0.5809762	-0.1070329	0.6165165	0	0
17.41422	-0.1840511	0.3499071	0.2746015	0.6220064	-3.677247	1.238364	0	0
17.43079	-0.1807936	0.3603726	0.1966266	0.6317026	-2.353423	0.2926501	0	0
17.44756	-0.1777106	0.3736813	0.1838461	0.7936263	-0.3833757	4.857229	0	0
17.46392	-0.1742668	0.3841358	0.2104567	0.6389093	0.8031543	-4.669636	0	0
17.48049	-0.1705634	0.3897672	0.2235413	0.3399094	0.397342	-9.079762	0	0
17.49706	-0.1648585	0.3935402	0.3443481	0.2277408	3.645958	-3.385256	0	0
17.5141	-0.1632448	0.3946669	0.09465554	0.06608896	-7.427986	-4.808903	0	0
17.53019	-0.1631423	0.3946669	0.006370235	0	-2.664456	-1.994569	0	0
17.54676	-0.1629373	0.3944881	0.01237264	-0.01079503	0.1838194	-0.3305902	0	0
17.56333	-0.162758	0.3943629	0.01082651	-0.00755706	-0.04666231	0.09772212	0	0
17.57989	-0.1627323	0.3943092	0.00154703	-0.003237969	-0.2800553	0.1303504	0	0
17.59667	-0.1626811	0.3941661	0.003054825	-0.008529349	0.04522162	-0.1586984	0	0
17.61303	-0.1627067	0.3941483	-0.001565779	-0.00109304	-0.1394501	0.2244283	0	0
17.62959	-0.1627323	0.3941304	-0.00154703	-0.001079323	0.0005694305	0.0004165792	0	0
17.64616	-0.1628092	0.3940052	-0.004640189	-0.00755706	-0.09335174	-0.1954985	0	0
17.66273	-0.1629117	0.3938621	-0.00618632	-0.008634584	-0.04666231	-0.03251974	0	0
17.6793	-0.1634241	0.3934329	-0.0309307	-0.02590735	-0.7467869	-0.5212931	0	0
17.69625	-0.1645256	0.3926282	-0.06497085	-0.0474692	-1.015525	-0.6432581	0	0
17.71243	-0.1650121	0.3922884	-0.03006763	-0.02099724	1.053381	0.7989252	0	0
17.729	-0.1654986	0.3918056	-0.02936298	-0.02914172	0.02151634	-0.2486926	0	0
17.74556	-0.1654474	0.3917699	0.003090817	-0.002158895	0.9795141	0.8143902	0	0
17.76213	-0.1651914	0.3915553	0.01545411	-0.01295188	0.3731463	-0.3257516	0	0
17.7788	-0.1649865	0.3913765	0.01228815	-0.01072655	-0.09525267	0.06695253	0	0
17.79527	-0.1648585	0.391144	0.007776298	-0.01411898	-0.136168	-0.1023838	0	0
17.81183	-0.163501	0.3899817	0.08193771	-0.0701542	2.245175	-1.69642	0	0
17.8284	-0.1613739	0.3883905	0.1283909	-0.09604716	1.401959	-0.781451	0	0
17.84497	-0.1587322	0.3862631	0.159452	-0.1284125	0.9374263	-0.9767867	0	0
17.86153	-0.1548554	0.3829561	0.2340035	-0.1996082	2.24997	-2.148692	0	0
17.8781	-0.1565505	0.3798462	-0.1023153	-0.1877123	-10.15012	0.3590202	0	0
17.89489	-0.1578854	0.3780591	-0.07952947	-0.1064719	0.6831952	2.435853	0	0
17.9114	-0.1674692	0.3675533	-0.5804199	-0.6362572	-15.0433	-15.9111	0	0
17.9278	-0.1711256	0.3647488	-0.2228774	-0.1709558	10.86193	14.13559	0	0
17.94442	-0.1758744	0.3608192	-0.2857202	-0.2364299	-1.902841	-1.982517	0	0
17.96094	-0.1811246	0.3563898	-0.3179607	-0.2682529	-0.9730774	-0.9604769	0	0
17.98042	-0.185958	0.3528894	-0.2481023	-0.1796753	1.940857	2.46093	0	0
17.99698	-0.1910871	0.3492463	-0.3095912	-0.2198977	-1.705709	-1.115774	0	0
18.01355	-0.1942559	0.3469784	-0.1912731	-0.1368941	3.570847	2.505052	0	0
18.03012	-0.1971931	0.3449069	-0.1772878	-0.1250324	0.4220783	0.3579885	0	0
18.04669	-0.1971678	0.344889	0.001527242	-0.001079323	5.396648	3.740911	0	0
18.06325	-0.1971425	0.3449426	0.001527242	0.003234371	0	0.1301876	0	0
18.09639	-0.1971425	0.3449426	0	0	-0.03072935	-0.06507818	0	0
18.11295	-0.1971425	0.3449426	0	0	0	0	0	0
18.12952	-0.1971425	0.3449426	0	0	0	0	0	0
18.14609	-0.1971425	0.3449426	0	0	0	0	0	0
18.16265	-0.1971678	0.3449605	-0.001527242	0.001077524	-0.04609226	0.03251974	0	0
18.17922	-0.1971425	0.3449783	0.001527242	0.001077524	0.09218452	0	0	0
18.1961	-0.1971172	0.3449962	0.001498941	0.001059322	-0.0008461528	-0.0005442034	0	0
18.21235	-0.1971172	0.3450319	0	0.002196779	-0.04524072	0.03433048	0	0
18.22892	-0.1970919	0.3450498	0.001528142	0.001077524	0.04656165	-0.03410308	0	0
18.24564	-0.197016	0.3451034	0.004542359	0.003205951	0.09056782	0.06395259	0	0
18.27862	-0.1969907	0.3451212	0.0007670208	0.0005411608	-0.07595995	-0.05361569	0	0
18.29519	-0.197016	0.3451391	-0.001527418	0.001077648	-0.0463028	0.01082656	0	0
18.31176	-0.197016	0.3451391	0	0	0.04610022	-0.03252536	0	0
18.32832	-0.197016	0.3451391	0	0	0	0	0	0
18.34521	-0.197016	0.3451391	0	0	0	0	0	0
18.36178	-0.197016	0.3451391	0	0	0	0	0	0
18.37802	-0.1969907	0.3451212	0.001558095	-0.001099292	0.04748537	-0.03350263	0	0
18.39459	-0.1969907	0.3451212	0	0	-0.04749365	0.03350848	0	0
18.41116	-0.1969907	0.3451212	0	0	0	0	0	0
18.42772	-0.1969907	0.3451212	0	0	0	0	0	0
18.44429	-0.1969907	0.3451212	0	0	0	0	0	0
18.46086	-0.1969907	0.3451212	0	0	0	0	0	0
18.4778	-0.1969907	0.3451212	0	0	0	0	0	0
18.49399	-0.1969907	0.3451212	0	0	0	0	0	0
18.51056	-0.1969907	0.3451212	0	0	0	0	0	0
18.52712	-0.1969907	0.3451212	0	0	0	0	0	0
18.54369	-0.1969907	0.3451212	0	0	0	0	0	0
18.56026	-0.1969907	0.3451212	0	0	0	0	0	0
18.57688	-0.1969654	0.3451748	0.001522684	0.003222925	0.04588602	0.09712272	0	0
18.59339	-0.1969654	0.3451748	0	0	-0.04595735	-0.09727368	0	0
18.60996	-0.19694	0.3451926	0.001528142	0.001079323	0.0461912	0.03262474	0	0
18.62653	-0.1969147	0.3452105	0.001527242	0.001077524	-2.714469E-05	-5.428939E-05	0	0
18.64309	-0.1969147	0.3452105	0	0	-0.04609226	-0.03251974	0	0
18.71598	-0.1960035	0.3457462	0.01250323	0.00735044	0.1397777	0.08217296	0	0
18.73252	-0.1958009	0.3458891	0.01224346	0.008634916	-0.002904891	0.01436356	0	0
18.74951	-0.1956743	0.3459783	0.007451208	0.005254518	-0.1429029	-0.1008021	0	0
18.76565	-0.195649	0.3459962	0.001568593	0.001107894	-0.1775479	-0.1251525	0	0
18.78222	-0.1956237	0.3460141	0.001528142	0.001077524	-0.001236788	-0.0009285402	0	0
18.79904	-0.1955984	0.3460319	0.001505437	0.001061515	-0.0006800976	-0.0004795495	0	0
18.81535	-0.195573	0.3460498	0.001552636	0.001094152	0.001424557	0.0009850479	0	0
18.83192	-0.1955224	0.3461212	0.003056283	0.004311895	0.04572761	0.09785525	0	0
18.84848	-0.1954717	0.3461569	0.003057535	0.002155297	3.777145E-05	-0.06509003	0	0
18.86505	-0.1954211	0.3462284	0.003057183	0.004311895	-1.06252E-05	0.06509003	0	0
18.88162	-0.1953705	0.3462641	0.003057183	0.002155048	0	-0.06509378	0	0
18.89818	-0.1952185	0.3463712	0.009172603	0.006469488	0.1845744	0.1302175	0	0
18.91512	-0.1951679	0.3463712	0.002991066	0	-0.1845303	-0.1931262	0	0
18.93163	-0.1951679	0.3463712	0	0	-0.08942633	0	0	0
18.95173	-0.1951679	0.3463712	0	0	0	0	0	0
18.9683	-0.1951679	0.3463712	0	0	0	0	0	0
18.98517	-0.1951679	0.3463712	0	0	0	0	0	0
19.00143	-0.1951932	0.3463534	-0.001556454	-0.00109932	-0.04697387	-0.03317754	0	0
19.018	-0.1951679	0.3463355	0.001528142	-0.001077524	0.09394774	0.0006638344	0	0
19.03457	-0.1951679	0.3463355	0	0	-0.0461194	0.03251974	0	0
19.05113	-0.1951679	0.3463355	0	0	0	0	0	0
19.08427	-0.1951679	0.3462998	0	-0.001077462	0	-0.02167858	0	0
19.10084	-0.1951679	0.3462998	0	0	0	0.02167775	0	0
19.11776	-0.1951679	0.3462641	0	-0.002111153	0	-0.0630326	0	0
19.13397	-0.1951679	0.3462641	0	0	0	0.06371841	0	0
19.15054	-0.1951679	0.3462641	0	0	0	0	0	0
19.1673	-0.1951932	0.3462462	-0.001510405	-0.001065018	-0.04531802	-0.03195468	0	0
19.18367	-0.1951679	0.3462284	0.0015463	-0.001090328	0.09225152	-0.000763867	0	0
19.20032	-0.1951679	0.3462284	0	0	-0.04682105	0.03301449	0	0
19.2168	-0.1951679	0.3462284	0	0	0	0	0	0
19.23385	-0.1951932	0.3462105	-0.001485555	-0.001047496	-0.04431377	-0.03124656	0	0
19.24994	-0.1951932	0.3462105	0	0	0.04483673	0.03161531	0	0
19.26687	-0.1951679	0.3461927	0.001495262	-0.00105434	0.04528087	-0.03192848	0	0
19.30378	-0.1951679	0.3461927	0	0	-0.02777297	0.0195833	0	0
19.32034	-0.1951679	0.3461927	0	0	0	0	0	0
19.33692	-0.1951679	0.3461927	0	0	0	0	0	0
19.35348	-0.1951679	0.3461927	0	0	0	0	0	0
19.37004	-0.1951679	0.3461927	0	0	0	0	0	0
19.38661	-0.1951679	0.3461927	0	0	0	0	0	0
19.40318	-0.1951679	0.3461927	0	0	0	0	0	0
19.41974	-0.1951679	0.3461927	0	0	0	0	0	0
19.43649	-0.1951679	0.3461927	0	0	0	0	0	0
19.45288	-0.1951679	0.3461927	0	0	0	0	0	0
19.46944	-0.1951679	0.3461927	0	0	0	0	0	0
19.48601	-0.1951932	0.3461748	-0.001528142	-0.001079323	-0.0461194	-0.03257403	0	0
19.50304	-0.1951932	0.3461748	0	0	0.04549093	0.03213014	0	0
19.53571	-0.1951932	0.3461748	0	0	0	0	0	0
19.55257	-0.1951932	0.3461748	0	0	0	0	0	0
19.56885	-0.1952185	0.3461569	-0.001556457	-0.001096845	-0.04697397	-0.03310283	0	0
19.58541	-0.1952185	0.3461212	0	-0.002155048	0.04739136	-0.03222043	0	0
19.60198	-0.1952185	0.3460498	0	-0.004311895	0	-0.06509378	0	0
19.61862	-0.1952185	0.3460498	0	0	0	0.1298492	0	0
19.63513	-0.1951932	0.3459962	0.001534163	-0.003243401	0.04627716	-0.09783535	0	0
19.66825	-0.1951172	0.3459069	0.002293983	-0.002696262	0.01531051	0.01102496	0	0
19.68482	-0.1951172	0.3458712	0	-0.002156847	-0.04617274	0.01085721	0	0
19.70138	-0.1950919	0.3458534	0.001529041	-0.001077524	0.04614655	0.03257403	0	0
19.71819	-0.1950665	0.3458355	0.001507007	-0.001061996	-0.0006601696	0.0004652261	0	0
19.7347	-0.1950665	0.3457998	0	-0.002164072	-0.04522642	-0.03307414	0	0
19.75122	-0.1950665	0.3457998	0	0	0	0.06553062	0	0
19.76765	-0.1950412	0.3457819	0.001540557	-0.001086278	0.04676058	-0.03297185	0	0
19.78422	-0.1950412	0.3457819	0	0	-0.0466822	0.03291659	0	0
19.80079	-0.1950412	0.3457819	0	0	0	0	0	0
19.81735	-0.1950412	0.3457819	0	0	0	0	0	0
19.83392	-0.1950412	0.3457819	0	0	0	0	0	0
19.85049	-0.1950412	0.3457819	0	0	0	0	0	0
19.86705	-0.1950412	0.3457819	0	0	0	0	0	0
19.88431	-0.1950412	0.3457819	0	0	0	0	0	0
19.90019	-0.1950412	0.3457819	0	0	0	0	0	0
19.91676	-0.1950412	0.3457819	0	0	0	0	0	0
19.93332	-0.1950412	0.3457819	0	0	0	0	0	0
19.94989	-0.1950665	0.3457641	-0.001528142	-0.001077524	-0.04612206	-0.03252162	0	0
19.96688	-0.1950665	0.3457641	0	0	0.04554265	0.03211306	0	0
19.98302	-0.1950665	0.3457641	0	0	0	0	0	0
19.9999	-0.1950665	0.3457641	0	0	0	0	0	0
20.01898	-0.1950412	0.3457462	0.001326946	-0.0009356568	0.03690529	-0.02602268	0	0
20.03592	-0.1950412	0.3457462	0	0	-0.03683495	0.02597308	0	0
20.05243	-0.1950412	0.3457462	0	0	0	0	0	0
20.06868	-0.1950412	0.3457462	0	0	0	0	0	0
20.08525	-0.1950412	0.3457462	0	0	0	0	0	0
20.10197	-0.1950412	0.3457462	0	0	0	0	0	0
20.11848	-0.1950412	0.3457462	0	0	0	0	0	0
20.13499	-0.1950412	0.3457462	0	0	0	0	0	0
20.15151	-0.1950412	0.3457462	0	0	0	0	0	0
20.16808	-0.1950665	0.3457284	-0.001528142	-0.001077524	-0.04618587	-0.03256661	0	0
20.18465	-0.1950412	0.3457105	0.001528142	-0.001079323	0.09223881	-5.428939E-05	0	0
20.20121	-0.1950412	0.3457105	0	0	-0.0461194	0.03257403	0	0
20.21778	-0.1950665	0.3456926	-0.001528317	-0.001077648	-0.04612737	-0.03252536	0	0
20.23435	-0.1950412	0.3456748	0.001528142	-0.001077524	0.09224943	3.745523E-06	0	0
20.25108	-0.1950412	0.3456748	0	0	-0.04589222	0.03235955	0	0
20.26748	-0.1950412	0.3456391	0	-0.002176599	0	-0.06568988	0	0
20.2841	-0.1950665	0.3456212	-0.001523581	-0.001076102	-0.04614113	0.03332818	0	0
20.30061	-0.1950665	0.3455855	0	-0.002161768	0.04598441	-0.03276736	0	0
20.31718	-0.1950412	0.3455676	0.001528142	-0.001077524	0.0461912	0.03277348	0	0
20.33375	-0.1950159	0.3455498	0.001529041	-0.001077524	2.714469E-05	0	0	0
20.35032	-0.1950159	0.3455498	0	0	-0.04614655	0.03251974	0	0
20.36688	-0.1950159	0.3455498	0	0	0	0	0	0
20.38367	-0.1950159	0.3455498	0	0	0	0	0	0
20.40018	-0.1950159	0.3455498	0	0	0	0	0	0
20.41658	-0.1950159	0.3455498	0	0	0	0	0	0
20.46628	-0.1950159	0.3455498	0	0	0	0	0	0
20.48324	-0.1950159	0.3455498	0	0	0	0	0	0
20.49942	-0.1950159	0.3455498	0	0	0	0	0	0
20.51627	-0.1950159	0.3455498	0	0	0	0	0	0
20.53255	-0.1950159	0.3455498	0	0	0	0	0	0
20.54929	-0.1950159	0.3455141	0	-0.002134485	0	-0.06463841	0	0
20.56568	-0.1950159	0.3455141	0	0	0	0.06441888	0	0
20.58225	-0.1950159	0.3455141	0	0	0	0	0	0
20.59882	-0.1950159	0.3455141	0	0	0	0	0	0
20.61538	-0.1950159	0.3455141	0	0	0	0	0	0
20.63235	-0.1950159	0.3455141	0	0	0	0	0	0
20.64852	-0.1950159	0.3454784	0	-0.002208181	0	-0.06664687	0	0
20.66508	-0.1949906	0.3454605	0.001529041	-0.001077524	0.04670849	0.03453882	0	0
20.68189	-0.1949906	0.3454605	0	0	-0.04581949	0.03228927	0	0
20.69822	-0.1949652	0.3454426	0.001551367	-0.001095082	0.04682303	-0.03305155	0	0
20.71819	-0.1949652	0.3454069	0	-0.001787505	-0.04273435	-0.01907365	0	0
20.73492	-0.1949652	0.3454069	0	0	0	0.04869919	0	0
20.75143	-0.196282	0.3444069	-0.07973478	-0.06055635	-2.398393	-1.821513	0	0
20.81088	-0.1963073	0.3443533	-0.0004259085	-0.0009009506	1.044138	0.7853906	0	0
20.82748	-0.1963326	0.3442641	-0.001523559	-0.005376421	-0.01443331	-0.0588492	0	0
20.84401	-0.1965604	0.3440676	-0.0137848	-0.0118851	-0.3700451	-0.1964323	0	0
20.86058	-0.1968135	0.3438891	-0.01527782	-0.01077884	-0.04511383	0.03342735	0	0
20.87715	-0.1986604	0.3426212	-0.1114797	-0.0765294	-2.903378	-1.984356	0	0
20.89371	-0.2047227	0.3383355	-0.365922	-0.2586868	-7.679085	-5.49752	0	0
20.91028	-0.2146418	0.3314068	-0.5987185	-0.4182143	-7.025811	-4.814551	0	0
20.92706	-0.2218654	0.3262993	-0.4306131	-0.3044663	5.041795	3.411515	0	0
20.94357	-0.2262433	0.3232811	-0.2651359	-0.1827892	4.971219	3.655388	0	0
20.99311	-0.2475281	0.3088484	-0.4296027	-0.2913038	-2.489763	-1.642736	0	0
21.00968	-0.2502966	0.3070975	-0.1671071	-0.1056837	3.970437	2.807638	0	0
21.02625	-0.2531845	0.30515	-0.1743143	-0.1175527	-0.2175133	-0.3582057	0	0
21.04281	-0.2557233	0.3035955	-0.1532405	-0.09383275	0.6360082	0.7158687	0	0
21.05938	-0.2576928	0.3023089	-0.118882	-0.07765729	1.03694	0.4881762	0	0
21.07617	-0.2597095	0.3010222	-0.1201355	-0.07664789	-0.03758059	0.03026333	0	0
21.09252	-0.2597095	0.3010937	0	0.004373396	3.625696	2.445227	0	0
21.10919	-0.2597095	0.3010937	0	0	0	-0.1324545	0	0
21.1257	-0.259685	0.3010758	0.001487236	-0.001082939	0.04482036	-0.03263618	0	0
21.14221	-0.259685	0.3010758	0	0	-0.04503002	0.03278885	0	0
21.15878	-0.259685	0.3010758	0	0	0	0	0	0
21.17535	-0.259685	0.3010758	0	0	0	0	0	0
21.19192	-0.259685	0.3010758	0	0	0	0	0	0
21.20848	-0.2596604	0.301058	0.001484069	-0.001077524	0.04479187	-0.03252162	0	0
21.22505	-0.2596604	0.301058	0	0	-0.0447893	0.03251974	0	0
21.24162	-0.2596604	0.301058	0	0	0	0	0	0
21.30789	-0.2596358	0.3010401	0.0003710173	-0.0002698308	0.00447893	-0.003257403	0	0
21.32445	-0.2596358	0.3010401	0	0	-0.00447893	0.003257403	0	0
21.34102	-0.2596358	0.3010401	0	0	0	0	0	0
21.35759	-0.2596358	0.3010401	0	0	0	0	0	0
21.37438	-0.2596358	0.3010401	0	0	0	0	0	0
21.39089	-0.2596358	0.3010401	0	0	0	0	0	0
21.40729	-0.2596358	0.3010401	0	0	0	0	0	0
21.42666	-0.2596358	0.3010401	0	0	0	0	0	0
21.44343	-0.2596358	0.3010401	0	0	0	0	0	0
21.45979	-0.2596358	0.3010401	0	0	0	0	0	0
21.47636	-0.2596358	0.3010401	0	0	0	0	0	0
21.49293	-0.2596112	0.3010222	0.001484069	-0.001079323	0.0447893	-0.03257403	0	0
21.5095	-0.2596358	0.3010044	-0.001483386	-0.001077028	-0.08953736	6.924062E-05	0	0
21.52606	-0.2596358	0.3010044	0	0	0.04476868	0.03250477	0	0
21.54263	-0.2596358	0.3010044	0	0	0	0	0	0
21.5592	-0.2596358	0.3010044	0	0	0	0	0	0
21.57576	-0.2596112	0.3009865	0.001484069	-0.001079323	0.0447893	-0.03257403	0	0
21.59233	-0.2596112	0.3009865	0	0	-0.0447893	0.03257403	0	0
21.6089	-0.2596112	0.3009865	0	0	0	0	0	0
21.62547	-0.2596112	0.3009865	0	0	0	0	0	0
21.64203	-0.2596112	0.3009865	0	0	0	0	0	0
21.6586	-0.2595866	0.3010044	0.001484069	0.001079323	0.0447893	0.03257403	0	0
21.67517	-0.2595866	0.3010044	0	0	-0.0447893	-0.03257403	0	0
21.72514	-0.259685	0.3010758	-0.001968184	0.001430214	-0.02958077	0.02149536	0	0
21.74165	-0.2597587	0.3011295	-0.004465317	0.003247011	-0.0375618	0.02732821	0	0
21.75816	-0.2599061	0.3012367	-0.008930634	0.006494022	-0.135215	0.09832326	0	0
21.77457	-0.2605696	0.3017192	-0.04043466	0.02940471	-0.956963	0.6959329	0	0
21.79114	-0.2625587	0.3031666	-0.1200585	0.08736581	-2.414589	1.757667	0	0
21.8077	-0.2664814	0.3060255	-0.2367765	0.172564	-3.522556	2.571286	0	0
21.82471	-0.2710554	0.3093665	-0.2689971	0.1964824	-0.9597688	0.712468	0	0
21.84084	-0.274326	0.3117604	-0.2027795	0.1484246	1.998568	-1.450472	0	0
21.8574	-0.28012	0.3160118	-0.3497258	0.2566163	-4.494355	3.309043	0	0
21.87397	-0.2824273	0.3177087	-0.139274	0.1024242	6.351448	-4.653527	0	0
21.89054	-0.28398	0.3188518	-0.09372122	0.06899932	1.374787	-1.008764	0	0
21.90727	-0.2840043	0.3188697	-0.00144831	0.001067082	2.771242	-2.040216	0	0
21.92378	-0.2840043	0.3188697	0	0	0.04356962	-0.03210111	0	0
21.94024	-0.28398	0.3188518	0.001472143	-0.001084642	0.04465042	-0.03289742	0	0
21.95681	-0.2839558	0.3188339	0.001463776	-0.00107895	-0.0002533146	0.0001723068	0	0
21.97337	-0.2838588	0.3187625	0.005858025	-0.004313882	0.1326263	-0.09763605	0	0
21.98994	-0.2838103	0.3187267	0.002926764	-0.002156847	-0.088486	0.06511443	0	0
22.0065	-0.2837375	0.3186732	0.004392845	-0.003234371	0.04424639	-0.03251974	0	0
22.02307	-0.283689	0.3186375	0.002926764	-0.002155048	-0.04424639	0.03257403	0	0
22.03964	-0.2836162	0.3185839	0.004392845	-0.003234371	0.04424639	-0.03257403	0	0
22.07277	-0.2835435	0.3185303	0.002196422	-0.001617186	-0.04419211	0.03253784	0	0
22.14539	-0.2823302	0.317923	0.01670724	-0.008362855	0.1372168	-0.06378821	0	0
22.16196	-0.2820389	0.3178873	0.01758397	-0.002156847	0.0098306	0.06958671	0	0
22.17852	-0.281869	0.3179409	0.01025717	0.003234371	-0.2211234	0.1627073	0	0
22.19547	-0.2817476	0.3179587	0.007163656	0.00105503	-0.0922997	-0.06502403	0	0
22.21166	-0.2815048	0.3180302	0.01500442	0.00441404	0.2366483	0.1013809	0	0
22.22822	-0.281359	0.3180302	0.008794684	0	-0.189604	-0.1347754	0	0
22.24501	-0.2810676	0.3181373	0.01736506	0.006384943	0.2569681	0.1914417	0	0
22.26136	-0.2805574	0.3185124	0.03120807	0.02294438	0.417807	0.4997935	0	0
22.27803	-0.2798526	0.3190304	0.042269	0.03106412	0.3349572	0.2458893	0	0
22.29449	-0.2796824	0.3191554	0.01033941	0.007596115	-0.9636925	-0.7083064	0	0
22.31106	-0.2777608	0.3205664	0.1159877	0.08516758	3.198967	2.348818	0	0
22.32762	-0.2771036	0.3210486	0.03966872	0.02910754	-2.30331	-1.691895	0	0
22.34419	-0.2771036	0.3210844	0	0.002157096	-1.197273	-0.813413	0	0
22.36076	-0.2768358	0.3213165	0.01616646	0.01401321	0.4879328	0.3578389	0	0
22.37732	-0.2730331	0.3242098	0.2295306	0.1746399	6.439343	4.847722	0	0
22.39412	-0.2710554	0.3256921	0.1177732	0.08827309	-3.350091	-2.588969	0	0
22.42702	-0.247726	0.3438891	0.7089401	0.5529718	11.89476	9.350115	0	0
22.44365	-0.2388766	0.3520858	0.5322529	0.492995	-3.566999	-1.210824	0	0
22.46017	-0.2330552	0.3633019	0.3524303	0.6790398	-5.425494	5.613226	0	0
22.47672	-0.2313356	0.3729309	0.1038574	0.5815395	-7.515358	-2.947826	0	0
22.49329	-0.230812	0.3956864	0.03160797	1.373525	-2.181119	23.90905	0	0
22.50986	-0.2308618	0.4147283	-0.003011311	1.149375	-1.044812	-6.764866	0	0
22.52643	-0.2312359	0.4421439	-0.02257674	1.654806	-0.5904858	15.25393	0	0
22.54299	-0.2319588	0.4639145	-0.04363703	1.314079	-0.6356008	-10.28314	0	0
22.55956	-0.2330552	0.4932118	-0.06618049	1.76839	-0.680363	13.71112	0	0
22.57613	-0.2344001	0.5138626	-0.08117319	1.246483	-0.4524806	-15.75117	0	0
22.5927	-0.2357689	0.5324644	-0.08262398	1.122805	-0.04378499	-3.732605	0	0
22.60926	-0.2385784	0.552862	-0.1695832	1.231205	-2.624435	3.271518	0	0
22.62583	-0.2399942	0.5612361	-0.08545361	0.5054578	2.539037	-21.9031	0	0
22.6424	-0.2436408	0.5746319	-0.2201082	0.8085713	-4.063882	9.147985	0	0
22.65896	-0.2459939	0.5830913	-0.1420353	0.5106097	2.356243	-8.992496	0	0
22.67582	-0.2480475	0.5935696	-0.1218248	0.621595	0.6046643	3.320487	0	0
22.6921	-0.2490612	0.5982927	-0.06227388	0.2901665	1.79725	-10.00253	0	0
22.70884	-0.252173	0.6085035	-0.1858421	0.6097932	-3.742005	9.679227	0	0
22.72523	-0.2532092	0.6116662	-0.06322742	0.192992	3.700731	-12.57981	0	0
22.7418	-0.2556248	0.6156523	-0.1458057	0.2405991	-2.505778	1.444601	0	0
22.75838	-0.2547378	0.6195316	0.05349055	0.2339437	6.012005	-0.2007687	0	0
22.77493	-0.2534558	0.6212118	0.0774498	0.1015067	0.7230915	-3.996956	0	0
22.79433	-0.2534311	0.6211931	0.001271999	-0.0009647527	-2.118898	-2.85026	0	0
22.81092	-0.2534311	0.6211931	0	0	-0.0353471	0.02680915	0	0
22.82747	-0.2534065	0.6211744	0.001489382	-0.001127392	0.04494963	-0.03402475	0	0
22.84403	-0.2533818	0.6211557	0.001489466	-0.001126094	2.541667E-06	3.919721E-05	0	0
22.8606	-0.2533818	0.6211557	0	0	-0.04495217	0.03398557	0	0
22.94344	-0.2533078	0.6210997	0.0008929599	-0.0006763758	0.008983195	-0.006804354	0	0
22.97657	-0.2533325	0.6211184	-0.0007438335	0.0005630468	-0.01411386	0.01068738	0	0
22.99314	-0.2533818	0.6211557	-0.002977133	0.002255785	-0.04493408	0.03405796	0	0
23.00971	-0.2533818	0.6211557	0	0	0.08985005	-0.06807973	0	0
23.02627	-0.2534065	0.6212118	-0.001489466	0.003381879	-0.04495217	0.1020653	0	0
23.04284	-0.2533572	0.6212865	0.002977133	0.004507972	0.1348022	0.03398557	0	0
23.05941	-0.2533818	0.6216413	-0.001487667	0.02141737	-0.1347479	0.5103266	0	0
23.07598	-0.2536778	0.622239	-0.01786074	0.03607402	-0.4941119	0.4423132	0	0
23.09263	-0.2576436	0.6261457	-0.238202	0.2346489	-6.633113	5.97786	0	0
23.10911	-0.259562	0.6318004	-0.1163829	0.3430521	3.67672	3.271804	0	0
23.12568	-0.2584801	0.6393452	0.06531196	0.4554584	5.497804	3.40124	0	0
23.14224	-0.2554277	0.6431442	0.184244	0.229313	3.589584	-6.825476	0	0
23.15881	-0.254442	0.6480044	0.05949588	0.29336	-3.764907	1.932943	0	0
23.17538	-0.2517288	0.6522314	0.1637711	0.2551412	3.147032	-1.153446	0	0
23.19194	-0.249679	0.6552738	0.1237397	0.1836608	-1.208218	-2.157407	0	0
23.20851	-0.2412104	0.6620901	0.5111629	0.4114307	11.69313	6.874507	0	0
23.22508	-0.2364903	0.6664927	0.2849071	0.2657437	-6.828413	-4.396843	0	0
23.24173	-0.2346988	0.6704087	0.1075536	0.235096	-5.338097	-0.9224536	0	0
23.25821	-0.2365152	0.680953	-0.110246	0.6399919	-6.573583	12.22048	0	0
23.27478	-0.2389262	0.6885526	-0.1455323	0.4587159	-1.067895	-5.486079	0	0
23.29134	-0.2382306	0.698816	0.04199196	0.619499	5.659494	4.852445	0	0
23.30828	-0.2365898	0.705299	0.09688415	0.3828098	1.638447	-7.064805	0	0
23.32448	-0.2341511	0.7099807	0.1505627	0.2890441	1.620114	-2.830019	0	0
23.34104	-0.2321831	0.7115889	0.1187858	0.09707072	-0.9698583	-5.8592	0	0
23.35761	-0.2303131	0.7130044	0.1128738	0.08543561	-0.1784242	-0.3511481	0	0
23.37432	-0.226968	0.715644	0.2001401	0.1579296	2.622081	2.178219	0	0
23.39084	-0.2264433	0.7160519	0.03177426	0.02470259	-5.067	-4.009491	0	0
23.40731	-0.2264433	0.7160519	0	0	-0.9632743	-0.7488881	0	0
23.44411	-0.2264183	0.7160325	0.0006791541	-0.000528096	0.01275011	-0.009914218	0	0
23.46067	-0.2264183	0.7160325	0	0	-0.01272732	0.0098965	0	0
23.47724	-0.2263433	0.7159742	0.004525062	-0.003518593	0.1365666	-0.1061914	0	0
23.49391	-0.2262933	0.7159353	0.002997726	-0.002330969	-0.0459496	0.03572944	0	0
23.51037	-0.2262183	0.7158771	0.00455533	-0.003537804	0.04701129	-0.03642445	0	0
23.52694	-0.2260934	0.71578	0.007542669	-0.005864322	0.09044965	-0.07044151	0	0
23.54351	-0.2259934	0.7157023	0.006034315	-0.00468786	-0.04552222	0.03550569	0	0
23.56046	-0.2259684	0.7156829	0.001474952	-0.001146208	-0.1360202	0.1056587	0	0
23.57666	-0.2259184	0.715644	0.003085625	-0.002399317	0.04858781	-0.03780149	0	0
23.59321	-0.2258684	0.7156051	0.003020737	-0.002348162	-0.001981458	0.001562122	0	0
23.60977	-0.2258684	0.7156051	0	0	-0.09121329	0.0709044	0	0
23.62634	-0.2258184	0.7155663	0.003017955	-0.002342401	0.0910873	-0.07069786	0	0
23.64302	-0.2257934	0.7155469	0.001499242	-0.001165085	-0.04568493	0.03541526	0	0
23.65947	-0.2257934	0.7155469	0	0	-0.04524983	0.03516435	0	0
23.72574	-0.2257684	0.7155275	0.0003770885	-0.0002932161	0.004558414	-0.003544527	0	0
23.74231	-0.2257434	0.715508	0.001509253	-0.001172864	0.01366752	-0.01061913	0	0
23.7591	-0.2256435	0.7154304	0.005953649	-0.004624503	0.1332195	-0.1034619	0	0
23.77544	-0.2255185	0.7153333	0.007649265	-0.005942133	0.0511738	-0.03976614	0	0
23.79212	-0.2253935	0.7152362	0.007493604	-0.005820518	-0.004713847	0.003682853	0	0
23.80864	-0.2253184	0.715178	0.004542928	-0.00352677	-0.08889297	0.06910213	0	0
23.82515	-0.2252934	0.7151585	0.001514309	-0.001176793	-0.09171008	0.07116003	0	0
23.84171	-0.2252184	0.7151003	0.004528946	-0.003516615	0.09115509	-0.07075036	0	0
23.85827	-0.2251184	0.7150226	0.006037014	-0.00468786	0.04552405	-0.03535638	0	0
23.87484	-0.2250434	0.7149255	0.004528659	-0.005860724	-0.04552222	-0.03539712	0	0
23.8917	-0.2249684	0.7148673	0.004450897	-0.003455325	-0.00232679	0.07197363	0	0
23.90821	-0.2248934	0.7148091	0.004543453	-0.003527178	0.002774175	-0.002153649	0	0
23.92472	-0.2248434	0.7147702	0.003029521	-0.002353587	-0.04584625	0.03553975	0	0
23.94112	-0.2248434	0.7147702	0	0	-0.09205108	0.07151303	0	0
23.95767	-0.2248183	0.7147508	0.001510123	-0.00116994	0.04582089	-0.0354989	0	0
23.97424	-0.2247933	0.7147314	0.001509253	-0.001172864	-2.624227E-05	-8.827904E-05	0	0
23.99081	-0.2247933	0.7147314	0	0	-0.04554936	0.03539712	0	0
24.00738	-0.2247933	0.7147314	0	0	0	0	0	0
24.02394	-0.2247683	0.714712	0.001510153	-0.001172864	0.0455765	-0.03539712	0	0
24.04051	-0.2247433	0.7146926	0.001509253	-0.001169267	-2.714469E-05	0.0001085788	0	0
24.05731	-0.2247433	0.7146926	0	0	-0.04522912	0.03504044	0	0
24.07723	-0.2246933	0.7146537	0.00251092	-0.001950694	0.06837257	-0.05311756	0	0
24.09384	-0.2247183	0.7146343	-0.001506338	-0.001169901	-0.1099671	0.02137317	0	0
24.11037	-0.2246183	0.7145567	0.006054147	-0.004696156	0.2281759	-0.1064226	0	0
24.12693	-0.2244932	0.7144208	0.007548935	-0.0082038	0.0451726	-0.1060012	0	0
24.1435	-0.2239179	0.7139356	0.03472812	-0.02928563	0.8203166	-0.6362876	0	0
24.16039	-0.2226666	0.7129268	0.0741102	-0.05974992	1.177304	-0.9107115	0	0
24.17663	-0.2219155	0.7122674	0.0462248	-0.04058208	-0.8416314	0.5785198	0	0
24.1932	-0.2218905	0.7120154	0.001511952	-0.01521126	-1.362535	0.7731251	0	0
24.20992	-0.2219656	0.7119572	-0.004492678	-0.003479352	-0.1803894	0.3524466	0	0
24.22643	-0.2219906	0.7118215	-0.001517017	-0.008219505	0.08954276	-0.1426393	0	0
24.2429	-0.2218404	0.7114726	0.009122576	-0.02118196	0.3225891	-0.3930177	0	0
24.25996	-0.2197108	0.7092836	0.1248611	-0.128348	3.452256	-3.196555	0	0
24.27604	-0.2152196	0.7049319	0.2793242	-0.270648	4.661706	-4.294623	0	0
24.2926	-0.2118768	0.699394	0.2017722	-0.3342628	-2.37553	-1.948614	0	0
24.30917	-0.2075718	0.6938705	0.259847	-0.3334029	1.7527	0.02595052	0	0
24.32574	-0.2039658	0.6911235	0.2176617	-0.1658056	-1.273156	5.058096	0	0
24.34231	-0.1998994	0.6876899	0.2454489	-0.2072552	0.8386187	-1.250952	0	0
24.35903	-0.1985845	0.6863103	0.07862041	-0.08249458	-5.011239	3.747594	0	0
24.44171	-0.1960541	0.6294023	0.03060603	-0.6883096	-0.4830349	-6.094628	0	0
24.45827	-0.194408	0.6176845	0.09936158	-0.7072876	0.6927856	-0.1912236	0	0
24.47484	-0.1914929	0.6091357	0.1759521	-0.5160064	2.311507	5.77288	0	0
24.49141	-0.1881429	0.6066816	0.2022076	-0.1481299	0.7923909	11.10253	0	0
24.50798	-0.1832625	0.6031155	0.2945796	-0.215253	2.787794	-2.025779	0	0
24.52454	-0.175007	0.5971066	0.4983073	-0.3626957	6.148512	-4.449831	0	0
24.54111	-0.1695153	0.5930144	0.3314763	-0.2470103	-5.034968	3.491394	0	0
24.55768	-0.1629886	0.5865989	0.3939538	-0.3872359	1.885575	-4.232019	0	0
24.57424	-0.1622711	0.581431	0.04331462	-0.3119747	-10.58292	2.27152	0	0
24.59081	-0.1628861	0.5722947	-0.03712332	-0.5514657	-2.427762	-7.228271	0	0
24.60738	-0.1632448	0.5659348	-0.02165122	-0.3838828	0.4669488	5.057663	0	0
24.64051	-0.1621685	0.5425325	0.03248133	-0.7062838	1.089149	-6.486721	0	0
24.65725	-0.1600405	0.5291679	0.1271584	-0.7985988	1.898494	-1.85113	0	0
24.67365	-0.1598097	0.526456	0.01407831	-0.1653847	-3.412959	19.11154	0	0
24.69021	-0.1575004	0.5154055	0.1393892	-0.6670073	3.801364	-15.21696	0	0
24.70678	-0.1553692	0.5075142	0.1286243	-0.4762684	-0.3248656	5.756179	0	0
24.72335	-0.1525683	0.494532	0.1690855	-0.7836986	1.221122	-9.27826	0	0
24.73991	-0.1508968	0.4883679	0.1009004	-0.3721071	-2.058067	12.42329	0	0
24.75682	-0.1500994	0.483618	0.04716762	-0.280945	-1.605304	2.723527	0	0
24.77305	-0.1498421	0.4806218	0.01585456	-0.1846332	-0.9450299	2.906697	0	0
24.78961	-0.1466501	0.4773745	0.1926673	-0.1960087	5.39146	-0.3468661	0	0
24.80897	-0.1436614	0.4752826	0.1543812	-0.1080542	-1.065669	2.448157	0	0
24.82587	-0.1400508	0.4727588	0.2136784	-0.1493626	1.635479	-1.139328	0	0
24.84211	-0.1385539	0.4717135	0.09218897	-0.06437764	-3.666557	2.564851	0	0
24.85889	-0.1345764	0.4689388	0.2369996	-0.1653331	4.38554	-3.0574	0	0
24.8754	-0.132948	0.4677679	0.09862052	-0.07090902	-4.156192	2.83601	0	0
24.89192	-0.1329997	0.4677679	-0.003131136	0	-3.08098	2.147083	0	0
24.90837	-0.1330255	0.4677139	-0.001571011	-0.003283278	0.0473189	-0.09958252	0	0
24.92494	-0.1331031	0.4676599	-0.004681564	-0.003261355	-0.09419113	0.000663878	0	0
24.94151	-0.1331806	0.4676058	-0.004681564	-0.003261355	0	0	0	0
24.95807	-0.1332582	0.4675158	-0.004680664	-0.00543619	2.715172E-05	-0.06563668	0	0
24.97464	-0.133465	0.4672276	-0.01248327	-0.01739329	-0.2354831	-0.360866	0	0
24.99121	-0.133646	0.4669574	-0.01092185	-0.01630677	0.04712378	0.03279118	0	0
25.008	-0.138683	0.4616106	-0.2999936	-0.3184461	-8.665839	-9.057581	0	0
25.02434	-0.1419081	0.4501911	-0.1973283	-0.6986941	3.098445	-11.47591	0	0
25.04091	-0.1432489	0.4377281	-0.08093034	-0.7522702	3.536717	-1.627894	0	0
25.05748	-0.1435325	0.4320408	-0.01711537	-0.3432859	1.92594	12.34317	0	0
25.07405	-0.1441511	0.4295301	-0.03733059	-0.1515129	-0.6100264	5.787055	0	0
25.09061	-0.1490444	0.4180956	-0.2954624	-0.6904242	-7.790882	-16.26531	0	0
25.10718	-0.1517455	0.4163223	-0.1630407	-0.1070365	3.997184	17.60972	0	0
25.12374	-0.1554463	0.4136717	-0.2233785	-0.1599881	-1.820997	-1.598082	0	0
25.14031	-0.1557545	0.4134569	-0.01860303	-0.01296987	6.180136	4.437018	0	0
25.15688	-0.1557288	0.4134389	0.001549728	-0.001081122	0.6082115	0.358803	0	0
25.17362	-0.1557288	0.4134389	0	0	-0.04652982	0.03246016	0	0
25.19013	-0.1557545	0.413421	-0.001554919	-0.001084744	-0.04676336	-0.03262307	0	0
25.20658	-0.1558058	0.4133494	-0.003123007	-0.004354271	-0.04757693	-0.09919988	0	0
25.22314	-0.1577827	0.4119706	-0.1193264	-0.083223	-3.519789	-2.388927	0	0
25.23971	-0.1621173	0.4089451	-0.2616342	-0.1826251	-4.294859	-2.99996	0	0
25.25628	-0.1668808	0.4056159	-0.2875236	-0.2009502	-0.7813426	-0.5530528	0	0
25.27285	-0.169413	0.4038084	-0.1528492	-0.109098	4.06448	2.772105	0	0
25.28941	-0.1693108	0.40388	0.006172828	0.00432089	4.799295	3.422988	0	0
25.30598	-0.1692596	0.4038442	0.003086864	-0.002160445	-0.09313459	-0.1956071	0	0
25.32255	-0.1692852	0.4038621	-0.001543432	0.001079323	-0.1397426	0.09777639	0	0
25.33924	-0.1692596	0.4038442	0.001531968	-0.001071306	0.09246977	-0.06466417	0	0
25.35568	-0.1692596	0.4038442	0	0	-0.04623488	0.03233209	0	0
25.37225	-0.1692596	0.4038442	0	0	0	0	0	0
25.38882	-0.1692852	0.4038263	-0.001543432	-0.001081122	-0.04658087	-0.03262833	0	0
25.40538	-0.1692596	0.4038084	0.001543432	-0.001079323	0.09316174	5.42929E-05	0	0
25.44181	-0.1692085	0.4037726	0.001403796	-0.0009824935	-0.002634766	0.001827055	0	0
25.45834	-0.1691829	0.4037547	0.001547351	-0.001082064	0.002710861	-0.001880258	0	0
25.47491	-0.1691829	0.4037547	0	0	-0.04675836	0.03269816	0	0
25.49147	-0.1691574	0.4037368	0.001543432	-0.001081122	0.04658087	-0.03262833	0	0
25.50804	-0.1691574	0.403701	0	-0.002160445	-0.04658087	-0.03257403	0	0
25.52461	-0.1691318	0.4036832	0.001543432	-0.001079323	0.04658087	0.03262832	0	0
25.54118	-0.1691062	0.4036652	0.001543432	-0.001081122	0	-5.42929E-05	0	0
25.55774	-0.1691062	0.4036295	0	-0.002158646	-0.04658087	-0.03251974	0	0
25.57431	-0.1690806	0.4036116	0.001543432	-0.001081122	0.04658087	0.03251974	0	0
25.59092	-0.1690551	0.4035937	0.001539179	-0.001076349	-0.0001281752	0.000143848	0	0
25.60744	-0.1690551	0.4035579	0	-0.002166681	-0.04645519	-0.03290818	0	0
25.62401	-0.1690551	0.4035579	0	0	0	0.0654848	0	0
25.64058	-0.1690295	0.4035042	0.001543432	-0.003239768	0.04658087	-0.0977764	0	0
25.65714	-0.1691574	0.4033432	-0.00771716	-0.009721103	-0.2794852	-0.1956071	0	0
25.67371	-0.1696176	0.4029853	-0.02777908	-0.02160265	-0.6054699	-0.3585858	0	0
25.69028	-0.1757724	0.3986377	-0.3715048	-0.2624176	-10.37366	-7.26781	0	0
25.70685	-0.1845597	0.3923957	-0.5304064	-0.3767701	-4.795659	-3.451164	0	0
25.72352	-0.1907827	0.3879793	-0.37321	-0.2648672	4.728952	3.366385	0	0
25.73998	-0.1979269	0.3828667	-0.4340238	-0.3105971	-1.835364	-1.380133	0	0
25.75655	-0.2012387	0.3804896	-0.1999041	-0.1434816	7.088596	5.059867	0	0
25.77312	-0.2070678	0.3762186	-0.3518431	-0.2578035	-4.585528	-3.450241	0	0
25.78968	-0.2092847	0.3745389	-0.1338109	-0.1013826	6.580226	4.720792	0	0
25.80658	-0.2097631	0.3734847	-0.02831072	-0.06238889	3.152606	1.165229	0	0
25.82281	-0.2062864	0.3711263	0.2141425	-0.1452637	7.317675	-2.50131	0	0
25.83938	-0.1980281	0.3652847	0.4984719	-0.3526041	8.667894	-6.320856	0	0
25.85595	-0.1916451	0.3607834	0.3852779	-0.2716944	-3.416201	2.441859	0	0
25.87252	-0.1841783	0.3555325	0.4506974	-0.316945	1.974366	-1.365667	0	0
25.88908	-0.1803606	0.3528537	0.2304346	-0.1616952	-6.647546	4.685449	0	0
25.90565	-0.1772771	0.3506928	0.1861185	-0.1304308	-1.337463	0.9435613	0	0
25.92222	-0.1755173	0.3494249	0.1062261	-0.0765312	-2.411157	1.626693	0	0
25.93879	-0.1755173	0.3494249	0	0	-3.205909	2.309716	0	0
25.95535	-0.1755173	0.3494249	0	0	0	0	0	0
25.97192	-0.1755173	0.3494249	0	0	0	0	0	0
25.98849	-0.1754918	0.349407	0.001540734	-0.001077524	0.04649943	-0.03251974	0	0
26.00505	-0.1754918	0.349407	0	0	-0.04649943	0.03251974	0	0
26.02162	-0.1754918	0.349407	0	0	0	0	0	0
26.0457	-0.1754918	0.349407	0	0	0	0	0	0
26.06227	-0.1754918	0.349407	0	0	0	0	0	0
26.07883	-0.1754918	0.349407	0	0	0	0	0	0
26.0954	-0.1754918	0.3494428	0	0.002155297	0	0.06505447	0	0
26.11197	-0.1754918	0.3494428	0	0	0	-0.06505072	0	0
26.12881	-0.1754918	0.3494428	0	0	0	0	0	0
26.1451	-0.1754918	0.3494428	0	0	0	0	0	0
26.16167	-0.1754918	0.3494428	0	0	0	0	0	0
26.17835	-0.1754918	0.3494428	0	0	0	0	0	0
26.1948	-0.1754918	0.3494428	0	0	0	0	0	0
26.25621	-0.1755173	0.3494606	-0.0004156927	0.000290718	-0.005338985	0.003733861	0	0
26.27277	-0.1755173	0.3494606	0	0	0.00533128	-0.003728472	0	0
26.28934	-0.1755173	0.3494606	0	0	0	0	0	0
26.30591	-0.1755173	0.3494606	0	0	0	0	0	0
26.32248	-0.1755173	0.3494606	0	0	0	0	0	0
26.33904	-0.1755173	0.3494606	0	0	0	0	0	0
26.35561	-0.1755173	0.3494606	0	0	0	0	0	0
26.37218	-0.1755173	0.3494606	0	0	0	0	0	0
26.389	-0.1755173	0.3494606	0	0	0	0	0	0
26.40551	-0.1755173	0.3494606	0	0	0	0	0	0
26.42202	-0.1755173	0.3494606	0	0	0	0	0	0
26.43845	-0.1755173	0.3494606	0	0	0	0	0	0
26.45501	-0.1755173	0.3494606	0	0	0	0	0	0
26.47206	-0.1755173	0.3494606	0	0	0	0	0	0
26.48814	-0.1755173	0.3494606	0	0	0	0	0	0
26.52128	-0.1755173	0.3494606	0	0	0	0	0	0
26.53785	-0.1755173	0.3494606	0	0	0	0	0	0
26.55441	-0.1755173	0.3494606	0	0	0	0	0	0
26.57098	-0.1755173	0.3494606	0	0	0	0	0	0
26.58764	-0.1755173	0.3494606	0	0	0	0	0	0
26.60411	-0.1755173	0.3494606	0	0	0	0	0	0
26.62275	-0.1755173	0.3494606	0	0	0	0	0	0
26.63932	-0.1755173	0.3494606	0	0	0	0	0	0
26.65588	-0.1754918	0.3494428	0.001540734	-0.001077524	0.04649943	-0.03251974	0	0
26.67245	-0.1754918	0.3494428	0	0	-0.04649943	0.03251974	0	0
26.68902	-0.1754918	0.3494428	0	0	0	0	0	0
26.72583	-0.1754918	0.3494428	0	0	0	0	0	0
26.74275	-0.1754918	0.3494428	0	0	0	0	0	0
26.75927	-0.1754918	0.3494428	0	0	0	0	0	0
26.77553	-0.1754918	0.3494428	0	0	0	0	0	0
26.7921	-0.1754918	0.3494428	0	0	0	0	0	0
26.80867	-0.1754918	0.3494428	0	0	0	0	0	0
26.82524	-0.1754918	0.3494428	0	0	0	0	0	0
26.8418	-0.1754918	0.3494428	0	0	0	0	0	0
26.85884	-0.1754918	0.3494428	0	0	0	0	0	0
26.87494	-0.1754918	0.3494428	0	0	0	0	0	0
26.8915	-0.1754918	0.3494428	0	0	0	0	0	0
26.90807	-0.1754918	0.3494428	0	0	0	0	0	0
26.92464	-0.1754918	0.3494428	0	0	0	0	0	0
26.94121	-0.1754918	0.3494428	0	0	0	0	0	0
26.95777	-0.1754918	0.3494428	0	0	0	0	0	0
26.97434	-0.1754918	0.3494428	0	0	0	0	0	0
26.99094	-0.1754918	0.3494428	0	0	0	0	0	0
27.00747	-0.1754918	0.349407	0	-0.002159025	0	-0.06516326	0	0
27.02404	-0.1754918	0.349407	0	0	0	0.06521958	0	0
27.04061	-0.1754918	0.349407	0	0	0	0	0	0
27.05717	-0.1754918	0.349407	0	0	0	0	0	0
27.07374	-0.1754918	0.349407	0	0	0	0	0	0
27.09051	-0.1754918	0.349407	0	0	0	0	0	0
27.10702	-0.1754918	0.349407	0	0	0	0	0	0
27.12353	-0.1754918	0.349407	0	0	0	0	0	0
27.14004	-0.1754918	0.349407	0	0	0	0	0	0
27.15658	-0.1754918	0.349407	0	0	0	0	0	0
27.17314	-0.1754918	0.349407	0	0	0	0	0	0
27.18971	-0.1754918	0.349407	0	0	0	0	0	0
27.20659	-0.1754918	0.349407	0	0	0	0	0	0
27.22284	-0.1754918	0.349407	0	0	0	0	0	0
27.23961	-0.1754918	0.349407	0	0	0	0	0	0
27.25598	-0.1754918	0.349407	0	0	0	0	0	0
27.27264	-0.1754918	0.349407	0	0	0	0	0	0
27.28915	-0.1754918	0.349407	0	0	0	0	0	0
27.30616	-0.1754918	0.349407	0	0	0	0	0	0
27.32268	-0.1754918	0.349407	0	0	0	0	0	0
27.33919	-0.1754918	0.349407	0	0	0	0	0	0
27.35538	-0.1754918	0.349407	0	0	0	0	0	0
27.47135	-0.1751601	0.3491035	0.002860172	-0.002617958	0.02164202	-0.01980927	0	0
27.4914	-0.1751601	0.3491035	0	0	-0.02102807	0.01924731	0	0
27.50796	-0.1751601	0.3491035	0	0	0	0	0	0
27.52453	-0.1751601	0.3491035	0	0	0	0	0	0
27.5411	-0.1751856	0.3491213	-0.001539834	0.001077524	-0.04647229	0.03251974	0	0
27.55766	-0.1751856	0.3491213	0	0	0.04647229	-0.03251974	0	0
27.57423	-0.1751856	0.3491213	0	0	0	0	0	0
27.5908	-0.1751856	0.3491213	0	0	0	0	0	0
27.60738	-0.1751856	0.3491213	0	0	0	0	0	0
27.62393	-0.1751856	0.3491213	0	0	0	0	0	0
27.6405	-0.1751856	0.3491213	0	0	0	0	0	0
27.65706	-0.1751856	0.3491213	0	0	0	0	0	0
27.67363	-0.1751856	0.3491213	0	0	0	0	0	0
27.6902	-0.1751856	0.3491213	0	0	0	0	0	0
27.70677	-0.1751856	0.3491213	0	0	0	0	0	0
27.72333	-0.1751856	0.3491213	0	0	0	0	0	0
27.7399	-0.1751856	0.3491213	0	0	0	0	0	0
27.75647	-0.1751856	0.3491213	0	0	0	0	0	0
27.77304	-0.1751856	0.3491213	0	0	0	0	0	0
27.7896	-0.1751856	0.3491213	0	0	0	0	0	0
27.80617	-0.1751856	0.3491213	0	0	0	0	0	0
27.82274	-0.1751856	0.3491213	0	0	0	0	0	0
27.8393	-0.1751856	0.3491213	0	0	0	0	0	0
27.85606	-0.1751601	0.3491035	0.001522655	-0.001065503	0.04569603	-0.03197655	0	0
27.87244	-0.1751601	0.3491035	0	0	-0.04595381	0.03215693	0	0
27.88908	-0.1751601	0.3491035	0	0	0	0	0	0
27.90559	-0.1751601	0.3491035	0	0	0	0	0	0
27.92214	-0.1751601	0.3491035	0	0	0	0	0	0
27.93871	-0.1751601	0.3491035	0	0	0	0	0	0
27.95527	-0.1751601	0.3491035	0	0	0	0	0	0
27.97214	-0.1751601	0.3491035	0	0	0	0	0	0
27.98841	-0.1751601	0.3491035	0	0	0	0	0	0
28.00497	-0.1751601	0.3491035	0	0	0	0	0	0
28.02154	-0.1751601	0.3491035	0	0	0	0	0	0
28.03811	-0.1751601	0.3491035	0	0	0	0	0	0
28.0547	-0.1751345	0.3490856	0.001538254	-0.00107579	0.04638723	-0.03244127	0	0
28.07528	-0.1751345	0.3490856	0	0	-0.04138596	0.0289436	0	0
28.09184	-0.1751345	0.3490856	0	0	0	0	0	0
28.10841	-0.1751345	0.3490856	0	0	0	0	0	0
28.12498	-0.1751345	0.3490856	0	0	0	0	0	0
28.14176	-0.1751345	0.3490856	0	0	0	0	0	0
28.15811	-0.1751601	0.3491035	-0.001561588	0.001092109	-0.04713154	0.03296182	0	0
28.17468	-0.1751601	0.3491035	0	0	0.04744564	-0.03318148	0	0
28.19124	-0.1751601	0.3491035	0	0	0	0	0	0
28.20781	-0.1751601	0.3491035	0	0	0	0	0	0
28.22438	-0.1751601	0.3491035	0	0	0	0	0	0
28.24094	-0.1751601	0.3491035	0	0	0	0	0	0
28.25751	-0.1751601	0.3491035	0	0	0	0	0	0
28.27436	-0.1751601	0.3491035	0	0	0	0	0	0
28.29064	-0.1751601	0.3491035	0	0	0	0	0	0
28.30721	-0.1751601	0.3491035	0	0	0	0	0	0
28.32378	-0.1751601	0.3491035	0	0	0	0	0	0
28.3404	-0.1751345	0.3490856	0.001535254	-0.001073692	0.04625154	-0.03234638	0	0
28.35691	-0.1751345	0.3490856	0	0	-0.04633407	0.03240409	0	0
28.37348	-0.1751601	0.3491035	-0.001540911	0.001077648	-0.04659061	0.03258351	0	0
28.39044	-0.1751601	0.3491035	0	0	0.04595979	-0.03214234	0	0
28.40661	-0.1751345	0.3490856	0.001578348	-0.00110383	0.04763464	-0.03331366	0	0
28.42318	-0.1751601	0.3490677	-0.001540734	-0.001077524	-0.09526928	0.0008034879	0	0
28.43975	-0.1751601	0.3490677	0	0	0.04649943	0.03251974	0	0
28.45631	-0.1751601	0.3490677	0	0	0	0	0	0
28.47288	-0.1751601	0.3490677	0	0	0	0	0	0
28.48945	-0.1751601	0.3490677	0	0	0	0	0	0
28.50603	-0.1751601	0.3490677	0	0	0	0	0	0
28.52258	-0.1751601	0.3490677	0	0	0	0	0	0
28.53915	-0.1751601	0.3490677	0	0	0	0	0	0
28.55572	-0.1751601	0.3490677	0	0	0	0	0	0
28.57228	-0.1751601	0.3490677	0	0	0	0	0	0
28.58909	-0.1751601	0.3490677	0	0	0	0	0	0
28.60542	-0.1751601	0.3490677	0	0	0	0	0	0
28.62211	-0.1751601	0.3490677	0	0	0	0	0	0
28.63855	-0.1751601	0.3490677	0	0	0	0	0	0
28.65512	-0.1751601	0.3490677	0	0	0	0	0	0
28.67169	-0.1751601	0.3490677	0	0	0	0	0	0
28.68825	-0.1751345	0.3490499	0.001540734	-0.001079323	0.04650211	-0.03257591	0	0
28.70482	-0.1751345	0.3490499	0	0	-0.04649943	0.03257403	0	0
28.7248	-0.1751345	0.3490142	0	-0.001787334	0	-0.04891058	0	0
28.74136	-0.1751345	0.3489785	0	-0.002155048	0	-0.01006254	0	0
28.75793	-0.175109	0.3489606	0.001539834	-0.001079323	0.04647229	0.03246545	0	0
28.7745	-0.175109	0.3489249	0	-0.002155048	-0.04647229	-0.03246545	0	0
28.79123	-0.175109	0.3489249	0	0	0	0.06471539	0	0
28.80763	-0.1750835	0.348907	0.001556503	-0.001088553	0.04697806	-0.03285447	0	0
28.82425	-0.175058	0.3488892	0.001534534	-0.001073815	-0.0006652423	0.0004462574	0	0
28.84076	-0.1750835	0.3488713	-0.001545171	-0.001083064	-0.09294569	-0.0002791167	0	0
28.85733	-0.175058	0.3488534	0.001540011	-0.001077648	0.09327745	0.000163733	0	0
28.8739	-0.175058	0.3488534	0	0	-0.04648031	0.03252536	0	0
28.89046	-0.175058	0.3488534	0	0	0	0	0	0
28.90703	-0.175058	0.3488534	0	0	0	0	0	0
28.9236	-0.175058	0.3488534	0	0	0	0	0	0
28.94017	-0.175058	0.3488534	0	0	0	0	0	0
28.95685	-0.175058	0.3488534	0	0	0	0	0	0
28.9733	-0.175058	0.3488534	0	0	0	0	0	0
28.98987	-0.175058	0.3488534	0	0	0	0	0	0
29.00643	-0.175058	0.3488534	0	0	0	0	0	0
29.023	-0.1750325	0.3488356	0.001540734	-0.001077524	0.04649943	-0.03251974	0	0
29.03957	-0.1750325	0.3488356	0	0	-0.04649943	0.03251974	0	0
29.05642	-0.1750325	0.3488356	0	0	0	0	0	0
29.0727	-0.1750325	0.3488356	0	0	0	0	0	0
29.08927	-0.1750325	0.3487999	0	-0.002157096	0	-0.06567592	0	0
29.10583	-0.1750325	0.3487999	0	0	0	0.06510502	0	0
29.1224	-0.1750325	0.3487999	0	0	0	0	0	0
29.13897	-0.1750325	0.3487999	0	0	0	0	0	0
29.15553	-0.1750325	0.3487999	0	0	0	0	0	0
29.23837	-0.1750325	0.3487999	0	0	0	0	0	0
29.25494	-0.1750325	0.3487999	0	0	0	0	0	0
29.27158	-0.1750325	0.3487999	0	0	0	0	0	0
29.28807	-0.1750325	0.3487999	0	0	0	0	0	0
29.30464	-0.1750325	0.3487999	0	0	0	0	0	0
29.3212	-0.1750325	0.3487999	0	0	0	0	0	0
29.34022	-0.1750325	0.3487999	0	0	0	0	0	0
29.35714	-0.175058	0.348782	-0.001508943	-0.001055291	-0.04199154	-0.02936711	0	0
29.37336	-0.175058	0.348782	0	0	0.04553998	0.03184874	0	0
29.38992	-0.175058	0.348782	0	0	0	0	0	0
29.40649	-0.175058	0.3487463	0	-0.002155048	0	-0.06503949	0	0
29.42306	-0.1750325	0.3487284	0.001540734	-0.001077524	0.04649943	0.03251974	0	0
29.43962	-0.1750325	0.3486927	0	-0.002157096	-0.04650211	-0.0325834	0	0
29.45621	-0.175007	0.3486749	0.001537887	-0.001076161	0.04638681	0.03260389	0	0
29.47276	-0.1750325	0.348657	-0.001541787	-0.001078891	-0.09294473	-8.236865E-05	0	0
29.48932	-0.1750325	0.348657	0	0	0.0465607	0.03258161	0	0
29.50589	-0.175007	0.3486392	0.001539834	-0.001077524	0.04647229	-0.03251974	0	0
29.52246	-0.175007	0.3486392	0	0	-0.04647229	0.03251974	0	0
29.53927	-0.175007	0.3486392	0	0	0	0	0	0
29.55559	-0.1749814	0.3486213	0.001563778	-0.001095466	0.04719491	-0.03306124	0	0
29.57216	-0.1749814	0.3486213	0	0	-0.04754524	0.03330664	0	0
29.58873	-0.175007	0.3486392	-0.001540734	0.001079323	-0.04649943	0.03257403	0	0
29.60532	-0.175007	0.3486392	0	0	0.04646466	-0.03254968	0	0
29.62233	-0.175007	0.3486392	0	0	0	0	0	0
29.63843	-0.175007	0.3486392	0	0	0	0	0	0
29.65536	-0.1750325	0.348657	-0.001507042	0.001054577	-0.04563498	0.03193383	0	0
29.67187	-0.1750325	0.3486927	0	0.002162267	0.04506754	0.03312506	0	0
29.68813	-0.175109	0.3487463	-0.004708578	0.003295454	-0.1436766	0.03457783	0	0
29.70469	-0.1754918	0.3491213	-0.02310111	0.0226352	-0.5602803	0.5891347	0	0
29.7214	-0.1767927	0.3501035	-0.07785923	0.0587846	-1.645593	1.086363	0	0
29.73783	-0.1789595	0.352443	-0.1319126	0.142423	-1.631334	2.524212	0	0
29.7544	-0.1824228	0.3558004	-0.2090487	0.2026573	-2.337931	1.825651	0	0
29.77096	-0.1921269	0.3629447	-0.5857396	0.4312273	-11.36856	6.898257	0	0
29.78753	-0.2007587	0.3692862	-0.5210144	0.3827747	1.953411	-1.462303	0	0
29.8041	-0.2096372	0.3757897	-0.5359073	0.3925534	-0.4494679	0.2951211	0	0
29.82067	-0.2212894	0.3841537	-0.7033301	0.5048534	-5.052831	3.38922	0	0
29.83723	-0.2265182	0.3879257	-0.3156129	0.2276742	11.70133	-8.365284	0	0
29.8538	-0.2373606	0.3956685	-0.6544476	0.4673577	-10.22605	7.233661	0	0
29.87037	-0.2408382	0.3981369	-0.2099067	0.1489916	13.41627	-9.608308	0	0
29.88693	-0.2449539	0.4009634	-0.2484251	0.1706122	-1.162486	0.652512	0	0
29.90354	-0.245672	0.4013749	-0.04325777	0.02478745	6.185553	-4.396444	0	0
29.92055	-0.2460434	0.401035	-0.02182928	-0.01998192	0.6375023	-1.331898	0	0
29.93663	-0.2461672	0.4009813	-0.007694845	-0.003336965	0.4270697	0.5029248	0	0
29.9532	-0.2461919	0.4009634	-0.001493963	-0.001081122	0.1899087	0.06908765	0	0
29.96977	-0.2464147	0.4008024	-0.01344567	-0.009719304	-0.3607031	-0.2607009	0	0
29.9922	-0.2468601	0.4006593	-0.01985268	-0.006378039	-0.16426	0.08566187	0	0
30.00877	-0.2484184	0.4017149	-0.09405851	0.06371604	-1.902456	1.797041	0	0
30.02534	-0.2528145	0.4047568	-0.265348	0.1836126	-5.169527	3.618487	0	0
30.04213	-0.2594145	0.4088376	-0.392994	0.2429887	-3.826156	1.779782	0	0
30.10818	-0.324716	0.4089988	-0.9887884	0.002439531	-7.192443	-2.903916	0	0
30.12474	-0.3412858	0.401536	-1.000153	-0.4504555	-0.1375704	-5.482381	0	0
30.14131	-0.3519473	0.393272	-0.6436043	-0.498872	10.76128	-1.461297	0	0
30.15788	-0.363239	0.3845291	-0.6815673	-0.5277224	-1.145793	-0.870758	0	0
30.17444	-0.3742978	0.3758969	-0.6675109	-0.5210378	0.4242225	0.2017417	0	0
30.19124	-0.3888268	0.3644451	-0.8648281	-0.6816584	-5.913515	-4.813733	0	0
30.20757	-0.3993939	0.3560326	-0.6469896	-0.515074	6.574758	5.027818	0	0
30.22426	-0.413095	0.3450141	-0.82095	-0.6602161	-5.268026	-4.395326	0	0
30.24078	-0.4197859	0.3395855	-0.4052194	-0.3287694	12.52155	9.982969	0	0
30.25729	-0.4292257	0.3318711	-0.571696	-0.4671996	-5.041104	-4.191828	0	0
30.27384	-0.4398565	0.3229954	-0.6421949	-0.5361703	-2.132079	-2.085863	0	0
30.29041	-0.4467497	0.3170835	-0.4160737	-0.3568422	6.827103	5.414315	0	0
30.30698	-0.4561673	0.3080802	-0.5684435	-0.5434427	-4.59853	-5.631615	0	0
30.32354	-0.4607593	0.3022732	-0.2771738	-0.350512	8.790538	5.822662	0	0
30.34011	-0.471887	0.2840748	-0.6716735	-1.098452	-11.90603	-22.57288	0	0
30.35668	-0.4757626	0.2753809	-0.2339325	-0.5247687	13.21105	17.3138	0	0
30.37337	-0.4841894	0.2534089	-0.5048043	-1.316231	-8.143985	-23.79598	0	0
30.38981	-0.4874202	0.2458254	-0.196528	-0.4612992	9.304331	25.80339	0	0
30.40638	-0.4916427	0.2362445	-0.2548677	-0.5783049	-1.767513	-3.544912	0	0
30.42295	-0.4987934	0.2278583	-0.4316213	-0.5061926	-5.334433	2.176353	0	0
30.43951	-0.5035299	0.2235815	-0.2858947	-0.2581453	4.398037	7.486083	0	0
30.45608	-0.508563	0.2183316	-0.3038006	-0.3168829	-0.5404027	-1.772705	0	0
30.47265	-0.5093056	0.2125567	-0.04482069	-0.3485746	7.816031	-0.9564556	0	0
30.48921	-0.5077195	0.2019859	0.09573955	-0.6380571	4.242116	-8.7366	0	0
30.50578	-0.5072973	0.1963074	0.02547922	-0.3427543	-2.120461	8.912255	0	0
30.52248	-0.5064526	0.1863459	0.05058317	-0.5964669	0.7545981	-7.62633	0	0
30.53899	-0.505909	0.1812334	0.03291773	-0.3096257	-0.5318889	8.636501	0	0
30.5555	-0.5063922	0.1780882	-0.02926438	-0.1905073	-1.883055	3.607252	0	0
30.57205	-0.5058889	0.1752489	0.03042137	-0.1716156	1.805685	0.5715346	0	0
30.58862	-0.5055868	0.1744349	0.01823336	-0.04913438	-0.3680891	3.699046	0	0
30.60518	-0.5051234	0.1739826	0.02797246	-0.02730058	0.2939264	0.6589455	0	0
30.62205	-0.5050226	0.1738921	0.005970887	-0.005361433	-0.6579863	0.6561194	0	0
30.63856	-0.5049621	0.1738017	0.003664366	-0.0054794	-0.06909786	-0.003534006	0	0
30.65508	-0.5048412	0.1736931	0.007322583	-0.006572822	0.1107687	-0.03310816	0	0
30.67145	-0.5048009	0.1736569	0.002461547	-0.002210295	-0.1478211	0.1326617	0	0
30.69117	-0.5047807	0.1736388	0.001024442	-0.0009179178	-0.03981702	0.0358071	0	0
30.70774	-0.5047606	0.1736207	0.001216037	-0.001091915	0.005279411	-0.00479449	0	0
30.79067	-0.5047606	0.1736207	0	0	-0.01222163	0.01097416	0	0
30.80714	-0.5047606	0.1736207	0	0	0	0	0	0
30.82371	-0.5047606	0.1736207	0	0	0	0	0	0
30.84027	-0.5047606	0.1736207	0	0	0	0	0	0
30.85684	-0.5047606	0.1736207	0	0	0	0	0	0
30.87341	-0.5047606	0.1736207	0	0	0	0	0	0
30.88997	-0.5047606	0.1736207	0	0	0	0	0	0
30.90675	-0.5047606	0.1736207	0	0	0	0	0	0
30.92327	-0.5047606	0.1736207	0	0	0	0	0	0
30.95629	-0.5047404	0.1736026	0.0006100907	-0.0005478181	0.01231617	-0.01105905	0	0
30.97281	-0.5047001	0.1735665	0.002442985	-0.002190387	0.0369986	-0.0331567	0	0
30.98937	-0.5046799	0.1735484	0.001216037	-0.001092815	-0.03708486	0.03317445	0	0
31.00594	-0.5046396	0.1735122	0.002435672	-0.00218383	0.03680866	-0.03292692	0	0
31.02251	-0.5046396	0.173476	0	-0.00218383	-0.07350874	0	0	0
31.03908	-0.5045993	0.1734398	0.002432075	-0.00218473	0.07340015	-2.714469E-05	0	0
31.05564	-0.5045388	0.1733855	0.00365171	-0.003276645	0.03680866	-0.03295407	0	0
31.07221	-0.5044984	0.1733493	0.002435392	-0.002183579	-0.03670643	0.0329869	0	0
31.08889	-0.5044783	0.1732589	0.001208248	-0.005425496	-0.03691417	-0.09752128	0	0
31.12191	-0.5044581	0.1732046	0.0006118604	-0.001643811	-0.01200025	0.0760935	0	0
31.13848	-0.5044178	0.1731322	0.002432075	-0.00436856	0.03670448	-0.05494436	0	0
31.15504	-0.5043774	0.1730598	0.002435953	-0.004369063	0.0001170529	-1.517885E-05	0	0
31.17195	-0.5043573	0.1730056	0.001191887	-0.00321157	-0.03717154	0.03458479	0	0
31.18846	-0.5042967	0.1729513	0.003667129	-0.003287242	0.07407191	-0.002264467	0	0
31.20497	-0.5042967	0.1729513	0	0	-0.1110577	0.09955299	0	0
31.22148	-0.5042967	0.1729513	0	0	0	0	0	0
31.23799	-0.5042967	0.1729513	0	0	0	0	0	0
31.25444	-0.5042967	0.1729513	0	0	0	0	0	0
31.27102	-0.5043169	0.1729694	-0.001219354	0.001091664	-0.03692346	0.03305685	0	0
31.28758	-0.5043169	0.1729694	0	0	0.03680231	-0.03294838	0	0
31.30414	-0.5042967	0.1729513	0.001219635	-0.001091915	0.03681501	-0.03295976	0	0
31.32071	-0.5042967	0.1729513	0	0	-0.03680866	0.03295407	0	0
31.33728	-0.5043169	0.1729694	-0.001219635	0.001091915	-0.03680866	0.03295407	0	0
31.35385	-0.5043169	0.1729694	0	0	0.03680866	-0.03295407	0	0
31.37041	-0.5043169	0.1729694	0	0	0	0	0	0
31.38698	-0.5043169	0.1729694	0	0	0	0	0	0
31.40768	-0.5043371	0.1729874	-0.0009733229	0.0008739748	-0.02611841	0.02345248	0	0
31.42425	-0.5043371	0.1730236	0	0.00218473	0.02611841	0.03517316	0	0
31.44081	-0.5042967	0.1731684	0.002435672	0.00873712	0.07350874	0.1977515	0	0
31.45765	-0.5041959	0.1733674	0.005989465	0.01182052	0.1063841	0.09230275	0	0
31.47395	-0.5030048	0.1745072	0.07309347	0.06995036	2.025319	1.754463	0	0
31.49051	-0.500618	0.17675	0.144068	0.1353768	2.159796	1.990963	0	0
31.50719	-0.4951333	0.1819924	0.3289418	0.3144035	5.561574	5.385676	0	0
31.52365	-0.4899846	0.1871224	0.3128241	0.3116924	-0.4864609	-0.08182639	0	0
31.54021	-0.4820845	0.1946301	0.4768557	0.4531619	4.96678	4.283612	0	0
31.55722	-0.475097	0.2007784	0.4108392	0.3615023	-1.966237	-2.729991	0	0
31.57335	-0.4646156	0.2098028	0.6499445	0.559594	7.216214	5.97842	0	0
31.58991	-0.4589207	0.214662	0.343741	0.2933051	-9.365781	-8.144918	0	0
31.60648	-0.4473489	0.2244442	0.6985589	0.5905207	10.70904	8.970499	0	0
31.62305	-0.4389082	0.2314686	0.5094818	0.4239941	-5.706686	-5.026073	0	0
31.63961	-0.4302696	0.2386315	0.5214246	0.4323552	0.3604327	0.2523403	0	0
31.65618	-0.4182927	0.2484613	0.722927	0.5933273	6.081354	4.858146	0	0
31.71426	-0.3808693	0.2781899	0.6443772	0.5118831	-1.052325	-1.091101	0	0
31.79709	-0.3254486	0.3208165	0.66904	0.5145888	0.1750214	0.01920158	0	0
31.81366	-0.3116592	0.3312282	0.8323326	0.6284556	1.642727	1.145502	0	0
31.83023	-0.3013498	0.3389247	0.6222765	0.4645622	-6.339505	-4.946313	0	0
31.84693	-0.287904	0.3488892	0.8050979	0.5966462	5.495419	3.970305	0	0
31.86336	-0.281189	0.3538716	0.4086586	0.3032211	-11.96525	-8.856097	0	0
31.87993	-0.2679992	0.3634984	0.7961392	0.5810716	11.74218	8.419955	0	0
31.8965	-0.2589474	0.3700901	0.5463695	0.3978781	-7.538066	-5.528791	0	0
31.91306	-0.2489129	0.3772907	0.6057544	0.434679	1.792342	1.11072	0	0
31.92963	-0.2429219	0.3816156	0.3616155	0.2610505	-7.36855	-5.240422	0	0
31.94622	-0.2369131	0.385977	0.3621094	0.2628323	0.01489255	0.05373127	0	0
31.96301	-0.2331051	0.3887481	0.226771	0.1650191	-4.053717	-2.929745	0	0
31.97933	-0.230812	0.3903573	0.1405483	0.09862893	-2.604307	-2.005275	0	0
31.99604	-0.2278922	0.3924493	0.1747303	0.125198	1.035013	0.8044946	0	0
32.01247	-0.2219155	0.3966164	0.363851	0.2536867	5.707343	3.877575	0	0
32.02906	-0.2218404	0.3966343	0.004526617	0.001077339	-10.88076	-7.649306	0	0
32.0456	-0.2214647	0.3962945	0.02272186	-0.02055513	0.5491969	-0.6529444	0	0
32.06216	-0.2215148	0.3962229	-0.003023903	-0.004317292	-0.7778147	0.4905673	0	0
32.07874	-0.2215399	0.3961335	-0.001510704	-0.005397171	0.04566318	-0.03258707	0	0
32.0953	-0.2215399	0.3958831	0	-0.0151176	0.04559315	-0.2933632	0	0
32.11601	-0.2214898	0.3956327	0.002418292	-0.01209074	0.06487981	0.08120701	0	0
32.13263	-0.2213144	0.3952929	0.01054634	-0.02044193	0.217709	-0.223686	0	0
32.14915	-0.2197108	0.3933614	0.09710853	-0.1169619	2.612151	-2.912643	0	0
32.16571	-0.2167511	0.3909652	0.1786898	-0.144668	2.466387	-0.8376179	0	0
32.18228	-0.2116001	0.3871569	0.3109161	-0.2298688	3.991057	-2.571662	0	0
32.19884	-0.2061351	0.3832421	0.3298672	-0.236298	0.5719458	-0.1940326	0	0
32.21541	-0.2033853	0.3812582	0.1659801	-0.1197509	-4.946123	3.517398	0	0
32.23221	-0.2024006	0.3805254	0.05860972	-0.04361802	-3.217846	2.281671	0	0
32.24855	-0.2024006	0.3805254	0	0	-1.768845	1.316394	0	0
32.26511	-0.2024764	0.3804718	-0.004572732	-0.00323617	-0.1389814	-0.09835856	0	0
32.28175	-0.2025016	0.3804182	-0.001517704	-0.003223552	0.09202084	0.0003800688	0	0
32.29826	-0.2025774	0.3803645	-0.00458858	-0.003247386	-0.09265791	-0.0007191512	0	0
32.31482	-0.2026784	0.3802573	-0.006099185	-0.006475322	-0.04567954	-0.09761035	0	0
32.33138	-0.2027289	0.3801143	-0.003048188	-0.008630986	0.09210047	-0.06507305	0	0
32.34829	-0.2028804	0.3798641	-0.008958028	-0.01479493	-0.1765302	-0.1841205	0	0
32.36452	-0.2034862	0.3792208	-0.03734404	-0.03965583	-0.8566917	-0.7503034	0	0
32.38108	-0.2065133	0.3770763	-0.1827123	-0.1294396	-4.433157	-2.73805	0	0
32.39765	-0.2158725	0.3703938	-0.5649231	-0.4033538	-11.53514	-8.266747	0	0
32.41422	-0.224143	0.3644987	-0.4992112	-0.3558312	1.98319	1.434234	0	0
32.43079	-0.2347735	0.3569256	-0.6416548	-0.4571149	-4.298958	-3.056747	0	0
32.44737	-0.239572	0.3535145	-0.2893752	-0.2057058	10.62693	7.58405	0	0
32.46438	-0.2504448	0.3457462	-0.6392084	-0.456694	-10.41411	-7.471616	0	0
32.48048	-0.2538503	0.3432819	-0.2114501	-0.1530099	12.91721	9.170482	0	0
32.49705	-0.2588244	0.3397819	-0.3002353	-0.2112613	-2.717398	-1.782867	0	0
32.51362	-0.2655995	0.3350319	-0.4089447	-0.2867114	-3.280856	-2.277087	0	0
32.53019	-0.2674363	0.3336926	-0.1108699	-0.0808395	8.995916	6.213225	0	0
32.54694	-0.271031	0.3311746	-0.2145556	-0.1502874	-3.111688	-2.084186	0	0
32.56332	-0.2720323	0.3305139	-0.06112999	-0.0403379	4.630394	3.318284	0	0
32.66277	-0.2730575	0.3315854	-0.01030918	0.01077459	0.4387699	0.4412881	0	0
32.67928	-0.2734967	0.3319425	-0.02658776	0.0216224	-0.1403774	0.09354547	0	0
32.69604	-0.2739846	0.3322997	-0.02911899	0.02131717	-0.07607749	-0.009174	0	0
32.71255	-0.275033	0.3330676	-0.06348716	0.04649962	-1.033071	0.7569579	0	0
32.72898	-0.2750086	0.3330497	0.001483776	-0.001088345	1.97218	-1.444523	0	0
32.74555	-0.2750086	0.333014	0	-0.002155048	-0.04496683	-0.03232716	0	0
32.76212	-0.2750086	0.333014	0	0	0	0.06503949	0	0
32.78147	-0.2749598	0.3329783	0.002519466	-0.001844939	0.07014261	-0.0513636	0	0
32.79811	-0.2749598	0.3329783	0	0	-0.06999394	0.05125473	0	0
32.81462	-0.2748867	0.3329247	0.004426903	-0.003244831	0.133512	-0.09786161	0	0
32.83117	-0.2748623	0.3329068	0.001473513	-0.001079015	-0.0893392	0.06551533	0	0
32.84774	-0.2747648	0.3328354	0.005885908	-0.004311895	0.1332584	-0.09763597	0	0
32.8643	-0.2747648	0.3328354	0	0	-0.1776371	0.1301333	0	0
32.88117	-0.2747405	0.3328176	0.001445189	-0.001058274	0.04322277	-0.0316509	0	0
32.89768	-0.2747405	0.3328176	0	0	-0.04329687	0.03170516	0	0
32.93057	-0.2747405	0.3328176	0	0	0	0	0	0
32.94722	-0.2747405	0.3328176	0	0	0	0	0	0
32.9637	-0.2747405	0.3328176	0	0	0	0	0	0
32.98027	-0.2747405	0.3328176	0	0	0	0	0	0
32.99683	-0.2747648	0.3328354	-0.001471477	0.001077524	-0.04440927	0.03251974	0	0
33.0134	-0.2747892	0.3328533	-0.001471477	0.001077524	0	0	0	0
33.02997	-0.2747892	0.3328533	0	0	0.04440927	-0.03251974	0	0
33.04679	-0.2747892	0.3328533	0	0	0	0	0	0
33.0631	-0.2747892	0.3328533	0	0	0	0	0	0
33.07967	-0.2747892	0.3328533	0	0	0	0	0	0
33.09624	-0.2747892	0.3328533	0	0	0	0	0	0
33.1128	-0.2747892	0.3328533	0	0	0	0	0	0
33.12937	-0.2747405	0.3328176	0.002942954	-0.002155048	0.08881854	-0.06503949	0	0
33.14594	-0.2747648	0.3327997	-0.001471477	-0.001077524	-0.1332278	0.03251974	0	0
33.16287	-0.2747648	0.3327997	0	0	0.04392381	0.03216426	0	0
33.17907	-0.2747405	0.3327818	0.001504739	-0.00110372	0.0454131	-0.03331034	0	0
33.19564	-0.2746917	0.3327461	0.002942954	-0.002155048	0.04389052	-0.03208374	0	0
33.21241	-0.2746673	0.3327283	0.001454067	-0.001064775	-0.0446673	0.03270869	0	0
33.22877	-0.2745698	0.3326568	0.005960446	-0.004365166	0.1360184	-0.09961747	0	0
33.24534	-0.274521	0.3326211	0.002942954	-0.002155048	-0.09162717	0.06711099	0	0
33.26191	-0.2744479	0.3325675	0.004414431	-0.003234371	0.04440927	-0.03257403	0	0
33.27847	-0.2744235	0.3325497	0.001473276	-0.001077524	-0.08876424	0.06509378	0	0
33.29504	-0.2744235	0.3325497	0	0	-0.04446356	0.03251974	0	0
33.31198	-0.2743991	0.3325318	0.001439006	-0.001053746	0.04294476	-0.03144732	0	0
33.32817	-0.2743991	0.3324961	0	-0.00220664	-0.04342928	-0.0347944	0	0
33.34474	-0.2743991	0.3324961	0	0	0	0.06735648	0	0
33.36131	-0.2743747	0.3324783	0.001471477	-0.001077524	0.04440927	-0.03251974	0	0
33.37788	-0.2743747	0.3324783	0	0	-0.04440927	0.03251974	0	0
33.39454	-0.2743747	0.3324783	0	0	0	0	0	0
33.41105	-0.2743747	0.332514	0	0.002162517	0	0.06518235	0	0
33.44815	-0.2743747	0.332514	0	0	0	-0.04034236	0	0
33.50812	-0.2743991	0.3325318	-0.0004065025	0.000298168	-0.004187942	0.00307184	0	0
33.52466	-0.2743747	0.332514	0.001473513	-0.001080816	0.02457048	-0.01802236	0	0
33.54123	-0.2743747	0.332514	0	0	-0.04450145	0.03264165	0	0
33.5578	-0.2743747	0.332514	0	0	0	0	0	0
33.57436	-0.2743747	0.332514	0	0	0	0	0	0
33.59093	-0.2743991	0.3324961	-0.001471477	-0.001077524	-0.04440927	-0.03251974	0	0
33.60769	-0.2743747	0.3324783	0.001454729	-0.00106526	0.08780763	0.0003680135	0	0
33.62406	-0.2743747	0.3324783	0	0	-0.04390887	0.03215331	0	0
33.64071	-0.2743747	0.3324783	0	0	0	0	0	0
33.65722	-0.2743747	0.3324783	0	0	0	0	0	0
33.67376	-0.2743503	0.3324604	0.001473853	-0.001079264	0.04459391	-0.03265495	0	0
33.69033	-0.274326	0.3324426	0.001471477	-0.001077524	-7.17527E-05	5.25434E-05	0	0
33.70689	-0.2742772	0.3324068	0.002944753	-0.002156847	0.04446356	-0.03257403	0	0
33.72377	-0.2742284	0.3323711	0.002889071	-0.002115591	-0.001664964	0.001233604	0	0
33.74003	-0.274204	0.3323533	0.001499091	-0.001097745	-0.04194485	0.03071512	0	0
33.7566	-0.274204	0.3323533	0	0	-0.04566323	0.03343799	0	0
33.77331	-0.274204	0.3323533	0	0	0	0	0	0
33.78973	-0.274204	0.3323533	0	0	0	0	0	0
33.8063	-0.274204	0.3323533	0	0	0	0	0	0
33.82286	-0.274204	0.3323533	0	0	0	0	0	0
33.83943	-0.2741309	0.3324068	0.00441623	0.003232572	0.1332821	0.09755923	0	0
33.85637	-0.2739358	0.3325497	0.01152251	0.008437289	0.2121236	0.1553616	0	0
33.87257	-0.2730575	0.3331926	0.05420922	0.03968058	1.288287	0.9429244	0	0
33.88913	-0.2729843	0.3332104	0.004419828	0.001077524	-1.51944	-1.178063	0	0
33.9057	-0.2726914	0.3334247	0.01767751	0.01293569	0.4001177	0.3578801	0	0
33.92227	-0.2711776	0.3344961	0.09137729	0.06467124	2.224263	1.561382	0	0
33.93884	-0.2683662	0.336514	0.169693	0.1217998	2.363572	1.724144	0	0
33.9554	-0.2613557	0.3414783	0.4231576	0.2996453	7.649578	5.367387	0	0
33.97197	-0.2569791	0.3446212	0.2641679	0.1897036	-4.798318	-3.318046	0	0
33.98854	-0.2453502	0.3529966	0.7019269	0.5055387	13.21159	9.531922	0	0
34.0051	-0.2406893	0.3563541	0.2813318	0.2026609	-12.69359	-9.14087	0	0
34.02167	-0.2335534	0.36148	0.4307201	0.3094023	4.508545	3.221464	0	0
34.03824	-0.2242181	0.3681607	0.5634831	0.4032459	4.006795	2.832204	0	0
34.05481	-0.2221158	0.3696614	0.1268915	0.09058039	-13.17636	-9.436264	0	0
34.09129	-0.2087055	0.3790956	0.3675706	0.2585885	4.53675	3.166918	0	0
34.10786	-0.2030319	0.3829382	0.3424602	0.2319393	-0.4733256	-0.5023316	0	0
34.12442	-0.2013398	0.3839571	0.1021563	0.06151219	-7.253222	-5.144094	0	0
34.15755	-0.1983316	0.3824735	0.09078681	-0.04477392	-0.2287715	-2.138645	0	0
34.17412	-0.1982557	0.3824199	0.004580827	-0.00323617	-1.734468	0.8357411	0	0
34.19069	-0.1982304	0.382402	0.001526343	-0.001079323	-0.09218452	0.06509378	0	0
34.20726	-0.1982304	0.382402	0	0	-0.04606511	0.03257403	0	0
34.22382	-0.1982304	0.382402	0	0	0	0	0	0
34.24064	-0.1982304	0.382402	0	0	0	0	0	0
34.25696	-0.1982557	0.3823842	-0.001549896	-0.001095979	-0.04677596	-0.0330767	0	0
34.27367	-0.198281	0.3823663	-0.001513995	-0.001068178	0.001087001	0.000841736	0	0
34.29009	-0.198281	0.3823663	0	0	0.04569246	0.03223768	0	0
34.30666	-0.198281	0.3823305	0	-0.002158646	0	-0.06543433	0	0
34.32323	-0.198281	0.3823305	0	0	0	0.06514806	0	0
34.33979	-0.198281	0.3823305	0	0	0	0	0	0
34.35636	-0.1983063	0.3823127	-0.001526343	-0.001079323	-0.04606511	-0.03257403	0	0
34.37293	-0.1983063	0.3823127	0	0	0.04606511	0.03257403	0	0
34.3895	-0.1983316	0.3822948	-0.001527242	-0.001077524	-0.04609226	-0.03251974	0	0
34.40606	-0.1983063	0.3822054	0.001527242	-0.005394816	0.09218452	-0.1302961	0	0
