Time	Pos X	Pos Y	Vel X	Vel Y	Acc X	Acc YForce X	Force Y
0.01656634	-0.2113988	0.3681428	0.003095871	-0.005391338	-4.534902E-05	7.897355E-05	0	0
0.06747726	-0.2113988	0.3681428	0	0	4.537189E-05	-7.901339E-05	0	0
0.08404478	-0.2113988	0.3681428	0	0	0	0	0	0
0.1006127	-0.2113988	0.3681428	0	0	0	0	0	0
0.1171786	-0.2113988	0.3681428	0	0	0	0	0	0
0.1337458	-0.2113988	0.3681428	0	0	0	0	0	0
0.1668785	-0.2113988	0.3681428	0	0	0	0	0	0
0.2081001	-0.2113988	0.3681428	0	0	0	0	0	0
0.2408653	-0.2113988	0.3681428	0	0	0	0	0	0
0.2574328	-0.211424	0.3681607	-0.00151822	0.001077505	-0.03077514	0.0218416	0	0
0.2739995	-0.211424	0.368125	0	-0.002155114	0.04582027	-0.09756125	0	0
0.2905662	-0.211424	0.368125	0	0	0	0.06504346	0	0
0.3072431	-0.211424	0.368125	0	0	0	0	0	0
0.3237021	-0.211424	0.368125	0	0	0	0	0	0
0.340268	-0.211424	0.368125	0	0	0	0	0	0
0.3568344	-0.211424	0.368125	0	0	0	0	0	0
0.3734019	-0.211424	0.368125	0	0	0	0	0	0
0.3902967	-0.211424	0.368125	0	0	0	0	0	0
0.4065326	-0.211424	0.368125	0	0	0	0	0	0
0.4231001	-0.211424	0.368125	0	0	0	0	0	0
0.4398311	-0.211424	0.368125	0	0	0	0	0	0
0.4600738	-0.211424	0.368125	0	0	0	0	0	0
0.4766417	-0.211424	0.368125	0	0	0	0	0	0
0.4932084	-0.211424	0.368125	0	0	0	0	0	0
0.5098794	-0.211424	0.368125	0	0	0	0	0	0
0.5594757	-0.211424	0.368125	0	0	0	0	0	0
0.5764266	-0.211424	0.368125	0	0	0	0	0	0
0.5926076	-0.211424	0.368125	0	0	0	0	0	0
0.6094503	-0.211424	0.368125	0	0	0	0	0	0
0.6259606	-0.211424	0.368125	0	0	0	0	0	0
0.6423169	-0.211424	0.368125	0	0	0	0	0	0
0.6589844	-0.211424	0.368125	0	0	0	0	0	0
0.6754966	-0.211424	0.368125	0	0	0	0	0	0
0.6920077	-0.211424	0.368125	0	0	0	0	0	0
0.7085745	-0.211424	0.368125	0	0	0	0	0	0
0.7255309	-0.211424	0.368125	0	0	0	0	0	0
0.741708	-0.2113988	0.3679642	0.00155486	-0.009938948	0.04692713	-0.2999667	0	0
0.7582747	-0.2116755	0.3669817	-0.01670211	-0.05930691	-0.557569	-1.507701	0	0
0.7750673	-0.2136367	0.364588	-0.1167901	-0.142545	-3.000303	-2.495201	0	0
0.7915779	-0.2168515	0.3521215	-0.1947082	-0.7550586	-2.339658	-18.39203	0	0
0.8079745	-0.2165754	0.3387462	0.0168391	-0.815736	6.428593	-1.843892	0	0
0.8245413	-0.2156214	0.3245313	0.05758624	-0.8580379	1.236135	-1.283303	0	0
0.8411092	-0.214265	0.3087412	0.08186942	-0.9530497	0.7328624	-2.867439	0	0
0.8576744	-0.2139132	0.3056324	0.02123656	-0.1876711	-1.829979	23.10013	0	0
0.8742415	-0.2112479	0.2981986	0.1608788	-0.448712	4.214691	-7.878753	0	0
0.8908078	-0.2117258	0.2985381	-0.02885096	0.02049925	-5.72623	14.16126	0	0
0.9076616	-0.2116504	0.2984845	0.004477311	-0.003181154	0.9972528	-0.708568	0	0
0.9239413	-0.2116504	0.2984845	0	0	-0.1351294	0.09601019	0	0
0.9405081	-0.2116252	0.2984667	0.001518291	-0.001079354	0.04622383	-0.03286054	0	0
0.9570744	-0.2116252	0.2984667	0	0	-0.04582402	0.03257632	0	0
0.9736415	-0.2116504	0.2984845	-0.001518259	0.001079331	-0.04582254	0.03257526	0	0
0.9902083	-0.2116504	0.2984845	0	0	0.04582196	-0.03257485	0	0
1.006775	-0.2116504	0.2984845	0	0	0	0	0	0
1.023341	-0.2116504	0.2984845	0	0	0	0	0	0
1.039909	-0.2116504	0.2984845	0	0	0	0	0	0
1.056475	-0.2116504	0.2984845	0	0	0	0	0	0
1.073278	-0.2116504	0.2984845	0	0	0	0	0	0
1.089608	-0.2116252	0.2985024	0.001540281	0.001093161	0.04648777	0.0329931	0	0
1.106301	-0.2116252	0.2985024	0	0	-0.04664284	-0.03310315	0	0
1.122813	-0.2116252	0.2985024	0	0	0	0	0	0
1.139324	-0.2116001	0.2985203	0.001523444	0.001083017	0.04613281	0.03279584	0	0
1.156337	-0.2116001	0.2985203	0	0	-0.045443	-0.03230545	0	0
1.255275	-0.2116001	0.2984845	0	-0.0003611659	0	-0.003114804	0	0
1.276567	-0.2116001	0.2984845	0	0	0	0.003003971	0	0
1.293134	-0.2116001	0.2984845	0	0	0	0	0	0
1.309701	-0.2116001	0.2984845	0	0	0	0	0	0
1.326267	-0.2116001	0.2984845	0	0	0	0	0	0
1.342834	-0.2116001	0.2984845	0	0	0	0	0	0
1.35948	-0.2116001	0.2984845	0	0	0	0	0	0
1.375992	-0.2116001	0.2984845	0	0	0	0	0	0
1.409101	-0.2115749	0.2985024	0.000759717	0.000539183	0.01531043	0.01086605	0	0
1.425667	-0.2115749	0.2985024	0	0	-0.01529375	-0.01085422	0	0
1.442234	-0.2116001	0.2985203	-0.001518291	0.001079354	-0.04582394	0.03257626	0	0
1.458801	-0.2116001	0.2985203	0	0	0.04582344	-0.03257591	0	0
1.475368	-0.2116001	0.2985203	0	0	0	0	0	0
1.491935	-0.2116001	0.2985203	0	0	0	0	0	0
1.508503	-0.2116001	0.2985203	0	0	0	0	0	0
1.525098	-0.2116001	0.2985203	0	0	0	0	0	0
1.541635	-0.2116001	0.2985203	0	0	0	0	0	0
1.558203	-0.2116252	0.2985024	-0.001518149	-0.001079253	-0.04585909	-0.03260125	0	0
1.575133	-0.2116001	0.2984845	0.001485685	-0.001054414	0.08967034	0.0007414948	0	0
1.591334	-0.2116001	0.2984845	0	0	-0.04484259	0.03182549	0	0
1.607901	-0.2116001	0.2984845	0	0	0	0	0	0
1.624673	-0.2116001	0.2984845	0	0	0	0	0	0
1.641035	-0.2116001	0.2984845	0	0	0	0	0	0
1.657603	-0.2116001	0.2984845	0	0	0	0	0	0
1.674203	-0.2116001	0.2984845	0	0	0	0	0	0
1.690735	-0.2116001	0.2984845	0	0	0	0	0	0
1.707301	-0.2116001	0.2984845	0	0	0	0	0	0
1.724239	-0.2116001	0.2984845	0	0	0	0	0	0
1.740435	-0.2116001	0.2984845	0	0	0	0	0	0
1.757001	-0.2115749	0.2985024	0.001518324	0.001077578	0.04634349	0.0328907	0	0
1.773567	-0.2115749	0.2985024	0	0	-0.04582543	-0.03252302	0	0
1.790286	-0.2115749	0.2985024	0	0	0	0	0	0
1.806701	-0.2115749	0.2985024	0	0	0	0	0	0
1.823308	-0.2115749	0.2985024	0	0	0	0	0	0
1.839834	-0.2115749	0.2985024	0	0	0	0	0	0
1.856401	-0.2115749	0.2985024	0	0	0	0	0	0
1.873343	-0.2115749	0.2985024	0	0	0	0	0	0
1.889534	-0.2115749	0.2985024	0	0	0	0	0	0
1.906101	-0.2115749	0.2985024	0	0	0	0	0	0
1.922879	-0.2115749	0.2985024	0	0	0	0	0	0
1.976859	-0.2116001	0.2985203	-0.0004659739	0.0003312611	-0.00658545	0.004681599	0	0
1.993426	-0.2116001	0.2985203	0	0	0.006605202	-0.004695641	0	0
2.009992	-0.2116001	0.2985203	0	0	0	0	0	0
2.026558	-0.2115749	0.2985381	0.001518335	0.001079385	0.04582592	0.03257767	0	0
2.043126	-0.2115749	0.2985381	0	0	-0.04582477	-0.03257685	0	0
2.059692	-0.2115749	0.2985381	0	0	0	0	0	0
2.076488	-0.2115749	0.2985381	0	0	0	0	0	0
2.092825	-0.2115749	0.2985381	0	0	0	0	0	0
2.109392	-0.2115749	0.2985381	0	0	0	0	0	0
2.125959	-0.2115749	0.2985381	0	0	0	0	0	0
2.142525	-0.2115749	0.2985381	0	0	0	0	0	0
2.175659	-0.2115498	0.2985203	0.0007591457	-0.000539677	0.01527463	-0.01085874	0	0
2.192225	-0.2115498	0.2985203	0	0	-0.01527463	0.01085874	0	0
2.208793	-0.2115498	0.2985203	0	0	0	0	0	0
2.225359	-0.2115498	0.2985203	0	0	0	0	0	0
2.242105	-0.2115498	0.2985203	0	0	0	0	0	0
2.258492	-0.2115498	0.2985203	0	0	0	0	0	0
2.275128	-0.2115498	0.2985203	0	0	0	0	0	0
2.291639	-0.2115498	0.2985203	0	0	0	0	0	0
2.308192	-0.2115749	0.2985381	-0.001519516	0.001080225	-0.04595664	0.03267059	0	0
2.324759	-0.2115749	0.2985381	0	0	0.04587889	-0.03261533	0	0
2.341326	-0.2115749	0.2985381	0	0	0	0	0	0
2.357893	-0.2115749	0.2985381	0	0	0	0	0	0
2.374698	-0.2115749	0.2985381	0	0	0	0	0	0
2.391026	-0.2115749	0.2985381	0	0	0	0	0	0
2.407593	-0.2116001	0.298556	-0.001518291	0.001077555	-0.04615657	0.03275804	0	0
2.42416	-0.2116001	0.298556	0	0	0.04582278	-0.03252115	0	0
2.440745	-0.2116001	0.298556	0	0	0	0	0	0
2.457293	-0.2116252	0.2985739	-0.001520041	0.001080598	-0.04587692	0.03261393	0	0
2.473859	-0.2116252	0.2985739	0	0	0.04590335	-0.03263271	0	0
2.490426	-0.2116252	0.2985739	0	0	0	0	0	0
2.506993	-0.2116252	0.2985739	0	0	0	0	0	0
2.523559	-0.2115749	0.2985739	0.003036583	0	0.09164689	0	0	0
2.540128	-0.2116001	0.2985918	-0.001518139	0.001079245	-0.1374588	0.03257099	0	0
2.556828	-0.2115498	0.2986275	0.003012306	0.002139665	0.1361774	0.03187441	0	0
2.573346	-0.2115498	0.2986275	0	0	-0.09068255	-0.06441255	0	0
2.589851	-0.2115246	0.2986454	0.001523994	0.001083408	0.04614997	0.03280804	0	0
2.606393	-0.2115246	0.2986454	0	0	-0.04611601	-0.03278389	0	0
2.625772	-0.211424	0.2987526	0.005192698	0.005533341	0.1445594	0.1540426	0	0
2.642388	-0.2112982	0.2989134	0.007570486	0.009679676	0.06605838	0.1151912	0	0
2.708936	-0.2111221	0.2996104	0.002646459	0.01047343	-0.05920814	0.009544353	0	0
2.725173	-0.2110214	0.2997534	0.006198605	0.008806902	0.04290839	-0.02013093	0	0
2.741739	-0.2109963	0.2999142	0.001518335	0.009707271	-0.1426799	0.02744812	0	0
2.758306	-0.210946	0.3001287	0.003037395	0.01294468	0.04584663	0.09770802	0	0
2.774873	-0.2109711	0.300504	-0.001518291	0.02265384	-0.1374929	0.2930273	0	0
2.791494	-0.2110718	0.3008972	-0.00605608	0.02365413	-0.1367313	0.03014019	0	0
2.808006	-0.2123546	0.302023	-0.07769071	0.06818084	-2.162031	1.343877	0	0
2.824573	-0.2142147	0.3035955	-0.1122798	0.0949184	-1.045654	0.8082964	0	0
2.841139	-0.214667	0.3044531	-0.02729855	0.05177271	2.56485	-1.302196	0	0
2.857706	-0.2163495	0.3090807	-0.10156	0.2793261	-2.241313	6.86787	0	0
2.874272	-0.2168013	0.3136896	-0.02727258	0.2782071	2.242064	-0.03377029	0	0
2.89084	-0.2161236	0.3216023	0.04090904	0.4776095	2.057755	6.018061	0	0
2.907577	-0.2147674	0.3273173	0.08102475	0.3414566	1.204524	-4.088158	0	0
2.923972	-0.2148177	0.332639	-0.003064608	0.3245776	-2.53795	-0.5094346	0	0
2.94054	-0.2126563	0.3339604	0.1304568	0.07976262	4.050611	-7.4269	0	0
2.957107	-0.2124049	0.3339961	0.01517708	0.002155048	-3.479124	-2.342184	0	0
3.006807	-0.2124049	0.3340319	0	0.0007183736	-0.2290284	-0.02168001	0	0
3.040171	-0.2116504	0.3348176	0.02261509	0.02355078	0.2722623	0.2748786	0	0
3.056506	-0.2114995	0.3350676	0.00923963	0.01530482	-0.2691289	-0.1659177	0	0
3.073073	-0.2115749	0.3351212	-0.004555643	0.003232572	-0.4192746	-0.3669073	0	0
3.08964	-0.2117258	0.3352283	-0.009110011	0.006467316	-0.1374551	0.09762757	0	0
3.106216	-0.2119774	0.3354069	-0.01517396	0.01077279	-0.1829643	0.1299068	0	0
3.122773	-0.2151442	0.3376569	-0.1912692	0.1358953	-5.314717	3.776314	0	0
3.139339	-0.2193849	0.3406748	-0.2559843	0.1821696	-1.953766	1.397034	0	0
3.155906	-0.2242931	0.3441748	-0.2962674	0.2112674	-1.2158	0.8782098	0	0
3.172764	-0.2254685	0.3450141	-0.06972279	0.04978785	6.777874	-4.831225	0	0
3.189276	-0.2252934	0.3448533	0.01059911	-0.009733673	2.407043	-1.783708	0	0
3.205786	-0.2252434	0.3448176	0.003028022	-0.002162486	-0.2292712	0.2292743	0	0
3.222173	-0.2250934	0.3446748	0.009154991	-0.008718519	0.1862444	-0.1992868	0	0
3.277253	-0.2250684	0.3446569	0.0004539611	-0.0003241033	-0.1217486	0.1174584	0	0
3.293821	-0.2250434	0.3446391	0.001510088	-0.001077478	0.01474051	-0.01051496	0	0
3.310387	-0.2249434	0.3445676	0.006037361	-0.004312144	0.1366344	-0.09762311	0	0
3.326954	-0.2247683	0.3444426	0.01056688	-0.007544685	0.136707	-0.09756251	0	0
3.343521	-0.2246933	0.3443533	0.004528659	-0.00538942	-0.1822364	0.06504697	0	0
3.360088	-0.2246683	0.3443355	0.00150934	-0.001079385	-0.09112585	0.1300808	0	0
3.379549	-0.2246433	0.3443176	0.001284808	-0.0009172822	-0.006232225	0.004499401	0	0
3.396116	-0.2246433	0.3443176	0	0	-0.03566075	0.02545982	0	0
3.412683	-0.2246183	0.3442998	0.001510196	-0.001077555	0.04557847	-0.03252115	0	0
3.42925	-0.2246183	0.3442641	0	-0.002155048	-0.04557847	-0.03251927	0	0
3.445957	-0.2246183	0.3442283	0	-0.002138871	0	0.000486175	0	0
3.462476	-0.2246183	0.3441926	0	-0.0021613	0	-0.0006750355	0	0
3.47895	-0.2246183	0.3441926	0	0	0	0.06550816	0	0
3.495516	-0.2246433	0.3442105	-0.001510196	0.001077555	-0.04570772	0.03261337	0	0
3.512084	-0.2246433	0.3442105	0	0	0.04557847	-0.03252115	0	0
3.52865	-0.2246433	0.3442105	0	0	0	0	0	0
3.545219	-0.2246683	0.3441926	-0.001509123	-0.001077431	-0.04554411	-0.032516	0	0
3.561784	-0.2246933	0.3441748	-0.001509471	-0.001077679	-1.048786E-05	-7.487316E-06	0	0
3.57835	-0.2246933	0.344139	0	-0.002156971	0.04556051	-0.03257639	0	0
3.595063	-0.2246933	0.3441033	0	-0.002136264	0	0.0006222216	0	0
3.611574	-0.2246933	0.3441033	0	0	0	0.06429817	0	0
3.62805	-0.2246683	0.3440498	0.001517662	-0.003252391	0.04600805	-0.09859652	0	0
3.644617	-0.2246183	0.344014	0.003019493	-0.00215511	0.04545192	0.03320848	0	0
3.661184	-0.2245432	0.3439605	0.004528659	-0.003234371	0.04554738	-0.03257263	0	0
3.67775	-0.2243932	0.3438533	0.00905887	-0.006467409	0.136727	-0.0975768	0	0
3.694317	-0.2243432	0.3437819	0.003019406	-0.004311895	-0.1822779	0.06505588	0	0
3.710883	-0.224143	0.343639	0.01208012	-0.008622489	0.2734607	-0.1300977	0	0
3.72745	-0.224043	0.3435676	0.006039886	-0.00431202	-0.1823025	0.1300958	0	0
3.744168	-0.2239429	0.3434962	0.005986167	-0.004273032	-0.001613931	0.001171349	0	0
3.760678	-0.2232423	0.3429962	0.04243473	-0.03028383	1.096918	-0.7827939	0	0
3.77715	-0.2220407	0.3421033	0.07294787	-0.05420521	0.925149	-0.7252886	0	0
3.793717	-0.2208385	0.3412105	0.07256649	-0.0538942	-0.01154361	0.009413449	0	0
3.810283	-0.2208635	0.3412283	-0.001512039	0.001077586	-2.235759	1.659099	0	0
3.893116	-0.2209387	0.3412105	-0.0009073848	-0.0002155129	0.006083078	-0.01300913	0	0
3.942817	-0.2209637	0.3412283	-0.0005039936	0.0003591816	0.003043686	0.004336211	0	0
3.959384	-0.2209637	0.3412283	0	0	0.007605443	-0.005420178	0	0
3.97595	-0.2209637	0.3412283	0	0	0	0	0	0
3.992517	-0.2209387	0.3412105	0.001511995	-0.001077555	0.04563408	-0.03252209	0	0
4.009363	-0.2209387	0.3412105	0	0	-0.04525179	0.03224964	0	0
4.025866	-0.2209387	0.3412105	0	0	0	0	0	0
4.042217	-0.2209387	0.3412105	0	0	0	0	0	0
4.058783	-0.2209387	0.3412105	0	0	0	0	0	0
4.075401	-0.2209387	0.3412105	0	0	0	0	0	0
4.091917	-0.2209136	0.3411926	0.001516666	-0.001080884	0.04577373	-0.03262161	0	0
4.108483	-0.2209387	0.3411748	-0.001512039	-0.001077586	-0.09155142	9.9686E-05	0	0
4.144942	-0.2209637	0.3411569	-0.0006870512	-0.0004896415	0.01555853	0.01108811	0	0
4.161509	-0.2209637	0.3411569	0	0	0.01295706	0.00923412	0	0
4.178075	-0.2209637	0.3411569	0	0	0	0	0	0
4.194642	-0.2210138	0.3411212	-0.003024078	-0.002156971	-0.09127078	-0.06510034	0	0
4.211209	-0.221064	0.3410855	-0.003024803	-0.002155048	-2.188925E-05	5.804339E-05	0	0
4.22801	-0.221089	0.3410676	-0.001490925	-0.001062539	0.04596838	0.03274112	0	0
4.244342	-0.221089	0.3410676	0	0	0.04499815	0.03206888	0	0
4.260909	-0.221089	0.3410676	0	0	0	0	0	0
4.277556	-0.221089	0.3410676	0	0	0	0	0	0
4.294042	-0.221089	0.3410676	0	0	0	0	0	0
4.310608	-0.221089	0.3410676	0	0	0	0	0	0
4.327175	-0.221089	0.3410676	0	0	0	0	0	0
4.344092	-0.221089	0.3410676	0	0	0	0	0	0
4.360309	-0.221089	0.3410676	0	0	0	0	0	0
4.376875	-0.221089	0.3410676	0	0	0	0	0	0
4.393442	-0.221089	0.3410676	0	0	0	0	0	0
4.410008	-0.221089	0.3410676	0	0	0	0	0	0
4.426575	-0.221089	0.3410676	0	0	0	0	0	0
4.443141	-0.221064	0.3410498	0.001511995	-0.001077555	0.04563408	-0.03252209	0	0
4.460173	-0.221064	0.3410498	0	0	-0.04500197	0.0320716	0	0
4.476275	-0.221064	0.3410498	0	0	0	0	0	0
4.493203	-0.221064	0.3410498	0	0	0	0	0	0
4.509408	-0.2210389	0.3410319	0.001546638	-0.001103428	0.04667965	-0.03330296	0	0
4.525975	-0.2210389	0.3410319	0	0	-0.04719448	0.03367026	0	0
4.542736	-0.2210138	0.341014	0.001494445	-0.001065048	0.0448411	-0.03195696	0	0
4.559244	-0.2210138	0.341014	0	0	-0.04491951	0.03201283	0	0
4.575756	-0.2210389	0.3409962	-0.00151706	-0.001081165	-0.04594432	-0.03274319	0	0
4.658508	-0.2210389	0.3409962	0	0	0.01528306	0.0108918	0	0
4.675326	-0.2210389	0.3409962	0	0	0	0	0	0
4.691838	-0.2210389	0.3409962	0	0	0	0	0	0
4.708209	-0.2210389	0.3409962	0	0	0	0	0	0
4.72486	-0.2210389	0.3409962	0	0	0	0	0	0
4.741372	-0.2210389	0.3409962	0	0	0	0	0	0
4.757909	-0.2210389	0.3409962	0	0	0	0	0	0
4.774475	-0.2210389	0.3409962	0	0	0	0	0	0
4.807608	-0.2210389	0.3409962	0	0	0	0	0	0
4.824176	-0.2210389	0.3409962	0	0	0	0	0	0
4.840742	-0.2210389	0.3409962	0	0	0	0	0	0
4.857458	-0.2210389	0.3409962	0	0	0	0	0	0
4.873876	-0.2210389	0.3409962	0	0	0	0	0	0
4.893508	-0.2210389	0.3409962	0	0	0	0	0	0
4.910076	-0.2210389	0.3409962	0	0	0	0	0	0
4.926642	-0.2210389	0.3409962	0	0	0	0	0	0
4.94321	-0.2210138	0.3409783	0.001511908	-0.001077493	0.04562948	-0.03251881	0	0
4.959776	-0.2210138	0.3409783	0	0	-0.04563013	0.03251928	0	0
4.976343	-0.2210138	0.3409783	0	0	0	0	0	0
4.992909	-0.2210138	0.3409783	0	0	0	0	0	0
5.009476	-0.2210138	0.3409783	0	0	0	0	0	0
5.026043	-0.2210138	0.3409783	0	0	0	0	0	0
5.042609	-0.2210138	0.3409783	0	0	0	0	0	0
5.059175	-0.2210138	0.3409783	0	0	0	0	0	0
5.075742	-0.2210138	0.3409783	0	0	0	0	0	0
5.092309	-0.2210138	0.3409783	0	0	0	0	0	0
5.108875	-0.2210138	0.3409783	0	0	0	0	0	0
5.125442	-0.2210138	0.3409783	0	0	0	0	0	0
5.142009	-0.2210138	0.3409783	0	0	0	0	0	0
5.158576	-0.2209888	0.3409605	0.001511952	-0.001077524	0.04563145	-0.03252021	0	0
5.175179	-0.2209888	0.3409605	0	0	-0.04558094	0.03248421	0	0
5.191709	-0.2209637	0.3409426	0.001515397	-0.001081783	0.04573676	-0.03264968	0	0
5.208275	-0.2209637	0.3409426	0	0	-0.04578816	0.03268637	0	0
5.224842	-0.2209387	0.3409247	0.001511995	-0.001077555	0.04563408	-0.03252209	0	0
5.241409	-0.2209387	0.3409247	0	0	-0.04563276	0.03252115	0	0
5.257976	-0.2209387	0.3409247	0	0	0	0	0	0
5.274542	-0.2209387	0.3409247	0	0	0	0	0	0
5.291109	-0.2209387	0.3409247	0	0	0	0	0	0
5.307773	-0.2209387	0.3409247	0	0	0	0	0	0
5.324242	-0.2209387	0.3409247	0	0	0	0	0	0
5.340808	-0.2209387	0.3409247	0	0	0	0	0	0
5.357376	-0.2209387	0.3409247	0	0	0	0	0	0
5.373942	-0.2209637	0.3409069	-0.001512039	-0.001077586	-0.04563474	-0.03252255	0	0
5.390509	-0.2209637	0.3409069	0	0	0.04563539	0.03252302	0	0
5.407075	-0.2209637	0.3409069	0	0	0	0	0	0
5.489908	-0.2209387	0.3409247	0.0003024025	0.0002155135	0.003042292	0.002168153	0	0
5.506475	-0.2209637	0.3409069	-0.001511995	-0.001077555	-0.01825358	-0.0130088	0	0
5.523042	-0.2209637	0.3409069	0	0	0.04563342	0.03252162	0	0
5.539608	-0.2209637	0.3409069	0	0	0	0	0	0
5.556448	-0.2209637	0.3409069	0	0	0	0	0	0
5.572742	-0.2209637	0.3409069	0	0	0	0	0	0
5.589308	-0.2209637	0.3409069	0	0	0	0	0	0
5.625904	-0.2209637	0.3409069	0	0	0	0	0	0
5.642471	-0.2209637	0.3409069	0	0	0	0	0	0
5.659046	-0.2209637	0.3409069	0	0	0	0	0	0
5.675604	-0.2209637	0.3409069	0	0	0	0	0	0
5.692172	-0.2209387	0.340889	0.001511908	-0.001077493	0.04564064	-0.03252677	0	0
5.708737	-0.2209136	0.3408355	0.001512126	-0.003234744	6.570382E-06	-0.06510876	0	0
5.725567	-0.2208134	0.3406926	0.005954447	-0.008487632	0.1330243	-0.1572965	0	0
5.74187	-0.220613	0.3404426	0.01229526	-0.01533526	0.1913772	-0.2066737	0	0
5.758437	-0.2192345	0.339389	0.08320741	-0.06359554	2.157364	-1.468225	0	0
5.775101	-0.2164248	0.337389	0.168605	-0.1200158	2.569796	-1.697807	0	0
5.79157	-0.2133854	0.3351926	0.1845522	-0.1333676	0.4813011	-0.4029694	0	0
5.808136	-0.2066645	0.3303532	0.4056968	-0.2921248	6.694197	-4.805687	0	0
5.824703	-0.206362	0.3299603	0.01825997	-0.02371341	-11.69337	8.101022	0	0
5.84127	-0.2058073	0.3293174	0.03348336	-0.03880638	0.4594561	-0.4555198	0	0
5.857837	-0.2036124	0.3276566	0.1324824	-0.1002475	2.98784	-1.854324	0	0
5.874672	-0.2031076	0.3271923	0.02998693	-0.0275803	-3.068502	2.175506	0	0
5.891184	-0.2029056	0.3269065	0.01223215	-0.01730586	-0.5324309	0.30811	0	0
5.907697	-0.2028299	0.3263886	0.004586883	-0.0313637	-0.2315041	-0.4256817	0	0
5.924207	-0.2034862	0.3253885	-0.03975476	-0.06057576	-1.342755	-0.8846004	0	0
5.94072	-0.204319	0.3245134	-0.05043405	-0.05299415	-0.3233907	0.2295865	0	0
5.957237	-0.2041424	0.3244241	0.01069392	-0.005405601	1.850652	1.440745	0	0
5.973804	-0.204092	0.3243884	0.00304549	-0.002156847	-0.2311762	0.09819454	0	0
5.990371	-0.204092	0.3243884	0	0	-0.09191571	0.06509565	0	0
6.006937	-0.204092	0.3243884	0	0	0	0	0	0
6.023778	-0.204092	0.3243884	0	0	0	0	0	0
6.04029	-0.204092	0.3243884	0	0	0	0	0	0
6.056801	-0.204092	0.3243884	0	0	0	0	0	0
6.073204	-0.204092	0.3243884	0	0	0	0	0	0
6.089771	-0.204092	0.3243884	0	0	0	0	0	0
6.106337	-0.204092	0.3243884	0	0	0	0	0	0
6.13947	-0.204092	0.3243884	0	0	0	0	0	0
6.156043	-0.204092	0.3243884	0	0	0	0	0	0
6.172604	-0.204092	0.3243884	0	0	0	0	0	0
6.189171	-0.204092	0.3243884	0	0	0	0	0	0
6.205905	-0.204092	0.3243884	0	0	0	0	0	0
6.222303	-0.204092	0.3243884	0	0	0	0	0	0
6.23887	-0.2040415	0.3243527	0.003046477	-0.00215511	0.09241632	-0.0653763	0	0
6.255443	-0.2040162	0.3243348	0.001523162	-0.001078981	-0.04596712	0.03247296	0	0
6.272453	-0.203991	0.324317	0.001483089	-0.001049463	-0.001193255	0.0008789728	0	0
6.308631	-0.2039658	0.3242991	0.0006977211	-0.0004934297	-0.01476567	0.01045396	0	0
6.325198	-0.2039658	0.3242991	0	0	-0.01322823	0.009355028	0	0
6.341764	-0.2039405	0.3242813	0.001523688	-0.001077555	0.04598699	-0.03252209	0	0
6.358515	-0.2039405	0.3242813	0	0	-0.04573293	0.03234242	0	0
6.374898	-0.2039153	0.3242634	0.001539852	-0.001091449	0.04647418	-0.03294094	0	0
6.391537	-0.2038901	0.3242455	0.001517095	-0.001072892	-0.0006891724	0.0005619479	0	0
6.408049	-0.2038143	0.324192	0.004585343	-0.003245206	0.09255463	-0.0655285	0	0
6.425061	-0.2037134	0.3241205	0.00593432	-0.004199134	0.04023911	-0.02845504	0	0
6.490864	-0.203461	0.3238705	0.003835598	-0.003799366	-0.0253421	0.004827202	0	0
6.507431	-0.203461	0.3238705	0	0	-0.04656531	0.04612545	0	0
6.523998	-0.2034357	0.3238526	0.001523644	-0.001079323	0.04598434	-0.0325745	0	0
6.540643	-0.2034357	0.3238526	0	0	-0.04587606	0.0324978	0	0
6.557131	-0.203461	0.3238348	-0.001530959	-0.001082697	-0.04620643	-0.03267727	0	0
6.573699	-0.203461	0.3237991	0	-0.002155048	0.04631508	-0.03244112	0	0
6.590264	-0.203461	0.3237276	0	-0.004312268	0	-0.06510783	0	0
6.606831	-0.2033853	0.3236026	0.004571065	-0.007546484	0.137963	-0.09761445	0	0
6.623398	-0.2031833	0.3233883	0.01218951	-0.01293606	0.2299316	-0.1626624	0	0
6.640217	-0.2007839	0.321513	0.1426551	-0.1114946	3.907768	-2.952073	0	0
6.656723	-0.1990145	0.3202628	0.1072033	-0.0757457	-1.063814	1.07273	0	0
6.673099	-0.1883461	0.3125285	0.6514655	-0.4722924	16.55211	-12.05979	0	0
6.689664	-0.1804879	0.3068652	0.4743712	-0.3418754	-5.37605	3.959068	0	0
6.706231	-0.1753897	0.3031845	0.3077489	-0.2221842	-5.029106	3.612597	0	0
6.722797	-0.1700522	0.2993066	0.3221827	-0.2340741	0.4356318	-0.3588531	0	0
6.739782	-0.1680321	0.2977875	0.1189351	-0.08944062	-6.057745	4.310766	0	0
6.756294	-0.166804	0.2968938	0.07437532	-0.05412167	-1.330268	1.054396	0	0
6.772498	-0.1646536	0.2952852	0.1327111	-0.09927791	1.783134	-1.380278	0	0
6.789064	-0.1642182	0.2949813	0.02628123	-0.01834415	-3.247816	2.469776	0	0
6.80563	-0.1643207	0.2948026	-0.006183978	-0.01078845	-0.9798583	0.2280445	0	0
6.822197	-0.1649609	0.2943557	-0.03864538	-0.02697486	-0.9797292	-0.4885278	0	0
6.838764	-0.1690039	0.2915312	-0.2440447	-0.1704912	-6.199142	-4.331456	0	0
6.85533	-0.176104	0.2865964	-0.4285737	-0.2978747	-5.569259	-3.844555	0	0
6.871898	-0.180004	0.2837887	-0.2354048	-0.1694735	5.829932	3.875213	0	0
6.888463	-0.1824737	0.2821254	-0.1490845	-0.1004073	2.605266	2.084512	0	0
6.90503	-0.1843817	0.2807838	-0.1151716	-0.08097854	1.023552	0.5863949	0	0
6.921597	-0.1844072	0.2807659	-0.001535381	-0.001079354	3.429646	2.411432	0	0
6.938164	-0.1844072	0.2808017	0	0.002160445	0.04633856	0.09777873	0	0
6.954731	-0.1844072	0.2808017	0	0	0	-0.06520329	0	0
6.990793	-0.1844072	0.2808017	0	0	0	0	0	0
7.00736	-0.1844072	0.2808017	0	0	0	0	0	0
7.023927	-0.1844072	0.2808017	0	0	0	0	0	0
7.0405	-0.1844072	0.2808017	0	0	0	0	0	0
7.05706	-0.1844072	0.2808017	0	0	0	0	0	0
7.073626	-0.1844072	0.2808017	0	0	0	0	0	0
7.090193	-0.1844072	0.2808017	0	0	0	0	0	0
7.123326	-0.1843817	0.2807838	0.0007676906	-0.0005405765	0.01544641	-0.01087673	0	0
7.139894	-0.1843817	0.2807838	0	0	-0.01544626	0.01087663	0	0
7.156577	-0.1843817	0.2807838	0	0	0	0	0	0
7.17309	-0.1843817	0.280748	0	-0.002165815	0	-0.0652433	0	0
7.189602	-0.1843817	0.280748	0	0	0	0.06558055	0	0
7.206161	-0.1843817	0.280748	0	0	0	0	0	0
7.222727	-0.1843563	0.2807302	0.001535425	-0.001079385	0.04635324	-0.03258575	0	0
7.239294	-0.1843309	0.2807123	0.001534438	-0.001079323	-2.981224E-05	1.876221E-06	0	0
7.255861	-0.1843309	0.2807123	0	0	-0.04631009	0.0325745	0	0
7.27266	-0.1843309	0.2807123	0	0	0	0	0	0
7.288994	-0.1843309	0.2807123	0	0	0	0	0	0
7.305561	-0.1843309	0.2807123	0	0	0	0	0	0
7.35989	-0.1843309	0.2807123	0	0	0	0	0	0
7.393024	-0.1843309	0.2807123	0	0	0	0	0	0
7.409591	-0.1843054	0.2807302	0.001535381	0.001079354	0.03089252	0.02171706	0	0
7.426157	-0.1843054	0.2807302	0	0	-0.04633923	-0.03257591	0	0
7.442725	-0.1843309	0.280748	-0.001535337	0.001079323	-0.04633723	0.0325745	0	0
7.459291	-0.1843309	0.280748	0	0	0.04633857	-0.03257544	0	0
7.475857	-0.1843309	0.280748	0	0	0	0	0	0
7.492424	-0.1843309	0.280748	0	0	0	0	0	0
7.508991	-0.1843309	0.280748	0	0	0	0	0	0
7.525558	-0.1843309	0.280748	0	0	0	0	0	0
7.54235	-0.1843563	0.2807302	-0.001513829	-0.001064827	-0.04537984	-0.03192017	0	0
7.558691	-0.1843563	0.2807302	0	0	0.04568941	0.03213792	0	0
7.575257	-0.1843563	0.2807302	0	0	0	0	0	0
7.591824	-0.1843563	0.2807302	0	0	0	0	0	0
7.608397	-0.1843563	0.2807302	0	0	0	0	0	0
7.624958	-0.1843563	0.2807302	0	0	0	0	0	0
7.641525	-0.1843563	0.2807302	0	0	0	0	0	0
7.658092	-0.1843563	0.2807302	0	0	0	0	0	0
7.674657	-0.1843563	0.2807302	0	0	0	0	0	0
7.693724	-0.1843563	0.2807302	0	0	0	0	0	0
7.710471	-0.1843563	0.2807302	0	0	0	0	0	0
7.726981	-0.1843309	0.2807123	0.001539756	-0.001083064	0.04629935	-0.03256695	0	0
7.743425	-0.1843309	0.2807123	0	0	-0.04672408	0.03286571	0	0
7.760013	-0.1843309	0.2807123	0	0	0	0	0	0
7.776558	-0.1843054	0.2807302	0.001537328	0.001080723	0.04639799	0.03261722	0	0
7.793531	-0.1843054	0.2807302	0	0	-0.04586532	-0.03224276	0	0
7.809691	-0.1843054	0.2807302	0	0	0	0	0	0
7.826258	-0.1843054	0.2807302	0	0	0	0	0	0
7.842825	-0.1843309	0.280748	-0.001535381	0.001079354	-0.04633923	0.03257591	0	0
7.859574	-0.1843309	0.280748	0	0	0.04608587	-0.0323978	0	0
7.875958	-0.1843309	0.280748	0	0	0	0	0	0
7.892597	-0.1843309	0.280748	0	0	0	0	0	0
7.909091	-0.1843309	0.280748	0	0	0	0	0	0
7.925659	-0.1843309	0.280748	0	0	0	0	0	0
7.942224	-0.1843309	0.280748	0	0	0	0	0	0
7.958791	-0.1843309	0.280748	0	0	0	0	0	0
7.975358	-0.1843563	0.2807302	-0.001534482	-0.001079354	-0.04631209	-0.03257591	0	0
7.992168	-0.1843563	0.2807302	0	0	0.04597399	0.03233809	0	0
8.008491	-0.1843563	0.2807302	0	0	0	0	0	0
8.025057	-0.1843563	0.2807302	0	0	0	0	0	0
8.041623	-0.1843563	0.2807302	0	0	0	0	0	0
8.05819	-0.1843309	0.2807123	0.001534438	-0.001079323	0.04631075	-0.03257497	0	0
8.074757	-0.1843309	0.2807123	0	0	-0.04631075	0.03257497	0	0
8.091323	-0.1843309	0.2807123	0	0	0	0	0	0
8.107889	-0.1843309	0.2807123	0	0	0	0	0	0
8.124455	-0.1843309	0.2807123	0	0	0	0	0	0
8.141022	-0.1843309	0.2807123	0	0	0	0	0	0
8.157589	-0.1843309	0.2807123	0	0	0	0	0	0
8.174294	-0.1843309	0.2807123	0	0	0	0	0	0
8.190807	-0.1843054	0.2806944	0.001540302	-0.001084618	0.04636897	-0.03265115	0	0
8.207317	-0.1843054	0.2806944	0	0	-0.04664214	0.0328435	0	0
8.256989	-0.1837713	0.2803187	0.01075336	-0.007562303	0.1624837	-0.1142667	0	0
8.273555	-0.1834661	0.2801041	0.018426	-0.01295802	0.1158354	-0.0814602	0	0
8.290376	-0.1834661	0.2801041	0	0	-0.5518885	0.3881136	0	0
8.306888	-0.1834406	0.2800862	0.001541383	-0.001082939	0.04624219	-0.03248866	0	0
8.323255	-0.1834406	0.2800862	0	0	-0.04688064	0.03293722	0	0
8.339821	-0.1834406	0.2800862	0	0	0	0	0	0
8.356387	-0.1834406	0.2800862	0	0	0	0	0	0
8.372953	-0.1834406	0.2800862	0	0	0	0	0	0
8.38952	-0.1834406	0.2800862	0	0	0	0	0	0
8.408853	-0.1834406	0.2800862	0	0	0	0	0	0
8.42547	-0.1834406	0.2800862	0	0	0	0	0	0
8.441986	-0.1834406	0.2800862	0	0	0	0	0	0
8.458552	-0.1834406	0.2800862	0	0	0	0	0	0
8.475503	-0.1834406	0.2800862	0	0	0	0	0	0
8.491686	-0.1834406	0.2800862	0	0	0	0	0	0
8.508252	-0.1834406	0.2800862	0	0	0	0	0	0
8.524818	-0.1834406	0.2800862	0	0	0	0	0	0
8.541385	-0.1834406	0.2800862	0	0	0	0	0	0
8.558061	-0.1834406	0.2800862	0	0	0	0	0	0
8.574518	-0.1834406	0.2800862	0	0	0	0	0	0
8.591084	-0.1834406	0.2800862	0	0	0	0	0	0
8.607651	-0.1834406	0.2800862	0	0	0	0	0	0
8.624218	-0.1834406	0.2800862	0	0	0	0	0	0
8.64112	-0.1834406	0.2800862	0	0	0	0	0	0
8.657351	-0.1834406	0.2800862	0	0	0	0	0	0
8.673918	-0.1834406	0.2800862	0	0	0	0	0	0
8.690484	-0.1834406	0.2800862	0	0	0	0	0	0
8.707166	-0.1834406	0.2800862	0	0	0	0	0	0
8.723677	-0.1834406	0.2800504	0	-0.002167807	0	-0.0653099	0	0
8.74019	-0.1834152	0.2800325	0.001540391	-0.001082876	0.04664483	0.03285298	0	0
8.789883	-0.1831099	0.2797821	0.006143608	-0.00503951	0.06952872	-0.05976248	0	0
8.806449	-0.1830335	0.2797284	0.004608075	-0.003239955	-0.02317457	0.02715925	0	0
8.823248	-0.1829572	0.2796747	0.004543358	-0.003195075	-0.001939657	0.00134509	0	0
8.839757	-0.1829318	0.2796569	0.00154165	-0.001083126	-0.09011965	0.0634066	0	0
8.856271	-0.1829572	0.279639	-0.001541205	-0.001082814	-0.0933551	9.468937E-06	0	0
8.872783	-0.1829318	0.2796211	0.001541383	-0.001084744	0.09333893	-5.843724E-05	0	0
8.889284	-0.1829063	0.2796032	0.001542363	-0.001083627	2.968096E-05	3.381732E-05	0	0
8.90585	-0.18283	0.2795137	0.004607176	-0.005398725	0.09268298	-0.1304928	0	0
8.922417	-0.1827537	0.2794243	0.004608075	-0.005398725	2.713923E-05	0	0	0
8.938983	-0.1827282	0.2793348	0.001536325	-0.005400524	-0.09271094	-5.430657E-05	0	0
8.955549	-0.1826264	0.2791917	0.0061444	-0.008638679	0.13908	-0.09773334	0	0
8.972117	-0.1826264	0.2790486	0	-0.008637685	-0.1854384	2.999056E-05	0	0
8.988684	-0.1825501	0.2787803	0.004608075	-0.01619797	0.139072	-0.22817	0	0
9.00525	-0.1822447	0.2779573	0.0184359	-0.0496769	0.4173486	-1.010454	0	0
9.021816	-0.1801059	0.2739851	0.1291026	-0.2397764	3.340119	-5.737545	0	0
9.088082	-0.1819647	0.2263131	-0.02805012	-0.7194033	-1.897238	-5.790333	0	0
9.110922	-0.18428	0.1958024	-0.1013736	-1.335871	-0.8228832	-6.91839	0	0
9.127489	-0.1854242	0.1839437	-0.06906408	-0.7157927	0.8198981	15.73531	0	0
9.144474	-0.1861613	0.1699287	-0.0433982	-0.825143	0.7649545	-3.259113	0	0
9.160623	-0.1872285	0.1639155	-0.06608582	-0.3723655	-0.6847336	13.66524	0	0
9.177189	-0.1886	0.1557557	-0.08278614	-0.4925576	-0.5104814	-3.673932	0	0
9.194007	-0.1907066	0.1461125	-0.1252578	-0.5733839	-1.272205	-2.421083	0	0
9.210322	-0.1919241	0.1389102	-0.07462152	-0.44144	1.528251	3.982187	0	0
9.226889	-0.1931156	0.1289822	-0.07192663	-0.5992873	0.08195704	-4.800453	0	0
9.243455	-0.1930903	0.1217384	0.001530029	-0.4372652	2.217054	4.890116	0	0
9.260054	-0.1933944	0.1121978	-0.01832358	-0.5747814	-0.5986317	-4.146427	0	0
9.276588	-0.1931156	0.1051124	0.01686145	-0.4285119	1.061917	4.41455	0	0
9.293155	-0.1931156	0.09788789	0	-0.4360977	-0.5093926	-0.2291715	0	0
9.309721	-0.1922283	0.09114817	0.05355909	-0.4068338	1.61651	0.8832384	0	0
9.326288	-0.1931663	0.0820784	-0.05661589	-0.5474524	-3.325183	-4.244002	0	0
9.342854	-0.1947373	0.07544339	-0.09482939	-0.4005126	-1.153319	4.434781	0	0
9.359421	-0.1952438	0.06728271	-0.03057718	-0.492608	1.939247	-2.779605	0	0
9.376135	-0.1941799	0.0619566	0.06365186	-0.3186601	2.83137	5.226743	0	0
9.392554	-0.1940279	0.06043885	0.009258654	-0.09243612	-1.641637	6.827648	0	0
9.425687	-0.1908588	0.05560411	0.09565017	-0.1459212	1.743453	-1.079373	0	0
9.442254	-0.1906812	0.05547436	0.01071948	-0.007831613	-1.708874	2.778474	0	0
9.45882	-0.1906305	0.05543729	0.003062756	-0.002237925	-0.231087	0.1688227	0	0
9.475387	-0.1905543	0.05538168	0.004594583	-0.003356663	0.04623331	-0.03376552	0	0
9.491953	-0.1904021	0.05527046	0.009189166	-0.006713551	0.1386728	-0.1013169	0	0
9.508519	-0.1901484	0.05508509	0.01531737	-0.01118985	0.1849604	-0.1351028	0	0
9.525085	-0.1900468	0.05501094	0.00612731	-0.004476076	-0.2773727	0.2026338	0	0
9.541652	-0.1899453	0.05493679	0.00612731	-0.004476076	0	0	0	0
9.558218	-0.18992	0.05491825	0.001531827	-0.001118963	-0.1386999	0.1013237	0	0
9.575274	-0.1898946	0.05489971	0.001487887	-0.001087084	-0.001306899	0.0009481597	0	0
9.591352	-0.1898692	0.05488117	0.001578348	-0.001152945	0.0027302	-0.001987751	0	0
9.607918	-0.1898438	0.05486263	0.001531827	-0.001118963	-0.001425084	0.001040989	0	0
9.624484	-0.1898438	0.05486263	0	0	-0.04623331	0.0337723	0	0
9.64105	-0.1898185	0.05484409	0.001531827	-0.001119188	0.04623331	-0.03377909	0	0
9.657842	-0.1898185	0.05484409	0	0	-0.04592137	0.03355118	0	0
9.674184	-0.1897931	0.05482556	0.001553747	-0.001134308	0.04689351	-0.03423447	0	0
9.690854	-0.1897931	0.05482556	0	0	-0.04706556	0.03436007	0	0
9.707317	-0.1897677	0.05480701	0.001541411	-0.001126189	0.04652121	-0.03398944	0	0
9.723884	-0.1897677	0.05480701	0	0	-0.04666762	0.03409641	0	0
9.74045	-0.1897423	0.05478848	0.001531827	-0.001118963	0.04623331	-0.0337723	0	0
9.757016	-0.1897423	0.05478848	0	0	-0.04623331	0.0337723	0	0
9.79419	-0.1897169	0.05476994	0.0006826418	-0.0004987534	0.01270256	-0.009280773	0	0
9.810757	-0.1896916	0.0547514	0.001531827	-0.001119188	0.0158016	-0.011545	0	0
9.827324	-0.1896916	0.0547514	0	0	-0.04623198	0.03377812	0	0
9.84389	-0.1896916	0.0547514	0	0	0	0	0	0
9.860472	-0.1896916	0.0547514	0	0	0	0	0	0
9.877024	-0.1896916	0.0547514	0	0	0	0	0	0
9.89359	-0.1896916	0.0547514	0	0	0	0	0	0
9.910156	-0.1896916	0.0547514	0	0	0	0	0	0
9.926723	-0.1896916	0.0547514	0	0	0	0	0	0
9.943536	-0.1896916	0.0547514	0	0	0	0	0	0
9.959856	-0.1896916	0.0547514	0	0	0	0	0	0
9.976422	-0.1896916	0.0547514	0	0	0	0	0	0
9.992989	-0.1896916	0.0547514	0	0	0	0	0	0
10.00955	-0.1896916	0.0547514	0	0	0	0	0	0
10.07582	-0.1896916	0.0547514	0	0	0	0	0	0
10.09263	-0.1896916	0.0547514	0	0	0	0	0	0
10.10895	-0.1896916	0.0547514	0	0	0	0	0	0
10.12552	-0.1896916	0.0547514	0	0	0	0	0	0
10.14217	-0.1896916	0.0547514	0	0	0	0	0	0
10.15868	-0.1896916	0.0547514	0	0	0	0	0	0
10.17522	-0.1896916	0.0547514	0	0	0	0	0	0
10.19179	-0.1896916	0.0547514	0	0	0	0	0	0
10.20871	-0.1896916	0.0547514	0	0	0	0	0	0
10.22492	-0.1896916	0.0547514	0	0	0	0	0	0
10.24148	-0.1896916	0.0547514	0	0	0	0	0	0
10.25805	-0.1896916	0.0547514	0	0	0	0	0	0
10.27462	-0.1896916	0.0547514	0	0	0	0	0	0
10.29118	-0.1896916	0.0547514	0	0	0	0	0	0
10.30775	-0.1896916	0.0547514	0	0	0	0	0	0
10.32432	-0.1896916	0.0547514	0	0	0	0	0	0
10.34088	-0.1896916	0.0547514	0	0	0	0	0	0
10.35745	-0.1896916	0.0547514	0	0	0	0	0	0
10.37402	-0.1896916	0.0547514	0	0	0	0	0	0
10.39084	-0.1896662	0.05476994	0.001509183	0.001101996	0.04519729	0.03300278	0	0
10.40735	-0.1896916	0.05478848	-0.001537951	0.001123002	-0.09141017	0.00063016	0	0
10.43064	-0.1896662	0.05484409	0.001090518	0.002388548	0.06605194	0.03180247	0	0
10.4472	-0.1896154	0.05495532	0.003063479	0.006713839	0.04950819	0.1085361	0	0
10.46389	-0.1895393	0.05508509	0.0045625	0.007775446	0.0450745	0.03192176	0	0
10.49691	-0.1894124	0.05521485	0.003843189	0.003929489	-0.0144695	-0.07736449	0	0
10.51347	-0.1894124	0.05532607	0	0.006718417	-0.07751849	0.05625367	0	0
10.53004	-0.189387	0.05538168	0.001531916	0.003356856	0.04625328	-0.1014959	0	0
10.5466	-0.1893362	0.05545583	0.003064378	0.004475368	0.04625247	0.0337587	0	0
10.56317	-0.1891839	0.05564118	0.009193134	0.01118808	0.1849662	0.2025901	0	0
10.57974	-0.1890824	0.0558636	0.006129656	0.01342498	-0.09245598	0.06750969	0	0
10.5963	-0.189387	0.05616013	-0.01838823	0.0178998	-0.7399725	0.1350543	0	0
10.61287	-0.190123	0.0567346	-0.04442494	0.03467505	-0.7858121	0.5062925	0	0
10.62951	-0.1911632	0.05756836	-0.0625206	0.05011222	-0.5449675	0.4649045	0	0
10.64652	-0.1923044	0.05855011	-0.06706499	0.05769463	-0.1350319	0.2253035	0	0
10.66257	-0.1921776	0.05867976	0.007901199	0.008081152	2.267575	-1.500707	0	0
10.67913	-0.1918987	0.05906868	0.01683751	0.0234764	0.2740364	0.472103	0	0
10.69605	-0.1916451	0.05951311	0.01498827	0.02626646	-0.05522366	0.08331916	0	0
10.71227	-0.1914422	0.06151244	0.01251323	0.123306	-0.07469674	2.92866	0	0
10.72884	-0.1953198	0.06781863	-0.2340665	0.3806645	-7.522112	7.850928	0	0
10.7454	-0.1968388	0.07461328	-0.09168759	0.4101257	4.297127	0.8891647	0	0
10.76197	-0.1978257	0.0808996	-0.0595747	0.3794864	0.9692248	-0.924747	0	0
10.77853	-0.1989133	0.08850092	-0.06565361	0.4588435	-0.1834777	2.395208	0	0
10.79512	-0.2035367	0.09245282	-0.2786839	0.238208	-6.425013	-6.654386	0	0
10.81167	-0.2053786	0.09379384	-0.1113414	0.08106516	5.050696	-4.742855	0	0
10.82823	-0.2074458	0.09529971	-0.1247868	0.09089953	-0.406099	0.2970327	0	0
10.84516	-0.2083025	0.09592395	-0.0506019	0.03687468	2.214809	-1.612925	0	0
10.86137	-0.2083277	0.0959423	-0.001554868	0.001132819	1.480242	-1.078691	0	0
10.87793	-0.208378	0.09601574	-0.003041168	0.004432675	-0.04535264	0.1006911	0	0
10.8947	-0.2085795	0.09616259	-0.01201779	0.008758513	-0.2692952	0.1297734	0	0
10.91107	-0.2088062	0.09632781	-0.01384954	0.01009511	-0.05528362	0.04033973	0	0
10.92772	-0.2088818	0.09638289	-0.004538311	0.00330775	0.2820198	-0.2055766	0	0
10.94423	-0.2088818	0.09638289	0	0	0.1368562	-0.0997477	0	0
10.96077	-0.2089069	0.09640124	-0.001522676	0.001110022	-0.04607248	0.03358657	0	0
10.97733	-0.2089573	0.09643795	-0.003040268	0.002215888	-0.04584192	0.03340491	0	0
10.9939	-0.2089825	0.09645631	-0.001520134	0.001108169	0.04588038	-0.03343295	0	0
11.01077	-0.2089573	0.09647467	0.0014923	0.001087878	0.0900806	-0.0006067556	0	0
11.02703	-0.2089573	0.09647467	0	0	-0.0450403	-0.03283411	0	0
11.05061	-0.2089573	0.09647467	0	0	0	0	0	0
11.06731	-0.2089573	0.09647467	0	0	0	0	0	0
11.08383	-0.2089573	0.09647467	0	0	0	0	0	0
11.10031	-0.2089573	0.09647467	0	0	0	0	0	0
11.11688	-0.2089573	0.09647467	0	0	0	0	0	0
11.13386	-0.2089573	0.09647467	0	0	0	0	0	0
11.15001	-0.2089573	0.09647467	0	0	0	0	0	0
11.16658	-0.2089825	0.09660316	-0.001520134	0.007756282	-0.04646348	0.2370737	0	0
11.18314	-0.2089321	0.0967133	0.003040268	0.006648113	0.1376411	-0.03344654	0	0
11.19991	-0.2088314	0.09682342	0.006008931	0.00656938	0.0890689	-0.002362231	0	0
11.21628	-0.2075214	0.09785119	0.08001919	0.06278035	2.233634	1.69645	0	0
11.23293	-0.2045209	0.1000344	0.1801684	0.1310937	3.032548	2.068547	0	0
11.24941	-0.1951932	0.1069076	0.5660201	0.4170763	11.64536	8.631221	0	0
11.26598	-0.1934704	0.1081529	0.1039907	0.07516883	-13.9815	-10.34648	0	0
11.28254	-0.1866187	0.1131307	0.4135925	0.3004788	9.34434	6.800259	0	0
11.29911	-0.1811246	0.1171532	0.3316483	0.242809	-2.473224	-1.740577	0	0
11.31568	-0.1791633	0.1185968	0.1183888	0.08714192	-6.436555	-4.698314	0	0
11.33224	-0.1751601	0.121428	0.2416361	0.1708915	3.71972	2.527639	0	0
11.34901	-0.1751345	0.1214462	0.001522158	0.001088969	-7.202705	-5.093569	0	0
11.36552	-0.1751345	0.1214462	0	0	-0.04573741	-0.03272107	0	0
11.38194	-0.1751345	0.1214462	0	0	0	0	0	0
11.39855	-0.1751345	0.1214462	0	0	0	0	0	0
11.45587	-0.175109	0.121428	0.0004450619	-0.0003185884	0.006020606	-0.004309726	0	0
11.4726	-0.1750835	0.1214097	0.001525628	-0.001091452	0.01459221	-0.01043693	0	0
11.489	-0.175109	0.121428	-0.001556141	0.001113281	-0.09300798	0.06653899	0	0
11.50557	-0.175109	0.121428	0	0	0.04719945	-0.03376703	0	0
11.52213	-0.175109	0.121428	0	0	0	0	0	0
11.5387	-0.175109	0.121428	0	0	0	0	0	0
11.55527	-0.1751345	0.1214462	-0.001539923	0.001102322	-0.0464763	0.0332691	0	0
11.57183	-0.1751345	0.1214462	0	0	0.0464763	-0.0332691	0	0
11.5884	-0.1751601	0.1214645	-0.001540822	0.001102322	-0.04650345	0.0332691	0	0
11.60497	-0.1751601	0.121501	0	0.002204644	0.04650479	0.03327006	0	0
11.62153	-0.1753387	0.1216288	-0.01078126	0.007715805	-0.3253978	0.1663367	0	0
11.6381	-0.1779145	0.1235093	-0.1554774	0.1135021	-4.367064	3.192728	0	0
11.65467	-0.1811755	0.1258451	-0.1968343	0.1409924	-1.248155	0.8296605	0	0
11.67124	-0.1868728	0.1299303	-0.3438921	0.246583	-4.438212	3.186731	0	0
11.69151	-0.1965351	0.1368715	-0.4766239	0.3423975	-3.602976	2.600863	0	0
11.70826	-0.2014661	0.1404569	-0.2942668	0.2139685	4.924674	-3.468311	0	0
11.72464	-0.206362	0.1442037	-0.2989587	0.22879	-0.141605	0.4473257	0	0
11.74129	-0.2090832	0.146167	-0.1634534	0.1179282	4.103138	-3.356927	0	0
11.75777	-0.2148177	0.1508181	-0.3478546	0.2821349	-5.5654	4.955913	0	0
11.77434	-0.2194351	0.1548484	-0.2787215	0.2432826	2.091679	-1.175508	0	0
11.79091	-0.2217903	0.1606529	-0.1421703	0.3503846	4.121361	3.232531	0	0
11.80747	-0.2213896	0.1688424	0.02418673	0.4943192	5.020811	4.344079	0	0
11.82404	-0.2201369	0.1815045	0.07561813	0.7643288	1.552247	8.149142	0	0
11.84061	-0.2200366	0.1914367	0.006050505	0.5995055	-2.099615	-4.974522	0	0
11.85717	-0.2197108	0.2006883	0.0196682	0.5584631	0.4109946	-1.238697	0	0
11.87374	-0.2188083	0.2092987	0.05448107	0.5197536	1.050715	-1.168321	0	0
11.89031	-0.2180559	0.2203456	0.04541783	0.6668334	-0.2735448	4.439132	0	0
11.9069	-0.2179053	0.2310556	0.009069018	0.6453009	-1.096063	-0.6492908	0	0
11.92344	-0.2168766	0.2390802	0.06220985	0.4852599	1.60384	-4.830187	0	0
11.94001	-0.2160984	0.2441933	0.04696944	0.3086279	-0.4603805	-5.335677	0	0
11.95657	-0.2154456	0.2573511	0.03940835	0.7942512	-0.2282006	14.65656	0	0
11.97314	-0.2152949	0.2647305	0.009095619	0.4454497	-0.9148927	-10.52746	0	0
11.98971	-0.2144157	0.271766	0.05307067	0.4246859	1.327246	-0.6266884	0	0
12.00647	-0.2105937	0.278494	0.2279574	0.4012784	5.246681	-0.7022363	0	0
12.02299	-0.2087307	0.2833237	0.1128222	0.2924776	-3.459653	-3.269311	0	0
12.03941	-0.2080505	0.2864175	0.04141923	0.1884166	-2.168111	-3.159758	0	0
12.05601	-0.2024259	0.2946238	0.3388026	0.4943076	9.005632	9.26327	0	0
12.07254	-0.2011377	0.2987883	0.0779222	0.2519073	-7.873612	-7.315866	0	0
12.08911	-0.1997477	0.307169	0.08390511	0.5058863	0.1807624	7.673494	0	0
12.10567	-0.1991915	0.3131359	0.03357518	0.3601836	-1.519048	-4.397567	0	0
12.12255	-0.1952945	0.31728	0.2308373	0.2454754	5.897536	-3.429426	0	0
12.13881	-0.1919494	0.3194591	0.2058317	0.1340829	-0.7546911	-3.361931	0	0
12.15537	-0.1902245	0.3207093	0.104122	0.07546882	-3.09922	-1.786042	0	0
12.17194	-0.1901484	0.3207629	0.004595218	0.003234371	-3.00381	-2.180103	0	0
12.18851	-0.1901484	0.3207629	0	0	-0.1386879	-0.09761633	0	0
12.20511	-0.1900468	0.3209058	0.006112531	0.008605281	0.1842644	0.2594092	0	0
12.22164	-0.1898946	0.3210486	0.009212709	0.008644692	0.09356625	0.001189454	0	0
12.2382	-0.1873047	0.3229418	0.1563337	0.1142781	4.445621	3.191973	0	0
12.25477	-0.1857038	0.324067	0.09663556	0.06791852	-1.801796	-1.399216	0	0
12.27134	-0.1808699	0.3274959	0.2917743	0.2069692	5.889469	4.196678	0	0
12.2879	-0.1742668	0.3321925	0.3985873	0.2835077	3.223714	2.310004	0	0
12.30518	-0.1711511	0.3344069	0.1803305	0.12816	-6.448908	-4.590111	0	0
12.32535	-0.1707423	0.3346926	0.02027017	0.014166	-4.2741	-3.04399	0	0
12.34192	-0.1707167	0.3346747	0.001542444	-0.001079261	-0.5097458	-0.4149572	0	0
12.35849	-0.1707167	0.3346747	0	0	-0.04655105	0.03257216	0	0
12.37523	-0.1707167	0.334639	0	-0.00213234	0	-0.06401514	0	0
12.39162	-0.1706911	0.3345854	0.001559227	-0.003269376	0.04705892	-0.0343168	0	0
12.40819	-0.1706145	0.3344961	0.004627864	-0.00538973	0.0931128	-0.06433869	0	0
12.42475	-0.1705378	0.3344426	0.004628764	-0.003232759	2.715328E-05	0.06510127	0	0
12.44132	-0.1704611	0.334389	0.004627864	-0.003234558	-2.715328E-05	-5.429251E-05	0	0
12.45789	-0.1704356	0.3343354	0.001542621	-0.003232759	-0.09311817	5.429251E-05	0	0
12.47445	-0.1703078	0.3342104	0.007714906	-0.007546701	0.1862906	-0.1302025	0	0
12.49102	-0.1701289	0.3339783	0.01080015	-0.01401222	0.09311817	-0.1951409	0	0
12.50759	-0.1701289	0.3338354	0	-0.008624287	-0.3259679	0.1626174	0	0
12.52415	-0.1701544	0.3337819	-0.001542621	-0.003232759	-0.04655908	0.162726	0	0
12.54072	-0.17018	0.333764	-0.001543432	-0.001079323	-2.446817E-05	0.06499269	0	0
12.55729	-0.1702055	0.3337104	-0.001542621	-0.003232759	2.446817E-05	-0.06499269	0	0
12.57385	-0.1702311	0.3336926	-0.001542532	-0.001077524	2.680818E-06	0.06504698	0	0
12.59042	-0.1702822	0.3336568	-0.003086142	-0.002156971	-0.04658758	-0.03257872	0	0
12.60699	-0.1703845	0.333514	-0.006171385	-0.008622489	-0.09311817	-0.1951409	0	0
12.62391	-0.1704356	0.3334068	-0.003021608	-0.006333841	0.09406146	0.06834568	0	0
12.64012	-0.1705378	0.3332283	-0.006304776	-0.01101406	-0.09908906	-0.1412533	0	0
12.65668	-0.17087	0.3329604	-0.02005613	-0.01617012	-0.4195205	-0.157299	0	0
12.67325	-0.1715855	0.3324247	-0.0431871	-0.03233838	-0.6981543	-0.4880012	0	0
12.68982	-0.1720198	0.3321211	-0.02621406	-0.01832331	0.5122622	0.4229879	0	0
12.70646	-0.1720198	0.3321211	0	0	0.7893018	0.5517123	0	0
12.72295	-0.1720198	0.3320854	0	-0.002167202	0	-0.06541004	0	0
12.73999	-0.1719942	0.3320318	0.001499258	-0.003143719	0.04472252	-0.02912929	0	0
12.75608	-0.1719942	0.3318889	0	-0.008874622	-0.0452477	-0.172959	0	0
12.78922	-0.1718665	0.3316925	0.003855093	-0.005928352	0.07830385	0.05984402	0	0
12.85548	-0.171611	0.3314068	0.003855149	-0.004311632	5.574843E-07	0.01626487	0	0
12.87208	-0.1714833	0.3312818	0.007698455	-0.007534123	0.04638314	-0.0388908	0	0
12.88862	-0.1713811	0.3311746	0.006179546	-0.006477758	-0.04584208	0.0318821	0	0
12.90518	-0.1713811	0.3311389	0	-0.002155172	-0.1866603	0.1305686	0	0
12.92212	-0.1713811	0.3311389	0	0	0	0.06433771	0	0
12.93832	-0.1713811	0.3311389	0	0	0	0	0	0
12.95488	-0.1713811	0.3311389	0	0	0	0	0	0
12.97145	-0.1713811	0.3311389	0	0	0	0	0	0
12.9959	-0.1713811	0.3311389	0	0	0	0	0	0
13.01246	-0.1713555	0.3311211	0.001541722	-0.001079385	0.03759127	-0.02631827	0	0
13.02903	-0.1713555	0.3311211	0	0	-0.04652926	0.03257591	0	0
13.0456	-0.1713811	0.3311389	-0.001541633	0.001079323	-0.04652524	0.0325731	0	0
13.06216	-0.1713811	0.3311389	0	0	0.0465306	-0.03257684	0	0
13.07873	-0.1713811	0.3311389	0	0	0	0	0	0
13.0953	-0.1713811	0.3311389	0	0	0	0	0	0
13.11186	-0.1713555	0.3311211	0.001541722	-0.001079385	0.04653194	-0.03257778	0	0
13.12843	-0.1713555	0.3311211	0	0	-0.04653194	0.03257778	0	0
13.145	-0.1713555	0.3311211	0	0	0	0	0	0
13.16156	-0.17133	0.3311032	0.001542532	-0.001077524	0.04655506	-0.03252068	0	0
13.1783	-0.1713555	0.3310854	-0.001527236	-0.001066839	-0.09218413	0.0003208829	0	0
13.19481	-0.1713555	0.3310854	0	0	0.04594	0.03209104	0	0
13.21126	-0.1713555	0.3310854	0	0	0	0	0	0
13.22783	-0.17133	0.3310675	0.001542266	-0.001077338	0.04669891	-0.03262116	0	0
13.2444	-0.17133	0.3310675	0	0	-0.04654703	0.03251506	0	0
13.26096	-0.1713044	0.3310496	0.001542621	-0.001079385	0.0465631	-0.0325806	0	0
13.27753	-0.1713044	0.3310496	0	0	-0.04655774	0.03257685	0	0
13.2941	-0.1713044	0.3310496	0	0	0	0	0	0
13.31066	-0.1713044	0.3310496	0	0	0	0	0	0
13.3274	-0.1713044	0.3310496	0	0	0	0	0	0
13.34394	-0.1713044	0.3310496	0	0	0	0	0	0
13.36036	-0.17133	0.3310318	-0.001555968	-0.001086909	-0.04720375	-0.03297381	0	0
13.37693	-0.17133	0.3310318	0	0	0.04716009	0.03294332	0	0
13.3935	-0.1713044	0.3310139	0.001542799	-0.00107771	0.0465631	-0.0325263	0	0
13.41046	-0.1713044	0.3310139	0	0	-0.04601741	0.03214511	0	0
13.42663	-0.1713044	0.3310139	0	0	0	0	0	0
13.4432	-0.1713044	0.3310139	0	0	0	0	0	0
13.45999	-0.1713044	0.3310139	0	0	0	0	0	0
13.4929	-0.1712789	0.3309961	0.0007762006	-0.0005425253	0.01561749	-0.01091584	0	0
13.50953	-0.1712789	0.3309961	0	0	-0.0156692	0.01095199	0	0
13.52603	-0.1712533	0.3309782	0.001548684	-0.001081821	0.04674071	-0.03265036	0	0
13.5426	-0.1712789	0.3309603	-0.001542621	-0.001079385	-0.09348412	7.366324E-05	0	0
13.55956	-0.1712789	0.3309603	0	0	0.04600426	0.03218957	0	0
13.57573	-0.1712789	0.3309603	0	0	0	0	0	0
13.5923	-0.1712533	0.3309425	0.001542621	-0.001077586	0.04712608	-0.03291956	0	0
13.60886	-0.1712533	0.3309425	0	0	-0.04655774	0.03252255	0	0
13.62543	-0.1712533	0.3309425	0	0	0	0	0	0
13.64656	-0.1712533	0.3309425	0	0	0	0	0	0
13.66314	-0.1712533	0.3309425	0	0	0	0	0	0
13.67969	-0.1712533	0.3309425	0	0	0	0	0	0
13.69626	-0.1712533	0.3309425	0	0	0	0	0	0
13.72968	-0.1712278	0.3309246	0.0007644892	-0.000534028	0.01529118	-0.01068154	0	0
13.74596	-0.1712278	0.3309246	0	0	-0.01538185	0.01074487	0	0
13.76252	-0.1712278	0.3309246	0	0	0	0	0	0
13.77909	-0.1712278	0.3309246	0	0	0	0	0	0
13.79573	-0.1712278	0.3309246	0	0	0	0	0	0
13.82879	-0.1712278	0.3309246	0	0	0	0	0	0
13.84536	-0.1712278	0.3309246	0	0	0	0	0	0
13.86192	-0.1712022	0.3309068	0.001542444	-0.001077462	0.04655105	-0.03251787	0	0
13.87849	-0.1712022	0.3309068	0	0	-0.04655105	0.03251787	0	0
13.89506	-0.1712022	0.3309068	0	0	0	0	0	0
13.91162	-0.1712022	0.3309068	0	0	0	0	0	0
13.92832	-0.1712022	0.3309068	0	0	0	0	0	0
13.94484	-0.1712022	0.3309068	0	0	0	0	0	0
13.96132	-0.1712022	0.3309068	0	0	0	0	0	0
13.99487	-0.1712022	0.3309068	0	0	0	0	0	0
14.01138	-0.1712022	0.3309068	0	0	0	0	0	0
14.02759	-0.1712022	0.3309068	0	0	0	0	0	0
14.04416	-0.1712022	0.3309068	0	0	0	0	0	0
14.06072	-0.1712022	0.3309068	0	0	0	0	0	0
14.07729	-0.1712022	0.3309068	0	0	0	0	0	0
14.09394	-0.1712022	0.3309068	0	0	0	0	0	0
14.11045	-0.1712022	0.3309068	0	0	0	0	0	0
14.12699	-0.1712022	0.3309068	0	0	0	0	0	0
14.14355	-0.1712022	0.3309068	0	0	0	0	0	0
14.16012	-0.1712022	0.3309068	0	0	0	0	0	0
14.17669	-0.1712022	0.3309068	0	0	0	0	0	0
14.19325	-0.1712022	0.3309068	0	0	0	0	0	0
14.20982	-0.1712022	0.3309068	0	0	0	0	0	0
14.22639	-0.1712022	0.3309068	0	0	0	0	0	0
14.24295	-0.1712022	0.3309068	0	0	0	0	0	0
14.25952	-0.1712022	0.3309068	0	0	0	0	0	0
14.27608	-0.1712022	0.3309068	0	0	0	0	0	0
14.29308	-0.1712022	0.3309068	0	0	0	0	0	0
14.30922	-0.1712022	0.3309068	0	0	0	0	0	0
14.32578	-0.1712022	0.3309068	0	0	0	0	0	0
14.34235	-0.1712022	0.3309068	0	0	0	0	0	0
14.43167	-0.1712022	0.3309068	0	0	0	0	0	0
14.44819	-0.1712022	0.3309068	0	0	0	0	0	0
14.46467	-0.1712022	0.3309068	0	0	0	0	0	0
14.48124	-0.1712022	0.3309068	0	0	0	0	0	0
14.49781	-0.1712022	0.3309068	0	0	0	0	0	0
14.51473	-0.1712022	0.3309068	0	0	0	0	0	0
14.53126	-0.1712022	0.3309068	0	0	0	0	0	0
14.54751	-0.1712022	0.3309068	0	0	0	0	0	0
14.56427	-0.1712022	0.3309068	0	0	0	0	0	0
14.58064	-0.1712022	0.3309068	0	0	0	0	0	0
14.59721	-0.1712022	0.3309068	0	0	0	0	0	0
14.61377	-0.1712022	0.3309068	0	0	0	0	0	0
14.63034	-0.1711767	0.3308889	0.001541633	-0.001077524	0.04652792	-0.03252068	0	0
14.64691	-0.1711767	0.3308889	0	0	-0.04652658	0.03251974	0	0
14.66347	-0.1711767	0.3308889	0	0	0	0	0	0
14.68004	-0.1711767	0.3308889	0	0	0	0	0	0
14.69661	-0.1711767	0.3308889	0	0	0	0	0	0
14.71319	-0.1711767	0.3308889	0	0	0	0	0	0
14.72988	-0.1711767	0.3308889	0	0	0	0	0	0
14.74631	-0.1711767	0.3308889	0	0	0	0	0	0
14.76291	-0.1711767	0.3308889	0	0	0	0	0	0
14.77944	-0.1711767	0.3308889	0	0	0	0	0	0
14.79601	-0.1711767	0.3308889	0	0	0	0	0	0
14.81258	-0.1711767	0.3308889	0	0	0	0	0	0
14.82915	-0.1711767	0.3308889	0	0	0	0	0	0
14.84597	-0.1711767	0.3308889	0	0	0	0	0	0
14.86228	-0.1711767	0.3308889	0	0	0	0	0	0
14.87899	-0.1711767	0.3308889	0	0	0	0	0	0
14.89541	-0.1711767	0.3308889	0	0	0	0	0	0
14.91198	-0.1711767	0.3308889	0	0	0	0	0	0
14.92854	-0.1711767	0.3308889	0	0	0	0	0	0
14.94511	-0.1711767	0.3308889	0	0	0	0	0	0
14.96168	-0.1711767	0.3308889	0	0	0	0	0	0
14.97824	-0.1711767	0.3308889	0	0	0	0	0	0
14.99481	-0.1711767	0.3308889	0	0	0	0	0	0
15.01138	-0.1711767	0.3308889	0	0	0	0	0	0
15.04807	-0.1711767	0.3308889	0	0	0	0	0	0
15.06464	-0.1711767	0.3308889	0	0	0	0	0	0
15.08163	-0.1711767	0.3308889	0	0	0	0	0	0
15.09777	-0.1711767	0.3308889	0	0	0	0	0	0
15.11434	-0.1711767	0.3308889	0	0	0	0	0	0
15.1309	-0.1711767	0.3308889	0	0	0	0	0	0
15.1806	-0.1711767	0.3308889	0	0	0	0	0	0
15.19717	-0.1712022	0.3309068	-0.001541722	0.001077586	-0.02326563	0.01626151	0	0
15.21373	-0.1712022	0.3309068	0	0	0.04653194	-0.03252349	0	0
15.2303	-0.1712022	0.3309068	0	0	0	0	0	0
15.24687	-0.1712022	0.3309068	0	0	0	0	0	0
15.26343	-0.1712022	0.3309068	0	0	0	0	0	0
15.28027	-0.1712022	0.3309068	0	0	0	0	0	0
15.29678	-0.1712022	0.3309068	0	0	0	0	0	0
15.31313	-0.1712278	0.3309246	-0.001562956	0.001091791	-0.04755884	0.03322186	0	0
15.3297	-0.1712533	0.3309425	-0.001542621	0.001077586	0.0006177467	-0.0004315219	0	0
15.34627	-0.1712789	0.3309603	-0.001542089	0.001077214	1.607205E-05	-1.12276E-05	0	0
15.36283	-0.1712789	0.3309961	0	0.002157592	0.04654167	0.03260682	0	0
15.3794	-0.17133	0.3310318	-0.003083988	0.002154924	-0.09308834	-8.053921E-05	0	0
15.39597	-0.1713555	0.3310496	-0.001542621	0.001077586	0.04651854	-0.03251413	0	0
15.44589	-0.1715088	0.3311568	-0.003070556	0.002146732	-0.02298051	0.01608022	0	0
15.4624	-0.171611	0.3312639	-0.006189897	0.006488607	-0.04695405	0.06535631	0	0
15.4788	-0.1717388	0.3313532	-0.007788875	0.00544458	-0.04858448	-0.03172245	0	0
15.49537	-0.171841	0.3314247	-0.006168331	0.004311895	0.04915713	-0.03435854	0	0
15.51194	-0.1719176	0.3314782	-0.004625799	0.003232572	0.04655372	-0.03257403	0	0
15.5285	-0.1719431	0.3314961	-0.001541722	0.001079385	0.0930803	-0.06498519	0	0
15.54507	-0.1719431	0.3314961	0	0	0.04653194	-0.03257778	0	0
15.56164	-0.1719176	0.3314782	0.001541722	-0.001079385	0.04653194	-0.03257778	0	0
15.57848	-0.1719431	0.3314604	-0.001515805	-0.001059472	-0.09149946	0.0005959215	0	0
15.59499	-0.1719176	0.3314425	0.001546976	-0.001081259	0.09181129	-0.0006530866	0	0
15.61151	-0.1719176	0.3314425	0	0	-0.04684693	0.03274366	0	0
15.6279	-0.1718921	0.3314247	0.001557774	-0.001088806	0.04733798	-0.03308687	0	0
15.64454	-0.1718665	0.3314068	0.001536342	-0.0010732	-0.0006488752	0.0004724876	0	0
15.66103	-0.171841	0.3313889	0.001548049	-0.001083815	0.0003533476	-0.0003203863	0	0
15.6776	-0.1718154	0.3313711	0.001542621	-0.001077586	-0.0001641582	0.0001883814	0	0
15.69417	-0.1717899	0.3313532	0.001541722	-0.001077586	-2.714626E-05	0	0	0
15.71108	-0.1717643	0.3313354	0.00151042	-0.001055708	-0.0009350679	0.0006535641	0	0
15.72759	-0.1717899	0.3313175	-0.001546708	-0.001081071	-0.09146924	-0.0007588833	0	0
15.74387	-0.1717899	0.3313175	0	0	0.04716985	0.03296936	0	0
15.76507	-0.1717643	0.3312996	0.001204572	-0.000843341	0.03213876	-0.02250088	0	0
15.78164	-0.1717388	0.3312818	0.001542532	-0.001077524	0.00894779	-0.006200198	0	0
15.7982	-0.1717388	0.3312818	0	0	-0.04655506	0.03252068	0	0
15.81477	-0.1717388	0.3312461	0	-0.002155172	0	-0.06504697	0	0
15.83166	-0.1717388	0.3312461	0	0	0	0.06441841	0	0
15.91417	-0.1716877	0.3311389	0.0006192643	-0.001298486	0.00622999	-0.01306318	0	0
15.93074	-0.1717132	0.3311211	-0.001542621	-0.001079385	-0.02182021	0.00221142	0	0
15.9473	-0.1717132	0.3311211	0	0	0.04655774	0.03257685	0	0
15.96387	-0.1717388	0.3311032	-0.001541722	-0.001077586	-0.0465306	-0.03252255	0	0
15.98044	-0.1717388	0.3311032	0	0	0.04653194	0.03252349	0	0
15.997	-0.1717388	0.3311032	0	0	0	0	0	0
16.01357	-0.1717643	0.3311211	-0.001542621	0.001077586	-0.04655908	0.03252349	0	0
16.0303	-0.1717899	0.3311032	-0.001526693	-0.001067082	0.0004783864	-0.06441289	0	0
16.04681	-0.1718154	0.3311211	-0.001546619	0.001081009	-0.0005993905	0.06461749	0	0
16.06332	-0.171841	0.3311032	-0.001547879	-0.001081259	-3.814962E-05	-0.06547596	0	0
16.07983	-0.1718665	0.3310854	-0.001546797	-0.001081134	3.274386E-05	3.782748E-06	0	0
16.0964	-0.1719176	0.3310496	-0.003084166	-0.002156847	-0.04647545	-0.03251938	0	0
16.11297	-0.1720453	0.3309603	-0.007709065	-0.00538942	-0.1395797	-0.09755924	0	0
16.12954	-0.1721986	0.3308532	-0.009251597	-0.006466944	-0.04655372	-0.03251974	0	0
16.1461	-0.1726839	0.3305139	-0.02929103	-0.02048015	-0.6047912	-0.4229195	0	0
16.16269	-0.1744455	0.3293174	-0.106223	-0.07214455	-2.320611	-1.558427	0	0
16.17924	-0.182092	0.3239955	-0.4620188	-0.3215631	-10.73794	-7.527467	0	0
16.1958	-0.1843563	0.322406	-0.1366765	-0.09594283	9.823941	6.812764	0	0
16.21238	-0.1927607	0.3165655	-0.5071759	-0.3524527	-11.18041	-7.740593	0	0
16.2952	-0.207345	0.3064722	-0.1760781	-0.1218582	3.330978	2.319875	0	0
16.312	-0.207345	0.3064722	0	0	1.767415	1.223173	0	0
16.32834	-0.207345	0.3064722	0	0	0	0	0	0
16.34503	-0.207345	0.3064722	0	0	0	0	0	0
16.36154	-0.207345	0.3064722	0	0	0	0	0	0
16.37804	-0.2073702	0.3064901	-0.001526923	0.001083564	-0.04625035	0.03282107	0	0
16.39461	-0.2073702	0.3064901	0	0	0.04617566	-0.03276806	0	0
16.41117	-0.2073954	0.3065079	-0.001521845	0.001077524	-0.04593203	0.03252162	0	0
16.42774	-0.2074458	0.3065436	-0.003041892	0.002156847	-0.0458751	0.03257403	0	0
16.4446	-0.2075466	0.3066151	-0.005979152	0.004239506	-0.08787779	0.06230957	0	0
16.46111	-0.2076726	0.3067045	-0.007630205	0.005411083	-0.04947855	0.0351097	0	0
16.47762	-0.2078742	0.3068474	-0.01220602	0.00865529	-0.1385529	0.09823267	0	0
16.49722	-0.207975	0.3069189	-0.005141183	0.003645884	0.195617	-0.1387046	0	0
16.51379	-0.2080505	0.3069724	-0.004561939	0.003234371	0.01601491	-0.01137748	0	0
16.53036	-0.2083277	0.307169	-0.01672681	0.01186356	-0.3671365	0.2604294	0	0
16.54693	-0.208504	0.307294	-0.01064302	0.007548066	0.1836089	-0.1302419	0	0
16.56349	-0.2086299	0.3073834	-0.007601133	0.005393018	0.09180449	-0.06503949	0	0
16.58006	-0.2087307	0.3074549	-0.006081086	0.004313694	0.04587509	-0.03257404	0	0
16.5967	-0.2092091	0.3077943	-0.02875179	0.02039756	-0.6826707	0.4843248	0	0
16.61321	-0.2118516	0.3096702	-0.1600349	0.1136093	-3.959852	2.811517	0	0
16.62976	-0.2182064	0.3141898	-0.3841041	0.2731817	-6.77842	4.827298	0	0
16.64633	-0.2218153	0.316762	-0.2178138	0.1552391	5.021831	-3.561769	0	0
16.66289	-0.2270929	0.320495	-0.3185899	0.225349	-3.041429	2.11592	0	0
16.67946	-0.2352464	0.326335	-0.4921452	0.3525069	-5.238212	3.837853	0	0
16.69603	-0.2383051	0.3285317	-0.1846467	0.1326029	9.28086	-6.637098	0	0
16.71259	-0.2420291	0.3312103	-0.2247825	0.1616862	-1.211372	0.8777862	0	0
16.7293	-0.2439381	0.3325854	-0.1142943	0.08232521	3.320969	-2.38537	0	0
16.74573	-0.2476518	0.335264	-0.226003	0.1630151	-3.371375	2.435225	0	0
16.76232	-0.2514819	0.3380319	-0.2308419	0.1668187	-0.1465284	0.1151787	0	0
16.77886	-0.2556248	0.3410319	-0.2504956	0.1813931	-0.5932166	0.4399049	0	0
16.79543	-0.2593162	0.3437105	-0.2228137	0.1616808	0.8361635	-0.595432	0	0
16.81199	-0.2609873	0.3449248	-0.1008663	0.07329503	3.680377	-2.667488	0	0
16.82856	-0.2633193	0.3466212	-0.1407653	0.1023972	-1.204153	0.8783045	0	0
16.84513	-0.2633439	0.3466391	-0.001480471	0.001079323	4.203625	-3.057779	0	0
16.86169	-0.2633439	0.3466391	0	0	0.04468072	-0.03257403	0	0
16.87826	-0.2633439	0.3466391	0	0	0	0	0	0
16.89483	-0.2633439	0.3466391	0	0	0	0	0	0
16.91143	-0.2633439	0.3466391	0	0	0	0	0	0
16.92796	-0.2633439	0.3466391	0	0	0	0	0	0
16.94453	-0.2633439	0.3466391	0	0	0	0	0	0
16.96109	-0.2633439	0.3466391	0	0	0	0	0	0
16.97766	-0.2633439	0.3466391	0	0	0	0	0	0
16.99423	-0.2633193	0.3466212	0.001480471	-0.001079323	0.04468072	-0.03257403	0	0
17.01101	-0.2633193	0.3466212	0	0	-0.04439704	0.03236722	0	0
17.02751	-0.2632948	0.3466034	0.001486117	-0.001081633	0.04465063	-0.03249785	0	0
17.04393	-0.2632948	0.3466034	0	0	-0.04514215	0.03285559	0	0
17.06049	-0.2632948	0.3466034	0	0	0	0	0	0
17.07706	-0.2632703	0.3465855	0.001480471	-0.001077524	0.04468072	-0.03251974	0	0
17.09363	-0.2632703	0.3465855	0	0	-0.04468072	0.03251974	0	0
17.17661	-0.2632948	0.3466034	-0.0002955567	0.0002151135	-0.002968806	0.002160771	0	0
17.19303	-0.2632948	0.3466034	0	0	0.00297342	-0.00216413	0	0
17.21474	-0.2632948	0.3466034	0	0	0	0	0	0
17.2313	-0.2632948	0.3466034	0	0	0	0	0	0
17.24787	-0.2632948	0.3466034	0	0	0	0	0	0
17.26468	-0.2632948	0.3466034	0	0	0	0	0	0
17.281	-0.2632948	0.3466034	0	0	0	0	0	0
17.29757	-0.2632948	0.3466034	0	0	0	0	0	0
17.31421	-0.2632948	0.3466034	0	0	0	0	0	0
17.3307	-0.2632948	0.3466034	0	0	0	0	0	0
17.34727	-0.2632948	0.3466034	0	0	0	0	0	0
17.36384	-0.2632703	0.3465855	0.001480471	-0.001077524	0.04468072	-0.03251974	0	0
17.38041	-0.2632703	0.3465855	0	0	-0.04468072	0.03251974	0	0
17.39727	-0.2632703	0.3465855	0	0	0	0	0	0
17.41354	-0.2632703	0.3465855	0	0	0	0	0	0
17.43011	-0.2632703	0.3465855	0	0	0	0	0	0
17.44667	-0.2632703	0.3465855	0	0	0	0	0	0
17.46332	-0.2632703	0.3465855	0	0	0	0	0	0
17.47983	-0.2632703	0.3465855	0	0	0	0	0	0
17.49637	-0.2632703	0.3465855	0	0	0	0	0	0
17.51294	-0.2632948	0.3466034	-0.001480471	0.001077524	-0.04471418	0.0325441	0	0
17.52987	-0.2632948	0.3466034	0	0	0.04420236	-0.03217158	0	0
17.54607	-0.2632948	0.3466034	0	0	0	0	0	0
17.56264	-0.2633193	0.3466212	-0.001480471	0.001077524	-0.04517217	0.03287744	0	0
17.57921	-0.2632948	0.3466391	0.001480471	0.001079323	0.08936144	5.428939E-05	0	0
17.59578	-0.2632948	0.3466391	0	0	-0.04468072	-0.03257403	0	0
17.61234	-0.2633193	0.3466569	-0.001480471	0.001077524	-0.04468072	0.03251974	0	0
17.62893	-0.2633439	0.3466748	-0.001478939	0.001076409	4.622322E-05	-3.364115E-05	0	0
17.64548	-0.2633684	0.3466927	-0.001483979	0.001078766	-0.0001521083	7.114736E-05	0	0
17.66204	-0.2634175	0.3467284	-0.002960943	0.002156847	-0.04460054	0.03255529	0	0
17.67861	-0.263393	0.3467462	0.001480471	0.001077524	0.1340422	-0.03257403	0	0
17.69518	-0.263442	0.3467819	-0.002960943	0.002155048	-0.1340422	0.03251974	0	0
17.71174	-0.2634665	0.3467998	-0.001480642	0.001077648	0.04467814	-0.03251787	0	0
17.72831	-0.2634665	0.3468355	0	0.002156847	0.04468843	0.03257216	0	0
17.74488	-0.2634911	0.3468534	-0.001480471	0.001077524	-0.04468072	-0.03257403	0	0
17.76144	-0.2634665	0.3468712	0.001480471	0.001077524	0.08936144	0	0	0
17.77801	-0.2635156	0.346907	-0.002960943	0.002156847	-0.1340422	0.03257403	0	0
17.79506	-0.2636628	0.3470498	-0.008634132	0.008378902	-0.168769	0.1850969	0	0
17.81114	-0.2640552	0.347407	-0.02439635	0.02220443	-0.4757319	0.4172794	0	0
17.83139	-0.2686598	0.3508	-0.2274258	0.1675857	-5.588299	4.001556	0	0
17.86461	-0.2816505	0.3603548	-0.3910916	0.2876525	-3.061291	2.245794	0	0
17.88112	-0.2872022	0.3644808	-0.336229	0.2498827	1.103244	-0.7595226	0	0
17.89766	-0.2921085	0.3681428	-0.296657	0.2214223	1.197319	-0.8611158	0	0
17.91464	-0.2954597	0.3706618	-0.1973014	0.1483068	2.963754	-2.18102	0	0
17.93079	-0.2980347	0.3726092	-0.1594669	0.1206	1.141912	-0.8362393	0	0
17.94767	-0.3012298	0.3750214	-0.1893242	0.1429313	-0.9041139	0.6762167	0	0
17.96392	-0.3047777	0.377666	-0.2182257	0.1626639	-0.87225	0.59553	0	0
17.98049	-0.3094165	0.3812045	-0.2799944	0.2135872	-1.881729	1.551337	0	0
17.99706	-0.3107768	0.382259	-0.0821095	0.06364948	5.972178	-4.525131	0	0
18.01371	-0.3107768	0.382259	0	0	2.471525	-1.915872	0	0
18.04676	-0.3113253	0.3827059	-0.01659993	0.01352273	-0.334004	0.2720883	0	0
18.06333	-0.3143985	0.3850475	-0.1854961	0.1413374	-3.404337	2.576282	0	0
18.07989	-0.317418	0.3874966	-0.1822581	0.1478295	0.09772236	0.1959331	0	0
18.09646	-0.3243614	0.392807	-0.4191065	0.3205374	-7.148101	5.212334	0	0
18.11329	-0.3304252	0.3974392	-0.3602834	0.2752295	1.761295	-1.356618	0	0
18.12959	-0.3331539	0.3995143	-0.1673851	0.1272888	5.822016	-4.465115	0	0
18.14616	-0.334352	0.4004267	-0.07231645	0.05507246	2.892321	-2.197074	0	0
18.16282	-0.3349624	0.4009634	-0.03663781	0.03221415	1.073755	-0.6879247	0	0
18.17929	-0.3351032	0.4011424	-0.00854789	0.0108617	0.8477554	-0.6444184	0	0
18.19634	-0.3351032	0.4011424	0	0	0.2549816	-0.324002	0	0
18.21243	-0.3351032	0.4011424	0	0	0	0	0	0
18.22899	-0.3350798	0.4011244	0.001415875	-0.001081246	0.04336778	-0.03311822	0	0
18.24556	-0.3350563	0.4011066	0.001417511	-0.001079323	4.937344E-05	5.805209E-05	0	0
18.26213	-0.3350328	0.4010887	0.001417674	-0.001079447	4.9261E-06	-3.75255E-06	0	0
18.2789	-0.3350328	0.4010887	0	0	-0.04252114	0.03237651	0	0
18.29541	-0.3350093	0.4010708	0.001420455	-0.001084744	0.04267289	-0.03258755	0	0
18.31182	-0.3350093	0.4010708	0	0	-0.04314258	0.03294624	0	0
18.32844	-0.3350093	0.401035	0	-0.002152945	0	-0.06519368	0	0
18.34496	-0.3350093	0.401035	0	0	0	0.06497601	0	0
18.36152	-0.3350093	0.401035	0	0	0	0	0	0
18.37809	-0.3349859	0.4010171	0.001417511	-0.001081122	0.04278303	-0.03263021	0	0
18.39466	-0.3349624	0.4009992	0.001415712	-0.001079323	-5.428939E-05	5.42929E-05	0	0
18.41123	-0.3349389	0.4009813	0.001417511	-0.001079323	5.428939E-05	0	0	0
18.42779	-0.3349389	0.4009455	0	-0.002160445	-0.04278056	-0.03262832	0	0
18.44436	-0.334892	0.4009098	0.002833223	-0.002160445	0.08550684	0	0	0
18.46093	-0.3348685	0.4008561	0.001417511	-0.003239768	-0.04272627	-0.03257404	0	0
18.47755	-0.3347746	0.4007845	0.005648887	-0.004305707	0.127505	-0.03212017	0	0
18.49406	-0.3347511	0.4007308	0.001422095	-0.003250245	-0.1275722	0.03185572	0	0
18.51368	-0.3347042	0.4006951	0.002394263	-0.001824562	0.02690683	0.03945882	0	0
18.53024	-0.3346572	0.4006593	0.002833223	-0.002158646	0.01213121	-0.009232829	0	0
18.54709	-0.3346572	0.4006593	0	0	-0.0847942	0.0646051	0	0
18.59651	-0.3345633	0.4005519	0.001900134	-0.002172099	0.02867391	-0.03277798	0	0
18.61314	-0.3345398	0.4005341	0.001412632	-0.001075608	-0.007381279	0.01660198	0	0
18.62965	-0.3345163	0.4005162	0.001422095	-0.001084618	0.0002855696	-0.000271897	0	0
18.64621	-0.3344929	0.4004983	0.001418001	-0.001079696	-0.000123795	0.0001488201	0	0
18.66278	-0.3344459	0.4004625	0.002833549	-0.002160694	0.04273118	-0.03263209	0	0
18.67934	-0.334352	0.4003909	0.005670044	-0.004319091	0.0856105	-0.0651443	0	0
18.69619	-0.3343285	0.400373	0.001393763	-0.001061241	-0.1279682	0.09749154	0	0
18.71248	-0.3343285	0.400373	0	0	-0.04206626	0.03203015	0	0
18.72922	-0.3343285	0.400373	0	0	0	0	0	0
18.74573	-0.3343285	0.400373	0	0	0	0	0	0
18.76218	-0.3343285	0.400373	0	0	0	0	0	0
18.77874	-0.3343285	0.400373	0	0	0	0	0	0
18.79531	-0.334352	0.4003909	-0.001417511	0.001079323	-0.04278056	0.03257403	0	0
18.81188	-0.3343755	0.4004088	-0.001417511	0.001079323	0	0	0	0
18.82879	-0.334399	0.4004267	-0.001388732	0.001059173	0.0008596352	-0.0006019015	0	0
18.8453	-0.3344459	0.4004983	-0.002844519	0.004333559	-0.04355713	0.09796962	0	0
18.86158	-0.3345163	0.4005519	-0.004326444	0.003297472	-0.04519548	-0.03159841	0	0
18.87838	-0.3346807	0.400713	-0.009784475	0.00958577	-0.1650182	0.1901205	0	0
18.94441	-0.3358306	0.4018759	-0.01741356	0.01761124	-0.09210279	0.09688814	0	0
18.96139	-0.3368624	0.4029137	-0.06075902	0.06111528	-0.5221372	0.5240476	0	0
18.9779	-0.3406547	0.4058485	-0.2297529	0.1778007	-5.046502	3.484467	0	0
18.99411	-0.3457187	0.4098759	-0.3123493	0.2484136	-2.524444	2.158184	0	0
19.01068	-0.3516922	0.4146208	-0.3605641	0.2864038	-1.470874	1.158954	0	0
19.02743	-0.3543105	0.4167522	-0.1562945	0.1272255	6.130636	-4.777334	0	0
19.04381	-0.3543105	0.4168596	0	0.006559989	4.716977	-3.641693	0	0
19.06038	-0.3543336	0.4168775	-0.001397723	0.001081122	-0.04242023	-0.166281	0	0
19.07695	-0.3543105	0.4168954	0.001397723	0.001081122	0.08436675	0	0	0
19.09351	-0.3543105	0.4169313	0	0.002162244	-0.04218337	0.03262833	0	0
19.11008	-0.3543336	0.4169492	-0.001397884	0.001081246	-0.04219066	-0.03262645	0	0
19.12665	-0.3543568	0.4170746	-0.001395924	0.007567854	5.915185E-05	0.1957775	0	0
19.14321	-0.3543799	0.4171641	-0.001397723	0.005405609	-5.428939E-05	-0.06525666	0	0
19.15978	-0.3542873	0.4174507	0.005589738	0.01730174	0.2108941	0.3590467	0	0
19.17654	-0.353778	0.4179523	0.03039459	0.02993043	0.7443699	0.3789748	0	0
19.19305	-0.3527123	0.4188838	0.06453208	0.05640917	1.026019	0.7958316	0	0
19.20948	-0.3520401	0.4199408	0.04091631	0.06433386	-0.7168517	0.2405524	0	0
19.23001	-0.3529672	0.4206575	-0.0451676	0.03491451	-2.329313	-0.7960473	0	0
19.24659	-0.3571547	0.423901	-0.2525832	0.1956415	-5.58988	4.331614	0	0
19.26314	-0.3588168	0.4251915	-0.1003942	0.07794859	4.593073	-3.551978	0	0
19.27971	-0.3593934	0.4256037	-0.03480637	0.02488379	1.980129	-1.602052	0	0
19.29628	-0.3606381	0.4265718	-0.07512988	0.05842915	-1.216966	1.012401	0	0
19.31314	-0.361237	0.4270379	-0.03551056	0.02763798	1.185072	-0.9210089	0	0
19.32941	-0.361237	0.4270379	0	0	1.071772	-0.8341638	0	0
19.34616	-0.361237	0.4270379	0	0	0	0	0	0
19.36267	-0.361237	0.4270379	0	0	0	0	0	0
19.37911	-0.361237	0.4270379	0	0	0	0	0	0
19.39569	-0.361237	0.4270379	0	0	0	0	0	0
19.41224	-0.361237	0.4270379	0	0	0	0	0	0
19.42881	-0.361237	0.4270379	0	0	0	0	0	0
19.44538	-0.361237	0.4270379	0	0	0	0	0	0
19.46224	-0.361237	0.4270379	0	0	0	0	0	0
19.47851	-0.361237	0.4270379	0	0	0	0	0	0
19.49508	-0.3612601	0.4270558	-0.001390528	0.001081122	-0.04234648	0.03292398	0	0
19.51178	-0.3612831	0.4270737	-0.001377784	0.001074386	0.0003830821	-0.0002024858	0	0
19.52821	-0.3614443	0.4271992	-0.009809148	0.007636592	-0.2544737	0.1980592	0	0
19.5448	-0.362388	0.4279701	-0.05688923	0.04647256	-1.425722	1.176066	0	0
19.56135	-0.3642733	0.4294404	-0.1139445	0.08885987	-1.721932	1.279252	0	0
19.57792	-0.3652379	0.430337	-0.05821068	0.0541066	1.682923	-1.0494	0	0
19.63744	-0.369341	0.445035	-0.06893385	0.2469313	-0.1409207	2.534044	0	0
19.65401	-0.3664083	0.4474061	0.1770012	0.1431018	3.232085	-1.36453	0	0
19.67058	-0.3633769	0.4501731	0.1829933	0.1670391	0.1808424	0.7224296	0	0
19.68714	-0.361191	0.4525277	0.1319454	0.1421199	-1.540716	-0.7521066	0	0
19.70371	-0.363078	0.458246	-0.1139028	0.3451603	-7.419713	6.127772	0	0
19.72028	-0.3691122	0.4630865	-0.3642212	0.2921692	-7.554625	-1.599276	0	0
19.73694	-0.3764845	0.4689027	-0.442449	0.3490621	-2.354146	1.712104	0	0
19.83625	-0.3705534	0.4843402	0.05972522	0.1554535	4.330256	-1.66949	0	0
19.85303	-0.3705534	0.4843402	0	0	-0.5144954	-1.339135	0	0
19.86938	-0.3705763	0.4843222	-0.00139958	-0.001104356	-0.04224185	-0.03333145	0	0
19.88595	-0.3705763	0.4843222	0	0	0.0425135	0.03354581	0	0
19.90256	-0.3706449	0.484268	-0.004127325	-0.003260963	-0.1243839	-0.09827463	0	0
19.91908	-0.3707135	0.4841777	-0.004151152	-0.005464511	-0.000719099	-0.06650319	0	0
19.93565	-0.3708049	0.4841055	-0.005520737	-0.004358666	-0.04139375	0.03342255	0	0
19.95222	-0.3708049	0.4841055	0	0	0.1666162	0.1315448	0	0
19.96878	-0.3708049	0.4840694	0	-0.002180233	0	-0.06579955	0	0
19.98535	-0.3708278	0.4840152	-0.001379735	-0.00326855	-0.04164047	-0.03284548	0	0
20.00192	-0.3708735	0.483943	-0.002759469	-0.004358666	-0.04164047	-0.03289977	0	0
20.01865	-0.3709192	0.4838708	-0.002732727	-0.004318208	0.0008031453	0.001215095	0	0
20.05467	-0.3709649	0.4837625	-0.001268994	-0.003006208	0.02774569	0.02486951	0	0
20.07116	-0.3709649	0.4837264	0	-0.002191333	0.02416702	0.01551867	0	0
20.08772	-0.3709649	0.4837264	0	0	0	0.06630249	0	0
20.10429	-0.3709649	0.4837264	0	0	0	0	0	0
20.12122	-0.3709649	0.4837264	0	0	0	0	0	0
20.13773	-0.3709649	0.4837264	0	0	0	0	0	0
20.15424	-0.3709649	0.4837264	0	0	0	0	0	0
20.17075	-0.3709649	0.4837264	0	0	0	0	0	0
20.18712	-0.3709649	0.4837264	0	0	0	0	0	0
20.20369	-0.3709649	0.4837264	0	0	0	0	0	0
20.22026	-0.3709649	0.4837264	0	0	0	0	0	0
20.23682	-0.3709649	0.4837264	0	0	0	0	0	0
20.25339	-0.3709649	0.4837264	0	0	0	0	0	0
20.26996	-0.3709878	0.4837083	-0.001379735	-0.001090116	-0.04164047	-0.03289977	0	0
20.28955	-0.3709878	0.4836722	0	-0.001842083	0.03815689	-0.02079581	0	0
20.30612	-0.3709878	0.4836722	0	0	0	0.05094324	0	0
20.32286	-0.3709878	0.4836361	0	-0.002157382	0	-0.06476693	0	0
20.33925	-0.3709878	0.4836	0	-0.00220201	0	-0.001346955	0	0
20.35582	-0.3710107	0.4835819	-0.001379735	-0.001090116	-0.04186459	0.03373764	0	0
20.37239	-0.3710107	0.4835458	0	-0.002180233	0.04164047	-0.03289977	0	0
20.38895	-0.3710564	0.4835097	-0.002759469	-0.002178434	-0.08328094	5.429642E-05	0	0
20.40552	-0.3710792	0.4834555	-0.001379735	-0.003270349	0.04164047	-0.03295407	0	0
20.42209	-0.3711478	0.4834014	-0.004137405	-0.00326855	-0.08322667	5.428939E-05	0	0
20.43865	-0.3711706	0.4833833	-0.001379735	-0.001090116	0.08322667	0.06574526	0	0
20.45522	-0.371262	0.4833111	-0.00551714	-0.004358666	-0.1248671	-0.09864502	0	0
20.47179	-0.3713534	0.4832389	-0.00551714	-0.004356867	0	5.428939E-05	0	0
20.48848	-0.3713763	0.4832209	-0.00136933	-0.001081896	0.1247074	0.09846475	0	0
20.50492	-0.3713763	0.4832209	0	0	0.04132884	0.03265355	0	0
20.52149	-0.3713763	0.4832209	0	0	0	0	0	0
20.53806	-0.3713763	0.4832209	0	0	0	0	0	0
20.55462	-0.3713763	0.4832209	0	0	0	0	0	0
20.57119	-0.3713763	0.4832209	0	0	0	0	0	0
20.58776	-0.3713763	0.4832209	0	0	0	0	0	0
20.60432	-0.3713763	0.4832209	0	0	0	0	0	0
20.62089	-0.3713763	0.4832209	0	0	0	0	0	0
20.63746	-0.3713992	0.4832028	-0.001379735	-0.001090116	-0.04164047	-0.03289977	0	0
20.6541	-0.3713992	0.4832028	0	0	0.04154481	0.0328242	0	0
20.67365	-0.3713992	0.4832028	0	0	0	0	0	0
20.69022	-0.3713992	0.4832028	0	0	0	0	0	0
20.70679	-0.3713992	0.4832028	0	0	0	0	0	0
20.72365	-0.3713992	0.4832028	0	0	0	0	0	0
20.73992	-0.371422	0.4831848	-0.001405297	-0.001110313	-0.04241196	-0.03350932	0	0
20.75649	-0.371422	0.4831848	0	0	0.04280124	0.03381689	0	0
20.77305	-0.371422	0.4831848	0	0	0	0	0	0
20.78962	-0.3713992	0.4831667	0.001379735	-0.001088317	0.04164287	-0.03284737	0	0
20.80619	-0.3714449	0.4831306	-0.00275767	-0.002180233	-0.1248671	-0.03295407	0	0
20.82322	-0.3714677	0.4831125	-0.001341735	-0.001060093	0.04213634	0.03333385	0	0
20.83932	-0.3714677	0.4831125	0	0	0.04049597	0.03199551	0	0
20.85589	-0.3714906	0.4830945	-0.001379735	-0.001088317	-0.04224107	-0.03331922	0	0
20.87245	-0.3714677	0.4830765	0.001379735	-0.001090116	0.08328094	-5.42929E-05	0	0
20.88902	-0.3714906	0.4830584	-0.001379735	-0.001090116	-0.08328094	0	0	0
20.90559	-0.3715591	0.482932	-0.004137405	-0.007627216	-0.08322667	-0.1972901	0	0
20.92229	-0.3715819	0.4828418	-0.001366452	-0.005401587	0.0832776	0.06688854	0	0
20.93872	-0.3716276	0.4826613	-0.002781043	-0.01098811	-0.04269246	-0.1686017	0	0
20.95532	-0.3716505	0.4825349	-0.001377356	-0.007614067	0.04250528	0.10217	0	0
20.97186	-0.3715819	0.4824447	0.004144562	-0.005456407	0.1666518	0.06511833	0	0
21.00499	-0.3713992	0.4823003	0.005516558	-0.004358917	0.02762157	0.0220951	0	0
21.02156	-0.3708507	0.481831	0.03310823	-0.02832503	0.5551669	-0.4822177	0	0
21.03812	-0.3681275	0.4796475	0.1643701	-0.1317961	3.961491	-3.122764	0	0
21.05469	-0.365697	0.4775188	0.1467052	-0.1284862	-0.5331285	0.0998936	0	0
21.07126	-0.3617666	0.4740747	0.2372406	-0.2078884	2.732364	-2.396363	0	0
21.08783	-0.357986	0.4683443	0.2281959	-0.3458852	-0.2729702	-4.164753	0	0
21.10439	-0.3555599	0.4651567	0.1464408	-0.1924037	-2.467374	4.632082	0	0
21.12096	-0.3533379	0.4634645	0.1341185	-0.1021453	-0.3718871	2.724003	0	0
21.13753	-0.34958	0.4605489	0.2268269	-0.1759836	2.797947	-2.228444	0	0
21.15409	-0.3447166	0.4567891	0.2935543	-0.2269439	2.013835	-1.537983	0	0
21.17066	-0.3399298	0.4530669	0.2889348	-0.2246683	-0.1394171	0.06867687	0	0
21.18723	-0.3380105	0.451593	0.1158491	-0.0889704	-5.223735	4.095371	0	0
21.2038	-0.3349155	0.4492207	0.1868164	-0.1431866	2.141797	-1.636248	0	0
21.22051	-0.3331539	0.4478732	0.1053814	-0.08061565	-2.446728	1.879954	0	0
21.23703	-0.3326838	0.4475139	0.02846717	-0.02175733	-2.314614	1.77125	0	0
21.25354	-0.3326838	0.4475139	0	0	-0.8620189	0.6588373	0	0
21.27006	-0.3326603	0.4474959	0.00142275	-0.001087349	0.0430651	-0.03291287	0	0
21.28663	-0.3326603	0.4474959	0	0	-0.04299064	0.03285596	0	0
21.3032	-0.3326368	0.4474779	0.001417511	-0.00108472	0.04278056	-0.0327369	0	0
21.3234	-0.3326368	0.4474779	0	0	-0.03855488	0.0295033	0	0
21.33996	-0.3326133	0.44746	0.00141931	-0.00108472	0.03860381	-0.0295033	0	0
21.35661	-0.3326133	0.44746	0	0	-0.04273154	0.03265795	0	0
21.3731	-0.3326133	0.44746	0	0	0	0	0	0
21.38967	-0.3326133	0.44746	0	0	0	0	0	0
21.40623	-0.3326133	0.44746	0	0	0	0	0	0
21.4228	-0.3326133	0.44746	0	0	0	0	0	0
21.43937	-0.3325898	0.447442	0.00141931	-0.00108472	0.04283485	-0.0327369	0	0
21.45619	-0.3325663	0.447424	0.001398064	-0.001068482	-0.0006363745	0.0004863565	0	0
21.4727	-0.3325427	0.4474061	0.001424064	-0.001086548	0.0007800799	-0.0005420306	0	0
21.48907	-0.3325192	0.4473881	0.001436342	-0.001097737	0.0003733801	-0.0003402498	0	0
21.50564	-0.3325427	0.4473701	-0.00141931	-0.00108472	-0.08669779	0.0003951999	0	0
21.58847	-0.3311785	0.4461486	0.01647013	-0.01474677	0.1799716	-0.1374431	0	0
21.60504	-0.3257793	0.4420361	0.3258926	-0.2482299	3.112856	-2.34889	0	0
21.6216	-0.3223741	0.4394511	0.2055391	-0.1560341	-3.632276	2.782474	0	0
21.63817	-0.3163963	0.4349289	0.3608195	-0.2729608	4.686372	-3.528854	0	0
21.65483	-0.3136367	0.4328479	0.1656339	-0.1249016	-5.874143	4.455867	0	0
21.67134	-0.3132557	0.4325609	0.02307828	-0.01738317	-4.297638	3.241368	0	0
21.68787	-0.3132319	0.432543	0.001440616	-0.001083617	-0.654911	0.4933415	0	0
21.70444	-0.3132319	0.432543	0	0	-0.04352798	0.03274132	0	0
21.72101	-0.3132319	0.432543	0	0	0	0	0	0
21.73757	-0.3132319	0.432543	0	0	0	0	0	0
21.75414	-0.3132319	0.432543	0	0	0	0	0	0
21.77091	-0.3132319	0.432543	0	0	0	0	0	0
21.78727	-0.3132319	0.432543	0	0	0	0	0	0
21.80384	-0.3132319	0.432543	0	0	0	0	0	0
21.82046	-0.3132319	0.432543	0	0	0	0	0	0
21.83697	-0.3132319	0.432543	0	0	0	0	0	0
21.85354	-0.3132319	0.432543	0	0	0	0	0	0
21.87011	-0.3132319	0.432543	0	0	0	0	0	0
21.887	-0.3132319	0.432543	0	0	0	0	0	0
21.90324	-0.3132319	0.432543	0	0	0	0	0	0
21.91981	-0.3132319	0.432543	0	0	0	0	0	0
21.93637	-0.3132319	0.432543	0	0	0	0	0	0
21.95294	-0.3132319	0.432543	0	0	0	0	0	0
21.96951	-0.3132319	0.432543	0	0	0	0	0	0
21.98608	-0.3132319	0.432543	0	0	0	0	0	0
22.00264	-0.3132319	0.432543	0	0	0	0	0	0
22.02206	-0.3132319	0.432543	0	0	0	0	0	0
22.03863	-0.3132319	0.432543	0	0	0	0	0	0
22.0552	-0.3132319	0.432543	0	0	0	0	0	0
22.07176	-0.3132081	0.4325251	0.001439097	-0.001082921	0.04343205	-0.03268262	0	0
22.08833	-0.3132081	0.4325251	0	0	-0.04343205	0.03268262	0	0
22.1049	-0.3132081	0.4325251	0	0	0	0	0	0
22.12147	-0.3132081	0.4325251	0	0	0	0	0	0
22.13803	-0.3132081	0.4325251	0	0	0	0	0	0
22.15469	-0.3132081	0.4325251	0	0	0	0	0	0
22.1712	-0.3132081	0.4325251	0	0	0	0	0	0
22.18773	-0.3132081	0.4325251	0	0	0	0	0	0
22.2043	-0.3132081	0.4325251	0	0	0	0	0	0
22.22087	-0.3132081	0.4325251	0	0	0	0	0	0
22.23744	-0.3132081	0.4325251	0	0	0	0	0	0
22.254	-0.3132081	0.4325251	0	0	0	0	0	0
22.27078	-0.3132081	0.4325251	0	0	0	0	0	0
22.28729	-0.3132081	0.4325251	0	0	0	0	0	0
22.30371	-0.3132081	0.4325251	0	0	0	0	0	0
22.32027	-0.3132081	0.4325251	0	0	0	0	0	0
22.33684	-0.3132081	0.4325251	0	0	0	0	0	0
22.35341	-0.3132081	0.4325251	0	0	0	0	0	0
22.36997	-0.3132081	0.4325251	0	0	0	0	0	0
22.38686	-0.3132081	0.4325251	0	0	0	0	0	0
22.40311	-0.3132081	0.4325251	0	0	0	0	0	0
22.41968	-0.3132081	0.4325251	0	0	0	0	0	0
22.43624	-0.3132319	0.4325071	-0.001439097	-0.001082921	-0.04343205	-0.03268262	0	0
22.45281	-0.3132319	0.4325071	0	0	0.04343205	0.03268262	0	0
22.46942	-0.3132319	0.4325071	0	0	0	0	0	0
22.48594	-0.3132319	0.4325071	0	0	0	0	0	0
22.50251	-0.3132319	0.4325071	0	0	0	0	0	0
22.51908	-0.3132319	0.4325071	0	0	0	0	0	0
22.53597	-0.3132319	0.4325071	0	0	0	0	0	0
22.55221	-0.3132319	0.4325071	0	0	0	0	0	0
22.56899	-0.3132319	0.4325071	0	0	0	0	0	0
22.58534	-0.3132319	0.4325071	0	0	0	0	0	0
22.60191	-0.3132319	0.4325071	0	0	0	0	0	0
22.61848	-0.3132319	0.4325071	0	0	0	0	0	0
22.63505	-0.3132319	0.4325071	0	0	0	0	0	0
22.65161	-0.3132081	0.4325251	0.001439097	0.001082921	0.04343205	0.03268262	0	0
22.6899	-0.3132081	0.4325251	0	0	-0.02623623	-0.01974276	0	0
22.70646	-0.3132081	0.4325251	0	0	0	0	0	0
22.72303	-0.3132081	0.4325251	0	0	0	0	0	0
22.73962	-0.3132081	0.4325251	0	0	0	0	0	0
22.75617	-0.3132081	0.4325251	0	0	0	0	0	0
22.77273	-0.3132081	0.4325251	0	0	0	0	0	0
22.78965	-0.3132319	0.4325071	-0.001409086	-0.001060337	-0.04207819	-0.03166384	0	0
22.80587	-0.3132319	0.4325071	0	0	0.04252874	0.03200288	0	0
22.82243	-0.3132081	0.4324892	0.001439097	-0.001082921	0.0439021	-0.03303633	0	0
22.839	-0.3131843	0.4324712	0.001437298	-0.001082921	-5.42929E-05	0	0	0
22.85557	-0.3131604	0.4324533	0.001437298	-0.001082921	0	0	0	0
22.87214	-0.3131366	0.4324354	0.001437298	-0.001082921	0	0	0	0
22.8887	-0.3131128	0.4324175	0.001437298	-0.001081122	0	5.428939E-05	0	0
22.90619	-0.313089	0.4323995	0.001363289	-0.001025875	-0.00217318	0.001622246	0	0
22.92276	-0.313089	0.4323995	0	0	-0.04003115	0.03012344	0	0
22.93932	-0.313089	0.4323995	0	0	0	0	0	0
22.95589	-0.313089	0.4323995	0	0	0	0	0	0
22.97246	-0.313089	0.4323995	0	0	0	0	0	0
22.98902	-0.313089	0.4323995	0	0	0	0	0	0
23.00559	-0.313089	0.4323995	0	0	0	0	0	0
23.02232	-0.3130652	0.4324175	0.001423207	0.001072304	0.04274089	0.03220278	0	0
23.10538	-0.3127078	0.4327224	0.004302006	0.003670878	0.02884785	0.02603977	0	0
23.12156	-0.3126602	0.4327582	0.002945923	0.002218194	-0.01366503	-0.01463847	0	0
23.1384	-0.312541	0.4327762	0.007073001	0.001065019	0.1249799	-0.03492147	0	0
23.15469	-0.3124696	0.4327582	0.004387955	-0.001101563	-0.08103953	-0.06539136	0	0
23.17126	-0.3119452	0.4324712	0.03164935	-0.01732313	0.829772	-0.493746	0	0
23.18783	-0.3091061	0.4304805	0.1713731	-0.1201628	4.216872	-3.103708	0	0
23.20445	-0.3034122	0.4263925	0.3424969	-0.2459019	5.155623	-3.788271	0	0
23.22096	-0.2939175	0.4198512	0.575087	-0.3961992	7.019583	-4.53598	0	0
23.23797	-0.2898143	0.4171641	0.2411768	-0.1579404	-9.960464	7.107204	0	0
23.25449	-0.2862338	0.4147283	0.2168404	-0.1475179	-0.7259069	0.3108821	0	0
23.27066	-0.2796581	0.4123109	0.4066001	-0.1494796	5.805832	-0.06001939	0	0
23.28723	-0.2769088	0.4126869	0.1659459	0.02269636	-7.350545	5.258945	0	0
23.30402	-0.272667	0.414012	0.2525766	0.07890226	2.596733	1.684757	0	0
23.32036	-0.2661385	0.4174686	0.399583	0.2115668	4.436916	4.004055	0	0
23.33693	-0.2613311	0.42098	0.2901742	0.2119467	-3.324932	0.01154395	0	0
23.35349	-0.2610118	0.4211771	0.01927131	0.01189774	-8.175866	-6.037488	0	0
23.3726	-0.2610364	0.421195	-0.001285058	0.0009372816	-0.5761806	-0.3072139	0	0
23.38958	-0.2609873	0.421195	0.002894364	0	0.1158089	-0.02597144	0	0
23.40574	-0.2609136	0.4212488	0.004560751	0.003328315	0.05029456	0.1004545	0	0
23.4223	-0.2608644	0.4212846	0.002966339	0.002162244	-0.04872811	-0.03563725	0	0
23.43912	-0.2601765	0.421643	0.04091747	0.02131487	1.136925	0.5737669	0	0
23.45544	-0.2561913	0.4240802	0.2441751	0.1493295	6.134327	3.863489	0	0
23.472	-0.2543188	0.4251915	0.1130361	0.06708405	-3.987622	-2.500887	0	0
23.48857	-0.253801	0.4248509	0.03125	-0.02055751	-2.468452	-2.64518	0	0
23.50516	-0.2465632	0.4196004	0.4362265	-0.3164462	12.21308	-8.923262	0	0
23.5217	-0.239572	0.4145492	0.4226669	-0.305383	-0.4092543	0.3339078	0	0
23.53827	-0.2363162	0.4122034	0.1965222	-0.1415928	-6.830564	4.947186	0	0
23.55484	-0.2320834	0.4091599	0.2554902	-0.1837098	1.779655	-1.271093	0	0
23.5714	-0.2260184	0.4048463	0.3660866	-0.2603651	3.337807	-2.313462	0	0
23.58822	-0.2216651	0.4017328	0.2588331	-0.1851221	-3.212506	2.253715	0	0
23.60454	-0.2175541	0.3988345	0.2519968	-0.1776588	-0.2063344	0.2252546	0	0
23.62124	-0.214667	0.396849	0.1727972	-0.1188356	-2.398394	1.781337	0	0
23.63767	-0.2128575	0.3955969	0.1101588	-0.07622358	-1.89043	1.286034	0	0
23.65427	-0.2127569	0.3955612	0.006057044	-0.002153934	-3.151776	2.242526	0	0
23.6708	-0.2122792	0.3954717	0.02890337	-0.005410873	0.6895431	-0.09830026	0	0
23.71702	-0.1914676	0.3917877	0.450284	-0.07970736	6.715447	-1.184046	0	0
23.73359	-0.1874063	0.3919308	0.2451358	0.008634584	-3.267413	1.40703	0	0
23.75034	-0.1728371	0.391752	0.8697878	-0.01067524	18.74843	-0.579569	0	0
23.76672	-0.165345	0.3898745	0.4572795	-0.1145918	-12.44952	-3.136209	0	0
23.78336	-0.1640133	0.3889447	0.08002798	-0.05587496	-11.42361	1.778015	0	0
23.79986	-0.1616303	0.3872821	0.1444734	-0.1008	1.944968	-1.355842	0	0
23.81643	-0.1578341	0.3846363	0.2291394	-0.1596966	2.560825	-1.7814	0	0
23.8334	-0.1538791	0.3818479	0.233009	-0.1642793	0.11537	-0.136631	0	0
23.84956	-0.1505367	0.3795246	0.2068196	-0.1437655	-0.7903959	0.6191092	0	0
23.86613	-0.1497906	0.3790063	0.04503296	-0.03128238	-4.943342	3.436887	0	0
23.88269	-0.1493789	0.3787204	0.02485051	-0.01725838	-0.6091073	0.4232453	0	0
23.89926	-0.147989	0.3777196	0.08389308	-0.06040611	1.781908	-1.302201	0	0
23.91583	-0.1480148	0.3777375	-0.001554225	0.001079323	-2.578805	1.855634	0	0
23.93247	-0.1480405	0.3777196	-0.001547278	-0.001074499	0.0002092008	-0.06485686	0	0
23.94896	-0.1480405	0.3777196	0	0	0.04669963	0.03243029	0	0
23.96553	-0.1482207	0.3775945	-0.01087688	-0.007549865	-0.3290224	-0.2283812	0	0
23.98725	-0.1482465	0.3775766	-0.001184981	-0.0008233796	0.2531559	0.1756983	0	0
24.00381	-0.148298	0.3775409	-0.003107551	-0.002156847	-0.05021825	-0.03483066	0	0
24.02038	-0.1483752	0.3774873	-0.004660876	-0.00323617	-0.04687946	-0.03257403	0	0
24.03695	-0.1484524	0.3774337	-0.004661776	-0.00323617	-2.715172E-05	0	0	0
24.05351	-0.1485296	0.3773801	-0.004660876	-0.00323617	2.715172E-05	0	0	0
24.07008	-0.1485811	0.3773443	-0.003106652	-0.002156847	0.0469066	0.03257403	0	0
24.08665	-0.1494046	0.3767725	-0.04971002	-0.03451495	-1.406492	-0.9765696	0	0
24.10359	-0.1506396	0.375879	-0.07287944	-0.05272822	-0.6913745	-0.5434831	0	0
24.11978	-0.1508196	0.375754	-0.01112363	-0.007726891	1.863901	1.358221	0	0
24.13635	-0.1508196	0.375754	0	0	0.3396021	0.2359003	0	0
24.16948	-0.1508196	0.375754	0	0	0	0	0	0
24.18615	-0.1508196	0.375754	0	0	0	0	0	0
24.20262	-0.1507939	0.3757361	0.001562319	-0.001084391	0.0471536	-0.03272885	0	0
24.21918	-0.1507939	0.3757361	0	0	-0.04730064	0.03283092	0	0
24.23575	-0.1507682	0.3757182	0.001553326	-0.001079323	0.04687947	-0.03257403	0	0
24.25232	-0.1507425	0.3757004	0.001552426	-0.001079323	-2.714469E-05	0	0	0
24.26888	-0.1507425	0.3757004	0	0	-0.04685232	0.03257403	0	0
24.28545	-0.1507425	0.3757004	0	0	0	0	0	0
24.30202	-0.1507425	0.3757004	0	0	0	0	0	0
24.31876	-0.1507425	0.3757004	0	0	0	0	0	0
24.33516	-0.1507425	0.3757004	0	0	0	0	0	0
24.35177	-0.1507425	0.3757004	0	0	0	0	0	0
24.38485	-0.1507425	0.3757004	0	0	0	0	0	0
24.40142	-0.1507425	0.3757004	0	0	0	0	0	0
24.41799	-0.1507425	0.3757004	0	0	0	0	0	0
24.43456	-0.1507425	0.3757004	0	0	0	0	0	0
24.45112	-0.1507425	0.3757004	0	0	0	0	0	0
24.46769	-0.1507425	0.3757004	0	0	0	0	0	0
24.48487	-0.1507425	0.3757004	0	0	0	0	0	0
24.50082	-0.1507425	0.3757004	0	0	0	0	0	0
24.51739	-0.1507425	0.3757004	0	0	0	0	0	0
24.53395	-0.1507425	0.3757004	0	0	0	0	0	0
24.55052	-0.1507425	0.3757004	0	0	0	0	0	0
24.56743	-0.1507168	0.3756825	0.00152108	-0.001055767	0.0454381	-0.03153815	0	0
24.58394	-0.1507168	0.3756825	0	0	-0.0455133	0.03159034	0	0
24.60022	-0.1507168	0.3756825	0	0	0	0	0	0
24.61679	-0.1507168	0.3756825	0	0	0	0	0	0
24.63336	-0.1507425	0.3756646	-0.001552248	-0.001079199	-0.04684423	-0.03256841	0	0
24.65001	-0.1507682	0.3756825	-0.001545133	0.001074252	0.0002142014	0.06483454	0	0
24.6665	-0.1507682	0.3756825	0	0	0.04662147	-0.03241353	0	0
24.68656	-0.1507939	0.3756646	-0.001283015	-0.0008914987	-0.03509885	-0.02438832	0	0
24.70353	-0.1507939	0.3756646	0	0	0.03465225	0.024078	0	0
24.71969	-0.1507939	0.3756646	0	0	0	0	0	0
24.73626	-0.1508196	0.3756468	-0.001552426	-0.001077524	-0.04742562	-0.03291767	0	0
24.75307	-0.1508196	0.3756468	0	0	0.04652026	0.03228927	0	0
24.7694	-0.1508196	0.3756468	0	0	0	0	0	0
24.78609	-0.1508454	0.3756289	-0.001540895	-0.001071306	-0.04666279	-0.03244227	0	0
24.80253	-0.1508711	0.375611	-0.001564313	-0.001085774	-0.0007067759	-0.0004366767	0	0
24.8191	-0.1508968	0.3755932	-0.001552426	-0.001079323	0.0003600954	0.0001954458	0	0
24.83566	-0.1509225	0.3755395	-0.001552426	-0.00323617	0	-0.06509378	0	0
24.85223	-0.1509482	0.3755217	-0.001552426	-0.001077524	0	0.06514806	0	0
24.86915	-0.150974	0.3754681	-0.001520223	-0.003169039	0.0009617244	-0.06246047	0	0
24.88536	-0.150974	0.3754323	0	-0.002203526	0.04588041	0.02913924	0	0
24.90193	-0.150974	0.3753966	0	-0.002156847	0	0.001423844	0	0
24.9185	-0.1509997	0.3753787	-0.001552426	-0.001079323	-0.04685232	0.03251974	0	0
24.9352	-0.1509997	0.3753787	0	0	0.04666964	0.03244703	0	0
25.01826	-0.150974	0.3753609	0.0003096511	-0.0002149258	0.003104077	-0.00215451	0	0
25.05103	-0.150974	0.3753609	0	0	-0.00267316	0.001855414	0	0
25.06779	-0.150974	0.3753609	0	0	0	0	0	0
25.08417	-0.150974	0.3753609	0	0	0	0	0	0
25.10073	-0.150974	0.3753609	0	0	0	0	0	0
25.11734	-0.150974	0.3753609	0	0	0	0	0	0
25.13387	-0.150974	0.3753609	0	0	0	0	0	0
25.15044	-0.150974	0.3753609	0	0	0	0	0	0
25.167	-0.150974	0.3753609	0	0	0	0	0	0
25.18357	-0.150974	0.3753609	0	0	0	0	0	0
25.20014	-0.150974	0.3753609	0	0	0	0	0	0
25.21671	-0.1509482	0.375343	0.001552426	-0.001079323	0.04685232	-0.03257403	0	0
25.23327	-0.1509482	0.375343	0	0	-0.04685232	0.03257403	0	0
25.24993	-0.1509482	0.375343	0	0	0	0	0	0
25.26644	-0.1509482	0.375343	0	0	0	0	0	0
25.28297	-0.1509482	0.375343	0	0	0	0	0	0
25.29954	-0.1509482	0.375343	0	0	0	0	0	0
25.31611	-0.1509482	0.375343	0	0	0	0	0	0
25.33267	-0.1509482	0.375343	0	0	0	0	0	0
25.3495	-0.1509482	0.375343	0	0	0	0	0	0
25.36601	-0.1509482	0.375343	0	0	0	0	0	0
25.38237	-0.1509482	0.375343	0	0	0	0	0	0
25.40348	-0.1509482	0.375343	0	0	0	0	0	0
25.42005	-0.1509482	0.375343	0	0	0	0	0	0
25.43661	-0.1509482	0.375343	0	0	0	0	0	0
25.45318	-0.1509482	0.375343	0	0	0	0	0	0
25.46975	-0.1509482	0.375343	0	0	0	0	0	0
25.48631	-0.1509482	0.375343	0	0	0	0	0	0
25.50311	-0.1509482	0.375343	0	0	0	0	0	0
25.51945	-0.1509225	0.3753251	0.001574358	-0.001094571	0.04751695	-0.03303612	0	0
25.53614	-0.1509225	0.3753251	0	0	-0.04767063	0.03314297	0	0
25.55258	-0.1509225	0.3753251	0	0	0	0	0	0
25.56915	-0.1509225	0.3753251	0	0	0	0	0	0
25.58571	-0.1509225	0.3753251	0	0	0	0	0	0
25.60228	-0.1509225	0.3753251	0	0	0	0	0	0
25.61885	-0.1509225	0.3753251	0	0	0	0	0	0
25.63541	-0.1509225	0.3753251	0	0	0	0	0	0
25.65198	-0.1509225	0.3753251	0	0	0	0	0	0
25.66855	-0.1509225	0.3753251	0	0	0	0	0	0
25.68511	-0.1509225	0.3753251	0	0	0	0	0	0
25.70175	-0.1509225	0.3753251	0	0	0	0	0	0
25.71877	-0.1509225	0.3753251	0	0	0	0	0	0
25.73481	-0.1509225	0.3753251	0	0	0	0	0	0
25.80108	-0.1509225	0.3753251	0	0	0	0	0	0
25.81765	-0.1509225	0.3753251	0	0	0	0	0	0
25.83421	-0.1509225	0.3753251	0	0	0	0	0	0
25.85078	-0.1509225	0.3753251	0	0	0	0	0	0
25.86738	-0.1509225	0.3753251	0	0	0	0	0	0
25.88391	-0.1509225	0.3753251	0	0	0	0	0	0
25.90048	-0.1509225	0.3753251	0	0	0	0	0	0
25.9174	-0.1509225	0.3753251	0	0	0	0	0	0
25.93361	-0.1509225	0.3753251	0	0	0	0	0	0
25.95018	-0.1509225	0.3753251	0	0	0	0	0	0
25.96675	-0.1509225	0.3753251	0	0	0	0	0	0
25.98331	-0.1509225	0.3753251	0	0	0	0	0	0
25.99996	-0.1509225	0.3753251	0	0	0	0	0	0
26.01648	-0.1509225	0.3753251	0	0	0	0	0	0
26.03301	-0.1509225	0.3753251	0	0	0	0	0	0
26.04958	-0.1509225	0.3753251	0	0	0	0	0	0
26.06615	-0.1509225	0.3753251	0	0	0	0	0	0
26.08271	-0.1509225	0.3753251	0	0	0	0	0	0
26.09928	-0.1509225	0.3753251	0	0	0	0	0	0
26.13516	-0.1509225	0.3753251	0	0	0	0	0	0
26.15173	-0.1509225	0.3753251	0	0	0	0	0	0
26.1683	-0.1509225	0.3753251	0	0	0	0	0	0
26.18487	-0.1509225	0.3753251	0	0	0	0	0	0
26.20143	-0.1509225	0.3753251	0	0	0	0	0	0
26.218	-0.1509225	0.3753251	0	0	0	0	0	0
26.23463	-0.1509225	0.3753251	0	0	0	0	0	0
26.25114	-0.1509225	0.3753251	0	0	0	0	0	0
26.2677	-0.1509225	0.3753251	0	0	0	0	0	0
26.28427	-0.1509225	0.3753251	0	0	0	0	0	0
26.30083	-0.1509225	0.3753251	0	0	0	0	0	0
26.31769	-0.1509225	0.3753251	0	0	0	0	0	0
26.33397	-0.1508968	0.3753073	0.001580262	-0.001096845	0.04769515	-0.03310474	0	0
26.35071	-0.1508968	0.3753073	0	0	-0.04785493	0.03321564	0	0
26.36723	-0.1508968	0.3753073	0	0	0	0	0	0
26.38367	-0.1508968	0.3753073	0	0	0	0	0	0
26.40024	-0.1508968	0.3753073	0	0	0	0	0	0
26.4168	-0.1508968	0.3753073	0	0	0	0	0	0
26.43337	-0.1508968	0.3753073	0	0	0	0	0	0
26.44994	-0.1508968	0.3753073	0	0	0	0	0	0
26.46651	-0.1508968	0.3753073	0	0	0	0	0	0
26.48307	-0.1508968	0.3753073	0	0	0	0	0	0
26.49964	-0.1508968	0.3753073	0	0	0	0	0	0
26.51621	-0.1508968	0.3753073	0	0	0	0	0	0
26.53277	-0.1508968	0.3753073	0	0	0	0	0	0
26.56591	-0.1509225	0.3753251	-0.0007762132	0.0005387621	-0.01561744	0.01083991	0	0
26.58248	-0.1509225	0.3753251	0	0	0.01561744	-0.01083991	0	0
26.59904	-0.1509225	0.3753251	0	0	0	0	0	0
26.61561	-0.1508968	0.375343	0.001552426	0.001079323	0.04685232	0.03257403	0	0
26.63242	-0.1508968	0.375343	0	0	-0.04650697	-0.03233393	0	0
26.64874	-0.1508968	0.375343	0	0	0	0	0	0
26.66531	-0.1508968	0.375343	0	0	0	0	0	0
26.68196	-0.1508711	0.3753609	0.001545133	0.001074252	0.0465224	0.03234466	0	0
26.69847	-0.1508711	0.3753609	0	0	-0.04660001	-0.03239862	0	0
26.73158	-0.1508454	0.3753787	0.0007768392	0.0005391966	0.01565587	0.01086659	0	0
26.74814	-0.1508196	0.3753966	0.001552426	0.001079323	0.01561323	0.01087321	0	0
26.76845	-0.1507682	0.3754323	0.002533486	0.001759427	0.0266038	0.01844265	0	0
26.78503	-0.1507168	0.3754323	0.003103066	0	0.01544154	-0.04769876	0	0
26.80159	-0.1506139	0.3755038	0.006214182	0.004316179	0.09389365	0.1302625	0	0
26.81815	-0.1505624	0.3755395	0.003105752	0.002156847	-0.0938396	-0.06518753	0	0
26.83472	-0.1504852	0.3755932	0.004657279	0.00323617	0.04682517	0.03257403	0	0
26.85129	-0.1504338	0.3755932	0.003105752	0	-0.04682517	-0.09766781	0	0
26.86785	-0.1503823	0.3755932	0.00310611	0	1.078682E-05	0	0	0
26.8846	-0.1503823	0.3755932	0	0	-0.09324874	0	0	0
26.90111	-0.1503566	0.3755753	0.001557447	-0.001082814	0.04682862	-0.03255756	0	0
26.91762	-0.1503566	0.3755753	0	0	-0.0471613	0.03278885	0	0
26.93413	-0.1503052	0.3755753	0.003116156	0	0.09436627	0	0	0
26.95069	-0.1503052	0.3755753	0	0	-0.09424651	0	0	0
26.96725	-0.1503052	0.3755753	0	0	0	0	0	0
26.98382	-0.1503052	0.3755753	0	0	0	0	0	0
27.00039	-0.1503052	0.3755753	0	0	0	0	0	0
27.01695	-0.1503566	0.3755753	-0.003105752	0	-0.09373178	0	0	0
27.0337	-0.1503566	0.3755753	0	0	0.09321666	0	0	0
27.05022	-0.1503309	0.3755574	0.001558529	-0.001081134	0.04685579	-0.03250332	0	0
27.06673	-0.1503052	0.3755038	0.001557627	-0.003247011	-2.732728E-05	-0.06558528	0	0
27.08322	-0.1501251	0.3753073	0.01091997	-0.01191845	0.2836829	-0.262748	0	0
27.09979	-0.1498421	0.3751107	0.01708299	-0.01186356	0.1864294	0.001660275	0	0
27.11635	-0.1493789	0.3747533	0.02795627	-0.02157207	0.3281563	-0.2930034	0	0
27.13292	-0.1487355	0.3742352	0.03883494	-0.03127698	0.3283192	-0.2928948	0	0
27.14949	-0.1479633	0.3736277	0.04661147	-0.0366682	0.2346959	-0.1627073	0	0
27.1663	-0.1476029	0.3731988	0.02143961	-0.02550807	-0.7541314	0.3343498	0	0
27.18262	-0.1476286	0.373181	-0.001576743	-0.001093768	-0.694675	0.7368675	0	0
27.19919	-0.1476286	0.373181	0	0	0.0479422	0.03325695	0	0
27.21576	-0.1476544	0.3731631	-0.001554225	-0.001079323	-0.04690661	-0.03257403	0	0
27.24889	-0.1476801	0.373181	-0.0007771126	0.0005396615	0.01563554	0.03257403	0	0
27.26546	-0.1476801	0.373181	0	0	0.01563554	-0.01085801	0	0
27.28202	-0.1476801	0.373181	0	0	0	0	0	0
27.29859	-0.1476801	0.373181	0	0	0	0	0	0
27.31516	-0.1476801	0.373181	0	0	0	0	0	0
27.33192	-0.1476801	0.373181	0	0	0	0	0	0
27.34829	-0.1476801	0.373181	0	0	0	0	0	0
27.36494	-0.1476801	0.373181	0	0	0	0	0	0
27.38143	-0.1476801	0.373181	0	0	0	0	0	0
27.39799	-0.1476801	0.373181	0	0	0	0	0	0
27.41456	-0.1476801	0.373181	0	0	0	0	0	0
27.43758	-0.1476801	0.373181	0	0	0	0	0	0
27.45451	-0.1476801	0.373181	0	0	0	0	0	0
27.47071	-0.1476801	0.373181	0	0	0	0	0	0
27.48728	-0.1476801	0.373181	0	0	0	0	0	0
27.50404	-0.1476801	0.373181	0	0	0	0	0	0
27.52056	-0.1477059	0.3731631	-0.001559432	-0.001082939	-0.0468668	-0.03254639	0	0
27.53707	-0.1477059	0.3731631	0	0	0.0472214	0.03279264	0	0
27.55358	-0.1477059	0.3731631	0	0	0	0	0	0
27.57012	-0.1477059	0.3731631	0	0	0	0	0	0
27.58668	-0.1477059	0.3731631	0	0	0	0	0	0
27.60362	-0.1477059	0.3731631	0	0	0	0	0	0
27.61982	-0.1477059	0.3731631	0	0	0	0	0	0
27.65316	-0.1481435	0.3735383	-0.01312511	0.01125265	-0.2649623	0.2271621	0	0
27.66952	-0.1488899	0.374128	-0.04563867	0.03605139	-0.6541992	0.4989708	0	0
27.68608	-0.1507425	0.3754502	-0.1118188	0.07981054	-2.010164	1.329147	0	0
27.70269	-0.1581934	0.3807041	-0.4487552	0.3164345	-10.15765	7.133524	0	0
27.71922	-0.1697965	0.388909	-0.7019045	0.4963331	-7.64006	5.429348	0	0
27.73578	-0.1776851	0.3946133	-0.4761524	0.3443112	6.820672	-4.593051	0	0
27.75235	-0.1866696	0.4011066	-0.5423059	0.3919364	-1.996517	1.43733	0	0
27.80703	-0.2264183	0.432256	-0.7269855	0.5697091	-2.592238	2.495291	0	0
27.8236	-0.2373358	0.44209	-0.6589807	0.5935791	0.9545431	0.335049	0	0
27.84016	-0.2548856	0.4554403	-1.059312	0.8058262	-12.08201	6.405629	0	0
27.85673	-0.2608399	0.4599731	-0.3594002	0.273603	21.12337	-16.06253	0	0
27.8733	-0.2662854	0.4642926	-0.3286952	0.2607213	0.9266771	-0.3887713	0	0
27.90683	-0.2793177	0.4812715	-0.3885953	0.5062765	-1.195512	4.900897	0	0
27.92385	-0.280363	0.494116	-0.06143673	0.7549555	6.471922	4.919422	0	0
27.93986	-0.2824031	0.5064991	-0.1274066	0.7733566	-1.997528	0.5571722	0	0
27.95638	-0.2848043	0.5148972	-0.1453942	0.5084919	-0.5529916	-8.142687	0	0
27.97288	-0.2889924	0.52571	-0.2537266	0.6550728	-3.280619	4.438897	0	0
27.98939	-0.2912154	0.5347059	-0.1346429	0.544875	3.606826	-3.33769	0	0
28.00583	-0.292012	0.541072	-0.04846324	0.387289	2.615662	-4.782937	0	0
28.02242	-0.293797	0.5527705	-0.1076213	0.7053135	-1.791375	9.630152	0	0
28.03896	-0.2966635	0.5604107	-0.1732185	0.4616975	-1.979727	-7.352346	0	0
28.05553	-0.3000053	0.5696098	-0.2017165	0.5552542	-0.8605661	2.825172	0	0
28.0721	-0.3020456	0.5750737	-0.1231472	0.3298016	2.371227	-6.804173	0	0
28.08867	-0.3023094	0.5813941	-0.01592361	0.3815011	3.236013	1.560295	0	0
28.10523	-0.3052566	0.5848078	-0.177894	0.20605	-4.888277	-5.295126	0	0
28.1218	-0.3056635	0.5888531	-0.02456179	0.2441788	4.627576	1.150732	0	0
28.15861	-0.3067879	0.594236	-0.03054566	0.1462257	-0.1121014	-1.835048	0	0
28.17518	-0.3067401	0.5941989	0.002886857	-0.002233942	0.6263003	-2.781134	0	0
28.19205	-0.3066923	0.5941619	0.002834647	-0.00219354	-0.001561127	0.001208053	0	0
28.20831	-0.3066923	0.5941619	0	0	-0.08555476	0.06620498	0	0
28.22488	-0.3066683	0.5941434	0.001444494	-0.001118898	0.04400528	-0.03408628	0	0
28.24145	-0.3066683	0.5941434	0	0	-0.04359743	0.03377036	0	0
28.25801	-0.3066683	0.5941434	0	0	0	0	0	0
28.27458	-0.3066683	0.5941434	0	0	0	0	0	0
28.29115	-0.3066683	0.5941434	0	0	0	0	0	0
28.30771	-0.3066923	0.5941619	-0.001444494	0.001118898	-0.04359492	0.03376842	0	0
28.32428	-0.3067162	0.5941804	-0.001442695	0.0011153	5.428939E-05	-0.0001085823	0	0
28.34115	-0.306764	0.5942544	-0.002835609	0.004388568	-0.04165932	0.09789704	0	0
28.35766	-0.3067879	0.5943841	-0.0014495	0.007852213	0.04152686	0.1037684	0	0
28.37398	-0.3067879	0.5948284	0	0.02722552	0.0441501	0.5900884	0	0
28.39055	-0.3070032	0.5957358	-0.01299145	0.05476845	-0.3950161	0.8374662	0	0
28.40719	-0.3068358	0.5995719	0.01005679	0.2304593	0.6939596	5.289877	0	0
28.45682	-0.3067879	0.6129136	0.000963913	0.2688591	-0.1372118	0.5794528	0	0
28.47338	-0.3068118	0.6136772	-0.001442861	0.046096	-0.03636225	-3.36557	0	0
28.48995	-0.3068836	0.6138821	-0.004331683	0.01236904	-0.08718984	-1.01794	0	0
28.50652	-0.3068836	0.6138821	0	0	0.1307305	-0.3732984	0	0
28.52308	-0.3069075	0.6140125	-0.001442695	0.007868265	-0.04354063	0.2374647	0	0
28.53965	-0.3069075	0.6141243	0	0.006750144	0.04354313	-0.03374689	0	0
28.5563	-0.3069075	0.6141616	0	0.002237257	0	-0.1358629	0	0
28.57278	-0.3068836	0.6142547	0.00145004	0.005648287	0.04376231	0.1029451	0	0
28.58935	-0.3067879	0.6145155	0.005775043	0.01574554	0.1308678	0.3055271	0	0
28.60592	-0.3067162	0.614646	0.004331683	0.00787546	-0.0435632	-0.2375331	0	0
28.62248	-0.3066444	0.6148136	0.004329884	0.01012045	-5.428939E-05	0.067754	0	0
28.63905	-0.3065966	0.6149254	0.002887189	0.006749367	-0.04354063	-0.1017396	0	0
28.65562	-0.3065248	0.6150559	0.004331683	0.007871863	0.04359492	0.03387699	0	0
28.67219	-0.3064531	0.6151491	0.004331683	0.005626871	0	-0.06775399	0	0
28.68875	-0.3063813	0.6152422	0.004331683	0.005623273	0	-0.0001085788	0	0
28.70541	-0.3063813	0.6153167	0	0.004473488	-0.1303852	-0.03460893	0	0
28.72192	-0.3063574	0.6153727	0.001449333	0.003385988	0.04369819	-0.03278873	0	0
28.74203	-0.3063335	0.6154659	0.001189841	0.004634898	-0.007085116	0.03410001	0	0
28.7586	-0.3063096	0.6155218	0.001442695	0.003374683	0.006893469	-0.03435679	0	0
28.77517	-0.3060942	0.6157641	0.01299685	0.01462483	0.3487051	0.33953	0	0
28.79173	-0.3026211	0.6185053	0.2096369	0.1654602	5.934609	4.552221	0	0
28.8083	-0.3005576	0.6205956	0.1245521	0.1261693	-2.567865	-1.185804	0	0
28.825	-0.3009897	0.6210811	-0.02588516	0.02908264	-4.523021	-2.91899	0	0
28.84143	-0.3036039	0.6231171	-0.15902	0.1238507	-4.01825	2.860269	0	0
28.858	-0.3076726	0.6262954	-0.245582	0.1918425	-2.622559	2.059942	0	0
28.87457	-0.3095836	0.6277923	-0.1153491	0.09035373	3.930437	-3.062937	0	0
28.89114	-0.3106575	0.6287844	-0.06482235	0.05988444	1.524899	-0.9195649	0	0
28.9077	-0.3102041	0.6292151	0.02736444	0.0259937	2.782202	-1.022825	0	0
28.92427	-0.3072662	0.6317816	0.1773568	0.1549367	4.527039	3.891731	0	0
28.94108	-0.3045622	0.6363022	0.1608597	0.2689315	-0.4942989	3.415598	0	0
28.95759	-0.3029328	0.6396835	0.09867918	0.2047765	-1.866084	-1.925342	0	0
28.97397	-0.3023573	0.6410748	0.03513669	0.08494672	-1.931951	-3.643314	0	0
28.99054	-0.3044185	0.6431442	-0.1244118	0.1249137	-4.84278	1.213118	0	0
29.00712	-0.3073618	0.6459123	-0.1774337	0.1668679	-1.599192	1.26538	0	0
29.02414	-0.3069792	0.6468922	0.02248886	0.05760175	5.950101	-3.251982	0	0
29.04024	-0.304179	0.6490982	0.1739091	0.1370047	4.572767	2.397904	0	0
29.0568	-0.3015417	0.651476	0.1592023	0.1435413	-0.4502015	0.2000971	0	0
29.07367	-0.3036279	0.6544042	-0.1236714	0.1735852	-8.460681	0.8986055	0	0
29.08994	-0.3062617	0.6564842	-0.1619397	0.1278952	-1.155004	-1.379006	0	0
29.1065	-0.3105144	0.6602327	-0.2566918	0.2262585	-2.886041	2.996031	0	0
29.12307	-0.311063	0.6611612	-0.03311723	0.05604565	6.747494	-5.137033	0	0
29.13964	-0.3083656	0.6635694	0.1628177	0.145356	5.913328	2.695393	0	0
29.1562	-0.3074335	0.6643474	0.05625971	0.04695775	-3.215926	-2.969666	0	0
29.17277	-0.3074096	0.6643663	0.001442861	0.001144214	-1.654471	-1.382735	0	0
29.18934	-0.3073857	0.6643474	0.001442695	-0.001144082	-5.013941E-06	-0.0690649	0	0
29.2059	-0.3073857	0.6643474	0	0	-0.04354313	0.03453046	0	0
29.22247	-0.3073618	0.6643283	0.001442695	-0.00114768	0.04354313	-0.03463905	0	0
29.23904	-0.3073379	0.6643094	0.001442695	-0.001144082	0	0.0001085823	0	0
29.2556	-0.307314	0.6642904	0.001444494	-0.001144082	5.428939E-05	0	0	0
29.27217	-0.3072662	0.6642525	0.00288539	-0.002291763	0.04348634	-0.03463705	0	0
29.28882	-0.3072423	0.6642335	0.001435259	-0.001138186	-0.04365196	0.03472507	0	0
29.30531	-0.3071944	0.6641955	0.002902225	-0.002303697	0.0442731	-0.03517521	0	0
29.32187	-0.3071466	0.6641576	0.00288539	-0.002291763	-0.0005093883	0.0003611314	0	0
29.34455	-0.3070749	0.6641006	0.003163642	-0.00251041	0.007090698	-0.005571791	0	0
29.36138	-0.307051	0.6640817	0.001421742	-0.001126062	-0.04409101	0.03504063	0	0
29.37768	-0.307051	0.6640817	0	0	-0.04290827	0.03398463	0	0
29.39425	-0.307051	0.6640817	0	0	0	0	0	0
29.41082	-0.307051	0.6640817	0	0	0	0	0	0
29.47746	-0.307051	0.6640817	0	0	0	0	0	0
29.49365	-0.307051	0.6640817	0	0	0	0	0	0
29.51049	-0.307051	0.6640817	0	0	0	0	0	0
29.52678	-0.307051	0.6640817	0	0	0	0	0	0
29.54335	-0.307051	0.6640817	0	0	0	0	0	0
29.55992	-0.307051	0.6640817	0	0	0	0	0	0
29.57654	-0.307051	0.6640817	0	0	0	0	0	0
29.59305	-0.3070271	0.6640627	0.001447027	-0.001151126	0.04367135	-0.03474105	0	0
29.60962	-0.3070271	0.6640627	0	0	-0.0437368	0.03479312	0	0
29.62619	-0.3070032	0.6640437	0.001442695	-0.001144082	0.04354063	-0.03452848	0	0
29.64276	-0.3069792	0.6640248	0.001444494	-0.001144082	5.428939E-05	0	0	0
29.65932	-0.3069553	0.6640058	0.001442861	-0.001147812	-4.927857E-05	-0.0001125765	0	0
29.67611	-0.3069553	0.6640058	0	0	-0.04326174	0.0344152	0	0
29.69245	-0.3069314	0.6639868	0.001464046	-0.001159568	0.04418754	-0.03499785	0	0
29.70902	-0.3068597	0.6639299	0.004329884	-0.003435845	0.0870726	-0.06915998	0	0
29.72564	-0.3068358	0.6639109	0.001438224	-0.001140537	-0.08713505	0.06916503	0	0
29.74215	-0.3068118	0.6638919	0.001449166	-0.001151392	0.0003302209	-0.0003276138	0	0
29.75872	-0.3067879	0.663873	0.001442695	-0.001144082	-0.0001955912	0.0002209533	0	0
29.77529	-0.3067879	0.663873	0	0	-0.04354063	0.03452848	0	0
29.79219	-0.306764	0.663854	0.001415966	-0.001121487	0.04230775	-0.033509	0	0
29.80842	-0.306764	0.663854	0	0	-0.0427364	0.03384851	0	0
29.82499	-0.306764	0.663854	0	0	0	0	0	0
29.84155	-0.3067401	0.663835	0.001442861	-0.001147812	0.04354815	-0.03464304	0	0
29.85813	-0.3067401	0.663835	0	0	-0.04353562	0.03463307	0	0
29.87469	-0.3067162	0.663816	0.001445326	-0.001144741	0.04362003	-0.03454836	0	0
29.89126	-0.3067162	0.663816	0	0	-0.04363007	0.03455632	0	0
29.90782	-0.3066923	0.6637971	0.001442861	-0.001144214	0.04354564	-0.03453245	0	0
29.92439	-0.3066683	0.6637781	0.00144466	-0.001147812	5.430267E-05	-0.0001086053	0	0
29.94095	-0.3066205	0.6637402	0.002887189	-0.002288165	0.04353811	-0.03441789	0	0
29.95781	-0.306477	0.6636263	0.008516297	-0.006755036	0.1684325	-0.1336564	0	0
29.97409	-0.3064052	0.6635694	0.004405456	-0.003495812	-0.1240583	0.09835791	0	0
29.99133	-0.3062856	0.6634746	0.00693945	-0.005501079	0.07559277	-0.05982004	0	0
30.00722	-0.306166	0.6633797	0.007527454	-0.005970955	0.01774804	-0.01418253	0	0
30.02385	-0.3056635	0.6629813	0.03021251	-0.02394997	0.6974844	-0.5527905	0	0
30.04448	-0.305472	0.6628296	0.009285112	-0.007355832	-0.5617442	0.4454284	0	0
30.06104	-0.3052566	0.6626589	0.01300404	-0.01030394	0.09999956	-0.07927258	0	0
30.07761	-0.3050411	0.6624883	0.01300584	-0.01030034	5.427533E-05	0.0001086069	0	0
30.09418	-0.3050172	0.6624693	0.001444494	-0.001144082	-0.3489222	0.2763364	0	0
30.11091	-0.3049693	0.6623935	0.002861793	-0.004533993	0.0425586	-0.1017921	0	0
30.12731	-0.3047777	0.6622418	0.01168104	-0.009251047	0.2661806	-0.1423692	0	0
30.14388	-0.3042029	0.6617488	0.03469664	-0.02975334	0.6981892	-0.6219468	0	0
30.16044	-0.3031006	0.660839	0.06653487	-0.05491596	0.9608797	-0.7594093	0	0
30.17701	-0.2977942	0.6565031	0.3203314	-0.2617444	7.660035	-6.242453	0	0
30.19358	-0.2948334	0.6538372	0.1786356	-0.1608422	-4.275648	3.044708	0	0
30.21014	-0.2904666	0.6475896	0.2637279	-0.3773219	2.568237	-6.533745	0	0
30.22699	-0.2868391	0.6441231	0.2152642	-0.2057124	-1.450613	5.136607	0	0
30.24328	-0.2855798	0.6431442	0.07733981	-0.06011333	-4.162567	4.394187	0	0
30.27653	-0.280606	0.6392888	0.1495766	-0.1159444	1.458276	-1.127087	0	0
30.34268	-0.2751305	0.6349509	0.08277542	-0.06557805	-0.6720343	0.5066963	0	0
30.35924	-0.2713974	0.6319315	0.2253544	-0.1822683	1.723757	-1.410766	0	0
30.37581	-0.2630004	0.625248	0.5068447	-0.4034186	8.495882	-6.674713	0	0
30.39238	-0.2582341	0.6214358	0.2876936	-0.2301045	-6.613995	5.23063	0	0
30.40895	-0.2549349	0.618412	0.1991405	-0.1825171	-2.672537	1.436189	0	0
30.42551	-0.255674	0.6156523	-0.04461382	-0.1665791	-7.35652	0.4810098	0	0
30.44215	-0.2635892	0.6096566	-0.4757886	-0.3604069	-12.98597	-5.837636	0	0
30.45866	-0.2694913	0.6050281	-0.3574025	-0.2802791	3.571256	2.417149	0	0
30.47521	-0.2737162	0.5988117	-0.2552834	-0.3756087	3.088539	-2.883193	0	0
30.49218	-0.2723985	0.5921077	0.0776421	-0.395015	9.931654	-0.5789207	0	0
30.55773	-0.2598324	0.5718348	0.1917088	-0.3092837	1.3823	1.038922	0	0
30.57421	-0.2597833	0.571798	0.002982133	-0.002231626	-2.300775	3.743285	0	0
30.59078	-0.2597833	0.571798	0	0	-0.0902451	0.06753332	0	0
30.60734	-0.2597587	0.5717428	0.001484069	-0.003331511	0.04479187	-0.100551	0	0
30.62428	-0.2596112	0.5716325	0.008708122	-0.006513936	0.2156145	-0.09498505	0	0
30.64048	-0.2589474	0.5711359	0.04098343	-0.03066121	0.9740706	-0.7287662	0	0
30.65704	-0.2558711	0.5688377	0.1857063	-0.1387342	4.41733	-3.298676	0	0
30.67361	-0.2504448	0.5647963	0.3275314	-0.2439378	4.280535	-3.175235	0	0
30.69373	-0.2459939	0.5614929	0.2211908	-0.1641647	-2.898373	2.174261	0	0
30.7103	-0.245672	0.5612544	0.01942602	-0.01439457	-5.499212	4.082069	0	0
30.72687	-0.2456473	0.5612361	0.001494862	-0.001108105	-0.5411633	0.4009864	0	0
30.74386	-0.2456473	0.5612361	0	0	-0.04453818	0.03301506	0	0
30.76	-0.2456473	0.5612361	0	0	0	0	0	0
30.77657	-0.2455978	0.5611627	0.002988825	-0.004428822	0.09138656	-0.135416	0	0
30.79313	-0.2453006	0.5609426	0.01793772	-0.0132844	0.4511844	-0.2672772	0	0
30.80991	-0.24255	0.5588706	0.1639541	-0.1235078	4.379306	-3.305808	0	0
30.82627	-0.2405155	0.5573309	0.1243742	-0.09412532	-1.194526	0.8867662	0	0
30.84284	-0.2388269	0.5559018	0.1019259	-0.0862631	-0.6818079	0.2387945	0	0
30.85945	-0.2390753	0.5547296	-0.014954	-0.07056637	-3.522778	0.4731018	0	0
30.87597	-0.2418555	0.5485078	-0.1682781	-0.376591	-4.627597	-9.236373	0	0
30.89254	-0.2432194	0.5450531	-0.08232447	-0.2085216	2.597675	5.079361	0	0
30.9091	-0.2464889	0.5408529	-0.1973506	-0.2535258	-3.471496	-1.358229	0	0
30.92599	-0.2522964	0.536602	-0.3438488	-0.2516904	-4.378727	0.05485808	0	0
30.9588	-0.2522717	0.5359638	0.0007520928	-0.01945086	6.93365	4.672849	0	0
30.97553	-0.247998	0.5328106	0.2554883	-0.1885048	5.142274	-3.412636	0	0
30.99194	-0.24255	0.5287674	0.3320585	-0.2464289	2.310892	-1.748151	0	0
31.00855	-0.2354455	0.5235637	0.4275978	-0.3131924	2.893209	-2.021793	0	0
31.02507	-0.2312857	0.5205278	0.251835	-0.1837976	-5.304839	3.905366	0	0
31.04164	-0.2275675	0.5178207	0.2244335	-0.1634023	-0.828216	0.6164542	0	0
31.0582	-0.2248434	0.515805	0.1644295	-0.1216685	-1.810926	1.259529	0	0
31.07477	-0.2223662	0.5140078	0.1495213	-0.1084792	-0.4499288	0.3980546	0	0
31.09161	-0.2200868	0.5123202	0.1353583	-0.1002166	-0.4239523	0.2473284	0	0
31.10812	-0.2189587	0.5115038	0.06831809	-0.04944337	-2.010086	1.522349	0	0
31.12447	-0.2189086	0.5112498	0.003067569	-0.01553749	-1.98584	1.031895	0	0
31.14115	-0.2190089	0.5111409	-0.006014633	-0.00652665	-0.2750355	0.2728743	0	0
31.15767	-0.2218153	0.5090371	-0.1697907	-0.127279	-4.932267	-3.636569	0	0
31.17418	-0.2271678	0.5049407	-0.3242711	-0.2481764	-4.676226	-3.659645	0	0
31.19073	-0.2311112	0.5018975	-0.2382142	-0.1838345	2.603047	1.946211	0	0
31.2073	-0.2361421	0.4981683	-0.3036639	-0.2250946	-1.976074	-1.245734	0	0
31.2247	-0.2409623	0.4944415	-0.2769807	-0.2141519	0.7854971	0.3221303	0	0
31.24072	-0.2428971	0.4928141	-0.1208346	-0.1016379	4.672957	3.367187	0	0
31.257	-0.2416818	0.4894339	0.07461537	-0.2075367	6.051261	-3.2787	0	0
31.27357	-0.2366395	0.4857668	0.3043897	-0.2213767	6.994192	-0.4212785	0	0
31.29014	-0.2306374	0.4814159	0.3622901	-0.2626191	1.747536	-1.24477	0	0
31.3067	-0.2226165	0.4756252	0.4841394	-0.3495244	3.677418	-2.622807	0	0
31.32327	-0.2206631	0.4742189	0.1178826	-0.08486562	-11.05238	7.986497	0	0
31.33984	-0.2154456	0.4704701	0.3150019	-0.2263304	5.949072	-4.269415	0	0
31.3646	-0.2121283	0.4680921	0.1339928	-0.09605162	-4.38058	3.152862	0	0
31.38116	-0.211751	0.467822	0.02277192	-0.01630857	-2.691396	1.929674	0	0
31.39773	-0.2113737	0.4675518	0.02277641	-0.01630677	0.0001357024	5.430344E-05	0	0
31.41434	-0.2111976	0.4674257	0.01060146	-0.007589132	-0.366955	0.2627511	0	0
31.43086	-0.2110969	0.4673177	0.006090918	-0.006540027	-0.1361285	0.03166207	0	0
31.44743	-0.2110718	0.4672996	0.001518248	-0.001088317	-0.1381864	0.164751	0	0
31.46438	-0.2110466	0.4672816	0.00148529	-0.001062303	-0.000983472	0.0007762685	0	0
31.48056	-0.2110214	0.4672636	0.001554768	-0.001111995	0.002096973	-0.00149979	0	0
31.49713	-0.2109963	0.4672456	0.001518248	-0.001088317	-0.001114943	0.0007228684	0	0
31.5137	-0.2109208	0.4671916	0.004556542	-0.003261355	0.09169591	-0.06558239	0	0
31.53027	-0.2109208	0.4671556	0	-0.002173037	-0.1375167	0.03284549	0	0
31.56345	-0.2105685	0.4668314	0.01061695	-0.009770003	0.2134088	-0.1527047	0	0
31.61439	-0.2057064	0.4633205	0.0954514	-0.06892587	1.008496	-0.7032337	0	0
31.63099	-0.2004554	0.4595773	0.3161515	-0.2253675	3.267363	-2.316046	0	0
31.64752	-0.1935211	0.4546491	0.4195687	-0.2981878	3.120957	-2.197594	0	0
31.66409	-0.1894377	0.4517547	0.246531	-0.1747449	-5.229211	3.730453	0	0
31.68065	-0.1872539	0.4501731	0.131815	-0.09546433	-3.462533	2.392967	0	0
31.69722	-0.184814	0.4484481	0.1472718	-0.1041223	0.466487	-0.261298	0	0
31.71379	-0.1837459	0.4476935	0.06448168	-0.04555268	-2.498755	1.767736	0	0
31.73056	-0.1832116	0.4473163	0.03183969	-0.02248458	-0.9789386	0.6918159	0	0
31.74707	-0.1831353	0.4472623	0.004622877	-0.003265437	-0.8175929	0.577343	0	0
31.76359	-0.1831353	0.4472264	0	-0.002174651	-0.1399861	0.03303029	0	0
31.7801	-0.1831353	0.4471905	0	-0.002176707	0	-6.225832E-05	0	0
31.79662	-0.1831353	0.4471546	0	-0.002175701	0	3.043652E-05	0	0
31.81319	-0.1830844	0.4471186	0.003071574	-0.00216764	0.09283387	0.0002436269	0	0
31.83014	-0.1831099	0.4471007	-0.00150166	-0.001060306	-0.1364495	0.03303906	0	0
31.84632	-0.1830844	0.4470827	0.001572628	-0.001110415	0.09278753	-0.001512408	0	0
31.86289	-0.1830844	0.4470827	0	0	-0.04801759	0.03390469	0	0
31.87945	-0.183059	0.4470288	0.001535337	-0.00325236	0.04633657	-0.09815642	0	0
31.89602	-0.1830335	0.4469749	0.001536236	-0.00325236	2.714469E-05	0	0	0
31.91259	-0.1830081	0.446921	0.001535337	-0.003254159	-2.714469E-05	-5.428939E-05	0	0
31.92916	-0.1830081	0.4468851	0	-0.00216764	-0.04633657	0.03279119	0	0
31.94572	-0.1829827	0.4468671	0.001536236	-0.00108472	0.04636371	0.03268262	0	0
31.96229	-0.1829827	0.4468671	0	0	-0.04636371	0.0327369	0	0
31.97886	-0.1829827	0.4468671	0	0	0	0	0	0
31.99542	-0.1829827	0.4468671	0	0	0	0	0	0
32.01227	-0.1829827	0.4468671	0	0	0	0	0	0
32.09483	-0.1830081	0.4468492	-0.0003082837	-0.0002176757	-0.003101399	-0.002189864	0	0
32.11519	-0.1829572	0.4468133	0.002499034	-0.001763594	0.02727656	-0.0150205	0	0
32.13185	-0.1829063	0.4467414	0.003054888	-0.004312257	0.01501274	-0.06883544	0	0
32.14832	-0.1828809	0.4467234	0.001544226	-0.001091	-0.04559186	0.09721772	0	0
32.16489	-0.1828554	0.4467055	0.001536236	-0.00108472	-0.0002418256	0.0001900856	0	0
32.18146	-0.18283	0.4466875	0.001535337	-0.00108472	-2.714469E-05	0	0	0
32.19802	-0.18283	0.4466875	0	0	-0.04633657	0.0327369	0	0
32.21459	-0.18283	0.4466516	0	-0.00216764	0	-0.06541952	0	0
32.23116	-0.1828045	0.4466336	0.001536236	-0.00108472	0.04636371	0.03268262	0	0
32.24773	-0.1827791	0.4466156	0.001536236	-0.00108472	0	0	0	0
32.26429	-0.1827791	0.4465797	0	-0.00216764	-0.04636371	-0.03268262	0	0
32.28096	-0.1827537	0.4465618	0.001525851	-0.001078018	0.04590757	0.03278298	0	0
32.29748	-0.1827027	0.4465258	0.003082409	-0.002174651	0.04690682	-0.03304698	0	0
32.314	-0.1827027	0.4464899	0	-0.002175953	-0.09331737	-3.941663E-05	0	0
32.33056	-0.1826519	0.446454	0.003071574	-0.00216764	0.09283923	0.0002512343	0	0
32.34713	-0.1824483	0.4463103	0.01228899	-0.00867416	0.2781822	-0.1963671	0	0
32.3637	-0.1803351	0.4448195	0.1275481	-0.08998496	3.478527	-2.453965	0	0
32.38026	-0.1730158	0.4396665	0.4417939	-0.3110375	9.483957	-6.67138	0	0
32.39683	-0.165473	0.4343368	0.4552881	-0.3216958	0.4072565	-0.3216689	0	0
32.41406	-0.1610406	0.4312337	0.2572883	-0.1801304	-5.858953	4.189021	0	0
32.42996	-0.1588862	0.4297273	0.1354707	-0.09472071	-3.676887	2.577965	0	0
32.44653	-0.1561654	0.4278267	0.1642289	-0.1147212	0.885666	-0.6159565	0	0
32.4631	-0.1549325	0.4269303	0.07441483	-0.05410826	-2.710594	1.829304	0	0
32.48011	-0.1549068	0.4269124	0.001510288	-0.001052997	-2.171267	1.580109	0	0
32.49623	-0.1549068	0.4269124	0	0	-0.04558059	0.03177951	0	0
32.5128	-0.1549325	0.4268944	-0.001550627	-0.001082921	-0.04743147	-0.03312499	0	0
32.52964	-0.1549325	0.4268944	0	0	0.046408	0.03241023	0	0
32.54615	-0.1549325	0.4268586	0	-0.002171543	0	-0.06510258	0	0
32.5625	-0.1549325	0.4268586	0	0	0	0.06609276	0	0
32.57907	-0.1549582	0.4268407	-0.001550627	-0.001081122	-0.04711262	-0.03284766	0	0
32.59569	-0.1549582	0.4268407	0	0	0.04671735	0.03257208	0	0
32.6122	-0.1549582	0.4268407	0	0	0	0	0	0
32.62877	-0.1549582	0.4268048	0	-0.002164541	0	-0.06544653	0	0
32.64533	-0.1549839	0.4267869	-0.001550627	-0.001082921	-0.04680341	0.03264712	0	0
32.6619	-0.1550096	0.426769	-0.001550627	-0.001081122	0	5.428939E-05	0	0
32.67847	-0.1550096	0.4267331	0	-0.002165842	0.04679803	-0.0327369	0	0
32.69503	-0.1550353	0.4266435	-0.001550627	-0.005409207	-0.04679803	-0.09788497	0	0
32.71178	-0.1550867	0.4265359	-0.003068751	-0.006424086	-0.04557571	-0.03046774	0	0
32.72817	-0.1565762	0.4252811	-0.09085076	-0.07653269	-2.648961	-2.115638	0	0
32.74474	-0.1639365	0.4200662	-0.4443697	-0.3148427	-10.72603	-7.230501	0	0
32.76131	-0.176104	0.41061	-0.7339265	-0.570388	-8.73683	-7.710598	0	0
32.77787	-0.1816083	0.4020548	-0.3324696	-0.5167447	12.11599	1.618959	0	0
32.79443	-0.1848903	0.3896957	-0.1981482	-0.7461729	4.055696	-6.927348	0	0
32.81443	-0.1875587	0.3798105	-0.1334437	-0.4943411	1.769814	6.888168	0	0
32.831	-0.1906305	0.3737527	-0.1854088	-0.3656477	-1.421216	3.519687	0	0
32.84756	-0.1948386	0.3694291	-0.2540034	-0.2609749	-2.070188	3.15903	0	0
32.86438	-0.2003038	0.3656062	-0.3250154	-0.2273494	-2.127229	1.007282	0	0
32.8807	-0.2028804	0.3637842	-0.1578863	-0.1116468	5.043968	3.491912	0	0
32.96353	-0.2043443	0.3627125	-0.01767392	-0.01293904	1.414175	0.9955618	0	0
32.98009	-0.2043443	0.3627125	0	0	0.1778137	0.130177	0	0
32.99666	-0.2043443	0.3627125	0	0	0	0	0	0
33.01348	-0.2043443	0.3627125	0	0	0	0	0	0
33.02979	-0.2043443	0.3627125	0	0	0	0	0	0
33.04636	-0.2043443	0.3627125	0	0	0	0	0	0
33.06293	-0.2043443	0.3627125	0	0	0	0	0	0
33.08126	-0.2043443	0.3627125	0	0	0	0	0	0
33.09804	-0.2043443	0.3627125	0	0	0	0	0	0
33.11439	-0.2043443	0.3627125	0	0	0	0	0	0
33.13096	-0.2043443	0.3627125	0	0	0	0	0	0
33.14753	-0.2043695	0.3627303	-0.001523644	0.001077524	-0.04598368	0.03251974	0	0
33.16409	-0.2043695	0.3627303	0	0	0.04598368	-0.03251974	0	0
33.18066	-0.2043695	0.3627303	0	0	0	0	0	0
33.19723	-0.2043695	0.3627303	0	0	0	0	0	0
33.21379	-0.2043695	0.3627303	0	0	0	0	0	0
33.23064	-0.2043695	0.3627303	0	0	0	0	0	0
33.24715	-0.2043695	0.3627303	0	0	0	0	0	0
33.26366	-0.2043695	0.3627303	0	0	0	0	0	0
33.28017	-0.2043443	0.3627125	0.001528925	-0.001081259	0.04630297	-0.03274555	0	0
33.29668	-0.2043443	0.3627125	0	0	-0.04630297	0.03274555	0	0
33.31319	-0.2043443	0.3627125	0	0	0	0	0	0
33.32976	-0.2043443	0.3627125	0	0	0	0	0	0
33.34632	-0.2043443	0.3627125	0	0	0	0	0	0
33.36289	-0.2043443	0.3627125	0	0	0	0	0	0
33.37946	-0.2043443	0.3627125	0	0	0	0	0	0
33.39603	-0.2043443	0.3627125	0	0	0	0	0	0
33.41259	-0.2043443	0.3627125	0	0	0	0	0	0
33.42916	-0.2043443	0.3627125	0	0	0	0	0	0
33.44573	-0.2043443	0.3627125	0	0	0	0	0	0
33.48252	-0.2043443	0.3627125	0	0	0	0	0	0
33.49909	-0.2043443	0.3627125	0	0	0	0	0	0
33.51584	-0.2043443	0.3627125	0	0	0	0	0	0
33.53222	-0.2043443	0.3627125	0	0	0	0	0	0
33.54886	-0.2043443	0.3627125	0	0	0	0	0	0
33.56538	-0.2043443	0.3627125	0	0	0	0	0	0
33.58192	-0.204319	0.3626946	0.001524852	-0.001079015	0.04612632	-0.03263989	0	0
33.59889	-0.204319	0.3626946	0	0	-0.04549632	0.03219409	0	0
33.61505	-0.204319	0.3626946	0	0	0	0	0	0
33.63191	-0.204319	0.3626946	0	0	0	0	0	0
33.64843	-0.204319	0.3626946	0	0	0	0	0	0
33.66475	-0.204319	0.3626946	0	0	0	0	0	0
33.68145	-0.204319	0.3626946	0	0	0	0	0	0
33.69788	-0.204319	0.3626946	0	0	0	0	0	0
33.71445	-0.204319	0.3626946	0	0	0	0	0	0
33.73102	-0.204319	0.3626946	0	0	0	0	0	0
33.74759	-0.204319	0.3626946	0	0	0	0	0	0
33.76451	-0.2043443	0.3626767	-0.001490485	-0.001056457	-0.04450133	-0.03154258	0	0
33.78102	-0.2043443	0.3626767	0	0	0.0445724	0.03159296	0	0
33.79729	-0.2043443	0.3626767	0	0	0	0	0	0
33.81385	-0.2043443	0.3626767	0	0	0	0	0	0
33.86356	-0.2042938	0.362641	0.001015163	-0.0007183495	0.01531884	-0.01083991	0	0
33.88012	-0.2042938	0.362641	0	0	-0.01531884	0.01083991	0	0
33.89669	-0.2042938	0.362641	0	0	0	0	0	0
33.91362	-0.2042938	0.362641	0	0	0	0	0	0
33.92982	-0.2042938	0.362641	0	0	0	0	0	0
33.94665	-0.2042938	0.362641	0	0	0	0	0	0
33.96315	-0.2042938	0.362641	0	0	0	0	0	0
33.97966	-0.2042938	0.362641	0	0	0	0	0	0
33.99609	-0.2042938	0.362641	0	0	0	0	0	0
34.01265	-0.2042938	0.362641	0	0	0	0	0	0
34.02922	-0.2042938	0.362641	0	0	0	0	0	0
34.04579	-0.2042686	0.3626232	0.001523644	-0.001079323	0.04598368	-0.03257403	0	0
34.06236	-0.2042686	0.3626232	0	0	-0.04598368	0.03257403	0	0
34.07892	-0.2042686	0.3626232	0	0	0	0	0	0
34.11629	-0.2042686	0.3626232	0	0	0	0	0	0
34.13247	-0.2042686	0.3626232	0	0	0	0	0	0
34.14904	-0.2042686	0.3626232	0	0	0	0	0	0
34.1658	-0.2042686	0.3626232	0	0	0	0	0	0
34.18231	-0.2042686	0.3626232	0	0	0	0	0	0
34.19874	-0.2042686	0.3626232	0	0	0	0	0	0
34.21534	-0.2042433	0.3626053	0.001519596	-0.001075296	0.0460045	-0.03255368	0	0
34.23187	-0.2042433	0.3626053	0	0	-0.04586149	0.03245249	0	0
34.24844	-0.2042433	0.3626053	0	0	0	0	0	0
34.26501	-0.2042433	0.3626053	0	0	0	0	0	0
34.28157	-0.2042433	0.3626053	0	0	0	0	0	0
34.29814	-0.2042433	0.3626053	0	0	0	0	0	0
34.31471	-0.2042181	0.3625875	0.001522745	-0.001077524	0.04595653	-0.03251974	0	0
34.33128	-0.2042181	0.3625875	0	0	-0.04595653	0.03251974	0	0
34.34784	-0.2041929	0.3625696	0.001523644	-0.001079323	0.04598368	-0.03257403	0	0
34.36444	-0.2041929	0.3625696	0	0	-0.04594136	0.03254406	0	0
34.38098	-0.2041929	0.3625696	0	0	0	0	0	0
34.39796	-0.2041676	0.3625517	0.001485129	-0.001050907	0.04430106	-0.0313483	0	0
34.41411	-0.2041676	0.3625517	0	0	-0.04482645	0.03172008	0	0
34.43068	-0.2041676	0.3625517	0	0	0	0	0	0
34.44724	-0.2041676	0.3625517	0	0	0	0	0	0
34.46401	-0.2041424	0.3625338	0.001505275	-0.00106631	0.04515376	-0.03198614	0	0
34.48038	-0.2041424	0.3625338	0	0	-0.04542928	0.03218131	0	0
34.49694	-0.2041424	0.3625338	0	0	0	0	0	0
34.51351	-0.2041676	0.3625517	-0.001523644	0.001079323	-0.04598368	0.03257403	0	0
34.53008	-0.2041676	0.3625517	0	0	0.04598368	-0.03257403	0	0
34.54708	-0.2041676	0.3625517	0	0	0	0	0	0
34.56321	-0.2041676	0.3625517	0	0	0	0	0	0
34.57978	-0.2041676	0.3625517	0	0	0	0	0	0
34.59635	-0.2041676	0.3625517	0	0	0	0	0	0
34.61292	-0.2041676	0.3625517	0	0	0	0	0	0
34.62963	-0.2041676	0.3625517	0	0	0	0	0	0
34.64615	-0.2041676	0.3625517	0	0	0	0	0	0
34.67073	-0.2041676	0.3625517	0	0	0	0	0	0
34.77024	-0.2041676	0.362516	0	-0.0003590887	0	-0.002893816	0	0
34.79085	-0.2041424	0.3624981	0.001224498	-0.0008659674	0.01019355	-0.0042196	0	0
34.80742	-0.2041172	0.362516	0.001522745	0.001077524	0.008021302	0.05226989	0	0
34.82428	-0.2041172	0.362516	0	0	-0.04555791	-0.03223767	0	0
34.84055	-0.2041172	0.362516	0	0	0	0	0	0
34.85712	-0.2041172	0.362516	0	0	0	0	0	0
34.87381	-0.2041424	0.3625338	-0.001511607	0.001069643	-0.04545294	0.03216339	0	0
34.89025	-0.2041172	0.362516	0.001534404	-0.001085774	0.09193938	-0.0650581	0	0
34.90682	-0.2041424	0.3625338	-0.001522745	0.001077524	-0.0926168	0.06553747	0	0
34.92339	-0.2041424	0.3625338	0	0	0.04595653	-0.03251974	0	0
34.93995	-0.2041424	0.3625338	0	0	0	0	0	0
34.95687	-0.2041172	0.362516	0.001491493	-0.00105541	0.04454666	-0.03152209	0	0
34.97308	-0.2041424	0.3625338	-0.0015557	0.001100844	-0.09197507	0.06508336	0	0
34.98989	-0.2041172	0.362516	0.001501312	-0.001062358	0.09258058	-0.06551184	0	0
35.0064	-0.2041424	0.3624981	-0.001527317	-0.001080759	-0.09089147	-0.0005522302	0	0
35.02279	-0.2041424	0.3624981	0	0	0.04642589	0.03285187	0	0
35.03935	-0.2041424	0.3624981	0	0	0	0	0	0
