Time	Pos X	Pos Y	Vel X	Vel Y	Acc X	Acc YForce X	Force Y
0.01673016	-0.1952438	0.3847257	0.002944496	-0.005802096	-4.441741E-05	8.7524E-05	0	0
0.0868586	-0.1952438	0.3847257	0	0	4.445333E-05	-8.759478E-05	0	0
0.1038197	-0.1952438	0.3847257	0	0	0	0	0	0
0.1203043	-0.1952438	0.3847257	0	0	0	0	0	0
0.1368205	-0.1952438	0.3847257	0	0	0	0	0	0
0.1531259	-0.1952438	0.3847257	0	0	0	0	0	0
0.1696923	-0.1952438	0.3847257	0	0	0	0	0	0
0.1863597	-0.1952438	0.3847257	0	0	0	0	0	0
0.2028273	-0.1952438	0.3847257	0	0	0	0	0	0
0.2193933	-0.1952438	0.3847257	0	0	0	0	0	0
0.2359592	-0.1952438	0.3847257	0	0	0	0	0	0
0.2525259	-0.1952438	0.3847257	0	0	0	0	0	0
0.2694108	-0.1952438	0.3847257	0	0	0	0	0	0
0.285659	-0.1952438	0.3847257	0	0	0	0	0	0
0.3022257	-0.1952438	0.3847257	0	0	0	0	0	0
0.3189441	-0.1952438	0.3847257	0	0	0	0	0	0
0.3354599	-0.1952438	0.3847257	0	0	0	0	0	0
0.351926	-0.1952185	0.3847078	0.001537529	-0.001085953	0.04661734	-0.03292573	0	0
0.3684927	-0.1952438	0.3847257	-0.001528188	0.001079356	-0.09280825	0.06555027	0	0
0.3850594	-0.1952438	0.3847257	0	0	0.04612222	-0.03257603	0	0
0.4016261	-0.1952438	0.3847257	0	0	0	0	0	0
0.4181929	-0.1952438	0.3847257	0	0	0	0	0	0
0.4347596	-0.1952438	0.3847257	0	0	0	0	0	0
0.4515395	-0.1952438	0.3847257	0	0	0	0	0	0
0.4680517	-0.1952438	0.3847257	0	0	0	0	0	0
0.4845636	-0.1952438	0.3847257	0	0	0	0	0	0
0.5010257	-0.1952438	0.3847257	0	0	0	0	0	0
0.5175925	-0.1952438	0.3847257	0	0	0	0	0	0
0.5341596	-0.1952438	0.3847257	0	0	0	0	0	0
0.5507264	-0.1952438	0.3847257	0	0	0	0	0	0
0.5672923	-0.1952185	0.3847078	0.001528263	-0.001079408	0.04612554	-0.03257837	0	0
0.583859	-0.1952185	0.3847078	0	0	-0.04612554	0.03257837	0	0
0.6006448	-0.1952185	0.3847078	0	0	0	0	0	0
0.6169925	-0.1952185	0.3847078	0	0	0	0	0	0
0.6336863	-0.1952185	0.3847078	0	0	0	0	0	0
0.6501792	-0.1952185	0.3847078	0	0	0	0	0	0
0.666693	-0.1952185	0.3847078	0	0	0	0	0	0
0.6832598	-0.1952185	0.3847078	0	0	0	0	0	0
0.6998257	-0.1952185	0.3847078	0	0	0	0	0	0
0.7163932	-0.1952185	0.3847078	0	0	0	0	0	0
0.7329568	-0.1952185	0.3847078	0	0	0	0	0	0
0.7535524	-0.1952438	0.3847257	-0.001229246	0.0008682138	-0.03308053	0.0233647	0	0
0.77012	-0.1952438	0.3847257	0	0	0.03307702	-0.02336223	0	0
0.7867748	-0.1952438	0.3847257	0	0	0	0	0	0
0.8032839	-0.1952438	0.3847257	0	0	0	0	0	0
0.8198198	-0.1952438	0.3847257	0	0	0	0	0	0
0.8363878	-0.1952438	0.3847257	0	0	0	0	0	0
0.8538178	-0.1952438	0.3847257	0	0	0	0	0	0
0.8695197	-0.1952438	0.3847257	0	0	0	0	0	0
0.8863438	-0.1952438	0.3847257	0	0	0	0	0	0
0.9026539	-0.1952438	0.3847257	0	0	0	0	0	0
0.9192207	-0.1952438	0.3847257	0	0	0	0	0	0
0.9358766	-0.1952438	0.3847257	0	0	0	0	0	0
0.9523534	-0.1952438	0.3847257	0	0	0	0	0	0
0.9689217	-0.1952438	0.3847257	0	0	0	0	0	0
0.9854876	-0.1952438	0.3847257	0	0	0	0	0	0
1.002056	-0.1952438	0.3847257	0	0	0	0	0	0
1.018936	-0.1952185	0.3847078	0.001499781	-0.001059292	0.04483809	-0.03166905	0	0
1.03519	-0.1952185	0.3847078	0	0	-0.0452643	0.03197008	0	0
1.051757	-0.1952185	0.3847078	0	0	0	0	0	0
1.068474	-0.1952185	0.3847078	0	0	0	0	0	0
1.084988	-0.1952185	0.3847078	0	0	0	0	0	0
1.101456	-0.1952185	0.3847078	0	0	0	0	0	0
1.118023	-0.1952185	0.3847078	0	0	0	0	0	0
1.13459	-0.1952185	0.3847078	0	0	0	0	0	0
1.151156	-0.1952185	0.3847078	0	0	0	0	0	0
1.167722	-0.1952185	0.3847078	0	0	0	0	0	0
1.184288	-0.1952185	0.3847078	0	0	0	0	0	0
1.201069	-0.1952185	0.3847078	0	0	0	0	0	0
1.217423	-0.1952185	0.3847078	0	0	0	0	0	0
1.234124	-0.1952185	0.3847078	0	0	0	0	0	0
1.250624	-0.1952185	0.3847078	0	0	0	0	0	0
1.267123	-0.1952438	0.3847257	-0.001534512	0.001083823	-0.0465019	0.03284419	0	0
1.28369	-0.1952438	0.3847257	0	0	0.04640818	-0.032778	0	0
1.300256	-0.1952438	0.3847257	0	0	0	0	0	0
1.316823	-0.1952438	0.3847257	0	0	0	0	0	0
1.33339	-0.1952438	0.3847257	0	0	0	0	0	0
1.349956	-0.1952438	0.3847257	0	0	0	0	0	0
1.366523	-0.1952185	0.3847078	0.001528152	-0.001079331	0.04612106	-0.0325752	0	0
1.38309	-0.1952185	0.3847078	0	0	-0.04612106	0.0325752	0	0
1.420824	-0.1952185	0.3847078	0	0	0	0	0	0
1.43739	-0.1952185	0.3847078	0	0	0	0	0	0
1.453957	-0.1952185	0.3847078	0	0	0	0	0	0
1.470765	-0.1952185	0.3847078	0	0	0	0	0	0
1.48709	-0.1952185	0.3847078	0	0	0	0	0	0
1.503657	-0.1952185	0.3847078	0	0	0	0	0	0
1.520295	-0.1952185	0.3847078	0	0	0	0	0	0
1.536806	-0.1952185	0.3847078	0	0	0	0	0	0
1.553357	-0.1952185	0.3847078	0	0	0	0	0	0
1.569924	-0.1952185	0.3847078	0	0	0	0	0	0
1.58649	-0.1952185	0.3847078	0	0	0	0	0	0
1.603057	-0.1952185	0.3847078	0	0	0	0	0	0
1.61962	-0.1952185	0.3847078	0	0	0	0	0	0
1.636187	-0.1952185	0.3847078	0	0	0	0	0	0
1.652883	-0.1952185	0.3847078	0	0	0	0	0	0
1.669394	-0.1952185	0.3847078	0	0	0	0	0	0
1.685906	-0.1952185	0.3847078	0	0	0	0	0	0
1.702454	-0.1952185	0.3847078	0	0	0	0	0	0
1.752154	-0.1952185	0.3847078	0	0	0	0	0	0
1.768721	-0.1952185	0.3847078	0	0	0	0	0	0
1.785477	-0.1952185	0.3847078	0	0	0	0	0	0
1.801989	-0.1952185	0.3847078	0	0	0	0	0	0
1.818421	-0.1952185	0.3847078	0	0	0	0	0	0
1.834987	-0.1952185	0.3847078	0	0	0	0	0	0
1.851554	-0.1952185	0.3847078	0	0	0	0	0	0
1.868121	-0.1952185	0.3847078	0	0	0	0	0	0
1.884688	-0.1952185	0.3847078	0	0	0	0	0	0
1.901254	-0.1952185	0.3847078	0	0	0	0	0	0
1.917821	-0.1952185	0.3847078	0	0	0	0	0	0
1.934387	-0.1952185	0.3847078	0	0	0	0	0	0
1.951094	-0.1952185	0.3847078	0	0	0	0	0	0
1.967521	-0.1952185	0.3847078	0	0	0	0	0	0
1.984117	-0.1952185	0.3847078	0	0	0	0	0	0
2.000654	-0.1952185	0.3847078	0	0	0	0	0	0
2.017641	-0.1952185	0.3847078	0	0	0	0	0	0
2.033788	-0.1952185	0.3847078	0	0	0	0	0	0
2.057842	-0.1952185	0.3847078	0	0	0	0	0	0
2.07441	-0.1952185	0.3847078	0	0	0	0	0	0
2.090977	-0.1952185	0.3847078	0	0	0	0	0	0
2.107544	-0.1952185	0.3847078	0	0	0	0	0	0
2.124111	-0.1952185	0.3847078	0	0	0	0	0	0
2.140677	-0.1952185	0.3847078	0	0	0	0	0	0
2.157243	-0.1952185	0.3847078	0	0	0	0	0	0
2.17381	-0.1952185	0.3847078	0	0	0	0	0	0
2.190377	-0.1952185	0.3847078	0	0	0	0	0	0
2.206944	-0.1952438	0.3847257	-0.001528186	0.001079354	-0.04612272	0.03257638	0	0
2.22351	-0.1952438	0.3847257	0	0	0.04612206	-0.03257591	0	0
2.240077	-0.1952438	0.3847257	0	0	0	0	0	0
2.256643	-0.1952438	0.3847257	0	0	0	0	0	0
2.273322	-0.1952438	0.3847257	0	0	0	0	0	0
2.289834	-0.1952438	0.3847257	0	0	0	0	0	0
2.306345	-0.1952438	0.3847257	0	0	0	0	0	0
2.32291	-0.1952438	0.3847257	0	0	0	0	0	0
2.339477	-0.1952438	0.3847257	0	0	0	0	0	0
2.356043	-0.1952438	0.3847257	0	0	0	0	0	0
2.37261	-0.1952438	0.3847257	0	0	0	0	0	0
2.389176	-0.1952438	0.3847257	0	0	0	0	0	0
2.422426	-0.1952438	0.3847257	0	0	0	0	0	0
2.438876	-0.1952438	0.3847257	0	0	0	0	0	0
2.455451	-0.1952438	0.3847257	0	0	0	0	0	0
2.472009	-0.1952438	0.3847257	0	0	0	0	0	0
2.488576	-0.1952438	0.3847257	0	0	0	0	0	0
2.505143	-0.1952438	0.3847257	0	0	0	0	0	0
2.52171	-0.1952438	0.3847257	0	0	0	0	0	0
2.53851	-0.1952438	0.3847257	0	0	0	0	0	0
2.554843	-0.1952438	0.3847257	0	0	0	0	0	0
2.57141	-0.1952438	0.3847257	0	0	0	0	0	0
2.587976	-0.1952438	0.3847257	0	0	0	0	0	0
2.604559	-0.1952438	0.3847257	0	0	0	0	0	0
2.621568	-0.1952438	0.3847257	0	0	0	0	0	0
2.637677	-0.1952438	0.3847257	0	0	0	0	0	0
2.654243	-0.1952438	0.3847257	0	0	0	0	0	0
2.67081	-0.1952438	0.3847257	0	0	0	0	0	0
2.687376	-0.1952438	0.3847257	0	0	0	0	0	0
2.704126	-0.1952438	0.3847257	0	0	0	0	0	0
2.758454	-0.1952438	0.3847257	0	0	0	0	0	0
2.775022	-0.1952438	0.3847257	0	0	0	0	0	0
2.791589	-0.1952438	0.3847257	0	0	0	0	0	0
2.808155	-0.1952438	0.3847257	0	0	0	0	0	0
2.82472	-0.1952185	0.3847078	0.001528295	-0.001079432	0.0461277	-0.03257989	0	0
2.841726	-0.1952185	0.3847078	0	0	-0.04552459	0.03215392	0	0
2.857853	-0.1952185	0.3847078	0	0	0	0	0	0
2.874747	-0.1952185	0.3847078	0	0	0	0	0	0
2.890987	-0.1952185	0.3847078	0	0	0	0	0	0
2.907555	-0.1952185	0.3847078	0	0	0	0	0	0
2.924284	-0.1952438	0.3847257	-0.001513397	0.001068909	-0.04545202	0.03210266	0	0
2.940795	-0.1952185	0.3847078	0.001533261	-0.001082939	0.09165483	-0.06473561	0	0
2.957306	-0.1952185	0.3847078	0	0	-0.04643126	0.0327943	0	0
2.97382	-0.1952438	0.3847257	-0.001533039	0.001082782	-0.0464212	0.03278719	0	0
3.017684	-0.1952438	0.3847257	0	0	0.02539036	-0.01793316	0	0
3.034252	-0.1951172	0.3848151	0.007642176	0.005394584	0.1264582	0.08926636	0	0
3.050819	-0.1947373	0.3850832	0.02293358	0.01618491	0.4614921	0.3256505	0	0
3.067386	-0.194332	0.3853692	0.02446536	0.01726427	0.04623065	0.03257592	0	0
3.083953	-0.1937999	0.3856731	0.0321166	0.01834283	0.2309164	0.03255133	0	0
3.100519	-0.1935465	0.3858162	0.01529735	0.008633655	-0.5076278	-0.2930362	0	0
3.117086	-0.1933691	0.3859413	0.01070809	0.00755368	-0.138513	-0.03259584	0	0
3.133652	-0.1881429	0.3883011	0.315461	0.1424424	9.197727	4.071065	0	0
3.150441	-0.1766396	0.3894096	0.6851879	0.06602725	11.08452	-2.290948	0	0
3.166786	-0.1531081	0.3914301	1.439698	0.1236179	22.77198	1.738152	0	0
3.183352	-0.1330255	0.3935939	1.212255	0.1306128	-6.910848	0.2125398	0	0
3.233052	-0.08766944	0.4063497	0.9126013	0.2566567	-4.521975	1.902088	0	0
3.249619	-0.07606349	0.4136896	0.7005566	0.4430551	-3.199876	2.812858	0	0
3.266186	-0.06543277	0.4210696	0.6416715	0.4454564	-1.777181	0.07247399	0	0
3.282753	-0.05987571	0.4248689	0.3354345	0.2293286	-9.242384	-6.522845	0	0
3.299319	-0.0514283	0.4309647	0.5099017	0.3679554	5.265583	4.183887	0	0
3.315886	-0.03929555	0.4396485	0.7323761	0.5241872	6.714581	4.715288	0	0
3.332452	-0.03051684	0.4462923	0.5298994	0.4010322	-6.111024	-3.716986	0	0
3.349019	-0.01955014	0.4543614	0.6619703	0.4870657	3.986022	2.596572	0	0
3.365586	-0.0142885	0.4606209	0.3176024	0.3778333	-10.39334	-3.296736	0	0
3.382153	-0.01407802	0.4687946	0.01270518	0.4933836	-9.202081	3.487414	0	0
3.398719	-0.01431481	0.4772483	-0.01429335	0.5102773	-0.8148406	0.509868	0	0
3.415285	-0.01318345	0.4860377	0.06829424	0.5305668	2.492624	0.6123704	0	0
3.435863	-0.007289344	0.4921451	0.2864286	0.2967964	5.872677	-6.293633	0	0
3.452655	-0.004578915	0.4939351	0.1614114	0.106599	-3.345394	-5.08958	0	0
3.468998	-0.002157891	0.4955991	0.1481437	0.1018182	-0.4004185	-0.1442866	0	0
3.485679	-0.00210526	0.4955267	0.003155042	-0.004337697	-4.390393	-3.214499	0	0
3.502131	-0.001842103	0.4953459	0.01599559	-0.01099393	0.3875397	-0.2008912	0	0
3.518701	-0.001526315	0.4951288	0.01905802	-0.01309911	0.09273981	-0.0637515	0	0
3.535264	-0.001263157	0.4949479	0.0158881	-0.01092002	-0.0956724	0.06576777	0	0
3.551831	-0.001236841	0.4949299	0.001588516	-0.001091978	-0.4316275	0.2966558	0	0
3.568398	-0.001210526	0.4949479	0.001588418	0.001091915	-2.97244E-06	0.06591193	0	0
3.584965	-0.001210526	0.4949479	0	0	-0.04793923	-0.03295454	0	0
3.634664	-0.0006578946	0.4946766	0.01111944	-0.005459212	0.1677993	-0.08238293	0	0
3.684364	0.0007894735	0.4940075	0.02912194	-0.01346314	0.1811121	-0.0805226	0	0
3.700931	0.001499999	0.4936639	0.04288863	-0.02073979	0.2077456	-0.109808	0	0
3.717498	0.002552626	0.4932661	0.0635367	-0.02401314	0.6231689	-0.0987913	0	0
3.734064	0.003789456	0.4935012	0.07466056	0.01419052	0.335731	1.15303	0	0
3.750631	0.006710425	0.4951831	0.1763152	0.101524	3.068096	2.635864	0	0
3.767377	0.007736688	0.4957076	0.0612856	0.03132475	-3.453063	-2.107307	0	0
3.783765	0.00781563	0.4956534	0.004817117	-0.003311584	-1.704271	-1.045357	0	0
3.800332	0.008210341	0.495382	0.02382482	-0.01637693	0.5767745	-0.3964581	0	0
3.816898	0.008368226	0.4952735	0.009530465	-0.006551868	-0.4314169	0.2965294	0	0
3.833464	0.008394539	0.4952554	0.001588383	-0.001091978	-0.2397063	0.1647893	0	0
3.866598	0.01539352	0.490446	0.2112342	-0.1451523	4.218225	-2.898597	0	0
3.883165	0.01805067	0.4885847	0.1603905	-0.11235	-1.023003	0.66	0	0
3.899732	0.02320636	0.4850444	0.3112069	-0.2136977	4.551779	-3.058769	0	0
3.916298	0.02599414	0.4831667	0.1682808	-0.1133444	-4.313706	3.028799	0	0
3.932996	0.02909705	0.4810369	0.1858262	-0.1275505	0.5274575	-0.4270671	0	0
3.949431	0.03088491	0.4797738	0.1087798	-0.07685208	-2.325332	1.530124	0	0
3.965998	0.03482801	0.4770679	0.2380198	-0.1633362	3.916139	-2.620579	0	0
3.982565	0.04210668	0.4720739	0.4393409	-0.3014369	6.076057	-4.16801	0	0
3.999132	0.04693918	0.4687586	0.2916988	-0.2001195	-4.455912	3.057812	0	0
4.015698	0.05121832	0.465823	0.2582971	-0.1772012	-1.008095	0.6916951	0	0
4.032265	0.05310791	0.4645266	0.1140622	-0.07825363	-4.353205	2.986372	0	0
4.048831	0.05457732	0.4635185	0.08869915	-0.06085394	-0.7655031	0.5251539	0	0
4.065588	0.0573843	0.4615926	0.1675151	-0.1149316	2.365225	-1.622843	0	0
4.082099	0.05801377	0.4611247	0.0381237	-0.02833771	-3.889369	2.602921	0	0
4.103349	0.05819736	0.4609628	0.008639418	-0.007620891	-0.7807989	0.5486202	0	0
4.120126	0.05814491	0.4609268	-0.003126421	-0.002145862	-0.3094051	0.1439763	0	0
4.136639	0.05809246	0.4608908	-0.003176662	-0.002178386	-0.0015092	-0.0009769961	0	0
4.15305	0.05806623	0.4608728	-0.001598094	-0.001096874	0.04794626	0.03284905	0	0
4.169617	0.05798755	0.4608188	-0.004749246	-0.003259556	-0.095553	-0.06557943	0	0
4.186183	0.05796132	0.4608008	-0.001583098	-0.001084782	0.09555729	0.06563669	0	0
4.20275	0.05793509	0.4607828	-0.001583278	-0.00108655	-5.410903E-06	-5.335361E-05	0	0
4.219316	0.05790887	0.4608008	-0.001583098	0.001086581	5.410903E-06	0.06558805	0	0
4.235884	0.05790887	0.4608008	0	0	0.04777938	-0.03279402	0	0
4.25272	0.05788264	0.4608188	-0.001557898	0.001067362	-0.04663824	0.03195325	0	0
4.269017	0.05788264	0.4608188	0	0	0.0470188	-0.03221399	0	0
4.285743	0.05785641	0.4608008	-0.001567979	-0.001074422	-0.04748159	-0.03253568	0	0
4.30215	0.05785641	0.4608008	0	0	0.04732442	0.03242799	0	0
4.318766	0.05783018	0.4607828	-0.001578552	-0.001083307	-0.04780177	-0.03280474	0	0
4.335283	0.05780395	0.4607648	-0.001587806	-0.001089812	-0.0002792758	-0.0001963251	0	0
4.351851	0.05769904	0.4606929	-0.006332478	-0.004344275	-0.1434112	-0.09836853	0	0
4.368417	0.05762036	0.4606389	-0.004749745	-0.003257944	0.04776838	0.03278648	0	0
4.384984	0.05751544	0.4605309	-0.006332885	-0.0065175	-0.04778135	-0.09837784	0	0
4.40155	0.0573843	0.4604409	-0.007916391	-0.005431106	-0.04779235	0.03278885	0	0
4.418117	0.05722692	0.460333	-0.009499167	-0.006517312	-0.04776965	-0.03278271	0	0
4.434684	0.05706954	0.460225	-0.009499891	-0.006515701	-2.183974E-05	4.86405E-05	0	0
4.45125	0.05678101	0.4600271	-0.017417	-0.01194699	-0.2389493	-0.1639239	0	0
4.467817	0.05672854	0.4599911	-0.003166689	-0.002173037	0.4300878	0.2949871	0	0
4.484384	0.05670231	0.4599731	-0.001583278	-0.001084751	0.04778813	0.03284501	0	0
4.50095	0.05667608	0.4599551	-0.001583548	-0.001086581	-8.16203E-06	-5.523688E-05	0	0
4.517517	0.05664985	0.4599371	-0.001583278	-0.00108655	8.16203E-06	9.416376E-07	0	0
4.550651	0.05659739	0.4599012	-0.00158339	-0.00108565	-2.262708E-06	1.809932E-05	0	0
4.567217	0.05659739	0.4599012	0	0	0.03185909	0.02184417	0	0
4.583784	0.05657115	0.4598832	-0.001583457	-0.001086519	-0.0477902	-0.03279214	0	0
4.600353	0.05657115	0.4598832	0	0	0.04778676	0.03278978	0	0
4.616917	0.05657115	0.4598832	0	0	0	0	0	0
4.633492	0.05657115	0.4598832	0	0	0	0	0	0
4.65005	0.05657115	0.4598832	0	0	0	0	0	0
4.667013	0.05657115	0.4598832	0	0	0	0	0	0
4.683184	0.05657115	0.4598832	0	0	0	0	0	0
4.699775	0.05657115	0.4598832	0	0	0	0	0	0
4.716317	0.05654492	0.4598652	-0.001585651	-0.001088178	-0.0478571	-0.03284271	0	0
4.736648	0.05646623	0.4598112	-0.003870795	-0.002654678	-0.06197359	-0.0424838	0	0
4.753215	0.0563613	0.4597032	-0.006333378	-0.006515514	-0.06674004	-0.104635	0	0
4.769782	0.05623014	0.4596133	-0.007917288	-0.00543095	-0.04780319	0.03273266	0	0
4.786349	0.05607274	0.4595053	-0.009500243	-0.006515326	-0.04777368	-0.03272652	0	0
4.802916	0.0558891	0.4593794	-0.01108484	-0.00760247	-0.04782381	-0.03281053	0	0
4.819482	0.05567923	0.4592714	-0.01266824	-0.006515701	-0.04778943	0.03280016	0	0
4.836049	0.05515453	0.4589476	-0.03167276	-0.01954767	-0.5735822	-0.3933225	0	0
4.852644	0.04993214	0.4555841	-0.3146895	-0.2026747	-8.534463	-5.522255	0	0
4.869182	0.04284219	0.4507662	-0.4287155	-0.2913309	-3.441459	-2.675764	0	0
4.885749	0.03461774	0.4453224	-0.4964286	-0.3285909	-2.04541	-1.125514	0	0
4.90268	0.02620453	0.4397921	-0.4968964	-0.3266253	-0.0139649	0.05867537	0	0
4.918882	0.01439374	0.4326686	-0.7289719	-0.4396705	-7.004254	-3.411809	0	0
4.935448	0.004184186	0.428006	-0.6163033	-0.2814596	3.438398	4.828248	0	0
4.952015	-0.01178893	0.4235426	-0.9641668	-0.2694194	-10.49915	0.3633957	0	0
4.968582	-0.02615193	0.4222881	-0.8669526	-0.07571991	2.933973	5.845945	0	0
4.985149	-0.03664149	0.4222343	-0.633169	-0.003245258	7.055705	2.187321	0	0
5.00175	-0.05691216	0.4222702	-1.22101	0.002159568	-17.72296	0.1629515	0	0
5.018282	-0.07158798	0.4224135	-0.8877251	0.008671042	10.05884	0.1965223	0	0
5.034848	-0.08978428	0.4227361	-1.098426	0.01947267	-6.366008	0.3263554	0	0
5.051415	-0.1021954	0.4225211	-0.7491563	-0.01298103	10.54158	-0.979511	0	0
5.067982	-0.113432	0.4222702	-0.6782466	-0.0151429	2.140089	-0.06524633	0	0
5.084548	-0.1267381	0.4228615	-0.8032011	0.03569707	-3.771242	1.534397	0	0
5.101116	-0.129896	0.4231483	-0.1906139	0.01730694	18.48845	-0.5550309	0	0
5.117682	-0.1450272	0.4233992	-0.9133468	0.01514514	-21.81244	-0.06524441	0	0
5.134344	-0.1498163	0.4224315	-0.2874417	-0.05808184	18.83672	-2.203779	0	0
5.150815	-0.1551123	0.4196004	-0.3215184	-0.1718714	-1.028481	-3.434324	0	0
5.167382	-0.1575774	0.4178806	-0.1487953	-0.1038105	5.227917	2.060041	0	0
5.183949	-0.1575774	0.4178806	0	0	4.490844	3.133142	0	0
5.200515	-0.1575774	0.4178806	0	0	0	0	0	0
5.217082	-0.1575774	0.4178806	0	0	0	0	0	0
5.266782	-0.1575261	0.4178448	0.001032892	-0.0007207756	0.01558693	-0.01087692	0	0
5.283349	-0.1575004	0.4178269	0.001548829	-0.001081122	0.007785725	-0.005437794	0	0
5.299916	-0.1574491	0.4177911	0.003098646	-0.002162306	0.04677425	-0.03263067	0	0
5.316482	-0.1573977	0.4177552	0.003099635	-0.002162368	2.984429E-05	-1.876248E-06	0	0
5.333048	-0.1573721	0.4177373	0.001548918	-0.001081184	-0.04680342	0.03263208	0	0
5.349615	-0.1573721	0.4177373	0	0	-0.04674845	0.03263161	0	0
5.36619	-0.1573464	0.4177194	0.00154897	-0.001080593	0.04673725	-0.03260486	0	0
5.382749	-0.1572694	0.4176657	0.004650828	-0.00324514	0.09361695	-0.06532805	0	0
5.406093	-0.1571924	0.4176119	0.003298813	-0.002303042	-0.0338828	0.02360991	0	0
5.422661	-0.1570897	0.4175403	0.006197834	-0.004324363	0.07263492	-0.05064417	0	0
5.439228	-0.157064	0.4175224	0.001549773	-0.001081153	-0.1402788	0.09788027	0	0
5.456071	-0.157064	0.4175224	0	0	-0.04638639	0.03236009	0	0
5.472583	-0.157064	0.4175224	0	0	0	0	0	0
5.488927	-0.157064	0.4175224	0	0	0	0	0	0
5.505494	-0.157064	0.4175224	0	0	0	0	0	0
5.522061	-0.157064	0.4175224	0	0	0	0	0	0
5.538627	-0.157064	0.4175224	0	0	0	0	0	0
5.555194	-0.157064	0.4175224	0	0	0	0	0	0
5.571761	-0.157064	0.4175224	0	0	0	0	0	0
5.58833	-0.157064	0.4175224	0	0	0	0	0	0
5.604894	-0.157064	0.4175224	0	0	0	0	0	0
5.621689	-0.157064	0.4175224	0	0	0	0	0	0
5.638028	-0.157064	0.4175224	0	0	0	0	0	0
5.654595	-0.1570383	0.4175045	0.001549728	-0.001081122	0.04709553	-0.0328548	0	0
5.671161	-0.1570383	0.4175045	0	0	-0.0467729	0.03262974	0	0
5.68774	-0.156987	0.4174686	0.003097227	-0.002160689	0.09344492	-0.06518909	0	0
5.704294	-0.1569356	0.4174328	0.003101056	-0.002163988	0.0001155474	-9.956061E-05	0	0
5.72086	-0.1568843	0.417397	0.003099635	-0.002162368	-4.291037E-05	4.889983E-05	0	0
5.737427	-0.1567816	0.4173253	0.006198912	-0.004324488	0.09353907	-0.06525478	0	0
5.753994	-0.1567559	0.4173074	0.001549817	-0.001081184	-0.140314	0.09788592	0	0
5.770793	-0.1566789	0.4172537	0.004584918	-0.003200307	0.09096464	-0.06351195	0	0
5.787306	-0.1566532	0.4172358	0.00155483	-0.001084681	-0.09096	0.0635088	0	0
5.803694	-0.1566019	0.4171999	0.003133365	-0.0021859	0.04797863	-0.03347087	0	0
5.820261	-0.1565762	0.417182	0.001549773	-0.001081153	-0.04805364	0.0335232	0	0
5.83684	-0.1565505	0.4171641	0.001548569	-0.001080313	-3.630518E-05	2.532968E-05	0	0
5.853394	-0.1565505	0.4171641	0	0	-0.04673793	0.03260533	0	0
5.86996	-0.1565505	0.4171641	0	0	0	0	0	0
5.886527	-0.1565505	0.4171641	0	0	0	0	0	0
5.903094	-0.1565505	0.4171641	0	0	0	0	0	0
5.985927	-0.1565762	0.417182	-0.0003099581	0.0002162331	-0.003118289	0.002175382	0	0
6.002494	-0.1565762	0.417182	0	0	0.003118304	-0.002175393	0	0
6.01906	-0.1565762	0.417182	0	0	0	0	0	0
6.035627	-0.1566019	0.4171999	-0.001549773	0.001081153	-0.04677425	0.03263067	0	0
6.052194	-0.1566276	0.4172179	-0.001549773	0.001081153	0	0	0	0
6.06876	-0.1566276	0.4172179	0	0	0.04677358	-0.0326302	0	0
6.085327	-0.1566276	0.4172179	0	0	0	0	0	0
6.106466	-0.1566019	0.4171999	0.00121453	-0.0008472808	0.03221061	-0.02247078	0	0
6.123045	-0.1566019	0.4171999	0	0	-0.03220002	0.02246339	0	0
6.139601	-0.1566019	0.4171999	0	0	0	0	0	0
6.156168	-0.1565762	0.417182	0.001549773	-0.001081153	0.04678906	-0.03264101	0	0
6.172734	-0.1565762	0.417182	0	0	-0.04677425	0.03263067	0	0
6.189301	-0.1565762	0.417182	0	0	0	0	0	0
6.205866	-0.1565505	0.4171641	0.001549862	-0.001081215	0.04677762	-0.03263302	0	0
6.222613	-0.1565505	0.4171641	0	0	-0.04652452	0.03245645	0	0
6.272147	-0.1565505	0.4171641	0	0	0	0	0	0
6.288701	-0.1565505	0.4171641	0	0	0	0	0	0
6.305267	-0.1565505	0.4171641	0	0	0	0	0	0
6.321834	-0.1565505	0.4171641	0	0	0	0	0	0
6.338401	-0.1565505	0.4171641	0	0	0	0	0	0
6.354967	-0.1565762	0.417182	-0.001549862	0.001081215	-0.04677694	0.03263255	0	0
6.371534	-0.1565762	0.417182	0	0	0.04677627	-0.03263208	0	0
6.3881	-0.1565762	0.417182	0	0	0	0	0	0
6.404741	-0.1565762	0.417182	0	0	0	0	0	0
6.421233	-0.1565762	0.417182	0	0	0	0	0	0
6.437799	-0.1565762	0.417182	0	0	0	0	0	0
6.454366	-0.1565762	0.417182	0	0	0	0	0	0
6.470933	-0.1565762	0.417182	0	0	0	0	0	0
6.4875	-0.1565762	0.417182	0	0	0	0	0	0
6.504312	-0.1565762	0.417182	0	0	0	0	0	0
6.520823	-0.1565762	0.417182	0	0	0	0	0	0
6.537199	-0.1565762	0.417182	0	0	0	0	0	0
6.553766	-0.1565762	0.417182	0	0	0	0	0	0
6.570333	-0.1565762	0.417182	0	0	0	0	0	0
6.5869	-0.1565762	0.417182	0	0	0	0	0	0
6.620033	-0.1565762	0.417182	0	0	0	0	0	0
6.6366	-0.1565762	0.417182	0	0	0	0	0	0
6.653418	-0.1565762	0.417182	0	0	0	0	0	0
6.669733	-0.1565762	0.417182	0	0	0	0	0	0
6.6863	-0.1565762	0.417182	0	0	0	0	0	0
6.702952	-0.1565762	0.417182	0	0	0	0	0	0
6.719463	-0.1566019	0.4171999	-0.001555009	0.001084806	-0.04688911	0.0327108	0	0
6.736	-0.1566276	0.4172179	-0.001552633	0.001083148	7.191589E-05	-5.016675E-05	0	0
6.752568	-0.1566276	0.4172179	0	0	0.04690107	-0.03271914	0	0
6.774313	-0.1566276	0.4172179	0	0	0	0	0	0
6.790881	-0.1566276	0.4172179	0	0	0	0	0	0
6.807449	-0.1566276	0.4172179	0	0	0	0	0	0
6.824015	-0.1566276	0.4172179	0	0	0	0	0	0
6.840602	-0.1566019	0.4171999	0.001547812	-0.001079786	0.04668687	-0.03256971	0	0
6.857147	-0.1566019	0.4171999	0	0	-0.04671576	0.03258987	0	0
6.873714	-0.1565762	0.417182	0.001549728	-0.001081122	0.04680254	-0.03265041	0	0
6.890286	-0.1565762	0.417182	0	0	-0.04676415	0.03262363	0	0
6.906848	-0.1565762	0.417182	0	0	0	0	0	0
6.923611	-0.1565762	0.417182	0	0	0	0	0	0
6.940121	-0.1565762	0.417182	0	0	0	0	0	0
6.956634	-0.1565762	0.417182	0	0	0	0	0	0
6.973144	-0.1565762	0.417182	0	0	0	0	0	0
6.989683	-0.1565762	0.417182	0	0	0	0	0	0
7.006248	-0.1565762	0.417182	0	0	0	0	0	0
7.022815	-0.1566019	0.4171999	-0.001549728	0.001081122	-0.04677425	0.03263067	0	0
7.039382	-0.1566019	0.4171999	0	0	0.04677088	-0.03262833	0	0
7.056205	-0.1566019	0.4171999	0	0	0	0	0	0
7.113379	-0.1566019	0.4171999	0	0	0	0	0	0
7.129961	-0.1566276	0.4172179	-0.001548391	0.001080189	-0.02099336	0.0146454	0	0
7.146513	-0.1566276	0.4172179	0	0	0.04673121	-0.03260064	0	0
7.196214	-0.1566276	0.4172179	0	0	0	0	0	0
7.212814	-0.1566276	0.4172179	0	0	0	0	0	0
7.229347	-0.1566276	0.4172179	0	0	0	0	0	0
7.245914	-0.1566276	0.4172179	0	0	0	0	0	0
7.262848	-0.1566276	0.4172179	0	0	0	0	0	0
7.279047	-0.1566276	0.4172179	0	0	0	0	0	0
7.295614	-0.1566276	0.4172179	0	0	0	0	0	0
7.312181	-0.1566276	0.4172179	0	0	0	0	0	0
7.338682	-0.1566532	0.4172358	-0.0009688135	0.0006758641	-0.02249526	0.01569315	0	0
7.355414	-0.1566532	0.4172358	0	0	0.02240867	-0.01563274	0	0
7.371925	-0.1566532	0.4172358	0	0	0	0	0	0
7.388382	-0.1566532	0.4172358	0	0	0	0	0	0
7.404949	-0.1566532	0.4172358	0	0	0	0	0	0
7.421516	-0.1566532	0.4172358	0	0	0	0	0	0
7.438082	-0.1566532	0.4172358	0	0	0	0	0	0
7.459321	-0.1566276	0.4172179	0.001208858	-0.0008433241	0.03197607	-0.02230716	0	0
7.475888	-0.1566276	0.4172179	0	0	-0.03197527	0.0223066	0	0
7.492455	-0.1566276	0.4172179	0	0	0	0	0	0
7.509022	-0.1566276	0.4172179	0	0	0	0	0	0
7.525589	-0.1566276	0.4172179	0	0	0	0	0	0
7.542156	-0.1566276	0.4172179	0	0	0	0	0	0
7.558722	-0.1566276	0.4172179	0	0	0	0	0	0
7.575289	-0.1566276	0.4172179	0	0	0	0	0	0
7.592082	-0.1566276	0.4172179	0	0	0	0	0	0
7.608593	-0.1566276	0.4172179	0	0	0	0	0	0
7.624989	-0.1566276	0.4172179	0	0	0	0	0	0
7.641556	-0.1566276	0.4172179	0	0	0	0	0	0
7.658134	-0.1566276	0.4172179	0	0	0	0	0	0
7.674688	-0.1566276	0.4172179	0	0	0	0	0	0
7.691257	-0.1566276	0.4172179	0	0	0	0	0	0
7.72439	-0.1566276	0.4172179	0	0	0	0	0	0
7.740956	-0.1566276	0.4172179	0	0	0	0	0	0
7.757699	-0.1566276	0.4172179	0	0	0	0	0	0
7.774212	-0.1566276	0.4172179	0	0	0	0	0	0
7.790655	-0.1566019	0.4171999	0.001561458	-0.001089305	0.0473799	-0.03305319	0	0
7.807222	-0.1566019	0.4171999	0	0	-0.04730324	0.03299971	0	0
7.823789	-0.1566019	0.4171999	0	0	0	0	0	0
7.840356	-0.1566019	0.4171999	0	0	0	0	0	0
7.85727	-0.1566019	0.4171999	0	0	0	0	0	0
7.873782	-0.1566019	0.4171999	0	0	0	0	0	0
7.890057	-0.1566019	0.4171999	0	0	0	0	0	0
7.906806	-0.1566019	0.4171999	0	0	0	0	0	0
7.923318	-0.1566019	0.4171999	0	0	0	0	0	0
7.939756	-0.1566019	0.4171999	0	0	0	0	0	0
7.956339	-0.1566019	0.4171999	0	0	0	0	0	0
7.972889	-0.1566019	0.4171999	0	0	0	0	0	0
7.989456	-0.1566019	0.4171999	0	0	0	0	0	0
8.006377	-0.1566019	0.4171999	0	0	0	0	0	0
8.022589	-0.1566019	0.4171999	0	0	0	0	0	0
8.055907	-0.1566019	0.4171999	0	0	0	0	0	0
8.072289	-0.1566019	0.4171999	0	0	0	0	0	0
8.088935	-0.1566019	0.4171999	0	0	0	0	0	0
8.105445	-0.1566019	0.4171999	0	0	0	0	0	0
8.126427	-0.1566019	0.4171999	0	0	0	0	0	0
8.142994	-0.1566019	0.4171999	0	0	0	0	0	0
8.15956	-0.1566019	0.4171999	0	0	0	0	0	0
8.176494	-0.1566019	0.4171999	0	0	0	0	0	0
8.192694	-0.1566019	0.4171999	0	0	0	0	0	0
8.209261	-0.1566019	0.4171999	0	0	0	0	0	0
8.225826	-0.1566019	0.4171999	0	0	0	0	0	0
8.242393	-0.1566019	0.4171999	0	0	0	0	0	0
8.25905	-0.1566019	0.4171999	0	0	0	0	0	0
8.275571	-0.1566019	0.4171999	0	0	0	0	0	0
8.292094	-0.1566276	0.4172179	-0.001553842	0.001083992	-0.04702364	0.03280465	0	0
8.308661	-0.1566276	0.4172179	0	0	0.04695858	-0.03275927	0	0
8.325227	-0.1566276	0.4172179	0	0	0	0	0	0
8.341793	-0.1566276	0.4172179	0	0	0	0	0	0
8.35836	-0.1566276	0.4172179	0	0	0	0	0	0
8.374927	-0.1566276	0.4172179	0	0	0	0	0	0
8.391493	-0.1566276	0.4172179	0	0	0	0	0	0
8.408155	-0.1566276	0.4172179	0	0	0	0	0	0
8.424667	-0.1566276	0.4172179	0	0	0	0	0	0
8.441203	-0.1566276	0.4172179	0	0	0	0	0	0
8.457761	-0.1566019	0.4171999	0.001550621	-0.001081745	0.04685581	-0.03268757	0	0
8.474328	-0.1566019	0.4171999	0	0	-0.0468113	0.03265651	0	0
8.490894	-0.1566019	0.4171999	0	0	0	0	0	0
8.507731	-0.1566019	0.4171999	0	0	0	0	0	0
8.524239	-0.1566276	0.417182	-0.001555369	-0.001085057	-0.04664575	-0.03254103	0	0
8.540595	-0.1566276	0.417182	0	0	0.04732798	0.03301696	0	0
8.557262	-0.1566019	0.4171641	0.001540417	-0.001074627	0.04664563	-0.03254094	0	0
8.573729	-0.1566019	0.4171641	0	0	-0.04649123	0.03243323	0	0
8.590298	-0.1566019	0.4171641	0	0	0	0	0	0
8.606864	-0.1566019	0.4171641	0	0	0	0	0	0
8.623427	-0.1566019	0.4171641	0	0	0	0	0	0
8.640322	-0.1566019	0.4171641	0	0	0	0	0	0
8.656561	-0.1566019	0.4171641	0	0	0	0	0	0
8.673127	-0.1566019	0.4171641	0	0	0	0	0	0
8.689854	-0.1566019	0.4171641	0	0	0	0	0	0
8.706369	-0.1566019	0.4171641	0	0	0	0	0	0
8.742635	-0.1566019	0.4171641	0	0	0	0	0	0
8.759201	-0.1566019	0.4171641	0	0	0	0	0	0
8.775767	-0.1566019	0.4171641	0	0	0	0	0	0
8.792426	-0.1565762	0.4171462	0.001541211	-0.00107518	0.04638701	-0.03236052	0	0
8.808901	-0.1565762	0.4171462	0	0	-0.04651518	0.03244994	0	0
8.825467	-0.1566019	0.4171283	-0.001549817	-0.001081184	-0.04690588	-0.0327225	0	0
8.842462	-0.1566019	0.4171283	0	0	0.04617945	0.03221573	0	0
8.858602	-0.1566019	0.4171283	0	0	0	0	0	0
8.875168	-0.1566019	0.4171283	0	0	0	0	0	0
8.891734	-0.1566019	0.4171283	0	0	0	0	0	0
8.974567	-0.1566019	0.4171283	0	0	0	0	0	0
8.991134	-0.1566019	0.4171283	0	0	0	0	0	0
9.0077	-0.1566019	0.4171283	0	0	0	0	0	0
9.024589	-0.1566019	0.4171283	0	0	0	0	0	0
9.040833	-0.1566019	0.4171283	0	0	0	0	0	0
9.0574	-0.1566019	0.4171283	0	0	0	0	0	0
9.073966	-0.1566019	0.4171283	0	0	0	0	0	0
9.090532	-0.1566019	0.4171283	0	0	0	0	0	0
9.1071	-0.1566019	0.4171283	0	0	0	0	0	0
9.123665	-0.1566019	0.4171283	0	0	0	0	0	0
9.140232	-0.1566019	0.4171283	0	0	0	0	0	0
9.156798	-0.1566019	0.4171283	0	0	0	0	0	0
9.173365	-0.1566019	0.4171283	0	0	0	0	0	0
9.189932	-0.1566019	0.4171283	0	0	0	0	0	0
9.206498	-0.1566019	0.4171283	0	0	0	0	0	0
9.223064	-0.1566019	0.4171283	0	0	0	0	0	0
9.239631	-0.1566019	0.4171283	0	0	0	0	0	0
9.256252	-0.1566019	0.4171283	0	0	0	0	0	0
9.272765	-0.1566019	0.4171283	0	0	0	0	0	0
9.305899	-0.1566019	0.4171283	0	0	0	0	0	0
9.3228	-0.1566019	0.4171283	0	0	0	0	0	0
9.339033	-0.1566019	0.4171283	0	0	0	0	0	0
9.355598	-0.1566019	0.4171283	0	0	0	0	0	0
9.372166	-0.1566019	0.4171283	0	0	0	0	0	0
9.388732	-0.1566019	0.4171283	0	0	0	0	0	0
9.405297	-0.1566019	0.4171283	0	0	0	0	0	0
9.441715	-0.1566019	0.4171283	0	0	0	0	0	0
9.458282	-0.1566019	0.4171283	0	0	0	0	0	0
9.474849	-0.1566019	0.4171283	0	0	0	0	0	0
9.491418	-0.1565762	0.4171104	0.00154955	-0.001080998	0.04676415	-0.03262363	0	0
9.507982	-0.1565762	0.4171104	0	0	-0.04676685	0.03262551	0	0
9.524549	-0.1565762	0.4171104	0	0	0	0	0	0
9.541115	-0.1565762	0.4171104	0	0	0	0	0	0
9.557681	-0.1566019	0.4170925	-0.001549817	-0.001081184	-0.04677627	-0.03263208	0	0
9.574247	-0.1566019	0.4170925	0	0	0.04677627	0.03263208	0	0
9.590816	-0.1566019	0.4170925	0	0	0	0	0	0
9.623947	-0.1566019	0.4170925	0	0	0	0	0	0
9.640521	-0.1566019	0.4170925	0	0	0	0	0	0
9.657532	-0.1566019	0.4170925	0	0	0	0	0	0
9.673648	-0.1566019	0.4170925	0	0	0	0	0	0
9.690216	-0.1566019	0.4170925	0	0	0	0	0	0
9.706782	-0.1566019	0.4170925	0	0	0	0	0	0
9.723348	-0.1566019	0.4170925	0	0	0	0	0	0
9.739916	-0.1566019	0.4170925	0	0	0	0	0	0
9.806182	-0.1566019	0.4170925	0	0	0	0	0	0
9.822747	-0.1566019	0.4170925	0	0	0	0	0	0
9.839663	-0.1566019	0.4170925	0	0	0	0	0	0
9.855881	-0.1566019	0.4170925	0	0	0	0	0	0
9.872447	-0.1566019	0.4170925	0	0	0	0	0	0
9.889015	-0.1566019	0.4170925	0	0	0	0	0	0
9.905582	-0.1566019	0.4170925	0	0	0	0	0	0
9.922147	-0.1566019	0.4170925	0	0	0	0	0	0
9.93873	-0.1566019	0.4170925	0	0	0	0	0	0
9.955279	-0.1566019	0.4170925	0	0	0	0	0	0
9.971846	-0.1566019	0.4170925	0	0	0	0	0	0
9.988413	-0.1566019	0.4170925	0	0	0	0	0	0
10.00498	-0.1566019	0.4170925	0	0	0	0	0	0
10.02155	-0.1566019	0.4170925	0	0	0	0	0	0
10.0383	-0.1566019	0.4170925	0	0	0	0	0	0
10.05468	-0.1566019	0.4170925	0	0	0	0	0	0
10.07124	-0.1566019	0.4170925	0	0	0	0	0	0
10.08783	-0.1566019	0.4170925	0	0	0	0	0	0
10.10438	-0.1566019	0.4170925	0	0	0	0	0	0
10.12094	-0.1566019	0.4170925	0	0	0	0	0	0
10.13751	-0.1566019	0.4170925	0	0	0	0	0	0
10.15834	-0.1566019	0.4170925	0	0	0	0	0	0
10.17491	-0.1566019	0.4170925	0	0	0	0	0	0
10.19148	-0.1566019	0.4170925	0	0	0	0	0	0
10.20804	-0.1566019	0.4170925	0	0	0	0	0	0
10.22461	-0.1566019	0.4170925	0	0	0	0	0	0
10.24118	-0.1566019	0.4170925	0	0	0	0	0	0
10.25795	-0.1566019	0.4170925	0	0	0	0	0	0
10.27446	-0.1566019	0.4170925	0	0	0	0	0	0
10.29088	-0.1566019	0.4170925	0	0	0	0	0	0
10.30744	-0.1566019	0.4170925	0	0	0	0	0	0
10.32401	-0.1566019	0.4170925	0	0	0	0	0	0
10.34101	-0.1566019	0.4170925	0	0	0	0	0	0
10.35714	-0.1566276	0.4170746	-0.001591315	-0.001110134	-0.04802738	-0.03350488	0	0
10.37371	-0.1566276	0.4170746	0	0	0.04866328	0.0339485	0	0
10.39028	-0.1566019	0.4170566	0.001549728	-0.001081122	0.04677223	-0.03262927	0	0
10.40684	-0.1565762	0.4170029	0.001549817	-0.003243553	2.694872E-06	-0.06526416	0	0
10.42341	-0.1563708	0.4168596	0.01239944	-0.008649473	0.327461	-0.1631604	0	0
10.43997	-0.154727	0.4156775	0.09921947	-0.07135225	2.620309	-1.892428	0	0
10.45654	-0.1527739	0.414209	0.1178958	-0.08864631	0.5636704	-0.5219507	0	0
10.47311	-0.150974	0.4109859	0.1086509	-0.1945556	-0.2790287	-3.196532	0	0
10.48967	-0.1515655	0.4064212	-0.03570491	-0.2755242	-4.356792	-2.443708	0	0
10.50624	-0.1551123	0.3931468	-0.2141006	-0.8012942	-5.384146	-15.86823	0	0
10.52281	-0.1586553	0.3755574	-0.2138631	-1.061757	0.007167118	-7.861234	0	0
10.62221	-0.1767161	0.2719271	-0.1817017	-1.042574	0.2773376	0.1654242	0	0
10.63878	-0.1809718	0.2664673	-0.2568273	-0.3294928	-0.6478098	6.148907	0	0
10.65534	-0.1919241	0.2589993	-0.6611933	-0.4508499	-12.20379	-3.662565	0	0
10.67224	-0.2024511	0.2514014	-0.6229367	-0.4496014	1.143234	0.0373087	0	0
10.68875	-0.2081009	0.2472779	-0.3421258	-0.2496995	8.404258	5.982771	0	0
10.70527	-0.2195353	0.2383265	-0.6924142	-0.5420592	-10.60591	-8.851967	0	0
10.72228	-0.2267681	0.2250552	-0.4251889	-0.7801699	7.971042	-7.102585	0	0
10.73829	-0.2281419	0.2116568	-0.08580627	-0.8368617	10.27779	-1.716843	0	0
10.7548	-0.2285913	0.197209	-0.0272201	-0.8750948	1.801526	-1.175667	0	0
10.77131	-0.2292153	0.1820647	-0.03778967	-0.9171212	-0.320068	-1.272645	0	0
10.78787	-0.2300886	0.1676835	-0.05273235	-0.8683509	-0.4517903	1.474565	0	0
10.80444	-0.2316597	0.150473	-0.09483568	-1.038888	-1.270937	-5.147843	0	0
10.821	-0.2330552	0.1397473	-0.08424062	-0.6474413	0.3197782	11.81455	0	0
10.83786	-0.2359431	0.1314797	-0.1713692	-0.4906215	-2.607258	4.692718	0	0
10.87088	-0.2437647	0.1226695	-0.2368541	-0.2667881	-1.312999	4.48795	0	0
10.88727	-0.2515313	0.1168607	-0.4737841	-0.3543536	-4.794641	-1.772023	0	0
10.9039	-0.2545652	0.1146121	-0.1824374	-0.1352143	8.822571	6.635983	0	0
10.92446	-0.2624359	0.1086106	-0.3828292	-0.2919095	-5.388398	-4.213426	0	0
10.94103	-0.2665794	0.1051857	-0.2500971	-0.2067295	3.575125	2.294315	0	0
10.9576	-0.2729355	0.1000894	-0.3836562	-0.3076102	-4.03082	-3.044586	0	0
10.97416	-0.2782962	0.09579543	-0.3235907	-0.2592022	1.812832	1.460998	0	0
10.99073	-0.2834707	0.09151571	-0.3123363	-0.2583243	0.3396682	0.02649724	0	0
11.00748	-0.2897901	0.08645926	-0.3773544	-0.3019407	-1.95169	-1.309262	0	0
11.02399	-0.294496	0.08261244	-0.2850024	-0.2329721	2.7768	2.073715	0	0
11.04043	-0.2968319	0.08064169	-0.1420751	-0.1198657	4.337272	3.43233	0	0
11.057	-0.3001735	0.07597826	-0.2017065	-0.281501	-1.806595	-4.896908	0	0
11.07359	-0.2961339	0.07265727	0.2434077	-0.2001099	13.42237	2.454339	0	0
11.09013	-0.2895243	0.06759688	0.3996493	-0.3059741	4.715381	-3.194989	0	0
11.1067	-0.284465	0.06373275	0.3053977	-0.2332529	-2.847061	2.196692	0	0
11.12326	-0.2781259	0.05890201	0.382651	-0.2916011	2.331645	-1.761054	0	0
11.13983	-0.2735943	0.05545583	0.2735432	-0.2080238	-3.293071	2.522512	0	0
11.1991	-0.2567083	0.04266349	0.2848807	-0.215818	0.1494922	-0.1027709	0	0
11.21567	-0.2513832	0.03864426	0.3214093	-0.2425873	0.4816416	-0.352962	0	0
11.23224	-0.2475281	0.03573879	0.2327037	-0.1753846	-2.677139	2.028182	0	0
11.2488	-0.2426243	0.03204778	0.2960097	-0.2228026	1.910687	-1.431162	0	0
11.28217	-0.2381063	0.02865175	0.1354118	-0.1017836	-3.216363	2.423701	0	0
11.2985	-0.2334538	0.02515909	0.284826	-0.2138205	3.006336	-2.254275	0	0
11.31507	-0.2300637	0.02261683	0.2046397	-0.1534597	-2.437213	1.834632	0	0
11.3317	-0.226968	0.02029731	0.186107	-0.1394449	-0.5582106	0.4221299	0	0
11.3482	-0.2267931	0.02016632	0.0106	-0.007938712	-5.296964	3.968977	0	0
11.36477	-0.2267931	0.02016632	0	0	-0.320573	0.2400883	0	0
11.38134	-0.2267931	0.02016632	0	0	0	0	0	0
11.41447	-0.2267931	0.02016632	0	0	0	0	0	0
11.43104	-0.2267931	0.02016632	0	0	0	0	0	0
11.4476	-0.2267931	0.02016632	0	0	0	0	0	0
11.46417	-0.2267931	0.02016632	0	0	0	0	0	0
11.48073	-0.2267931	0.02016632	0	0	0	0	0	0
11.49732	-0.2267931	0.02016632	0	0	0	0	0	0
11.51387	-0.2267931	0.02016632	0	0	0	0	0	0
11.53084	-0.2267931	0.02016632	0	0	0	0	0	0
11.547	-0.2267931	0.02016632	0	0	0	0	0	0
11.56357	-0.2267931	0.02016632	0	0	0	0	0	0
11.58013	-0.2267931	0.02016632	0	0	0	0	0	0
11.5967	-0.2267931	0.02016632	0	0	0	0	0	0
11.61759	-0.2267931	0.02016632	0	0	0	0	0	0
11.63416	-0.2267931	0.02016632	0	0	0	0	0	0
11.65093	-0.2267931	0.02016632	0	0	0	0	0	0
11.66744	-0.2267681	0.02014761	0.001513407	-0.001133363	0.04547445	-0.034055	0	0
11.68395	-0.2267681	0.02014761	0	0	-0.04582771	0.03431955	0	0
11.70043	-0.2267431	0.0201289	0.001515919	-0.001135809	0.04595554	-0.03443238	0	0
11.71699	-0.2267181	0.02011019	0.001508441	-0.001129532	-0.00022633	0.000189976	0	0
11.73356	-0.2266432	0.02005405	0.004525322	-0.00338882	0.09105491	-0.06818938	0	0
11.75012	-0.2261184	0.01966104	0.03167816	-0.02372297	0.8195213	-0.6137213	0	0
11.76669	-0.2245682	0.0185005	0.09356561	-0.07005043	1.867821	-1.398205	0	0
11.78326	-0.2219405	0.01653419	0.1586175	-0.1186937	1.963325	-1.468099	0	0
11.79982	-0.2202371	0.01526018	0.1028181	-0.07689952	-1.684076	1.261387	0	0
11.81639	-0.2201118	0.01516648	0.007563792	-0.00565581	-2.874864	2.150201	0	0
11.83296	-0.2200868	0.01514774	0.001512938	-0.001131162	-0.1826256	0.136562	0	0
11.84952	-0.2200868	0.01514774	0	0	-0.04566188	0.03413952	0	0
11.86609	-0.2200868	0.01514774	0	0	0	0	0	0
11.88266	-0.2200868	0.01514774	0	0	0	0	0	0
11.89922	-0.2200868	0.01514774	0	0	0	0	0	0
11.91579	-0.2200868	0.01514774	0	0	0	0	0	0
11.93262	-0.2200868	0.01514774	0	0	0	0	0	0
11.94892	-0.2200868	0.01514774	0	0	0	0	0	0
11.96549	-0.2200868	0.01514774	0	0	0	0	0	0
11.98206	-0.2200868	0.01514774	0	0	0	0	0	0
11.99867	-0.2200868	0.01514774	0	0	0	0	0	0
12.01519	-0.2200868	0.01514774	0	0	0	0	0	0
12.03175	-0.2200868	0.01514774	0	0	0	0	0	0
12.04832	-0.2200868	0.01514774	0	0	0	0	0	0
12.06489	-0.2200617	0.015129	0.001512938	-0.001131218	0.04566188	-0.03414121	0	0
12.08145	-0.2200617	0.015129	0	0	-0.04566319	0.0341422	0	0
12.09802	-0.2200617	0.015129	0	0	0	0	0	0
12.11459	-0.2200617	0.015129	0	0	0	0	0	0
12.13115	-0.2200617	0.015129	0	0	0	0	0	0
12.16429	-0.2200366	0.01511026	0.0007564473	-0.0005655647	0.01522033	-0.01137962	0	0
12.18085	-0.2200366	0.01511026	0	0	-0.01522033	0.01137962	0	0
12.19742	-0.2200366	0.01511026	0	0	0	0	0	0
12.21399	-0.2200366	0.01511026	0	0	0	0	0	0
12.23378	-0.2200366	0.01511026	0	0	0	0	0	0
12.25035	-0.2200366	0.01511026	0	0	0	0	0	0
12.26692	-0.2200617	0.015129	-0.001512938	0.001131162	-0.04566188	0.03413952	0	0
12.28348	-0.2200868	0.01514774	-0.001512938	0.001131218	0	1.69708E-06	0	0
12.30038	-0.220187	0.0152227	-0.005933689	0.004437036	-0.1321218	0.09880009	0	0
12.31662	-0.2208385	0.0158223	-0.04011539	0.03692093	-1.031635	0.9803941	0	0
12.33318	-0.2218905	0.01687135	-0.06350113	0.0633245	-0.7128408	0.8048298	0	0
12.34975	-0.2237177	0.01909954	-0.1102997	0.1345015	-1.412464	2.14825	0	0
12.36643	-0.2265682	0.02201839	-0.1709438	0.1750437	-1.824364	1.219633	0	0
12.39945	-0.2380815	0.03665165	-0.3486144	0.4430864	-3.574807	5.393135	0	0
12.41602	-0.2417811	0.04979827	-0.2233221	0.7935773	2.52646	7.067484	0	0
12.43258	-0.2432194	0.07226965	-0.08682124	1.356453	4.119841	16.9886	0	0
12.44915	-0.2434425	0.09698862	-0.01346713	1.492126	2.213959	4.094849	0	0
12.46572	-0.2428227	0.1157274	0.03740934	1.131075	1.535499	-10.89686	0	0
12.48228	-0.2421035	0.1282711	0.04341107	0.7571824	0.181138	-11.28442	0	0
12.49885	-0.2401183	0.1524705	0.119836	1.460762	2.306643	21.23529	0	0
12.51553	-0.2377086	0.1703994	0.1444756	1.074952	0.7411501	-11.605	0	0
12.53198	-0.2341262	0.1942152	0.2177149	1.447355	2.210429	11.23944	0	0
12.54855	-0.2297892	0.2172345	0.2617498	1.38929	1.333426	-1.758252	0	0
12.56512	-0.2272428	0.2281996	0.1536869	0.6617773	-3.260969	-21.95386	0	0
12.58168	-0.2190841	0.2540361	0.4926009	1.559945	10.22933	27.10909	0	0
12.59825	-0.2171526	0.2589993	0.1165688	0.2995424	-11.34965	-38.0423	0	0
12.61482	-0.2066141	0.2835741	0.6361437	1.483422	15.68035	35.72854	0	0
12.63138	-0.200228	0.2992887	0.3855351	0.9487035	-7.564254	-16.13971	0	0
12.64812	-0.1940279	0.3161725	0.3703976	1.008656	-0.4545358	1.80021	0	0
12.66452	-0.1867712	0.3400676	0.4426281	1.457494	2.179982	13.54634	0	0
12.68108	-0.1830335	0.3590509	0.2256185	1.145902	-6.58385	-9.453381	0	0
12.69765	-0.180004	0.3791493	0.182873	1.213207	-1.290134	2.031389	0	0
12.71422	-0.1770477	0.4073341	0.1784565	1.701336	-0.1332978	14.7326	0	0
12.73078	-0.1752366	0.4290997	0.109321	1.313853	-2.086634	-11.69494	0	0
12.74735	-0.1731691	0.4570588	0.1247976	1.687617	0.4670981	11.28055	0	0
12.76392	-0.1718921	0.4748499	0.07707985	1.073872	-1.440125	-18.52285	0	0
12.78048	-0.1710489	0.4882956	0.05089481	0.8116293	-0.7902889	-7.914742	0	0
12.79705	-0.1696431	0.4970645	0.08485767	0.5293215	1.02506	-8.520556	0	0
12.81374	-0.1671111	0.5010284	0.151711	0.2374954	2.010231	-8.775002	0	0
12.83018	-0.1660618	0.5007568	0.0638122	-0.0165149	-2.652866	-7.666265	0	0
12.84675	-0.1657802	0.5005576	0.01699664	-0.01202366	-1.418203	0.1360552	0	0
12.86334	-0.1654218	0.500268	0.02160711	-0.01746033	0.1390603	-0.1639799	0	0
12.87988	-0.1631936	0.498657	0.1346659	-0.09736491	3.412219	-2.411594	0	0
12.8968	-0.1609124	0.496974	0.1348491	-0.09948627	0.005474628	-0.06339507	0	0
12.93312	-0.1529024	0.4911147	0.2205698	-0.1613463	1.610346	-1.1621	0	0
12.94968	-0.1507682	0.4896147	0.1288309	-0.09054963	-1.73481	1.338786	0	0
12.96635	-0.1478088	0.4868504	0.1775539	-0.1658465	1.466074	-2.265683	0	0
12.98281	-0.1464183	0.4854056	0.08444703	-0.08774651	-2.810051	2.357131	0	0
12.99938	-0.143352	0.4827515	0.185093	-0.1602096	3.046884	-2.193695	0	0
13.01595	-0.1430427	0.4808745	0.01867426	-0.1133049	-5.022816	1.415668	0	0
13.03251	-0.1450272	0.4793047	-0.1197887	-0.09475197	-4.17894	0.5599435	0	0
13.04908	-0.1442026	0.4787274	0.04977675	-0.03484795	5.117641	1.807959	0	0
13.06595	-0.1433005	0.478096	0.05348989	-0.03743639	0.1110656	-0.07742389	0	0
13.08221	-0.1340595	0.4714973	0.5680528	-0.4056326	15.52998	-11.1125	0	0
13.11535	-0.122126	0.4607109	0.3601735	-0.3255534	-4.208054	1.621027	0	0
13.13191	-0.1222297	0.4499575	-0.006259624	-0.6490743	-7.372932	-6.509504	0	0
13.14848	-0.1244068	0.4390741	-0.1314161	-0.6569588	-3.777337	-0.2379616	0	0
13.16505	-0.1259612	0.4322919	-0.09382556	-0.4094	1.134549	7.47177	0	0
13.182	-0.1273854	0.4262849	-0.08401041	-0.3543202	0.2928167	1.643205	0	0
13.19818	-0.1287833	0.4184718	-0.08638921	-0.4828601	-0.07179207	-3.879343	0	0
13.21475	-0.129068	0.4112545	-0.01718471	-0.4356633	2.113291	1.441246	0	0
13.24788	-0.129275	0.4012676	-0.006248561	-0.3014132	0.2200442	2.701219	0	0
13.26445	-0.1284468	0.3936118	0.04998777	-0.4620802	1.131477	-3.232625	0	0
13.28107	-0.1304911	0.3914838	-0.1229901	-0.1280266	-5.211781	10.06496	0	0
13.29758	-0.130905	0.3912334	-0.02506587	-0.01516027	2.955358	3.406312	0	0
13.31415	-0.130905	0.3912334	0	0	0.7577983	0.4583292	0	0
13.33071	-0.1308791	0.3912155	0.001561511	-0.001079385	0.04713191	-0.03257966	0	0
13.34762	-0.1308791	0.3912155	0	0	-0.04665515	0.0322501	0	0
13.36385	-0.1308791	0.3912155	0	0	0	0	0	0
13.38065	-0.1308791	0.3912155	0	0	0	0	0	0
13.41355	-0.130905	0.3912334	-0.0007862091	0.0005434625	-0.01581917	0.01093491	0	0
13.43011	-0.130905	0.3912334	0	0	0.01589297	-0.01098592	0	0
13.44669	-0.1308791	0.3912155	0.001560792	-0.001078888	0.04709665	-0.03255529	0	0
13.46325	-0.1308791	0.3912155	0	0	-0.04710614	0.03256185	0	0
13.47981	-0.1308791	0.3912155	0	0	0	0	0	0
13.49672	-0.1308791	0.3912155	0	0	0	0	0	0
13.51295	-0.1308791	0.3912155	0	0	0	0	0	0
13.52975	-0.1308791	0.3912155	0	0	0	0	0	0
13.54626	-0.1308791	0.3912155	0	0	0	0	0	0
13.56277	-0.1308533	0.3911977	0.00156647	-0.001082814	0.04743317	-0.0327879	0	0
13.57928	-0.1308791	0.3911798	-0.001566742	-0.001083001	-0.09487456	-5.682444E-06	0	0
13.59893	-0.1308791	0.3911798	0	0	0.04332405	0.0299475	0	0
13.6155	-0.1308791	0.3911798	0	0	0	0	0	0
13.63207	-0.1308791	0.3911798	0	0	0	0	0	0
13.64883	-0.1308791	0.3911798	0	0	0	0	0	0
13.66534	-0.1308791	0.3911798	0	0	0	0	0	0
13.68185	-0.1308791	0.3911798	0	0	0	0	0	0
13.69833	-0.1308791	0.3911798	0	0	0	0	0	0
13.7149	-0.1308791	0.3911798	0	0	0	0	0	0
13.73147	-0.130905	0.3911977	-0.001561511	0.001079385	-0.0471292	0.03257778	0	0
13.74803	-0.130905	0.3911977	0	0	0.0471292	-0.03257778	0	0
13.76491	-0.130905	0.3911977	0	0	0	0	0	0
13.78117	-0.1309309	0.3911798	-0.001591376	-0.001100029	-0.0480292	-0.03319991	0	0
13.79773	-0.1309567	0.3911619	-0.001561511	-0.001079385	0.0009099232	0.0006289799	0	0
13.8143	-0.1310085	0.3911261	-0.003122122	-0.00215877	-0.04710204	-0.03257778	0	0
13.83086	-0.1311895	0.3911082	-0.01092967	-0.001079385	-0.235646	0.03257778	0	0
13.84747	-0.1312671	0.3911261	-0.004673501	0.001076844	0.1886	0.06500215	0	0
13.864	-0.1314223	0.3912334	-0.009388885	0.006491258	-0.1423147	0.1634121	0	0
13.88099	-0.1317327	0.391448	-0.01826146	0.01262555	-0.2646669	0.1829846	0	0
13.9137	-0.134137	0.393111	-0.07351596	0.05084891	-1.111744	0.7690702	0	0
13.93027	-0.1358941	0.3943271	-0.1060622	0.07340719	-0.6605477	0.4578355	0	0
13.94683	-0.1362299	0.3945596	-0.02027085	0.01403381	2.589337	-1.791995	0	0
13.9634	-0.1374695	0.3954181	-0.07482928	0.05182128	-1.646671	1.140494	0	0
13.97997	-0.141547	0.3982442	-0.246118	0.1705852	-5.169654	3.584406	0	0
13.99658	-0.1461092	0.4014107	-0.2746625	0.1906381	-0.8603591	0.6044143	0	0
14.0131	-0.1520283	0.4055264	-0.3582477	0.2490963	-2.522751	1.764374	0	0
14.02966	-0.1575774	0.4093926	-0.3349611	0.2333775	0.7037618	-0.4750521	0	0
14.04623	-0.1609381	0.4117379	-0.2028624	0.1415704	3.986978	-2.770904	0	0
14.0628	-0.1642951	0.4140836	-0.2026411	0.1415955	0.006678696	0.0007600671	0	0
14.07936	-0.1640133	0.4138866	0.01700751	-0.01188943	6.629389	-4.632452	0	0
14.09593	-0.1639109	0.413815	0.006184877	-0.004324737	-0.3266466	0.228316	0	0
14.1125	-0.1638596	0.4137434	0.003092438	-0.004322938	-0.09333535	5.429251E-05	0	0
14.12906	-0.1638596	0.4137434	0	0	-0.09333535	0.130474	0	0
14.14563	-0.163834	0.4137255	0.001546219	-0.001081184	0.04666768	-0.03263208	0	0
14.1622	-0.1638596	0.4137076	-0.00154613	-0.001081122	-0.09332998	1.876221E-06	0	0
14.17876	-0.1638596	0.4137076	0	0	0.04666365	0.03262927	0	0
14.19533	-0.1638084	0.4136717	0.003092438	-0.002162368	0.09333535	-0.06526416	0	0
14.21189	-0.1638084	0.4136359	0	-0.002162368	-0.09333535	0	0	0
14.22846	-0.1637828	0.4135106	0.001546219	-0.00756649	0.04666768	-0.1631061	0	0
14.27816	-0.1673157	0.410968	-0.07108711	-0.05115926	-1.096102	-0.6578541	0	0
14.30135	-0.1821683	0.4004804	-0.6404592	-0.4522376	-7.81146	-5.502566	0	0
14.31792	-0.1861105	0.3977433	-0.2379512	-0.1652102	10.12402	7.219413	0	0
14.33448	-0.1917212	0.3937906	-0.3386805	-0.2385999	-3.040104	-2.21497	0	0
14.35105	-0.1976486	0.3896063	-0.3577794	-0.2525652	-0.5764236	-0.421486	0	0
14.36762	-0.2001016	0.3878005	-0.1480719	-0.1090035	6.329169	4.332825	0	0
14.38434	-0.2041172	0.3849224	-0.2401013	-0.1720915	-2.764405	-1.895054	0	0
14.40075	-0.2057569	0.3836532	-0.09993189	-0.07734852	4.230565	2.859514	0	0
14.41736	-0.205656	0.383689	0.006071157	0.002150781	3.210081	2.40747	0	0
14.43388	-0.2054795	0.3835996	0.01068637	-0.005408585	0.1392916	-0.2281487	0	0
14.45045	-0.205429	0.3835638	0.003044766	-0.00215877	-0.2309632	0.09822377	0	0
14.46702	-0.2053786	0.3835281	0.00304459	-0.002158646	-5.291365E-06	3.752442E-06	0	0
14.48358	-0.2053786	0.3835281	0	0	-0.09188856	0.06514994	0	0
14.50042	-0.2053786	0.3835281	0	0	0	0	0	0
14.52813	-0.2053786	0.3835281	0	0	0	0	0	0
14.5447	-0.2054038	0.383546	-0.001521845	0.001079323	-0.03437235	0.02437755	0	0
14.56127	-0.2054038	0.383546	0	0	0.04593071	-0.03257497	0	0
14.57798	-0.2054038	0.3835817	0	0.002140289	0	0.06432006	0	0
14.5944	-0.2054038	0.3835817	0	0	0	-0.06459404	0	0
14.61097	-0.2054038	0.3835817	0	0	0	0	0	0
14.62753	-0.205429	0.3835996	-0.001522833	0.001079385	-0.04596315	0.03257872	0	0
14.6441	-0.205429	0.3835996	0	0	0.0459605	-0.03257685	0	0
14.66067	-0.205429	0.3835996	0	0	0	0	0	0
14.67723	-0.205429	0.3835996	0	0	0	0	0	0
14.6938	-0.205429	0.3835996	0	0	0	0	0	0
14.71037	-0.205429	0.3835996	0	0	0	0	0	0
14.72708	-0.2054038	0.3835817	0.001509279	-0.001069778	0.04534781	-0.03214257	0	0
14.74359	-0.2054038	0.3835817	0	0	-0.0454233	0.03219608	0	0
14.7601	-0.2054038	0.3835817	0	0	0	0	0	0
14.77663	-0.2053786	0.3835638	0.001525358	-0.001081814	0.04616693	-0.03274251	0	0
14.7932	-0.2053533	0.383546	0.001522745	-0.001079323	-7.894612E-05	7.526333E-05	0	0
14.80977	-0.2053281	0.3835281	0.001521933	-0.001079385	-2.449979E-05	-1.876221E-06	0	0
14.82633	-0.2053029	0.3835102	0.001522833	-0.001077586	2.714626E-05	5.429603E-05	0	0
14.8429	-0.2052777	0.3834924	0.001522745	-0.001079323	-2.645682E-06	-5.241824E-05	0	0
14.85947	-0.2052777	0.3834924	0	0	-0.04595786	0.03257497	0	0
14.87603	-0.2052525	0.3834745	0.001521845	-0.001079323	0.04593071	-0.03257497	0	0
14.8926	-0.2052525	0.3834745	0	0	-0.04593071	0.03257497	0	0
14.91323	-0.2052525	0.3834745	0	0	0	0	0	0
14.9298	-0.2052525	0.3834745	0	0	0	0	0	0
14.94637	-0.2052525	0.3834745	0	0	0	0	0	0
14.96293	-0.2052525	0.3834745	0	0	0	0	0	0
14.9795	-0.2052525	0.3834745	0	0	0	0	0	0
14.99627	-0.2052777	0.3834924	-0.001503241	0.001066128	-0.04509018	0.03197885	0	0
15.01278	-0.2052777	0.3834924	0	0	0.04516641	-0.03203291	0	0
15.0292	-0.2052525	0.3834745	0.001535725	-0.001089166	0.04663956	-0.0330777	0	0
15.0458	-0.2052525	0.3834745	0	0	-0.04650218	0.03298027	0	0
15.06233	-0.2052777	0.3834924	-0.001525534	0.001081939	-0.0460407	0.03265298	0	0
15.16173	-0.2052777	0.3834924	0	0	0.01315946	-0.009332953	0	0
15.1784	-0.2052525	0.3835102	0.001512702	0.001072839	0.01303302	0.009243275	0	0
15.19491	-0.2052272	0.3835281	0.001527934	0.001081196	0.0004590882	0.000251902	0	0
15.21143	-0.2051516	0.3835817	0.00457999	0.003246941	0.09239578	0.06556422	0	0
15.228	-0.2048489	0.3837605	0.01827114	0.01078783	0.4137714	0.2278994	0	0
15.24457	-0.204748	0.383832	0.00609133	0.004317541	-0.367598	-0.1952794	0	0
15.29524	-0.20442	0.3838498	0.006471874	0.0003522469	0.005659027	-0.05896744	0	0
15.31181	-0.2040162	0.3838141	0.02436932	-0.002156847	0.2661471	-0.03731193	0	0
15.3285	-0.2036377	0.3839392	0.02267915	0.007495144	-0.05081777	0.2902035	0	0
15.34502	-0.2032843	0.3839392	0.02140034	0	-0.03851249	-0.2257231	0	0
15.36153	-0.2027036	0.3838141	0.03516776	-0.007577398	0.4168934	-0.2294524	0	0
15.37808	-0.1997224	0.3823842	0.1801237	-0.08639621	4.38437	-2.383971	0	0
15.39505	-0.1991409	0.3820088	0.03425947	-0.02211274	-4.350973	1.917507	0	0
15.41158	-0.1987616	0.3823127	0.0229502	0.01838288	-0.3375736	1.208766	0	0
15.42778	-0.1982557	0.3826701	0.03122884	0.02206911	0.252966	0.112638	0	0
15.44434	-0.1967882	0.3836711	0.08858604	0.06042218	1.750593	1.17057	0	0
15.46091	-0.1959528	0.384261	0.05042528	0.03560532	-1.15176	-0.7490175	0	0
15.47748	-0.1959275	0.3842431	0.00152823	-0.001077586	-1.475801	-1.107156	0	0
15.49404	-0.1958769	0.3842073	0.003056459	-0.00215877	0.04612472	-0.03263208	0	0
15.51063	-0.1957503	0.384118	0.007631942	-0.005387993	0.1380049	-0.09739926	0	0
15.52718	-0.1948386	0.3835102	0.05510314	-0.03673122	1.432725	-0.9459679	0	0
15.54374	-0.1926086	0.3819373	0.1346006	-0.09494086	2.400827	-1.757934	0	0
15.56031	-0.1867712	0.3778268	0.352368	-0.2481237	6.572423	-4.6232	0	0
15.57688	-0.1838985	0.3758433	0.1734068	-0.1197326	-5.40137	3.875073	0	0
15.59369	0	0	10.93769	-22.35396	322.4815	-666.1031	0	0
15.61001	-0.1815065	0.3741637	-11.12221	22.92772	-665.8077	1366.682	0	0
15.62658	-0.181481	0.3741101	0.001536325	-0.003234558	338.2565	-697.2956	0	0
15.64314	-0.1814301	0.3740744	0.003073372	-0.002156847	0.04638952	0.0325263	0	0
15.66338	-0.1814556	0.3740565	-0.001257362	-0.0008833922	-0.1176543	0.03459632	0	0
15.67995	-0.1814301	0.3740386	0.001536236	-0.001079323	0.0758945	-0.005322909	0	0
15.69652	-0.1814301	0.3740386	0	0	-0.04636505	0.03257497	0	0
15.71308	-0.1814301	0.3740386	0	0	0	0	0	0
15.72978	-0.1814301	0.3740386	0	0	0	0	0	0
15.74622	-0.1814301	0.3740386	0	0	0	0	0	0
15.76281	-0.1814301	0.3740386	0	0	0	0	0	0
15.77935	-0.1814556	0.3740208	-0.001538539	-0.001079139	-0.04643588	-0.03257036	0	0
15.79592	-0.1814556	0.3740208	0	0	0.04646932	0.03259382	0	0
15.81248	-0.181481	0.3740029	-0.001537224	-0.001079385	-0.0463962	-0.03257778	0	0
15.82905	-0.181481	0.3740029	0	0	0.0463962	0.03257778	0	0
15.84586	-0.1815065	0.373985	-0.001513583	-0.001061635	-0.04534203	-0.03180313	0	0
15.86218	-0.1815319	0.3739671	-0.001560582	-0.001095786	-0.001418479	-0.001030716	0	0
15.87875	-0.1815574	0.3739493	-0.001536236	-0.001077524	0.0007403232	0.0005553256	0	0
15.89532	-0.1815829	0.3739314	-0.001537224	-0.001079385	-2.981575E-05	-5.616717E-05	0	0
15.91191	-0.1815829	0.3739314	0	0	0.04635617	0.03254968	0	0
15.96158	-0.1816592	0.3738778	-0.001537451	-0.001078765	-0.02320085	-0.01627907	0	0
15.97846	-0.1816592	0.3738778	0	0	0.02310276	0.01621025	0	0
15.99472	-0.1816847	0.3738599	-0.001565525	-0.0010999	-0.04724899	-0.03319601	0	0
16.01128	-0.1817101	0.3738421	-0.001537136	-0.001077524	0.000864866	0.0006816878	0	0
16.02785	-0.1817356	0.3738242	-0.001536236	-0.001079323	2.714469E-05	-5.428939E-05	0	0
16.04451	-0.1817356	0.3738242	0	0	0.04623861	0.03248614	0	0
16.06099	-0.1817356	0.3738242	0	0	0	0	0	0
16.07755	-0.1817356	0.3738242	0	0	0	0	0	0
16.09412	-0.181761	0.3738063	-0.001536236	-0.001079323	-0.04636371	-0.03257403	0	0
16.11069	-0.181761	0.3738063	0	0	0.04636371	0.03257403	0	0
16.12725	-0.181812	0.3737349	-0.003073372	-0.004313694	-0.09275457	-0.1301876	0	0
16.14408	-0.181812	0.3737349	0	0	0.09203406	0.1291763	0	0
16.16059	-0.1818374	0.373717	-0.001541383	-0.001081134	-0.04623425	-0.03242894	0	0
16.1771	-0.1818374	0.373717	0	0	0.04667486	0.03273798	0	0
16.19361	-0.1818374	0.373717	0	0	0	0	0	0
16.21009	-0.1818629	0.3736991	-0.001545131	-0.001085572	-0.04684788	-0.0329142	0	0
16.22665	-0.1818629	0.3736991	0	0	0.04676675	0.0328572	0	0
16.24322	-0.1818629	0.3736991	0	0	0	0	0	0
16.25979	-0.1818629	0.3736991	0	0	0	0	0	0
16.27636	-0.1818629	0.3736991	0	0	0	0	0	0
16.29292	-0.1818629	0.3736991	0	0	0	0	0	0
16.32944	-0.1818629	0.3736991	0	0	0	0	0	0
16.34601	-0.1818629	0.3736991	0	0	0	0	0	0
16.36258	-0.1818629	0.3736991	0	0	0	0	0	0
16.37925	-0.1818629	0.3736991	0	0	0	0	0	0
16.39576	-0.1818629	0.3736991	0	0	0	0	0	0
16.41228	-0.1818629	0.3736991	0	0	0	0	0	0
16.42884	-0.1818629	0.3736991	0	0	0	0	0	0
16.44541	-0.1818629	0.3736991	0	0	0	0	0	0
16.46198	-0.1818629	0.3736991	0	0	0	0	0	0
16.47855	-0.1818883	0.3736813	-0.001537136	-0.001077524	-0.04639085	-0.03251974	0	0
16.49511	-0.1818883	0.3736813	0	0	0.04639085	0.03251974	0	0
16.51184	-0.1819138	0.3736634	-0.001521349	-0.001068863	-0.04569083	-0.03210129	0	0
16.52835	-0.1819138	0.3736634	0	0	0.04576686	0.03215471	0	0
16.54487	-0.1819138	0.3736634	0	0	0	0	0	0
16.56138	-0.1819138	0.3736634	0	0	0	0	0	0
16.57839	-0.1819138	0.3736634	0	0	0	0	0	0
16.59452	-0.1819138	0.3736634	0	0	0	0	0	0
16.61142	-0.1819138	0.3736634	0	0	0	0	0	0
16.62765	-0.1819138	0.3736277	0	-0.002201454	0	-0.06644767	0	0
16.64421	-0.1819138	0.3736277	0	0	0	0.06712003	0	0
16.66078	-0.1819138	0.3736277	0	0	0	0	0	0
16.67746	-0.1819138	0.3736277	0	0	0	0	0	0
16.69398	-0.1819138	0.3736277	0	0	0	0	0	0
16.71049	-0.1819138	0.3736277	0	0	0	0	0	0
16.72705	-0.1819138	0.3736277	0	0	0	0	0	0
16.74362	-0.1819138	0.3736277	0	0	0	0	0	0
16.76018	-0.1819138	0.3736277	0	0	0	0	0	0
16.77675	-0.1819138	0.3736277	0	0	0	0	0	0
16.79332	-0.1819138	0.3736277	0	0	0	0	0	0
16.81007	-0.1819138	0.3736277	0	0	0	0	0	0
16.82645	-0.1819138	0.3736277	0	0	0	0	0	0
16.84302	-0.1819138	0.3736277	0	0	0	0	0	0
16.85959	-0.1819138	0.3736277	0	0	0	0	0	0
16.87615	-0.1819138	0.3736277	0	0	0	0	0	0
16.89272	-0.1819138	0.3736277	0	0	0	0	0	0
16.90928	-0.1819138	0.3736277	0	0	0	0	0	0
16.92944	-0.1819138	0.3736277	0	0	0	0	0	0
16.94616	-0.1819138	0.3736277	0	0	0	0	0	0
16.96258	-0.1819138	0.3736277	0	0	0	0	0	0
16.97918	-0.1819138	0.3736277	0	0	0	0	0	0
16.99571	-0.1819138	0.3736277	0	0	0	0	0	0
17.01228	-0.1819138	0.3736277	0	0	0	0	0	0
17.02884	-0.1819138	0.3736277	0	0	0	0	0	0
17.04541	-0.1819138	0.3736277	0	0	0	0	0	0
17.06198	-0.1819138	0.3736277	0	0	0	0	0	0
17.07875	-0.1819138	0.3736277	0	0	0	0	0	0
17.09526	-0.1819138	0.3736277	0	0	0	0	0	0
17.11168	-0.1819138	0.3736277	0	0	0	0	0	0
17.1283	-0.1819138	0.3736277	0	0	0	0	0	0
17.14481	-0.1819138	0.3736277	0	0	0	0	0	0
17.16181	-0.1819138	0.3736277	0	0	0	0	0	0
17.17795	-0.1819138	0.3736277	0	0	0	0	0	0
17.19483	-0.1819138	0.3736277	0	0	0	0	0	0
17.21108	-0.1819138	0.3736277	0	0	0	0	0	0
17.22786	-0.1819138	0.3736277	0	0	0	0	0	0
17.24421	-0.1819138	0.3736277	0	0	0	0	0	0
17.27735	-0.1819138	0.3736277	0	0	0	0	0	0
17.29391	-0.1819138	0.3736277	0	0	0	0	0	0
17.31048	-0.1819138	0.3736277	0	0	0	0	0	0
17.32705	-0.1819138	0.3736277	0	0	0	0	0	0
17.34361	-0.1819138	0.3736277	0	0	0	0	0	0
17.36018	-0.1819138	0.3736277	0	0	0	0	0	0
17.37675	-0.1819138	0.3736277	0	0	0	0	0	0
17.39332	-0.1819138	0.3736277	0	0	0	0	0	0
17.40988	-0.1819138	0.3736277	0	0	0	0	0	0
17.42645	-0.1819138	0.3736277	0	0	0	0	0	0
17.44302	-0.1819901	0.373717	-0.004609609	0.005393018	-0.1391183	0.1627616	0	0
17.46003	-0.1822701	0.3739493	-0.01646083	0.0136572	-0.3529771	0.2461405	0	0
17.47615	-0.1835933	0.3751286	-0.08205713	0.07313476	-1.979814	1.79514	0	0
17.49272	-0.1885492	0.3792208	-0.2991407	0.2470049	-6.640275	5.318437	0	0
17.50928	-0.1924058	0.382688	-0.2327857	0.2092843	2.002598	-1.138408	0	0
17.52585	-0.1961301	0.3952214	-0.224796	0.7565137	0.2411293	16.51542	0	0
17.54242	-0.196687	0.4081037	-0.03361462	0.7775821	5.769866	0.6358454	0	0
17.55899	-0.1976739	0.4270737	-0.05957144	1.14503	-0.7833784	11.08961	0	0
17.57555	-0.1984075	0.4416591	-0.04428103	0.880375	0.4614655	-7.987314	0	0
17.61265	-0.2008345	0.4833472	-0.06541719	1.123675	-0.3938385	4.533497	0	0
17.62922	-0.2013903	0.4944415	-0.03355552	0.6697287	0.5937123	-8.458855	0	0
17.64579	-0.2028046	0.5164042	-0.08536725	1.325668	-1.563771	19.79742	0	0
17.66235	-0.204319	0.5318996	-0.09141057	0.935309	-0.1823876	-11.78105	0	0
17.67918	-0.2058577	0.5457841	-0.09142325	0.8249589	-0.0003796938	-3.304124	0	0
17.69549	-0.207975	0.561713	-0.1298738	0.9771119	-1.160506	4.59225	0	0
17.71221	-0.2084536	0.5651452	-0.02862385	0.2052512	3.065965	-23.37284	0	0
17.79489	-0.2190841	0.6107728	-0.1285743	0.5518601	-1.005522	3.486959	0	0
17.81145	-0.2202121	0.6180203	-0.0680855	0.4374568	0.6094772	-1.152713	0	0
17.82802	-0.2202371	0.6220335	-0.001512851	0.2422361	2.009167	-5.891774	0	0
17.84459	-0.2198361	0.6271935	0.02420472	0.3114567	0.7761578	2.089082	0	0
17.86116	-0.2206381	0.6322127	-0.04840404	0.3029624	-2.191337	-0.2563572	0	0
17.87783	-0.2226416	0.6337878	-0.1201856	0.09448656	-2.159658	-6.272316	0	0
17.89429	-0.2247183	0.6359456	-0.1261514	0.1310719	-0.1800585	1.10421	0	0
17.91086	-0.2254685	0.6405295	-0.0452785	0.2766845	2.4485	4.408555	0	0
17.92742	-0.2242431	0.644801	0.07396331	0.2578287	3.598725	-0.5690686	0	0
17.94399	-0.2214146	0.6576195	0.1707264	0.7737307	2.920316	15.56995	0	0
17.96056	-0.2208886	0.6642335	0.03175189	0.39922	-4.19426	-11.30275	0	0
17.9774	-0.2202872	0.6695907	0.03570885	0.3181242	0.1184464	-2.427493	0	0
17.99369	-0.2212393	0.6725594	-0.05843461	0.1822136	-2.841419	-4.102026	0	0
18.01026	-0.2232673	0.6749028	-0.1224105	0.1414453	-1.946936	-1.240675	0	0
18.02682	-0.2237177	0.6757798	-0.02718725	0.0529336	2.873844	-2.671288	0	0
18.04339	-0.2233674	0.6761612	0.02114484	0.02302196	1.458665	-0.9027351	0	0
18.05996	-0.2226916	0.6774011	0.04078942	0.07484386	0.5928746	1.563988	0	0
18.07653	-0.2202121	0.6828457	0.149667	0.3286359	3.285933	7.659458	0	0
18.09309	-0.219786	0.6912196	0.02571757	0.505447	-3.740802	5.33617	0	0
18.10966	-0.2220908	0.6950241	-0.1391166	0.2296404	-4.974707	-8.32386	0	0
18.12623	-0.2234675	0.6960821	-0.08309888	0.06385995	1.690619	-5.003263	0	0
18.14302	-0.2234675	0.6960821	0	0	2.491009	-1.914294	0	0
18.15936	-0.2234675	0.6960821	0	0	0	0	0	0
18.17593	-0.2234675	0.6960821	0	0	0	0	0	0
18.1925	-0.2234675	0.6960821	0	0	0	0	0	0
18.20907	-0.2234675	0.6960821	0	0	0	0	0	0
18.22563	-0.2234675	0.6960821	0	0	0	0	0	0
18.2422	-0.2234675	0.6960821	0	0	0	0	0	0
18.25876	-0.2234675	0.6960821	0	0	0	0	0	0
18.27533	-0.2234675	0.6960821	0	0	0	0	0	0
18.29213	-0.2234425	0.6961013	0.001489574	0.001146236	0.04464702	0.03435614	0	0
18.31289	-0.2234425	0.6961013	0	0	-0.03965702	-0.0305163	0	0
18.32946	-0.2234425	0.6961013	0	0	0	0	0	0
18.34603	-0.2234425	0.6961013	0	0	0	0	0	0
18.36268	-0.2234425	0.6961013	0	0	0	0	0	0
18.37916	-0.2234175	0.6960821	0.001517842	-0.001167988	0.04580855	-0.03524994	0	0
18.39573	-0.2233924	0.6960628	0.001511052	-0.001162071	-0.000205423	0.000179016	0	0
18.4123	-0.2233424	0.6960244	0.003021205	-0.002320545	0.0455765	-0.0349628	0	0
18.42886	-0.2233424	0.6960244	0	0	-0.09118015	0.07003418	0	0
18.44543	-0.2233174	0.6960051	0.001510153	-0.001162071	0.0455765	-0.03507138	0	0
18.46226	-0.2232673	0.6959666	0.00297463	-0.002288313	0.04385469	-0.03372603	0	0
18.47876	-0.2232423	0.6959474	0.001515737	-0.001162757	-0.04376746	0.0337672	0	0
18.49528	-0.2231922	0.6959089	0.003031326	-0.002331928	0.04590174	-0.03540998	0	0
18.51179	-0.2231672	0.6958897	0.001516114	-0.001165964	-0.04588237	0.03530674	0	0
18.5283	-0.2231171	0.6958512	0.003031676	-0.002328587	0.04589562	-0.03520761	0	0
18.54483	-0.2230921	0.695832	0.001513289	-0.001164484	-0.04595198	0.03523003	0	0
18.5614	-0.2230671	0.6958127	0.001511226	-0.001162205	-6.231544E-05	6.88646E-05	0	0
18.57796	-0.2230421	0.6957934	0.001511052	-0.001162071	-5.252867E-06	4.040667E-06	0	0
18.59453	-0.223017	0.6957743	0.001510153	-0.001158473	-2.714469E-05	0.0001085788	0	0
18.6111	-0.222992	0.695755	0.001511226	-0.001162205	3.239912E-05	-0.0001126257	0	0
18.62787	-0.222992	0.695755	0	0	-0.04533229	0.03486269	0	0
18.64438	-0.223017	0.6957358	-0.001516114	-0.001165964	-0.04555189	-0.03503157	0	0
18.6608	-0.223017	0.6957358	0	0	0.04604266	0.035409	0	0
18.6774	-0.222967	0.6956973	0.003014265	-0.002315214	0.0912807	-0.0701114	0	0
18.69393	-0.222967	0.6956973	0	0	-0.09097593	0.06987731	0	0
18.71049	-0.2228919	0.6956396	0.004533679	-0.003486615	0.1370002	-0.1053597	0	0
18.72706	-0.2227167	0.6955049	0.01057557	-0.008127303	0.1823551	-0.1400643	0	0
18.74363	-0.2226165	0.695428	0.006044209	-0.004644687	-0.1367567	0.1051056	0	0
18.76019	-0.2223412	0.6951779	0.01662157	-0.01509253	0.3192255	-0.3153166	0	0
18.77697	-0.2206882	0.6938705	0.09852757	-0.0779296	2.456374	-1.884494	0	0
18.79348	-0.2196607	0.6930441	0.06222656	-0.05004621	-1.090482	0.837617	0	0
18.80989	-0.2191342	0.6925254	0.03207992	-0.03160594	-0.9156781	0.5601072	0	0
18.83175	-0.2191844	0.6924486	-0.002294786	-0.003518899	-0.8984171	0.7340827	0	0
18.84831	-0.2192094	0.6922373	-0.001512851	-0.0127504	0.02035343	-0.2402923	0	0
18.86488	-0.218106	0.6906245	0.06660143	-0.09735134	2.055693	-2.553262	0	0
18.88145	-0.2139634	0.6864635	0.2500468	-0.2511549	5.536391	-4.641799	0	0
18.89806	-0.2100399	0.6809912	0.2361978	-0.3294401	-0.4174089	-2.359529	0	0
18.91458	-0.203562	0.6742929	0.3920499	-0.4053806	4.703624	-2.29189	0	0
18.93158	-0.1983063	0.6703326	0.3091516	-0.2329603	-2.472835	5.143259	0	0
18.94771	-0.1924058	0.665828	0.3657567	-0.2792216	1.708443	-1.39625	0	0
18.96428	-0.1895139	0.6635125	0.1745562	-0.1397687	-5.847184	4.264668	0	0
18.98085	-0.1845597	0.6581117	0.2990327	-0.3259915	3.756709	-5.620215	0	0
18.99742	-0.1851954	0.6504945	-0.03836903	-0.4597772	-10.18281	-4.03766	0	0
19.01414	-0.1868728	0.6413757	-0.1002797	-0.5451397	-1.859477	-2.563846	0	0
19.03055	-0.1889554	0.6284661	-0.1269327	-0.7868301	-0.8043885	-7.294232	0	0
19.04717	-0.1889554	0.6159132	0	-0.7554343	3.843669	0.950701	0	0
19.08025	-0.189057	0.6047124	-0.003069599	-0.3385684	-0.06176282	8.387681	0	0
19.09682	-0.1895646	0.5941434	-0.03064288	-0.6379447	-0.555351	-6.029711	0	0
19.11338	-0.1888031	0.5828699	0.04596747	-0.68047	2.312105	-1.283416	0	0
19.12995	-0.1880413	0.5699039	0.04598096	-0.7826279	0.0004071072	-3.083133	0	0
19.14674	-0.1875333	0.5596955	0.03026023	-0.6081269	-0.4713323	5.231817	0	0
19.16308	-0.1857801	0.5471548	0.1072592	-0.7672076	2.323966	-4.801339	0	0
19.17976	-0.1841783	0.541218	0.09604443	-0.3559691	-0.3395949	12.45278	0	0
19.19627	-0.1806662	0.5301694	0.2126982	-0.6691297	3.51475	-9.435455	0	0
19.21279	-0.1783733	0.5224546	0.1388643	-0.467223	-2.235775	6.113968	0	0
19.22935	-0.1749559	0.5156597	0.2062739	-0.4101392	2.037828	1.725676	0	0
19.24592	-0.1716621	0.5062091	0.1988131	-0.5704402	-0.2251679	-4.837895	0	0
19.26249	-0.1700522	0.4989827	0.09717775	-0.4361868	-3.067361	4.051776	0	0
19.27905	-0.1658314	0.4895243	0.254767	-0.5709115	4.756053	-4.066	0	0
19.29562	-0.1648585	0.486995	0.05872507	-0.152672	-5.916557	12.62249	0	0
19.31219	-0.1599892	0.4773204	0.2939078	-0.5839552	7.097828	-13.01615	0	0
19.32887	-0.1395089	0.4456816	1.227717	-1.896622	28.0854	-39.48002	0	0
19.39174	-0.1377278	0.4444423	0.02833193	-0.01971282	-15.07752	23.59472	0	0
19.4083	-0.130517	0.4393972	0.4352442	-0.3045238	5.122682	-3.58553	0	0
19.42487	-0.1251322	0.4353057	0.325022	-0.2469671	-3.326514	1.737064	0	0
19.44145	-0.1208036	0.4279701	0.261095	-0.4424686	-1.928654	-5.898211	0	0
19.458	-0.120674	0.4206396	0.007833203	-0.442829	-7.643895	-0.01087481	0	0
19.47457	-0.1217631	0.4102161	-0.06573797	-0.6291626	-2.221277	-5.625828	0	0
19.57397	-0.1352999	0.3867994	-0.1361834	-0.2355773	-0.6074517	3.393893	0	0
19.59056	-0.1406442	0.3828489	-0.3221747	-0.2381496	-1.603516	-0.0221776	0	0
19.62798	-0.1460062	0.376844	-0.1433133	-0.1604964	3.312078	1.43795	0	0
19.64454	-0.1457744	0.3739671	0.01399342	-0.1736469	2.914071	-0.2436102	0	0
19.66111	-0.1423981	0.3697328	0.2037933	-0.2555855	5.728171	-2.472912	0	0
19.67768	-0.1387088	0.3672139	0.2226868	-0.1520406	0.5702082	3.12499	0	0
19.69424	-0.1363332	0.3655705	0.143389	-0.09919878	-2.393214	1.594771	0	0
19.71081	-0.1343179	0.3641772	0.1216415	-0.08409905	-0.6563397	0.4557106	0	0
19.72738	-0.1302324	0.361355	0.2466046	-0.1703478	3.771395	-2.602991	0	0
19.74395	-0.1295597	0.3608549	0.04060683	-0.03018687	-6.217026	4.230064	0	0
19.76051	-0.1297408	0.3609799	-0.01093354	0.007548066	-1.555492	1.138843	0	0
19.77719	-0.1297149	0.360962	0.00155178	-0.001072041	0.3755324	-0.2592748	0	0
19.7937	-0.1297408	0.3609799	-0.001567554	0.001082939	-0.09397937	0.0649253	0	0
19.81021	-0.1297149	0.3609978	0.001567735	0.001081259	0.09494566	-5.087497E-05	0	0
19.82678	-0.1297408	0.3610156	-0.00156232	0.001077524	-0.09462866	-0.000112902	0	0
19.84335	-0.1297667	0.3610335	-0.001561421	0.001079323	2.714821E-05	5.428939E-05	0	0
19.85992	-0.1298443	0.3610871	-0.004686061	0.003234371	-0.09430183	0.06503949	0	0
19.87648	-0.129896	0.3611585	-0.003122841	0.004311895	0.04717806	0.03251974	0	0
19.89305	-0.1299995	0.3612657	-0.006247482	0.006468743	-0.09430184	0.06509378	0	0
19.90962	-0.1300513	0.3613014	-0.0031241	0.002155297	0.09426926	-0.1301876	0	0
19.9263	-0.1301289	0.3614264	-0.004651063	0.00749457	-0.04592257	0.1605758	0	0
19.94281	-0.1301806	0.3615693	-0.003134567	0.00865368	0.04568379	0.03491768	0	0
19.95932	-0.1302065	0.3616229	-0.001566651	0.003245206	0.04748105	-0.1637843	0	0
19.97589	-0.1302583	0.3616586	-0.00312482	0.002157592	-0.04711241	-0.03288482	0	0
19.99245	-0.1302841	0.3616408	-0.0015616	-0.001077648	0.04718893	-0.09766225	0	0
20.00936	-0.1302583	0.3616229	0.00152972	-0.00105741	0.09234473	0.0006045509	0	0
20.02587	-0.1302324	0.361605	0.001566651	-0.001081134	0.001104976	-0.0007098023	0	0
20.04215	-0.1302065	0.3615515	0.001590147	-0.003291979	0.0007165622	-0.06742597	0	0
20.05872	-0.1302065	0.3615515	0	0	-0.04841434	0.1002291	0	0
20.07528	-0.1302065	0.3615515	0	0	0	0	0	0
20.09185	-0.1302324	0.3615336	-0.00156232	-0.001077524	-0.04715092	-0.03251974	0	0
20.10842	-0.1302841	0.3615336	-0.003122841	0	-0.04709662	0.03251974	0	0
20.12499	-0.1303618	0.3615872	-0.004685162	0.003234371	-0.04715092	0.09761352	0	0
20.14155	-0.1304135	0.3616229	-0.003122841	0.002155048	0.04715092	-0.03257403	0	0
20.15847	-0.1306204	0.3617658	-0.01223312	0.00844666	-0.2720672	0.1878911	0	0
20.17498	-0.1308274	0.361873	-0.01253466	0.006491162	-0.009020359	-0.05849845	0	0
20.19149	-0.1310343	0.3620159	-0.01253231	0.008654485	7.118477E-05	0.06551169	0	0
20.208	-0.1320689	0.3627303	-0.06266066	0.04327381	-1.518032	1.048374	0	0
20.22439	-0.1340595	0.3641057	-0.1214985	0.08394754	-1.788702	1.236504	0	0
20.24096	-0.136669	0.3659099	-0.1575092	0.1088983	-1.092845	0.7571998	0	0
20.25752	-0.1410054	0.3688753	-0.2617439	0.1789931	-3.14581	2.115466	0	0
20.27409	-0.1458516	0.372234	-0.2925217	0.2027346	-0.9288762	0.7165203	0	0
20.39013	-0.1628605	0.3750214	-0.146571	0.02401932	1.100583	-1.347654	0	0
20.40989	-0.1717132	0.3688753	-0.4481412	-0.3111241	-2.220704	-2.46793	0	0
20.42646	-0.1760785	0.3658206	-0.2634888	-0.1843844	5.083812	3.489373	0	0
20.44302	-0.1836441	0.3605512	-0.4566616	-0.3180567	-5.829965	-4.034239	0	0
20.4762	-0.190529	0.3557111	-0.2075456	-0.1459067	5.00838	3.461009	0	0
20.49272	-0.1912393	0.3552111	-0.04297912	-0.03025642	3.311211	2.326977	0	0
20.50929	-0.1912393	0.3552111	0	0	1.298682	0.9142458	0	0
20.52586	-0.1912393	0.3551753	0	-0.002156847	0	-0.06509378	0	0
20.54243	-0.1912393	0.3551753	0	0	0	0.06509378	0	0
20.55926	-0.1912139	0.3551575	0.001506899	-0.001060673	0.04511987	-0.03175887	0	0
20.57577	-0.1911885	0.3551396	0.00153687	-0.001081134	0.0008989077	-0.0006136685	0	0
20.59213	-0.1911885	0.3551396	0	0	-0.04675425	0.03288995	0	0
20.60879	-0.1911885	0.3551396	0	0	0	0	0	0
20.6253	-0.1911632	0.3551218	0.001535968	-0.001082939	0.04629698	-0.03264181	0	0
20.64183	-0.1911378	0.3551039	0.001534904	-0.001080385	-3.220204E-05	7.73018E-05	0	0
20.65839	-0.1910871	0.3550682	0.003062579	-0.002155048	0.04616644	-0.0324764	0	0
20.67496	-0.1910364	0.3550325	0.00306168	-0.002156847	-2.714469E-05	-5.428939E-05	0	0
20.69153	-0.1909856	0.3549968	0.003062579	-0.002155048	2.714469E-05	5.428939E-05	0	0
20.7081	-0.1909349	0.354961	0.003062579	-0.002156847	0	-5.428939E-05	0	0
20.72466	-0.1909349	0.354961	0	0	-0.09242882	0.06509378	0	0
20.74123	-0.1909349	0.354961	0	0	0	0	0	0
20.7578	-0.1909349	0.354961	0	0	0	0	0	0
20.77436	-0.1909349	0.354961	0	0	0	0	0	0
20.79093	-0.1909349	0.354961	0	0	0	0	0	0
20.8075	-0.1909095	0.3549789	0.00153084	0.001077524	0.04620084	0.03251974	0	0
20.82406	-0.1909095	0.3549789	0	0	-0.04620084	-0.03251974	0	0
20.84063	-0.1909095	0.3549789	0	0	0	0	0	0
20.8572	-0.1909095	0.3549789	0	0	0	0	0	0
20.87377	-0.1909095	0.3549789	0	0	0	0	0	0
20.89033	-0.1909095	0.3549789	0	0	0	0	0	0
20.9069	-0.1909095	0.3549789	0	0	0	0	0	0
20.92347	-0.1909095	0.3549789	0	0	0	0	0	0
20.94003	-0.1909095	0.3549789	0	0	0	0	0	0
20.9566	-0.1909095	0.3549789	0	0	0	0	0	0
20.97355	-0.1909095	0.3549789	0	0	0	0	0	0
20.98973	-0.1909095	0.3549789	0	0	0	0	0	0
21.0063	-0.1909349	0.3549968	-0.00153084	0.001079323	-0.04674982	0.0329611	0	0
21.02287	-0.1909349	0.3549968	0	0	0.04620084	-0.03257403	0	0
21.0396	-0.1909349	0.3549968	0	0	0	0	0	0
21.05989	-0.1909349	0.3549968	0	0	0	0	0	0
21.07663	-0.1909349	0.3549968	0	0	0	0	0	0
21.09302	-0.1909349	0.3549968	0	0	0	0	0	0
21.10966	-0.1909349	0.3549968	0	0	0	0	0	0
21.12617	-0.1909349	0.3549968	0	0	0	0	0	0
21.14272	-0.1909349	0.3549968	0	0	0	0	0	0
21.20338	-0.1909349	0.3549968	0	0	0	0	0	0
21.21995	-0.1909095	0.3549789	0.00153084	-0.001079323	0.01982269	-0.01397604	0	0
21.23652	-0.1909095	0.3549789	0	0	-0.0462035	0.03257591	0	0
21.25308	-0.1909095	0.3549789	0	0	0	0	0	0
21.26965	-0.1909095	0.3549789	0	0	0	0	0	0
21.28628	-0.1909095	0.3549789	0	0	0	0	0	0
21.30279	-0.1909095	0.3549789	0	0	0	0	0	0
21.31935	-0.1909095	0.3549789	0	0	0	0	0	0
21.33591	-0.1909095	0.3549789	0	0	0	0	0	0
21.35248	-0.1909095	0.3549789	0	0	0	0	0	0
21.36905	-0.1909095	0.3549789	0	0	0	0	0	0
21.38561	-0.1909095	0.3549789	0	0	0	0	0	0
21.40236	-0.1909095	0.3549789	0	0	0	0	0	0
21.41887	-0.1909095	0.3549789	0	0	0	0	0	0
21.45188	-0.1909095	0.3549789	0	0	0	0	0	0
21.46844	-0.1909095	0.3549789	0	0	0	0	0	0
21.48501	-0.1908841	0.354961	0.001531916	-0.001077648	0.04623597	-0.03252536	0	0
21.50158	-0.1908841	0.354961	0	0	-0.04623597	0.03252536	0	0
21.51814	-0.1909095	0.3549432	-0.001531916	-0.001077648	-0.04623597	-0.03252536	0	0
21.53471	-0.1909095	0.3549432	0	0	0.04623597	0.03252536	0	0
21.55128	-0.1909095	0.3549432	0	0	0	0	0	0
21.56784	-0.1908841	0.3549253	0.001531739	-0.001077524	0.04622798	-0.03251974	0	0
21.58441	-0.1908588	0.3549432	0.00153084	0.001077524	-2.714469E-05	0.06503949	0	0
21.60098	-0.1908588	0.3549432	0	0	-0.04619552	-0.032516	0	0
21.61754	-0.1908588	0.3549432	0	0	0	0	0	0
21.63411	-0.1908588	0.3549432	0	0	0	0	0	0
21.65068	-0.1908588	0.3549432	0	0	0	0	0	0
21.66724	-0.1908588	0.3549432	0	0	0	0	0	0
21.68381	-0.1908588	0.3549432	0	0	0	0	0	0
21.70038	-0.1908588	0.3549432	0	0	0	0	0	0
21.72138	-0.1908588	0.3549432	0	0	0	0	0	0
21.73795	-0.1908588	0.3549432	0	0	0	0	0	0
21.7546	-0.1908841	0.354961	-0.001522427	0.001071602	-0.04582033	0.03225191	0	0
21.77108	-0.1908841	0.354961	0	0	0.04594693	-0.03234102	0	0
21.78765	-0.1908841	0.354961	0	0	0	0	0	0
21.80421	-0.1908841	0.354961	0	0	0	0	0	0
21.90361	-0.1908841	0.3549253	0	-0.0003591885	0	-0.003097339	0	0
21.92018	-0.1908841	0.3549253	0	0	0	0.003097339	0	0
21.93724	-0.1908841	0.3549253	0	0	0	0	0	0
21.95332	-0.1908588	0.3549075	0.001577141	-0.001111968	0.04759547	-0.03355732	0	0
21.96988	-0.1908334	0.3549253	0.001532092	0.001079572	-0.00137999	0.06713396	0	0
21.98677	-0.1908334	0.3549253	0	0	-0.04579575	-0.03226947	0	0
22.00302	-0.1908588	0.3549432	-0.001562317	0.001099034	-0.04715081	0.03316892	0	0
22.0198	-0.1908588	0.3549432	0	0	0.04730876	-0.03328003	0	0
22.03631	-0.1908841	0.3549253	-0.001535968	-0.001081134	-0.04613518	-0.03247353	0	0
22.05272	-0.1908841	0.3549253	0	0	0.04665911	0.03284231	0	0
22.06928	-0.1908334	0.3549253	0.003062932	0	0.09289399	0	0	0
22.08585	-0.1908588	0.3549432	-0.001531739	0.001077524	-0.1386754	0.03252162	0	0
22.10242	-0.1908588	0.3549432	0	0	0.04622798	-0.03251974	0	0
22.15211	-0.1908588	0.3549432	0	0	0	0	0	0
22.16868	-0.1908588	0.3549432	0	0	0	0	0	0
22.18525	-0.1908588	0.3549432	0	0	0	0	0	0
22.20193	-0.1908588	0.3549432	0	0	0	0	0	0
22.21844	-0.1908588	0.3549432	0	0	0	0	0	0
22.23495	-0.1908841	0.354961	-0.001536323	0.001081384	-0.04651896	0.03274366	0	0
22.25152	-0.1908841	0.354961	0	0	0.04644653	-0.03269268	0	0
22.26808	-0.1908841	0.354961	0	0	0	0	0	0
22.28465	-0.1908841	0.354961	0	0	0	0	0	0
22.30122	-0.1908841	0.354961	0	0	0	0	0	0
22.31778	-0.1908841	0.354961	0	0	0	0	0	0
22.33435	-0.1908841	0.354961	0	0	0	0	0	0
22.35092	-0.1908588	0.3549789	0.001531016	0.001077648	0.04620882	0.03252536	0	0
22.36748	-0.1908588	0.3549789	0	0	-0.04620882	-0.03252536	0	0
22.38405	-0.1908588	0.3549789	0	0	0	0	0	0
22.40061	-0.1908588	0.3549789	0	0	0	0	0	0
22.41718	-0.1908588	0.3549789	0	0	0	0	0	0
22.43375	-0.1908588	0.3549789	0	0	0	0	0	0
22.4506	-0.1908588	0.3549789	0	0	0	0	0	0
22.47206	-0.1908334	0.354961	0.001182639	-0.0008319445	0.03087097	-0.02171663	0	0
22.48863	-0.1908334	0.354961	0	0	-0.03110014	0.02187784	0	0
22.50519	-0.1908588	0.3549432	-0.001531916	-0.001077648	-0.0462333	-0.03252349	0	0
22.52176	-0.1908588	0.3549432	0	0	0.04623597	0.03252536	0	0
22.53833	-0.1908588	0.3549432	0	0	0	0	0	0
22.55489	-0.1908334	0.354961	0.001531739	0.001077524	0.04622798	0.03251974	0	0
22.57169	-0.1908334	0.354961	0	0	-0.0459161	-0.03230034	0	0
22.58803	-0.1908334	0.354961	0	0	0	0	0	0
22.60471	-0.1908334	0.354961	0	0	0	0	0	0
22.62116	-0.1908334	0.354961	0	0	0	0	0	0
22.63773	-0.1908334	0.354961	0	0	0	0	0	0
22.65429	-0.1908334	0.354961	0	0	0	0	0	0
22.67126	-0.1908588	0.3549789	-0.001496085	0.001052443	-0.04462026	0.03138877	0	0
22.68743	-0.1908588	0.3549789	0	0	0.04515455	-0.03176462	0	0
22.70399	-0.1908588	0.3549789	0	0	0	0	0	0
22.72056	-0.1908588	0.3549789	0	0	0	0	0	0
22.73713	-0.1908588	0.3549789	0	0	0	0	0	0
22.75382	-0.1908334	0.354961	0.001520536	-0.001069643	0.04572142	-0.03216339	0	0
22.77033	-0.1908588	0.3549789	-0.001536515	0.001080884	-0.09206589	0.06476509	0	0
22.78683	-0.1908588	0.3549789	0	0	0.0465436	-0.03274177	0	0
22.8034	-0.1908588	0.3549789	0	0	0	0	0	0
22.81997	-0.1908588	0.3549789	0	0	0	0	0	0
22.83653	-0.1908588	0.3549789	0	0	0	0	0	0
22.8531	-0.1908588	0.3549789	0	0	0	0	0	0
22.86967	-0.1908588	0.3549789	0	0	0	0	0	0
22.88623	-0.1908588	0.3549789	0	0	0	0	0	0
22.9028	-0.1908588	0.3549789	0	0	0	0	0	0
22.91944	-0.1908588	0.3549789	0	0	0	0	0	0
22.93593	-0.1908588	0.3549789	0	0	0	0	0	0
22.9525	-0.1908334	0.354961	0.001531739	-0.001077524	0.04633467	-0.0325948	0	0
23.01901	-0.1908588	0.3549432	-0.0003815621	-0.0002684153	-0.02303113	0.009739549	0	0
23.08506	-0.190808	0.3549075	0.0007681875	-0.0005410025	0.008673629	-0.002056378	0	0
23.10565	-0.190808	0.3549075	0	0	-0.008866101	0.006244026	0	0
23.12259	-0.1908334	0.3549253	-0.001497733	0.001055981	-0.03991073	0.02813917	0	0
23.13879	-0.1908334	0.3549253	0	0	0.04520168	-0.03186957	0	0
23.15535	-0.1908334	0.3549253	0	0	0	0	0	0
23.17192	-0.190808	0.3549432	0.001531016	0.001077648	0.04620882	0.03252536	0	0
23.18849	-0.190808	0.3549432	0	0	-0.04620882	-0.03252536	0	0
23.20505	-0.190808	0.3549432	0	0	0	0	0	0
23.22165	-0.190808	0.3549432	0	0	0	0	0	0
23.23822	-0.1907827	0.3549253	0.001531563	-0.0010774	0.04617216	-0.03248048	0	0
23.25475	-0.1907827	0.3549253	0	0	-0.04627327	0.03255161	0	0
23.27132	-0.190808	0.3549075	-0.001531739	-0.001079323	-0.04628126	-0.03261158	0	0
23.28789	-0.1907827	0.3548896	0.001531739	-0.001077524	0.09245597	5.428939E-05	0	0
23.30445	-0.1907573	0.3548717	0.00153084	-0.001077524	-2.714469E-05	0	0	0
23.32102	-0.1906812	0.3548182	0.004594319	-0.003234371	0.09245597	-0.06509378	0	0
23.33759	-0.1906051	0.3547646	0.004594319	-0.003234371	0	0	0	0
23.35415	-0.190529	0.354711	0.004594319	-0.003232572	0	5.428939E-05	0	0
23.37076	-0.1904782	0.3546753	0.003055193	-0.002151645	-0.04639482	0.03258306	0	0
23.38729	-0.1904782	0.3546753	0	0	-0.0922059	0.06493678	0	0
23.40386	-0.1904782	0.3546753	0	0	0	0	0	0
23.42042	-0.1904782	0.3546753	0	0	0	0	0	0
23.48686	-0.1905036	0.3546931	-0.0003819674	0.0002687005	-0.004601795	0.003237199	0	0
23.50343	-0.1905036	0.3546931	0	0	0.004601795	-0.003237199	0	0
23.51999	-0.190529	0.354711	-0.00153084	0.001079323	-0.04620084	0.03257403	0	0
23.53656	-0.190529	0.354711	0	0	0.04620084	-0.03257403	0	0
23.55313	-0.190529	0.354711	0	0	0	0	0	0
23.57041	-0.190529	0.354711	0	0	0	0	0	0
23.58642	-0.190529	0.354711	0	0	0	0	0	0
23.60283	-0.1905036	0.3547289	0.00154525	0.001087667	0.04765623	0.03354416	0	0
23.6194	-0.190529	0.3547467	-0.001531192	0.001077772	-0.09329294	-0.0003000569	0	0
23.63596	-0.190529	0.3547467	0	0	0.0462168	-0.03253098	0	0
23.653	-0.190529	0.3547467	0	0	0	0	0	0
23.6691	-0.190529	0.3547467	0	0	0	0	0	0
23.68566	-0.190529	0.3547467	0	0	0	0	0	0
23.703	-0.190529	0.3547467	0	0	0	0	0	0
23.7188	-0.190529	0.3547467	0	0	0	0	0	0
23.73536	-0.190529	0.3547467	0	0	0	0	0	0
23.8182	-0.190529	0.3547467	0	0	0	0	0	0
23.83517	-0.190529	0.3547467	0	0	0	0	0	0
23.85161	-0.190529	0.3547467	0	0	0	0	0	0
23.87171	-0.190529	0.3547467	0	0	0	0	0	0
23.88828	-0.190529	0.3547467	0	0	0	0	0	0
23.90485	-0.190529	0.3547467	0	0	0	0	0	0
23.92141	-0.1905543	0.3547646	-0.001531739	0.001077524	-0.04622798	0.03251974	0	0
23.93798	-0.1905543	0.3547646	0	0	0.04623064	-0.03252162	0	0
23.95455	-0.190529	0.3547467	0.001531739	-0.001077524	0.04623064	-0.03252162	0	0
23.97111	-0.190529	0.3547467	0	0	-0.04622798	0.03251974	0	0
23.98768	-0.190529	0.3547467	0	0	0	0	0	0
24.00425	-0.190529	0.3547467	0	0	0	0	0	0
24.02081	-0.190529	0.3547467	0	0	0	0	0	0
24.03738	-0.190529	0.3547467	0	0	0	0	0	0
24.05395	-0.190529	0.3547467	0	0	0	0	0	0
24.07051	-0.1905036	0.3547289	0.00153084	-0.001077524	0.0462035	-0.03252162	0	0
24.08727	-0.190529	0.354711	-0.001513244	-0.001065139	-0.09133959	0.0003716288	0	0
24.10365	-0.190529	0.354711	0	0	0.04567242	0.03214781	0	0
24.1203	-0.190529	0.354711	0	0	0	0	0	0
24.13681	-0.190529	0.354711	0	0	0	0	0	0
24.15335	-0.190529	0.354711	0	0	0	0	0	0
24.16992	-0.190529	0.354711	0	0	0	0	0	0
24.18648	-0.190529	0.354711	0	0	0	0	0	0
24.20336	-0.190529	0.354711	0	0	0	0	0	0
24.21962	-0.190529	0.354711	0	0	0	0	0	0
24.23618	-0.190529	0.354711	0	0	0	0	0	0
24.25275	-0.190529	0.354711	0	0	0	0	0	0
24.26941	-0.190529	0.354711	0	0	0	0	0	0
24.28592	-0.190529	0.354711	0	0	0	0	0	0
24.30245	-0.190529	0.354711	0	0	0	0	0	0
24.31902	-0.1905036	0.3546931	0.00153084	-0.001079323	0.04624876	-0.03260782	0	0
24.33559	-0.1904782	0.3546753	0.001531739	-0.001077524	2.714469E-05	5.428939E-05	0	0
24.35215	-0.1904275	0.3546396	0.003063831	-0.002155297	0.04624129	-0.03252911	0	0
24.36872	-0.1902499	0.3544788	0.01072038	-0.009703115	0.2310883	-0.2278067	0	0
24.38529	-0.1900976	0.3543717	0.009190436	-0.006466944	-0.04617369	0.09766783	0	0
24.402	-0.1897931	0.354086	0.01821609	-0.01709213	0.2711618	-0.319217	0	0
24.41842	-0.1890062	0.3534966	0.04793712	-0.03590337	0.897034	-0.5677571	0	0
24.43499	-0.1868728	0.3518893	0.1287695	-0.09701675	2.450813	-1.852939	0	0
24.45155	-0.1823719	0.3484427	0.2716764	-0.2080377	4.312938	-3.35062	0	0
24.46812	-0.1767416	0.3442819	0.3398438	-0.2511459	2.057295	-1.301007	0	0
24.48469	-0.1701033	0.3392819	0.4007376	-0.3018368	1.837886	-1.529945	0	0
24.50503	-0.1656266	0.3272637	0.2200737	-0.5908096	-4.895086	-7.829712	0	0
24.5216	-0.1680576	0.3215666	-0.1467385	-0.3438795	-9.938257	6.690221	0	0
24.55473	-0.1802078	0.3056681	-0.3666924	-0.4798158	-4.425481	-2.735042	0	0
24.5713	-0.1864663	0.3012367	-0.377764	-0.2674832	-0.2227609	4.272139	0	0
24.58813	-0.1945346	0.2951958	-0.4791714	-0.3587626	-3.035669	-2.732481	0	0
24.60443	-0.1960035	0.2938373	-0.09012306	-0.08335284	11.74083	8.311404	0	0
24.621	-0.1989639	0.2839854	-0.178733	-0.5947972	-2.696449	-15.56353	0	0
24.63756	-0.1986604	0.2760071	0.01831791	-0.4815706	5.947692	3.41758	0	0
24.65418	-0.197598	0.2639426	0.06393749	-0.7260424	1.374744	-7.367148	0	0
24.6707	-0.1969654	0.2572257	0.03830371	-0.4067011	-0.7736735	9.638293	0	0
24.68726	-0.1958516	0.2421663	0.06722923	-0.908987	0.8743328	-15.18261	0	0
24.70383	-0.1951932	0.2302474	0.03974067	-0.7194264	-0.8296064	5.72095	0	0
24.7204	-0.1945093	0.2180439	0.04127961	-0.7366038	0.04644518	-0.518415	0	0
24.77027	-0.1910871	0.1805647	0.0686257	-0.7515724	0.4116225	-0.225312	0	0
24.78678	-0.1891077	0.1673213	0.1198732	-0.8020533	0.7720374	-0.7604888	0	0
24.80323	-0.1875587	0.1578058	0.09412668	-0.5782201	-0.7809422	6.789301	0	0
24.8198	0	0	11.31977	-9.524078	339.9057	-270.8753	0	0
24.83637	-0.1822701	0.1380366	-11.00311	8.332863	-673.7058	538.9236	0	0
24.85333	-0.1810737	0.1329192	0.07055327	-0.3017614	330.3249	-257.5688	0	0
24.8695	-0.1756193	0.1218662	0.3372218	-0.6833685	8.048534	-11.51759	0	0
24.88607	-0.173986	0.1179938	0.09858447	-0.2337391	-7.288517	13.73269	0	0
24.90264	-0.1691062	0.1120148	0.2945473	-0.3608919	5.914169	-3.83748	0	0
24.9192	-0.1630911	0.1077134	0.3630744	-0.2596321	2.068153	3.056029	0	0
24.93577	-0.1602201	0.105662	0.1732952	-0.1238222	-5.727547	4.09875	0	0
24.95241	-0.1557288	0.1024549	0.2699437	-0.1927595	2.910657	-2.076111	0	0
24.96891	-0.1495848	0.0980714	0.3722679	-0.2656006	3.087441	-2.197843	0	0
24.98547	-0.1458001	0.09537315	0.2285739	-0.1629605	-4.346201	3.104476	0	0
25.00204	-0.1415728	0.09236096	0.2551592	-0.181816	0.8025759	-0.5692243	0	0
25.0186	-0.1401024	0.09131357	0.08876655	-0.06322773	-5.022028	3.579207	0	0
25.03546	-0.1358683	0.08829864	0.2511206	-0.1788113	4.857078	-3.457863	0	0
25.05197	-0.1327928	0.08610968	0.1863398	-0.1326297	-1.941566	1.384122	0	0
25.06848	-0.1295597	0.08380918	0.1957871	-0.1393076	0.2861254	-0.2022499	0	0
25.08487	-0.1269452	0.08194948	0.1595325	-0.1134799	-1.101906	0.7849928	0	0
25.10144	-0.1233703	0.07940721	0.2157864	-0.1534519	1.706982	-1.212918	0	0
25.118	-0.1208814	0.07763778	0.1502256	-0.1068031	-1.978628	1.407864	0	0
25.13457	-0.1204665	0.07730593	0.02504659	-0.02003044	-3.77791	2.618803	0	0
25.15114	-0.1204665	0.07730593	0	0	-0.7559076	0.6045198	0	0
25.16771	-0.1204665	0.07730593	0	0	0	0	0	0
25.18456	-0.1204665	0.07730593	0	0	0	0	0	0
25.20107	-0.1204665	0.07730593	0	0	0	0	0	0
25.22104	-0.1204665	0.07730593	0	0	0	0	0	0
25.23761	-0.1204665	0.07730593	0	0	0	0	0	0
25.28731	-0.1204665	0.07730593	0	0	0	0	0	0
25.30387	-0.1204665	0.07730593	0	0	0	0	0	0
25.32066	-0.1204665	0.07730593	0	0	0	0	0	0
25.33718	-0.1204665	0.07730593	0	0	0	0	0	0
25.35369	-0.1204924	0.07728749	-0.001570894	-0.00111691	-0.04756849	-0.03382132	0	0
25.37014	-0.1204924	0.07728749	0	0	0.04765105	0.03388002	0	0
25.38671	-0.1204924	0.07725061	0	-0.002225654	0	-0.06739538	0	0
25.40328	-0.1205184	0.07723217	-0.001565468	-0.001113052	-0.04724592	0.0335784	0	0
25.41984	-0.1205443	0.07721374	-0.001565648	-0.00111273	-5.439089E-06	9.708142E-06	0	0
25.43641	-0.1205443	0.07721374	0	0	0.04725408	0.0335842	0	0
25.45298	-0.1205702	0.0771953	-0.001565468	-0.001113052	-0.04724592	-0.03359197	0	0
25.46954	-0.1205702	0.0771953	0	0	0.04724592	0.03359197	0	0
25.48628	-0.1205443	0.07717687	0.00154959	-0.001101318	0.04652836	-0.03306842	0	0
25.50268	-0.1205443	0.07717687	0	0	-0.04676674	0.03323783	0	0
25.51925	-0.1205443	0.07717687	0	0	0	0	0	0
25.53581	-0.1205443	0.07717687	0	0	0	0	0	0
25.56894	-0.1204924	0.07713999	0.001565558	-0.001113116	0.0315003	-0.0223968	0	0
25.60208	-0.1195327	0.07642087	0.02896287	-0.02170191	0.4134262	-0.3106855	0	0
25.61887	-0.1141334	0.07254653	0.321534	-0.2307212	5.859783	-4.186358	0	0
25.63521	-0.1086494	0.06861316	0.3356525	-0.2407447	0.4261469	-0.3025435	0	0
25.6519	-0.104929	0.06597032	0.2229214	-0.1583549	-3.413233	2.494569	0	0
25.66841	-0.09776626	0.06073504	0.4337918	-0.3170607	6.351285	-4.780121	0	0
25.68493	-0.09320287	0.05701254	0.2763376	-0.2254176	-4.767621	2.774899	0	0
25.70148	-0.09307242	0.05098611	0.007880921	-0.3640908	-8.118864	-4.193855	0	0
25.71846	-0.09667141	0.0448202	-0.2119643	-0.363145	-6.55644	0.02820677	0	0
25.73496	-0.1030286	0.03883043	-0.3851861	-0.3629217	-5.173348	0.006669218	0	0
25.75147	-0.1133801	0.03145091	-0.6269798	-0.4469728	-7.323906	-2.545899	0	0
25.76774	-0.1205184	0.0262801	-0.438696	-0.3177815	5.743581	3.940968	0	0
25.78449	-0.129689	0.01966104	-0.5475547	-0.3952044	-3.29675	-2.344727	0	0
25.80088	-0.1341629	0.0164218	-0.2729965	-0.1976605	8.285707	5.961545	0	0
25.81744	-0.1417792	0.01092879	-0.4598247	-0.3316351	-5.669816	-4.065829	0	0
25.83403	-0.147989	0.006404061	-0.3744411	-0.2728303	2.575842	1.774016	0	0
25.86714	-0.1503309	0.004731582	-0.07071793	-0.05050461	6.111157	4.473373	0	0
25.89329	-0.1556774	0.000781988	-0.2044584	-0.1510375	-2.256647	-1.696325	0	0
25.90986	-0.1557545	0.0007631693	-0.004649548	-0.001135769	4.677296	3.509028	0	0
25.92643	-0.1557288	0.0007443504	0.001549728	-0.001135907	0.1870838	-4.156138E-06	0	0
25.94311	-0.1557545	0.0007631693	-0.001539625	0.001128501	-0.09293192	0.06811646	0	0
25.95956	-0.1557545	0.0007631693	0	0	0.04646863	-0.03406019	0	0
25.97613	-0.1557545	0.0007631693	0	0	0	0	0	0
25.9927	-0.1557545	0.0007631693	0	0	0	0	0	0
26.00926	-0.1557545	0.0007631693	0	0	0	0	0	0
26.02583	-0.1557288	0.0007443504	0.001549728	-0.001135907	0.04677358	-0.03428371	0	0
26.04268	-0.1557288	0.0007443504	0	0	-0.04638108	0.03399602	0	0
26.05896	-0.1557288	0.0007443504	0	0	0	0	0	0
26.07553	-0.1557288	0.0007443504	0	0	0	0	0	0
26.0921	-0.1557288	0.0007443504	0	0	0	0	0	0
26.10866	-0.1557288	0.0007443504	0	0	0	0	0	0
26.12523	-0.1557288	0.0007443504	0	0	0	0	0	0
26.1418	-0.1557288	0.0007443504	0	0	0	0	0	0
26.15836	-0.1557288	0.0007443504	0	0	0	0	0	0
26.17493	-0.1557288	0.0007443504	0	0	0	0	0	0
26.1915	-0.1557288	0.0007443504	0	0	0	0	0	0
26.20807	-0.1557288	0.0007443504	0	0	0	0	0	0
26.22463	-0.1557288	0.0007443504	0	0	0	0	0	0
26.24132	-0.1557288	0.0007443504	0	0	0	0	0	0
26.25776	-0.1557288	0.0007443504	0	0	0	0	0	0
26.27433	-0.1557288	0.0007443504	0	0	0	0	0	0
26.2909	-0.1557288	0.0007443504	0	0	0	0	0	0
26.30746	-0.1557288	0.0007443504	0	0	0	0	0	0
26.32403	-0.1557288	0.0007443504	0	0	0	0	0	0
26.34089	-0.1557288	0.0007443504	0	0	0	0	0	0
26.42345	-0.1557288	0.0007443504	0	0	0	0	0	0
26.47348	-0.1557288	0.0007443504	0	0	0	0	0	0
26.4897	-0.1557288	0.0007443504	0	0	0	0	0	0
26.50627	-0.1557288	0.0007443504	0	0	0	0	0	0
26.52302	-0.1557288	0.0007443504	0	0	0	0	0	0
26.5394	-0.1557288	0.0007443504	0	0	0	0	0	0
26.55604	-0.1557288	0.0007443504	0	0	0	0	0	0
26.57255	-0.1557288	0.0007443504	0	0	0	0	0	0
26.59557	-0.1557288	0.0007443504	0	0	0	0	0	0
26.61214	-0.1557288	0.0007443504	0	0	0	0	0	0
26.62871	-0.1557802	0.0008196251	-0.003100355	0.004543588	-0.09356891	0.1371258	0	0
26.64527	-0.1559599	0.001327685	-0.01085079	0.03066655	-0.2339087	0.7883925	0	0
26.66184	-0.1570897	0.003622402	-0.06819253	0.1385094	-1.730577	3.254704	0	0
26.67841	-0.1600662	0.00753111	-0.1796623	0.2359301	-3.364165	2.940161	0	0
26.69514	-0.1642695	0.0150353	-0.2511655	0.4484111	-2.147095	6.380369	0	0
26.71154	-0.1671878	0.03189857	-0.1779547	1.028287	2.209507	17.50068	0	0
26.72817	-0.167853	0.04887002	-0.04001262	1.020872	4.177047	-0.2245148	0	0
26.74468	-0.1681344	0.06837296	-0.01703701	1.180871	0.6932857	4.827935	0	0
26.76124	-0.1678018	0.09572199	0.02008106	1.651551	1.122228	14.23055	0	0
26.77781	-0.1672646	0.1167693	0.03243006	1.27042	0.3727795	-11.5052	0	0
26.79438	-0.1667784	0.138528	0.02934589	1.313356	-0.09308031	1.295796	0	0
26.81094	-0.1665737	0.1678284	0.01235735	1.768574	-0.5127153	13.73852	0	0
26.82751	-0.1666504	0.1826068	-0.004633894	0.8920263	-0.5127967	-26.45427	0	0
26.84408	-0.1670087	0.2121068	-0.02162514	1.780624	-0.5127967	26.81793	0	0
26.86065	-0.1673413	0.2265826	-0.02007721	0.8737633	0.04671659	-27.36911	0	0
26.89378	-0.1696943	0.2920854	-0.07101226	1.976878	-1.024815	22.19471	0	0
26.91035	-0.1705634	0.3139219	-0.0524587	1.318051	0.3732984	-13.25562	0	0
26.92691	-0.1709723	0.321138	-0.02468052	0.4355644	0.838347	-26.63351	0	0
26.94348	-0.1732967	0.3561219	-0.1403057	2.111634	-3.489575	50.5839	0	0
26.96005	-0.1756448	0.3818837	-0.1417313	1.554986	-0.04302496	-16.79968	0	0
26.97685	-0.1774556	0.3994964	-0.1077488	1.048022	1.018266	-15.19089	0	0
26.99337	-0.1797493	0.4215534	-0.1388934	1.335669	-0.9347255	8.632975	0	0
27.00988	-0.1809718	0.4318076	-0.07404727	0.6210901	1.963616	-21.63826	0	0
27.02631	-0.1827537	0.445951	-0.108414	0.8605337	-1.043134	7.267838	0	0
27.0429	-0.1858055	0.4616286	-0.1839989	0.9452137	-2.288933	2.564357	0	0
27.05945	-0.1893616	0.4700918	-0.2149172	0.5114841	-0.9331676	-13.09074	0	0
27.07601	-0.1951172	0.4771401	-0.3474098	0.4254368	-4.00117	-2.598561	0	0
27.09294	-0.196206	0.480261	-0.06434217	0.1844285	8.452498	-7.196589	0	0
27.10915	-0.195573	0.4797377	0.03904687	-0.03227953	3.120467	-6.540639	0	0
27.12571	-0.1954971	0.4796836	0.004585324	-0.003266751	-1.051369	0.8851355	0	0
27.14247	-0.1953958	0.4793949	0.006043884	-0.01722734	0.04376747	-0.4189199	0	0
27.15885	-0.1948133	0.4789078	0.03557026	-0.02974319	0.8911079	-0.3777291	0	0
27.17542	-0.1924058	0.4769777	0.1453147	-0.1164985	3.331269	-2.63344	0	0
27.19201	-0.1913915	0.4760039	0.061134	-0.05869209	-2.538678	1.743297	0	0
27.29158	-0.1728626	0.4618806	0.1860862	-0.1418417	1.07566	-0.7157994	0	0
27.30795	-0.1717132	0.4610347	0.07021055	-0.05166645	-0.9994279	0.7777615	0	0
27.32452	-0.1717643	0.4610707	-0.003084166	0.002173037	-2.225233	1.63457	0	0
27.3441	-0.1717899	0.4609808	-0.001303858	-0.004593172	0.04924001	-0.1871409	0	0
27.36067	-0.1717899	0.4609448	0	-0.002173037	0.03606232	0.06693646	0	0
27.37724	-0.1718154	0.4608908	-0.001541633	-0.003257757	-0.04652658	-0.03273691	0	0
27.39381	-0.1718154	0.4608548	0	-0.002173037	0.04652658	0.03273691	0	0
27.41037	-0.1717899	0.4608008	0.001541633	-0.003257757	0.04652658	-0.03273691	0	0
27.42694	-0.1718154	0.4607828	-0.001541633	-0.001086519	-0.09305315	0.0655281	0	0
27.44351	-0.1717899	0.4607648	0.001541633	-0.001086519	0.09305315	0	0	0
27.46008	-0.1717899	0.4607648	0	0	-0.04652658	0.03279119	0	0
27.47664	-0.1717899	0.4607289	0	-0.002171238	0	-0.06552809	0	0
27.49322	-0.1718154	0.4607109	-0.001540392	-0.001085644	-0.04647039	0.03275011	0	0
27.50978	-0.1718154	0.4607109	0	0	0.04649179	0.03276668	0	0
27.55992	-0.1717643	0.4606749	0.001018763	-0.0007180082	0.01527556	-0.01076598	0	0
27.57651	-0.1717899	0.4606569	-0.001539506	-0.00108502	-0.03833733	-0.005499904	0	0
27.59305	-0.1718154	0.4606389	-0.001543766	-0.00108622	-0.0001285561	-3.623743E-05	0	0
27.6098	-0.1718154	0.4606389	0	0	0.04636144	0.03262071	0	0
27.62618	-0.171841	0.4606209	-0.001560316	-0.001099045	-0.04709315	-0.03317115	0	0
27.64275	-0.171841	0.4606209	0	0	0.0473576	0.03335742	0	0
27.65934	-0.1718665	0.4606029	-0.001539683	-0.001085144	-0.04643565	-0.03272711	0	0
27.67588	-0.1718665	0.4605669	0	-0.002176294	0.04647308	-0.03293476	0	0
27.69245	-0.1718665	0.4605669	0	0	0	0.06572988	0	0
27.70902	-0.171841	0.4605129	0.001541633	-0.003257757	0.04652658	-0.0983193	0	0
27.72558	-0.1715855	0.460333	0.01542083	-0.01086159	0.4188749	-0.2294841	0	0
27.74215	-0.1687994	0.4583719	0.1681711	-0.1183676	4.610013	-3.244537	0	0
27.75872	-0.1648329	0.4555841	0.2394448	-0.1682912	2.151168	-1.506786	0	0
27.77542	-0.1606047	0.4526175	0.2530843	-0.1775727	0.4099426	-0.2789592	0	0
27.79185	-0.1583473	0.4510358	0.1374272	-0.09629369	-3.490739	2.453147	0	0
27.80844	-0.158296	0.4509999	0.003092317	-0.002165699	-4.068052	2.850469	0	0
27.82498	-0.1583217	0.4510178	-0.001551687	0.001086721	-0.1401644	0.0981639	0	0
27.84155	-0.158296	0.4509999	0.001548829	-0.00108472	0.09366	-0.06559464	0	0
27.85812	-0.1583217	0.4509819	-0.001548829	-0.00108472	-0.09348748	0	0	0
27.97408	-0.1583473	0.450892	-0.0002212649	-0.0007750695	0.01001663	0.002336349	0	0
27.99108	-0.158373	0.45091	-0.00151006	0.001057568	-0.009693012	0.01378324	0	0
28.00722	-0.158373	0.45091	0	0	0.04557633	-0.03191931	0	0
28.02378	-0.158373	0.45091	0	0	0	0	0	0
28.04061	-0.158373	0.45091	0	0	0	0	0	0
28.05692	-0.158373	0.45091	0	0	0	0	0	0
28.07348	-0.1583987	0.4509279	-0.001548829	0.00108472	-0.0471153	0.03299713	0	0
28.10662	-0.158373	0.4509459	0.0007744589	0.000542391	0.04674643	-0.01091209	0	0
28.12318	-0.158373	0.4509459	0	0	-0.01558274	-0.01091335	0	0
28.14383	-0.1583987	0.4509279	-0.001243127	-0.0008706223	-0.03340972	-0.02339844	0	0
28.16039	-0.158373	0.45091	0.001548829	-0.00108472	0.07503532	-0.005753981	0	0
28.17721	-0.158373	0.45091	0	0	-0.04639654	0.03249374	0	0
28.19353	-0.158373	0.45091	0	0	0	0	0	0
28.21023	-0.158373	0.45091	0	0	0	0	0	0
28.22666	-0.158373	0.45091	0	0	0	0	0	0
28.24326	-0.1583473	0.450892	0.001546336	-0.001082974	0.04682485	-0.03279371	0	0
28.25979	-0.1583217	0.450874	0.001551687	-0.001086721	0.0001615025	-0.0001131065	0	0
28.27636	-0.1582447	0.4507482	0.004646486	-0.007593038	0.09348732	-0.196542	0	0
28.29293	-0.1579881	0.4505326	0.01549098	-0.01301843	0.3272876	-0.1637388	0	0
28.3098	-0.1577057	0.450263	0.0167306	-0.01597469	0.03706818	-0.08840083	0	0
28.32631	-0.156987	0.4497598	0.04352962	-0.03047389	0.8026968	-0.4342868	0	0
28.34282	-0.1518741	0.4461845	0.3096501	-0.2165264	8.058435	-5.633884	0	0
28.35934	-0.1474226	0.4430416	0.2695895	-0.1903427	-1.213082	0.7928713	0	0
28.37585	-0.1422434	0.4393254	0.3136687	-0.2250617	1.33477	-1.051332	0	0
28.39236	-0.1384248	0.4364899	0.2312597	-0.1717288	-2.495438	1.614983	0	0
28.40889	-0.1360749	0.4333143	0.1421511	-0.1920972	-2.696756	-0.6164218	0	0
28.42546	-0.1403088	0.4242057	-0.2555576	-0.5497963	-12.01602	-10.8072	0	0
28.44203	-0.1449242	0.4194929	-0.2785841	-0.2844628	-0.6949393	8.007783	0	0
28.45859	-0.155138	0.412275	-0.6165102	-0.4356723	-10.19863	-4.563514	0	0
28.47516	-0.1596045	0.4091599	-0.2695969	-0.1880325	10.46986	7.473786	0	0
28.49193	-0.17041	0.4015718	-0.6442847	-0.4524462	-11.23888	-7.931171	0	0
28.5083	-0.175951	0.3976897	-0.3386239	-0.2372454	9.224859	6.494773	0	0
28.52496	-0.1826264	0.3930037	-0.4006708	-0.2812572	-1.878851	-1.332727	0	0
28.54143	-0.1867966	0.3900712	-0.2531708	-0.1780356	4.451815	3.115412	0	0
28.55799	-0.1904021	0.3875324	-0.2176284	-0.1532423	1.075768	0.750424	0	0
28.57456	-0.1928621	0.3857625	-0.1484879	-0.1068278	2.086666	1.400792	0	0
28.59113	-0.1926847	0.3858877	0.01071138	0.007553462	4.804643	3.452033	0	0
28.60802	-0.1926847	0.3858877	0	0	-0.3201738	-0.2257805	0	0
28.62426	-0.1926847	0.3858877	0	0	0	0	0	0
28.64083	-0.1926593	0.3858698	0.00152994	-0.001079323	0.0466273	-0.03289404	0	0
28.65755	-0.1926847	0.3858877	-0.001515978	0.001069473	-0.09150461	0.06455351	0	0
28.67396	-0.1926593	0.3858698	0.001544342	-0.001089483	0.09236596	-0.06516116	0	0
28.69057	-0.1926847	0.3858877	-0.0015259	0.001076473	-0.09297048	0.06558765	0	0
28.74023	-0.1926847	0.3858877	0	0	0.02302654	-0.01624447	0	0
28.7568	-0.1926593	0.3858698	0.00152994	-0.001079323	0.02310281	-0.01629828	0	0
28.77336	-0.1926593	0.3858698	0	0	-0.04617369	0.03257403	0	0
28.78993	-0.1926593	0.3858698	0	0	0	0	0	0
28.80666	-0.1926847	0.3858877	-0.001515287	0.001068985	-0.04551137	0.03210679	0	0
28.82306	-0.1926593	0.3859055	0.001544881	0.001089863	0.09235603	0.0006300865	0	0
28.83963	-0.1926593	0.3859055	0	0	-0.04685113	-0.03305194	0	0
28.85623	-0.1926593	0.3859055	0	0	0	0	0	0
28.87621	-0.1926593	0.3859055	0	0	0	0	0	0
28.89278	-0.192634	0.3858877	0.00152994	-0.001079323	0.04186042	-0.02953116	0	0
28.90935	-0.192634	0.3858877	0	0	-0.04617369	0.03257403	0	0
28.92627	-0.192634	0.3858877	0	0	0	0	0	0
28.94248	-0.192634	0.3858877	0	0	0	0	0	0
28.95905	-0.192634	0.3858519	0	-0.002158646	0	-0.06586082	0	0
28.97561	-0.1925833	0.3858162	0.00306078	-0.002156847	0.09237453	5.428939E-05	0	0
28.99218	-0.1924819	0.3857446	0.006120661	-0.004317292	0.09234739	-0.06520236	0	0
29.00875	-0.1896408	0.3837783	0.1714882	-0.118686	4.990803	-3.451653	0	0
29.04027	-0.1879651	0.3825986	0.05316377	-0.03742814	-2.460676	1.689838	0	0
29.05684	-0.1863901	0.3814905	0.09506033	-0.06687975	0.8712463	-0.6124514	0	0
29.0734	-0.1865171	0.3815799	-0.007669473	0.005395438	-3.100391	2.181269	0	0
29.08997	-0.1865171	0.3815799	0	0	0.2314785	-0.162844	0	0
29.10654	-0.1865171	0.3815799	0	0	0	0	0	0
29.1231	-0.1865171	0.3815799	0	0	0	0	0	0
29.13967	-0.1865171	0.3815799	0	0	0	0	0	0
29.15641	-0.1865171	0.3815799	0	0	0	0	0	0
29.17292	-0.1865171	0.3815799	0	0	0	0	0	0
29.18943	-0.1865171	0.3815799	0	0	0	0	0	0
29.20594	-0.1865171	0.3815799	0	0	0	0	0	0
29.2225	-0.1865171	0.3815799	0	0	0	0	0	0
29.23907	-0.1865171	0.3815799	0	0	0	0	0	0
29.25564	-0.1865171	0.3815799	0	0	0	0	0	0
29.27221	-0.1865171	0.3815799	0	0	0	0	0	0
29.28877	-0.1865171	0.3815799	0	0	0	0	0	0
29.30534	-0.1865171	0.3815799	0	0	0	0	0	0
29.32191	-0.1865171	0.3815799	0	0	0	0	0	0
29.33854	-0.1865171	0.3815799	0	0	0	0	0	0
29.35505	-0.1865171	0.3815799	0	0	0	0	0	0
29.37161	-0.1864917	0.3815977	0.001534775	0.001078393	0.04641579	0.03261356	0	0
29.38817	-0.1864917	0.3815977	0	0	-0.04633828	-0.03255909	0	0
29.40474	-0.1864917	0.3815977	0	0	0	0	0	0
29.42131	-0.1864917	0.3815977	0	0	0	0	0	0
29.43787	-0.1864917	0.3815977	0	0	0	0	0	0
29.45444	-0.1864409	0.3816335	0.003067976	0.002158646	0.09259702	0.06515182	0	0
29.47101	-0.1864663	0.3816513	-0.001534438	0.001077524	-0.1389011	-0.03262832	0	0
29.48765	-0.1864409	0.3816692	0.001527754	0.001074622	0.0922154	-8.740543E-05	0	0
29.50836	-0.1864409	0.3816692	0	0	-0.04090613	-0.02877337	0	0
29.52492	-0.1864409	0.3816692	0	0	0	0	0	0
29.54169	-0.1864409	0.3816692	0	0	0	0	0	0
29.55806	-0.1864409	0.3816692	0	0	0	0	0	0
29.57462	-0.1864663	0.3816871	-0.001534438	0.001079323	-0.04658563	0.03276832	0	0
29.59122	-0.1864663	0.3816871	0	0	0.04626681	-0.03254406	0	0
29.60776	-0.1864409	0.381705	0.001537447	0.00108144	0.0464029	0.03263979	0	0
29.62432	-0.1864409	0.381705	0	0	-0.04644568	-0.03266988	0	0
29.64089	-0.1864409	0.381705	0	0	0	0	0	0
29.65777	-0.1864409	0.381705	0	0	0	0	0	0
29.67428	-0.1864409	0.381705	0	0	0	0	0	0
29.69059	-0.1864409	0.381705	0	0	0	0	0	0
29.7073	-0.1864409	0.381705	0	0	0	0	0	0
29.72372	-0.1864409	0.381705	0	0	0	0	0	0
29.74029	-0.1864409	0.381705	0	0	0	0	0	0
29.75686	-0.1864409	0.381705	0	0	0	0	0	0
29.77343	-0.1864155	0.3816871	0.001533538	-0.001079323	0.04628228	-0.03257403	0	0
29.78999	-0.1864155	0.3816871	0	0	-0.04628228	0.03257403	0	0
29.80656	-0.1864155	0.3816871	0	0	0	0	0	0
29.82339	-0.1864409	0.381705	-0.001509726	0.001062564	-0.04520711	0.03181732	0	0
29.8399	-0.1864409	0.381705	0	0	0.04528211	-0.0318701	0	0
29.87283	-0.1864409	0.381705	0	0	0	0	0	0
29.88939	-0.1864409	0.381705	0	0	0	0	0	0
29.90596	-0.1864409	0.381705	0	0	0	0	0	0
29.92296	-0.1864409	0.381705	0	0	0	0	0	0
29.93909	-0.1864409	0.381705	0	0	0	0	0	0
29.95566	-0.1864409	0.381705	0	0	0	0	0	0
29.97223	-0.1864409	0.381705	0	0	0	0	0	0
29.9888	-0.1864409	0.381705	0	0	0	0	0	0
30.00536	-0.1864155	0.3816871	0.001533538	-0.001079323	0.04628228	-0.03257403	0	0
30.02193	-0.1864155	0.3816871	0	0	-0.04628228	0.03257403	0	0
30.0385	-0.1864155	0.3816871	0	0	0	0	0	0
30.05507	-0.1864155	0.3816871	0	0	0	0	0	0
30.07163	-0.1864155	0.3816871	0	0	0	0	0	0
30.0882	-0.1864155	0.3816871	0	0	0	0	0	0
30.10477	-0.1864155	0.3816871	0	0	0	0	0	0
30.12133	-0.1864155	0.3816871	0	0	0	0	0	0
30.14162	-0.1864155	0.3816871	0	0	0	0	0	0
30.15819	-0.1864155	0.3816871	0	0	0	0	0	0
30.17475	-0.1864155	0.3816871	0	0	0	0	0	0
30.19132	-0.1864409	0.381705	-0.001533538	0.001079323	-0.04628228	0.03257403	0	0
30.20789	-0.1864409	0.381705	0	0	0.04628228	-0.03257403	0	0
30.22445	-0.1864409	0.381705	0	0	0	0	0	0
30.24119	-0.1864409	0.381705	0	0	0	0	0	0
30.25759	-0.1864409	0.381705	0	0	0	0	0	0
30.27415	-0.1864409	0.381705	0	0	0	0	0	0
30.29072	-0.1864155	0.3817228	0.001533538	0.001077524	0.04628228	0.03251974	0	0
30.30729	-0.1864155	0.3817228	0	0	-0.04628228	-0.03251974	0	0
30.32386	-0.1864155	0.3817228	0	0	0	0	0	0
30.34042	-0.1864155	0.3817228	0	0	0	0	0	0
30.35699	-0.1864155	0.3817228	0	0	0	0	0	0
30.37356	-0.1864155	0.3817228	0	0	0	0	0	0
30.3903	-0.1864155	0.3817228	0	0	0	0	0	0
30.40681	-0.1864155	0.3817228	0	0	0	0	0	0
30.42326	-0.1863901	0.3817407	0.001544921	0.001087335	0.04687949	0.03299436	0	0
30.43982	-0.1863901	0.3817407	0	0	-0.04680093	-0.03293907	0	0
30.45639	-0.1863901	0.3817407	0	0	0	0	0	0
30.47296	-0.1863901	0.3817407	0	0	0	0	0	0
30.48952	-0.1863901	0.3817407	0	0	0	0	0	0
30.50609	-0.1863901	0.3817407	0	0	0	0	0	0
30.52266	-0.1863901	0.3817407	0	0	0	0	0	0
30.53941	-0.1863901	0.3817407	0	0	0	0	0	0
30.55579	-0.1863901	0.3817407	0	0	0	0	0	0
30.57243	-0.1863901	0.3817407	0	0	0	0	0	0
30.58893	-0.1863901	0.3817407	0	0	0	0	0	0
30.60549	-0.1863901	0.3817407	0	0	0	0	0	0
30.72146	-0.1863901	0.3817407	0	0	0	0	0	0
30.73803	-0.1863901	0.3817407	0	0	0	0	0	0
30.75459	-0.1863901	0.3817407	0	0	0	0	0	0
30.77116	-0.1863901	0.3817407	0	0	0	0	0	0
30.78773	-0.1863901	0.3817407	0	0	0	0	0	0
30.8043	-0.1863646	0.3817228	0.001534438	-0.001079323	0.04630942	-0.03257403	0	0
30.82086	-0.1863646	0.3817228	0	0	-0.04630942	0.03257403	0	0
30.83743	-0.1863646	0.3817228	0	0	0	0	0	0
30.85399	-0.1863646	0.3817228	0	0	0	0	0	0
30.87064	-0.1863646	0.3817228	0	0	0	0	0	0
30.88713	-0.1863646	0.3817228	0	0	0	0	0	0
30.90703	-0.1863646	0.3817228	0	0	0	0	0	0
30.9236	-0.1863646	0.3817228	0	0	0	0	0	0
30.94016	-0.1863646	0.3817228	0	0	0	0	0	0
30.95673	-0.1863646	0.3817228	0	0	0	0	0	0
30.9733	-0.1863646	0.3817228	0	0	0	0	0	0
30.98987	-0.1863646	0.3817228	0	0	0	0	0	0
31.00643	-0.1863646	0.3817228	0	0	0	0	0	0
31.023	-0.1863646	0.3817228	0	0	0	0	0	0
31.03957	-0.1863646	0.3817228	0	0	0	0	0	0
31.05614	-0.1863646	0.3817228	0	0	0	0	0	0
31.07279	-0.1863646	0.3817228	0	0	0	0	0	0
31.0893	-0.1863646	0.3817228	0	0	0	0	0	0
31.10584	-0.1863646	0.3817228	0	0	0	0	0	0
31.1224	-0.1863646	0.3817228	0	0	0	0	0	0
31.13897	-0.1863646	0.3817228	0	0	0	0	0	0
31.15554	-0.1863646	0.3817228	0	0	0	0	0	0
31.17211	-0.1863646	0.3817228	0	0	0	0	0	0
31.18888	-0.1863646	0.3817228	0	0	0	0	0	0
31.20524	-0.1863646	0.3817228	0	0	0	0	0	0
31.2219	-0.1863646	0.3817228	0	0	0	0	0	0
31.23837	-0.1863646	0.3817228	0	0	0	0	0	0
31.25494	-0.1863646	0.3817228	0	0	0	0	0	0
31.27151	-0.1863646	0.3817228	0	0	0	0	0	0
31.28845	-0.1863646	0.3817228	0	0	0	0	0	0
31.30496	-0.1863901	0.3817407	-0.0015394	0.001082814	-0.04601419	0.03236637	0	0
31.32121	-0.1863901	0.3817407	0	0	0.04698934	-0.03305229	0	0
31.33799	-0.1863901	0.3817407	0	0	0	0	0	0
31.35434	-0.1863901	0.3817407	0	0	0	0	0	0
31.37091	-0.1863901	0.3817407	0	0	0	0	0	0
31.47031	-0.1863901	0.3817407	0	0	0	0	0	0
31.48688	-0.1863901	0.3817407	0	0	0	0	0	0
31.50345	-0.1863646	0.3817228	0.001534438	-0.001079323	0.04630942	-0.03257403	0	0
31.52001	-0.1863646	0.3817228	0	0	-0.04630942	0.03257403	0	0
31.53658	-0.1863646	0.3817228	0	0	0	0	0	0
31.55315	-0.1863646	0.3817228	0	0	0	0	0	0
31.56972	-0.1863646	0.3817228	0	0	0	0	0	0
31.58628	-0.1863646	0.3817228	0	0	0	0	0	0
31.65665	-0.1863646	0.3817228	0	0	0	0	0	0
31.67323	-0.1863901	0.3817407	-0.001533378	0.001078578	-0.01763511	0.01240453	0	0
31.71277	-0.1863901	0.3817407	0	0	0.02732696	-0.01922178	0	0
31.72933	-0.1863901	0.3817407	0	0	0	0	0	0
31.7459	-0.1863901	0.3817407	0	0	0	0	0	0
31.76247	-0.1863901	0.3817407	0	0	0	0	0	0
31.7793	-0.1864155	0.3817586	-0.001509213	0.001062203	-0.045184	0.03180106	0	0
31.7956	-0.1863901	0.3817765	0.001559025	0.001095432	0.09261028	0.001002994	0	0
31.81217	-0.1864155	0.3817943	-0.001533538	0.001079323	-0.09410296	-0.0004901906	0	0
31.82873	-0.1863901	0.3818122	0.001533538	0.001079323	0.09256455	0	0	0
31.8453	-0.1863646	0.3818301	0.001534438	0.001079323	2.714469E-05	0	0	0
31.86187	-0.1863392	0.3818479	0.001533538	0.001077524	-2.714469E-05	-5.428939E-05	0	0
31.87844	-0.1863138	0.3818658	0.001534438	0.001079323	2.714469E-05	5.428939E-05	0	0
31.895	-0.1863392	0.3819194	-0.001534438	0.00323617	-0.09261884	0.06509378	0	0
31.91157	-0.1863646	0.3820803	-0.001533538	0.00971031	2.714469E-05	0.1953899	0	0
31.92841	-0.1863901	0.3821339	-0.001509585	0.003183755	0.0007170124	-0.1953637	0	0
31.9447	-0.1863646	0.3823663	0.001560305	0.01426225	0.09265479	0.3343689	0	0
31.96143	-0.1865679	0.382688	-0.0121507	0.01922844	-0.4151851	0.150382	0	0
31.97794	-0.1871523	0.3836353	-0.03539452	0.05737891	-0.6992459	1.147684	0	0
31.9944	-0.1895139	0.3857983	-0.1434878	0.1314173	-3.278681	2.24573	0	0
32.01097	-0.1920001	0.3879793	-0.1500864	0.131662	-0.1998121	0.007409106	0	0
32.02753	-0.1996718	0.395114	-0.4630665	0.4306535	-9.446302	9.024101	0	0
32.0441	-0.2046975	0.4021443	-0.3033491	0.4243484	4.820278	-0.1902865	0	0
32.06067	-0.2081513	0.4141552	-0.2084721	0.7249813	2.863393	9.073118	0	0
32.07724	-0.209184	0.4248868	-0.06233091	0.6477557	4.410552	-2.330672	0	0
32.09383	-0.2106692	0.440941	-0.08948194	0.9672525	-0.8186659	9.633558	0	0
32.11037	-0.2124803	0.4537321	-0.1095499	0.7736791	-0.6057204	-5.84273	0	0
32.1435	-0.2154958	0.4769597	-0.09100762	0.7010095	0.3733283	-1.463125	0	0
32.16007	-0.2196356	0.5005033	-0.2498777	1.421094	-3.196472	14.48813	0	0
32.17664	-0.2226416	0.5148972	-0.1814405	0.8688191	2.065438	-16.6677	0	0
32.1932	-0.2282667	0.5327741	-0.3395343	1.07905	-4.771282	6.34477	0	0
32.20977	-0.2353708	0.5438109	-0.4288034	0.6661834	-2.694144	-12.46033	0	0
32.22634	-0.2429219	0.5539055	-0.4557846	0.6093138	-0.8142962	-1.716325	0	0
32.24313	-0.2500496	0.5637316	-0.4243662	0.5850202	0.9417046	-0.7281543	0	0
32.25964	-0.2576683	0.5762522	-0.4614574	0.7583613	-1.113644	5.204482	0	0
32.27615	-0.2614294	0.589001	-0.227808	0.7721884	7.075991	0.4187486	0	0
32.29268	-0.2624114	0.5984781	-0.05944066	0.5736226	5.097182	-6.011414	0	0
32.30917	-0.2630495	0.6042666	-0.03868127	0.3509337	0.6287637	-6.744835	0	0
32.32574	-0.2651829	0.6155964	-0.1287758	0.6838627	-2.72502	10.06984	0	0
32.3423	-0.267216	0.6187106	-0.1227154	0.1879749	0.1829032	-14.96592	0	0
32.35887	-0.267118	0.6246871	0.005911093	0.3607422	3.881956	5.214126	0	0
32.37881	-0.2684641	0.6286721	-0.06750556	0.1998547	-2.011049	-4.407072	0	0
32.39538	-0.2695646	0.6295147	-0.06643053	0.0508613	0.02944749	-4.081267	0	0
32.41195	-0.2695646	0.6295147	0	0	2.004877	-1.534997	0	0
32.42876	-0.2695646	0.6295147	0	0	0	0	0	0
32.44508	-0.2695891	0.6295334	-0.001498188	0.001147392	-0.04522059	0.03463236	0	0
32.46179	-0.2696135	0.6295521	-0.001464064	0.001119893	0.001033315	-0.0008327242	0	0
32.47821	-0.2696135	0.6295521	0	0	0.04418553	-0.03379843	0	0
32.49481	-0.2696135	0.6295521	0	0	0	0	0	0
32.51134	-0.2695891	0.6295334	0.001479941	-0.001132037	0.0446647	-0.03416495	0	0
32.52791	-0.2695891	0.6295334	0	0	-0.04471102	0.03420039	0	0
32.54448	-0.2695646	0.6295147	0.001475075	-0.001129691	0.04451784	-0.03409416	0	0
32.56105	-0.2695402	0.629496	0.001475075	-0.001129691	0	0	0	0
32.57761	-0.2695402	0.629496	0	0	-0.04451784	0.03409416	0	0
32.59418	-0.2694913	0.6294585	0.002951948	-0.002262981	0.08908998	-0.06829689	0	0
32.61075	-0.2694913	0.6294585	0	0	-0.08908998	0.06829689	0	0
32.62732	-0.2694913	0.6294585	0	0	0	0	0	0
32.64392	-0.2694668	0.6294398	0.001473481	-0.001127096	0.04441861	-0.03397672	0	0
32.66045	-0.2694668	0.6294398	0	0	-0.04446974	0.03401583	0	0
32.67702	-0.2694668	0.6294398	0	0	0	0	0	0
32.69358	-0.2694668	0.6294398	0	0	0	0	0	0
32.71015	-0.2694913	0.6294585	-0.001476874	0.001129691	-0.04457214	0.03409416	0	0
32.72672	-0.2694913	0.6294585	0	0	0.04457214	-0.03409416	0	0
32.74329	-0.2695157	0.6294772	-0.001475075	0.001129691	-0.04451784	0.03409416	0	0
32.75985	-0.2694913	0.629496	0.001475075	0.001133289	0.08903569	0.0001085788	0	0
32.77642	-0.2694913	0.629496	0	0	-0.04451784	-0.03420274	0	0
32.79303	-0.2694913	0.629496	0	0	0	0	0	0
32.80956	-0.2695157	0.6295147	-0.001479162	0.001132822	-0.04464119	0.03418862	0	0
32.82612	-0.2694913	0.629496	0.001475075	-0.001129691	0.08928239	-0.06837725	0	0
32.84269	-0.2694913	0.629496	0	0	-0.04451784	0.03409416	0	0
32.85925	-0.2694913	0.629496	0	0	0	0	0	0
32.87609	-0.2694668	0.6294772	0.001453447	-0.001115313	0.04351941	-0.03339492	0	0
32.89238	-0.2694424	0.6294585	0.00149959	-0.001148467	0.001392765	-0.001000706	0	0
32.90895	-0.2694424	0.6294585	0	0	-0.04563072	0.03494645	0	0
32.92552	-0.269369	0.6294023	0.004427023	-0.003389074	0.1336078	-0.1022825	0	0
32.94213	-0.2692957	0.6293461	0.004415605	-0.003382547	-0.0003440954	0.0001967031	0	0
32.95865	-0.2691489	0.6292338	0.008882433	-0.006802107	0.1348092	-0.1032025	0	0
32.97566	-0.2690022	0.6291214	0.00862915	-0.006606802	-0.007555386	0.005825899	0	0
32.99217	-0.2688065	0.6289716	0.01185052	-0.009072464	0.09611469	-0.07356685	0	0
33.0127	-0.2685375	0.6287282	0.01310891	-0.01185886	0.03397666	-0.07523286	0	0
33.02926	-0.2683173	0.6285598	0.01329006	-0.01016722	0.004883566	0.04560378	0	0
33.04583	-0.2680481	0.6283538	0.01624561	-0.0124302	0.08919857	-0.06829689	0	0
33.0624	-0.2677545	0.6281292	0.01772608	-0.0135599	0.04468071	-0.03409416	0	0
33.07896	-0.2672404	0.6277362	0.03102694	-0.02372352	0.4014207	-0.3067388	0	0
33.09553	-0.265379	0.6262767	0.1123575	-0.08809435	2.454562	-1.942715	0	0
33.11226	-0.2654035	0.6262954	-0.001464844	0.001119126	-3.419027	2.679819	0	0
33.12877	-0.2654035	0.6262954	0	0	0.04407714	-0.0336745	0	0
33.14528	-0.265428	0.6262767	-0.001483797	-0.001133607	-0.0449363	-0.03433089	0	0
33.16179	-0.265428	0.6262767	0	0	0.04492591	0.03432296	0	0
33.17836	-0.2654035	0.626258	0.001478673	-0.001129691	0.04469332	-0.03414526	0	0
33.19493	-0.265428	0.6262392	-0.001478673	-0.001129691	-0.08925286	0	0	0
33.21149	-0.265428	0.6262392	0	0	0.04462643	0.03409416	0	0
33.22833	-0.265428	0.6262019	0	-0.0022195	0	-0.06644156	0	0
33.24485	-0.265428	0.6262019	0	0	0	0.06654795	0	0
33.26136	-0.265428	0.6261644	0	-0.002267214	0	-0.06865385	0	0
33.27776	-0.265379	0.6260896	0.002986919	-0.00456032	0.09075136	-0.0696713	0	0
33.29433	-0.265379	0.6260522	0	-0.002259383	-0.09059387	0.06978789	0	0
33.37716	-0.2610118	0.6213425	0.05272025	-0.05685586	0.5303668	-0.5492417	0	0
33.39373	-0.2562898	0.6170505	0.2850258	-0.2590663	2.336999	-2.034241	0	0
33.4103	-0.2529132	0.6136772	0.2038104	-0.2036107	-2.451088	1.673654	0	0
33.42698	-0.2530365	0.6122805	-0.007394452	-0.08372398	-6.352234	3.605734	0	0
33.44343	-0.2514079	0.6082617	0.09899034	-0.2442652	3.210699	-4.845142	0	0
33.46	-0.2487151	0.6062357	0.1625362	-0.1222909	1.924464	3.693949	0	0
33.47656	-0.2466622	0.6046938	0.1239429	-0.09309146	-1.16488	0.8813424	0	0
33.52626	-0.2328061	0.5863219	0.2787846	-0.369643	2.336701	-4.173411	0	0
33.54283	-0.2335534	0.5748896	-0.04510851	-0.6900544	-4.887557	-4.835018	0	0
33.5594	-0.2338523	0.5617314	-0.01803908	-0.7942306	0.8169568	-3.144045	0	0
33.57597	-0.2340515	0.548398	-0.01202456	-0.8048044	0.1815188	-0.3191181	0	0
33.5926	-0.2341511	0.5325919	-0.005988389	-0.9503404	0.1818161	-4.383706	0	0
33.6091	-0.2340017	0.5220001	0.009053181	-0.6418314	0.4539555	9.310822	0	0
33.62567	-0.2339021	0.5150606	0.006012729	-0.4188709	-0.09194097	6.742157	0	0
33.64223	-0.231884	0.4977521	0.1218088	-1.044743	3.494732	-18.88887	0	0
33.65915	-0.2314104	0.4906448	0.02800904	-0.4202889	-2.801851	18.6528	0	0
33.67566	-0.2307122	0.4762023	0.04227936	-0.8745705	0.4269435	-13.59133	0	0
33.69194	-0.2288159	0.4592714	0.1164972	-1.04015	2.263352	-5.049521	0	0
33.7297	-0.2272428	0.4412462	0.04165641	-0.477294	-1.384843	10.415	0	0
33.74598	-0.2259684	0.4308929	0.07830905	-0.6362023	0.6782628	-2.940623	0	0
33.76272	-0.2249684	0.4236501	0.05971491	-0.4324993	-0.5631173	6.169077	0	0
33.77911	-0.2251434	0.4191525	-0.01068375	-0.274507	-2.12488	4.768764	0	0
33.79567	-0.224118	0.4115051	0.06189468	-0.4615977	2.202593	-5.677783	0	0
33.81224	-0.2224914	0.4058664	0.09818422	-0.3403519	1.09522	3.659204	0	0
33.82881	-0.2198612	0.397475	0.1587576	-0.5065083	1.828109	-5.014609	0	0
33.84538	-0.2177548	0.3901069	0.1271407	-0.4447387	-0.9542021	1.864211	0	0
33.86229	-0.2156465	0.3793101	0.1246195	-0.6381782	-0.07529099	-5.776829	0	0
33.87851	-0.2142147	0.3708226	0.08829173	-0.5233934	-1.096375	3.464211	0	0
33.89508	-0.2130083	0.3625696	0.07281833	-0.4981544	-0.4719872	0.7698694	0	0
33.91164	-0.2120277	0.3554075	0.05919188	-0.4323013	-0.4112473	1.987451	0	0
33.92834	-0.2115246	0.3499071	0.03012908	-0.3294298	-0.8736968	3.092562	0	0
33.94485	-0.2078238	0.3467819	0.2241572	-0.1892871	5.842999	4.220284	0	0
33.96134	-0.2040415	0.3441033	0.2293564	-0.1624288	0.1575477	0.8138632	0	0
33.97791	-0.2009103	0.3418533	0.1889994	-0.1358112	-1.22079	0.8051739	0	0
33.99489	-0.2007587	0.3417819	0.008927694	-0.004206326	-5.367221	3.922619	0	0
34.01104	-0.2007839	0.3417997	-0.001564714	0.001105264	-0.3166615	0.1603041	0	0
34.02761	-0.2007839	0.3417997	0	0	0.0478233	-0.03378085	0	0
34.04443	-0.2007839	0.3417997	0	0	0	0	0	0
34.06075	-0.2007587	0.3417819	0.001548621	-0.001093896	0.04673747	-0.03301385	0	0
34.07745	-0.2007587	0.3417819	0	0	-0.04689404	0.03312444	0	0
34.09396	-0.2007587	0.3417819	0	0	0	0	0	0
34.11044	-0.2007587	0.3417819	0	0	0	0	0	0
34.12701	-0.2007587	0.3417819	0	0	0	0	0	0
34.14358	-0.2007587	0.3417819	0	0	0	0	0	0
34.16014	-0.2007334	0.341764	0.001525443	-0.001077524	0.04603797	-0.03251974	0	0
34.17671	-0.2007334	0.341764	0	0	-0.04603797	0.03251974	0	0
34.19328	-0.2007334	0.3417283	0	-0.002155048	0	-0.06503949	0	0
34.20985	-0.2007081	0.3417105	0.001524544	-0.001077524	0.04601083	0.03251974	0	0
34.22641	-0.2006829	0.3416926	0.001525443	-0.001079323	2.714469E-05	-5.428939E-05	0	0
34.24307	-0.2006829	0.3416212	0	-0.004287391	-0.04591639	-0.096564	0	0
34.25961	-0.2007081	0.3416033	-0.001527554	-0.001080816	-0.04601161	0.0965856	0	0
34.29268	-0.2044452	0.3389247	-0.1130064	-0.08099803	-2.246925	-1.610781	0	0
34.30925	-0.2064124	0.3373533	-0.1187408	-0.09485091	-0.115528	-0.2790848	0	0
34.32582	-0.2063872	0.3373355	0.001520946	-0.001077524	3.629508	2.830086	0	0
34.34266	-0.2063368	0.3372997	0.002994054	-0.002121673	0.04409301	-0.03125342	0	0
34.38024	-0.2063116	0.3372819	0.0006709344	-0.000475047	-0.04268835	0.03025748	0	0
34.3968	-0.2063116	0.3372819	0	0	-0.01239213	0.008774093	0	0
34.41337	-0.2063116	0.3372819	0	0	0	0	0	0
34.42994	-0.2063116	0.3372819	0	0	0	0	0	0
34.44672	-0.2063116	0.3372819	0	0	0	0	0	0
34.46323	-0.2063116	0.3372819	0	0	0	0	0	0
34.47964	-0.2063116	0.3372819	0	0	0	0	0	0
34.4962	-0.2063116	0.3372819	0	0	0	0	0	0
34.51277	-0.2063116	0.3372819	0	0	0	0	0	0
34.52934	-0.2063116	0.3372819	0	0	0	0	0	0
34.54591	-0.2063116	0.3372819	0	0	0	0	0	0
34.56247	-0.2063116	0.3372819	0	0	0	0	0	0
34.57904	-0.2063116	0.3372819	0	0	0	0	0	0
34.59561	-0.2063116	0.3372819	0	0	0	0	0	0
34.61217	-0.2063116	0.3372819	0	0	0	0	0	0
34.62874	-0.2063116	0.3372819	0	0	0	0	0	0
34.64537	-0.2063116	0.3372819	0	0	0	0	0	0
34.66188	-0.2063116	0.3372819	0	0	0	0	0	0
34.67844	-0.2063116	0.3372819	0	0	0	0	0	0
34.69501	-0.2063116	0.3372819	0	0	0	0	0	0
34.71158	-0.2063116	0.3372819	0	0	0	0	0	0
34.72843	-0.2063116	0.3372819	0	0	0	0	0	0
34.74494	-0.2062864	0.3372997	0.00152712	0.001081259	0.04577762	0.03241229	0	0
34.76128	-0.2062864	0.3372997	0	0	-0.04648999	-0.03291667	0	0
34.77784	-0.2062864	0.3372997	0	0	0	0	0	0
34.79441	-0.2062864	0.3372997	0	0	0	0	0	0
34.81099	-0.2062864	0.3372997	0	0	0	0	0	0
34.86068	-0.2062864	0.3373355	0	0.0007190594	0	0.01085063	0	0
34.87725	-0.2062864	0.3373355	0	0	0	-0.01085188	0	0
34.89405	-0.2062359	0.3373712	0.003001533	0.002125199	0.0899547	0.06369133	0	0
34.91038	-0.2062359	0.3374069	0	0.002187573	-0.09058644	0.001882456	0	0
34.92695	-0.2062107	0.3374605	0.001521845	0.003232572	0.04625422	0.0317612	0	0
34.94352	-0.2061855	0.3374783	0.001521845	0.001077524	0	-0.06503949	0	0
34.96008	-0.2061351	0.337514	0.003043691	0.002156847	0.04592939	0.03257403	0	0
34.97665	-0.2060847	0.3376212	0.003043691	0.006466944	0	0.130079	0	0
34.99322	-0.206009	0.3377105	0.004565537	0.00538942	0.04592939	-0.03251974	0	0
35.00978	-0.2058577	0.3379962	0.009131973	0.01724578	0.1378153	0.3578257	0	0
35.02635	-0.205883	0.3383712	-0.001521845	0.0226352	-0.3215329	0.162653	0	0
35.04292	-0.2060595	0.3389247	-0.01065382	0.03341224	-0.2756035	0.3252518	0	0
35.07986	-0.204319	0.3406569	0.04711258	0.04688871	1.079569	0.2518554	0	0
35.0967	-0.2027794	0.3417819	0.09141864	0.0667982	0.8237866	0.370179	0	0
35.11299	-0.1998235	0.3438712	0.1814659	0.1282659	2.717944	1.855312	0	0
35.14623	-0.1940026	0.3479784	0.175112	0.1235584	-0.1282841	-0.09504396	0	0
35.16269	-0.1899707	0.3507464	0.2449431	0.1681598	1.405006	0.8973821	0	0
35.17926	-0.1899453	0.3507642	0.001531739	0.001077524	-7.369928	-5.05886	0	0
35.19583	-0.1898946	0.3507285	0.003063479	-0.002155048	0.04622798	-0.09755923	0	0
35.21239	-0.1898185	0.350675	0.004595218	-0.003234371	0.04622798	-0.03257403	0	0
35.22896	-0.1897423	0.3506214	0.004596117	-0.003234371	2.715172E-05	0	0	0
35.24581	-0.1895393	0.3504785	0.01205312	-0.008479464	0.223177	-0.1569779	0	0
35.26235	-0.1894124	0.3503535	0.007672862	-0.00755845	-0.1311994	0.02758665	0	0
35.27883	-0.1893616	0.3503178	0.003080693	-0.002166522	-0.1390723	0.1632927	0	0
35.29534	-0.1893362	0.3503	0.001536693	-0.001081009	-0.04679736	0.032901	0	0
35.31179	-0.1893362	0.3503	0	0	-0.04661361	0.03279102	0	0
35.32836	-0.1893362	0.3503	0	0	0	0	0	0
35.34493	-0.1893362	0.3503	0	0	0	0	0	0
35.3615	-0.1893362	0.3503	0	0	0	0	0	0
35.37806	-0.1893616	0.3502821	-0.001531739	-0.001079323	-0.04622798	-0.03257403	0	0
35.39463	-0.1893616	0.3502821	0	0	0.04622798	0.03257403	0	0
35.41143	-0.1893616	0.3502821	0	0	0	0	0	0
35.42776	-0.189387	0.3503	-0.001554109	0.001094443	-0.04690311	0.03303036	0	0
35.44445	-0.189387	0.3503	0	0	0.04706023	-0.03314101	0	0
35.47747	-0.189387	0.3503	0	0	0	0	0	0
35.49403	-0.189387	0.3502642	0	-0.002156847	0	-0.04349935	0	0
35.5106	-0.1894124	0.3502464	-0.001531739	-0.001077524	-0.04622798	0.03257403	0	0
35.52717	-0.1894124	0.3502106	0	-0.002156847	0.04622798	-0.03257403	0	0
35.54402	-0.189387	0.3501571	0.001505736	-0.003177696	0.04505419	-0.03054554	0	0
35.5603	-0.1893108	0.3500321	0.004678895	-0.007680675	0.09577713	-0.1359158	0	0
35.59227	-0.1892854	0.3499785	0.0007938358	-0.001675306	-0.08052857	0.1244778	0	0
35.60883	-0.1892347	0.3498713	0.003064378	-0.006468743	0.04678212	-0.09876371	0	0
35.6254	-0.1892347	0.3498713	0	0	-0.09248311	0.195227	0	0
35.64197	-0.1892601	0.3498535	-0.001531739	-0.001077524	-0.04622798	-0.03251974	0	0
35.65854	-0.1892601	0.3498535	0	0	0.04622798	0.03251974	0	0
35.67858	-0.1892347	0.3498356	0.001266148	-0.0008906904	0.0345851	-0.02432939	0	0
35.75758	-0.1892347	0.3498356	0	0	-0.01278409	0.00899315	0	0
35.77419	-0.1892347	0.3498356	0	0	0	0	0	0
35.79071	-0.1892347	0.3498356	0	0	0	0	0	0
35.80727	-0.1892347	0.3498356	0	0	0	0	0	0
35.82422	-0.1892347	0.3498356	0	0	0	0	0	0
35.84041	-0.1892347	0.3498356	0	0	0	0	0	0
35.85724	-0.1892347	0.3498356	0	0	0	0	0	0
35.87354	-0.1892347	0.3498356	0	0	0	0	0	0
35.89011	-0.1892347	0.3498356	0	0	0	0	0	0
35.90667	-0.1892347	0.3498356	0	0	0	0	0	0
35.92324	-0.1892347	0.3498356	0	0	0	0	0	0
35.93981	-0.1892347	0.3498356	0	0	0	0	0	0
35.95638	-0.1892347	0.3498356	0	0	0	0	0	0
35.97294	-0.1892347	0.3498356	0	0	0	0	0	0
35.98951	-0.1892347	0.3498356	0	0	0	0	0	0
36.00608	-0.1892347	0.3498356	0	0	0	0	0	0
36.05589	-0.1892601	0.3498178	-0.0005094848	-0.0003584045	-0.00767577	-0.005399632	0	0
36.07234	-0.1892601	0.3498178	0	0	0.007688584	0.005408646	0	0
36.08891	-0.1892601	0.3498178	0	0	0	0	0	0
36.10548	-0.1892601	0.3498178	0	0	0	0	0	0
36.12204	-0.1892601	0.3498178	0	0	0	0	0	0
36.13861	-0.1892347	0.3497999	0.001531739	-0.001079323	0.04622798	-0.03257403	0	0
36.15518	-0.1892347	0.3497999	0	0	-0.04622798	0.03257403	0	0
36.17175	-0.1892601	0.349782	-0.001531739	-0.001077524	-0.04622798	-0.03251974	0	0
36.18848	-0.1892854	0.3497642	-0.001517267	-0.001066717	0.0004345731	0.0003245176	0	0
36.20499	-0.1893108	0.3497106	-0.001537048	-0.003245581	-0.000595007	-0.06553943	0	0
36.22144	-0.1893362	0.3496928	-0.001543299	-0.001085019	-0.0001896462	0.06554547	0	0
36.23801	-0.189387	0.3496571	-0.003063673	-0.002154552	-0.04603867	-0.0323867	0	0
