Time	Pos X	Pos Y	Vel X	Vel Y	Acc X	Acc YForce X	Force Y
0.01656476	-0.1670599	0.3234062	0.002696701	-0.005220462	-4.354213E-05	8.429189E-05	0	0
0.0847277	-0.1670087	0.3233704	0.0007507097	-0.0005242288	3.144703E-05	-7.589068E-05	0	0
0.1012968	-0.1669831	0.3233526	0.001544157	-0.001077403	0.009364194	-0.006528507	0	0
0.1178627	-0.1669831	0.3233526	0	0	-0.04660194	0.0325155	0	0
0.1344283	-0.1669831	0.3233169	0	-0.002155267	0	-0.06505194	0	0
0.1509974	-0.1669831	0.3233169	0	0	0	0.06504572	0	0
0.1675637	-0.1669831	0.3233169	0	0	0	0	0	0
0.1841289	-0.1669831	0.3233169	0	0	0	0	0	0
0.2006952	-0.1669575	0.3232633	0.001545314	-0.003234546	0.04664185	-0.09762753	0	0
0.217262	-0.1669575	0.3232633	0	0	-0.04663962	0.09762287	0	0
0.2338287	-0.1669575	0.3232276	0	-0.002156911	0	-0.06509764	0	0
0.2556627	-0.1669575	0.3232276	0	0	0	0.05616852	0	0
0.2722306	-0.1669575	0.3232276	0	0	0	0	0	0
0.2889809	-0.1669319	0.3232097	0.001527452	-0.001065747	0.04584435	-0.03198691	0	0
0.3053649	-0.1669319	0.3232097	0	0	-0.04609885	0.03216448	0	0
0.3219328	-0.1669319	0.323174	0	-0.002156758	0	-0.06545172	0	0
0.3384975	-0.1669319	0.3231383	0	-0.00215537	0	4.188927E-05	0	0
0.3550635	-0.1669319	0.3231383	0	0	0	0.06505657	0	0
0.3716302	-0.1669319	0.3231383	0	0	0	0	0	0
0.3881977	-0.1669319	0.3231383	0	0	0	0	0	0
0.4047633	-0.1669319	0.3231383	0	0	0	0	0	0
0.4213391	-0.1669319	0.3231383	0	0	0	0	0	0
0.4378976	-0.1669319	0.3231383	0	0	0	0	0	0
0.4544635	-0.1669319	0.3231383	0	0	0	0	0	0
0.4710302	-0.1669319	0.3231383	0	0	0	0	0	0
0.487597	-0.1669319	0.3231383	0	0	0	0	0	0
0.5041641	-0.1669319	0.3231383	0	0	0	0	0	0
0.5207304	-0.1669319	0.3231383	0	0	0	0	0	0
0.5372968	-0.1669319	0.3231383	0	0	0	0	0	0
0.5541596	-0.1669575	0.3231204	-0.001517262	-0.001058637	-0.04538739	-0.03166808	0	0
0.5704303	-0.1669319	0.3231025	0.001572477	-0.001098994	0.09325118	-0.001218008	0	0
0.5871837	-0.1669575	0.3230847	-0.001527167	-0.001065548	-0.09385996	0.001012761	0	0
0.603696	-0.1669575	0.3230847	0	0	0.04590815	0.03203143	0	0
0.6202055	-0.1669575	0.3230847	0	0	0	0	0	0
0.6366972	-0.1669575	0.3230847	0	0	0	0	0	0
0.6532635	-0.1669575	0.3230847	0	0	0	0	0	0
0.6698303	-0.1669575	0.3230847	0	0	0	0	0	0
0.6863966	-0.1669575	0.3230847	0	0	0	0	0	0
0.7032645	-0.1669575	0.3230847	0	0	0	0	0	0
0.7195305	-0.1669575	0.3230847	0	0	0	0	0	0
0.7360995	-0.1669575	0.3230847	0	0	0	0	0	0
0.7526663	-0.1669575	0.3230847	0	0	0	0	0	0
0.7693202	-0.1669575	0.3230847	0	0	0	0	0	0
0.7857993	-0.1669575	0.3230847	0	0	0	0	0	0
0.8023664	-0.1669575	0.3230847	0	0	0	0	0	0
0.8189328	-0.1669575	0.3230847	0	0	0	0	0	0
0.8354999	-0.1669575	0.3230489	0	-0.002156863	0	-0.06509624	0	0
0.8520662	-0.1669319	0.3230311	0.001544415	-0.001077582	0.04661196	0.03257374	0	0
0.868633	-0.1669575	0.3230132	-0.001544376	-0.001077555	-0.09322374	8.186611E-07	0	0
0.8853979	-0.1669575	0.3230132	0	0	0.04633364	0.03232831	0	0
0.901766	-0.1669575	0.3230132	0	0	0	0	0	0
0.9184219	-0.1669575	0.3230132	0	0	0	0	0	0
0.9400301	-0.1669319	0.3229954	0.001184056	-0.0008261499	0.03094432	-0.02159074	0	0
0.9566	-0.1669575	0.3230132	-0.001544081	0.00107735	-0.07145821	0.04985844	0	0
0.9731742	-0.1669575	0.3230132	0	0	0.04658689	-0.03250501	0	0
0.9897358	-0.1669575	0.3230132	0	0	0	0	0	0
1.006493	-0.1669575	0.3230132	0	0	0	0	0	0
1.022871	-0.1669319	0.3229954	0.001562204	-0.001089995	0.04714708	-0.03289586	0	0
1.039517	-0.1669319	0.3229597	0	-0.00214653	-0.04730434	-0.03199242	0	0
1.056004	-0.1669575	0.3229418	-0.001551846	-0.001082767	-0.04683566	0.03210498	0	0
1.072571	-0.1669831	0.3228882	-0.001545275	-0.003234464	0.0001987958	-0.0650969	0	0
1.089139	-0.1669831	0.3228882	0	0	0.04663684	0.09761703	0	0
1.105705	-0.1670087	0.3228704	-0.001544409	-0.001077578	-0.0466112	-0.03252197	0	0
1.12227	-0.1670087	0.3228704	0	0	0.04661506	0.03252466	0	0
1.138837	-0.1670087	0.3228704	0	0	0	0	0	0
1.155405	-0.1670087	0.3228704	0	0	0	0	0	0
1.172162	-0.1670087	0.3228704	0	0	0	0	0	0
1.188537	-0.1670087	0.3228704	0	0	0	0	0	0
1.205105	-0.1670087	0.3228704	0	0	0	0	0	0
1.221671	-0.1670087	0.3228704	0	0	0	0	0	0
1.238234	-0.1670087	0.3228704	0	0	0	0	0	0
1.254798	-0.1670087	0.3228704	0	0	0	0	0	0
1.271366	-0.1670087	0.3228704	0	0	0	0	0	0
1.287933	-0.1670087	0.3228704	0	0	0	0	0	0
1.3045	-0.1670087	0.3228704	0	0	0	0	0	0
1.321208	-0.1670087	0.3228704	0	0	0	0	0	0
1.337715	-0.1670087	0.3228704	0	0	0	0	0	0
1.354198	-0.1670087	0.3228704	0	0	0	0	0	0
1.370764	-0.1670087	0.3228704	0	0	0	0	0	0
1.387331	-0.1670087	0.3228704	0	0	0	0	0	0
1.403898	-0.1670087	0.3228704	0	0	0	0	0	0
1.420464	-0.1669831	0.3228525	0.001544376	-0.001079354	0.0466112	-0.03257626	0	0
1.437283	-0.1669831	0.3228525	0	0	-0.04625902	0.03233013	0	0
1.453597	-0.1670087	0.3228346	-0.001568254	-0.001094216	-0.04733188	-0.03302481	0	0
1.470307	-0.1670343	0.3228168	-0.001531133	-0.001068315	0.001124057	0.0007842851	0	0
1.486731	-0.1670087	0.3227989	0.00155785	-0.001086956	0.09322837	-0.0005626133	0	0
1.50333	-0.1670343	0.3227454	-0.001541326	-0.003228077	-0.09384901	-0.06483725	0	0
1.519864	-0.1670599	0.3227275	-0.001547438	-0.001079692	-0.0001844705	0.06484026	0	0
1.539928	-0.1670599	0.322656	0	-0.003561986	0.04228263	-0.0678269	0	0
1.556495	-0.1670855	0.3226382	-0.001544376	-0.001077555	-0.04216119	0.06782452	0	0
1.573062	-0.1670855	0.3226025	0	-0.002155017	0.04660969	-0.0325181	0	0
1.589629	-0.1671111	0.3225846	-0.001545275	-0.001079354	-0.04663684	0.03246382	0	0
1.606405	-0.1671111	0.3225846	0	0	0.04634571	0.03237186	0	0
1.622763	-0.1671366	0.3225667	-0.00156406	-0.001091289	-0.04720427	-0.03293577	0	0
1.63933	-0.1671366	0.3225667	0	0	0.04750371	0.03314469	0	0
1.655895	-0.1671366	0.3225667	0	0	0	0	0	0
1.672462	-0.1671366	0.3225667	0	0	0	0	0	0
1.689029	-0.1671366	0.3225667	0	0	0	0	0	0
1.705596	-0.1671622	0.3225489	-0.001544376	-0.001077555	-0.04660969	-0.03252092	0	0
1.722163	-0.1671366	0.322531	0.001544376	-0.001077555	0.09322139	0	0	0
1.738731	-0.1671622	0.3225132	-0.001544265	-0.001079276	-0.09321468	-5.194556E-05	0	0
1.838129	-0.1671366	0.3224239	0.0002574015	-0.0008982819	0.01553612	0.001560751	0	0
1.854695	-0.1671366	0.3224239	0	0	-0.002219662	0.007746194	0	0
1.871262	-0.1671366	0.3224239	0	0	0	0	0	0
1.887829	-0.1671366	0.3224239	0	0	0	0	0	0
1.904396	-0.1671622	0.3224417	-0.001544342	0.001077532	-0.04660919	0.03252056	0	0
1.920964	-0.1671622	0.3224417	0	0	0.04660701	-0.03251904	0	0
1.937638	-0.1671622	0.3224417	0	0	0	0	0	0
1.954095	-0.1671622	0.3224417	0	0	0	0	0	0
1.970662	-0.1671622	0.3224417	0	0	0	0	0	0
1.987229	-0.1671622	0.3224417	0	0	0	0	0	0
2.004137	-0.1671622	0.3224417	0	0	0	0	0	0
2.020705	-0.1671622	0.3224417	0	0	0	0	0	0
2.037271	-0.1671622	0.3224417	0	0	0	0	0	0
2.054219	-0.1671622	0.3224417	0	0	0	0	0	0
2.070405	-0.1671622	0.3224417	0	0	0	0	0	0
2.086972	-0.1671622	0.3224417	0	0	0	0	0	0
2.103539	-0.1671622	0.3224417	0	0	0	0	0	0
2.120105	-0.1671366	0.3224239	0.00154442	-0.001077586	0.04661204	-0.03252255	0	0
2.136672	-0.1671366	0.3224239	0	0	-0.04661204	0.03252255	0	0
2.153292	-0.1671366	0.3224239	0	0	0	0	0	0
2.169806	-0.1671366	0.3224239	0	0	0	0	0	0
2.186374	-0.1671622	0.322406	-0.001544331	-0.001077524	-0.04668225	-0.03257154	0	0
2.202939	-0.1671622	0.322406	0	0	0.04661036	0.03252138	0	0
2.219504	-0.1671622	0.322406	0	0	0	0	0	0
2.236072	-0.1671622	0.322406	0	0	0	0	0	0
2.274877	-0.1671622	0.322406	0	0	0	0	0	0
2.291153	-0.1671622	0.322406	0	0	0	0	0	0
2.324411	-0.1671622	0.322406	0	0	0	0	0	0
2.340852	-0.1671622	0.322406	0	0	0	0	0	0
2.373985	-0.1671622	0.322406	0	0	0	0	0	0
2.390552	-0.1671622	0.322406	0	0	0	0	0	0
2.407119	-0.1671622	0.322406	0	0	0	0	0	0
2.42369	-0.1671622	0.322406	0	0	0	0	0	0
2.440253	-0.1671622	0.322406	0	0	0	0	0	0
2.457021	-0.1671622	0.322406	0	0	0	0	0	0
2.473386	-0.1671622	0.322406	0	0	0	0	0	0
2.49003	-0.1671622	0.322406	0	0	0	0	0	0
2.556847	-0.1671622	0.322406	0	0	0	0	0	0
2.573414	-0.1671622	0.322406	0	0	0	0	0	0
2.5901	-0.1671622	0.322406	0	0	0	0	0	0
2.60655	-0.1671622	0.322406	0	0	0	0	0	0
2.623116	-0.1671622	0.322406	0	0	0	0	0	0
2.639682	-0.1671622	0.322406	0	0	0	0	0	0
2.656249	-0.1671622	0.322406	0	0	0	0	0	0
2.673159	-0.1671622	0.322406	0	0	0	0	0	0
2.705949	-0.1671622	0.322406	0	0	0	0	0	0
2.722515	-0.1671622	0.322406	0	0	0	0	0	0
2.739083	-0.1671622	0.322406	0	0	0	0	0	0
2.755716	-0.1671622	0.322406	0	0	0	0	0	0
2.772216	-0.1671622	0.322406	0	0	0	0	0	0
2.788782	-0.1671622	0.322406	0	0	0	0	0	0
2.80535	-0.1671622	0.322406	0	0	0	0	0	0
2.821915	-0.1671622	0.322406	0	0	0	0	0	0
2.838482	-0.1671622	0.322406	0	0	0	0	0	0
2.85505	-0.1671878	0.3223881	-0.001544331	-0.001079323	-0.04660802	-0.03257403	0	0
2.8718	-0.1671878	0.3223881	0	0	0.04635187	0.03239501	0	0
2.888316	-0.1671878	0.3223881	0	0	0	0	0	0
2.904749	-0.1671878	0.3223524	0	-0.00217262	0	-0.06593797	0	0
2.921341	-0.1671878	0.3223524	0	0	0	0.0657866	0	0
2.937882	-0.1671878	0.3223524	0	0	0	0	0	0
2.954448	-0.1672134	0.3223346	-0.00154442	-0.001077586	-0.0466493	-0.03254855	0	0
2.971015	-0.167239	0.3223167	-0.001544376	-0.001079354	1.342185E-06	-5.335712E-05	0	0
3.007693	-0.1673157	0.3222631	-0.002092691	-0.001460943	-0.010298	-0.007166683	0	0
3.02426	-0.1673669	0.3222274	-0.003089651	-0.00215511	-0.01872407	-0.01303728	0	0
3.040923	-0.1674948	0.3221381	-0.007676568	-0.005360362	-0.1380381	-0.09645845	0	0
3.057393	-0.1675204	0.3221202	-0.001553408	-0.001083857	0.1848053	0.1290708	0	0
3.073961	-0.1674948	0.3221024	0.00154422	-0.001077447	0.09375712	0.0001940229	0	0
3.090527	-0.1675204	0.3220845	-0.001544531	-0.001077664	-0.0932214	-6.55272E-06	0	0
3.107093	-0.1675204	0.3220845	0	0	0.04661774	0.03252653	0	0
3.12366	-0.1674948	0.3220667	0.001544376	-0.001079354	0.04661069	-0.03257591	0	0
3.140226	-0.1674948	0.322031	0	-0.002155172	-0.04661136	-0.03246966	0	0
3.157	-0.1674948	0.322031	0	0	0	0.06464229	0	0
3.173512	-0.1674948	0.322031	0	0	0	0	0	0
3.189927	-0.1674948	0.322031	0	0	0	0	0	0
3.206493	-0.1674948	0.322031	0	0	0	0	0	0
3.223061	-0.1674948	0.322031	0	0	0	0	0	0
3.239629	-0.1674948	0.322031	0	0	0	0	0	0
3.256194	-0.1674948	0.322031	0	0	0	0	0	0
3.272761	-0.1674948	0.322031	0	0	0	0	0	0
3.289599	-0.1674948	0.322031	0	0	0	0	0	0
3.306108	-0.1674948	0.322031	0	0	0	0	0	0
3.32262	-0.1674948	0.322031	0	0	0	0	0	0
3.339131	-0.1674948	0.322031	0	0	0	0	0	0
3.355595	-0.1674948	0.322031	0	0	0	0	0	0
3.372161	-0.1674948	0.322031	0	0	0	0	0	0
3.388728	-0.1674948	0.322031	0	0	0	0	0	0
3.405296	-0.1674948	0.322031	0	0	0	0	0	0
3.421862	-0.1674948	0.322031	0	0	0	0	0	0
3.438702	-0.1674948	0.322031	0	0	0	0	0	0
3.454997	-0.1674948	0.322031	0	0	0	0	0	0
3.471563	-0.1674948	0.322031	0	0	0	0	0	0
3.488237	-0.1674948	0.322031	0	0	0	0	0	0
3.505248	-0.167546	0.3219952	-0.003008059	-0.002100561	-0.08929911	-0.06235855	0	0
3.521261	-0.1676483	0.3219595	-0.006390978	-0.002229584	-0.1024365	-0.003906892	0	0
3.537828	-0.1678274	0.3218345	-0.01080883	-0.007546484	-0.1355996	-0.1631945	0	0
3.554395	-0.1680065	0.3217095	-0.01080852	-0.007546267	9.387997E-06	6.549112E-06	0	0
3.570962	-0.168339	0.321513	-0.02007149	-0.0118585	-0.279561	-0.1301454	0	0
3.587806	-0.1684157	0.3214951	-0.004556103	-0.001061616	0.4643892	0.3231604	0	0
3.641466	-0.1913407	0.3065258	-0.4272258	-0.2789658	-5.995	-3.941696	0	0
3.658032	-0.205202	0.302023	-0.836716	-0.2718072	-5.830998	0.1019369	0	0
3.674867	-0.2259184	0.3036133	-1.230523	0.09446561	-11.79003	10.96568	0	0
3.691165	-0.2315101	0.304471	-0.3430954	0.05262551	26.78359	-1.262782	0	0
3.707731	-0.2628532	0.308634	-1.891979	0.2512935	-47.12996	6.045137	0	0
3.724402	-0.2813833	0.3112602	-1.111556	0.1575331	23.48071	-2.820984	0	0
3.740865	-0.3059507	0.3130287	-1.492315	0.1074273	-11.49183	-1.512261	0	0
3.757432	-0.3227529	0.3132073	-1.014182	0.01078244	14.47581	-2.925992	0	0
3.773998	-0.3385257	0.312207	-0.9520767	-0.06038267	1.874379	-2.147798	0	0
3.790949	-0.3530599	0.3103133	-0.8574324	-0.1117136	2.823718	-1.531461	0	0
3.807132	-0.3700961	0.3065258	-1.052773	-0.2340566	-5.895652	-3.69248	0	0
3.823698	-0.3818895	0.3030951	-0.7118718	-0.2070813	10.40954	0.823701	0	0
3.840266	-0.3888268	0.3001823	-0.4187414	-0.1758181	8.846821	0.9435375	0	0
3.856832	-0.4056982	0.2951779	-1.018387	-0.3020734	-18.0976	-3.810448	0	0
3.873399	-0.4122337	0.2937658	-0.3945063	-0.08524264	18.82957	6.544249	0	0
3.889966	-0.4260444	0.292282	-0.833617	-0.08955863	-13.25277	-0.1302605	0	0
3.906536	-0.4353226	0.2917278	-0.5599254	-0.03344556	8.259256	1.693337	0	0
3.923102	-0.4454433	0.2898327	-0.6109476	-0.1144	-1.539788	-2.443104	0	0
3.939665	-0.449998	0.2879196	-0.2749845	-0.1155017	10.14099	-0.03325561	0	0
3.956566	-0.4517249	0.2864712	-0.1021767	-0.08570154	5.163926	0.8905028	0	0
3.972799	-0.4534489	0.2850227	-0.1062005	-0.08922959	-0.1214409	-0.1064783	0	0
3.989366	-0.4544054	0.2842179	-0.05773645	-0.04857813	1.477565	1.239375	0	0
4.005933	-0.4547665	0.2839139	-0.02179756	-0.01835262	1.084669	0.9122341	0	0
4.022615	-0.4547665	0.2839139	0	0	0.6555778	0.5519688	0	0
4.039128	-0.4547665	0.2839139	0	0	0	0	0	0
4.055638	-0.4547665	0.2839139	0	0	0	0	0	0
4.072199	-0.4547665	0.2839139	0	0	0	0	0	0
4.088766	-0.4547452	0.283896	0.001282669	-0.001079385	0.03871884	-0.03258247	0	0
4.105333	-0.4547452	0.283896	0	0	-0.0387116	0.03257638	0	0
4.121899	-0.454724	0.2838781	0.001282743	-0.001079447	0.03871494	-0.03257919	0	0
4.138694	-0.4547028	0.2838602	0.001263379	-0.001064645	-0.0005804442	0.0004436951	0	0
4.155033	-0.4546815	0.2838424	0.001300525	-0.001094411	0.001121077	-0.0008983397	0	0
4.171719	-0.4546815	0.2838424	0	0	-0.03938084	0.03313956	0	0
4.188165	-0.4546815	0.2838424	0	0	0	0	0	0
4.204731	-0.4546603	0.2838245	0.001282669	-0.001079385	0.03885418	-0.03269637	0	0
4.221299	-0.4546603	0.2838245	0	0	-0.0387116	0.03257638	0	0
4.237866	-0.4546603	0.2838245	0	0	0	0	0	0
4.254434	-0.4546603	0.2838245	0	0	0	0	0	0
4.270999	-0.4546603	0.2838245	0	0	0	0	0	0
4.291057	-0.4546603	0.2838245	0	0	0	0	0	0
4.307814	-0.4546603	0.2838245	0	0	0	0	0	0
4.324191	-0.4546603	0.2838245	0	0	0	0	0	0
4.340758	-0.4546603	0.2838245	0	0	0	0	0	0
4.357349	-0.4546603	0.2838245	0	0	0	0	0	0
4.373891	-0.4546603	0.2838245	0	0	0	0	0	0
4.390458	-0.4546603	0.2838245	0	0	0	0	0	0
4.473291	-0.4546603	0.2838245	0	0	0	0	0	0
4.489858	-0.4546603	0.2838245	0	0	0	0	0	0
4.506455	-0.4546603	0.2838245	0	0	0	0	0	0
4.523023	-0.4546603	0.2838245	0	0	0	0	0	0
4.539559	-0.4546603	0.2838245	0	0	0	0	0	0
4.556491	-0.454639	0.2838066	0.001253203	-0.00105607	0.03744455	-0.0315544	0	0
4.572692	-0.454639	0.2838066	0	0	-0.03782339	0.03187364	0	0
4.589258	-0.454639	0.2838066	0	0	0	0	0	0
4.605827	-0.4546178	0.2837887	0.001282448	-0.001080998	0.03870435	-0.03262457	0	0
4.62254	-0.4546178	0.2837887	0	0	-0.0385319	0.03247921	0	0
4.639051	-0.4546178	0.2837887	0	0	0	0	0	0
4.656064	-0.4545965	0.2837708	0.001248984	-0.001051038	0.0372569	-0.03135223	0	0
4.672092	-0.4545965	0.2837708	0	0	-0.03780103	0.03181013	0	0
4.688659	-0.4545965	0.2837708	0	0	0	0	0	0
4.705226	-0.4545965	0.2837708	0	0	0	0	0	0
4.722108	-0.4545965	0.2837708	0	0	0	0	0	0
4.738359	-0.4545965	0.2837708	0	0	0	0	0	0
4.754925	-0.4545965	0.2837708	0	0	0	0	0	0
4.771492	-0.4545965	0.2837708	0	0	0	0	0	0
4.788058	-0.4545965	0.2837708	0	0	0	0	0	0
4.804625	-0.4545965	0.2837708	0	0	0	0	0	0
4.821193	-0.4545541	0.2838066	0.002563245	0.002160321	0.07735776	0.06519766	0	0
4.837759	-0.4544691	0.2838424	0.005130973	0.002158895	0.07749642	-4.303362E-05	0	0
4.8547	-0.4541716	0.2839139	0.01755784	0.004221903	0.3708752	0.06156972	0	0
4.871217	-0.4538316	0.2839496	0.02058974	0.002165252	0.09061752	-0.06146921	0	0
4.887459	-0.4533425	0.2841464	0.0301087	0.0121121	0.2905779	0.3036399	0	0
4.904026	-0.4515119	0.2851836	0.1105025	0.06261154	2.450374	1.539205	0	0
4.920765	-0.450574	0.2856486	0.05602853	0.02777659	-1.63553	-1.045887	0	0
4.937263	-0.4396626	0.2893858	0.6614085	0.2265334	18.21405	5.979989	0	0
4.953773	-0.4302696	0.2914239	0.5688951	0.1234441	-2.802748	-3.123151	0	0
4.975142	-0.4132936	0.2944451	0.7944211	0.1413788	5.953706	0.4734621	0	0
4.99171	-0.3993045	0.2972692	0.8443589	0.170458	1.316345	0.7665184	0	0
5.008277	-0.3793488	0.3028092	1.204528	0.3343995	10.86977	4.947693	0	0
5.024844	-0.363331	0.3074012	0.9668971	0.2771897	-7.171925	-1.726644	0	0
5.041411	-0.3396257	0.3137968	1.430853	0.3860379	14.00262	3.285139	0	0
5.058344	-0.3211188	0.3193698	1.092948	0.3291181	-10.08665	-1.699088	0	0
5.074543	-0.3024533	0.3256386	1.152224	0.3869728	1.789041	1.746157	0	0
5.09111	-0.2833252	0.3316211	1.154608	0.3611159	0.07277781	-0.7891284	0	0
5.107677	-0.2770062	0.333514	0.3814222	0.1142604	-23.33548	-7.450327	0	0
5.207077	-0.1564478	0.3733061	1.212867	0.4003243	7.169707	2.466784	0	0
5.223645	-0.1518483	0.3765045	0.2776084	0.1930456	-8.064814	-1.787382	0	0
5.240211	-0.1448984	0.3812939	0.4195367	0.2891144	4.283467	2.899405	0	0
5.256777	-0.1419339	0.3832779	0.1789468	0.1197596	-7.261541	-5.111507	0	0
5.273343	-0.1408506	0.3837426	0.06539275	0.02805322	-3.427264	-2.767863	0	0
5.28991	-0.140541	0.3835281	0.01868722	-0.01294865	-1.409637	-1.237492	0	0
5.306476	-0.1364107	0.3806684	0.2493191	-0.1726225	6.960784	-4.819174	0	0
5.323043	-0.1327928	0.3781664	0.2183749	-0.1510207	-0.9339233	0.6519623	0	0
5.33961	-0.1302065	0.3763794	0.1561205	-0.1078684	-1.878897	1.302377	0	0
5.356556	-0.1267381	0.373985	0.2046655	-0.141288	1.44854	-0.9972117	0	0
5.389585	-0.1269711	0.3741101	-0.00705603	0.003786976	-4.236475	2.9029	0	0
5.405877	-0.1269711	0.3741101	0	0	0.1430656	-0.07678344	0	0
5.422603	-0.1270229	0.3740744	-0.003095868	-0.002136371	-0.09376542	-0.06470488	0	0
5.439114	-0.1270488	0.3740922	-0.001568547	0.001081196	0.04595245	0.09680686	0	0
5.455627	-0.1271006	0.3740565	-0.003135648	-0.002163823	-0.04745226	-0.0982601	0	0
5.472145	-0.1271783	0.3740029	-0.004702972	-0.00324598	-0.04745013	-0.03276189	0	0
5.48871	-0.1272301	0.3739671	-0.003125899	-0.002157096	0.04767093	0.03291423	0	0
5.505277	-0.1273077	0.3739136	-0.004688894	-0.003234464	-0.04717467	-0.0325174	0	0
5.521843	-0.1273854	0.3738599	-0.004688894	-0.003236264	0	-5.429798E-05	0	0
5.53841	-0.1274631	0.3738063	-0.00468813	-0.003236357	2.307715E-05	-2.810858E-06	0	0
5.554989	-0.1275408	0.3737527	-0.004684489	-0.003232046	0.0001098354	0.000130059	0	0
5.571708	-0.1275667	0.3737349	-0.001549042	-0.001069534	0.09416319	0.06494417	0	0
5.58822	-0.1275925	0.373717	-0.001567554	-0.001081134	-0.0005570743	-0.0003490661	0	0
5.60473	-0.1275925	0.373717	0	0	0.0474694	0.0327394	0	0
5.621243	-0.1275667	0.3736991	0.001567418	-0.001082845	0.04746323	-0.0327898	0	0
5.654377	-0.1275667	0.3736991	0	0	-0.03157165	0.02181115	0	0
5.687511	-0.1275667	0.3736991	0	0	0	0	0	0
5.704076	-0.1275925	0.3736813	-0.0015625	-0.001077648	-0.03143877	-0.02168316	0	0
5.720643	-0.1275925	0.3736813	0	0	0.04715974	0.03252583	0	0
5.741458	-0.1275925	0.3736813	0	0	0	0	0	0
5.758026	-0.1275925	0.3736813	0	0	0	0	0	0
5.774592	-0.1275925	0.3736813	0	0	0	0	0	0
5.791159	-0.1275925	0.3736813	0	0	0	0	0	0
5.807726	-0.1275925	0.3736813	0	0	0	0	0	0
5.824292	-0.1275925	0.3736813	0	0	0	0	0	0
5.840858	-0.1275925	0.3736813	0	0	0	0	0	0
5.857425	-0.1276184	0.3736634	-0.001563265	-0.001079354	-0.04718145	-0.03257638	0	0
5.873992	-0.1276184	0.3736634	0	0	0.04718078	0.03257591	0	0
5.890559	-0.1276443	0.3736455	-0.001562365	-0.001077555	-0.04715363	-0.03252162	0	0
5.907443	-0.1276702	0.3736634	-0.001533862	0.001057288	0.0008520978	0.06381985	0	0
5.923693	-0.1276702	0.3736634	0	0	0.0462927	-0.03190947	0	0
5.956979	-0.1276702	0.3736634	0	0	0	0	0	0
5.973489	-0.1276702	0.3736634	0	0	0	0	0	0
5.989958	-0.1276702	0.3736634	0	0	0	0	0	0
6.006525	-0.1276702	0.3736634	0	0	0	0	0	0
6.023092	-0.1276702	0.3736634	0	0	0	0	0	0
6.039658	-0.1276702	0.3736634	0	0	0	0	0	0
6.056549	-0.1276702	0.3736634	0	0	0	0	0	0
6.072792	-0.1276443	0.3736455	0.001594425	-0.001099034	0.04812054	-0.0331694	0	0
6.089358	-0.1276443	0.3736455	0	0	-0.04859681	0.03349769	0	0
6.105925	-0.1276702	0.3736277	-0.001563265	-0.001079354	-0.04718145	-0.03257638	0	0
6.122492	-0.1276702	0.3736277	0	0	0.04718078	0.03257591	0	0
6.139107	-0.1276702	0.3736277	0	0	0	0	0	0
6.155625	-0.1276702	0.3736277	0	0	0	0	0	0
6.172193	-0.1276702	0.3736277	0	0	0	0	0	0
6.188758	-0.1276961	0.3736098	-0.0015625	-0.001077648	-0.04715838	-0.03252489	0	0
6.238459	-0.127722	0.3735919	-0.0005207884	-0.0003597847	0.01572025	0.01083313	0	0
6.271592	-0.1277479	0.373574	-0.0007816435	-0.0005396848	-0.003149158	-0.002171834	0	0
6.288215	-0.1277479	0.373574	0	0	0.01570952	0.01084662	0	0
6.304726	-0.1277479	0.373574	0	0	0	0	0	0
6.321293	-0.1277479	0.373574	0	0	0	0	0	0
6.338251	-0.1277738	0.3735919	-0.001526341	0.001054467	-0.04552844	0.03145315	0	0
6.354425	-0.1277996	0.3736098	-0.001600226	0.00110551	-0.002229981	0.001540573	0	0
6.370992	-0.1278255	0.3736277	-0.001563265	0.001077555	0.001128873	-0.0008537953	0	0
6.408521	-0.1279809	0.3737349	-0.004138528	0.00285643	-0.04760566	0.03288383	0	0
6.425311	-0.1280326	0.3736991	-0.003084086	-0.002128241	0.01941207	-0.09176678	0	0
6.441655	-0.1282397	0.3735562	-0.0126705	-0.008745441	-0.2893268	-0.1997132	0	0
6.458332	-0.1286021	0.3733061	-0.02172891	-0.01499821	-0.2743232	-0.1893576	0	0
6.474789	-0.1286539	0.3732703	-0.003145645	-0.002171346	0.5608523	0.3871212	0	0
6.491356	-0.1289386	0.3730738	-0.01718413	-0.01186322	-0.4250954	-0.2934769	0	0
6.507922	-0.1292491	0.3728594	-0.0187473	-0.01294257	-0.04717874	-0.03257642	0	0
6.52451	-0.1347831	0.3692862	-0.3335995	-0.2154003	-9.496655	-6.106585	0	0
6.54139	-0.1422691	0.3642129	-0.4434843	-0.3005491	-3.283208	-2.544129	0	0
6.557902	-0.153031	0.356997	-0.6517612	-0.4370109	-6.23734	-4.086667	0	0
6.574415	-0.1606817	0.3518536	-0.4633167	-0.3114785	5.706155	3.801157	0	0
6.590755	-0.1678274	0.3471212	-0.4373358	-0.2896311	0.7908406	0.6650205	0	0
6.607322	-0.1761805	0.3416033	-0.5041959	-0.3330629	-2.031816	-1.319853	0	0
6.623888	-0.1802078	0.339139	-0.2430921	-0.1487476	7.88024	5.562727	0	0
6.640455	-0.1878381	0.3345319	-0.460582	-0.2780974	-6.564046	-3.903897	0	0
6.657022	-0.1959528	0.3309246	-0.489804	-0.2177336	-0.8819348	1.821808	0	0
6.673588	-0.2014156	0.3292817	-0.3297608	-0.09917676	4.830323	3.578208	0	0
6.690155	-0.2044704	0.3274066	-0.1843969	-0.1131847	4.387344	-0.4227837	0	0
6.706722	-0.2044452	0.3274601	0.001522789	0.003232666	5.611228	3.513583	0	0
6.723289	-0.2044452	0.3274601	0	0	-0.04595918	-0.09756485	0	0
6.739855	-0.2044452	0.3274601	0	0	0	0	0	0
6.756544	-0.2044452	0.3274601	0	0	0	0	0	0
6.772989	-0.20442	0.3274423	0.001534954	-0.001085522	0.04632634	-0.03276208	0	0
6.789569	-0.20442	0.3274423	0	0	-0.04647751	0.03286898	0	0
6.806122	-0.20442	0.3274423	0	0	0	0	0	0
6.822689	-0.2043947	0.3274601	0.001522789	0.001077555	0.04597903	0.03253566	0	0
6.839602	-0.2043947	0.3274601	0	0	-0.04548331	-0.03218488	0	0
6.855822	-0.2043947	0.3274601	0	0	0	0	0	0
6.872626	-0.2043947	0.3274601	0	0	0	0	0	0
6.88914	-0.2043695	0.3274423	0.001527625	-0.001080978	0.04584979	-0.03244422	0	0
6.905541	-0.2043695	0.3274423	0	0	-0.04641039	0.0328409	0	0
6.922172	-0.2043443	0.3274601	0.001517878	0.001073446	0.04595248	0.03249768	0	0
6.938674	-0.2043443	0.3274601	0	0	-0.04581162	-0.03239806	0	0
6.955223	-0.2043443	0.3274601	0	0	0	0	0	0
6.97179	-0.2043443	0.3274601	0	0	0	0	0	0
6.988356	-0.2043443	0.3274601	0	0	0	0	0	0
7.004923	-0.2043443	0.3274601	0	0	0	0	0	0
7.02149	-0.2043443	0.3274601	0	0	0	0	0	0
7.110395	-0.2042938	0.3274244	0.0005675144	-0.0004015843	0.005380707	-0.003807494	0	0
7.126962	-0.2042938	0.3274244	0	0	-0.005380707	0.003807494	0	0
7.143528	-0.2042686	0.3274066	0.001523688	-0.001077555	0.04598699	-0.03252209	0	0
7.160096	-0.2042686	0.3274066	0	0	-0.04598566	0.03252115	0	0
7.176662	-0.2042433	0.3273887	0.001522789	-0.001079354	0.04595852	-0.03257544	0	0
7.193351	-0.2042181	0.3273709	0.00151165	-0.001069673	-0.0003349363	0.000291098	0	0
7.209795	-0.2041929	0.327353	0.001535043	-0.001085585	0.0007060315	-0.0004802457	0	0
7.226376	-0.2041929	0.327353	0	0	-0.04648155	0.03287184	0	0
7.24293	-0.2041929	0.327353	0	0	0	0	0	0
7.259496	-0.2041929	0.327353	0	0	0	0	0	0
7.27641	-0.2041929	0.327353	0	0	0	0	0	0
7.292629	-0.2041929	0.327353	0	0	0	0	0	0
7.309435	-0.2041929	0.327353	0	0	0	0	0	0
7.325762	-0.2041929	0.327353	0	0	0	0	0	0
7.342329	-0.2041676	0.3273351	0.001522789	-0.001077555	0.0462943	-0.03275875	0	0
7.375494	-0.2041676	0.3273351	0	0	-0.03062036	0.02166757	0	0
7.392029	-0.2041676	0.3273351	0	0	0	0	0	0
7.408596	-0.2041676	0.3273351	0	0	0	0	0	0
7.425517	-0.2041676	0.3273351	0	0	0	0	0	0
7.442028	-0.2041676	0.3273351	0	0	0	0	0	0
7.458296	-0.2041676	0.3273351	0	0	0	0	0	0
7.475051	-0.2041676	0.3273351	0	0	0	0	0	0
7.491429	-0.2041676	0.3273351	0	0	0	0	0	0
7.507996	-0.2041676	0.3273351	0	0	0	0	0	0
7.524586	-0.2041676	0.3273351	0	0	0	0	0	0
7.54113	-0.2041676	0.3273351	0	0	0	0	0	0
7.557696	-0.2041676	0.3273351	0	0	0	0	0	0
7.574263	-0.2041676	0.3273351	0	0	0	0	0	0
7.591134	-0.2041676	0.3273351	0	0	0	0	0	0
7.607645	-0.2041676	0.3273351	0	0	0	0	0	0
7.623963	-0.2041676	0.3273351	0	0	0	0	0	0
7.64053	-0.2041424	0.3273173	0.001523688	-0.001079354	0.0463344	-0.03282248	0	0
7.657096	-0.2041424	0.3273173	0	0	-0.04598632	0.03257591	0	0
7.673663	-0.2041172	0.3272994	0.001522789	-0.001077555	0.04595918	-0.03252162	0	0
7.690229	-0.204092	0.3272816	0.001522833	-0.001077586	1.321103E-06	-9.346105E-07	0	0
7.706796	-0.2040667	0.3272637	0.001523688	-0.001077555	2.582476E-05	9.346105E-07	0	0
7.723363	-0.2040667	0.3272637	0	0	-0.04598632	0.03252162	0	0
7.73993	-0.2040667	0.3272637	0	0	0	0	0	0
7.756496	-0.2040667	0.3272637	0	0	0	0	0	0
7.777475	-0.2040667	0.3272637	0	0	0	0	0	0
7.794043	-0.2040667	0.3272637	0	0	0	0	0	0
7.81061	-0.2040667	0.3272637	0	0	0	0	0	0
7.827177	-0.2040667	0.3272637	0	0	0	0	0	0
7.843743	-0.2040667	0.3272637	0	0	0	0	0	0
7.876876	-0.2040667	0.3272637	0	0	0	0	0	0
8.006912	-0.2040667	0.3272637	0	0	0	0	0	0
8.02348	-0.2040667	0.3272637	0	0	0	0	0	0
8.040451	-0.2040667	0.3272637	0	0	0	0	0	0
8.056613	-0.2040667	0.3272637	0	0	0	0	0	0
8.07318	-0.2040667	0.3272637	0	0	0	0	0	0
8.089746	-0.2040667	0.3272637	0	0	0	0	0	0
8.106313	-0.2040667	0.3272637	0	0	0	0	0	0
8.123009	-0.2040667	0.3272637	0	0	0	0	0	0
8.139446	-0.2040667	0.3272637	0	0	0	0	0	0
8.156013	-0.2040667	0.3272637	0	0	0	0	0	0
8.17258	-0.2040667	0.3272637	0	0	0	0	0	0
8.189147	-0.2040667	0.3272637	0	0	0	0	0	0
8.205712	-0.2040667	0.3272637	0	0	0	0	0	0
8.222577	-0.2040415	0.3272458	0.001495879	-0.00106028	0.04474647	-0.03171634	0	0
8.238846	-0.2040415	0.3272458	0	0	-0.04514702	0.03200025	0	0
8.255413	-0.2040162	0.327228	0.001523644	-0.001077524	0.0464017	-0.03281537	0	0
8.27198	-0.2040162	0.327228	0	0	-0.04598368	0.03251974	0	0
8.288547	-0.203991	0.3272101	0.001522833	-0.001077586	0.0459605	-0.03252255	0	0
8.305139	-0.203991	0.3272101	0	0	-0.04592613	0.03249823	0	0
8.32168	-0.2039658	0.3271923	0.001526016	-0.001079201	0.04605658	-0.0325713	0	0
8.338247	-0.2039658	0.3271923	0	0	-0.04609108	0.03259569	0	0
8.355173	-0.2039658	0.3271923	0	0	0	0	0	0
8.371381	-0.2039405	0.3271744	0.001557443	-0.001101427	0.04700509	-0.03324209	0	0
8.387947	-0.2039405	0.3271744	0	0	-0.04752074	0.03360676	0	0
8.404513	-0.2039405	0.3271744	0	0	0	0	0	0
8.421222	-0.2039658	0.3271923	-0.001510773	0.001068422	-0.04540313	0.03210918	0	0
8.437647	-0.2039658	0.3271923	0	0	0.04559654	-0.03224596	0	0
8.454214	-0.2039658	0.3271923	0	0	0	0	0	0
8.470779	-0.2039658	0.3271923	0	0	0	0	0	0
8.487347	-0.2039658	0.3271923	0	0	0	0	0	0
8.507321	-0.2039658	0.3271923	0	0	0	0	0	0
8.523889	-0.2039658	0.3271923	0	0	0	0	0	0
8.639873	-0.2039658	0.3271923	0	0	0	0	0	0
8.656422	-0.2039658	0.3271923	0	0	0	0	0	0
8.672988	-0.2039658	0.3271923	0	0	0	0	0	0
8.689555	-0.2039658	0.3271923	0	0	0	0	0	0
8.706121	-0.2039658	0.3271923	0	0	0	0	0	0
8.722688	-0.2039658	0.3271923	0	0	0	0	0	0
8.739443	-0.2039658	0.3271923	0	0	0	0	0	0
8.755821	-0.2039658	0.3271923	0	0	0	0	0	0
8.772388	-0.2039658	0.3271923	0	0	0	0	0	0
8.80552	-0.2039405	0.3271744	0.000761866	-0.0005387931	0.01532966	-0.01084116	0	0
8.822501	-0.2039405	0.3271744	0	0	-0.01520276	0.01075142	0	0
8.838653	-0.2039405	0.3271744	0	0	0	0	0	0
8.85522	-0.2039405	0.3271744	0	0	0	0	0	0
8.871786	-0.2039405	0.3271744	0	0	0	0	0	0
8.888352	-0.2039405	0.3271744	0	0	0	0	0	0
8.904919	-0.2039405	0.3271744	0	0	0	0	0	0
8.921571	-0.2039405	0.3271744	0	0	0	0	0	0
8.938082	-0.2039405	0.3271744	0	0	0	0	0	0
8.95462	-0.2039405	0.3271744	0	0	0	0	0	0
8.971189	-0.2039405	0.3271744	0	0	0	0	0	0
8.987753	-0.2039405	0.3271744	0	0	0	0	0	0
9.004318	-0.2039405	0.3271744	0	0	0	0	0	0
9.020885	-0.2039405	0.3271744	0	0	0	0	0	0
9.037454	-0.2039405	0.3271744	0	0	0	0	0	0
9.054019	-0.2039658	0.3271923	-0.00152382	0.001077648	-0.0459903	0.03252443	0	0
9.070675	-0.2039658	0.3271923	0	0	0.04586883	-0.03243853	0	0
9.087152	-0.2039658	0.3271923	0	0	0	0	0	0
9.103721	-0.2039405	0.3271744	0.001523557	-0.001077462	0.04610444	-0.03260515	0	0
9.120287	-0.2039405	0.3271744	0	0	-0.04598103	0.03251787	0	0
9.136853	-0.2039405	0.3271744	0	0	0	0	0	0
9.153419	-0.2039405	0.3271744	0	0	0	0	0	0
9.169988	-0.2039153	0.3271565	0.001522657	-0.001079261	0.04595388	-0.03257216	0	0
9.186553	-0.2039153	0.3271565	0	0	-0.04595521	0.0325731	0	0
9.20312	-0.2038901	0.3271387	0.001523644	-0.001077524	0.04598632	-0.03252162	0	0
9.219687	-0.2038901	0.3271387	0	0	-0.04598368	0.03251974	0	0
9.236294	-0.2038648	0.3271208	0.00151916	-0.001074987	0.04579429	-0.03240494	0	0
9.2569	-0.2038648	0.3271208	0	0	-0.04082404	0.0288879	0	0
9.290033	-0.2038648	0.3271208	0	0	0	0	0	0
9.306841	-0.2038648	0.3271208	0	0	0	0	0	0
9.323355	-0.2038648	0.3271208	0	0	0	0	0	0
9.339733	-0.2038648	0.3271208	0	0	0	0	0	0
9.356377	-0.2038648	0.3271208	0	0	0	0	0	0
9.372889	-0.2038648	0.3271208	0	0	0	0	0	0
9.389434	-0.2038648	0.3271208	0	0	0	0	0	0
9.406	-0.2038648	0.3271208	0	0	0	0	0	0
9.422566	-0.2038648	0.3271208	0	0	0	0	0	0
9.439435	-0.2038648	0.3271208	0	0	0	0	0	0
9.4557	-0.2038648	0.3271208	0	0	0	0	0	0
9.472458	-0.2038648	0.3271208	0	0	0	0	0	0
9.48897	-0.2038648	0.3271208	0	0	0	0	0	0
9.505482	-0.2038648	0.3271208	0	0	0	0	0	0
9.521994	-0.2038648	0.3271208	0	0	0	0	0	0
9.538534	-0.2038648	0.3271208	0	0	0	0	0	0
9.555516	-0.2038648	0.3271208	0	0	0	0	0	0
9.571667	-0.2038648	0.3271208	0	0	0	0	0	0
9.588234	-0.2038648	0.3271208	0	0	0	0	0	0
9.604801	-0.2038648	0.3271208	0	0	0	0	0	0
9.621565	-0.2038648	0.3271208	0	0	0	0	0	0
9.638076	-0.2038648	0.3271208	0	0	0	0	0	0
9.704201	-0.2038648	0.3271208	0	0	0	0	0	0
9.720768	-0.2038648	0.3271208	0	0	0	0	0	0
9.737334	-0.2038648	0.3271208	0	0	0	0	0	0
9.753901	-0.2038648	0.3271208	0	0	0	0	0	0
9.770468	-0.2038648	0.3271208	0	0	0	0	0	0
9.787181	-0.2038648	0.3271208	0	0	0	0	0	0
9.803696	-0.2038648	0.3271208	0	0	0	0	0	0
9.820204	-0.2038901	0.3271387	-0.001528199	0.001081384	-0.04627698	0.03274649	0	0
9.836734	-0.2039405	0.3271387	-0.003053244	0	-0.04616012	-0.03273137	0	0
9.853301	-0.2039405	0.3271387	0	0	0.09225063	0	0	0
9.869867	-0.2039658	0.3271565	-0.001523732	0.001077586	-0.04598765	0.03252255	0	0
9.88675	-0.2040667	0.327228	-0.005978859	0.004231274	-0.133191	0.09428298	0	0
9.903263	-0.2041172	0.3272637	-0.003056418	0.002163948	0.08750934	-0.06190385	0	0
9.919785	-0.2042433	0.327353	-0.007636624	0.005404352	-0.1386499	0.09809205	0	0
9.939559	-0.2045966	0.3275673	-0.01786382	0.01083765	-0.2817728	0.1496947	0	0
9.956126	-0.2060595	0.3286031	-0.08829852	0.06251979	-1.938125	1.422118	0	0
9.972693	-0.2102665	0.3315854	-0.2539368	0.1800113	-4.998974	3.545901	0	0
9.98926	-0.2150689	0.3349604	-0.2898896	0.2037304	-1.085087	0.7158632	0	0
10.00583	-0.2182816	0.337139	-0.1939322	0.1315087	2.896165	-2.17978	0	0
10.02239	-0.2220908	0.3396033	-0.2299351	0.1487537	-1.086632	0.5204845	0	0
10.03896	-0.2295896	0.3392819	-0.4526573	-0.01940375	-6.722154	-5.075294	0	0
10.05553	-0.2418803	0.3310318	-0.7418237	-0.4979494	-8.72706	-14.44254	0	0
10.07209	-0.2510128	0.3266208	-0.5512708	-0.2662627	5.750897	6.992317	0	0
10.08866	-0.2553292	0.3257814	-0.260551	-0.05066634	8.774446	6.507087	0	0
10.10523	-0.2762026	0.3251742	-1.259923	-0.03665201	-30.16196	0.4229654	0	0
10.12179	-0.3021175	0.3265315	-1.564317	0.08193073	-9.186905	3.578938	0	0
10.13836	-0.3320489	0.3286031	-1.806768	0.1250486	-7.31762	1.301374	0	0
10.15494	-0.355953	0.3305496	-1.441692	0.1173987	11.01392	-0.2307876	0	0
10.17149	-0.388083	0.3339247	-1.941047	0.2038965	-15.071	2.610584	0	0
10.18806	-0.3959939	0.3347104	-0.477529	0.04742998	44.18941	-4.724344	0	0
10.20463	-0.4314645	0.3396747	-2.14101	0.2996453	-50.2054	7.612092	0	0
10.22119	-0.4461502	0.344014	-0.8864847	0.2619362	37.86274	-1.138095	0	0
10.23776	-0.45604	0.3492285	-0.5969448	0.3147432	8.738583	1.593764	0	0
10.25433	-0.4667795	0.3545682	-0.6482787	0.3223224	-1.549305	0.2287475	0	0
10.27089	-0.4721166	0.3581579	-0.3221677	0.216692	9.842617	-3.188116	0	0
10.28746	-0.4758666	0.3613729	-0.2263354	0.1940421	2.892224	-0.683574	0	0
10.30403	-0.4776739	0.3629268	-0.1090953	0.09380217	3.538315	-3.025248	0	0
10.32059	-0.4780474	0.3632483	-0.02254656	0.01940734	2.612195	-2.245369	0	0
10.33716	-0.4780474	0.3632483	0	0	0.6804956	-0.5857486	0	0
10.35373	-0.4780267	0.3632662	0.001252087	0.001079385	0.03779023	0.03257778	0	0
10.37029	-0.4780474	0.3632841	-0.001252087	0.001077586	-0.07558046	-5.429603E-05	0	0
10.38686	-0.4780474	0.3632841	0	0	0.03779023	-0.03252349	0	0
10.40342	-0.4780682	0.3633019	-0.001252087	0.001077586	-0.03779023	0.03252349	0	0
10.41999	-0.4780682	0.3633019	0	0	0.03778914	-0.03252255	0	0
10.43664	-0.4780682	0.3633019	0	0	0	0	0	0
10.45315	-0.4780474	0.3632841	0.001255701	-0.001080697	0.03786444	-0.03258736	0	0
10.46969	-0.4780474	0.3632841	0	0	-0.03798789	0.03269359	0	0
10.48626	-0.4780267	0.3632662	0.001252015	-0.001077524	0.03782072	-0.03254972	0	0
10.50318	-0.4779852	0.3631947	0.002451257	-0.004222783	0.03580774	-0.09391317	0	0
10.5197	-0.4779229	0.3631411	0.00376956	-0.003244457	0.03942339	0.02925648	0	0
10.54162	-0.4778815	0.3630697	0.001892456	-0.003258777	-0.048836	-0.0003725713	0	0
10.55822	-0.4778192	0.3630161	0.003749641	-0.003227312	0.04820773	0.0008167554	0	0
10.57475	-0.4778192	0.3629804	0	-0.002161451	-0.1131611	0.03216682	0	0
10.59132	-0.4778192	0.3629447	0	-0.002156971	0	0.0001353375	0	0
10.60789	-0.4778192	0.362909	0	-0.002155172	0	5.429954E-05	0	0
10.62477	-0.4778399	0.3628554	-0.001228744	-0.003174256	-0.03673676	-0.03046836	0	0
10.64128	-0.4778399	0.3628196	0	-0.002163823	0.03679446	0.03025719	0	0
10.65759	-0.4778399	0.3627839	0	-0.002191539	0	-0.0008445422	0	0
10.67416	-0.4778399	0.3627482	0	-0.002154924	0	0.001113832	0	0
10.69072	-0.4778399	0.3627482	0	0	0	0.06503574	0	0
10.70729	-0.4777984	0.3627482	0.002505973	0	0.07563476	0	0	0
10.72385	-0.4777777	0.3627303	0.001252087	-0.001079385	-0.03784452	-0.03257778	0	0
10.74042	-0.4777569	0.3627125	0.001252087	-0.001077586	0	5.429603E-05	0	0
10.75699	-0.4777569	0.3627125	0	0	-0.03778914	0.03252255	0	0
10.77355	-0.4777569	0.3627125	0	0	0	0	0	0
10.79012	-0.4777569	0.3627125	0	0	0	0	0	0
10.8069	-0.4777569	0.3627125	0	0	0	0	0	0
10.82325	-0.4777569	0.3627125	0	0	0	0	0	0
10.83992	-0.4777569	0.3627125	0	0	0	0	0	0
10.85639	-0.4777569	0.3627125	0	0	0	0	0	0
10.87295	-0.4777569	0.3627125	0	0	0	0	0	0
10.88952	-0.4777569	0.3627125	0	0	0	0	0	0
10.90609	-0.4777569	0.3627125	0	0	0	0	0	0
10.92266	-0.4777569	0.3627125	0	0	0	0	0	0
10.93922	-0.4777569	0.3627125	0	0	0	0	0	0
10.95579	-0.4777569	0.3627125	0	0	0	0	0	0
10.97235	-0.4777569	0.3627125	0	0	0	0	0	0
10.98892	-0.4777569	0.3627125	0	0	0	0	0	0
11.00549	-0.4777569	0.3627125	0	0	0	0	0	0
11.02205	-0.4777569	0.3627482	0	0.002156971	0	0.06510127	0	0
11.03862	-0.4777362	0.3627661	0.001253886	0.001077586	0.03784453	-0.03257779	0	0
11.07175	-0.4777154	0.3627839	0.0006260074	0.0005387621	-0.01263318	-0.01084137	0	0
11.08859	-0.4776739	0.3628196	0.002465242	0.002121913	0.03680351	0.03167922	0	0
11.10488	-0.4775286	0.3628732	0.008917857	0.003289089	0.1947571	0.03522846	0	0
11.12145	-0.4770719	0.3629804	0.0275711	0.006469115	0.5676942	0.0967812	0	0
11.14275	-0.4767811	0.3630161	0.01365534	0.001677881	-0.3675312	-0.1265421	0	0
11.15931	-0.4752634	0.3633912	0.09160395	0.0226406	2.058661	0.5536358	0	0
11.17588	-0.4727009	0.3643379	0.1546831	0.05714625	1.903787	1.041413	0	0
11.19267	-0.4594705	0.3684465	0.7882439	0.2447834	18.99679	5.626142	0	0
11.20918	-0.4517462	0.3695899	0.4677754	0.06924091	-9.624392	-5.271935	0	0
11.22569	-0.4381963	0.3707333	0.8206604	0.0692489	10.68577	0.0002420819	0	0
11.2422	-0.4110844	0.3713586	1.641961	0.03787037	24.87064	-0.9502058	0	0
11.25871	-0.3989694	0.3714122	0.7336261	0.003246636	-27.50384	-1.048386	0	0
11.27528	-0.3735224	0.3714658	1.536071	0.003234558	24.25764	-0.0003651305	0	0
11.29185	-0.3533379	0.37143	1.21841	-0.002156971	-9.587588	-0.162726	0	0
11.30841	-0.3329189	0.3715909	1.232566	0.009707271	0.4272566	0.3580842	0	0
11.32498	-0.3124934	0.3719303	1.232957	0.02049033	0.01178329	0.325452	0	0
11.34177	-0.2784908	0.3733954	2.025006	0.08725223	23.74419	2.001399	0	0
11.35811	-0.2715684	0.373717	0.4235947	0.01968079	-48.33208	-2.039369	0	0
11.37479	-0.2385784	0.3750571	1.977841	0.08034234	47.0671	1.837008	0	0
11.39125	-0.214265	0.3766117	1.477686	0.09448176	-15.09514	0.4267409	0	0
11.40782	-0.1970919	0.3779162	1.03639	0.07872662	-13.36294	-0.4770839	0	0
11.42438	-0.1815319	0.3791493	0.9394171	0.07444546	-2.926741	-0.1292093	0	0
11.44095	-0.1718921	0.3800429	0.5818974	0.05394047	-10.79152	-0.6189309	0	0
11.45751	-0.1503309	0.3814548	1.30151	0.08522826	21.7192	0.9443215	0	0
11.47408	-0.1427333	0.3821518	0.4586191	0.04207623	-25.43997	-1.302406	0	0
11.49065	-0.1296632	0.3831527	0.7889595	0.06041859	9.970268	0.5536052	0	0
11.50721	-0.1251841	0.3834924	0.2703743	0.02050112	-15.65183	-1.204781	0	0
11.54041	-0.1171713	0.3800786	0.2413726	-0.1028353	-0.5828005	-2.47849	0	0
11.55692	-0.1171713	0.3800786	0	0	-4.855773	2.068772	0	0
11.57348	-0.1171194	0.3800429	0.003135439	-0.00215809	0.09481332	-0.06525899	0	0
11.59004	-0.1166003	0.3796854	0.03133815	-0.02157691	0.8514291	-0.5862468	0	0
11.60696	-0.1124967	0.3768619	0.2426496	-0.1669592	6.311992	-4.342649	0	0
11.62347	-0.1097675	0.3749856	0.1652944	-0.1136357	-2.314468	1.595438	0	0
11.63974	-0.1091175	0.3745389	0.03993585	-0.02744353	-3.823274	2.62875	0	0
11.65631	-0.1074009	0.3733597	0.1036183	-0.07118545	1.938961	-1.331825	0	0
11.67288	-0.1072448	0.3732167	0.009421684	-0.008627886	-2.843023	1.8881	0	0
11.68951	-0.1072448	0.3732167	0	0	-0.2837589	0.2598516	0	0
11.70601	-0.1072709	0.3732346	-0.001577042	0.001082071	-0.04759522	0.03265698	0	0
11.72258	-0.1072709	0.3732346	0	0	0.04769681	-0.03272668	0	0
11.73915	-0.1072709	0.3732346	0	0	0	0	0	0
11.75837	-0.1073229	0.3732703	-0.00270716	0.001860857	-0.07563918	0.05199314	0	0
11.77494	-0.1073489	0.3732525	-0.001569783	-0.001078888	0.03177711	-0.08213335	0	0
11.79158	-0.1073749	0.3732346	-0.001562769	-0.001074375	0.0002111514	0.0001358576	0	0
11.80807	-0.1074009	0.3732167	-0.001577959	-0.00108301	-0.0004585438	-0.000260661	0	0
11.82463	-0.1074529	0.373181	-0.003140561	-0.002156971	-0.04728055	-0.03249545	0	0
11.8412	-0.107479	0.3731631	-0.001570415	-0.001079323	0.04738847	0.03252443	0	0
11.85777	-0.1077651	0.3729666	-0.01727196	-0.01186244	-0.4738873	-0.3254446	0	0
11.87465	-0.1084153	0.3725199	-0.0385231	-0.02646336	-0.6353986	-0.4365603	0	0
11.8909	-0.1098715	0.3715194	-0.08958798	-0.06155392	-1.541186	-1.059066	0	0
11.90747	-0.1100795	0.3713765	-0.01255505	-0.008627886	2.347084	1.612581	0	0
11.92404	-0.1100795	0.3713765	0	0	0.3789121	0.2603901	0	0
11.94069	-0.1101055	0.3713943	-0.001561426	0.001071971	-0.04700083	0.03226762	0	0
11.95717	-0.1101315	0.3714122	-0.001577511	0.001085132	-0.0004854808	0.0003972547	0	0
11.97373	-0.1101575	0.3713943	-0.001569156	-0.001079385	0.0002528318	-0.06550249	0	0
11.9903	-0.1102355	0.3713765	-0.004707919	-0.001077586	-0.09473349	5.429603E-05	0	0
12.0069	-0.1103655	0.3713586	-0.007831803	-0.001077339	-0.09419496	7.466385E-06	0	0
12.02343	-0.1106774	0.3715015	-0.01886463	0.008643809	-0.3329809	0.2933933	0	0
12.04	-0.1112493	0.3718946	-0.0345172	0.02372532	-0.4728448	0.4555936	0	0
12.05657	-0.1155358	0.3748427	-0.2587489	0.1779582	-6.76752	4.654893	0	0
12.07313	-0.1204146	0.3782021	-0.2945031	0.2027877	-1.079126	0.7493978	0	0
12.08979	-0.1326119	0.3866206	-0.732097	0.5052912	-13.16984	9.104157	0	0
12.10627	-0.1418565	0.3930216	-0.5612074	0.3885797	5.157607	-3.522461	0	0
12.12283	-0.149945	0.3986377	-0.4882491	0.3390097	2.208241	-1.500345	0	0
12.1394	-0.15845	0.4044884	-0.5133916	0.3531676	-0.7588447	0.4273115	0	0
12.15634	-0.1630398	0.4075847	-0.2709307	0.1827661	7.236051	-5.085498	0	0
12.17253	-0.1679809	0.4108964	-0.3051651	0.2045349	-1.033258	0.6570231	0	0
12.1891	-0.1692596	0.4117558	-0.07718419	0.05187406	6.959399	-4.66016	0	0
12.20567	-0.1693875	0.4117021	-0.007716705	-0.003241753	2.096593	-1.663447	0	0
12.22223	-0.1695153	0.4115767	-0.00771626	-0.007566054	1.34076E-05	-0.1305114	0	0
12.2388	-0.1698221	0.4113619	-0.01851865	-0.01296881	-0.3260262	-0.1630603	0	0
12.25537	-0.176053	0.4069582	-0.3760982	-0.2658085	-10.79208	-7.630937	0	0
12.27193	-0.1805389	0.4038084	-0.2707845	-0.1901319	3.178467	2.28399	0	0
12.28893	-0.1904021	0.3969026	-0.5802147	-0.4062412	-9.218694	-6.438432	0	0
12.30507	-0.1971678	0.3921275	-0.4193627	-0.29598	4.854803	3.327882	0	0
12.32163	-0.2033095	0.3877826	-0.3707364	-0.2622708	1.487062	1.030875	0	0
12.3382	-0.2102665	0.3828489	-0.4199465	-0.2978186	-1.485248	-1.072895	0	0
12.40451	-0.2245933	0.3726092	-0.2160361	-0.1544057	2.460223	1.730308	0	0
12.4376	-0.2249684	0.3722698	-0.01133882	-0.01026052	2.059338	1.450159	0	0
12.458	-0.2249684	0.3722698	0	0	0.2120042	0.191843	0	0
12.47457	-0.2249434	0.3722519	0.001509253	-0.001079323	0.04082569	-0.02919596	0	0
12.49113	-0.2249184	0.372234	0.00150934	-0.001077586	2.621088E-06	5.241824E-05	0	0
12.5077	-0.2248934	0.3722162	0.00150934	-0.001079385	0	-5.429603E-05	0	0
12.52427	-0.2248434	0.3721804	0.003019406	-0.002156847	0.04557519	-0.0325188	0	0
12.54083	-0.2246933	0.3720732	0.00905784	-0.006470914	0.1822455	-0.1302025	0	0
12.55762	-0.2246433	0.3720375	0.002979065	-0.002128664	-0.1822565	0.1301913	0	0
12.57396	-0.2246433	0.3720375	0	0	-0.08991353	0.06424692	0	0
12.59053	-0.2246433	0.3720375	0	0	0	0	0	0
12.60715	-0.2246433	0.3720375	0	0	0	0	0	0
12.62368	-0.2246183	0.3720196	0.001514337	-0.00108051	0.04568832	-0.03259953	0	0
12.64023	-0.2245432	0.371966	0.00453179	-0.003238407	0.09122445	-0.06523813	0	0
12.6568	-0.2244682	0.3719124	0.00452982	-0.003234558	-5.94834E-05	0.0001162253	0	0
12.67336	-0.2244432	0.3718946	0.00150934	-0.001079385	-0.0911635	0.06504697	0	0
12.69021	-0.2244182	0.3718767	0.001484937	-0.001059532	-0.0007303245	0.0005941443	0	0
12.70673	-0.2244182	0.3718767	0	0	-0.04451184	0.03176009	0	0
12.72307	-0.2244182	0.3718767	0	0	0	0	0	0
12.73963	-0.2243932	0.3718588	0.00150934	-0.001079385	0.04586617	-0.0328006	0	0
12.7562	-0.2243682	0.371841	0.00151024	-0.001077586	2.714977E-05	5.429603E-05	0	0
12.77277	-0.2243181	0.3718053	0.00301958	-0.002156971	0.0455546	-0.03257779	0	0
12.78933	-0.2242931	0.3717874	0.00151024	-0.001079385	-0.0455546	0.03252349	0	0
12.8059	-0.2242931	0.3717874	0	0	-0.04558175	0.03257778	0	0
12.82246	-0.2242931	0.3717874	0	0	0	0	0	0
12.83903	-0.2242681	0.3717695	0.00150934	-0.001077586	0.04555329	-0.03252255	0	0
12.8556	-0.2242431	0.3717516	0.00151024	-0.001079385	2.714977E-05	-5.429603E-05	0	0
12.87216	-0.224168	0.3717338	0.00452982	-0.001077586	0.09113636	5.429603E-05	0	0
12.88886	-0.224118	0.3716981	0.002996844	-0.002140093	-0.04608623	-0.03194241	0	0
12.9053	-0.2240179	0.3716623	0.006087368	-0.002173866	0.09327219	-0.001019258	0	0
12.92187	-0.2239679	0.3716266	0.003020132	-0.002156723	-0.09293046	0.0005193835	0	0
12.93843	-0.2238678	0.3715551	0.006041655	-0.004314439	0.09119499	-0.06512376	0	0
12.955	-0.2238678	0.3715909	0	0.002156971	-0.1823585	0.1953301	0	0
12.97156	-0.2238428	0.3716087	0.00151024	0.001077586	0.04558175	-0.03257779	0	0
12.98813	-0.2238428	0.3716087	0	0	-0.04558175	-0.03252349	0	0
13.0047	-0.2238428	0.3716087	0	0	0	0	0	0
13.02145	-0.2238428	0.3716087	0	0	0	0	0	0
13.03783	-0.2238678	0.3716266	-0.00152703	0.001091385	-0.04608718	0.03293902	0	0
13.0544	-0.2238678	0.3716266	0	0	0.04634329	-0.03312207	0	0
13.07096	-0.2238678	0.3716266	0	0	0	0	0	0
13.08753	-0.2238929	0.3716444	-0.00151024	0.001077586	-0.04558175	0.03252349	0	0
13.1041	-0.2238929	0.3716444	0	0	0.04558044	-0.03252255	0	0
13.12066	-0.2238929	0.3716444	0	0	0	0	0	0
13.15693	-0.2238678	0.3716266	0.0006898881	-0.0004922489	0.01305823	-0.009317311	0	0
13.17355	-0.2238678	0.3716266	0	0	-0.01304411	0.009307231	0	0
13.19006	-0.2238678	0.3716266	0	0	0	0	0	0
13.20663	-0.2238678	0.3716266	0	0	0	0	0	0
13.22319	-0.2238678	0.3716266	0	0	0	0	0	0
13.23976	-0.2238678	0.3716266	0	0	0	0	0	0
13.26606	-0.2238678	0.3716266	0	0	0	0	0	0
13.28263	-0.2238678	0.3716266	0	0	0	0	0	0
13.2992	-0.2238428	0.3716444	0.00151024	0.001077586	0.04558044	0.03252255	0	0
13.31577	-0.2236927	0.3717159	0.009060917	0.004313694	0.2278865	0.09766874	0	0
13.33237	-0.2234925	0.3717874	0.01205319	0.004303043	0.09019525	-0.0003210526	0	0
13.34918	-0.2233674	0.3717338	0.00744622	-0.00318921	-0.1378916	-0.2242513	0	0
13.36569	-0.2231922	0.3716444	0.01061041	-0.005411709	0.09498709	-0.06671797	0	0
13.38203	-0.2226416	0.3714658	0.03368568	-0.01092957	0.702295	-0.1679359	0	0
13.3986	-0.2221409	0.3712156	0.03022284	-0.01509793	-0.1052081	-0.1266434	0	0
13.46041	-0.2182064	0.3690539	0.06365035	-0.03497105	0.4264717	-0.2535434	0	0
13.47698	-0.2181562	0.3690897	0.0030284	0.002156847	-0.7734213	0.4736817	0	0
13.49378	-0.2180308	0.3691432	0.007466924	0.003190478	0.1330397	0.03098191	0	0
13.51011	-0.2178803	0.3691432	0.009213013	0	0.05270009	-0.09629435	0	0
13.5268	-0.2174036	0.3689468	0.0285674	-0.01177523	0.5860732	-0.3565677	0	0
13.54325	-0.2136116	0.3666423	0.2305562	-0.1401158	6.096209	-3.873439	0	0
13.55982	-0.2110466	0.3649274	0.1547433	-0.1034553	-2.295767	1.110156	0	0
13.57638	-0.207723	0.3628911	0.20074	-0.1229912	1.388262	-0.5896288	0	0
13.59295	-0.2055047	0.3621409	0.1339058	-0.04528381	-2.017756	2.346024	0	0
13.60986	-0.2030823	0.3627839	0.1432447	0.03802447	0.2789661	2.488536	0	0
13.62608	-0.2020723	0.3630697	0.06225843	0.01761728	-2.444242	-0.6159081	0	0
13.65921	-0.2018955	0.3629447	0.005336211	-0.00377425	-1.15331	-0.4334172	0	0
13.6759	-0.201845	0.3628732	0.003026267	-0.004279623	-0.04636141	-0.01014302	0	0
13.69235	-0.2018197	0.3628554	0.001536217	-0.001085774	-0.0449711	0.09639332	0	0
13.70893	-0.2018197	0.3628196	0	-0.002154863	-0.04651842	-0.03237323	0	0
13.72548	-0.2018197	0.3628196	0	0	0	0.06503575	0	0
13.74205	-0.2017692	0.3627839	0.003049088	-0.002156847	0.0920667	-0.06512564	0	0
13.75861	-0.201744	0.3627661	0.001524632	-0.001077586	-0.0460095	0.0325731	0	0
13.77547	-0.201744	0.3627661	0	0	-0.04561045	0.03223677	0	0
13.82501	-0.2016429	0.3626946	0.002039796	-0.001442086	0.0307209	-0.02171892	0	0
13.84658	-0.2016429	0.3626946	0	0	-0.02868479	0.02027944	0	0
13.86354	-0.2016935	0.3626589	-0.002980669	-0.002107828	-0.07736666	-0.05471107	0	0
13.87972	-0.2017187	0.362641	-0.001560843	-0.00110318	0.04285046	0.03032035	0	0
13.89656	-0.2017187	0.362641	0	0	0.04726685	0.03340748	0	0
13.91285	-0.201744	0.3626232	-0.001549972	-0.001097325	-0.04677691	-0.0331164	0	0
13.92942	-0.2017692	0.3626053	-0.001524807	-0.00107771	0.0007658339	0.000596935	0	0
13.94609	-0.2018197	0.3625696	-0.003029209	-0.002142786	-0.04525835	-0.03204167	0	0
13.96255	-0.2018703	0.3625338	-0.003069407	-0.00217122	-0.001213198	-0.0008581919	0	0
13.97912	-0.2019208	0.3624981	-0.003049263	-0.002155172	0.0006099708	0.0004859546	0	0
13.99568	-0.2019713	0.3624624	-0.003049263	-0.002156971	0	-5.429954E-05	0	0
14.01225	-0.2020471	0.3624088	-0.004573895	-0.003234558	-0.04601612	-0.03252348	0	0
14.02882	-0.2020723	0.362391	-0.001524632	-0.001077586	0.09203225	0.06510127	0	0
14.04538	-0.2021228	0.3623552	-0.003049263	-0.002156971	-0.04601612	-0.03257779	0	0
14.06195	-0.2021481	0.3623374	-0.001524632	-0.001077586	0.04601612	0.03257779	0	0
14.07869	-0.2021481	0.3623374	0	0	0.04578025	0.03235678	0	0
14.09508	-0.2021481	0.3623374	0	0	0	0	0	0
14.11165	-0.2021733	0.3623552	-0.001523732	0.001077586	-0.04622581	0.03269098	0	0
14.12822	-0.2021733	0.3623552	0	0	0.04598236	-0.03251881	0	0
14.14478	-0.2021733	0.3623552	0	0	0	0	0	0
14.16135	-0.2021986	0.3623731	-0.001524632	0.001077586	-0.04602009	0.0325263	0	0
14.17792	-0.2021986	0.3623731	0	0	0.04601612	-0.03252349	0	0
14.19477	-0.2021986	0.3623731	0	0	0	0	0	0
14.21105	-0.2021986	0.3623731	0	0	0	0	0	0
14.22762	-0.2021986	0.3623731	0	0	0	0	0	0
14.24418	-0.2021986	0.3623731	0	0	0	0	0	0
14.26075	-0.2021986	0.3623731	0	0	0	0	0	0
14.27733	-0.2021986	0.3623731	0	0	0	0	0	0
14.29388	-0.2021986	0.3623731	0	0	0	0	0	0
14.31085	-0.2021986	0.3623731	0	0	0	0	0	0
14.32702	-0.2021986	0.3623731	0	0	0	0	0	0
14.34358	-0.2021986	0.3623731	0	0	0	0	0	0
14.36015	-0.2021986	0.3623731	0	0	0	0	0	0
14.37672	-0.2022239	0.3623552	-0.001524544	-0.001077524	-0.04601215	-0.03252068	0	0
14.39341	-0.2021986	0.3623731	0.001513133	0.001069459	0.09133291	0.0645527	0	0
14.40985	-0.2021986	0.3623731	0	0	-0.04566777	-0.03227728	0	0
14.44298	-0.2021986	0.3623731	0	0	0	0	0	0
14.45955	-0.2021986	0.3623731	0	0	0	0	0	0
14.48073	-0.2021986	0.3623731	0	0	0	0	0	0
14.49748	-0.2022239	0.3623552	-0.001507449	-0.001065442	-0.03973942	-0.02808721	0	0
14.51399	-0.2022239	0.3623552	0	0	0.04531362	0.03202697	0	0
14.53043	-0.2022239	0.3623552	0	0	0	0	0	0
14.54699	-0.2022239	0.3623552	0	0	0	0	0	0
14.56356	-0.2022239	0.3623552	0	0	0	0	0	0
14.58054	-0.2022239	0.3623552	0	0	0	0	0	0
14.59669	-0.2022239	0.3623552	0	0	0	0	0	0
14.61326	-0.2022239	0.3623552	0	0	0	0	0	0
14.62983	-0.2022239	0.3623552	0	0	0	0	0	0
14.64639	-0.2022239	0.3623552	0	0	0	0	0	0
14.6631	-0.2022239	0.3623552	0	0	0	0	0	0
14.67953	-0.2022239	0.3623552	0	0	0	0	0	0
14.69612	-0.2022239	0.3623552	0	0	0	0	0	0
14.71266	-0.2022239	0.3623552	0	0	0	0	0	0
14.72923	-0.2022491	0.3623731	-0.001524632	0.001077586	-0.04605323	0.03254972	0	0
14.74579	-0.2022491	0.3623731	0	0	0.04601479	-0.03252255	0	0
14.76236	-0.2022491	0.3623731	0	0	0	0	0	0
14.77918	-0.2022491	0.3623731	0	0	0	0	0	0
14.79549	-0.2022491	0.3623731	0	0	0	0	0	0
14.81206	-0.2022491	0.3623731	0	0	0	0	0	0
14.82871	-0.2022239	0.3623552	0.001516599	-0.001071909	0.0456528	-0.0322667	0	0
14.84519	-0.2022239	0.3623552	0	0	-0.04577106	0.03235028	0	0
14.86176	-0.2022239	0.3623552	0	0	0	0	0	0
14.87833	-0.2022239	0.3623552	0	0	0	0	0	0
14.89489	-0.2022239	0.3623552	0	0	0	0	0	0
14.91146	-0.2022239	0.3623552	0	0	0	0	0	0
14.92829	-0.2022239	0.3623552	0	0	0	0	0	0
14.94459	-0.2022239	0.3623552	0	0	0	0	0	0
14.96131	-0.2022239	0.3623552	0	0	0	0	0	0
14.97782	-0.2022239	0.3623552	0	0	0	0	0	0
14.99433	-0.2022239	0.3623552	0	0	0	0	0	0
15.01086	-0.2022239	0.3623552	0	0	0	0	0	0
15.02742	-0.2022239	0.3623552	0	0	0	0	0	0
15.04399	-0.2022239	0.3623552	0	0	0	0	0	0
15.14339	-0.2022239	0.3623552	0	0	0	0	0	0
15.16416	-0.2022239	0.3623552	0	0	0	0	0	0
15.18073	-0.2022239	0.3623552	0	0	0	0	0	0
15.1973	-0.2022239	0.3623552	0	0	0	0	0	0
15.25363	-0.2022239	0.3623552	0	0	0	0	0	0
15.2702	-0.2022239	0.3623552	0	0	0	0	0	0
15.28677	-0.2022239	0.3623552	0	0	0	0	0	0
15.30333	-0.2022239	0.3623552	0	0	0	0	0	0
15.32006	-0.2022239	0.3623552	0	0	0	0	0	0
15.33646	-0.2022491	0.3623374	-0.00153961	-0.001088173	-0.04646686	-0.03284207	0	0
15.35308	-0.2022491	0.3623374	0	0	0.04662387	0.03295304	0	0
15.3696	-0.2022491	0.3623374	0	0	0	0	0	0
15.38661	-0.2022491	0.3623374	0	0	0	0	0	0
15.40273	-0.2022491	0.3623374	0	0	0	0	0	0
15.4193	-0.2022491	0.3623374	0	0	0	0	0	0
15.43587	-0.2022491	0.3623374	0	0	0	0	0	0
15.45265	-0.2022491	0.3623374	0	0	0	0	0	0
15.46917	-0.2022491	0.3623374	0	0	0	0	0	0
15.48557	-0.2022491	0.3623374	0	0	0	0	0	0
15.50213	-0.2022491	0.3623374	0	0	0	0	0	0
15.5187	-0.2022491	0.3623374	0	0	0	0	0	0
15.53527	-0.2022491	0.3623374	0	0	0	0	0	0
15.55183	-0.2022491	0.3623374	0	0	0	0	0	0
15.5684	-0.2022491	0.3623374	0	0	0	0	0	0
15.58525	-0.2022491	0.3623374	0	0	0	0	0	0
15.60153	-0.2022491	0.3623374	0	0	0	0	0	0
15.61827	-0.2022491	0.3623374	0	0	0	0	0	0
15.63467	-0.2022491	0.3623374	0	0	0	0	0	0
15.65129	-0.2022491	0.3623374	0	0	0	0	0	0
15.66782	-0.2022491	0.3623374	0	0	0	0	0	0
15.68437	-0.2022491	0.3623374	0	0	0	0	0	0
15.70093	-0.2022491	0.3623374	0	0	0	0	0	0
15.7175	-0.2022491	0.3623374	0	0	0	0	0	0
15.73407	-0.2022491	0.3623374	0	0	0	0	0	0
15.75063	-0.2022744	0.3623552	-0.001523908	0.00107771	-0.04599427	0.03252723	0	0
15.7672	-0.2022744	0.3623552	0	0	0.04599427	-0.03252723	0	0
15.78377	-0.2022744	0.3623552	0	0	0	0	0	0
15.80033	-0.2022744	0.3623552	0	0	0	0	0	0
15.81691	-0.2022744	0.3623552	0	0	0	0	0	0
15.88316	-0.2022744	0.3623552	0	0	0	0	0	0
15.89997	-0.2022744	0.3623552	0	0	0	0	0	0
15.92133	-0.2022491	0.3623374	0.001181693	-0.0008356958	0.0309619	-0.02189632	0	0
15.938	-0.2022744	0.3623195	-0.001514664	-0.001072961	-0.07090674	-0.00623943	0	0
15.95451	-0.2022744	0.3623195	0	0	0.04565351	0.03234015	0	0
15.97103	-0.2022996	0.3623016	-0.001528503	-0.001080323	-0.04626748	-0.03270115	0	0
16.00417	-0.2022996	0.3623016	0	0	0.03078072	0.02175534	0	0
16.02073	-0.2023501	0.3623016	-0.003049088	0	-0.06134894	0	0	0
16.03757	-0.2023501	0.3623016	0	0	0.09128077	0	0	0
16.05387	-0.2023501	0.3623016	0	0	0	0	0	0
16.07043	-0.2023501	0.3623016	0	0	0	0	0	0
16.0871	-0.2023501	0.3623016	0	0	0	0	0	0
16.10361	-0.2023501	0.3623016	0	0	0	0	0	0
16.12013	-0.2023501	0.3623016	0	0	0	0	0	0
16.1367	-0.2022996	0.3623016	0.003049088	0	0.09215427	0	0	0
16.15327	-0.2022996	0.3623016	0	0	-0.09202165	0	0	0
16.16983	-0.2022491	0.3623374	0.003048188	0.002156847	0.0919945	0.06509378	0	0
16.1864	-0.2020218	0.3624981	0.01371999	0.009703115	0.3220758	0.2277468	0	0
16.20319	-0.2016429	0.3627303	0.0225728	0.01383345	0.2654363	0.1238412	0	0
16.2197	-0.1993685	0.3643379	0.1377471	0.0973598	3.459042	2.508556	0	0
16.2361	-0.1883207	0.3720554	0.6735147	0.4704851	16.27725	11.33599	0	0
16.25267	-0.1770732	0.3799177	0.6789014	0.474573	0.1633782	0.1239858	0	0
16.26924	-0.1607329	0.3912334	0.9862971	0.6830154	9.277221	6.290806	0	0
16.28625	-0.1484781	0.399729	0.7204583	0.4994534	-7.917297	-5.466904	0	0
16.30276	-0.1342921	0.4095716	0.8591385	0.5960928	4.137036	2.882895	0	0
16.31927	-0.1282915	0.4136896	0.3634527	0.249426	-15.01081	-10.49808	0	0
16.3355	-0.1192992	0.419905	0.5538711	0.382829	5.815125	4.073952	0	0
16.35207	-0.1070627	0.4283825	0.7385951	0.5117016	5.631387	3.928735	0	0
16.36864	-0.09740134	0.4350724	0.5831632	0.4038035	-4.690945	-3.256371	0	0
16.3852	-0.08356807	0.4447297	0.8349773	0.5829154	7.599765	5.405606	0	0
16.40183	-0.07279221	0.4523479	0.6481937	0.4582539	-5.627422	-3.755806	0	0
16.41834	-0.05827605	0.4628525	0.879031	0.6361079	6.965881	5.367026	0	0
16.43492	-0.04788442	0.4707765	0.6270233	0.4781279	-7.616569	-4.774717	0	0
16.45147	-0.03892769	0.4785109	0.5410028	0.4671749	-2.596551	-0.3306187	0	0
16.46804	-0.03172619	0.4868143	0.4346834	0.5011945	-3.209834	1.027068	0	0
16.48461	-0.02373238	0.4985303	0.4825072	0.707176	1.443325	6.216536	0	0
16.5014	-0.01789283	0.5111772	0.3477127	0.7530522	-4.040429	1.375127	0	0
16.51791	-0.01568292	0.5165495	0.1338368	0.3253581	-6.42152	-12.84131	0	0
16.61749	-0.001526315	0.5254189	0.142173	0.08907492	0.07181115	-2.035431	0	0
16.63371	-0.001499999	0.5253643	0.001622038	-0.003365271	-1.21377	-0.798295	0	0
16.65028	-0.001473683	0.5253462	0.001588418	-0.001097312	-0.001025293	0.0691638	0	0
16.66702	-0.001473683	0.5253462	0	0	-0.04768328	0.03294059	0	0
16.68769	-0.001499999	0.525328	-0.001272903	-0.0008793477	-0.03401814	-0.02350043	0	0
16.72083	-0.00155263	0.5252916	-0.00158833	-0.001097249	-0.005861848	-0.004049441	0	0
16.73757	-0.001578946	0.5252734	-0.001572307	-0.001089744	0.0003212655	0.0001504824	0	0
16.75396	-0.001578946	0.5252734	0	0	0.04745779	0.03289231	0	0
16.77053	-0.001578946	0.5252734	0	0	0	0	0	0
16.7871	-0.001605262	0.5252916	-0.001588425	0.00110091	-0.04793876	0.03322552	0	0
16.80366	-0.001605262	0.5252916	0	0	0.04793876	-0.03322552	0	0
16.82024	-0.001578946	0.5252734	0.001587876	-0.001100529	0.04791393	-0.03320831	0	0
16.8368	-0.001578946	0.5252734	0	0	-0.04792221	0.03321404	0	0
16.85336	-0.001578946	0.5252734	0	0	0	0	0	0
16.86993	-0.001605262	0.5252552	-0.001588425	-0.001097312	-0.04793876	-0.03311693	0	0
16.88668	-0.00155263	0.5252188	0.003143189	-0.002171375	0.14204	-0.03224268	0	0
16.90319	-0.001473683	0.5251642	0.004779567	-0.003305427	0.04919625	-0.03409427	0	0
16.9197	-0.001315789	0.5250551	0.009563559	-0.006610299	0.1448481	-0.1000638	0	0
16.93621	-0.0009473682	0.5248368	0.02231756	-0.01322213	0.3862729	-0.2002485	0	0
16.95276	0.0004210526	0.5238911	0.08267419	-0.05713802	1.825665	-1.328367	0	0
16.96974	0.001763156	0.5229637	0.07907943	-0.0546436	-0.107231	0.07440799	0	0
16.9859	0.001999997	0.5228	0.01465341	-0.01012656	-1.944381	1.343527	0	0
17.00247	0.002052629	0.5227637	0.00317647	-0.002194371	-0.3506337	0.2423375	0	0
17.01903	0.002342101	0.5225637	0.01747661	-0.01207321	0.4316038	-0.2981611	0	0
17.0356	0.003526301	0.5217456	0.07147846	-0.04937903	1.629967	-1.126021	0	0
17.05217	0.009736534	0.5174575	0.3748504	-0.2588325	9.155784	-6.321317	0	0
17.06874	0.01473578	0.5140078	0.3017201	-0.208199	-2.206952	1.528032	0	0
17.0853	0.0181559	0.5116126	0.2064866	-0.1446086	-2.874316	1.919273	0	0
17.10187	0.02165451	0.509164	0.2111765	-0.1477953	0.1415578	-0.09618551	0	0
17.11843	0.02302225	0.5082212	0.08255686	-0.05690911	-3.881749	2.742951	0	0
17.135	0.02375869	0.5076773	0.04445158	-0.03282941	-1.15002	0.7267268	0	0
17.15187	0.02378499	0.5076592	0.001559143	-0.001074175	-1.282829	0.9497368	0	0
17.16813	0.02389019	0.5075867	0.00646778	-0.00445591	0.1481429	-0.102061	0	0
17.1847	0.0243899	0.5072423	0.03016247	-0.02079136	0.7216709	-0.49753	0	0
17.20127	0.02778232	0.5048682	0.204767	-0.1432981	5.269576	-3.697261	0	0
17.21784	0.03390805	0.5004671	0.3697497	-0.2656502	4.979186	-3.692593	0	0
17.23443	0.0449434	0.4926513	0.6650996	-0.4710563	8.907012	-6.194534	0	0
17.25097	0.05318663	0.4869046	0.4983083	-0.3473928	-5.033769	3.732173	0	0
17.26754	0.05927259	0.4826432	0.3673494	-0.2572189	-3.955309	2.723492	0	0
17.2841	0.0622091	0.4805497	0.1772682	-0.1263817	-5.736992	3.948901	0	0
17.30098	0.06351969	0.4795753	0.07766801	-0.05774203	-2.978507	2.052644	0	0
17.32349	0.06354591	0.4795212	0.001164296	-0.00240405	-1.942372	1.40499	0	0
17.34006	0.06351969	0.4795032	-0.001582108	-0.001088317	-0.07027706	0.03366795	0	0
17.37353	0.06338865	0.4792686	-0.003915377	-0.007007565	-0.04663052	-0.1182965	0	0
17.38976	0.06336243	0.4792145	-0.001614828	-0.003334312	0.04628713	0.07390598	0	0
17.40633	0.06333622	0.4790882	-0.001582108	-0.007623618	0.0009976103	-0.1307764	0	0
17.42289	0.06331001	0.4790702	-0.001582108	-0.001088317	0	0.1972358	0	0
17.43946	0.06331001	0.4790702	0	0	0.04774811	0.03284548	0	0
17.45603	0.06331001	0.4790702	0	0	0	0	0	0
17.4726	0.06328381	0.4790521	-0.001581294	-0.001088067	-0.04771805	-0.03283414	0	0
17.48916	0.06328381	0.4790521	0	0	0.04772354	0.03283792	0	0
17.50573	0.06328381	0.4790521	0	0	0	0	0	0
17.52263	0.0632576	0.4790341	-0.001550162	-0.001068105	-0.04631212	-0.03191034	0	0
17.53886	0.06323139	0.479016	-0.001615398	-0.001111217	-0.001968809	-0.001301132	0	0
17.55543	0.06323139	0.479016	0	0	0.04926037	0.03388576	0	0
17.57199	0.06320518	0.478998	-0.001582108	-0.001088317	-0.04774811	-0.03284548	0	0
17.58868	0.06315275	0.4789619	-0.003141071	-0.0021625	-0.04687692	-0.0322999	0	0
17.60519	0.06307412	0.4789078	-0.004762773	-0.003278073	-0.04884744	-0.03360229	0	0
17.62169	0.0630217	0.4788717	-0.003177017	-0.002187247	0.04803794	0.03304483	0	0
17.68796	0.05140205	0.4705242	-0.1753408	-0.1259642	-2.080042	-1.495443	0	0
17.70453	0.05043089	0.4696774	-0.05861961	-0.05111314	1.409061	0.9036037	0	0
17.7211	0.05053588	0.4696053	0.00633765	-0.004349672	1.960414	1.411324	0	0
17.73767	0.05064088	0.4695333	0.006337425	-0.004349672	-6.78793E-06	0	0	0
17.75423	0.05069337	0.4694612	0.003168713	-0.004349672	-0.09563193	0	0	0
17.77082	0.05071962	0.4694432	0.001582716	-0.001087191	-0.04784068	0.09841088	0	0
17.78737	0.05077212	0.4694071	0.003171999	-0.002177092	0.04796465	-0.03289327	0	0
17.80393	0.05077212	0.4693711	0	-0.002174836	-0.09578075	6.811837E-05	0	0
17.8205	0.05077212	0.4693711	0	0	0	0.06564046	0	0
17.83736	0.05074587	0.469281	-0.001556403	-0.00534028	-0.04655695	-0.1597447	0	0
17.85363	0.05071962	0.469263	-0.001613521	-0.001108351	-0.001723907	0.1277272	0	0
17.8702	0.05058838	0.469173	-0.007921781	-0.00543619	-0.19212	-0.1318056	0	0
17.88677	0.05027339	0.4689928	-0.01901272	-0.01087418	-0.3347254	-0.1641189	0	0
17.90333	0.0499059	0.4687766	-0.02218211	-0.01304722	-0.0956523	-0.06558236	0	0
17.9199	0.04977464	0.4686866	-0.007922456	-0.00543619	0.4303573	0.2297012	0	0
17.93647	0.04420802	0.4649407	-0.336002	-0.226102	-9.901462	-6.659707	0	0
17.95345	0.03311946	0.4572747	-0.6531398	-0.4515451	-9.45423	-6.72071	0	0
17.9696	0.02993842	0.4551346	-0.1969046	-0.1324712	13.77	9.630224	0	0
18.00613	7.894737E-05	0.4349647	-0.8174062	-0.552151	-11.77762	-7.965864	0	0
18.0227	-0.01252566	0.4265897	-0.7608157	-0.5055208	1.065799	0.8782128	0	0
18.03926	-0.01570923	0.4244924	-0.1921609	-0.1265884	17.16203	11.4362	0	0
18.05583	-0.02746678	0.4168417	-0.7096866	-0.4617991	-15.61896	-10.11668	0	0
18.0724	-0.04000496	0.4097685	-0.7568064	-0.4269388	-1.422076	1.052086	0	0
18.08904	-0.0490396	0.4048642	-0.542832	-0.2946672	6.442924	3.982796	0	0
18.10553	-0.05901036	0.3984231	-0.6046904	-0.3906322	-1.866998	-2.896399	0	0
18.1221	-0.06616643	0.394041	-0.4319415	-0.2645043	5.225907	3.815554	0	0
18.13867	-0.07794701	0.3900354	-0.7110773	-0.2417774	-8.424336	0.6859008	0	0
18.15523	-0.08584116	0.3897493	-0.4765468	-0.01726936	7.078554	6.776055	0	0
18.1721	-0.1079992	0.3885335	-1.313419	-0.07206579	-25.0292	-1.638854	0	0
18.18861	-0.1168858	0.3875681	-0.5381948	-0.05846786	23.22252	0.4073381	0	0
18.20493	-0.1282915	0.3850653	-0.6989087	-0.1533628	-4.895161	-2.890389	0	0
18.2215	-0.1418823	0.3802752	-0.8203431	-0.2891363	-3.692528	-4.128547	0	0
18.23815	-0.1496877	0.3748606	-0.4688126	-0.3252162	10.58301	-1.086207	0	0
18.25466	-0.1603227	0.3674283	-0.6440778	-0.4501162	-5.285253	-3.766454	0	0
18.2712	-0.1680832	0.3620159	-0.4692392	-0.3272583	5.290036	3.717277	0	0
18.28777	-0.1753387	0.3569792	-0.4379398	-0.3040165	0.9454345	0.7020429	0	0
18.30433	-0.1836441	0.3511571	-0.5013186	-0.3514186	-1.912775	-1.430597	0	0
18.3209	-0.1876349	0.3483534	-0.240886	-0.1692325	7.859869	5.498388	0	0
18.33747	-0.1961807	0.3423355	-0.515822	-0.3632444	-8.297584	-5.855291	0	0
18.35404	-0.1989133	0.3404069	-0.1649421	-0.1164086	10.58957	7.449519	0	0
18.3706	-0.2036882	0.3370319	-0.2882098	-0.203715	-3.720226	-2.634914	0	0
18.38717	-0.2044704	0.3364783	-0.04722402	-0.03341789	7.273385	5.139874	0	0
18.40374	-0.2061099	0.3353176	-0.09895683	-0.07006246	-1.561389	-1.105999	0	0
18.4203	-0.207471	0.3343533	-0.08215897	-0.05820429	0.5069605	0.3578801	0	0
18.43687	-0.2075214	0.3343176	-0.003041892	-0.002156847	2.387758	1.691515	0	0
18.45344	-0.2074962	0.3342997	0.001520946	-0.001077524	0.1377067	0.03257403	0	0
18.47001	-0.2074962	0.3342997	0	0	-0.04590224	0.03251974	0	0
18.48683	-0.2074962	0.334264	0	-0.002122067	0	-0.06355024	0	0
18.50314	-0.207471	0.3342462	0.001544958	-0.001094536	0.04662693	0.03101095	0	0
18.56941	-0.2074458	0.3342283	0.0003802475	-0.0002698385	-0.01410458	0.009987039	0	0
18.58597	-0.2074458	0.3342283	0	0	-0.004590568	0.003257647	0	0
18.60254	-0.2074458	0.3342283	0	0	0	0	0	0
18.61911	-0.2074458	0.3342283	0	0	0	0	0	0
18.64012	-0.2074206	0.3342462	0.001199141	0.0008509576	0.03190861	0.0226436	0	0
18.65669	-0.2074206	0.3342462	0	0	-0.03190861	-0.0226436	0	0
18.67325	-0.2074206	0.3342462	0	0	0	0	0	0
18.68982	-0.2074458	0.3342283	-0.001520946	-0.001079323	-0.04590224	-0.03257403	0	0
18.70639	-0.2074206	0.3342104	0.001520946	-0.001077524	0.09180448	5.428939E-05	0	0
18.72296	-0.2074458	0.3342283	-0.001520946	0.001077524	-0.09180448	0.06503949	0	0
18.73952	-0.2074458	0.3342283	0	0	0.04590489	-0.03252162	0	0
18.75609	-0.2074458	0.3342283	0	0	0	0	0	0
18.77266	-0.2074206	0.3342462	0.001520946	0.001079323	0.04590224	0.03257403	0	0
18.78922	-0.2074206	0.3342462	0	0	-0.04590224	-0.03257403	0	0
18.80579	-0.2074206	0.3342462	0	0	0	0	0	0
18.82236	-0.2074206	0.3342462	0	0	0	0	0	0
18.83908	-0.2074458	0.334264	-0.001506378	0.001067204	-0.04524382	0.03205328	0	0
18.8556	-0.2074458	0.334264	0	0	0.04531911	-0.03210662	0	0
18.93521	-0.2074458	0.334264	0	0	0	0	0	0
18.95178	-0.2074458	0.334264	0	0	0	0	0	0
18.96835	-0.2074458	0.334264	0	0	0	0	0	0
18.98491	-0.2074458	0.334264	0	0	0	0	0	0
19.0017	-0.2074206	0.3342462	0.001501072	-0.001063445	0.04500453	-0.03188375	0	0
19.01821	-0.2074206	0.3342462	0	0	-0.04507929	0.03193672	0	0
19.03461	-0.2074206	0.3342462	0	0	0	0	0	0
19.05124	-0.2074206	0.3342462	0	0	0	0	0	0
19.06775	-0.2074206	0.3342462	0	0	0	0	0	0
19.08431	-0.2074206	0.3342462	0	0	0	0	0	0
19.10088	-0.2074206	0.3342462	0	0	0	0	0	0
19.11745	-0.2074206	0.3342462	0	0	0	0	0	0
19.13401	-0.2074206	0.3342462	0	0	0	0	0	0
19.15058	-0.2074458	0.334264	-0.001520946	0.001077524	-0.04590489	0.03252162	0	0
19.16732	-0.2074458	0.334264	0	0	0.04566304	-0.03235028	0	0
19.20028	-0.2074458	0.334264	0	0	0	0	0	0
19.21685	-0.2074206	0.3342462	0.001520771	-0.0010774	0.03070284	-0.02175163	0	0
19.23341	-0.2074206	0.3342462	0	0	-0.04590224	0.03251975	0	0
19.24998	-0.2074206	0.3342462	0	0	0	0	0	0
19.26655	-0.2074206	0.3342462	0	0	0	0	0	0
19.2834	-0.2074206	0.3342462	0	0	0	0	0	0
19.29991	-0.2073954	0.3342283	0.001525689	-0.001082689	0.04572426	-0.03244773	0	0
19.31625	-0.2073954	0.3342283	0	0	-0.04644642	0.0329602	0	0
19.33688	-0.2073954	0.3342283	0	0	0	0	0	0
19.35345	-0.2073954	0.3342283	0	0	0	0	0	0
19.37002	-0.2073954	0.3342283	0	0	0	0	0	0
19.38658	-0.2073954	0.3342283	0	0	0	0	0	0
19.40315	-0.2073954	0.3342283	0	0	0	0	0	0
19.41999	-0.2073954	0.3342283	0	0	0	0	0	0
19.43628	-0.2073954	0.3342283	0	0	0	0	0	0
19.45285	-0.2073954	0.3342283	0	0	0	0	0	0
19.46942	-0.2073954	0.3342283	0	0	0	0	0	0
19.48598	-0.2073954	0.3342283	0	0	0	0	0	0
19.50256	-0.2073954	0.3342283	0	0	0	0	0	0
19.51912	-0.2073954	0.3342283	0	0	0	0	0	0
19.53568	-0.2073954	0.3342283	0	0	0	0	0	0
19.55225	-0.2073954	0.3342283	0	0	0	0	0	0
19.56882	-0.2073954	0.3342283	0	0	0	0	0	0
19.58562	-0.2073954	0.3342283	0	0	0	0	0	0
19.60196	-0.2073954	0.3342283	0	0	0	0	0	0
19.61864	-0.2073954	0.3342283	0	0	0	0	0	0
19.63509	-0.2073954	0.3342283	0	0	0	0	0	0
19.65166	-0.2073954	0.3342283	0	0	0	0	0	0
19.66822	-0.2073954	0.3342283	0	0	0	0	0	0
19.68479	-0.2073954	0.3342283	0	0	0	0	0	0
19.70135	-0.2073954	0.3342283	0	0	0	0	0	0
19.71792	-0.2074206	0.3342104	-0.001520946	-0.001077524	-0.04590224	-0.03251974	0	0
19.73449	-0.2074206	0.3342104	0	0	0.04590224	0.03251974	0	0
19.76762	-0.2074206	0.3342104	0	0	0	0	0	0
19.78426	-0.2074206	0.3342104	0	0	0	0	0	0
19.80076	-0.2073954	0.3341926	0.001527276	-0.001082009	0.04609328	-0.03265509	0	0
19.81732	-0.2073954	0.3341926	0	0	-0.046189	0.0327229	0	0
19.83389	-0.2073702	0.3341747	0.001522021	-0.001077648	0.04593732	-0.03252536	0	0
19.85046	-0.2073702	0.3341747	0	0	-0.04593732	0.03252536	0	0
19.86732	-0.207345	0.3341569	0.00149445	-0.001058753	0.04470627	-0.03167246	0	0
19.88359	-0.207345	0.3341569	0	0	-0.04510259	0.03195323	0	0
19.90034	-0.207345	0.3341569	0	0	0	0	0	0
19.91686	-0.207345	0.3341569	0	0	0	0	0	0
19.93329	-0.207345	0.3341569	0	0	0	0	0	0
19.94988	-0.207345	0.3341569	0	0	0	0	0	0
19.96642	-0.207345	0.3341569	0	0	0	0	0	0
19.98299	-0.207345	0.3341569	0	0	0	0	0	0
20.02192	-0.2073702	0.3341747	-0.0006471826	0.0004585007	-0.01166054	0.008260986	0	0
20.03847	-0.2073702	0.3341747	0	0	0.01166615	-0.008264962	0	0
20.05503	-0.2073702	0.3341747	0	0	0	0	0	0
20.07941	-0.2073702	0.3341747	0	0	0	0	0	0
20.09598	-0.2073702	0.3341747	0	0	0	0	0	0
20.11255	-0.2073702	0.3341747	0	0	0	0	0	0
20.12912	-0.2073702	0.3341747	0	0	0	0	0	0
20.14568	-0.207345	0.3341926	0.001520946	0.001077524	0.04590224	0.03251974	0	0
20.16225	-0.207345	0.3341926	0	0	-0.04590224	-0.03251974	0	0
20.17904	-0.2073702	0.3341747	-0.001501243	-0.001063565	-0.04501222	-0.0318892	0	0
20.19555	-0.2073702	0.3341747	0	0	0.04508699	0.03194218	0	0
20.21206	-0.207345	0.3341569	0.001526041	-0.001081134	0.04621029	-0.03273798	0	0
20.22857	-0.207345	0.3341569	0	0	-0.04621029	0.03273798	0	0
20.24508	-0.207345	0.3341569	0	0	0	0	0	0
20.26165	-0.207345	0.3341569	0	0	0	0	0	0
20.27822	-0.2073198	0.334139	0.001521472	-0.001079696	0.04592339	-0.03258904	0	0
20.29478	-0.2073198	0.334139	0	0	-0.04592603	0.03259092	0	0
20.34465	-0.2072946	0.3341211	0.0005052564	-0.0003579521	0.007604853	-0.005387708	0	0
20.36117	-0.2072946	0.3341211	0	0	-0.00761119	0.005392197	0	0
20.37768	-0.2072946	0.3341211	0	0	0	0	0	0
20.39418	-0.2072946	0.3341211	0	0	0	0	0	0
20.41075	-0.2073198	0.334139	-0.001521121	0.001077648	-0.04599225	0.03258351	0	0
20.42732	-0.2073198	0.334139	0	0	0.04591017	-0.03252536	0	0
20.44388	-0.2073198	0.334139	0	0	0	0	0	0
20.46074	-0.2073198	0.334139	0	0	0	0	0	0
20.47725	-0.2073198	0.334139	0	0	0	0	0	0
20.49376	-0.2073198	0.334139	0	0	0	0	0	0
20.51027	-0.2072946	0.3341211	0.001526041	-0.001081134	0.04621029	-0.03273798	0	0
20.52672	-0.2072946	0.3341211	0	0	-0.04630122	0.0328024	0	0
20.54329	-0.2072946	0.3341211	0	0	0	0	0	0
20.55985	-0.2072946	0.3341211	0	0	0	0	0	0
20.59728	-0.2072946	0.3341211	0	0	0	0	0	0
20.61385	-0.2072946	0.3341211	0	0	0	0	0	0
20.63042	-0.2072946	0.3341211	0	0	0	0	0	0
20.64698	-0.2072946	0.3341211	0	0	0	0	0	0
20.66355	-0.2072946	0.3341211	0	0	0	0	0	0
20.68039	-0.2072946	0.3341211	0	0	0	0	0	0
20.69691	-0.2072946	0.3341211	0	0	0	0	0	0
20.71325	-0.2072946	0.3341211	0	0	0	0	0	0
20.72993	-0.2073198	0.334139	-0.00151103	0.001070499	-0.04575839	0.03241783	0	0
20.74638	-0.2073198	0.334139	0	0	0.04560561	-0.03230959	0	0
20.76295	-0.2073198	0.334139	0	0	0	0	0	0
20.77952	-0.2073198	0.334139	0	0	0	0	0	0
20.79608	-0.2073198	0.334139	0	0	0	0	0	0
20.81265	-0.2073198	0.334139	0	0	0	0	0	0
20.8295	-0.2073198	0.334139	0	0	0	0	0	0
20.84578	-0.2073198	0.334139	0	0	0	0	0	0
20.86235	-0.2073198	0.334139	0	0	0	0	0	0
20.87892	-0.2073198	0.334139	0	0	0	0	0	0
20.89548	-0.2073198	0.334139	0	0	0	0	0	0
20.91205	-0.2073198	0.334139	0	0	0	0	0	0
20.92862	-0.2072946	0.3341211	0.001520771	-0.0010774	0.04589432	-0.03251413	0	0
20.94518	-0.2072946	0.3341211	0	0	-0.0458996	0.03251787	0	0
20.96175	-0.2072946	0.3341211	0	0	0	0	0	0
20.97832	-0.2073198	0.334139	-0.001520946	0.001077524	-0.04590224	0.03251974	0	0
20.99489	-0.2073198	0.334139	0	0	0.04590224	-0.03251974	0	0
21.01145	-0.2073198	0.334139	0	0	0	0	0	0
21.02802	-0.2072946	0.3341569	0.001520946	0.001079323	0.04590224	0.03257403	0	0
21.04459	-0.2072946	0.3341569	0	0	-0.04590224	-0.03257403	0	0
21.11086	-0.2072946	0.3341569	0	0	0	0	0	0
21.12742	-0.2072946	0.3341569	0	0	0	0	0	0
21.14399	-0.2072946	0.3341569	0	0	0	0	0	0
21.16056	-0.2072946	0.3341569	0	0	0	0	0	0
21.17713	-0.2072946	0.3341569	0	0	0	0	0	0
21.19376	-0.2072694	0.334139	0.001514495	-0.001074745	0.0456104	-0.03236693	0	0
21.21028	-0.2072946	0.3341211	-0.001525512	-0.001080759	-0.09168954	-0.0001813955	0	0
21.22683	-0.2072694	0.3341033	0.001522875	-0.001078891	0.09219687	5.651782E-05	0	0
21.2438	-0.2072442	0.3340854	0.001485587	-0.001051852	-0.001112484	0.0008067039	0	0
21.26535	-0.2071938	0.3340497	0.002338633	-0.001658203	0.02214508	-0.01574087	0	0
21.28192	-0.2071686	0.3340319	0.001520946	-0.001077524	-0.02145233	0.01523433	0	0
21.29848	-0.2071686	0.3340319	0	0	-0.0458996	0.03251787	0	0
21.31505	-0.2071686	0.3340319	0	0	0	0	0	0
21.33162	-0.2071686	0.3340319	0	0	0	0	0	0
21.34837	-0.2071686	0.3340319	0	0	0	0	0	0
21.36488	-0.2071686	0.3340319	0	0	0	0	0	0
21.3814	-0.2071686	0.3340319	0	0	0	0	0	0
21.39788	-0.2071686	0.3340319	0	0	0	0	0	0
21.41445	-0.2071938	0.3340497	-0.001520946	0.001077524	-0.04602145	0.0326042	0	0
21.43102	-0.2071938	0.3340497	0	0	0.04590224	-0.03251974	0	0
21.44758	-0.2071938	0.3340497	0	0	0	0	0	0
21.46445	-0.2071938	0.3340497	0	0	0	0	0	0
21.48071	-0.2071938	0.3340497	0	0	0	0	0	0
21.49728	-0.2071938	0.3340497	0	0	0	0	0	0
21.51385	-0.2071938	0.3340497	0	0	0	0	0	0
21.53042	-0.2071938	0.3340497	0	0	0	0	0	0
21.54698	-0.2071938	0.3340497	0	0	0	0	0	0
21.56403	-0.2071686	0.3340319	0.00147856	-0.001047496	0.04399248	-0.03116676	0	0
21.58012	-0.2071686	0.3340319	0	0	-0.04462561	0.03161531	0	0
21.59705	-0.2071686	0.3340319	0	0	0	0	0	0
21.61325	-0.2071938	0.334014	-0.001555326	-0.001101881	-0.04694253	-0.03325674	0	0
21.62982	-0.2071938	0.334014	0	0	0.04746442	0.03362647	0	0
21.64638	-0.2071938	0.334014	0	0	0	0	0	0
21.66295	-0.2071938	0.334014	0	0	0	0	0	0
21.67961	-0.2071938	0.334014	0	0	0	0	0	0
21.69612	-0.2071938	0.334014	0	0	0	0	0	0
21.71265	-0.207219	0.3340319	-0.00152428	0.001079886	-0.04613033	0.03268133	0	0
21.72922	-0.207219	0.3340319	0	0	0.04605324	-0.03262672	0	0
21.84519	-0.207219	0.3340319	0	0	0	0	0	0
21.86175	-0.207219	0.3340319	0	0	0	0	0	0
21.87832	-0.207219	0.3340319	0	0	0	0	0	0
21.89489	-0.207219	0.3340319	0	0	0	0	0	0
21.91178	-0.2072442	0.334014	-0.001492087	-0.001057079	-0.04459996	-0.03159713	0	0
21.92802	-0.2072442	0.334014	0	0	0.04502868	0.03190086	0	0
21.94972	-0.207219	0.3339961	0.001161197	-0.0008226575	0.0305992	-0.0216782	0	0
21.96632	-0.207219	0.3339961	0	0	-0.03032183	0.02148169	0	0
21.98286	-0.207219	0.3339961	0	0	0	0	0	0
22.01636	-0.207219	0.3339961	0	0	0	0	0	0
22.03256	-0.207219	0.3339961	0	0	0	0	0	0
22.04912	-0.207219	0.3339961	0	0	0	0	0	0
22.06569	-0.207219	0.3339961	0	0	0	0	0	0
22.0824	-0.2072442	0.334014	-0.001508442	0.001068666	-0.04533698	0.03211927	0	0
22.09882	-0.2072442	0.334014	0	0	0.0455275	-0.03225425	0	0
22.11542	-0.2072442	0.334014	0	0	0	0	0	0
22.13196	-0.2072442	0.334014	0	0	0	0	0	0
22.14852	-0.2072442	0.334014	0	0	0	0	0	0
22.16509	-0.2072442	0.334014	0	0	0	0	0	0
22.18166	-0.207219	0.3339961	0.001520946	-0.001077524	0.04590224	-0.03251974	0	0
22.19822	-0.207219	0.3339961	0	0	-0.04590489	0.03252162	0	0
22.21499	-0.207219	0.3339961	0	0	0	0	0	0
22.23136	-0.207219	0.3339961	0	0	0	0	0	0
22.24801	-0.207219	0.3339961	0	0	0	0	0	0
22.26449	-0.2071938	0.3339783	0.001529398	-0.001083512	0.04615997	-0.03270233	0	0
22.28106	-0.2071938	0.3339783	0	0	-0.0462852	0.03279106	0	0
22.29762	-0.2071938	0.3339783	0	0	0	0	0	0
22.31419	-0.2071938	0.3339783	0	0	0	0	0	0
22.33076	-0.2071686	0.3339961	0.001520946	0.001077524	0.04590224	0.03251974	0	0
22.34732	-0.2071686	0.3339961	0	0	-0.04590224	-0.03251974	0	0
22.36389	-0.2071686	0.3339961	0	0	0	0	0	0
22.38046	-0.2071434	0.334014	0.001521845	0.001077524	0.04592939	0.03251974	0	0
22.39703	-0.2071434	0.334014	0	0	-0.04592939	-0.03251974	0	0
22.41359	-0.207093	0.334014	0.003041892	0	0.09180448	0	0	0
22.43016	-0.207093	0.334014	0	0	-0.09180448	0	0	0
22.44673	-0.2070678	0.3340319	0.001521845	0.001077524	0.04592939	0.03251974	0	0
22.46329	-0.2070678	0.3340676	0	0.002156847	-0.04592939	0.03257403	0	0
22.47986	-0.2070426	0.3341211	0.001520946	0.003232572	0.04590224	0.03246545	0	0
22.57926	-0.1730414	0.358658	0.342066	0.246851	2.936574	2.10076	0	0
22.59583	-0.1656266	0.3642308	0.4475584	0.336371	0.9096772	0.7719458	0	0
22.6124	-0.1497649	0.3772014	0.9574144	0.7829086	15.38748	13.47653	0	0
22.62896	-0.1431973	0.3861558	0.3964174	0.5404908	-16.93092	-7.316182	0	0
22.64553	-0.1311119	0.4079069	0.7294767	1.312896	10.05175	23.31123	0	0
22.6621	-0.1163407	0.430875	0.8915955	1.38636	4.892755	2.217153	0	0
22.67883	-0.09792265	0.4530669	1.100438	1.325922	6.270768	-1.814712	0	0
22.69534	-0.08837447	0.4635725	0.5785937	0.6366068	-15.6996	-20.73793	0	0
22.7118	-0.07415326	0.4779517	0.8639643	0.8735642	8.657353	7.188634	0	0
22.73282	-0.05350152	0.4989103	0.9823496	0.9969479	3.158355	3.291704	0	0
22.74939	-0.04294726	0.5155871	0.6370567	1.006611	-9.185758	0.2570625	0	0
22.76595	-0.03853355	0.5236183	0.266412	0.4847636	-11.18608	-15.74938	0	0
22.78252	-0.03175248	0.5384442	0.409306	0.8948919	4.312551	12.3777	0	0
22.79909	-0.02830823	0.5450349	0.2078957	0.3978169	-6.078576	-15.00175	0	0
22.83222	-0.01155212	0.5606859	0.5057294	0.4723749	5.992656	1.500168	0	0
22.84879	-0.006473594	0.5642272	0.3065756	0.2137809	-4.007291	-5.203321	0	0
22.86535	-0.003499986	0.566045	0.1794873	0.109724	-3.835752	-3.140626	0	0
22.88192	-0.0008157893	0.5672207	0.1620184	0.07096189	-0.5272133	-1.169842	0	0
22.89849	-0.0004473684	0.5671472	0.02223793	-0.004436018	-4.218584	-2.275513	0	0
22.91506	-7.894737E-05	0.56689	0.02223794	-0.01552426	2.810737E-07	-0.3346439	0	0
22.93162	0.0004736842	0.5665042	0.03335691	-0.0232846	0.3355712	-0.2342073	0	0
22.94819	0.003368408	0.5644108	0.1747661	-0.126389	4.26823	-3.112056	0	0
22.96475	0.003815771	0.563548	0.02700285	-0.05207734	-4.460018	2.24299	0	0
22.98132	0.003815771	0.5634379	0	-0.006645032	-0.8149477	1.37115	0	0
22.99789	0.006236761	0.5611627	0.1461313	-0.1373331	4.410251	-3.944172	0	0
23.01456	0.01115743	0.5574409	0.2951096	-0.2232112	4.481729	-2.58348	0	0
23.03108	0.01231517	0.5566346	0.07010705	-0.04882406	-6.779664	5.254546	0	0
23.04759	0.01318345	0.5559201	0.05257894	-0.04326562	-0.53071	0.1682966	0	0
23.06416	0.01318345	0.5559201	0	0	-1.589489	1.307943	0	0
23.08111	0.01318345	0.5559201	0	0	0	0	0	0
23.09729	0.01318345	0.5559201	0	0	0	0	0	0
23.11413	0.01318345	0.5559201	0	0	0	0	0	0
23.13065	0.01318345	0.5559201	0	0	0	0	0	0
23.14699	0.01318345	0.5559201	0	0	0	0	0	0
23.16367	0.01320976	0.5559018	0.001577464	-0.001100629	0.04776744	-0.03332832	0	0
23.18012	0.01323607	0.5558835	0.001598984	-0.001112061	0.0006494735	-0.000345018	0	0
23.19669	0.01328869	0.5558468	0.003176301	-0.002212612	0.04776577	-0.03332789	0	0
23.21326	0.013315	0.5558285	0.001588123	-0.001104507	-0.04793133	0.03344267	0	0
23.22983	0.01347287	0.5557186	0.009528848	-0.006634239	0.2396516	-0.1668876	0	0
23.24673	0.0137886	0.5554988	0.01867694	-0.0130035	0.2733052	-0.1902858	0	0
23.26296	0.01468316	0.5548761	0.05511868	-0.03836747	1.099814	-0.7654861	0	0
23.27953	0.01689313	0.553338	0.1333943	-0.09283977	2.386681	-1.6609	0	0
23.3458	0.02886041	0.54498	0.1805865	-0.1261216	0.5697057	-0.401779	0	0
23.36236	0.03117411	0.5432995	0.1396554	-0.1014384	-0.4941216	0.2979763	0	0
23.38494	0.03861238	0.5379516	0.3294302	-0.2368511	4.84782	-3.459135	0	0
23.40151	0.04108214	0.5361643	0.149075	-0.1078783	-4.607196	3.294625	0	0
23.41808	0.04562621	0.533011	0.2742807	-0.1903386	3.778717	-2.488656	0	0
23.43464	0.04581003	0.5328106	0.01109567	-0.01209561	-7.942941	5.379385	0	0
23.45121	0.04581003	0.5328106	0	0	-0.3348678	0.3650463	0	0
23.46789	0.04578377	0.5327923	-0.001574517	-0.001093607	-0.0473609	-0.0328953	0	0
23.4844	0.04573125	0.5327559	-0.003180907	-0.002209195	-0.04840013	-0.0336124	0	0
23.50091	0.04570499	0.5327377	-0.001590341	-0.001100988	0.04816419	0.0335578	0	0
23.51748	0.04567873	0.5327194	-0.001585396	-0.001101163	0.0001494958	-5.304191E-06	0	0
23.53404	0.04565247	0.5327012	-0.001585256	-0.00110091	4.230646E-06	7.653113E-06	0	0
23.55206	0.04559994	0.5326648	-0.002915831	-0.002021786	-0.03847792	-0.02663015	0	0
23.56862	0.04554743	0.5326284	-0.003170062	-0.002198221	-0.007351905	-0.005102189	0	0
23.58519	0.04554743	0.5326284	0	0	0.09567265	0.06634244	0	0
23.60176	0.04554743	0.5326284	0	0	0	0	0	0
23.61833	0.04554743	0.5326284	0	0	0	0	0	0
23.63489	0.04554743	0.5326284	0	0	0	0	0	0
23.65146	0.04552116	0.5326101	-0.001585256	-0.00110091	-0.04784311	-0.03322552	0	0
23.66803	0.04552116	0.5326101	0	0	0.04784311	0.03322552	0	0
23.68459	0.0454949	0.5325919	-0.001585213	-0.001101036	-0.04784459	-0.03323125	0	0
23.7676	0.0417389	0.5299872	-0.04524773	-0.03137781	-0.4384886	-0.3040599	0	0
23.78399	0.03737732	0.5268927	-0.2661148	-0.1888092	-2.222012	-1.583824	0	0
23.80058	0.03451261	0.5249096	-0.1726561	-0.119518	2.833638	2.100886	0	0
23.81713	0.03259372	0.5235456	-0.115998	-0.08245777	1.709945	1.118481	0	0
23.83369	0.03185764	0.5230364	-0.04442966	-0.03073193	2.161555	1.562258	0	0
23.85026	0.03185764	0.5230364	0	0	1.34089	0.9274914	0	0
23.86683	0.03177877	0.5229455	-0.004760489	-0.005486559	-0.1436719	-0.1655847	0	0
23.88369	0.0316999	0.5228909	-0.004678087	-0.003238488	0.0024652	0.06725457	0	0
23.9002	0.03151588	0.5227637	-0.01114502	-0.007706914	-0.1937891	-0.1339016	0	0
23.91653	0.03127927	0.5226001	-0.01448853	-0.01001883	-0.101804	-0.07039385	0	0
23.93322	0.03093749	0.5224001	-0.02047634	-0.01198077	-0.1813284	-0.05941328	0	0
23.94973	0.03030651	0.5219638	-0.03821408	-0.0264237	-0.534219	-0.4349871	0	0
23.96623	0.02857117	0.5208005	-0.1051932	-0.07051755	-2.029145	-1.33583	0	0
23.9828	0.02152299	0.516041	-0.4254779	-0.2873129	-9.6874	-6.55724	0	0
23.99977	0.006815684	0.505901	-0.8663893	-0.597335	-13.14555	-9.243154	0	0
24.01593	0.0003157895	0.5014267	-0.4022447	-0.2768937	14.00791	9.670936	0	0
24.0325	-0.01031542	0.494116	-0.6417013	-0.4412758	-7.31695	-5.022938	0	0
24.0522	-0.02862376	0.4815783	-0.9292198	-0.6363353	-7.927142	-5.377963	0	0
24.06877	-0.03595818	0.476581	-0.4427064	-0.3016402	13.41361	9.227841	0	0
24.08533	-0.05003715	0.4670655	-0.8498082	-0.5743546	-12.28636	-8.230536	0	0
24.1019	-0.06005926	0.460333	-0.6049361	-0.4063777	7.390254	5.069551	0	0
24.11886	-0.07247809	0.4518805	-0.732483	-0.4985375	-3.804911	-2.749261	0	0
24.13504	-0.0815294	0.4457355	-0.5593466	-0.3797479	5.224967	3.584871	0	0
24.1516	-0.09390719	0.4373692	-0.747211	-0.50505	-5.736797	-3.826338	0	0
24.16817	-0.1057618	0.4293507	-0.7155449	-0.4839936	0.9557398	0.6355186	0	0
24.18474	-0.1085974	0.4274323	-0.1711568	-0.1157988	16.42966	11.11214	0	0
24.20131	-0.1198959	0.4196721	-0.6819775	-0.4684046	-15.4166	-10.64167	0	0
24.21793	-0.130517	0.4123646	-0.6389576	-0.4396156	1.296177	0.8674061	0	0
24.23444	-0.1389411	0.4065287	-0.5101841	-0.3534369	3.886392	2.600879	0	0
24.25101	-0.1474484	0.4006235	-0.5135605	-0.3564767	-0.102077	-0.09190027	0	0
24.26757	-0.1564221	0.3943807	-0.5416574	-0.3768133	-0.8480136	-0.6137942	0	0
24.28414	-0.168518	0.3859413	-0.7301939	-0.509465	-5.690371	-4.003667	0	0
24.3007	-0.1778125	0.3794352	-0.5610169	-0.3927081	5.106068	3.523933	0	0
24.36978	-0.2126815	0.354836	-0.5048014	-0.3561249	0.6564017	0.4271651	0	0
24.38655	-0.2166256	0.3520322	-0.2352496	-0.1672373	3.140157	2.200456	0	0
24.40291	-0.2197108	0.3498356	-0.1884804	-0.1341908	1.411496	0.9973457	0	0
24.41948	-0.2195103	0.3499785	0.01210461	0.008623791	6.090128	4.33611	0	0
24.43608	-0.2194852	0.3499606	0.001509896	-0.001077215	-0.3194365	-0.2924907	0	0
24.45261	-0.2194601	0.3499785	0.001515993	0.001081564	0.0001840085	0.06515583	0	0
24.46918	-0.2194601	0.3499785	0	0	-0.04580021	-0.03267553	0	0
24.48575	-0.2194601	0.3499785	0	0	0	0	0	0
24.51888	-0.2193849	0.3499964	0.002270176	0.0005387621	0.04567603	0.01083991	0	0
24.53545	-0.2193599	0.3500142	0.001512851	0.001077524	-0.01523741	0.01083991	0	0
24.55202	-0.2192847	0.3500321	0.004539453	0.001077524	0.09134302	0	0	0
24.56858	-0.2192094	0.3500856	0.004540352	0.003234371	2.713767E-05	0.06509378	0	0
24.58519	-0.2191342	0.3501392	0.004529024	0.003226941	-0.0003414768	-0.0002239827	0	0
24.60172	-0.2190841	0.3501749	0.003033937	0.002160271	-0.04512443	-0.03219402	0	0
24.63485	-0.2188333	0.3503535	0.007567404	0.00538942	0.0912871	0.06502301	0	0
24.65142	-0.218733	0.3503535	0.006055002	0	-0.03042958	-0.1084353	0	0
24.66826	-0.218733	0.3503535	0	0	-0.1812484	0	0	0
24.68476	-0.218733	0.3503535	0	0	0	0	0	0
24.72279	-0.218733	0.3503535	0	0	0	0	0	0
24.73922	-0.218733	0.3503535	0	0	0	0	0	0
24.75581	-0.218733	0.3503535	0	0	0	0	0	0
24.77236	-0.218733	0.3503535	0	0	0	0	0	0
24.78892	-0.2187079	0.3503357	0.001513751	-0.001077524	0.04571403	-0.03254035	0	0
24.80549	-0.2187079	0.3503357	0	0	-0.04568508	0.03251974	0	0
24.82236	-0.2187079	0.3503357	0	0	0	0	0	0
24.83862	-0.2187079	0.3503357	0	0	0	0	0	0
24.85519	-0.2187079	0.3503357	0	0	0	0	0	0
24.87189	-0.2187079	0.3503357	0	0	0	0	0	0
24.88832	-0.2187079	0.3503357	0	0	0	0	0	0
24.90489	-0.2187079	0.3503357	0	0	0	0	0	0
24.92146	-0.2187079	0.3503357	0	0	0	0	0	0
24.93802	-0.2187079	0.3503357	0	0	0	0	0	0
24.95459	-0.2187079	0.3503357	0	0	0	0	0	0
24.98773	-0.2186578	0.3503	0.001513301	-0.001077524	0.03044767	-0.02167983	0	0
25.00429	-0.2186327	0.3502821	0.001513925	-0.001079447	1.255745E-05	-3.869597E-05	0	0
25.021	-0.2186327	0.3502821	0	0	-0.04549654	0.0324396	0	0
25.03743	-0.2186327	0.3502821	0	0	0	0	0	0
25.05402	-0.2186327	0.3502821	0	0	0	0	0	0
25.07056	-0.2186327	0.3502821	0	0	0	0	0	0
25.08713	-0.2186327	0.3502821	0	0	0	0	0	0
25.10369	-0.2186327	0.3502821	0	0	0	0	0	0
25.12026	-0.2186327	0.3502821	0	0	0	0	0	0
25.13708	-0.2186327	0.3502821	0	0	0	0	0	0
25.15339	-0.2186327	0.3502821	0	0	0	0	0	0
25.16996	-0.2186327	0.3502821	0	0	0	0	0	0
25.18662	-0.2186327	0.3502821	0	0	0	0	0	0
25.20309	-0.2186327	0.3502821	0	0	0	0	0	0
25.21966	-0.2186327	0.3502821	0	0	0	0	0	0
25.23623	-0.2186327	0.3502821	0	0	0	0	0	0
25.25279	-0.2186327	0.3502821	0	0	0	0	0	0
25.26936	-0.2186327	0.3502821	0	0	0	0	0	0
25.28593	-0.2186327	0.3502821	0	0	0	0	0	0
25.30249	-0.2186327	0.3502821	0	0	0	0	0	0
25.31906	-0.2186327	0.3502821	0	0	0	0	0	0
25.33572	-0.2186327	0.3502821	0	0	0	0	0	0
25.35219	-0.2186327	0.3502821	0	0	0	0	0	0
25.36876	-0.2186327	0.3502821	0	0	0	0	0	0
25.39185	-0.2186327	0.3502821	0	0	0	0	0	0
25.40841	-0.2186327	0.3502821	0	0	0	0	0	0
25.42529	-0.2186327	0.3502821	0	0	0	0	0	0
25.44155	-0.2186327	0.3502821	0	0	0	0	0	0
25.45831	-0.2186327	0.3502821	0	0	0	0	0	0
25.47468	-0.2186327	0.3502821	0	0	0	0	0	0
25.49125	-0.2186327	0.3502821	0	0	0	0	0	0
25.54095	-0.2185826	0.3502464	0.001009167	-0.0007183495	0.01522924	-0.01084054	0	0
25.55788	-0.2185826	0.3502464	0	0	-0.01514467	0.01078034	0	0
25.57408	-0.2185575	0.3502285	0.00154815	-0.00110201	0.04672595	-0.03326066	0	0
25.59091	-0.2185575	0.3502285	0	0	-0.04687707	0.03336823	0	0
25.60742	-0.2185575	0.3502285	0	0	0	0	0	0
25.62378	-0.2185826	0.3502464	-0.001532809	0.001091091	-0.04662529	0.03318901	0	0
25.64035	-0.2185826	0.3502464	0	0	0.04655236	-0.0331371	0	0
25.65692	-0.2185826	0.3502464	0	0	0	0	0	0
25.67348	-0.2185826	0.3502464	0	0	0	0	0	0
25.69005	-0.2185826	0.3502464	0	0	0	0	0	0
25.70661	-0.2185826	0.3502464	0	0	0	0	0	0
25.72318	-0.2185826	0.3502464	0	0	0	0	0	0
25.74001	-0.2185826	0.3502464	0	0	0	0	0	0
25.75631	-0.2185826	0.3502464	0	0	0	0	0	0
25.77288	-0.2185826	0.3502464	0	0	0	0	0	0
25.78954	-0.2185826	0.3502464	0	0	0	0	0	0
25.80601	-0.2185826	0.3502464	0	0	0	0	0	0
25.82258	-0.2185826	0.3502464	0	0	0	0	0	0
25.83914	0	0	13.19519	-21.14335	398.2775	-638.181	0	0
25.85571	-0.2185826	0.3502464	-13.19367	21.14091	-796.4632	1276.215	0	0
25.87228	-0.2185826	0.3502464	0	0	398.1858	-638.034	0	0
25.88911	-0.2185826	0.3502464	0	0	0	0	0	0
25.90563	-0.2185575	0.3502285	0.00151812	-0.001080634	0.04551565	-0.03239913	0	0
25.92198	-0.2185575	0.3502285	0	0	-0.04618919	0.03287858	0	0
25.93865	-0.2185575	0.3502285	0	0	0	0	0	0
25.95511	-0.2185324	0.3502106	0.00152322	-0.001086075	0.04597353	-0.0327797	0	0
25.97168	-0.2185324	0.3502106	0	0	-0.04611422	0.03288002	0	0
25.98824	-0.2185324	0.3502106	0	0	0	0	0	0
26.01461	-0.2185324	0.3502106	0	0	0	0	0	0
26.03765	-0.2185324	0.3502106	0	0	0	0	0	0
26.05422	-0.2185324	0.3502106	0	0	0	0	0	0
26.07079	-0.2185324	0.3502106	0	0	0	0	0	0
26.08735	-0.2185324	0.3502106	0	0	0	0	0	0
26.10392	-0.2185324	0.3502106	0	0	0	0	0	0
26.12078	-0.2185324	0.3502106	0	0	0	0	0	0
26.13729	-0.2185324	0.3502106	0	0	0	0	0	0
26.15362	-0.2185324	0.3502106	0	0	0	0	0	0
26.17019	-0.2185324	0.3502106	0	0	0	0	0	0
26.18682	-0.2185324	0.3502106	0	0	0	0	0	0
26.20332	-0.2185324	0.3502106	0	0	0	0	0	0
26.21989	-0.2185324	0.3502106	0	0	0	0	0	0
26.23645	-0.2185324	0.3502106	0	0	0	0	0	0
26.25302	-0.2185324	0.3502106	0	0	0	0	0	0
26.26959	-0.2185324	0.3502106	0	0	0	0	0	0
26.28616	-0.2185324	0.3502106	0	0	0	0	0	0
26.30272	-0.2185324	0.3502106	0	0	0	0	0	0
26.31929	-0.2185324	0.3502106	0	0	0	0	0	0
26.33586	-0.2185324	0.3502106	0	0	0	0	0	0
26.35244	-0.2185324	0.3502106	0	0	0	0	0	0
26.40213	-0.2185575	0.3502285	-0.0005047579	0.0003598987	-0.007616811	0.005430882	0	0
26.41869	-0.2185575	0.3502285	0	0	0.007618785	-0.005432289	0	0
26.4355	-0.2185575	0.3502285	0	0	0	0	0	0
26.45202	-0.2185575	0.3502285	0	0	0	0	0	0
26.46839	-0.2185826	0.3502106	-0.001531381	-0.001091894	-0.04656024	-0.03319803	0	0
26.48504	-0.2185826	0.3502106	0	0	0.04637467	0.03306572	0	0
26.50153	-0.2185826	0.3502106	0	0	0	0	0	0
26.5181	-0.2185826	0.3502106	0	0	0	0	0	0
26.53466	-0.2185826	0.3502106	0	0	0	0	0	0
26.55123	-0.2185826	0.3502106	0	0	0	0	0	0
26.5681	-0.2185826	0.3502106	0	0	0	0	0	0
26.58436	-0.2185826	0.3502106	0	0	0	0	0	0
26.60112	-0.2185826	0.3502106	0	0	0	0	0	0
26.6175	-0.2185575	0.3501928	0.001531559	-0.001090201	0.04622255	-0.03290233	0	0
26.65373	-0.2185575	0.3501928	0	0	-0.02911134	0.02072216	0	0
26.6703	-0.2185575	0.3501928	0	0	0	0	0	0
26.68687	-0.2185575	0.3501928	0	0	0	0	0	0
26.70344	-0.2185575	0.3501928	0	0	0	0	0	0
26.72021	-0.2185575	0.3501928	0	0	0	0	0	0
26.73657	-0.2185575	0.3501928	0	0	0	0	0	0
26.75314	-0.2185575	0.3501928	0	0	0	0	0	0
26.76974	-0.2185826	0.3502106	-0.001509926	0.001074802	-0.04551202	0.03239656	0	0
26.78627	-0.2185826	0.3502106	0	0	0.04556966	-0.03243759	0	0
26.80284	-0.2185826	0.3502106	0	0	0	0	0	0
26.8194	-0.2185826	0.3502106	0	0	0	0	0	0
26.83597	-0.2185826	0.3502106	0	0	0	0	0	0
26.85281	-0.2185575	0.3501928	0.00148957	-0.001060312	0.04459593	-0.03174446	0	0
26.8691	-0.2185575	0.3501928	0	0	-0.04495532	0.03200028	0	0
26.88567	-0.2185575	0.3501928	0	0	0	0	0	0
26.90234	-0.2185575	0.3501928	0	0	0	0	0	0
26.91881	-0.2185324	0.3501749	0.00152322	-0.001084265	0.04597088	-0.03272318	0	0
26.93537	-0.2185073	0.3501571	0.001513925	-0.001077648	-0.0002814272	0.0002003266	0	0
26.95194	-0.2184823	0.3501392	0.001513751	-0.001077524	-5.263408E-06	3.745523E-06	0	0
26.9685	-0.2184823	0.3501392	0	0	-0.04568771	0.03252162	0	0
26.98507	-0.2184572	0.3501213	0.001513751	-0.001079323	0.04568771	-0.03257591	0	0
27.00191	-0.2184572	0.3501213	0	0	-0.04531209	0.03230808	0	0
27.0182	-0.2184572	0.3501213	0	0	0	0	0	0
27.08447	-0.2184572	0.3501213	0	0	0	0	0	0
27.10104	-0.2184823	0.3501392	-0.001513751	0.001079323	-0.01827445	0.01302991	0	0
27.11761	-0.2184823	0.3501392	0	0	0.04568508	-0.03257403	0	0
27.13417	-0.2184823	0.3501392	0	0	0	0	0	0
27.15074	-0.2184823	0.3501392	0	0	0	0	0	0
27.16731	-0.2184823	0.3501392	0	0	0	0	0	0
27.18387	-0.2184823	0.3501392	0	0	0	0	0	0
27.21707	-0.2184823	0.3501392	0	0	0	0	0	0
27.23358	-0.2184823	0.3501392	0	0	0	0	0	0
27.25014	-0.2184823	0.3501392	0	0	0	0	0	0
27.26671	-0.2184823	0.3501392	0	0	0	0	0	0
27.28328	-0.2184823	0.3501392	0	0	0	0	0	0
27.29984	-0.2184823	0.3501392	0	0	0	0	0	0
27.31641	-0.2184823	0.3501392	0	0	0	0	0	0
27.33298	-0.2184823	0.3501392	0	0	0	0	0	0
27.34966	-0.2184823	0.3501392	0	0	0	0	0	0
27.36885	-0.2184823	0.3501392	0	0	0	0	0	0
27.38569	-0.2184823	0.3501392	0	0	0	0	0	0
27.40199	-0.2184823	0.3501392	0	0	0	0	0	0
27.41855	-0.2184823	0.3501392	0	0	0	0	0	0
27.43522	-0.2184823	0.3501392	0	0	0	0	0	0
27.45174	-0.2184823	0.3501392	0	0	0	0	0	0
27.46825	-0.2184823	0.3501392	0	0	0	0	0	0
27.48482	-0.2184823	0.3501392	0	0	0	0	0	0
27.50139	-0.2185073	0.3501571	-0.001513751	0.001077524	-0.04568508	0.03251974	0	0
27.51796	-0.2185073	0.3501571	0	0	0.04568508	-0.03251974	0	0
27.53452	-0.2185073	0.3501571	0	0	0	0	0	0
27.55131	-0.2185073	0.3501571	0	0	0	0	0	0
27.56766	-0.2185073	0.3501571	0	0	0	0	0	0
27.58433	-0.2184823	0.3501392	0.001504054	-0.001070622	0.04554712	-0.03242154	0	0
27.60084	-0.2184823	0.3501392	0	0	-0.04532199	0.03226129	0	0
27.61736	-0.2184823	0.3501392	0	0	0	0	0	0
27.63392	-0.2184823	0.3501392	0	0	0	0	0	0
27.65049	-0.2184823	0.3501392	0	0	0	0	0	0
27.66706	-0.2184823	0.3501392	0	0	0	0	0	0
27.70019	-0.2184572	0.3501213	0.0007568753	-0.0005396615	0.01522894	-0.01085843	0	0
27.71676	-0.2184572	0.3501213	0	0	-0.01522836	0.01085801	0	0
27.73333	-0.2184572	0.3501213	0	0	0	0	0	0
27.74995	-0.2184572	0.3501213	0	0	0	0	0	0
27.76646	-0.2184572	0.3501213	0	0	0	0	0	0
27.78303	-0.2184572	0.3501213	0	0	0	0	0	0
27.79959	-0.2184572	0.3501213	0	0	0	0	0	0
27.83273	-0.2184823	0.3501392	-0.0007568753	0.0005396615	-0.01522836	0.01085801	0	0
27.8493	-0.2184823	0.3501392	0	0	0.01522836	-0.01085801	0	0
27.86604	-0.2184823	0.3501392	0	0	0	0	0	0
27.88243	-0.2184823	0.3501392	0	0	0	0	0	0
27.89906	-0.2184823	0.3501392	0	0	0	0	0	0
27.91558	-0.2184823	0.3501392	0	0	0	0	0	0
27.93213	-0.2184823	0.3501392	0	0	0	0	0	0
27.9487	-0.2184823	0.3501392	0	0	0	0	0	0
27.96527	-0.2184823	0.3501392	0	0	0	0	0	0
28.0013	-0.2184572	0.3501213	0.0006960528	-0.0004962943	0.01323417	-0.009436126	0	0
28.01786	-0.2184572	0.3501213	0	0	-0.01323369	0.009435784	0	0
28.03443	-0.2184572	0.3501213	0	0	0	0	0	0
28.051	-0.2184572	0.3501213	0	0	0	0	0	0
28.06818	-0.2184572	0.3501213	0	0	0	0	0	0
28.1007	-0.2184572	0.3501213	0	0	0	0	0	0
28.11726	-0.2184572	0.3501213	0	0	0	0	0	0
28.13383	-0.2184823	0.3501392	-0.001513751	0.001079323	-0.04568508	0.03257403	0	0
28.15075	-0.2184823	0.3501392	0	0	0.04521142	-0.0322363	0	0
28.16697	-0.2184823	0.3501392	0	0	0	0	0	0
28.18353	-0.2184823	0.3501392	0	0	0	0	0	0
28.2001	-0.2184823	0.3501392	0	0	0	0	0	0
28.21667	-0.2184823	0.3501392	0	0	0	0	0	0
28.23331	-0.2184823	0.3501392	0	0	0	0	0	0
28.24982	-0.2184823	0.3501392	0	0	0	0	0	0
28.26637	-0.2184823	0.3501392	0	0	0	0	0	0
28.28334	-0.2184823	0.3501392	0	0	0	0	0	0
28.2995	-0.2184823	0.3501392	0	0	0	0	0	0
28.31606	-0.2184823	0.3501392	0	0	0	0	0	0
28.33263	-0.2184823	0.3501392	0	0	0	0	0	0
28.34938	-0.2184823	0.3501392	0	0	0	0	0	0
28.36576	-0.2184823	0.3501392	0	0	0	0	0	0
28.39892	-0.2184823	0.3501392	0	0	0	0	0	0
28.41546	-0.2184823	0.3501392	0	0	0	0	0	0
28.43203	-0.2184823	0.3501392	0	0	0	0	0	0
28.4486	-0.2184823	0.3501392	0	0	0	0	0	0
28.46517	-0.2184823	0.3501392	0	0	0	0	0	0
28.48173	-0.2184823	0.3501392	0	0	0	0	0	0
28.4983	-0.2185073	0.3501571	-0.001513751	0.001077524	-0.04568508	0.03251974	0	0
28.54853	-0.2185073	0.3501928	0	0.0007108206	0.02266251	-0.005489956	0	0
28.56457	-0.2185324	0.3502464	-0.001563615	0.003340915	-0.02359568	0.03968934	0	0
28.58113	-0.2184823	0.3504249	0.003027501	0.01077884	0.1408053	0.2281144	0	0
28.5977	-0.2182565	0.3507642	0.01362555	0.02048015	0.3198498	0.2927862	0	0
28.61427	-0.2182565	0.3508	0	0.002156847	-0.41122	-0.5529985	0	0
28.63084	-0.2182064	0.3508714	0.003027501	0.004311895	0.09137017	0.06503949	0	0
28.6474	-0.2181562	0.3509071	0.0030284	0.002155048	2.714469E-05	-0.06509378	0	0
28.66397	-0.2181311	0.350925	0.001513751	0.001077524	-0.04571223	-0.03251974	0	0
28.68063	-0.2181311	0.350925	0	0	-0.04556443	-0.03243386	0	0
28.69764	-0.2181311	0.350925	0	0	0	0	0	0
28.71367	-0.2181311	0.350925	0	0	0	0	0	0
28.73024	-0.2181311	0.350925	0	0	0	0	0	0
28.75066	-0.218106	0.3509071	0.001228367	-0.000874381	0.03321392	-0.02364247	0	0
28.76769	-0.2181311	0.3508893	-0.001472554	-0.0010482	-0.07212655	-0.004641728	0	0
28.78379	-0.2181311	0.3508893	0	0	0.04444178	0.03163473	0	0
28.80071	-0.2181311	0.3508893	0	0	0	0	0	0
28.81693	-0.2181311	0.3508893	0	0	0	0	0	0
28.83349	-0.2181311	0.3508893	0	0	0	0	0	0
28.85006	-0.2181311	0.3508893	0	0	0	0	0	0
28.86663	-0.2181311	0.3508893	0	0	0	0	0	0
28.91633	-0.2181311	0.3508893	0	0	0	0	0	0
28.9826	-0.2180559	0.3503357	0.00113557	-0.008354201	0.009792042	-0.07203841	0	0
28.99936	-0.2176796	0.3496749	0.02245238	-0.03942436	0.2567459	-0.3742181	0	0
29.01587	-0.2167009	0.3488356	0.05926923	-0.05083134	1.106549	-0.3428422	0	0
29.0323	-0.2139383	0.3468712	0.1681447	-0.1195601	3.305084	-2.086368	0	0
29.04886	-0.2067149	0.3414962	0.4360544	-0.3244765	8.119652	-6.210486	0	0
29.06543	-0.2014661	0.3377105	0.3168191	-0.2285053	-3.598737	2.896583	0	0
29.082	-0.1958516	0.333639	0.3388948	-0.2457547	0.6662472	-0.5205872	0	0
29.09856	-0.1923551	0.3311032	0.2110472	-0.1530606	-3.858449	2.797512	0	0
29.11513	-0.1904275	0.3295674	0.1163519	-0.09269946	-2.85791	1.821703	0	0
29.14826	-0.1905543	0.3295138	-0.003829119	-0.001617279	-2.41814	1.832648	0	0
29.16483	-0.1913661	0.3288352	-0.04899857	-0.04096031	-0.908846	-0.7916137	0	0
29.18149	-0.195725	0.325585	-0.2617152	-0.1951532	-6.402846	-4.641262	0	0
29.19797	-0.2015924	0.3194412	-0.3560456	-0.3728136	-2.846899	-5.3618	0	0
29.21453	-0.2038648	0.3053644	-0.1371631	-0.8496773	6.623427	-14.42998	0	0
29.23152	-0.2038648	0.3011116	0	-0.2503017	4.087357	17.86094	0	0
29.24806	-0.20336	0.2829481	0.03052642	-1.098374	0.9104924	-25.29493	0	0
29.26423	-0.203562	0.2572436	-0.01248673	-1.589406	-1.31502	-15.01208	0	0
29.2808	-0.2036882	0.2462199	-0.007617322	-0.6653892	0.1487313	28.2232	0	0
29.29737	-0.2042686	0.2290798	-0.03503393	-1.034578	-0.8274347	-11.14214	0	0
29.31409	-0.2057821	0.199751	-0.0905323	-1.754333	-1.667362	-21.62391	0	0
29.3305	-0.2066645	0.1881877	-0.05375882	-0.704454	1.10989	31.68723	0	0
29.34711	-0.2080757	0.171051	-0.08497563	-1.031876	-0.9453357	-9.9153	0	0
29.36363	-0.2100399	0.1491107	-0.1188474	-1.327529	-1.022251	-8.922817	0	0
29.3802	-0.2115498	0.1336844	-0.09113354	-0.9311338	0.8374175	11.97771	0	0
29.39677	-0.2138127	0.1143744	-0.1366041	-1.165691	-1.372382	-7.079348	0	0
29.41333	-0.2147423	0.1097456	-0.05612047	-0.2794235	2.429279	26.75068	0	0
29.44647	-0.2188584	0.0836435	-0.1242238	-0.787764	-1.370294	-10.22822	0	0
29.48415	-0.2336531	0.04502465	-0.392603	-1.024822	-3.789705	-3.347422	0	0
29.50069	-0.23654	0.03907244	-0.1745206	-0.3598146	4.021736	12.26364	0	0
29.51726	-0.2417811	0.03111512	-0.3163487	-0.4803046	-4.283586	-3.639119	0	0
29.53383	-0.2511116	0.02362648	-0.5631917	-0.4520155	-7.449736	0.8537652	0	0
29.55039	-0.257619	0.01868771	-0.392789	-0.2981044	5.142761	4.645048	0	0
29.56726	-0.2648398	0.01314204	-0.4280102	-0.3287203	-1.053335	-0.9156084	0	0
29.58353	-0.2690022	0.009953004	-0.2559597	-0.1961027	5.192791	4.002636	0	0
29.60029	-0.2717882	0.007700135	-0.1662275	-0.1344204	2.717354	1.867919	0	0
29.61666	-0.2739846	0.005971926	-0.1341348	-0.1055421	0.9685597	0.8715478	0	0
29.63331	-0.2753986	0.004769174	-0.08493856	-0.0722489	1.489804	1.008216	0	0
29.64982	-0.2753254	0.002832595	0.004427414	-0.1172838	2.695054	-1.358138	0	0
29.66636	-0.2726182	0.0007443504	0.1636733	-0.1262502	4.817976	-0.2712782	0	0
29.68293	-0.2702735	-0.00110041	0.1415244	-0.11135	-0.6689936	0.4500512	0	0
29.69952	-0.270298	-0.001081581	-0.001472532	0.001134576	-4.311934	3.391862	0	0
29.71637	-0.270298	-0.001081581	0	0	0.04403552	-0.03392909	0	0
29.73288	-0.270298	-0.001081581	0	0	0	0	0	0
29.74939	-0.2702735	-0.001062752	0.001480016	0.001140336	0.04481661	0.03453069	0	0
29.76576	-0.2702491	-0.001081581	0.001494597	-0.001150167	0.0004434148	-0.0696568	0	0
29.82941	-0.2702491	-0.001081581	0	0	-0.01867802	0.01437368	0	0
29.84587	-0.2702491	-0.001081581	0	0	0	0	0	0
29.86244	-0.2702491	-0.001081581	0	0	0	0	0	0
29.87901	-0.2702491	-0.001081581	0	0	0	0	0	0
29.896	-0.2702491	-0.001081581	0	0	0	0	0	0
29.91214	-0.2702491	-0.001081581	0	0	0	0	0	0
29.92871	-0.2702491	-0.001081581	0	0	0	0	0	0
29.94527	-0.2702491	-0.001081581	0	0	0	0	0	0
29.96184	-0.2702246	-0.00110041	0.001475075	-0.001136536	0.04452041	-0.03430269	0	0
29.97841	-0.2702246	-0.00110041	0	0	-0.04452041	0.03430269	0	0
29.99507	-0.2702246	-0.00110041	0	0	0	0	0	0
30.01158	-0.2702246	-0.00110041	0	0	0	0	0	0
30.02811	-0.2702246	-0.00110041	0	0	0	0	0	0
30.04467	-0.2702246	-0.00110041	0	0	0	0	0	0
30.06124	-0.2702246	-0.00110041	0	0	0	0	0	0
30.07781	-0.2702246	-0.00110041	0	0	0	0	0	0
30.09438	-0.2702246	-0.00110041	0	0	0	0	0	0
30.11094	-0.2702246	-0.00110041	0	0	0	0	0	0
30.12766	-0.2702246	-0.00110041	0	0	0	0	0	0
30.14417	-0.2702246	-0.00110041	0	0	0	0	0	0
30.1827	-0.2702246	-0.00110041	0	0	0	0	0	0
30.19921	-0.2702002	-0.00111924	0.001480016	-0.00114035	0.02688965	-0.02071843	0	0
30.21572	-0.2702002	-0.00111924	0	0	-0.04481661	0.03453112	0	0
30.23222	-0.2702002	-0.00111924	0	0	0	0	0	0
30.24878	-0.2702002	-0.00111924	0	0	0	0	0	0
30.26535	-0.2702002	-0.00111924	0	0	0	0	0	0
30.28192	-0.2702002	-0.00111924	0	0	0	0	0	0
30.29878	-0.2702002	-0.00111924	0	0	0	0	0	0
30.31505	-0.2702002	-0.00111924	0	0	0	0	0	0
30.33162	-0.2702002	-0.00111924	0	0	0	0	0	0
30.34818	-0.2702002	-0.00111924	0	0	0	0	0	0
30.36475	-0.2702002	-0.00111924	0	0	0	0	0	0
30.38132	-0.2702002	-0.00111924	0	0	0	0	0	0
30.39788	-0.2702735	-0.001062752	-0.004427023	0.003409607	-0.1336078	0.1029021	0	0
30.41445	-0.27086	-0.0005355791	-0.0353982	0.03182021	-0.9347119	0.8574337	0	0
30.43102	-0.2715684	0.0001232695	-0.04275738	0.03976818	-0.2221006	0.2398702	0	0
30.44758	-0.2733747	0.002155469	-0.1090314	0.1226638	-2.000154	2.501795	0	0
30.46415	-0.2773958	0.007099119	-0.242711	0.2983993	-4.034457	5.303709	0	0
30.53045	-0.2771523	0.06227119	0.003672055	0.8321649	2.973246	6.441258	0	0
30.54699	-0.2742528	0.08042061	0.1753572	1.09765	2.072635	3.205015	0	0
30.56355	-0.2720812	0.09261817	0.1310802	0.7362463	-1.337593	-10.91787	0	0
30.58012	-0.2652074	0.1237648	0.4149008	1.880013	8.565722	34.51896	0	0
30.59669	-0.2587261	0.149474	0.391215	1.551812	-0.7148374	-9.905128	0	0
30.61325	-0.2553538	0.1626651	0.2035513	0.7962139	-5.663702	-22.80401	0	0
30.62982	-0.2474539	0.1903719	0.4768377	1.672386	8.2478	26.44292	0	0
30.64654	-0.240441	0.2117288	0.4195296	1.277635	-1.72183	-11.86035	0	0
30.66305	-0.2297643	0.2406413	0.6466838	1.751207	6.836636	14.25304	0	0
30.67956	-0.2206882	0.2614533	0.5496708	1.260422	-2.937836	-14.86238	0	0
30.69609	-0.210946	0.2809985	0.5893975	1.182473	1.202345	-2.359165	0	0
30.71266	-0.2008092	0.2991994	0.6118556	1.098611	0.6785691	-2.533897	0	0
30.72922	-0.186822	0.3223167	0.8442681	1.395363	7.014222	8.956014	0	0
30.74579	-0.173986	0.3442819	0.7746921	1.32567	-2.099688	-2.103231	0	0
30.76236	-0.1684413	0.3548003	0.3347195	0.6349651	-13.2784	-20.84551	0	0
30.77892	-0.1603483	0.3753073	0.4884953	1.237802	4.641231	18.1947	0	0
30.79549	-0.1557545	0.3890163	0.2772844	0.8274774	-6.374359	-12.38362	0	0
30.81206	-0.1494561	0.4041305	0.3801691	0.9122978	3.105066	2.559885	0	0
30.82863	-0.1442026	0.4134389	0.3171024	0.5618578	-1.903356	-10.5763	0	0
30.84519	-0.1377536	0.423435	0.3892642	0.6033649	2.177846	1.252688	0	0
30.86176	-0.131474	0.4279701	0.379034	0.2737379	-0.3087476	-9.948164	0	0
30.88226	-0.1251581	0.432274	0.3081466	0.2099808	-1.912587	-1.720209	0	0
30.89882	-0.1221779	0.4341215	0.179889	0.1115211	-3.460475	-2.656507	0	0
30.91539	-0.1218927	0.433996	0.0172134	-0.007578647	-4.909559	-3.594436	0	0
30.93224	-0.1216075	0.4337986	0.01692679	-0.01171256	-0.008577028	-0.1237078	0	0
30.94852	-0.1213741	0.4334937	0.01433146	-0.0187273	-0.07833172	-0.2117176	0	0
30.96509	-0.1214001	0.4334399	-0.001565018	-0.003248762	-0.4839071	0.4711847	0	0
30.98166	-0.1215038	0.4332964	-0.006260524	-0.008661567	-0.1417106	-0.1633588	0	0
30.99823	-0.1216594	0.4331529	-0.00939011	-0.008663367	-0.09445111	-5.430344E-05	0	0
31.01479	-0.1217631	0.4329017	-0.006260074	-0.01515729	0.09446469	-0.1959871	0	0
31.03136	-0.1219964	0.4321305	-0.01408472	-0.0465548	-0.2361482	-0.9475786	0	0
31.04793	-0.1216334	0.4305522	0.02190981	-0.09526285	1.086317	-1.470012	0	0
31.06484	-0.1186765	0.428508	0.1748547	-0.1208832	4.568549	-0.7652927	0	0
31.08106	-0.1175347	0.4277191	0.07037909	-0.0486256	-3.15308	2.180737	0	0
31.09763	-0.1145749	0.4256396	0.1786518	-0.1255199	3.301889	-2.344971	0	0
31.11438	-0.1117171	0.4235963	0.1706524	-0.122012	-0.2401228	0.1052972	0	0
31.13089	-0.1117691	0.4236322	-0.003148105	0.002171543	-5.226057	3.734111	0	0
31.2136	-0.117924	0.4194213	-0.07441539	-0.05091169	-0.7182734	-0.5350038	0	0
31.23017	-0.1238108	0.4153193	-0.3552884	-0.2475664	-2.829117	-1.980821	0	0
31.24673	-0.1319654	0.409679	-0.4922118	-0.3404473	-4.132117	-2.802989	0	0
31.2633	-0.137108	0.406117	-0.3104088	-0.2150047	5.486825	3.785863	0	0
31.27987	-0.1411085	0.4033074	-0.2414715	-0.1695886	2.080531	1.370661	0	0
31.29643	-0.1410827	0.4032895	0.001557103	-0.001081246	7.335041	5.085856	0	0
31.31302	-0.1409796	0.4031821	0.006221248	-0.006472829	0.1406994	-0.1626434	0	0
31.32957	-0.14067	0.4028958	0.01870732	-0.01730168	0.376852	-0.3268342	0	0
31.34613	-0.1361782	0.3993891	0.2711545	-0.2116904	7.623698	-5.870381	0	0
31.3627	-0.1325343	0.3913586	0.2199489	-0.4847222	-1.545475	-8.240589	0	0
31.37926	-0.1327411	0.3865312	-0.01248651	-0.2914148	-7.01532	5.834365	0	0
31.39608	-0.1340853	0.378774	-0.07994895	-0.4613744	-2.021129	-5.091874	0	0
31.41258	-0.1372113	0.3701794	-0.1893604	-0.5206257	-3.28352	-1.778176	0	0
31.4291	-0.1403346	0.3647309	-0.1891314	-0.3299387	0.006933013	5.774557	0	0
31.44561	-0.1487355	0.3590152	-0.508779	-0.3461541	-9.678741	-0.4909932	0	0
31.46212	-0.153031	0.3560326	-0.2601417	-0.1806342	7.529027	5.012136	0	0
31.47866	-0.155549	0.3542467	-0.1522172	-0.1079608	3.265063	2.198603	0	0
31.49523	-0.1555747	0.3542645	-0.001549728	0.001077524	4.550559	3.293247	0	0
31.51532	-0.155549	0.3542467	0.001277856	-0.000888492	0.07713155	-0.05362948	0	0
31.53189	-0.155549	0.3542467	0	0	-0.03485768	0.02423651	0	0
31.54846	-0.1555747	0.3542645	-0.001549728	0.001077524	-0.04677088	0.03251974	0	0
31.56503	-0.1555747	0.3542645	0	0	0.04677088	-0.03251974	0	0
31.58159	-0.155549	0.3542467	0.001549728	-0.001077524	0.04677088	-0.03251974	0	0
31.59816	-0.155549	0.3542467	0	0	-0.04677088	0.03251974	0	0
31.61473	-0.1555747	0.3542645	-0.001549728	0.001077524	-0.04677088	0.03251974	0	0
31.63129	-0.1555747	0.3542645	0	0	0.04677358	-0.03252162	0	0
31.64786	-0.1555747	0.3542645	0	0	0	0	0	0
31.66443	-0.1555747	0.3542645	0	0	0	0	0	0
31.68099	-0.155549	0.3542824	0.001549728	0.001079323	0.04677088	0.03257403	0	0
31.69756	-0.155549	0.3542824	0	0	-0.04677088	-0.03257403	0	0
31.71413	-0.155549	0.3542824	0	0	0	0	0	0
31.7307	-0.155549	0.3542824	0	0	0	0	0	0
31.74726	-0.1555233	0.3543003	0.001550627	0.001077524	0.04679803	0.03251974	0	0
31.76389	-0.1555233	0.3543003	0	0	-0.04671735	-0.03246368	0	0
31.7804	-0.1555233	0.3543003	0	0	0	0	0	0
31.79696	-0.1555233	0.3543003	0	0	0	0	0	0
31.81353	-0.1555233	0.3543003	0	0	0	0	0	0
31.83014	-0.1555233	0.3543003	0	0	0	0	0	0
31.84666	-0.1555233	0.3542645	0	-0.002162074	0	-0.06525154	0	0
31.86323	-0.1555233	0.3542645	0	0	0	0.06533051	0	0
31.8798	-0.1555233	0.3542645	0	0	0	0	0	0
31.89637	-0.1555233	0.3542645	0	0	0	0	0	0
31.91293	-0.1555233	0.3542645	0	0	0	0	0	0
31.9295	-0.1555233	0.3542645	0	0	0	0	0	0
31.94607	-0.1554976	0.3542467	0.001550627	-0.001077524	0.04680072	-0.03252162	0	0
31.96263	-0.1554976	0.3542467	0	0	-0.04680072	0.03252162	0	0
31.9792	-0.1554976	0.3542467	0	0	0	0	0	0
32.01233	-0.1554976	0.3542467	0	0	0	0	0	0
32.02903	-0.1554976	0.3542467	0	0	0	0	0	0
32.04554	-0.1554976	0.3542467	0	0	0	0	0	0
32.06205	-0.1554976	0.3542467	0	0	0	0	0	0
32.0786	-0.1554976	0.3542467	0	0	0	0	0	0
32.09517	-0.1554976	0.3542467	0	0	0	0	0	0
32.11173	-0.1554976	0.3542467	0	0	0	0	0	0
32.1283	-0.1554976	0.3542467	0	0	0	0	0	0
32.14486	-0.1554976	0.3542467	0	0	0	0	0	0
32.16143	-0.1554976	0.3542467	0	0	0	0	0	0
32.18203	-0.1554976	0.3542467	0	0	0	0	0	0
32.1986	-0.1554976	0.3542467	0	0	0	0	0	0
32.21516	-0.1554976	0.3542467	0	0	0	0	0	0
32.23173	-0.1554976	0.3542467	0	0	0	0	0	0
32.298	-0.1554976	0.3542467	0	0	0	0	0	0
32.31457	-0.1554976	0.3542467	0	0	0	0	0	0
32.33125	-0.155472	0.3542288	0.001539449	-0.001070377	0.04630605	-0.03219654	0	0
32.3477	-0.155472	0.3542288	0	0	-0.046466	0.03230776	0	0
32.36427	-0.155472	0.3542288	0	0	0	0	0	0
32.38083	-0.155472	0.3542288	0	0	0	0	0	0
32.3974	-0.155472	0.3542288	0	0	0	0	0	0
32.41397	-0.155472	0.3542288	0	0	0	0	0	0
32.43053	-0.155472	0.3542288	0	0	0	0	0	0
32.4471	-0.155472	0.3542288	0	0	0	0	0	0
32.46367	-0.155472	0.3542288	0	0	0	0	0	0
32.48024	-0.155472	0.3542288	0	0	0	0	0	0
32.50589	-0.155472	0.3542288	0	0	0	0	0	0
32.52288	-0.155472	0.3542288	0	0	0	0	0	0
32.53902	-0.155472	0.3542288	0	0	0	0	0	0
32.5559	-0.1554976	0.354211	-0.00152101	-0.001057556	-0.04605794	-0.03202404	0	0
32.57215	-0.155472	0.3541931	0.001579922	-0.001100352	0.09359709	-0.001291725	0	0
32.58872	-0.155472	0.3541931	0	0	-0.04814218	0.03352908	0	0
32.60544	-0.155472	0.3541931	0	0	0	0	0	0
32.62195	-0.155472	0.3541931	0	0	0	0	0	0
32.63842	-0.155472	0.3541931	0	0	0	0	0	0
32.65499	-0.155472	0.3541931	0	0	0	0	0	0
32.67156	-0.155472	0.3541931	0	0	0	0	0	0
32.6885	-0.155472	0.3541931	0	0	0	0	0	0
32.70469	-0.155472	0.3541931	0	0	0	0	0	0
32.72126	-0.155472	0.3541931	0	0	0	0	0	0
32.73803	-0.155472	0.3541931	0	0	0	0	0	0
32.75439	-0.155472	0.3541931	0	0	0	0	0	0
32.77106	-0.155472	0.3541931	0	0	0	0	0	0
32.78752	-0.1554463	0.3541752	0.001560328	-0.001084265	0.04709621	-0.03272695	0	0
32.8092	-0.1554463	0.3541752	0	0	-0.04091124	0.02842904	0	0
32.82576	-0.1554463	0.3541752	0	0	0	0	0	0
32.8426	-0.1554463	0.3541752	0	0	0	0	0	0
32.85889	-0.155472	0.3541574	-0.001576768	-0.001095689	-0.04759242	-0.03307176	0	0
32.87562	-0.1554463	0.3541395	0.001535775	-0.001067204	0.0942623	0.000862668	0	0
32.89202	-0.1554463	0.3541395	0	0	-0.04635513	0.03221198	0	0
32.90865	-0.155472	0.3541574	-0.001545645	0.001074062	-0.04680392	0.03252384	0	0
32.94172	-0.155472	0.3541574	0	0	0.03110082	-0.02161183	0	0
32.95829	-0.155472	0.3541574	0	0	0	0	0	0
32.9917	-0.1554463	0.3541395	0.000768852	-0.0005342719	0.01538314	-0.01068968	0	0
33.00822	-0.1554463	0.3541395	0	0	-0.0153996	0.01070111	0	0
33.02456	-0.1554463	0.3541395	0	0	0	0	0	0
33.04113	-0.1554463	0.3541395	0	0	0	0	0	0
33.05769	-0.1554463	0.3541395	0	0	0	0	0	0
33.07426	-0.1554463	0.3541395	0	0	0	0	0	0
33.09127	-0.1554463	0.3541395	0	0	0	0	0	0
33.10739	-0.1554463	0.3541395	0	0	0	0	0	0
33.12396	-0.1554463	0.3541395	0	0	0	0	0	0
33.14081	-0.1554463	0.3541395	0	0	0	0	0	0
33.15732	-0.1554463	0.3541395	0	0	0	0	0	0
33.17366	-0.1554463	0.3541395	0	0	0	0	0	0
33.19022	-0.1554463	0.3541395	0	0	0	0	0	0
33.20679	-0.1554463	0.3541395	0	0	0	0	0	0
33.22336	-0.1554463	0.3541395	0	0	0	0	0	0
33.23993	-0.1554463	0.3541395	0	0	0	0	0	0
33.25649	-0.1554463	0.3541395	0	0	0	0	0	0
33.27306	-0.1554463	0.3541395	0	0	0	0	0	0
33.28963	-0.1554463	0.3541395	0	0	0	0	0	0
33.30619	-0.1554463	0.3541395	0	0	0	0	0	0
33.32294	-0.1554463	0.3541395	0	0	0	0	0	0
33.33945	-0.1554463	0.3541395	0	0	0	0	0	0
33.35596	-0.1554463	0.3541395	0	0	0	0	0	0
33.37246	-0.1554463	0.3541395	0	0	0	0	0	0
33.38903	-0.1554463	0.3541395	0	0	0	0	0	0
33.40559	-0.1554463	0.3541395	0	0	0	0	0	0
33.42216	-0.1554463	0.3541395	0	0	0	0	0	0
33.43873	-0.1554463	0.3541395	0	0	0	0	0	0
33.45553	-0.1554463	0.3541395	0	0	0	0	0	0
33.49184	-0.1554463	0.3541395	0	0	0	0	0	0
33.50841	-0.1554463	0.3541395	0	0	0	0	0	0
33.52498	-0.1554463	0.3541395	0	0	0	0	0	0
33.54155	-0.1554463	0.3541395	0	0	0	0	0	0
33.55811	-0.1554463	0.3541395	0	0	0	0	0	0
33.57468	-0.1554463	0.3541395	0	0	0	0	0	0
33.59125	-0.1554463	0.3541395	0	0	0	0	0	0
33.60781	-0.1554463	0.3541395	0	0	0	0	0	0
33.62438	-0.1554463	0.3541395	0	0	0	0	0	0
33.64117	-0.155472	0.3541217	-0.001530192	-0.001065099	-0.04587496	-0.03193153	0	0
33.65768	-0.155472	0.3541217	0	0	0.04595379	0.0319864	0	0
33.67419	-0.1554976	0.3540681	-0.00155474	-0.003243027	-0.04707932	-0.09820262	0	0
33.69065	-0.1555747	0.3540145	-0.004682248	-0.003256114	-0.09485798	-0.0003969298	0	0
33.70722	-0.1563708	0.3534609	-0.04805326	-0.03341764	-1.313325	-0.913326	0	0
33.72379	-0.158219	0.3522108	-0.1115597	-0.07545547	-1.916629	-1.268704	0	0
33.74035	-0.1604252	0.3506393	-0.1331669	-0.0948581	-0.6521052	-0.5855725	0	0
33.75692	-0.1617328	0.3497642	-0.0789255	-0.05281847	1.637008	1.268759	0	0
33.77349	-0.1617328	0.3497642	0	0	2.381976	1.594065	0	0
33.79005	-0.1617328	0.3497642	0	0	0	0	0	0
33.80662	-0.1617328	0.3497642	0	0	0	0	0	0
33.82319	-0.1617328	0.3497642	0	0	0	0	0	0
33.83976	-0.1617328	0.3497642	0	0	0	0	0	0
33.85633	-0.1617328	0.3497642	0	0	0	0	0	0
33.91902	-0.1617328	0.3497642	0	0	0	0	0	0
33.96891	-0.1617328	0.3497642	0	0	0	0	0	0
33.98528	-0.1617072	0.349782	0.001565048	0.001090074	0.02361798	0.0164502	0	0
34.00185	-0.1617328	0.3497642	-0.00154703	-0.001077524	-0.09446647	-0.06579699	0	0
34.01842	-0.1617328	0.3497642	0	0	0.04668945	0.03251974	0	0
34.03498	-0.1617328	0.3497642	0	0	0	0	0	0
34.05155	-0.1617328	0.3497642	0	0	0	0	0	0
34.06812	-0.1617328	0.3497642	0	0	0	0	0	0
34.08469	-0.1617328	0.3497642	0	0	0	0	0	0
34.10125	-0.1617328	0.3497642	0	0	0	0	0	0
34.11801	-0.1617328	0.3497642	0	0	0	0	0	0
34.16755	-0.1617328	0.3497642	0	0	0	0	0	0
34.18409	-0.1617328	0.3497642	0	0	0	0	0	0
34.20389	-0.1617328	0.3497642	0	0	0	0	0	0
34.22046	-0.1617328	0.3497642	0	0	0	0	0	0
34.23703	-0.1617328	0.3497642	0	0	0	0	0	0
34.25359	-0.1617328	0.3497642	0	0	0	0	0	0
34.27016	-0.1617328	0.3497642	0	0	0	0	0	0
34.28673	-0.1617328	0.3497642	0	0	0	0	0	0
34.3033	-0.1617328	0.3497642	0	0	0	0	0	0
34.31986	-0.1617328	0.3497642	0	0	0	0	0	0
34.33643	-0.1617328	0.3497642	0	0	0	0	0	0
34.35318	-0.1617328	0.3497642	0	0	0	0	0	0
34.36956	-0.1617328	0.3497642	0	0	0	0	0	0
34.38621	-0.1617328	0.3497642	0	0	0	0	0	0
34.40272	-0.1617328	0.3497642	0	0	0	0	0	0
34.41926	-0.1617328	0.3497642	0	0	0	0	0	0
34.43583	-0.1617328	0.3497642	0	0	0	0	0	0
34.46896	-0.1617328	0.3497642	0	0	0	0	0	0
34.48553	-0.1617328	0.3497642	0	0	0	0	0	0
34.5021	-0.1617328	0.3497642	0	0	0	0	0	0
34.51867	-0.1617328	0.3497642	0	0	0	0	0	0
34.53523	-0.1617328	0.3497642	0	0	0	0	0	0
34.5518	-0.1617328	0.3497642	0	0	0	0	0	0
34.56837	-0.1617328	0.3497642	0	0	0	0	0	0
34.58493	-0.1617328	0.3497642	0	0	0	0	0	0
34.6015	-0.1617328	0.3497642	0	0	0	0	0	0
34.61807	-0.1617328	0.3497642	0	0	0	0	0	0
34.63464	-0.1617328	0.3497642	0	0	0	0	0	0
34.6512	-0.1617328	0.3497642	0	0	0	0	0	0
34.66791	-0.1617328	0.3497642	0	0	0	0	0	0
34.68434	-0.1617328	0.3497642	0	0	0	0	0	0
34.70094	-0.1617328	0.3497642	0	0	0	0	0	0
34.71747	-0.1617328	0.3497642	0	0	0	0	0	0
34.73404	-0.1617328	0.3497642	0	0	0	0	0	0
34.75061	-0.1617328	0.3497642	0	0	0	0	0	0
34.76717	-0.1617328	0.3497642	0	0	0	0	0	0
34.78374	-0.1617328	0.3497642	0	0	0	0	0	0
34.80031	-0.1617328	0.3497642	0	0	0	0	0	0
34.81688	-0.1617328	0.3497642	0	0	0	0	0	0
34.85424	-0.1617328	0.3497642	0	0	0	0	0	0
34.87081	-0.1617328	0.3497642	0	0	0	0	0	0
34.88737	-0.1617328	0.3497642	0	0	0	0	0	0
34.90408	-0.1617328	0.3497642	0	0	0	0	0	0
34.9206	-0.1617328	0.3497642	0	0	0	0	0	0
34.93711	-0.1617328	0.3497642	0	0	0	0	0	0
34.95364	-0.1617328	0.3497642	0	0	0	0	0	0
34.97021	-0.1617328	0.3497642	0	0	0	0	0	0
34.98714	-0.1617328	0.3497642	0	0	0	0	0	0
35.08618	-0.1617328	0.3497642	0	0	0	0	0	0
35.10275	-0.1617328	0.3497642	0	0	0	0	0	0
35.11932	-0.1617328	0.3497642	0	0	0	0	0	0
35.13588	-0.1617328	0.3497642	0	0	0	0	0	0
35.15277	-0.1617072	0.349782	0.001518019	0.001057318	0.04538025	0.03160788	0	0
35.16902	-0.1617072	0.349782	0	0	-0.04581389	-0.03190991	0	0
35.18579	-0.1617072	0.349782	0	0	0	0	0	0
35.20215	-0.1617072	0.349782	0	0	0	0	0	0
35.21881	-0.1617072	0.349782	0	0	0	0	0	0
35.23532	-0.1617072	0.349782	0	0	0	0	0	0
35.25185	-0.1617072	0.349782	0	0	0	0	0	0
35.26842	-0.1617072	0.349782	0	0	0	0	0	0
35.28498	-0.1617072	0.349782	0	0	0	0	0	0
35.30155	-0.1617072	0.349782	0	0	0	0	0	0
35.31812	-0.1617072	0.349782	0	0	0	0	0	0
35.33469	-0.1617072	0.349782	0	0	0	0	0	0
35.35141	-0.1617072	0.349782	0	0	0	0	0	0
35.36782	-0.1617072	0.349782	0	0	0	0	0	0
35.38443	-0.1617072	0.349782	0	0	0	0	0	0
35.40095	-0.1617072	0.349782	0	0	0	0	0	0
35.41752	-0.1617072	0.349782	0	0	0	0	0	0
35.43409	-0.1617072	0.349782	0	0	0	0	0	0
35.45065	-0.1617328	0.3497642	-0.00154703	-0.001077524	-0.04668945	-0.03251974	0	0
35.46722	-0.1617328	0.3497642	0	0	0.04668945	0.03251974	0	0
35.484	-0.1617328	0.3497642	0	0	0	0	0	0
35.50051	-0.1617328	0.3497642	0	0	0	0	0	0
35.52372	-0.1617328	0.3497642	0	0	0	0	0	0
35.54029	-0.1617072	0.3497463	0.00154703	-0.001077524	0.03889742	-0.02709251	0	0
35.55685	-0.1616815	0.3497285	0.001547929	-0.001077524	2.714469E-05	0	0	0
35.57357	-0.1616815	0.3496928	0	-0.002138139	-0.04651311	-0.03187	0	0
35.58998	-0.1616559	0.3496749	0.001561048	-0.001087288	0.04711794	0.0317184	0	0
35.60655	-0.1616559	0.3496749	0	0	-0.04732501	0.03296242	0	0
35.62312	-0.1616559	0.3496749	0	0	0	0	0	0
35.63969	-0.1616559	0.3496749	0	0	0	0	0	0
35.65625	-0.1616559	0.3496749	0	0	0	0	0	0
35.67282	-0.1616559	0.3496749	0	0	0	0	0	0
35.68939	-0.1616559	0.3496749	0	0	0	0	0	0
35.70596	-0.1616559	0.3496749	0	0	0	0	0	0
35.72252	-0.1616559	0.3496749	0	0	0	0	0	0
35.73919	-0.1616303	0.3496571	0.001538175	-0.001071357	0.046289	-0.03224082	0	0
35.7557	-0.1614765	0.3495499	0.009316154	-0.006491162	0.2344699	-0.1633819	0	0
35.77222	-0.1596815	0.3482999	0.1086221	-0.07564346	3.006057	-2.093287	0	0
35.78879	-0.1496877	0.3413533	0.6032246	-0.4192936	14.94606	-10.38453	0	0
35.80536	-0.1391476	0.3340497	0.6362033	-0.4408477	0.9952996	-0.6505035	0	0
35.82192	-0.1216594	0.3219416	1.055591	-0.7308438	12.65713	-8.752101	0	0
35.83876	-0.1064123	0.3113852	0.9057153	-0.6270801	-4.48708	3.106559	0	0
35.85506	-0.08988869	0.29995	1.013706	-0.701538	3.259171	-2.247144	0	0
35.95446	-0.03669405	0.1833114	0.5351391	-1.173386	-4.136147	-4.07808	0	0
35.97103	-0.03522227	0.1768043	0.08883683	-0.3927701	-3.848408	6.731156	0	0
35.98787	-0.02828193	0.1451855	0.4120879	-1.877393	9.675534	-44.43766	0	0
36.00438	-0.02228578	0.1213549	0.3630987	-1.443065	-1.468692	13.0211	0	0
36.02089	-0.01765606	0.1044894	0.2804192	-1.021533	-2.50363	12.76449	0	0
36.0373	-0.01336762	0.08864804	0.261439	-0.9657494	-0.5766753	1.694858	0	0
36.05386	-0.007078829	0.06994316	0.3795924	-1.129029	3.58362	-4.95229	0	0
36.07043	-0.001868419	0.05806853	0.314501	-0.7167541	-1.964464	12.44247	0	0
36.087	0.003131569	0.04820153	0.3017999	-0.5955729	-0.3833207	3.657256	0	0
36.10357	0.01249935	0.04020781	0.5654404	-0.4825024	7.956686	3.412477	0	0
36.12013	0.01812959	0.03626045	0.3398422	-0.2382628	-6.808567	7.371164	0	0
36.1367	0.02186494	0.03361412	0.2254657	-0.1597331	-3.451887	2.370032	0	0
36.15327	0.0247318	0.03161879	0.1730442	-0.1204383	-1.582087	1.185919	0	0
36.17001	0.02586265	0.03077931	0.06754313	-0.05014022	-3.167254	2.110423	0	0
36.18651	0.02588895	0.03076065	0.00159363	-0.001130632	-1.983737	1.47419	0	0
36.20302	0.02588895	0.03076065	0	0	-0.04827369	0.03424871	0	0
36.21953	0.02588895	0.03076065	0	0	0	0	0	0
36.25577	0.02588895	0.03076065	0	0	0	0	0	0
36.28891	0.02588895	0.03076065	0	0	0	0	0	0
36.30547	0.02588895	0.03076065	0	0	0	0	0	0
36.32211	0.02588895	0.03076065	0	0	0	0	0	0
36.33861	0.02588895	0.03076065	0	0	0	0	0	0
36.35518	0.02586265	0.03077931	-0.001587392	0.001126206	-0.04800707	0.03405955	0	0
36.37174	0.02586265	0.03077931	0	0	0.04790758	-0.03398897	0	0
36.38831	0.02586265	0.03077931	0	0	0	0	0	0
36.40488	0.02586265	0.03077931	0	0	0	0	0	0
36.42144	0.02586265	0.03077931	0	0	0	0	0	0
36.43801	0.02586265	0.03077931	0	0	0	0	0	0
36.45458	0.02586265	0.03077931	0	0	0	0	0	0
36.47115	0.02586265	0.03077931	0	0	0	0	0	0
36.48771	0.02586265	0.03077931	0	0	0	0	0	0
36.50428	0.02586265	0.03077931	0	0	0	0	0	0
36.53741	0.02586265	0.03077931	0	0	0	0	0	0
36.55398	0.02583635	0.03076065	-0.001587392	-0.001126206	-0.03193839	-0.02265931	0	0
36.57055	0.02586265	0.03074199	0.001587392	-0.001126094	0.09581516	3.393965E-06	0	0
36.58731	0.02586265	0.03074199	0	0	-0.04763338	0.03379106	0	0
36.60368	0.02586265	0.03074199	0	0	0	0	0	0
36.62025	0.02586265	0.03074199	0	0	0	0	0	0
36.66995	0.02586265	0.03074199	0	0	0	0	0	0
36.68688	0.02586265	0.03074199	0	0	0	0	0	0
36.70309	0.02586265	0.03074199	0	0	0	0	0	0
36.7199	0.02586265	0.03074199	0	0	0	0	0	0
36.73641	0.02586265	0.03074199	0	0	0	0	0	0
36.75292	0.02586265	0.03074199	0	0	0	0	0	0
36.76944	0.02586265	0.03074199	0	0	0	0	0	0
36.78595	0.02586265	0.03074199	0	0	0	0	0	0
36.80248	0.02586265	0.03074199	0	0	0	0	0	0
36.81905	0.02586265	0.03074199	0	0	0	0	0	0
36.83562	0.02586265	0.03074199	0	0	0	0	0	0
36.85218	0.02586265	0.03074199	0	0	0	0	0	0
36.86875	0.02586265	0.03074199	0	0	0	0	0	0
36.88552	0.02583635	0.03076065	-0.001568254	0.001112517	-0.04704294	0.0333722	0	0
36.90203	0.02581006	0.03077931	-0.001592781	0.001130109	-0.0007370044	0.0005286215	0	0
36.91858	0.02565227	0.03107781	-0.009533019	0.01803445	-0.2401622	0.5112923	0	0
36.9843	0.006894628	0.04925991	-0.2854358	0.2766778	-3.353717	3.143921	0	0
37.00112	-0.001289473	0.06465752	-0.4865985	0.9154887	-2.437308	7.739898	0	0
37.03864	-0.01078906	0.1005846	-0.2531522	0.957414	4.295701	0.7714775	0	0
37.05521	-0.01555138	0.1171166	-0.2874544	0.9978706	-0.6341397	0.7479152	0	0
37.07178	-0.02118104	0.1340123	-0.3398073	1.019827	-1.580014	0.6626504	0	0
37.08834	-0.02796639	0.1513992	-0.4095644	1.049474	-2.105275	0.8947552	0	0
37.10518	-0.04231683	0.1800587	-0.8522612	1.702063	-13.25229	19.53548	0	0
37.12148	-0.05300294	0.1962894	-0.6557352	0.9959694	5.931166	-21.30995	0	0
37.13805	-0.06008548	0.2069579	-0.427503	0.6439538	6.944829	-10.71141	0	0
37.15472	-0.07483368	0.2267264	-0.8845002	1.185584	-13.74789	16.29391	0	0
37.17123	-0.08717325	0.2396185	-0.7473993	0.7808682	4.131531	-12.19609	0	0
37.18775	-0.1034452	0.2553981	-0.9851269	0.9553154	-7.197837	5.281853	0	0
37.20432	-0.1169377	0.2654468	-0.81441	0.60654	5.15997	-10.54184	0	0
37.22088	-0.1303618	0.2747904	-0.8102753	0.5639822	0.1247859	-1.284394	0	0
37.23745	-0.1390443	0.280909	-0.5240806	0.3693227	8.637373	-5.874835	0	0
37.25402	-0.1517712	0.2900652	-0.7681965	0.5526656	-7.367432	5.533298	0	0
37.27058	-0.1690295	0.3027377	-1.041713	0.764918	-8.254749	6.405791	0	0
37.28715	-0.1904021	0.3186553	-1.290053	0.9607864	-7.494905	5.911319	0	0
37.30384	-0.2010366	0.3282281	-0.6372054	0.5735857	19.63065	-11.64285	0	0
37.32029	-0.2061855	0.3396569	-0.3130953	0.6949664	9.781661	3.663276	0	0
37.33685	-0.2086803	0.3511393	-0.1505845	0.6930783	4.922723	-0.05719357	0	0
37.35342	-0.210946	0.3629268	-0.1367565	0.7114969	0.4173279	0.5558766	0	0
