Time	Pos X	Pos Y	Vel X	Vel Y	Acc X	Acc YForce X	Force Y
0.0168332	-0.1396379	0.3765759	0.002324435	-0.006268544	-3.87036E-05	0.000104376	0	0
0.05008035	-0.1396379	0.3765759	0	0	3.871435E-05	-0.000104405	0	0
0.06688157	-0.1396379	0.3765759	0	0	0	0	0	0
0.08337724	-0.1396379	0.3765759	0	0	0	0	0	0
0.0997841	-0.1396379	0.3765759	0	0	0	0	0	0
0.1164045	-0.1396379	0.3765759	0	0	0	0	0	0
0.1329176	-0.1396379	0.3765759	0	0	0	0	0	0
0.1494835	-0.1396379	0.3765759	0	0	0	0	0	0
0.1660514	-0.1396379	0.3765759	0	0	0	0	0	0
0.1829553	-0.1396637	0.3765938	-0.0015268	0.001057829	-0.04561454	0.0316036	0	0
0.1991841	-0.1396637	0.3765938	0	0	0.04608137	-0.03192705	0	0
0.2159735	-0.1396637	0.3765938	0	0	0	0	0	0
0.2323172	-0.1396637	0.3765938	0	0	0	0	0	0
0.2489964	-0.1396637	0.3765938	0	0	0	0	0	0
0.2654507	-0.1396637	0.3765938	0	0	0	0	0	0
0.282019	-0.1396637	0.3765938	0	0	0	0	0	0
0.2990294	-0.1396379	0.3766117	0.001517233	0.001049449	0.0451843	0.03125335	0	0
0.3155409	-0.1396379	0.3766117	0	0	-0.04526091	-0.03130634	0	0
0.331716	-0.1396121	0.3766296	0.001594666	0.001105487	0.04878654	0.03382082	0	0
0.3482843	-0.1396121	0.3766296	0	0	-0.04870186	-0.03376212	0	0
0.3648506	-0.1396121	0.3766296	0	0	0	0	0	0
0.3814174	-0.1395863	0.3766474	0.001557871	0.001079356	0.04701861	0.03257641	0	0
0.3981009	-0.1395863	0.3766474	0	0	-0.04685282	-0.03246154	0	0
0.4355949	-0.1395605	0.3766653	0.0006883461	0.0004761193	0.01270538	0.008788134	0	0
0.4521648	-0.1395347	0.3766832	0.001557574	0.00107915	0.0160778	0.01115405	0	0
0.4687323	-0.1394831	0.3767189	0.00311559	0.002156809	0.04701683	0.03252089	0	0
0.485299	-0.1395089	0.3767368	-0.001557871	0.001079356	-0.1410462	-0.03251778	0	0
0.5045667	-0.1395089	0.3767368	0	0	0.0434742	-0.03012069	0	0
0.5211843	-0.1395089	0.3767368	0	0	0	0	0	0
0.5432184	-0.1395089	0.3767368	0	0	0	0	0	0
0.5597879	-0.1394831	0.3767189	0.00155761	-0.001079176	0.04034882	-0.0279553	0	0
0.6426196	-0.1395089	0.3767368	-0.0003115814	0.0002158763	-0.01880452	0.01302854	0	0
0.6591859	-0.1395089	0.3767368	0	0	0.003134684	-0.002171837	0	0
0.6757531	-0.1395089	0.3767368	0	0	0	0	0	0
0.6923202	-0.1395089	0.3767368	0	0	0	0	0	0
0.7088873	-0.1395089	0.3767368	0	0	0	0	0	0
0.7254524	-0.1395089	0.3767368	0	0	0	0	0	0
0.7420192	-0.1395089	0.3767368	0	0	0	0	0	0
0.7588547	-0.1395089	0.3767368	0	0	0	0	0	0
0.7751526	-0.1395089	0.3767368	0	0	0	0	0	0
0.7917194	-0.1395089	0.3767368	0	0	0	0	0	0
0.8083856	-0.1395089	0.3767368	0	0	0	0	0	0
0.84142	-0.1394831	0.3767189	0.0007812711	-0.0005412964	0.01571955	-0.01089114	0	0
0.8579859	-0.1394831	0.3767189	0	0	-0.01575134	0.01091317	0	0
0.8745522	-0.1394831	0.3767189	0	0	0	0	0	0
0.8911202	-0.1394831	0.3767189	0	0	0	0	0	0
0.907957	-0.1394831	0.3767189	0	0	0	0	0	0
0.9244676	-0.1394831	0.3767189	0	0	0	0	0	0
0.9409807	-0.1394831	0.3767189	0	0	0	0	0	0
0.9573867	-0.1394831	0.3767189	0	0	0	0	0	0
0.9739527	-0.1395089	0.3767368	-0.001557946	0.001079408	-0.04725061	0.03273715	0	0
0.990519	-0.1395089	0.3767368	0	0	0.04702204	-0.03257878	0	0
1.007086	-0.1395089	0.3767368	0	0	0	0	0	0
1.024038	-0.1395089	0.3767368	0	0	0	0	0	0
1.040219	-0.1395347	0.3767546	-0.001594996	0.001103236	-0.04813899	0.03329706	0	0
1.056786	-0.1395347	0.3767546	0	0	0.04870535	-0.03368881	0	0
1.073574	-0.1395347	0.3767546	0	0	0	0	0	0
1.090085	-0.1395605	0.3768083	-0.001563087	0.003247105	-0.04693998	0.09751158	0	0
1.106486	-0.1395605	0.3768083	0	0	0.04749289	-0.09866016	0	0
1.123053	-0.1395347	0.3768261	0.001557868	0.001079354	0.0472549	0.03274011	0	0
1.139619	-0.1395347	0.3768261	0	0	-0.04701789	-0.03257591	0	0
1.156186	-0.1395347	0.3768261	0	0	0	0	0	0
1.172752	-0.1395089	0.3768083	0.001557868	-0.001079354	0.0470184	-0.03257626	0	0
1.18932	-0.1394831	0.3767904	0.001557834	-0.001079331	-1.015397E-06	7.026969E-07	0	0
1.206169	-0.1394831	0.3767904	0	0	-0.0466192	0.03229968	0	0
1.222453	-0.1394831	0.3767904	0	0	0	0	0	0
1.239019	-0.1394831	0.3767904	0	0	0	0	0	0
1.255586	-0.1394831	0.3767904	0	0	0	0	0	0
1.276883	-0.1394573	0.3767725	0.001211867	-0.0008382312	0.0320059	-0.02213803	0	0
1.29345	-0.1394573	0.3767725	0	0	-0.0320059	0.02213803	0	0
1.310244	-0.1394831	0.3767904	-0.00153678	0.001062969	-0.04606489	0.03186243	0	0
1.326588	-0.1394573	0.3767725	0.001579093	-0.001092237	0.09402675	-0.06503698	0	0
1.343151	-0.1394831	0.3767904	-0.001558204	0.001077788	-0.09533758	0.06594367	0	0
1.376286	-0.1394831	0.3767904	0	0	0.03135384	-0.02168701	0	0
1.393305	-0.1394831	0.3767904	0	0	0	0	0	0
1.409417	-0.1394831	0.3767904	0	0	0	0	0	0
1.426324	-0.1394831	0.3767904	0	0	0	0	0	0
1.442551	-0.1394831	0.3767904	0	0	0	0	0	0
1.459347	-0.1394831	0.3767904	0	0	0	0	0	0
1.475684	-0.1394831	0.3767904	0	0	0	0	0	0
1.49237	-0.1395089	0.3767725	-0.001546661	-0.001069803	-0.04683535	-0.03239536	0	0
1.508817	-0.1395089	0.3767725	0	0	0.04667965	0.03228766	0	0
1.525397	-0.1395089	0.3767725	0	0	0	0	0	0
1.541951	-0.1395089	0.3767725	0	0	0	0	0	0
1.558517	-0.1395089	0.3767725	0	0	0	0	0	0
1.575083	-0.1395089	0.3767725	0	0	0	0	0	0
1.59165	-0.1394831	0.3767546	0.001557901	-0.001079377	0.0470206	-0.03257778	0	0
1.608452	-0.1394831	0.3767546	0	0	-0.046688	0.03234734	0	0
1.674483	-0.1394831	0.3767546	0	0	0	0	0	0
1.69105	-0.1394831	0.3767546	0	0	0	0	0	0
1.707617	-0.1394831	0.3767546	0	0	0	0	0	0
1.724183	-0.1395089	0.3767725	-0.001557901	0.001079377	-0.04701891	0.03257661	0	0
1.74075	-0.1395089	0.3767725	0	0	0.04701891	-0.03257661	0	0
1.757317	-0.1395089	0.3767725	0	0	0	0	0	0
1.773883	-0.1395089	0.3767725	0	0	0	0	0	0
1.79058	-0.1395089	0.3767725	0	0	0	0	0	0
1.807016	-0.1395089	0.3767725	0	0	0	0	0	0
1.823606	-0.1395089	0.3767725	0	0	0	0	0	0
1.84015	-0.1395347	0.3767904	-0.001560023	0.001079046	-0.04708295	0.03256661	0	0
1.856717	-0.1395347	0.3767904	0	0	0.04711498	-0.03258877	0	0
1.873283	-0.1395089	0.3768083	0.001557946	0.001079408	0.04702094	0.03257802	0	0
1.889851	-0.1395089	0.3768083	0	0	-0.04701976	-0.0325772	0	0
1.906417	-0.1395605	0.3768083	-0.003115803	0	-0.09403545	0	0	0
1.931205	-0.1395863	0.3768261	-0.001041186	0.0007213758	0.0501669	0.01744379	0	0
1.947773	-0.1396121	0.376844	-0.001557801	0.001077509	-0.01249209	0.008611526	0	0
1.964339	-0.1396379	0.3768619	-0.001556968	0.001079354	2.511763E-05	5.569516E-05	0	0
1.980906	-0.1396895	0.3768976	-0.003115803	0.002156956	-0.04704758	0.03252338	0	0
1.997727	-0.1397153	0.3769155	-0.001534286	0.001063016	0.04736814	-0.03276469	0	0
2.014039	-0.1397153	0.3769155	0	0	0.04630634	-0.03208291	0	0
2.030606	-0.1396895	0.3768976	0.001557868	-0.001079354	0.0473822	-0.03282831	0	0
2.047172	-0.1396895	0.3768976	0	0	-0.04701857	0.03257638	0	0
2.063774	-0.1396895	0.3768976	0	0	0	0	0	0
2.080306	-0.1396895	0.3768976	0	0	0	0	0	0
2.096873	-0.1396895	0.3768976	0	0	0	0	0	0
2.113812	-0.1396379	0.3768619	0.003047193	-0.00210946	0.09094427	-0.06295738	0	0
2.130006	-0.1396637	0.376844	-0.001593763	-0.001104224	-0.1400704	0.03033938	0	0
2.146573	-0.1396637	0.376844	0	0	0.04864911	0.03370608	0	0
2.163344	-0.1396379	0.3768261	0.001538866	-0.001064412	0.04615943	-0.03192782	0	0
2.179706	-0.1396379	0.3768261	0	0	-0.04644441	0.03212494	0	0
2.196273	-0.1396379	0.3768261	0	0	0	0	0	0
2.212882	-0.1396379	0.3768261	0	0	0	0	0	0
2.229408	-0.1396379	0.3768261	0	0	0	0	0	0
2.246466	-0.1396379	0.3768261	0	0	0	0	0	0
2.263034	-0.1396379	0.3768261	0	0	0	0	0	0
2.279601	-0.1396379	0.3768261	0	0	0	0	0	0
2.296167	-0.1396379	0.3768261	0	0	0	0	0	0
2.312734	-0.1396379	0.3768261	0	0	0	0	0	0
2.329462	-0.1396379	0.3768261	0	0	0	0	0	0
2.345867	-0.1396379	0.3768261	0	0	0	0	0	0
2.362433	-0.1396379	0.3768261	0	0	0	0	0	0
2.379	-0.1396379	0.3768261	0	0	0	0	0	0
2.395567	-0.1396379	0.3768261	0	0	0	0	0	0
2.412134	-0.1396379	0.3768261	0	0	0	0	0	0
2.428701	-0.1396379	0.3768261	0	0	0	0	0	0
2.445268	-0.1396379	0.3768261	0	0	0	0	0	0
2.461834	-0.1396379	0.3768261	0	0	0	0	0	0
2.4784	-0.1396379	0.3768261	0	0	0	0	0	0
2.494967	-0.1396379	0.3768261	0	0	0	0	0	0
2.511534	-0.1396379	0.3768261	0	0	0	0	0	0
2.616358	-0.1396379	0.3768261	0	0	0	0	0	0
2.632925	-0.1396379	0.3768261	0	0	0	0	0	0
2.649687	-0.1396379	0.3768261	0	0	0	0	0	0
2.666058	-0.1396379	0.3768261	0	0	0	0	0	0
2.682711	-0.1396379	0.3768261	0	0	0	0	0	0
2.699223	-0.1396379	0.3768261	0	0	0	0	0	0
2.715758	-0.1396379	0.3768261	0	0	0	0	0	0
2.732325	-0.1396379	0.3768261	0	0	0	0	0	0
2.748892	-0.1396379	0.3768261	0	0	0	0	0	0
2.765458	-0.1396121	0.3768083	0.001556968	-0.001079354	0.04699075	-0.03257591	0	0
2.782282	-0.1395605	0.3768083	0.003068093	0	0.04525578	0.03232493	0	0
2.798793	-0.1395089	0.3767725	0.003126309	-0.002164229	0.001746387	-0.06492414	0	0
2.815158	-0.1393024	0.3767368	0.01261546	-0.002183462	0.2886344	-0.0005850225	0	0
2.831816	-0.1389669	0.3768261	0.02014274	0.005363762	0.2279414	0.2285453	0	0
2.848291	-0.1369014	0.3770048	0.1253663	0.01084613	3.175791	0.1654653	0	0
2.864858	-0.1314223	0.3745747	0.3307294	-0.1466896	6.215178	-4.767715	0	0
2.881426	-0.1156397	0.3694112	0.9526292	-0.3116608	18.76911	-4.978877	0	0
2.897992	-0.09672355	0.3673568	1.141844	-0.1240124	5.710645	5.663364	0	0
2.914559	-0.07347277	0.3670353	1.40342	-0.01940803	7.894598	3.157056	0	0
2.931125	-0.04123976	0.3666959	1.945728	-0.02048882	16.36748	-0.03261972	0	0
2.947691	-0.01844528	0.3661778	1.375957	-0.03126979	-17.19683	-0.3253912	0	0
2.964258	0.00678937	0.3642665	1.52321	-0.1153722	4.44429	-2.538324	0	0
2.980825	0.01702467	0.3626053	0.6178219	-0.100272	-27.32546	0.4557368	0	0
2.997392	0.03083233	0.3564434	0.833456	-0.3719454	6.508038	-8.199357	0	0
3.013958	0.03884887	0.3509964	0.4838929	-0.3287893	-10.55014	1.302493	0	0
3.030957	0.04911835	0.344014	0.6041483	-0.4107681	3.582758	-2.442388	0	0
3.047469	0.05415751	0.3405855	0.3051699	-0.2076337	-8.921819	6.061739	0	0
3.063658	0.06367695	0.334139	0.5880241	-0.3982047	8.649579	-5.827596	0	0
3.080225	0.06831458	0.3309782	0.2799359	-0.1907902	-9.405661	6.332182	0	0
3.096792	0.07051447	0.3294781	0.1327893	-0.09054702	-4.44102	3.025433	0	0
3.113359	0.0731325	0.3276923	0.1580246	-0.1077938	0.7616124	-0.5205162	0	0
3.129925	0.07368216	0.3273173	0.0331794	-0.02263831	-3.767944	2.570072	0	0
3.183359	0.07362981	0.3273173	-0.0009796737	0	-0.4879856	0.3234036	0	0
3.200075	0.07362981	0.3273173	0	0	0.01396539	0	0	0
3.216494	0.07355129	0.3273351	-0.004782594	0.001089119	-0.144339	0.03286968	0	0
3.23306	0.07355129	0.3273351	0	0	0.1449952	-0.03301912	0	0
3.33246	0.07326338	0.3272458	-0.002896492	-0.0008985623	-0.02497691	-0.007748445	0	0
3.353276	0.07318485	0.3271923	-0.003772693	-0.002572877	-0.007288583	-0.01392759	0	0
3.370197	0.07318485	0.3271923	0	0	0.09997488	0.0681802	0	0
3.38641	0.07315867	0.3271744	-0.001614406	-0.001101087	-0.04872358	-0.03323134	0	0
3.403219	0.07315867	0.3271744	0	0	0.04888786	0.03334339	0	0
3.419544	0.07315867	0.3271744	0	0	0	0	0	0
3.43611	0.07318485	0.3271565	0.00157995	-0.001079385	0.04803693	-0.03281772	0	0
3.452676	0.07318485	0.3271565	0	0	-0.04768573	0.03257778	0	0
3.469243	0.07318485	0.3271565	0	0	0	0	0	0
3.485811	0.07315867	0.3271387	-0.001579859	-0.001077524	-0.04768024	-0.03251974	0	0
3.502378	0.07310633	0.327103	-0.003159718	-0.002155048	-0.04768024	-0.03251974	0	0
3.519305	0.07305397	0.3270673	-0.003093044	-0.002111034	0.001990628	0.001314081	0	0
3.535511	0.07294927	0.3269958	-0.006460745	-0.004408	-0.1016425	-0.06932605	0	0
3.552325	0.07287074	0.3269422	-0.004670263	-0.003186768	0.05422296	0.0369838	0	0
3.568643	0.07287074	0.3269422	0	0	0.1409559	0.09618169	0	0
3.58521	0.07281839	0.3269065	-0.003159809	-0.00215511	-0.09608712	-0.06553508	0	0
3.601777	0.07279221	0.3268887	-0.001580354	-0.001077555	0.04766941	0.03252162	0	0
3.618373	0.07276604	0.3268708	-0.001577136	-0.001075667	9.706018E-05	5.694988E-05	0	0
3.63491	0.07273985	0.3268529	-0.001583157	-0.001081268	-0.0001817277	-0.0001690579	0	0
3.651476	0.07268751	0.3268172	-0.0031599	-0.002155172	-0.04763042	-0.03244061	0	0
3.668043	0.07266133	0.3267994	-0.001580354	-0.001077555	0.04767285	0.03252396	0	0
3.68461	0.07266133	0.3267994	0	0	0.04769656	0.03252162	0	0
3.701177	0.07263515	0.3267815	-0.001579905	-0.001079354	-0.04768299	-0.03257591	0	0
3.717744	0.07263515	0.3267815	0	0	0.0476823	0.03257544	0	0
3.73431	0.07263515	0.3267815	0	0	0	0	0	0
3.750876	0.07263515	0.3267815	0	0	0	0	0	0
3.767478	0.07260897	0.3267637	-0.001577041	-0.001075296	-0.04754729	-0.03241983	0	0
3.78401	0.07263515	0.3267815	0.001583682	0.001079824	0.09539354	0.06504352	0	0
3.800577	0.07263515	0.3267815	0	0	-0.04784726	-0.03262437	0	0
3.817513	0.07263515	0.3267815	0	0	0	0	0	0
3.83371	0.07263515	0.3267815	0	0	0	0	0	0
3.850277	0.07260897	0.3267637	-0.001580354	-0.001077555	-0.04823489	-0.03288867	0	0
3.866843	0.0725828	0.3267458	-0.00157995	-0.001077586	1.219913E-05	-9.346105E-07	0	0
3.88341	0.07255661	0.326728	-0.001580309	-0.001077524	-1.082516E-05	1.872707E-06	0	0
3.900073	0.07250426	0.326728	-0.003142126	0	-0.0470008	0.03242665	0	0
3.916544	0.07250426	0.326728	0	0	0.09483228	0	0	0
3.936967	0.07226866	0.3268887	-0.01153589	0.007869592	-0.3126719	0.2132995	0	0
3.953609	0.07148325	0.3274244	-0.04719579	0.03219423	-0.9620963	0.6562735	0	0
3.970101	0.06983363	0.3285495	-0.1000221	0.06821648	-1.594325	1.087169	0	0
3.986668	0.06692621	0.3305317	-0.1754971	0.1196518	-2.283015	1.555848	0	0
4.003236	0.0584334	0.3362819	-0.5126122	0.3470697	-10.17415	6.863486	0	0
4.019803	0.05048339	0.3415855	-0.4798777	0.3201328	0.9879305	-0.8129569	0	0
4.036368	0.03947948	0.349032	-0.6642739	0.4495268	-5.56549	3.905401	0	0
4.053179	0.030622	0.3550146	-0.5268888	0.3558768	4.116258	-2.805891	0	0
4.069501	0.02081278	0.3614979	-0.6009589	0.3971948	-2.235506	1.247015	0	0
4.086204	0.006710425	0.3703581	-0.8443426	0.5304836	-7.369728	4.036023	0	0
4.102715	-0.004263132	0.3774158	-0.6646225	0.427457	5.411117	-3.101984	0	0
4.119201	-0.01989211	0.3867815	-0.9479784	0.5680748	-8.587165	4.261456	0	0
4.135767	-0.0241269	0.3890163	-0.2556267	0.1348998	20.94676	-13.1055	0	0
4.152335	-0.0447333	0.4006414	-1.243805	0.7016949	-29.82413	17.1064	0	0
4.168902	-0.05557429	0.4080321	-0.654345	0.446093	17.78967	-7.713971	0	0
4.185468	-0.06870747	0.4168954	-0.7928111	0.5350515	-4.179094	2.684889	0	0
4.202034	-0.07773776	0.4227899	-0.5450855	0.3557983	7.47691	-5.41026	0	0
4.218601	-0.08907942	0.4298528	-0.6846033	0.4263323	-4.210774	2.128781	0	0
4.235168	-0.09865239	0.4334578	-0.5778592	0.2176113	3.221681	-6.299486	0	0
4.251819	-0.107583	0.4341933	-0.5363208	0.04416934	1.250483	-5.221338	0	0
4.268332	-0.122152	0.4343907	-0.8822532	0.011951	-10.43065	-0.9714568	0	0
4.284868	-0.1415728	0.4343727	-1.174477	-0.001084982	-8.842111	-0.3944427	0	0
4.301435	-0.1547013	0.434301	-0.7924591	-0.004331808	11.54045	-0.09808398	0	0
4.318001	-0.1699499	0.4336731	-0.920461	-0.03790081	-3.863273	-1.013158	0	0
4.334568	-0.1797748	0.4330452	-0.5930457	-0.03789792	9.88184	8.724905E-05	0	0
4.351134	-0.1872539	0.4302832	-0.451469	-0.1667254	4.272977	-3.88819	0	0
4.367902	-0.1880667	0.4296018	-0.04847327	-0.04063877	12.08954	3.782495	0	0
4.384268	-0.1881429	0.4295838	-0.004654584	-0.001096268	1.322489	1.19343	0	0
4.400925	-0.1881175	0.4295659	0.001524347	-0.001077062	0.1871106	0.0005815922	0	0
4.417438	-0.1881175	0.4295659	0	0	-0.04595593	0.03247121	0	0
4.433968	-0.1881175	0.4295301	0	-0.002168849	0	-0.06563736	0	0
4.450535	-0.1880667	0.4294583	0.003065366	-0.004330009	0.09261688	-0.06529722	0	0
4.470868	-0.188473	0.4287052	-0.01998177	-0.03703655	-0.6245828	-0.886355	0	0
4.487486	-0.1911125	0.4266614	-0.1588325	-0.1229932	-3.757692	-2.326229	0	0
4.504003	-0.1942306	0.4243849	-0.1887883	-0.1378273	-0.9040689	-0.4476947	0	0
4.520569	-0.1949906	0.4237397	-0.04587165	-0.0389467	4.319886	2.988825	0	0
4.537137	-0.1974715	0.4219476	-0.149748	-0.1081698	-3.135039	-2.089186	0	0
4.553703	-0.1992673	0.4205321	-0.1084013	-0.08544527	1.247862	0.6858363	0	0
4.586836	-0.1989133	0.4198154	0.01068441	-0.02162967	2.396102	1.284022	0	0
4.603569	-0.1987869	0.4197258	0.007557353	-0.00535409	-0.06271016	0.3263912	0	0
4.620079	-0.198711	0.4196721	0.004594765	-0.003254513	-0.08911993	0.06315904	0	0
4.636536	-0.1982557	0.4193496	0.0276644	-0.01959588	0.6997674	-0.49568	0	0
4.653104	-0.1978257	0.4190451	0.02595697	-0.01838214	-0.05170127	0.03675224	0	0
4.66967	-0.1972437	0.4185972	0.0351296	-0.02703578	0.2768385	-0.2611748	0	0
4.686236	-0.1961047	0.4177911	0.06875414	-0.04866048	1.014863	-0.6526818	0	0
4.702803	-0.1950412	0.4170387	0.06419364	-0.04541072	-0.1376401	0.09808091	0	0
4.719369	-0.1950665	0.4170566	-0.00152823	0.001081184	-1.983547	1.403169	0	0
4.735936	-0.1950412	0.4170387	0.001528186	-0.001081153	0.09224677	-0.06526229	0	0
4.752675	-0.1950412	0.4170387	0	0	-0.04588434	0.03246202	0	0
4.769069	-0.1950412	0.4170387	0	0	0	0	0	0
4.785697	-0.1950412	0.4170387	0	0	0	0	0	0
4.80221	-0.1950412	0.4170387	0	0	0	0	0	0
4.818769	-0.1950412	0.4170387	0	0	0	0	0	0
4.835336	-0.1950412	0.4170387	0	0	0	0	0	0
4.851903	-0.1950412	0.4170387	0	0	0	0	0	0
4.868469	-0.1950412	0.4170387	0	0	0	0	0	0
4.88527	-0.1950412	0.4170387	0	0	0	0	0	0
4.901602	-0.1950412	0.4170387	0	0	0	0	0	0
4.918289	-0.1950159	0.4170208	0.001518074	-0.001073368	0.04597501	-0.03250704	0	0
4.934803	-0.1949906	0.4170029	0.001533986	-0.001084618	0.0004792663	-0.0003388662	0	0
4.951314	-0.1949906	0.4170029	0	0	-0.04644886	0.03284208	0	0
4.96787	-0.1949906	0.4170029	0	0	0	0	0	0
4.984436	-0.1949906	0.4170029	0	0	0	0	0	0
5.001002	-0.1949906	0.4170029	0	0	0	0	0	0
5.017569	-0.1949906	0.4170029	0	0	0	0	0	0
5.034136	-0.1949906	0.4170029	0	0	0	0	0	0
5.050885	-0.1949652	0.416985	0.001512456	-0.001069395	0.04539774	-0.03209887	0	0
5.067269	-0.1949652	0.416985	0	0	-0.04564797	0.0322758	0	0
5.083908	-0.1949652	0.416985	0	0	0	0	0	0
5.100402	-0.1949652	0.416985	0	0	0	0	0	0
5.116968	-0.1949652	0.416985	0	0	0	0	0	0
5.216502	-0.1949652	0.416985	0	0	0	0	0	0
5.232935	-0.1949652	0.416985	0	0	0	0	0	0
5.270792	-0.1949906	0.4169671	-0.0006691481	-0.000473127	-0.01232537	-0.008714763	0	0
5.287359	-0.1949906	0.4169671	0	0	0.01229503	0.008693307	0	0
5.303926	-0.1949906	0.4169671	0	0	0	0	0	0
5.320493	-0.1949906	0.4169671	0	0	0	0	0	0
5.337059	-0.1949652	0.4169492	0.001529085	-0.001081153	0.04614921	-0.0326302	0	0
5.353626	-0.1949652	0.4169492	0	0	-0.04614987	0.03263067	0	0
5.370192	-0.1949652	0.4169492	0	0	0	0	0	0
5.386759	-0.1949652	0.4169492	0	0	0	0	0	0
5.403633	-0.1949399	0.4169313	0.001500332	-0.001061447	0.04486496	-0.03174084	0	0
5.420144	-0.1949399	0.4169313	0	0	-0.04494057	0.03179433	0	0
5.436657	-0.1949652	0.4169134	-0.001533084	-0.001084618	-0.04642288	-0.03284302	0	0
5.453026	-0.1949652	0.4169134	0	0	0.04662349	0.03298495	0	0
5.46968	-0.1949399	0.4168954	0.001520135	-0.001075457	0.04603278	-0.03256704	0	0
5.486191	-0.1949399	0.4168954	0	0	-0.04583555	0.0324275	0	0
5.502726	-0.1949399	0.4168954	0	0	0	0	0	0
5.519293	-0.1949399	0.4168954	0	0	0	0	0	0
5.535859	-0.1949399	0.4168954	0	0	0	0	0	0
5.552425	-0.1949399	0.4168954	0	0	0	0	0	0
5.56925	-0.1949399	0.4168954	0	0	0	0	0	0
5.585763	-0.1949146	0.4168775	0.001534075	-0.001084681	0.04601701	-0.03253673	0	0
5.602126	-0.1949399	0.4168596	-0.001548112	-0.001094606	-0.09375182	-0.000301895	0	0
5.618692	-0.1949146	0.4168417	0.001529085	-0.001081153	0.0934469	0.0004085331	0	0
5.635297	-0.1949146	0.4168417	0	0	-0.0460968	0.03259315	0	0
5.651825	-0.1948892	0.4168238	0.001532614	-0.001083648	0.04625638	-0.03270598	0	0
5.668393	-0.1948892	0.4168238	0	0	-0.04630836	0.03274274	0	0
5.692355	-0.1948892	0.4168238	0	0	0	0	0	0
5.708922	-0.1948892	0.4168238	0	0	0	0	0	0
5.72549	-0.1948892	0.4168238	0	0	0	0	0	0
5.742057	-0.1948892	0.4168238	0	0	0	0	0	0
5.758886	-0.1948892	0.4168238	0	0	0	0	0	0
5.77519	-0.1948892	0.4168238	0	0	0	0	0	0
5.79191	-0.1949146	0.4168059	-0.00151513	-0.001071286	-0.04587989	-0.03243978	0	0
5.808422	-0.1948892	0.4168238	0.001534163	0.001084744	0.09175979	0.06487956	0	0
5.824934	-0.1948892	0.4168238	0	0	-0.04645557	-0.03284682	0	0
5.841459	-0.1948892	0.4168238	0	0	0	0	0	0
5.988313	-0.1948892	0.4168238	0	0	0	0	0	0
6.009759	-0.1948892	0.4168238	0	0	0	0	0	0
6.026574	-0.1948892	0.4168238	0	0	0	0	0	0
6.043086	-0.1948892	0.4168238	0	0	0	0	0	0
6.05946	-0.1948892	0.4168238	0	0	0	0	0	0
6.092623	-0.1948892	0.4168238	0	0	0	0	0	0
6.10916	-0.1948892	0.4168238	0	0	0	0	0	0
6.126145	-0.1949146	0.4168059	-0.001491479	-0.001054564	-0.04449301	-0.03145918	0	0
6.142294	-0.1949146	0.4168059	0	0	0.04501358	0.03182725	0	0
6.158862	-0.1949146	0.4168059	0	0	0	0	0	0
6.175427	-0.1949146	0.4168059	0	0	0	0	0	0
6.191994	-0.1949146	0.4168059	0	0	0	0	0	0
6.208705	-0.1949146	0.4168059	0	0	0	0	0	0
6.225127	-0.1949146	0.4168059	0	0	0	0	0	0
6.241694	-0.1949146	0.4168059	0	0	0	0	0	0
6.25826	-0.1949146	0.4168059	0	0	0	0	0	0
6.274827	-0.1949146	0.4168059	0	0	0	0	0	0
6.291394	-0.1949146	0.4168059	0	0	0	0	0	0
6.30796	-0.1949146	0.4168059	0	0	0	0	0	0
6.324526	-0.1949146	0.4168059	0	0	0	0	0	0
6.357659	-0.1949146	0.4168059	0	0	0	0	0	0
6.374321	-0.1949146	0.4168059	0	0	0	0	0	0
6.390832	-0.1949146	0.4168059	0	0	0	0	0	0
6.40736	-0.1949146	0.4168059	0	0	0	0	0	0
6.423926	-0.1949146	0.4168059	0	0	0	0	0	0
6.440495	-0.1949146	0.4168059	0	0	0	0	0	0
6.457061	-0.1948892	0.4168238	0.001529129	0.001081184	0.04614921	0.0326302	0	0
6.473892	-0.1949146	0.4168417	-0.001505043	0.001064154	-0.09084979	-0.0005099276	0	0
6.490404	-0.1949146	0.4168417	0	0	0.04513777	-0.03191505	0	0
6.506917	-0.1949146	0.4168417	0	0	0	0	0	0
6.523326	-0.1949146	0.4168417	0	0	0	0	0	0
6.540439	-0.1949146	0.4168417	0	0	0	0	0	0
6.556468	-0.1949146	0.4168417	0	0	0	0	0	0
6.573026	-0.1949146	0.4168417	0	0	0	0	0	0
6.589592	-0.1949146	0.4168417	0	0	0	0	0	0
6.606159	-0.1949146	0.4168417	0	0	0	0	0	0
6.622726	-0.1949146	0.4168417	0	0	0	0	0	0
6.70556	-0.1949146	0.4168059	0	-0.0004324612	0	-0.004350673	0	0
6.729584	-0.1949146	0.4168059	0	0	0	0.004047055	0	0
6.746152	-0.1949146	0.4168059	0	0	0	0	0	0
6.762718	-0.1949146	0.4168059	0	0	0	0	0	0
6.779285	-0.1949146	0.4168059	0	0	0	0	0	0
6.796119	-0.1949146	0.4168059	0	0	0	0	0	0
6.812419	-0.1949146	0.4168059	0	0	0	0	0	0
6.828985	-0.1949146	0.4168059	0	0	0	0	0	0
6.845552	-0.1949146	0.4168059	0	0	0	0	0	0
6.862118	-0.1949146	0.4168059	0	0	0	0	0	0
6.878687	-0.1949146	0.4168059	0	0	0	0	0	0
6.895253	-0.1949146	0.4168059	0	0	0	0	0	0
6.911819	-0.1949146	0.4168059	0	0	0	0	0	0
6.928384	-0.1949146	0.4168059	0	0	0	0	0	0
6.944951	-0.1949146	0.4168059	0	0	0	0	0	0
6.961518	-0.1949146	0.4168059	0	0	0	0	0	0
6.978084	-0.1949146	0.4168059	0	0	0	0	0	0
6.99476	-0.1949146	0.4168059	0	0	0	0	0	0
7.01128	-0.1949146	0.4168059	0	0	0	0	0	0
7.027784	-0.1949146	0.4168059	0	0	0	0	0	0
7.044351	-0.1949146	0.4168059	0	0	0	0	0	0
7.060918	-0.1949146	0.4168059	0	0	0	0	0	0
7.077484	-0.1949146	0.4168059	0	0	0	0	0	0
7.09405	-0.1949146	0.4168059	0	0	0	0	0	0
7.110618	-0.1949146	0.4168059	0	0	0	0	0	0
7.12735	-0.1949146	0.4168059	0	0	0	0	0	0
7.143862	-0.1949146	0.4168059	0	0	0	0	0	0
7.160317	-0.1949146	0.4168059	0	0	0	0	0	0
7.176888	-0.1949146	0.4168059	0	0	0	0	0	0
7.193451	-0.1949146	0.4168059	0	0	0	0	0	0
7.210018	-0.1949146	0.4168059	0	0	0	0	0	0
7.230936	-0.1949146	0.4168059	0	0	0	0	0	0
7.247503	-0.1949146	0.4168059	0	0	0	0	0	0
7.26407	-0.1949146	0.4168059	0	0	0	0	0	0
7.280637	-0.1949146	0.4168059	0	0	0	0	0	0
7.297204	-0.1949146	0.4168059	0	0	0	0	0	0
7.313982	-0.1949146	0.4168059	0	0	0	0	0	0
7.330495	-0.1949146	0.4168059	0	0	0	0	0	0
7.346904	-0.1949146	0.4168059	0	0	0	0	0	0
7.363471	-0.1949146	0.4168059	0	0	0	0	0	0
7.380038	-0.1949146	0.4168059	0	0	0	0	0	0
7.396605	-0.1949146	0.4168059	0	0	0	0	0	0
7.413171	-0.1949146	0.4168059	0	0	0	0	0	0
7.429738	-0.1949146	0.4168059	0	0	0	0	0	0
7.446304	-0.1949146	0.4168059	0	0	0	0	0	0
7.462871	-0.1949146	0.4168059	0	0	0	0	0	0
7.479437	-0.1949146	0.4168059	0	0	0	0	0	0
7.512624	-0.1949146	0.4168059	0	0	0	0	0	0
7.529138	-0.1949146	0.4168059	0	0	0	0	0	0
7.545704	-0.1949146	0.4168059	0	0	0	0	0	0
7.562271	-0.1949146	0.4168059	0	0	0	0	0	0
7.578838	-0.1949146	0.4168059	0	0	0	0	0	0
7.595405	-0.1949146	0.4168059	0	0	0	0	0	0
7.612195	-0.1949146	0.4168059	0	0	0	0	0	0
7.628538	-0.1949146	0.4168059	0	0	0	0	0	0
7.645218	-0.1949146	0.4168059	0	0	0	0	0	0
7.661671	-0.1949146	0.4168059	0	0	0	0	0	0
7.678249	-0.1949146	0.4168059	0	0	0	0	0	0
7.694804	-0.1949146	0.4168059	0	0	0	0	0	0
7.711371	-0.1949146	0.4168059	0	0	0	0	0	0
7.727938	-0.1949146	0.4168059	0	0	0	0	0	0
7.744788	-0.1949146	0.4168059	0	0	0	0	0	0
7.761072	-0.1949146	0.4168059	0	0	0	0	0	0
7.77781	-0.1949146	0.4168059	0	0	0	0	0	0
7.794205	-0.1949146	0.4168059	0	0	0	0	0	0
7.843905	-0.1949146	0.4168059	0	0	0	0	0	0
7.86087	-0.1949146	0.4168059	0	0	0	0	0	0
7.880502	-0.1949146	0.4168059	0	0	0	0	0	0
7.89707	-0.1949146	0.4168059	0	0	0	0	0	0
7.913908	-0.1949146	0.4168059	0	0	0	0	0	0
7.930418	-0.1949146	0.4168059	0	0	0	0	0	0
7.94677	-0.1949146	0.4168059	0	0	0	0	0	0
7.963442	-0.1949146	0.4168059	0	0	0	0	0	0
7.979903	-0.1948892	0.416788	0.001538963	-0.001088137	0.04644867	-0.03284194	0	0
7.99647	-0.1949146	0.4167701	-0.001528997	-0.001081091	-0.09288932	0.0002133486	0	0
8.013037	-0.1948892	0.4167163	0.001529129	-0.003243553	0.09229575	-0.06526416	0	0
8.029603	-0.1948892	0.4166805	0	-0.002162368	-0.04615186	0.03263208	0	0
8.046169	-0.1948892	0.4166805	0	0	0	0.06526416	0	0
8.062737	-0.1949146	0.4166626	-0.001529041	-0.001081122	-0.04614788	-0.03262927	0	0
8.079525	-0.1949146	0.4166626	0	0	0.04584045	0.0324119	0	0
8.096036	-0.1949146	0.4166626	0	0	0	0	0	0
8.112436	-0.1949146	0.4166626	0	0	0	0	0	0
8.12906	-0.1949399	0.4166805	-0.001523866	0.001077463	-0.04614441	0.03262682	0	0
8.145571	-0.1949146	0.4166626	0.001534252	-0.001084806	0.09229416	-0.0652574	0	0
8.162582	-0.1949399	0.4166805	-0.001489096	0.001052879	-0.09018834	0.06376845	0	0
8.178702	-0.1949399	0.4166805	0	0	0.0449449	-0.03177869	0	0
8.195269	-0.1949399	0.4166805	0	0	0	0	0	0
8.211836	-0.1949146	0.4166626	0.001529041	-0.001081122	0.04614788	-0.03262927	0	0
8.228402	-0.1949146	0.4166626	0	0	-0.04614788	0.03262927	0	0
8.24514	-0.1949399	0.4166447	-0.001513447	-0.001070096	-0.0454431	-0.03213094	0	0
8.261536	-0.1949399	0.4166089	0	-0.002184883	0.04567722	-0.0336453	0	0
8.278102	-0.1949146	0.4165193	0.001529129	-0.005405921	0.04639088	-0.0977202	0	0
8.294668	-0.1945853	0.4161432	0.01987778	-0.02270487	0.5537952	-0.5221133	0	0
8.311234	-0.1893362	0.4122213	0.3168526	-0.2367361	8.963234	-6.459849	0	0
8.327801	-0.1817865	0.4064392	0.4557272	-0.3490336	4.191485	-3.389339	0	0
8.344367	-0.1688761	0.39574	0.7793206	-0.6458393	9.76663	-8.958131	0	0
8.360933	-0.1659338	0.3920738	0.1776065	-0.2213027	-18.16081	12.81328	0	0
8.377732	-0.1577827	0.3717695	0.4852115	-1.208665	9.21932	-29.59252	0	0
8.394244	-0.1523883	0.3448355	0.3267	-1.631187	-4.758547	-12.68422	0	0
8.410633	-0.1476029	0.3216916	0.2919916	-1.412169	-1.054943	6.656921	0	0
8.427199	-0.1398443	0.2876872	0.4683326	-2.052631	5.350938	-19.43434	0	0
8.443767	-0.132586	0.2607189	0.4381143	-1.627806	-0.9120173	12.8216	0	0
8.460333	-0.1236813	0.2334977	0.5375226	-1.643168	3.000233	-0.4636294	0	0
8.477302	-0.1087794	0.1979122	0.8781939	-2.097124	10.15868	-13.53678	0	0
8.493465	-0.09508086	0.1730598	0.8474827	-1.537531	-0.9269184	16.88952	0	0
8.512715	-0.07368216	0.1431491	1.111626	-1.553813	7.458771	-0.4597774	0	0
8.529283	-0.05625637	0.1237465	1.051823	-1.171139	-1.669672	10.68411	0	0
8.54585	-0.03895397	0.1069809	1.044375	-1.011976	-0.2247726	4.803527	0	0
8.562416	-0.02078648	0.08618328	1.096655	-1.255419	1.577854	-7.347307	0	0
8.578982	-0.01034174	0.07197429	0.6304822	-0.8577055	-14.06993	12.00369	0	0
8.628967	0.00547363	0.03158148	0.3164027	-0.8080997	-4.719366	0.7453786	0	0
8.645921	0.006184132	0.02457976	0.04190896	-0.4129964	-4.100691	5.902492	0	0
8.662102	0.006368335	0.006761	0.01138391	-1.101216	-0.9212478	-20.7705	0	0
8.678943	0.006605167	0.002644518	0.01406288	-0.2444331	0.08112691	25.94587	0	0
8.695453	0.006684111	-0.001740668	0.004781586	-0.2656077	-0.2782919	-0.6349028	0	0
8.711802	0.00826297	-0.005358571	0.0965675	-0.2212812	2.793258	1.348959	0	0
8.728369	0.01197311	-0.007980268	0.2239575	-0.158255	3.870147	1.914755	0	0
8.744988	0.01313082	-0.008810596	0.06965911	-0.04996053	-4.649509	3.263263	0	0
8.761502	0.01349918	-0.009074835	0.0223059	-0.01600111	-1.429164	1.024927	0	0
8.778069	0.01349918	-0.009074835	0	0	-0.6742803	0.483694	0	0
8.794636	0.01349918	-0.009074835	0	0	0	0	0	0
8.811203	0.01349918	-0.009074835	0	0	0	0	0	0
8.828047	0.01349918	-0.009074835	0	0	0	0	0	0
8.844337	0.01352549	-0.00909371	0.001615179	-0.001158714	0.04874759	-0.03497106	0	0
8.860902	0.0135518	-0.009112585	0.001588362	-0.001139435	-0.0008162174	0.000586778	0	0
8.877468	0.0135518	-0.009112585	0	0	-0.047941	0.03439119	0	0
8.894095	0.0135518	-0.009112585	0	0	0	0	0	0
8.910605	0.0135518	-0.009112585	0	0	0	0	0	0
8.927169	0.0135518	-0.009112585	0	0	0	0	0	0
8.943735	0.0135518	-0.009112585	0	0	0	0	0	0
8.960301	0.0135518	-0.009112585	0	0	0	0	0	0
8.976868	0.0135518	-0.009112585	0	0	0	0	0	0
8.993435	0.0135518	-0.009112585	0	0	0	0	0	0
9.010174	0.0135518	-0.009112585	0	0	0	0	0	0
9.026567	0.0135518	-0.009112585	0	0	0	0	0	0
9.043134	0.0135518	-0.009112585	0	0	0	0	0	0
9.059711	0.0135518	-0.009112585	0	0	0	0	0	0
9.076267	0.0135518	-0.009112585	0	0	0	0	0	0
9.092834	0.0135518	-0.009112585	0	0	0	0	0	0
9.109744	0.0135518	-0.009112585	0	0	0	0	0	0
9.125967	0.0135518	-0.009112585	0	0	0	0	0	0
9.145396	0.0135518	-0.009112585	0	0	0	0	0	0
9.161963	0.0135518	-0.009112585	0	0	0	0	0	0
9.178531	0.0135518	-0.009112585	0	0	0	0	0	0
9.244839	0.0135518	-0.009112585	0	0	0	0	0	0
9.261363	0.0135518	-0.009112585	0	0	0	0	0	0
9.277929	0.0135518	-0.009112585	0	0	0	0	0	0
9.294497	0.0135518	-0.009112585	0	0	0	0	0	0
9.311063	0.0135518	-0.009112585	0	0	0	0	0	0
9.32763	0.01352549	-0.00909371	-0.001588179	0.001139304	-0.04793271	0.03438526	0	0
9.344196	0.01342025	-0.009018211	-0.006352913	0.004557423	-0.1438041	0.103162	0	0
9.360763	0.01336762	-0.008942713	-0.003176428	0.004557311	0.09587201	-3.387133E-06	0	0
9.377432	0.0130782	-0.0082067	-0.01736269	0.04415388	-0.4268399	1.191392	0	0
9.393945	0.01255197	-0.006659726	-0.0318678	0.09368291	-0.4371361	1.492641	0	0
9.410462	0.002789466	0.0013465	-0.5910352	0.4847077	-16.92881	11.83829	0	0
9.427029	-0.007552488	0.01012191	-0.6242775	0.5297152	-1.004789	1.360407	0	0
9.443596	-0.01873465	0.0220558	-0.6749567	0.720331	-1.529544	5.752961	0	0
9.460493	-0.03206795	0.04337014	-0.7890834	1.261412	-3.410388	16.16884	0	0
9.476729	-0.04011006	0.06251173	-0.4953162	1.178938	8.866166	-2.489142	0	0
9.493296	-0.04641401	0.08266768	-0.3805294	1.216685	3.499322	1.150733	0	0
9.510026	-0.05169075	0.1030049	-0.3154002	1.215591	1.95603	-0.03286647	0	0
9.526537	-0.05830227	0.1290369	-0.400432	1.576653	-2.558018	10.86186	0	0
9.576128	-0.074729	0.1959467	-0.3312438	1.34923	1.046689	-3.440482	0	0
9.592694	-0.0796731	0.2183316	-0.2984433	1.351235	0.4957952	0.03029905	0	0
9.609262	-0.08599789	0.2491068	-0.3817655	1.857592	-2.514744	15.28234	0	0
9.625828	-0.09121983	0.2719271	-0.3152147	1.377513	2.008567	-14.48923	0	0
9.642394	-0.09510694	0.2869361	-0.2346399	0.9060017	2.431891	-14.23106	0	0
9.659129	-0.1031588	0.315333	-0.4811383	1.696849	-7.402055	23.74821	0	0
9.675528	-0.1100795	0.3346212	-0.422034	1.176218	1.783823	-15.71315	0	0
9.692095	-0.1210111	0.3576043	-0.6598315	1.387263	-7.213491	6.401973	0	0
9.708665	-0.1294561	0.3738957	-0.509656	0.9831817	4.531915	-12.19414	0	0
9.725228	-0.138115	0.3890699	-0.5227718	0.9161281	-0.3958459	-2.023739	0	0
9.741795	-0.1409796	0.3939158	-0.1729139	0.2925152	10.56025	-18.82338	0	0
9.758361	-0.1562681	0.4187942	-0.9228689	1.501754	-22.63499	36.497	0	0
9.774927	-0.1628861	0.4273606	-0.3994876	0.5170938	15.79659	-29.71881	0	0
9.791723	-0.1714066	0.4336551	-0.5072926	0.374764	-3.231333	-4.266176	0	0
9.808235	-0.1751856	0.4363104	-0.228861	0.160811	8.359294	-6.423468	0	0
9.824748	-0.1750835	0.4362386	0.006181418	-0.004347748	7.117153	-5.001053	0	0
9.84536	-0.1750835	0.4362028	0	-0.00174085	-0.1665045	0.07022014	0	0
9.861927	-0.1750835	0.4362028	0	0	0	0.04682349	0	0
9.878496	-0.1749559	0.4360413	0.007700083	-0.009746964	0.2323756	-0.294147	0	0
9.895061	-0.1748028	0.4357542	0.009242767	-0.01733053	0.0465583	-0.2288724	0	0
9.911628	-0.1749814	0.4354851	-0.01078216	-0.01624475	-0.6044056	0.03277175	0	0
9.92832	-0.1751856	0.4352339	-0.01223005	-0.01504921	-0.04353443	0.03594699	0	0
9.944761	-0.1755428	0.4346956	-0.02172636	-0.03273637	-0.2866077	-0.533815	0	0
9.961328	-0.175951	0.4341933	-0.02463877	-0.03032173	-0.08823429	0.07315402	0	0
9.977894	-0.1756193	0.4338166	0.020019	-0.02274085	1.347852	0.2288046	0	0
9.99446	-0.1742158	0.4327941	0.08472184	-0.06171925	1.952848	-1.176438	0	0
10.01138	-0.1734244	0.4321305	0.04677548	-0.03922588	-1.133221	0.6717364	0	0
10.02759	-0.1736031	0.4320408	-0.0110226	-0.0055306	-1.7444	1.016955	0	0
10.0444	-0.1736797	0.431987	-0.004556996	-0.003202309	0.1957973	0.0705074	0	0
10.06091	-0.1736542	0.431969	0.001545806	-0.001084681	0.183155	0.06355346	0	0
10.07729	-0.1737052	0.4319332	-0.003116812	-0.002190684	-0.1417544	-0.03362507	0	0
10.09394	-0.1737563	0.4318614	-0.003068061	-0.004309789	0.001476237	-0.06416896	0	0
10.11043	-0.1737818	0.4318435	-0.001548041	-0.001088057	0.04587563	0.09723488	0	0
10.12699	-0.1737818	0.4318076	0	-0.002165966	0.04683184	-0.03260927	0	0
10.14356	-0.1737563	0.4317897	0.001540822	-0.001082983	0.04650479	0.03268638	0	0
10.16048	-0.1737563	0.4317538	0	-0.002118316	-0.04600687	-0.03091363	0	0
10.17669	-0.1737563	0.4317538	0	0	0	0.06393274	0	0
10.19326	-0.1737563	0.4317538	0	0	0	0	0	0
10.20983	-0.1737563	0.4317538	0	0	0	0	0	0
10.22653	-0.1737563	0.4317538	0	0	0	0	0	0
10.24296	-0.1737563	0.4317538	0	0	0	0	0	0
10.25953	-0.1737308	0.4317359	0.001541722	-0.001082983	0.04672426	-0.03282147	0	0
10.27609	-0.1736797	0.4317	0.003081645	-0.002165966	0.04647764	-0.03268638	0	0
10.29266	-0.1736286	0.4316641	0.003082544	-0.002164167	2.714626E-05	5.429251E-05	0	0
10.30923	-0.1736286	0.4316641	0	0	-0.09303404	0.06531658	0	0
10.32579	-0.1736286	0.4316641	0	0	0	0	0	0
10.40866	-0.1736031	0.4316462	0.0003080403	-0.0002165094	0.003098	-0.002177462	0	0
10.42519	-0.1736031	0.4316462	0	0	-0.003099011	0.002178172	0	0
10.44176	-0.1736031	0.4316462	0	0	0	0	0	0
10.45869	-0.1736031	0.4316462	0	0	0	0	0	0
10.47489	-0.1735776	0.4316283	0.001575839	-0.001107595	0.04756165	-0.03342921	0	0
10.49146	-0.1735776	0.4316283	0	0	-0.04809462	0.03380381	0	0
10.50802	-0.1735776	0.4316283	0	0	0	0	0	0
10.52462	-0.1735776	0.4316283	0	0	0	0	0	0
10.54128	-0.1735776	0.4316283	0	0	0	0	0	0
10.55773	-0.1735776	0.4316283	0	0	0	0	0	0
10.57429	-0.1735521	0.4316103	0.001541811	-0.001083045	0.0466986	-0.03280345	0	0
10.5948	-0.1735521	0.4316103	0	0	-0.041583	0.02921	0	0
10.61137	-0.1735265	0.4315565	0.001540645	-0.003246777	0.04154836	-0.08755959	0	0
10.62794	-0.173501	0.4315386	0.001540822	-0.001082983	5.354454E-06	0.06530342	0	0
10.64482	-0.173501	0.4315386	0	0	-0.04606327	0.03237605	0	0
10.66107	-0.173501	0.4315386	0	0	0	0	0	0
10.67764	-0.173501	0.4315386	0	0	0	0	0	0
10.6942	-0.173501	0.4315386	0	0	0	0	0	0
10.71077	-0.173501	0.4315386	0	0	0	0	0	0
10.72738	-0.173501	0.4315386	0	0	0	0	0	0
10.74391	-0.173501	0.4315386	0	0	0	0	0	0
10.76047	-0.173501	0.4315386	0	0	0	0	0	0
10.77704	-0.173501	0.4315386	0	0	0	0	0	0
10.7936	-0.173501	0.4315386	0	0	0	0	0	0
10.81017	-0.173501	0.4315386	0	0	0	0	0	0
10.82695	-0.173501	0.4315386	0	0	0	0	0	0
10.84346	-0.173501	0.4315386	0	0	0	0	0	0
10.85987	-0.173501	0.4315386	0	0	0	0	0	0
10.89301	-0.173501	0.4315386	0	0	0	0	0	0
10.90957	-0.1734755	0.4315206	0.001541722	-0.001082983	0.0310207	-0.0217905	0	0
10.92614	-0.1734755	0.4315206	0	0	-0.04653194	0.03268638	0	0
10.9427	-0.1734244	0.4314848	0.003082544	-0.002164167	0.09303672	-0.06531846	0	0
10.95954	-0.1733989	0.4314668	0.001515779	-0.001065381	-0.04690035	0.03289163	0	0
10.97584	-0.1733223	0.4313772	0.004701675	-0.005503731	0.09615331	-0.1339535	0	0
10.9924	-0.1728626	0.4310544	0.0277447	-0.0194865	0.7012526	-0.4255281	0	0
11.00908	-0.1701033	0.4291176	0.1654681	-0.1161375	4.143025	-2.907478	0	0
11.02559	-0.1636291	0.4245821	0.3921159	-0.2747014	6.829434	-4.777905	0	0
11.0421	-0.1589118	0.4212846	0.2856543	-0.199678	-3.223687	2.27173	0	0
11.05867	-0.1542388	0.4180239	0.2820631	-0.1968146	-0.1085588	0.08656001	0	0
11.07524	-0.1527482	0.416985	0.08998024	-0.06271408	-5.797239	4.047276	0	0
11.0918	-0.1526197	0.4168954	0.007758981	-0.005405921	-2.481586	1.729663	0	0
11.10837	-0.1526197	0.4168954	0	0	-0.23418	0.1631604	0	0
11.12494	-0.1526454	0.4168775	-0.001552516	-0.001081184	-0.04685771	-0.03263208	0	0
11.1415	-0.1526197	0.4168596	0.001552516	-0.001081184	0.09371543	0	0	0
11.15807	-0.1526454	0.4168417	-0.001552516	-0.001081184	-0.09371543	0	0	0
11.17464	-0.1526197	0.4168238	0.001552426	-0.001081122	0.09371003	1.876221E-06	0	0
11.28193	-0.1526711	0.4168238	-0.0004793013	0	-0.01640388	0.008728824	0	0
11.31035	-0.1526711	0.4168238	0	0	0.003531663	0	0	0
11.32692	-0.1526711	0.4168596	0	0.002162119	0	0.04805313	0	0
11.34382	-0.1526711	0.4168596	0	0	0	-0.06461132	0	0
11.36005	-0.1526711	0.4168596	0	0	0	0	0	0
11.37662	-0.1526711	0.4168596	0	0	0	0	0	0
11.39319	-0.1526711	0.4168596	0	0	0	0	0	0
11.40975	-0.1526711	0.4168596	0	0	0	0	0	0
11.42632	-0.1526711	0.4168596	0	0	0	0	0	0
11.44289	-0.1526968	0.4168417	-0.001551616	-0.001081184	-0.04683057	-0.03263208	0	0
11.45945	-0.1526968	0.4168417	0	0	0.04682922	0.03263114	0	0
11.47602	-0.1526968	0.4168417	0	0	0	0	0	0
11.49259	-0.1526711	0.4168238	0.001551616	-0.001081184	0.04683057	-0.03263208	0	0
11.50915	-0.1526711	0.4168238	0	0	-0.04683057	0.03263208	0	0
11.52572	-0.1526711	0.4168238	0	0	0	0	0	0
11.54228	-0.1526711	0.4168238	0	0	0	0	0	0
11.55885	-0.1526711	0.4168238	0	0	0	0	0	0
11.57542	-0.1526711	0.4168238	0	0	0	0	0	0
11.59199	-0.1526711	0.4168238	0	0	0	0	0	0
11.60855	-0.1526711	0.4168238	0	0	0	0	0	0
11.62512	-0.1526711	0.4168238	0	0	0	0	0	0
11.64168	-0.1526711	0.4168238	0	0	0	0	0	0
11.65825	-0.1526711	0.4168238	0	0	0	0	0	0
11.67505	-0.1526711	0.4168238	0	0	0	0	0	0
11.69139	-0.1526711	0.4168238	0	0	0	0	0	0
11.70795	-0.1526711	0.4168238	0	0	0	0	0	0
11.72452	-0.1526968	0.4168059	-0.001551616	-0.001081184	-0.04683057	-0.03263208	0	0
11.74109	-0.1526968	0.4168059	0	0	0.04682922	0.03263114	0	0
11.75765	-0.1526711	0.416788	0.001551616	-0.001081184	0.04682922	-0.03263114	0	0
11.77422	-0.1526968	0.4167701	-0.001551527	-0.001081122	-0.09365574	1.876221E-06	0	0
11.79078	-0.1526968	0.4167701	0	0	0.04682652	0.03262927	0	0
11.80735	-0.1526968	0.4167701	0	0	0	0	0	0
11.82392	-0.1526968	0.4167701	0	0	0	0	0	0
11.85705	-0.1526968	0.4167701	0	0	0	0	0	0
11.87369	-0.1526968	0.4167701	0	0	0	0	0	0
11.8902	-0.1526968	0.4167701	0	0	0	0	0	0
11.90675	-0.1526968	0.4167701	0	0	0	0	0	0
11.92614	-0.1526968	0.4167701	0	0	0	0	0	0
11.94273	-0.1526968	0.4167701	0	0	0	0	0	0
11.95928	-0.1526968	0.4167701	0	0	0	0	0	0
11.97626	-0.1526968	0.4167701	0	0	0	0	0	0
12.00898	-0.1526968	0.4167701	0	0	0	0	0	0
12.02579	-0.1526968	0.4167701	0	0	0	0	0	0
12.04211	-0.1527225	0.4167522	-0.001575561	-0.001097869	-0.04755601	-0.03313757	0	0
12.05868	-0.1527225	0.4167522	0	0	0.047916	0.03338842	0	0
12.07533	-0.1527225	0.4167522	0	0	0	0	0	0
12.09181	-0.1527225	0.4167522	0	0	0	0	0	0
12.10838	-0.1527225	0.4167522	0	0	0	0	0	0
12.12494	-0.1527225	0.4167522	0	0	0	0	0	0
12.14187	-0.1527225	0.4167522	0	0	0	0	0	0
12.15808	-0.1527225	0.4167522	0	0	0	0	0	0
12.17464	-0.1527225	0.4167522	0	0	0	0	0	0
12.19121	-0.1527225	0.4167522	0	0	0	0	0	0
12.20792	-0.1527225	0.4167522	0	0	0	0	0	0
12.22434	-0.1527225	0.4167522	0	0	0	0	0	0
12.29098	-0.1527225	0.4167522	0	0	0	0	0	0
12.30717	-0.1527225	0.4167522	0	0	0	0	0	0
12.32374	-0.1527225	0.4167522	0	0	0	0	0	0
12.34031	-0.1527225	0.4167522	0	0	0	0	0	0
12.35703	-0.1527225	0.4167522	0	0	0	0	0	0
12.37344	-0.1527225	0.4167522	0	0	0	0	0	0
12.40657	-0.1527225	0.4167522	0	0	0	0	0	0
12.42314	-0.1527225	0.4167522	0	0	0	0	0	0
12.43971	-0.1527225	0.4167522	0	0	0	0	0	0
12.45627	-0.1527225	0.4167522	0	0	0	0	0	0
12.47284	-0.1527225	0.4167522	0	0	0	0	0	0
12.48941	-0.1527225	0.4167522	0	0	0	0	0	0
12.50597	-0.1527225	0.4167522	0	0	0	0	0	0
12.52254	-0.1527225	0.4167522	0	0	0	0	0	0
12.53911	-0.1527225	0.4167522	0	0	0	0	0	0
12.55567	-0.1527225	0.4167522	0	0	0	0	0	0
12.57225	-0.1527225	0.4167522	0	0	0	0	0	0
12.58881	-0.1527225	0.4167522	0	0	0	0	0	0
12.60537	-0.1527225	0.4167522	0	0	0	0	0	0
12.62194	-0.1527225	0.4167522	0	0	0	0	0	0
12.64307	-0.1527225	0.4167522	0	0	0	0	0	0
12.65974	-0.1527225	0.4167522	0	0	0	0	0	0
12.67675	-0.1527225	0.4167522	0	0	0	0	0	0
12.69277	-0.1527225	0.4167522	0	0	0	0	0	0
12.70934	-0.1527225	0.4167522	0	0	0	0	0	0
12.7259	-0.1527225	0.4167522	0	0	0	0	0	0
12.74279	-0.1527225	0.4167522	0	0	0	0	0	0
12.75904	-0.1527225	0.4167522	0	0	0	0	0	0
12.77582	-0.1527225	0.4167522	0	0	0	0	0	0
12.79217	-0.1527225	0.4167522	0	0	0	0	0	0
12.80884	-0.1527225	0.4167522	0	0	0	0	0	0
12.8253	-0.1527225	0.4167522	0	0	0	0	0	0
12.84187	-0.1527225	0.4167522	0	0	0	0	0	0
12.85844	-0.1527225	0.4167522	0	0	0	0	0	0
12.875	-0.1527225	0.4167522	0	0	0	0	0	0
12.89157	-0.1527225	0.4167522	0	0	0	0	0	0
12.90814	-0.1527225	0.4167522	0	0	0	0	0	0
12.92493	-0.1527225	0.4167522	0	0	0	0	0	0
12.94127	-0.1527225	0.4167522	0	0	0	0	0	0
12.95784	-0.1527225	0.4167522	0	0	0	0	0	0
12.9744	-0.1527225	0.4167522	0	0	0	0	0	0
12.99097	-0.1527225	0.4167522	0	0	0	0	0	0
13.00754	-0.1527225	0.4167522	0	0	0	0	0	0
13.0241	-0.1527225	0.4167522	0	0	0	0	0	0
13.04067	-0.1527225	0.4167522	0	0	0	0	0	0
13.05752	-0.1527225	0.4167522	0	0	0	0	0	0
13.0738	-0.1527225	0.4167522	0	0	0	0	0	0
13.09042	-0.1527225	0.4167522	0	0	0	0	0	0
13.12357	-0.1527225	0.4167522	0	0	0	0	0	0
13.22313	-0.1526968	0.4167342	0.0002581643	-0.0001798919	0.001945292	-0.001355502	0	0
13.23965	-0.1527225	0.4167522	-0.001556814	0.001084806	-0.01563593	0.0108953	0	0
13.25603	-0.1527225	0.4167522	0	0	0.04731979	-0.03297298	0	0
13.27267	-0.1527225	0.4167522	0	0	0	0	0	0
13.29279	-0.1527225	0.4167522	0	0	0	0	0	0
13.30935	-0.1527225	0.4167522	0	0	0	0	0	0
13.32592	-0.1527225	0.4167522	0	0	0	0	0	0
13.34249	-0.1527225	0.4167522	0	0	0	0	0	0
13.35923	-0.1527225	0.4167522	0	0	0	0	0	0
13.37574	-0.1527225	0.4167522	0	0	0	0	0	0
13.39219	-0.1527225	0.4167522	0	0	0	0	0	0
13.40875	-0.1527225	0.4167522	0	0	0	0	0	0
13.42532	-0.1527225	0.4167522	0	0	0	0	0	0
13.44188	-0.1527225	0.4167522	0	0	0	0	0	0
13.45845	-0.1527225	0.4167522	0	0	0	0	0	0
13.47502	-0.1527225	0.4167522	0	0	0	0	0	0
13.49158	-0.1527225	0.4167522	0	0	0	0	0	0
13.50815	-0.1527225	0.4167522	0	0	0	0	0	0
13.52472	-0.1527225	0.4167522	0	0	0	0	0	0
13.54128	-0.1527225	0.4167522	0	0	0	0	0	0
13.55786	-0.1527225	0.4167522	0	0	0	0	0	0
13.57442	-0.1527225	0.4167522	0	0	0	0	0	0
13.59098	-0.1527225	0.4167522	0	0	0	0	0	0
13.6079	-0.1527225	0.4167522	0	0	0	0	0	0
13.62412	-0.1527225	0.4167522	0	0	0	0	0	0
13.64068	-0.1527225	0.4167522	0	0	0	0	0	0
13.65725	-0.1526968	0.4167342	0.001551616	-0.001081184	0.04683057	-0.03263208	0	0
13.67381	-0.1526968	0.4167342	0	0	-0.04683057	0.03263208	0	0
13.69038	-0.1526968	0.4167342	0	0	0	0	0	0
13.70697	-0.1527225	0.4167163	-0.001549475	-0.001079692	-0.04673367	-0.03256456	0	0
13.72355	-0.1527225	0.4167163	0	0	0.04670949	0.03254771	0	0
13.74008	-0.1527225	0.4167163	0	0	0	0	0	0
13.75665	-0.1527225	0.4167163	0	0	0	0	0	0
13.77322	-0.1527225	0.4167163	0	0	0	0	0	0
13.79003	-0.1527225	0.4167163	0	0	0	0	0	0
13.80635	-0.1527225	0.4167163	0	0	0	0	0	0
13.82292	-0.1527225	0.4167163	0	0	0	0	0	0
13.83958	-0.1527225	0.4167163	0	0	0	0	0	0
13.85608	-0.1526968	0.4167342	0.001558344	0.001085872	0.04699711	0.03274813	0	0
13.87262	-0.1527225	0.4167522	-0.001554032	0.001082867	-0.09421371	-9.096775E-05	0	0
13.8896	-0.1527482	0.4167701	-0.00151337	0.001054534	0.001212848	-0.000845127	0	0
13.90575	-0.1527739	0.416788	-0.001591845	0.001109216	-0.002368516	0.001650409	0	0
13.92586	-0.1531852	0.4171462	-0.02044785	0.01780973	-0.5199999	0.460557	0	0
13.94243	-0.1541618	0.4179702	-0.05894543	0.04973701	-1.049519	0.8703995	0	0
13.95915	-0.1586553	0.4213563	-0.2687839	0.2025421	-6.304267	4.590789	0	0
13.97566	-0.1652682	0.4261594	-0.4005164	0.2909068	-3.9644	2.659274	0	0
13.99213	-0.1704356	0.4302115	-0.3136932	0.2459836	2.632302	-1.361977	0	0
14.0087	-0.1790614	0.4372076	-0.5206846	0.4223131	-6.265046	5.336994	0	0
14.02526	-0.1904528	0.4488075	-0.6876295	0.7002079	-5.038698	8.387367	0	0
14.08682	-0.2096372	0.515696	-0.3116378	1.086565	4.812635	4.945305	0	0
14.10339	-0.2147926	0.536602	-0.3111626	1.261811	0.00608193	2.243067	0	0
14.11996	-0.2176545	0.5456561	-0.1727556	0.5465431	4.177132	-21.58682	0	0
14.13653	-0.2218153	0.5575874	-0.2511648	0.7202162	-2.366531	5.241766	0	0
14.15309	-0.2253184	0.5719452	-0.2114597	0.8666852	1.198373	4.420698	0	0
14.1698	-0.2267431	0.5819106	-0.08527657	0.5964972	3.792386	-8.120399	0	0
14.18631	-0.2281419	0.59048	-0.08471686	0.5190175	0.01684989	-2.3325	0	0
14.20282	-0.2290156	0.5977181	-0.05292301	0.4384062	0.9628382	-2.441217	0	0
14.21936	-0.2311361	0.6056411	-0.1282082	0.4790333	-2.277948	1.229279	0	0
14.23634	-0.2327812	0.6109589	-0.09684763	0.313072	0.9354268	-4.950307	0	0
14.25249	-0.2362416	0.6160437	-0.2142974	0.3148919	-3.544744	0.05492833	0	0
14.26937	-0.2337776	0.6197929	0.1460214	0.2221834	10.9115	-2.807485	0	0
14.28588	-0.2341511	0.6229115	-0.02262169	0.1888717	-5.051278	-0.9977657	0	0
14.30239	-0.2352215	0.6251358	-0.06482471	0.1347104	-1.277956	-1.640069	0	0
14.31876	-0.2328808	0.6272683	0.1429928	0.1302727	6.320333	-0.1349633	0	0
14.33533	-0.2320834	0.6279046	0.04813428	0.03841172	-2.880161	-2.789146	0	0
14.35192	-0.2320834	0.6279046	0	0	-1.451359	-1.158201	0	0
14.36846	-0.2320834	0.6279046	0	0	0	0	0	0
14.40159	-0.2320834	0.6279046	0	0	0	0	0	0
14.41816	-0.2320834	0.6279046	0	0	0	0	0	0
14.43472	-0.2320585	0.6278859	0.001503943	-0.001129756	0.04539171	-0.03409808	0	0
14.45129	-0.2320585	0.6278859	0	0	-0.04539171	0.03409808	0	0
14.468	-0.2320087	0.6278484	0.002982347	-0.002239658	0.08961535	-0.06729858	0	0
14.48442	-0.2320087	0.6278484	0	0	-0.09000999	0.06759495	0	0
14.50099	-0.2319588	0.627811	0.003009512	-0.002259383	0.09123164	-0.0684919	0	0
14.51756	-0.2319588	0.627811	0	0	-0.09082988	0.06819028	0	0
14.53412	-0.2319588	0.627811	0	0	0	0	0	0
14.55069	-0.2319588	0.627811	0	0	0	0	0	0
14.56726	-0.2319588	0.627811	0	0	0	0	0	0
14.58382	-0.2319838	0.6278297	-0.001504843	0.001129756	-0.04541886	0.03409808	0	0
14.60585	-0.2320087	0.6278484	-0.00113158	0.0008495303	0.009670755	-0.007260288	0	0
14.62242	-0.2321084	0.6279607	-0.006017226	0.006778149	-0.1265775	0.1535989	0	0
14.63899	-0.232233	0.6284287	-0.007521982	0.02824588	-0.04541364	0.6478975	0	0
14.65555	-0.2325071	0.6301702	-0.01654697	0.1051249	-0.2723826	2.320281	0	0
14.67212	-0.2362416	0.6339566	-0.225426	0.2285598	-6.304344	3.725487	0	0
14.68869	-0.2380069	0.635664	-0.1065544	0.103061	3.587656	-3.787672	0	0
14.70525	-0.2418555	0.6504378	-0.2323152	0.8917989	-3.795578	23.80484	0	0
14.72182	-0.2393485	0.6583956	0.1513298	0.4803624	11.57909	-12.41789	0	0
14.73839	-0.2379323	0.6633038	0.08548059	0.2962562	-1.98739	-5.556496	0	0
14.75521	-0.2355699	0.6705038	0.1404726	0.4281117	1.647194	3.949511	0	0
14.77152	-0.2369379	0.6743692	-0.08385149	0.236914	-6.770309	-5.770524	0	0
14.78809	-0.2401928	0.6773248	-0.1964751	0.1784116	-3.425111	-1.779178	0	0
14.80465	-0.2427483	0.6793673	-0.1542603	0.1232946	1.274117	-1.66353	0	0
14.82122	-0.2449539	0.6812205	-0.1331291	0.111861	0.6377602	-0.3450744	0	0
14.83779	-0.2449787	0.6813543	-0.001494949	0.008077399	3.972841	-3.132287	0	0
14.85478	-0.2449787	0.6813543	0	0	0.04454708	-0.2406936	0	0
14.87092	-0.2449787	0.6813543	0	0	0	0	0	0
14.88781	-0.2449787	0.6813543	0	0	0	0	0	0
14.90405	-0.2449539	0.6813352	0.001524793	-0.001177999	0.04602099	-0.03555413	0	0
14.92083	-0.2449291	0.6813161	0.00147756	-0.001137268	-0.001430716	0.001233765	0	0
15.02002	-0.2442355	0.6807427	0.0069928	-0.005780639	0.04755996	-0.0400415	0	0
15.03691	-0.2441859	0.6807045	0.002933879	-0.002262396	-0.0349665	0.0303087	0	0
15.05342	-0.2439381	0.6805134	0.01500942	-0.01157501	0.3615787	-0.2788481	0	0
15.06993	-0.2435416	0.6802078	0.02401507	-0.01851103	0.272725	-0.210049	0	0
15.08644	-0.2425995	0.6794819	0.05704713	-0.04395501	1.000192	-0.7704288	0	0
15.10285	-0.2418059	0.6788709	0.04836232	-0.03723559	-0.2637784	0.2040849	0	0
15.11942	-0.2416322	0.6787372	0.01048263	-0.008066605	-1.148666	0.8845223	0	0
15.13598	-0.2416322	0.6787372	0	0	-0.3163846	0.2434646	0	0
15.15255	-0.2416322	0.6787372	0	0	0	0	0	0
15.16912	-0.2416322	0.6787372	0	0	0	0	0	0
15.18601	-0.2416322	0.6787372	0	0	0	0	0	0
15.20225	-0.2416322	0.6787372	0	0	0	0	0	0
15.21882	-0.2416322	0.6787372	0	0	0	0	0	0
15.23538	-0.2416322	0.6787372	0	0	0	0	0	0
15.25195	-0.2416322	0.6787372	0	0	0	0	0	0
15.26857	-0.2416074	0.6787181	0.001493177	-0.001151495	0.04499942	-0.03470225	0	0
15.28508	-0.2416074	0.6786799	0	-0.002309602	-0.04506677	-0.03495375	0	0
15.30165	-0.241533	0.6786227	0.004492941	-0.003457631	0.1358083	-0.0347015	0	0
15.33884	-0.2413841	0.6785081	0.004002506	-0.003080207	-0.009122899	0.007020704	0	0
15.35541	-0.2412601	0.6784127	0.007488272	-0.005759656	0.06483875	-0.04984045	0	0
15.37214	-0.2412104	0.6783745	0.002965927	-0.002283674	-0.1358123	0.1043886	0	0
15.38865	-0.2411608	0.6782981	0.003005884	-0.004623881	0.001201961	-0.07039659	0	0
15.42168	-0.2410615	0.6782218	0.003005693	-0.002312141	-3.854209E-06	0.04666812	0	0
15.43824	-0.2410615	0.6782218	0	0	-0.06061189	0.04662593	0	0
15.45481	-0.2410367	0.6782027	0.001497647	-0.001151344	0.04520167	-0.03474963	0	0
15.47138	-0.2410367	0.6782027	0	0	-0.04519907	0.03474763	0	0
15.48794	-0.2410367	0.6782027	0	0	0	0	0	0
15.50451	-0.2410367	0.6782027	0	0	0	0	0	0
15.52108	-0.2410367	0.6782027	0	0	0	0	0	0
15.53826	-0.2410119	0.6781836	0.001444896	-0.001113593	0.04281469	-0.03299764	0	0
15.55427	-0.2410119	0.6781836	0	0	-0.04353063	0.03354941	0	0
15.57078	-0.2409871	0.6781645	0.001502404	-0.001155001	0.04619219	-0.03551111	0	0
15.58734	-0.2409375	0.6780881	0.002997229	-0.004610567	0.04519585	-0.1044786	0	0
15.6043	-0.2407637	0.6779546	0.01024301	-0.007875316	0.2161522	-0.09739223	0	0
15.62048	-0.2396962	0.676905	0.06600867	-0.06489562	1.68306	-1.720926	0	0
15.63704	-0.2347237	0.6729403	0.3001581	-0.2393249	7.152073	-5.327925	0	0
15.65384	-0.2281918	0.6669676	0.3888932	-0.3555992	2.659734	-3.485191	0	0
15.67035	-0.2223662	0.6595886	0.352792	-0.4468633	-1.083827	-2.739924	0	0
15.68674	-0.217253	0.6515704	0.3119727	-0.4892173	-1.240607	-1.287249	0	0
15.70331	-0.2125055	0.6379172	0.2865777	-0.8241574	-0.7705702	-10.16321	0	0
15.71987	-0.2092847	0.6259213	0.1944198	-0.7241163	-2.781492	3.019418	0	0
15.73644	-0.206009	0.6132675	0.1977299	-0.7638305	0.09990519	-1.198646	0	0
15.75301	-0.2018197	0.5900362	0.2528802	-1.402323	1.664535	-19.27085	0	0
15.76957	-0.2010619	0.5855278	0.04574794	-0.2721418	-6.251623	34.1109	0	0
15.78614	-0.1991915	0.5682129	0.1129046	-1.045194	2.026908	-23.3321	0	0
15.8027	-0.1977751	0.5565796	0.0854981	-0.7022228	-0.8271769	10.35148	0	0
15.81927	-0.1960288	0.5423682	0.1054128	-0.8578557	0.6010602	-4.697281	0	0
15.83596	-0.1939773	0.5266743	0.122911	-0.9402461	0.5261431	-2.477348	0	0
15.8524	-0.1930649	0.5148972	0.05548728	-0.7162687	-2.034909	6.759847	0	0
15.86899	-0.1924058	0.507206	0.03975181	-0.4638682	-0.476502	7.643199	0	0
15.88554	-0.190808	0.4929587	0.09652445	-0.8607136	1.713451	-11.97716	0	0
15.90636	-0.1876349	0.4783846	0.1523738	-0.6998535	1.494203	4.303678	0	0
15.92293	-0.1860343	0.4725245	0.0966174	-0.3537175	-1.491145	9.257035	0	0
15.9395	-0.1835678	0.4640405	0.1488832	-0.5121251	1.57743	-4.780887	0	0
15.9561	-0.1805898	0.4533007	0.1794011	-0.6469932	0.9201596	-4.066464	0	0
15.97263	-0.1778635	0.4426107	0.1648731	-0.6464761	-0.4384453	0.01560296	0	0
15.9892	-0.176104	0.4335475	0.1062106	-0.5470864	-1.772171	3.002528	0	0
16.00576	-0.1746497	0.4312337	0.08778819	-0.1396688	-0.5560215	12.29659	0	0
16.02233	-0.1743945	0.4314131	0.01540554	0.01082561	-2.184576	4.542062	0	0
16.0389	-0.1743179	0.4313592	0.004622201	-0.003248762	-0.3254417	-0.4247654	0	0
16.05547	-0.1743179	0.4313592	0	0	-0.1394983	0.09804785	0	0
16.07203	-0.1742924	0.4313413	0.001540734	-0.001082921	0.04649943	-0.03268262	0	0
16.0886	-0.1742924	0.4313413	0	0	-0.04649943	0.03268262	0	0
16.10517	-0.1742924	0.4313413	0	0	0	0	0	0
16.12173	-0.1742924	0.4313413	0	0	0	0	0	0
16.1383	-0.1742924	0.4313413	0	0	0	0	0	0
16.15487	-0.1742668	0.4313234	0.001540734	-0.001081122	0.04650211	-0.03263021	0	0
16.17143	-0.1742413	0.4313054	0.001540734	-0.001082921	0	-5.428939E-05	0	0
16.18822	-0.1742668	0.4312875	-0.001520947	-0.001069013	-0.09180454	0.0004170113	0	0
16.20473	-0.1742413	0.4313054	0.001546074	0.001086674	0.09212272	0.06474941	0	0
16.22124	-0.1742668	0.4312875	-0.001545895	-0.001086548	-0.0936338	-0.06581149	0	0
16.2377	-0.1742413	0.4312696	0.001550552	-0.001089822	0.09390501	-9.926333E-05	0	0
16.25427	-0.1742158	0.4312158	0.001539834	-0.003246963	-0.0003244834	-0.06530944	0	0
16.27084	-0.1741137	0.4311081	0.006162934	-0.006495726	0.1395254	-0.09804785	0	0
16.2874	-0.1740882	0.4309826	0.001540911	-0.00757772	-0.139501	-0.03265653	0	0
16.32053	-0.1740626	0.4308212	0.0007708609	-0.004871625	-0.01549463	0.05445092	0	0
16.33732	-0.1740626	0.4308212	0	0	-0.0154422	0.09759034	0	0
16.35383	-0.1740626	0.4308212	0	0	0	0	0	0
16.37024	-0.1741137	0.4307495	-0.003113552	-0.004373692	-0.09459339	-0.1328779	0	0
16.3868	-0.1744965	0.4303729	-0.02311187	-0.02273496	-0.6066232	-0.5569656	0	0
16.40337	-0.1774811	0.4282749	-0.1801697	-0.1266462	-4.740559	-3.136407	0	0
16.41993	-0.1809209	0.4258547	-0.207624	-0.1460846	-0.8286206	-0.5866863	0	0
16.4365	-0.1874063	0.4213205	-0.3914633	-0.2736875	-5.548281	-3.851065	0	0
16.45307	-0.1915436	0.4184001	-0.2497284	-0.1762714	4.277568	2.940024	0	0
16.46991	-0.1970666	0.4144955	-0.3278552	-0.2317885	-2.338221	-1.661545	0	0
16.49166	-0.200885	0.4117916	-0.1755945	-0.1243408	3.945458	2.784241	0	0
16.50844	-0.2011882	0.4115767	-0.01806374	-0.01280185	4.088486	2.894834	0	0
16.52479	-0.2012135	0.4115947	-0.00154573	0.0010955	0.4985146	0.4194227	0	0
16.54147	-0.2012135	0.4115947	0	0	0.04680921	-0.03317492	0	0
16.55793	-0.2012135	0.4115947	0	0	0	0	0	0
16.57449	-0.2012135	0.4115947	0	0	0	0	0	0
16.59106	-0.2012135	0.4115947	0	0	0	0	0	0
16.60763	-0.2012387	0.4116126	-0.001524544	0.001081122	-0.04601083	0.03262833	0	0
16.6242	-0.2012893	0.4116484	-0.003049987	0.002160445	-0.04603797	0.03257403	0	0
16.64076	-0.2013398	0.41172	-0.003049987	0.004322689	0	0.06525666	0	0
16.65733	-0.2013651	0.4117379	-0.001524544	0.001081122	0.04603797	-0.09783068	0	0
16.67406	-0.2013651	0.4117379	0	0	0.04578155	-0.03246573	0	0
16.69057	-0.2013651	0.4117379	0	0	0	0	0	0
16.70703	-0.2013903	0.4117916	-0.001535876	0.003265547	-0.04659152	0.09906192	0	0
16.72359	-0.2013903	0.4118274	0	0.002160445	0.04651079	-0.03346571	0	0
16.74016	-0.2013903	0.4118274	0	0	0	-0.06520611	0	0
16.75673	-0.2013903	0.4118274	0	0	0	0	0	0
16.7946	-0.2013903	0.4118274	0	0	0	0	0	0
16.82773	-0.2013903	0.4118274	0	0	0	0	0	0
16.84468	-0.2013903	0.4118274	0	0	0	0	0	0
16.87743	-0.2013651	0.4118095	0.0007716049	-0.0005468568	0.01552532	-0.0110032	0	0
16.89422	-0.2013651	0.4118095	0	0	-0.01557613	0.01103921	0	0
16.91074	-0.2013651	0.4118095	0	0	0	0	0	0
16.92724	-0.2013651	0.4118095	0	0	0	0	0	0
16.94375	-0.2013651	0.4118095	0	0	0	0	0	0
16.96027	-0.2013651	0.4118095	0	0	0	0	0	0
16.97683	-0.2013651	0.4118095	0	0	0	0	0	0
16.99379	-0.2013651	0.4118095	0	0	0	0	0	0
17.00997	-0.2013903	0.4118274	-0.001561763	0.001106863	-0.04713411	0.03340519	0	0
17.02681	-0.2013651	0.4118095	0.001500396	-0.00106337	0.0927204	-0.06571339	0	0
17.0431	-0.2013903	0.4118274	-0.001551341	0.001099476	-0.0921016	0.06527483	0	0
17.05984	-0.2013903	0.4118274	0	0	0.04697639	-0.03329341	0	0
17.07623	-0.2013903	0.4118274	0	0	0	0	0	0
17.0928	-0.2013903	0.4118274	0	0	0	0	0	0
17.10937	-0.2013903	0.4118274	0	0	0	0	0	0
17.12593	-0.2013903	0.4118274	0	0	0	0	0	0
17.1425	-0.2013903	0.4118274	0	0	0	0	0	0
17.17868	-0.2013903	0.4118274	0	0	0	0	0	0
17.19525	-0.2013903	0.4118274	0	0	0	0	0	0
17.21181	-0.2013903	0.4118274	0	0	0	0	0	0
17.22838	-0.2013903	0.4118274	0	0	0	0	0	0
17.24495	-0.2013903	0.4118274	0	0	0	0	0	0
17.26151	-0.2013651	0.4118095	0.001525443	-0.001081122	0.04603797	-0.03262833	0	0
17.27808	-0.2013903	0.4118274	-0.001525443	0.001081122	-0.09207594	0.06525666	0	0
17.29465	-0.2013903	0.4118274	0	0	0.04603797	-0.03262833	0	0
17.31152	-0.2013903	0.4118274	0	0	0	0	0	0
17.32778	-0.2013903	0.4118274	0	0	0	0	0	0
17.34435	-0.2013903	0.4118274	0	0	0	0	0	0
17.36092	-0.2013903	0.4118274	0	0	0	0	0	0
17.37748	-0.2013903	0.4118274	0	0	0	0	0	0
17.39408	-0.2013903	0.4118274	0	0	0	0	0	0
17.41062	-0.2013903	0.4118274	0	0	0	0	0	0
17.42719	-0.2013903	0.4118274	0	0	0	0	0	0
17.44375	-0.2013903	0.4118274	0	0	0	0	0	0
17.46062	-0.2013903	0.4118274	0	0	0	0	0	0
17.48509	-0.2013903	0.4118274	0	0	0	0	0	0
17.50166	-0.2013903	0.4118274	0	0	0	0	0	0
17.51822	-0.2013903	0.4118274	0	0	0	0	0	0
17.60122	-0.2013651	0.4118095	0.0003044857	-0.0002157971	0.003058086	-0.002167346	0	0
17.61763	-0.2013651	0.4118095	0	0	-0.003063191	0.002170964	0	0
17.63425	-0.2013651	0.4118095	0	0	0	0	0	0
17.65076	-0.2013651	0.4118095	0	0	0	0	0	0
17.66733	-0.2013651	0.4118095	0	0	0	0	0	0
17.6839	-0.2013651	0.4118095	0	0	0	0	0	0
17.70046	-0.2013651	0.4118095	0	0	0	0	0	0
17.71703	-0.2013651	0.4118095	0	0	0	0	0	0
17.7336	-0.2013651	0.4118095	0	0	0	0	0	0
17.75016	-0.2013651	0.4118095	0	0	0	0	0	0
17.76685	-0.2013651	0.4118095	0	0	0	0	0	0
17.7833	-0.2013651	0.4118095	0	0	0	0	0	0
17.79987	-0.2013651	0.4118095	0	0	0	0	0	0
17.81643	-0.2013651	0.4118095	0	0	0	0	0	0
17.833	-0.2013651	0.4118095	0	0	0	0	0	0
17.85387	-0.2013651	0.4118095	0	0	0	0	0	0
17.87044	-0.2013651	0.4118095	0	0	0	0	0	0
17.887	-0.2013651	0.4118095	0	0	0	0	0	0
17.90357	-0.2013398	0.4117916	0.001524895	-0.001079572	0.04602407	-0.03258341	0	0
17.92014	-0.2013398	0.4117916	0	0	-0.04602672	0.03258529	0	0
17.9367	-0.2013398	0.4117916	0	0	0	0	0	0
17.95327	-0.2013398	0.4117916	0	0	0	0	0	0
17.96984	-0.2013398	0.4117916	0	0	0	0	0	0
17.9864	-0.2013398	0.4117916	0	0	0	0	0	0
18.00297	-0.2013398	0.4117916	0	0	0	0	0	0
18.01954	-0.2013145	0.4117737	0.001525619	-0.001081246	0.04604592	-0.03263396	0	0
18.05267	-0.2013398	0.4117916	-0.0007627216	0.000540561	-0.04604327	0.03263208	0	0
18.06924	-0.2013398	0.4117916	0	0	0.01534599	-0.01087611	0	0
18.08581	-0.2013398	0.4117916	0	0	0	0	0	0
18.10237	-0.2013398	0.4117916	0	0	0	0	0	0
18.1191	-0.2013398	0.4117916	0	0	0	0	0	0
18.13561	-0.2013398	0.4117916	0	0	0	0	0	0
18.15207	-0.2013398	0.4117916	0	0	0	0	0	0
18.16864	-0.2013398	0.4117916	0	0	0	0	0	0
18.18521	-0.2013398	0.4117916	0	0	0	0	0	0
18.20177	-0.2013398	0.4117916	0	0	0	0	0	0
18.21834	-0.2013398	0.4117916	0	0	0	0	0	0
18.23491	-0.2013398	0.4117916	0	0	0	0	0	0
18.25148	-0.2013398	0.4117916	0	0	0	0	0	0
18.26821	-0.2013398	0.4117916	0	0	0	0	0	0
18.30124	-0.2013398	0.4117916	0	0	0	0	0	0
18.31775	-0.2013398	0.4117916	0	0	0	0	0	0
18.33431	-0.2013398	0.4117916	0	0	0	0	0	0
18.35088	-0.2013398	0.4117916	0	0	0	0	0	0
18.36744	-0.2013398	0.4117916	0	0	0	0	0	0
18.3843	-0.2013398	0.4117916	0	0	0	0	0	0
18.40081	-0.2013398	0.4117916	0	0	0	0	0	0
18.41714	-0.2013398	0.4117916	0	0	0	0	0	0
18.43383	-0.2013398	0.4117916	0	0	0	0	0	0
18.45034	-0.2013398	0.4117916	0	0	0	0	0	0
18.46685	-0.2013398	0.4117916	0	0	0	0	0	0
18.48341	-0.2013398	0.4117916	0	0	0	0	0	0
18.49998	-0.2013398	0.4117916	0	0	0	0	0	0
18.51655	-0.2013398	0.4117916	0	0	0	0	0	0
18.5547	-0.2013398	0.4117916	0	0	0	0	0	0
18.57127	-0.2013398	0.4117916	0	0	0	0	0	0
18.58784	-0.2013398	0.4117916	0	0	0	0	0	0
18.6044	-0.2013398	0.4117916	0	0	0	0	0	0
18.62097	-0.2013398	0.4117916	0	0	0	0	0	0
18.63754	-0.2013398	0.4117916	0	0	0	0	0	0
18.6541	-0.2013398	0.4117916	0	0	0	0	0	0
18.67067	-0.2013398	0.4117916	0	0	0	0	0	0
18.68724	-0.2013398	0.4117916	0	0	0	0	0	0
18.7038	-0.2013145	0.4117737	0.001525619	-0.001081246	0.04604592	-0.03263396	0	0
18.72054	-0.2013145	0.4117737	0	0	-0.04581121	0.03246761	0	0
18.73705	-0.2013145	0.4117737	0	0	0	0	0	0
18.75351	-0.2013398	0.4117558	-0.001536054	-0.001088642	-0.04659692	-0.03302447	0	0
18.77007	-0.2013398	0.4117558	0	0	0.04651618	0.03296724	0	0
18.78664	-0.2013398	0.4117558	0	0	0	0	0	0
18.8036	-0.2013398	0.4117558	0	0	0	0	0	0
18.82011	-0.2013145	0.4117737	0.001530553	0.001084744	0.0457263	0.03240743	0	0
18.83662	-0.2013145	0.4117737	0	0	-0.04634693	-0.03284729	0	0
18.8529	-0.2013145	0.4117737	0	0	0	0	0	0
18.86947	-0.2013398	0.4117916	-0.001525443	0.001081122	-0.04643895	0.03291251	0	0
18.88617	-0.2013398	0.4117916	0	0	0.04585584	-0.03249924	0	0
18.9026	-0.2013398	0.4117916	0	0	0	0	0	0
18.91919	-0.2013398	0.4117916	0	0	0	0	0	0
18.93574	-0.2013398	0.4117916	0	0	0	0	0	0
18.9523	-0.2013398	0.4117916	0	0	0	0	0	0
18.96887	-0.2013398	0.4117916	0	0	0	0	0	0
18.98544	-0.2013398	0.4117916	0	0	0	0	0	0
19.00224	-0.2013398	0.4117916	0	0	0	0	0	0
19.01857	-0.2013398	0.4117916	0	0	0	0	0	0
19.03513	-0.2013145	0.4117737	0.001525619	-0.001081246	0.04637428	-0.03286668	0	0
19.0517	-0.2013145	0.4117737	0	0	-0.04604592	0.03263396	0	0
19.06828	-0.2013145	0.4117737	0	0	0	0	0	0
19.08484	-0.2013145	0.4117737	0	0	0	0	0	0
19.1014	-0.2013145	0.4117737	0	0	0	0	0	0
19.11797	-0.2013145	0.4117737	0	0	0	0	0	0
19.13454	-0.2013145	0.4117737	0	0	0	0	0	0
19.1511	-0.2013145	0.4117737	0	0	0	0	0	0
19.16767	-0.2013145	0.4117737	0	0	0	0	0	0
19.18924	-0.2013145	0.4117737	0	0	0	0	0	0
19.20588	-0.2013145	0.4117737	0	0	0	0	0	0
19.22238	-0.2013145	0.4117737	0	0	0	0	0	0
19.23894	-0.2013145	0.4117737	0	0	0	0	0	0
19.25551	-0.2013145	0.4117737	0	0	0	0	0	0
19.27208	-0.2013145	0.4117737	0	0	0	0	0	0
19.28864	-0.2013398	0.4117916	-0.001525443	0.001081122	-0.04603797	0.03262833	0	0
19.30521	-0.2013398	0.4117916	0	0	0.04603797	-0.03262833	0	0
19.32178	-0.2013398	0.4117916	0	0	0	0	0	0
19.33835	-0.2013398	0.4117916	0	0	0	0	0	0
19.35492	-0.2013398	0.4117916	0	0	0	0	0	0
19.372	-0.2013398	0.4117916	0	0	0	0	0	0
19.38805	-0.2013398	0.4117916	0	0	0	0	0	0
19.42118	-0.2013398	0.4117916	0	0	0	0	0	0
19.43775	-0.2013398	0.4117916	0	0	0	0	0	0
19.45456	-0.2013398	0.4117916	0	0	0	0	0	0
19.47088	-0.2013398	0.4117916	0	0	0	0	0	0
19.50401	-0.2013398	0.4117916	0	0	0	0	0	0
19.53297	-0.2013398	0.4117916	0	0	0	0	0	0
19.54954	-0.2013398	0.4117916	0	0	0	0	0	0
19.56614	-0.2013651	0.4118095	-0.001521216	0.001076967	-0.04586024	0.03246742	0	0
19.58267	-0.2013651	0.4118095	0	0	0.0459104	-0.03250293	0	0
19.59924	-0.2013651	0.4118095	0	0	0	0	0	0
19.61581	-0.2013651	0.4118095	0	0	0	0	0	0
19.63269	-0.2013651	0.4118095	0	0	0	0	0	0
19.64894	-0.2013651	0.4118095	0	0	0	0	0	0
19.66551	-0.2013651	0.4118095	0	0	0	0	0	0
19.68208	-0.2013651	0.4118095	0	0	0	0	0	0
19.69864	-0.2013398	0.4117916	0.001524544	-0.001079323	0.04601083	-0.03257403	0	0
19.71525	-0.2013398	0.4117916	0	0	-0.04595527	0.0325347	0	0
19.73178	-0.2013398	0.4117916	0	0	0	0	0	0
19.74834	-0.2013398	0.4117916	0	0	0	0	0	0
19.76491	-0.2013398	0.4117916	0	0	0	0	0	0
19.79804	-0.2013651	0.4118095	-0.0007622719	0.0005396615	-0.01533694	0.01085801	0	0
19.81461	-0.2013651	0.4118095	0	0	0.01533694	-0.01085801	0	0
19.83133	-0.2013651	0.4118095	0	0	0	0	0	0
19.85266	-0.2013651	0.4118095	0	0	0	0	0	0
19.86923	-0.2013651	0.4118095	0	0	0	0	0	0
19.88587	-0.2013651	0.4118095	0	0	0	0	0	0
19.90238	-0.2013651	0.4118811	0	0.004338172	0	0.1308735	0	0
19.91893	-0.2012135	0.4120244	0.009158552	0.008656146	0.2770436	0.1306175	0	0
19.9355	-0.2008345	0.4123287	0.02287715	0.01837188	0.4142428	0.2933733	0	0
19.95207	-0.1999246	0.4129734	0.05491776	0.0389096	0.9669873	0.6198296	0	0
19.96863	-0.1979269	0.4144239	0.1205847	0.08755109	1.981831	1.468003	0	0
19.98544	-0.1965604	0.4153909	0.08129238	0.0575322	-1.177237	-0.8993968	0	0
20.00195	-0.18283	0.4256217	0.8316414	0.6196695	22.51983	16.87113	0	0
20.01847	-0.1702822	0.4357362	0.7598346	0.6124899	-2.174391	-0.2174072	0	0
20.0349	-0.1566532	0.44852	0.829331	0.7778969	2.109303	5.020314	0	0
20.05149	-0.139225	0.4716054	1.050519	1.391516	6.697829	18.5811	0	0
20.06803	-0.1294561	0.4923621	0.5905324	1.254753	-13.88322	-4.127767	0	0
20.0846	-0.1235517	0.5147157	0.3563947	1.349271	-7.071582	2.854701	0	0
20.10117	-0.1174828	0.543409	0.3663177	1.731932	0.299478	11.54875	0	0
20.11773	-0.1125487	0.5623736	0.2978248	1.144701	-2.067121	-17.72266	0	0
20.1343	-0.1041221	0.5820212	0.5086882	1.186072	6.364237	1.248629	0	0
20.15087	-0.09750561	0.59344	0.3993716	0.6892377	-3.299373	-14.99534	0	0
20.16743	-0.08978428	0.6054553	0.4660603	0.7252475	2.012669	1.086778	0	0
20.18408	-0.08531869	0.6132116	0.2682156	0.4658609	-5.956221	-7.808973	0	0
20.20057	-0.08116341	0.6218467	0.2520609	0.5238127	-0.4875491	1.748986	0	0
20.21714	-0.08019605	0.6249301	0.05839003	0.1861149	-5.859503	-10.21703	0	0
20.2337	-0.07700533	0.6274367	0.1925926	0.1512959	4.050241	-1.050838	0	0
20.25063	-0.07614198	0.627942	0.05099601	0.02984875	-4.22716	-3.625628	0	0
20.26684	-0.07588034	0.6277174	0.01614593	-0.01385946	-1.051778	-1.319116	0	0
20.28341	-0.07572336	0.6276051	0.009475557	-0.006778149	-0.2035383	0.2160778	0	0
20.29997	-0.0755402	0.6273618	0.01105542	-0.01468599	0.04768025	-0.2386591	0	0
20.31654	-0.07540937	0.6267818	0.007897047	-0.03501324	-0.09531977	-0.6134776	0	0
20.33319	-0.07496452	0.6258652	0.02670941	-0.05503464	0.5662588	-0.6026513	0	0
20.34967	-0.07355129	0.6235469	0.08576703	-0.1406919	1.782465	-2.585291	0	0
20.36624	-0.07344659	0.623061	0.006319436	-0.0293288	-2.404238	3.370063	0	0
20.38281	-0.07349894	0.6230984	-0.003159718	0.002255785	-0.2860814	0.9532248	0	0
20.39937	-0.07349894	0.6230984	0	0	0.09536048	-0.06807973	0	0
20.41594	-0.07352512	0.6231171	-0.001579859	0.001129691	-0.04768024	0.03409416	0	0
20.43251	-0.07352512	0.6231171	0	0	0.04768024	-0.03409416	0	0
20.44908	-0.07352512	0.6231171	0	0	0	0	0	0
20.46564	-0.07352512	0.6231171	0	0	0	0	0	0
20.48221	-0.07352512	0.6231545	0	0.002255785	0	0.06807973	0	0
20.49878	-0.07357746	0.6231918	-0.003159718	0.002255785	-0.09536048	0	0	0
20.52028	-0.07360364	0.6232852	-0.001216979	0.004342741	0.05102468	0.05481245	0	0
20.53685	-0.07362981	0.6233413	-0.001579859	0.003385477	-0.009530788	-0.02514189	0	0
20.55342	-0.07362981	0.6233787	0	0.002255785	0.04768024	-0.03409415	0	0
20.56999	-0.07368216	0.6234161	-0.003159718	0.002255785	-0.09536048	0	0	0
20.58655	-0.07376067	0.6235843	-0.004739128	0.01015283	-0.04766667	0.2383334	0	0
20.60312	-0.07394388	0.6237525	-0.01105856	0.01015283	-0.190721	0	0	0
20.61969	-0.07397006	0.6238085	-0.001579859	0.003381879	0.2860679	-0.2043478	0	0
20.63625	-0.07425794	0.6241263	-0.01737865	0.01918178	-0.476836	0.4768694	0	0
20.65282	-0.07449348	0.6246684	-0.01421693	0.03272507	0.09542637	0.408761	0	0
20.66939	-0.07451965	0.6251732	-0.001579859	0.03046929	0.3813877	-0.06807971	0	0
20.68596	-0.07373451	0.6258839	0.04739128	0.04289589	1.477952	0.3750357	0	0
20.70252	-0.07174507	0.6275677	0.1200828	0.1016363	2.193834	1.772788	0	0
20.71909	-0.07067158	0.6284474	0.06479581	0.0530991	-1.668564	-1.464854	0	0
20.73566	-0.06621883	0.6316317	0.2687685	0.1922023	6.155909	4.198142	0	0
20.75222	-0.06422733	0.6330564	0.1202074	0.08599687	-4.483585	-3.205285	0	0
20.76902	-0.06422733	0.6330564	0	0	-3.603389	-2.57788	0	0
20.78536	-0.06409629	0.6329626	0.008018572	-0.005737191	0.242001	-0.1731488	0	0
20.80204	-0.06391283	0.6328314	0.0109987	-0.007868783	0.09024683	-0.06455081	0	0
20.81855	-0.06383421	0.6327751	0.004761772	-0.003407647	-0.1879063	0.1344052	0	0
20.83506	-0.06336243	0.6324002	0.02857153	-0.02270561	0.7209871	-0.5843649	0	0
20.85163	-0.06307412	0.632194	0.01740674	-0.01245106	-0.3375563	0.3100364	0	0
20.86819	-0.06283821	0.6319503	0.01423942	-0.01470758	-0.09560103	-0.06810964	0	0
20.88476	-0.06286442	0.6318941	-0.001582108	-0.00339627	-0.4774947	0.3413759	0	0
20.90161	-0.06291685	0.6318191	-0.003111998	-0.004447102	-0.04578476	-0.03144806	0	0
20.91789	-0.06296927	0.6317816	-0.003218688	-0.002301938	-0.003219896	0.06474116	0	0
20.93446	-0.06304791	0.6317629	-0.004746323	-0.001133289	-0.04649758	0.03557089	0	0
20.95103	-0.06304791	0.6317629	0	0	0.1432443	0.03420274	0	0
20.9676	-0.06307412	0.6317816	-0.001582108	0.001133289	-0.04774811	0.03420274	0	0
20.98417	-0.06307412	0.6317816	0	0	0.04774536	-0.03420077	0	0
21.00073	-0.06310033	0.6318004	-0.00158229	0.001129822	-0.0477536	0.03409808	0	0
21.0173	-0.06312654	0.6318191	-0.00158229	0.00113342	0	0.0001086053	0	0
21.03386	-0.06312654	0.6318191	0	0	0.04775635	-0.03420864	0	0
21.05043	-0.06312654	0.6318191	0	0	0	0	0	0
21.067	-0.06315275	0.6318004	-0.001582108	-0.001133289	-0.04774811	-0.03420274	0	0
21.08374	-0.06312654	0.6317816	0.001565526	-0.001117851	0.09449534	0.0004634569	0	0
21.10391	-0.06310033	0.6317629	0.001299498	-0.0009308511	-0.007206917	0.005065987	0	0
21.12048	-0.06312654	0.6317067	-0.001582108	-0.003392672	-0.07843783	-0.06701123	0	0
21.13704	-0.06320518	0.631613	-0.004746323	-0.005655653	-0.09549621	-0.06829689	0	0
21.15361	-0.06323139	0.6315193	-0.001582108	-0.005655653	0.09549621	0	0	0
21.17018	-0.0632576	0.631463	-0.00158229	-0.003396661	-5.495308E-06	0.06818043	0	0
21.18674	-0.06338865	0.6307697	-0.007910089	-0.04184536	-0.1909843	-1.160451	0	0
21.20333	-0.06349349	0.6303576	-0.006322607	-0.0248555	0.04788823	0.5125187	0	0
21.21988	-0.06388663	0.629702	-0.02375169	-0.03960806	-0.5260109	-0.4452331	0	0
21.23645	-0.06425353	0.6290278	-0.02214636	-0.04069408	0.04847139	-0.03279111	0	0
21.25301	-0.06312654	0.6250423	0.06802523	-0.2405631	2.721384	-6.03206	0	0
21.26958	-0.05877433	0.6216786	0.2626998	-0.2030351	5.87529	1.132599	0	0
21.28615	-0.05449861	0.618039	0.258083	-0.219689	-0.1393352	-0.5026174	0	0
21.31941	-0.06152751	0.6114429	-0.2113053	-0.1982941	-9.419531	0.4293451	0	0
21.33642	-0.0762728	0.6009073	-0.8667767	-0.6193169	-13.03751	-8.374263	0	0
21.35244	-0.08524032	0.5945137	-0.5599765	-0.3992489	9.289731	6.66353	0	0
21.36898	-0.09429844	0.5880954	-0.5474428	-0.3878962	0.3849365	0.3486651	0	0
21.38555	-0.1031588	0.5818183	-0.5348136	-0.3788856	0.3813919	0.2721149	0	0
21.40212	-0.1150164	0.5734171	-0.7158099	-0.5071603	-5.462794	-3.871562	0	0
21.41868	-0.1239404	0.5670921	-0.538651	-0.3817782	5.346974	3.784259	0	0
21.4355	-0.1346539	0.5594572	-0.6370608	-0.4539951	-2.947784	-2.1632	0	0
21.45201	-0.1401024	0.5555904	-0.3300104	-0.2342089	9.213232	6.594818	0	0
21.46838	-0.1478088	0.5501172	-0.4706895	-0.3342884	-4.278209	-3.043529	0	0
21.48495	-0.1548554	0.545108	-0.4253342	-0.302358	1.376908	0.9693525	0	0
21.50154	-0.1636547	0.5388455	-0.5302703	-0.3773958	-3.164426	-2.262824	0	0
21.51808	-0.172173	0.5327377	-0.5150565	-0.3693057	0.4591795	0.244174	0	0
21.53465	-0.1781439	0.5283669	-0.3604031	-0.2638189	4.671484	3.18635	0	0
21.55122	-0.1860343	0.5224364	-0.4762073	-0.3579235	-3.494776	-2.839918	0	0
21.56779	-0.1915436	0.5177299	-0.3325849	-0.2841177	4.334531	2.227462	0	0
21.5846	-0.1941039	0.5138263	-0.1522432	-0.2321226	5.402297	1.55756	0	0
21.60092	-0.194408	0.5057017	-0.01863438	-0.4979688	4.032554	-8.023716	0	0
21.61749	-0.1930396	0.4945862	0.08259609	-0.6709342	3.078534	-5.260075	0	0
21.63405	-0.1917973	0.4860377	0.07498597	-0.5159902	-0.2296741	4.676219	0	0
21.65065	-0.1908334	0.4822822	0.05807792	-0.2262886	-0.5098457	8.735667	0	0
21.66718	-0.1893108	0.4811993	0.09207306	-0.06548443	1.026035	4.85336	0	0
21.68375	-0.1893108	0.4811993	0	0	-2.781332	1.978146	0	0
21.70032	-0.1893108	0.4811993	0	0	0	0	0	0
21.71688	-0.1892854	0.4811813	0.001531739	-0.001090116	0.04623064	-0.03290167	0	0
21.73345	-0.1892854	0.4811813	0	0	-0.04622798	0.03289977	0	0
21.75002	-0.1892854	0.4811813	0	0	0	0	0	0
21.76659	-0.1892347	0.4811452	0.003064378	-0.002178434	0.09248311	-0.06574526	0	0
21.78735	-0.1890824	0.4810369	0.007335297	-0.005214074	0.1144021	-0.08131354	0	0
21.80426	-0.1890316	0.4810008	0.003002841	-0.002134688	-0.1150045	0.08174195	0	0
21.82049	-0.1889808	0.4809647	0.003129408	-0.00222401	0.003819771	-0.002695736	0	0
21.83705	-0.1888793	0.4808925	0.006128756	-0.004356867	0.09145762	-0.06503615	0	0
21.85362	-0.1887777	0.4808204	0.006130555	-0.004356867	5.428939E-05	0	0	0
21.87019	-0.1885746	0.480676	0.01226021	-0.008713734	0.1849934	-0.1314905	0	0
21.88733	-0.188473	0.4806038	0.005925885	-0.004211412	-0.187925	0.1335736	0	0
21.90332	-0.188473	0.4806038	0	0	-0.1788539	0.127108	0	0
21.91989	-0.188473	0.4806038	0	0	0	0	0	0
21.93736	-0.1884476	0.4805858	0.001453488	-0.001033819	0.04270364	-0.03037372	0	0
21.95302	-0.188473	0.4806038	-0.001620906	0.001152898	-0.0927854	0.06599525	0	0
21.96959	-0.1884476	0.4805858	0.001532639	-0.001090116	0.09783807	-0.06958905	0	0
21.98616	-0.1884222	0.4806038	0.001532639	0.001090116	0	0.06579955	0	0
22.00272	-0.1884222	0.4806038	0	0	-0.04625779	-0.03290167	0	0
22.01941	-0.1884476	0.4806218	-0.001521081	0.00108011	-0.04573518	0.03247628	0	0
22.03586	-0.1884476	0.4806218	0	0	0.04590631	-0.03259779	0	0
22.05244	-0.1884476	0.4806218	0	0	0	0	0	0
22.06899	-0.1884476	0.4806218	0	0	0	0	0	0
22.08556	-0.1884222	0.4806038	0.001532639	-0.001088317	0.0462791	-0.03286251	0	0
22.10249	-0.1884222	0.4806038	0	0	-0.0457521	0.03248828	0	0
22.11869	-0.1883714	0.4805677	0.003134566	-0.002227675	0.09460682	-0.06723525	0	0
22.13526	-0.1882953	0.4805136	0.004596329	-0.003267421	0.04460134	-0.03172475	0	0
22.15201	-0.1868728	0.4795032	0.08493914	-0.06033599	2.411287	-1.712769	0	0
22.16852	-0.1855767	0.4785831	0.078495	-0.05572261	-0.1937594	0.1387131	0	0
22.20152	-0.1667272	0.4652648	0.5711483	-0.40355	9.949622	-7.02472	0	0
22.2686	-0.1667272	0.4652648	0	0	-5.706889	4.032254	0	0
22.28517	-0.1667272	0.4652648	0	0	0	0	0	0
22.3408	-0.1667272	0.4652648	0	0	0	0	0	0
22.35737	-0.1667016	0.4652468	0.001545231	-0.001086519	0.02140129	-0.01504817	0	0
22.37394	-0.1667016	0.4652468	0	0	-0.04663516	0.03279119	0	0
22.3905	-0.1667016	0.4652468	0	0	0	0	0	0
22.40721	-0.166676	0.4652288	0.001531985	-0.001077832	0.04604985	-0.0323985	0	0
22.42371	-0.166676	0.4652288	0	0	-0.04613449	0.03245804	0	0
22.4402	-0.166676	0.4652288	0	0	0	0	0	0
22.45677	-0.166676	0.4652288	0	0	0	0	0	0
22.47723	-0.166676	0.4652288	0	0	0	0	0	0
22.4938	-0.166676	0.4652288	0	0	0	0	0	0
22.51077	-0.1667016	0.4652468	-0.001507706	0.001060751	-0.04495662	0.03162935	0	0
22.52693	-0.1667016	0.4652468	0	0	0.04550529	-0.03201536	0	0
22.5435	-0.1667016	0.4652468	0	0	0	0	0	0
22.56006	-0.1667272	0.4652648	-0.001545231	0.001086519	-0.04663516	0.03279119	0	0
22.57681	-0.1667272	0.4652648	0	0	0.04637887	-0.03261098	0	0
22.59332	-0.1667528	0.4652828	-0.001549684	0.001092089	-0.04659253	0.03283457	0	0
22.60976	-0.1668296	0.4654088	-0.004669915	0.007666565	-0.09469754	0.1995322	0	0
22.62633	-0.1669319	0.4655169	-0.006178225	0.00652091	-0.04569712	-0.0347098	0	0
22.6429	-0.1669831	0.4655529	-0.003089562	0.002173037	0.09321602	-0.1312191	0	0
22.65947	-0.1669831	0.4655529	0	0	0.09324317	-0.06558239	0	0
22.67603	-0.1669575	0.4655349	0.001545231	-0.001086519	0.04663516	-0.03279119	0	0
22.6926	-0.1669575	0.4655349	0	0	-0.04663516	0.03279119	0	0
22.70941	-0.1669575	0.4655349	0	0	0	0	0	0
22.72573	-0.1669575	0.4655349	0	0	0	0	0	0
22.74244	-0.1669575	0.4655349	0	0	0	0	0	0
22.75894	-0.1669319	0.4655169	0.0015504	-0.001090788	0.04668368	-0.03284443	0	0
22.77543	-0.1669063	0.4654989	0.001551656	-0.001091672	3.805302E-05	-2.677191E-05	0	0
22.792	-0.1669063	0.4654989	0	0	-0.04693984	0.03302465	0	0
22.80857	-0.1669063	0.4654989	0	0	0	0	0	0
22.82513	-0.1669063	0.4654989	0	0	0	0	0	0
22.8417	-0.1669063	0.4654989	0	0	0	0	0	0
22.85827	-0.1669063	0.4654989	0	0	0	0	0	0
22.87483	-0.1669063	0.4654989	0	0	0	0	0	0
22.8914	-0.1669063	0.4654989	0	0	0	0	0	0
22.90797	-0.1669063	0.4654989	0	0	0	0	0	0
22.92453	-0.1669575	0.4655349	-0.003088663	0.002173037	-0.0932214	0.06558616	0	0
22.9411	-0.1669575	0.4655349	0	0	0.09321603	-0.06558239	0	0
22.95767	-0.1669319	0.4655529	0.001544331	0.001086519	0.04660802	0.03279119	0	0
22.97423	-0.1669319	0.4655529	0	0	-0.0466107	-0.03279308	0	0
22.9908	-0.1669319	0.4655529	0	0	0	0	0	0
23.00737	-0.1669319	0.4655529	0	0	0	0	0	0
23.02394	-0.1669319	0.4655529	0	0	0	0	0	0
23.0405	-0.1669319	0.4655529	0	0	0	0	0	0
23.05707	-0.1669319	0.4655529	0	0	0	0	0	0
23.07701	-0.1669319	0.4655529	0	0	0	0	0	0
23.09369	-0.1669319	0.4655529	0	0	0	0	0	0
23.1102	-0.1669319	0.4655529	0	0	0	0	0	0
23.12672	-0.1669319	0.4655529	0	0	0	0	0	0
23.15051	-0.1669319	0.4655529	0	0	0	0	0	0
23.16707	-0.1669319	0.4655529	0	0	0	0	0	0
23.18364	-0.1669319	0.4655529	0	0	0	0	0	0
23.20021	-0.1669319	0.4655529	0	0	0	0	0	0
23.21677	-0.1669319	0.4655529	0	0	0	0	0	0
23.23334	-0.1669319	0.4655529	0	0	0	0	0	0
23.24991	-0.1669319	0.4655529	0	0	0	0	0	0
23.26648	-0.1669319	0.4655529	0	0	0	0	0	0
23.28304	-0.1669063	0.4655349	0.001544331	-0.001086519	0.04660802	-0.03279119	0	0
23.29961	-0.1668552	0.4654989	0.003089562	-0.002173037	0.04663516	-0.03279119	0	0
23.31635	-0.1665225	0.4652288	0.01987714	-0.01613782	0.5040676	-0.4193098	0	0
23.33274	-0.165857	0.4647607	0.04058465	-0.02854739	0.624954	-0.3745214	0	0
23.34931	-0.1617072	0.4618446	0.250483	-0.176016	6.367366	-4.47353	0	0
23.36588	-0.1541618	0.4565193	0.4553904	-0.321398	6.183762	-4.387384	0	0
23.38245	-0.1475514	0.4518985	0.3990492	-0.2789418	-1.700382	1.281331	0	0
23.39901	-0.1452076	0.450263	0.1414714	-0.09872028	-7.774162	5.439409	0	0
23.41592	-0.1428364	0.4484661	0.1402504	-0.1062831	-0.03647481	-0.2259326	0	0
23.43215	-0.1395089	0.4457175	0.2050765	-0.1693954	1.956568	-1.904842	0	0
23.44871	-0.1434036	0.4403486	-0.2350847	-0.3240703	-13.42239	-4.716699	0	0
23.46528	-0.1439191	0.4388767	-0.03111688	-0.08884268	6.155759	7.099185	0	0
23.48185	-0.1450015	0.4324175	-0.06533142	-0.3898803	-1.032597	-9.085333	0	0
23.49848	-0.144718	0.4310006	0.01704146	-0.0851903	2.481163	9.1776	0	0
23.51499	-0.144718	0.4310006	0	0	-0.5141644	2.570308	0	0
23.53155	-0.1446922	0.4309467	0.00155692	-0.003250634	0.04708009	-0.0982967	0	0
23.54811	-0.1445376	0.4308392	0.009333621	-0.006494675	0.2347824	-0.09793919	0	0
23.56503	-0.1422176	0.4292252	0.1371809	-0.09542757	3.818869	-2.656475	0	0
23.58125	-0.1395089	0.4273426	0.1669762	-0.1160531	0.8992254	-0.6224787	0	0
23.60626	-0.1326636	0.4225927	0.2737325	-0.1899407	2.589332	-1.792117	0	0
23.62282	-0.1284209	0.4196542	0.2560874	-0.1773724	-0.4244205	0.3023094	0	0
23.63939	-0.125728	0.4177911	0.1625424	-0.1124565	-2.823192	1.959165	0	0
23.65596	-0.1236553	0.4163223	0.1251228	-0.08866581	-1.129393	0.7180451	0	0
23.67252	-0.1236813	0.4163402	-0.001564119	0.001081122	-3.823638	2.708724	0	0
23.68911	-0.1237072	0.4163223	-0.001561961	-0.00107963	6.507982E-05	-0.06516661	0	0
23.70565	-0.1236553	0.4162506	0.003133288	-0.004331469	0.1417192	-0.09815199	0	0
23.72222	-0.1236035	0.4162148	0.003128688	-0.002162244	-0.0001389554	0.06552014	0	0
23.73879	-0.123448	0.4160715	0.009386063	-0.008648976	0.1888479	-0.19577	0	0
23.75536	-0.1231888	0.4158566	0.01564389	-0.01297346	0.1888616	-0.1305133	0	0
23.77192	-0.1228	0.4155521	0.02346763	-0.01837727	0.236121	-0.1630873	0	0
23.78849	-0.1172492	0.41172	0.3350484	-0.2313097	9.403526	-6.426314	0	0
23.80506	-0.1137178	0.4092852	0.2131573	-0.1469642	-3.678681	2.545552	0	0
23.82162	-0.1108594	0.4073162	0.1725325	-0.1188497	-1.22606	0.8484992	0	0
23.83819	-0.1100795	0.4067792	0.04707377	-0.03241027	-3.786352	2.608746	0	0
23.85523	-0.1100795	0.4067792	0	0	-1.400614	0.9643219	0	0
23.87132	-0.1100795	0.4067792	0	0	0	0	0	0
23.88789	-0.1100795	0.4067792	0	0	0	0	0	0
23.90446	-0.1100535	0.4067613	0.001569247	-0.001081246	0.04736268	-0.03263396	0	0
23.92102	-0.1100795	0.4067434	-0.001569066	-0.001081122	-0.09471991	3.756064E-06	0	0
23.93759	-0.1100795	0.4067076	0	-0.002160445	0.0473545	-0.03257403	0	0
23.9543	-0.1102615	0.4065823	-0.01088953	-0.007496861	-0.3272152	-0.1603519	0	0
23.97073	-0.1114052	0.4057949	-0.06964467	-0.04795115	-1.773234	-1.220913	0	0
23.98729	-0.1178202	0.4014107	-0.387208	-0.2646266	-9.626194	-6.568013	0	0
24.00386	-0.1297149	0.3932004	-0.7179661	-0.4955748	-9.982299	-6.970029	0	0
24.02043	-0.1385023	0.3871569	-0.5304064	-0.3647878	5.660565	3.947158	0	0
24.03699	-0.1469334	0.3813475	-0.5089035	-0.3506559	0.6489574	0.4265035	0	0
24.05388	-0.1571154	0.3743066	-0.6031275	-0.4170645	-2.81693	-1.985359	0	0
24.07013	-0.163834	0.3697685	-0.4134408	-0.2792584	5.725085	4.159235	0	0
24.08669	-0.1713044	0.3647666	-0.4509151	-0.3019154	-1.141888	-0.6903887	0	0
24.10341	-0.1751345	0.3623374	-0.2291019	-0.145308	6.664031	4.705024	0	0
24.11983	-0.1765886	0.3614264	-0.08858464	-0.05549544	4.241064	2.710706	0	0
24.13644	-0.1792143	0.3600154	-0.1580475	-0.0849347	-2.103173	-0.8913521	0	0
24.15296	-0.1802587	0.3593189	-0.06321884	-0.04216152	2.861935	1.290897	0	0
24.16953	-0.1803861	0.3592295	-0.007686579	-0.005391219	1.678286	1.111265	0	0
24.1861	-0.1803861	0.3592295	0	0	0.2319814	0.1627073	0	0
24.20266	-0.1803606	0.3592117	0.001537313	-0.001077648	0.04639887	-0.03252536	0	0
24.21923	-0.1803606	0.3592117	0	0	-0.04639887	0.03252536	0	0
24.25558	-0.1803606	0.3592117	0	0	0	0	0	0
24.27214	-0.1803606	0.3592117	0	0	0	0	0	0
24.28871	-0.1803606	0.3592117	0	0	0	0	0	0
24.30528	-0.1803351	0.3591938	0.001537136	-0.001077524	0.04639085	-0.03251974	0	0
24.32184	-0.1803351	0.3591938	0	0	-0.04639085	0.03251974	0	0
24.33841	-0.1803351	0.3591938	0	0	0	0	0	0
24.35498	-0.1803351	0.3591938	0	0	0	0	0	0
24.37155	-0.1803351	0.3591938	0	0	0	0	0	0
24.38812	-0.1803351	0.3591938	0	0	0	0	0	0
24.40468	-0.1803351	0.3591938	0	0	0	0	0	0
24.42125	-0.1803351	0.3591938	0	0	0	0	0	0
24.43781	-0.1803351	0.3591938	0	0	0	0	0	0
24.45438	-0.1803351	0.3591938	0	0	0	0	0	0
24.47095	-0.1803351	0.3591938	0	0	0	0	0	0
24.48751	-0.1803097	0.359176	0.001538035	-0.001079323	0.046418	-0.03257403	0	0
24.50408	-0.1803097	0.359176	0	0	-0.046418	0.03257403	0	0
24.52065	-0.1803097	0.359176	0	0	0	0	0	0
24.53723	-0.1802842	0.3591581	0.001536075	-0.00107678	0.04634282	-0.03248608	0	0
24.55378	-0.1802842	0.3591581	0	0	-0.0463615	0.03249917	0	0
24.57035	-0.1802842	0.3591581	0	0	0	0	0	0
24.58692	-0.1802842	0.3591581	0	0	0	0	0	0
24.60377	-0.1802842	0.3591581	0	0	0	0	0	0
24.62005	-0.1802842	0.3591581	0	0	0	0	0	0
24.63662	-0.1802842	0.3591581	0	0	0	0	0	0
24.65331	-0.1802842	0.3591581	0	0	0	0	0	0
24.66975	-0.1802842	0.3591581	0	0	0	0	0	0
24.68632	-0.1802842	0.3591581	0	0	0	0	0	0
24.70289	-0.1802842	0.3591581	0	0	0	0	0	0
24.71945	-0.1802842	0.3591581	0	0	0	0	0	0
24.73602	-0.1802842	0.3591581	0	0	0	0	0	0
24.75259	-0.1802842	0.3591581	0	0	0	0	0	0
24.76916	-0.1802842	0.3591581	0	0	0	0	0	0
24.78591	-0.1802842	0.3591581	0	0	0	0	0	0
24.83995	-0.1803097	0.359176	-0.0004712205	0.0003303231	-0.006655942	0.004665781	0	0
24.85597	-0.1803097	0.359176	0	0	0.00672607	-0.00471494	0	0
24.87217	-0.1803097	0.359176	0	0	0	0	0	0
24.88874	-0.1803097	0.359176	0	0	0	0	0	0
24.9053	-0.1803097	0.359176	0	0	0	0	0	0
24.92187	-0.1803097	0.359176	0	0	0	0	0	0
24.93852	-0.1803097	0.359176	0	0	0	0	0	0
24.955	-0.1802842	0.3591581	0.001544605	-0.00108276	0.04661895	-0.03267963	0	0
24.97157	-0.1802842	0.3591581	0	0	-0.04672924	0.03275695	0	0
24.98814	-0.1802842	0.3591581	0	0	0	0	0	0
25.0047	-0.1802842	0.3591581	0	0	0	0	0	0
25.02127	-0.1802842	0.3591581	0	0	0	0	0	0
25.03809	-0.1802587	0.3591402	0.001514298	-0.001061515	0.04535954	-0.0317968	0	0
25.05441	-0.1802587	0.3591402	0	0	-0.04570159	0.03203658	0	0
25.07111	-0.1802587	0.3591402	0	0	0	0	0	0
25.08754	-0.1802587	0.3591402	0	0	0	0	0	0
25.10414	-0.1802587	0.3591402	0	0	0	0	0	0
25.12115	-0.1802587	0.3591402	0	0	0	0	0	0
25.13724	-0.1802842	0.3591581	-0.001582689	0.001109457	-0.04781243	0.03351626	0	0
25.1538	-0.1802842	0.3591581	0	0	0.04846307	-0.03397236	0	0
25.17068	-0.1802842	0.3591581	0	0	0	0	0	0
25.18694	-0.1803097	0.359176	-0.001566533	0.001098132	-0.04728079	0.03314358	0	0
25.2035	-0.1803097	0.359176	0	0	0.04772865	-0.03345753	0	0
25.22021	-0.1803097	0.359176	0	0	0	0	0	0
25.23664	-0.1803351	0.3591938	-0.001551611	0.00108885	-0.04682773	0.03286156	0	0
25.25324	-0.1803351	0.3591938	0	0	0.04698188	-0.03296974	0	0
25.26977	-0.1803351	0.3591938	0	0	0	0	0	0
25.28634	-0.1803351	0.3591938	0	0	0	0	0	0
25.30291	-0.1803351	0.3591938	0	0	0	0	0	0
25.31947	-0.1803351	0.3591938	0	0	0	0	0	0
25.33604	-0.1803097	0.359176	0.001538035	-0.001079323	0.046418	-0.03257403	0	0
25.35281	-0.1803097	0.359176	0	0	-0.04613385	0.03237463	0	0
25.36917	-0.1803097	0.359176	0	0	0	0	0	0
25.38584	-0.1802842	0.3591581	0.001528338	-0.001071357	0.04627985	-0.03244193	0	0
25.40235	-0.1802842	0.3591224	0	-0.002164322	-0.0460723	-0.03294783	0	0
25.41887	-0.1802587	0.3591045	0.001540861	-0.001080136	0.04664021	0.03281717	0	0
25.43544	-0.1802842	0.3590867	-0.001537136	-0.001077524	-0.09300657	7.890846E-05	0	0
25.45201	-0.1802587	0.3590688	0.001537136	-0.001077524	0.09278171	0	0	0
25.47429	-0.1802587	0.3590331	0	-0.00160397	-0.03957095	-0.01355246	0	0
25.49091	-0.1802587	0.3590331	0	0	0	0.04123075	0	0
25.50742	-0.1802587	0.3589973	0	-0.002164072	0	-0.06530807	0	0
25.52399	-0.1802587	0.3589973	0	0	0	0.06542481	0	0
25.54055	-0.1802587	0.3589973	0	0	0	0	0	0
25.55712	-0.1802587	0.3589973	0	0	0	0	0	0
25.57369	-0.1802587	0.3590331	0	0.002157096	0	0.06510502	0	0
25.59025	-0.1803351	0.3591581	-0.004612307	0.007546267	-0.1392077	0.1626549	0	0
25.60682	-0.1805898	0.3594796	-0.01537226	0.01940443	-0.324736	0.3578801	0	0
25.62339	-0.1809463	0.3599083	-0.021519	0.02587497	-0.1855091	0.1952813	0	0
25.70622	-0.2014661	0.4389485	-0.2477152	0.9541755	-2.275539	9.338722	0	0
25.72279	-0.2030571	0.4685605	-0.09603187	1.787384	1.525938	8.382095	0	0
25.73936	-0.2040667	0.4873923	-0.06094038	1.136693	1.059063	-19.63791	0	0
25.7561	-0.205202	0.507351	-0.06780118	1.191948	-0.2059568	1.658725	0	0
25.77262	-0.2072694	0.5351616	-0.1251931	1.684075	-1.725635	14.79705	0	0
25.78906	-0.2088062	0.5549493	-0.09345911	1.203399	0.9628887	-14.58491	0	0
25.80564	-0.2102413	0.5729203	-0.08655401	1.083853	0.2090942	-3.619972	0	0
25.8222	-0.2120277	0.5928663	-0.1079122	1.204916	-0.6445924	3.653688	0	0
25.83916	-0.2127066	0.604638	-0.04000998	0.6936924	2.025509	-15.24969	0	0
25.85533	-0.2133854	0.6112381	-0.04199023	0.4083002	-0.05976414	-8.613154	0	0
25.87219	-0.2141896	0.6252667	-0.04769602	0.8320171	-0.172768	12.8299	0	0
25.88846	-0.2137373	0.6308447	0.02779609	0.3427611	2.278357	-14.76578	0	0
25.90503	-0.2109711	0.6416954	0.166965	0.6549548	4.237692	9.506297	0	0
25.92173	-0.207849	0.6493057	0.18701	0.4558401	0.6026354	-5.986205	0	0
25.93824	-0.2054542	0.656768	0.1449982	0.4518312	-1.265007	-0.1207124	0	0
25.95475	-0.2046218	0.6592856	0.05043007	0.1525234	-2.863797	-9.06391	0	0
25.98786	-0.2008345	0.6755891	0.1143684	0.4923234	1.288518	6.847827	0	0
26.00443	-0.203562	0.682884	-0.1646318	0.4403206	-5.615651	-1.046699	0	0
26.021	-0.2045966	0.6837066	-0.06245053	0.04965246	3.083838	-11.79039	0	0
26.03757	-0.2070678	0.6856208	-0.1491624	0.1155415	-2.616971	1.988536	0	0
26.05413	-0.2092091	0.6874791	-0.1292507	0.1121669	0.6009365	-0.1018481	0	0
26.07083	-0.2094357	0.6883801	-0.01357082	0.05395488	3.477415	-1.74989	0	0
26.08727	-0.2080505	0.6895883	0.08429085	0.07352237	2.953641	0.590582	0	0
26.10386	-0.2038648	0.6943126	0.2523012	0.2847673	5.087547	6.396742	0	0
26.1204	-0.2058577	0.6987197	-0.1204588	0.266378	-11.24992	-0.5549924	0	0
26.13697	-0.2063116	0.7006084	-0.02739412	0.1140053	2.810638	-4.601795	0	0
26.1701	-0.2103923	0.7070969	-0.1231571	0.1958234	-1.926754	1.646183	0	0
26.18999	-0.2103923	0.7070969	0	0	2.322904	-3.693487	0	0
26.20655	-0.2103923	0.7070969	0	0	0	0	0	0
26.22312	-0.2103672	0.7070776	0.001519147	-0.001169267	0.04584795	-0.03528854	0	0
26.23969	-0.2103672	0.7070776	0	0	-0.04584795	0.03528854	0	0
26.25625	-0.210342	0.7070583	0.001519147	-0.001165669	0.04584795	-0.03517996	0	0
26.27298	-0.210342	0.7070583	0	0	-0.04562994	0.03501267	0	0
26.28949	-0.2103168	0.7070389	0.001524236	-0.001169574	0.04585899	-0.03518843	0	0
26.306	-0.2102917	0.7070196	0.001524236	-0.001173184	0	-0.0001093091	0	0
26.32252	-0.2102665	0.7070003	0.001523708	-0.001169169	-1.59875E-05	0.0001215557	0	0
26.33909	-0.2102665	0.7070003	0	0	-0.04605453	0.03533847	0	0
26.35566	-0.2102665	0.7070003	0	0	0	0	0	0
26.37222	-0.2102665	0.7070003	0	0	0	0	0	0
26.38879	-0.2102665	0.7070003	0	0	0	0	0	0
26.43849	-0.2102665	0.7070003	0	0	0	0	0	0
26.45511	-0.2102665	0.7070003	0	0	0	0	0	0
26.47162	-0.2102665	0.7070003	0	0	0	0	0	0
26.48819	-0.2102665	0.7070003	0	0	0	0	0	0
26.50476	-0.2102665	0.7070003	0	0	0	0	0	0
26.52132	-0.2102413	0.7069809	0.001519147	-0.001169267	0.04584795	-0.03528854	0	0
26.53789	-0.2102161	0.7069616	0.001519147	-0.001165669	0	0.0001085788	0	0
26.58771	-0.2100651	0.7068068	0.00303173	-0.003106214	0.02278622	-0.02923325	0	0
26.60422	-0.2100399	0.7067875	0.001525139	-0.001169574	-0.02271489	0.02919875	0	0
26.62073	-0.2099393	0.7067102	0.006099256	-0.004686597	0.1385256	-0.1065119	0	0
26.63729	-0.2096372	0.7064781	0.01823636	-0.01400763	0.3669746	-0.2818284	0	0
26.65386	-0.209335	0.7062461	0.01823696	-0.01400602	1.804597E-05	4.865666E-05	0	0
26.67043	-0.2084284	0.7055503	0.05472438	-0.04200006	1.101192	-0.8448619	0	0
26.68727	-0.207093	0.7044876	0.07925345	-0.06306953	0.7340353	-0.6305063	0	0
26.70356	-0.2064881	0.7039081	0.03715261	-0.03558774	-1.270679	0.82945	0	0
26.72013	-0.2065385	0.7038695	-0.003042792	-0.002331338	-1.223595	1.012363	0	0
26.73669	-0.2065889	0.7037923	-0.003043691	-0.004659078	-2.714469E-05	-0.07025132	0	0
26.75326	-0.2067401	0.7031744	-0.009129274	-0.03729421	-0.1836633	-0.9849302	0	0
26.76983	-0.2066393	0.7018621	0.006086483	-0.07921152	0.4592125	-1.265067	0	0
26.78639	-0.1989892	0.6932555	0.4617623	-0.5194961	13.75232	-13.28782	0	0
26.80296	-0.1942306	0.6896459	0.2872277	-0.2178757	-5.267465	9.102921	0	0
26.81953	-0.1873301	0.6842424	0.4165144	-0.326157	3.901881	-3.267936	0	0
26.8361	-0.1812519	0.6757416	0.3668835	-0.5131066	-1.497863	-5.642148	0	0
26.85266	-0.1821938	0.6663218	-0.05685154	-0.5685838	-12.78835	-1.674305	0	0
26.86923	-0.1847632	0.6524769	-0.1550906	-0.8356767	-2.964862	-8.060879	0	0
26.88592	-0.185653	0.6423915	-0.05330478	-0.6041655	3.060277	6.960577	0	0
26.90644	-0.1854242	0.62265	0.01115324	-0.9623663	1.732433	-9.627334	0	0
26.923	-0.18517	0.6132861	0.01534438	-0.5652055	0.1130271	10.7107	0	0
26.93957	-0.18428	0.5943285	0.05371971	-1.14428	1.15817	-17.47651	0	0
26.95614	-0.1841274	0.580804	0.009210223	-0.8163424	-1.343299	9.897185	0	0
26.97271	-0.1829827	0.5642272	0.06909826	-1.000576	1.807425	-5.560171	0	0
26.98927	-0.18283	0.5561949	0.009214721	-0.4848319	-1.807289	15.56518	0	0
27.00584	-0.182092	0.5403419	0.04454816	-0.9568918	1.066365	-14.2468	0	0
27.02241	-0.181201	0.5241457	0.05378087	-0.977604	0.2786438	-0.6250954	0	0
27.03897	-0.1806662	0.5115582	0.03227626	-0.7597823	-0.6490104	6.573874	0	0
27.05554	-0.1802333	0.4941522	0.02613311	-1.050629	-0.1854006	-8.77778	0	0
27.07211	-0.1800804	0.489958	0.009224614	-0.2531588	-0.5102994	24.06771	0	0
27.15494	-0.1761805	0.4315565	0.0470808	-0.7050405	0.3808413	-4.546026	0	0
27.17151	-0.1759254	0.4211592	0.01539744	-0.6275832	-0.3187413	0.7792364	0	0
27.18808	-0.1765886	0.4066181	-0.0400294	-0.8777019	-1.672785	-7.548596	0	0
27.20465	-0.1768181	0.3993712	-0.01384763	-0.4372249	0.7899852	13.29056	0	0
27.22121	-0.17794	0.3861737	-0.06775393	-0.7970622	-1.626989	-10.86054	0	0
27.23778	-0.1790359	0.3744675	-0.06614901	-0.7065879	0.04845059	2.731308	0	0
27.25434	-0.1799531	0.3659635	-0.05536118	-0.5133027	0.3255775	5.833358	0	0
27.27091	-0.1804879	0.3603369	-0.03228435	-0.3396198	0.6964599	5.24176	0	0
27.28748	-0.1822192	0.348657	-0.1044992	-0.7049994	-2.179447	-11.02718	0	0
27.30405	-0.1831099	0.3450319	-0.05376108	-0.2188112	1.531278	14.67319	0	0
27.32074	-0.1873301	0.3408176	-0.2528425	-0.2524872	-5.985893	-1.012557	0	0
27.33718	-0.1897931	0.3376926	-0.1497841	-0.1900465	3.110309	1.884465	0	0
27.35375	-0.189387	0.3346926	0.02451143	-0.1810816	5.280006	0.2715759	0	0
27.37032	-0.1868982	0.3332997	0.1502202	-0.08407567	3.793898	2.927645	0	0
27.43658	-0.1866696	0.333139	0.003450785	-0.002425399	-1.771845	0.9857067	0	0
27.45315	-0.1866696	0.333139	0	0	-0.04165892	0.02928014	0	0
27.46984	-0.1866696	0.333139	0	0	0	0	0	0
27.48628	-0.1866696	0.333139	0	0	0	0	0	0
27.50287	-0.1866696	0.333139	0	0	0	0	0	0
27.51942	-0.186695	0.3331569	-0.001535483	0.001080692	-0.04634096	0.03261534	0	0
27.53598	-0.1866696	0.3331747	0.001533538	0.001077524	0.09268191	-9.565725E-05	0	0
27.55255	-0.1866187	0.3332818	0.003067976	0.006466944	0.04630942	0.162653	0	0
27.56912	-0.1865933	0.3333354	0.001533538	0.003234371	-0.04630942	-0.09755923	0	0
27.58569	-0.1866187	0.3336033	-0.001533538	0.01616826	-0.09256455	0.3903455	0	0
27.60588	-0.1865933	0.3336211	0.001257939	0.0008838772	0.07592933	-0.4157415	0	0
27.62246	-0.1865933	0.3336211	0	0	-0.03420936	-0.02403684	0	0
27.63902	-0.1865933	0.3336211	0	0	0	0	0	0
27.65558	-0.1865679	0.333639	0.001533538	0.001077524	0.04629293	0.03252723	0	0
27.73008	-0.1869745	0.3348176	-0.005457168	0.01582103	-0.07676819	0.1619052	0	0
27.74665	-0.1880413	0.335889	-0.06439511	0.06467124	-0.6472248	0.5364468	0	0
27.76321	-0.1905797	0.3388176	-0.153218	0.1767697	-2.68068	3.383139	0	0
27.77978	-0.1949146	0.3447998	-0.2616531	0.3610839	-3.272578	5.562613	0	0
27.79635	-0.1979775	0.3512107	-0.1848772	0.3869661	2.3171	0.7811259	0	0
27.81291	-0.1981799	0.3623552	-0.01221665	0.6727619	5.211207	8.625831	0	0
27.82948	-0.1977245	0.3704295	0.02748586	0.4873665	1.198293	-5.595566	0	0
27.84612	-0.1967629	0.3775409	0.05780945	0.4275205	0.9133278	-1.802526	0	0
27.86263	-0.1959022	0.3837247	0.05212545	0.3745055	-0.1714844	-1.599444	0	0
27.87918	-0.1951932	0.3905539	0.04283148	0.4125439	-0.281075	1.150387	0	0
27.89575	-0.1949652	0.3949352	0.01376025	0.2644844	-0.8777755	-4.470505	0	0
27.91267	-0.1975727	0.3993891	-0.1540864	0.2632017	-5.012245	-0.0383047	0	0
27.92888	-0.1967882	0.4036652	0.04839356	0.2637884	6.111209	0.01770821	0	0
27.94545	-0.1968135	0.4090883	-0.001528142	0.3273353	-1.523035	1.938719	0	0
27.96201	-0.1964845	0.4106816	0.01986134	0.09617128	0.6455359	-6.976543	0	0
27.97858	-0.1946866	0.4134926	0.1085187	0.1696768	2.675685	2.2184	0	0
27.99515	-0.1946106	0.4134748	0.004587123	-0.001079323	-3.136662	-5.15343	0	0
28.01171	-0.1945853	0.413421	0.001529041	-0.003243366	-0.09229311	-0.06531094	0	0
28.02828	-0.1945599	0.4134031	0.001529041	-0.001081122	0	0.06525665	0	0
28.04485	-0.194484	0.4133494	0.004587123	-0.003241567	0.09229311	-0.06520236	0	0
28.06142	-0.1944333	0.4132778	0.003058082	-0.004324488	-0.04614656	-0.03268262	0	0
28.07798	-0.1943826	0.413242	0.003058082	-0.002160445	0	0.06531095	0	0
28.09455	-0.1943826	0.413242	0	0	-0.0922931	0.06520236	0	0
28.11112	-0.1943826	0.413242	0	0	0	0	0	0
28.12769	-0.1943826	0.4132062	0	-0.002162244	0	-0.06525666	0	0
28.14433	-0.194332	0.4131703	0.003044064	-0.002152332	0.09165897	0.0002984525	0	0
28.16082	-0.1942306	0.4130629	0.006146074	-0.006515688	0.09362426	-0.1316939	0	0
28.17739	-0.1942306	0.4130271	0	-0.002162244	-0.1859277	0.131698	0	0
28.19395	-0.1942053	0.4130092	0.001529041	-0.001079323	0.04614655	0.03268262	0	0
28.21052	-0.1941799	0.4129913	0.00152994	-0.001081122	2.714469E-05	-5.42929E-05	0	0
28.22709	-0.1941799	0.4129555	0	-0.002162244	-0.04617369	-0.03262833	0	0
28.24365	-0.1941293	0.4129196	0.003058082	-0.002162244	0.0922931	0	0	0
28.26022	-0.1941293	0.4128838	0	-0.002160445	-0.0922931	5.429642E-05	0	0
28.27679	-0.1940786	0.4128122	0.003058981	-0.004324488	0.09232024	-0.06531095	0	0
28.29344	-0.1940533	0.4127943	0.001521509	-0.001074006	-0.04628645	0.09785751	0	0
28.34306	-0.1939519	0.4125436	0.00204277	-0.005052568	0.007866076	-0.06003834	0	0
28.36752	-0.1938759	0.4123825	0.00310685	-0.006586448	0.01436328	-0.0207048	0	0
28.38409	-0.1937999	0.412293	0.004588393	-0.005403189	0.03610466	0.02883559	0	0
28.40066	-0.1937492	0.4121497	0.003058981	-0.008647176	-0.04615509	-0.09789811	0	0
28.41753	-0.1936732	0.4120602	0.004506056	-0.005307271	0.04327917	0.09989005	0	0
28.43404	-0.1936478	0.4119349	0.001534711	-0.007587842	-0.0890042	-0.06831264	0	0
28.45036	-0.1936732	0.4118453	-0.00155355	-0.005487199	-0.09406483	0.06398316	0	0
28.46708	-0.1936985	0.41172	-0.00151526	-0.007497861	0.001159132	-0.06086759	0	0
28.48358	-0.1936225	0.4114514	0.004606955	-0.01627333	0.1842914	-0.26416	0	0
28.50006	-0.193293	0.4110038	0.0199915	-0.0271611	0.4664546	-0.3301136	0	0
28.51662	-0.1931663	0.4106995	0.007649702	-0.01837188	-0.3734651	0.2659635	0	0
28.53362	-0.1918733	0.4083185	0.07609908	-0.1401304	2.03974	-3.628311	0	0
28.55012	-0.1929889	0.4074593	-0.06758345	-0.05205324	-4.289433	2.629414	0	0
28.56632	-0.1929889	0.4074593	0	0	2.066316	1.591491	0	0
28.58289	-0.1929889	0.4074593	0	0	0	0	0	0
28.59945	-0.1929889	0.4074593	0	0	0	0	0	0
28.61602	-0.1929889	0.4074593	0	0	0	0	0	0
28.63259	-0.1929889	0.4074593	0	0	0	0	0	0
28.64916	-0.1929889	0.4074593	0	0	0	0	0	0
28.66572	-0.1929889	0.4074593	0	0	0	0	0	0
28.68229	-0.1929889	0.4074593	0	0	0	0	0	0
28.69886	-0.1929889	0.4074593	0	0	0	0	0	0
28.72313	-0.1929889	0.4074593	0	0	0	0	0	0
28.73975	-0.1929889	0.4074593	0	0	0	0	0	0
28.75627	-0.1929889	0.4074593	0	0	0	0	0	0
28.77283	-0.1929889	0.4074593	0	0	0	0	0	0
28.7894	-0.1929889	0.4074593	0	0	0	0	0	0
28.80597	-0.1929889	0.4074593	0	0	0	0	0	0
28.82254	-0.1929889	0.4074593	0	0	0	0	0	0
28.8391	-0.1929889	0.4074593	0	0	0	0	0	0
28.85567	-0.1929889	0.4074593	0	0	0	0	0	0
28.87224	-0.1929889	0.4074593	0	0	0	0	0	0
28.88887	-0.1929889	0.4074593	0	0	0	0	0	0
28.90537	-0.1929889	0.4074593	0	0	0	0	0	0
28.92194	-0.1929635	0.4074415	0.001530117	-0.001079447	0.0462669	-0.03263979	0	0
28.93851	-0.1929635	0.4074415	0	0	-0.04618167	0.03257966	0	0
28.95507	-0.1929635	0.4074415	0	0	0	0	0	0
28.97192	-0.1929382	0.4074236	0.001504138	-0.001062889	0.04500894	-0.03180526	0	0
28.98843	-0.1929382	0.4074236	0	0	-0.04508614	0.03185982	0	0
29.00873	-0.1929382	0.4074236	0	0	0	0	0	0
29.0253	-0.1929382	0.4074236	0	0	0	0	0	0
29.12503	-0.1929128	0.4074057	0.0002541464	-0.000179292	0.002185255	-0.001541626	0	0
29.14155	-0.1929128	0.4074057	0	0	-0.002186223	0.001542309	0	0
29.15784	-0.1929128	0.4074057	0	0	0	0	0	0
29.17457	-0.1928875	0.4073878	0.001514768	-0.001070401	0.04587424	-0.03241672	0	0
29.19097	-0.1928621	0.4073699	0.001545599	-0.00109037	0.000930534	-0.0006027059	0	0
29.20753	-0.1928621	0.4073699	0	0	-0.04688378	0.03307498	0	0
29.2241	-0.1928368	0.4073162	0.00153084	-0.003241567	0.04620084	-0.09783068	0	0
29.24067	-0.1928114	0.4072983	0.00152994	-0.001081122	-2.714469E-05	0.06520236	0	0
29.25724	-0.1927861	0.4072804	0.00152994	-0.001079323	0	5.42929E-05	0	0
29.2738	-0.1927861	0.4072804	0	0	-0.04617369	0.03257403	0	0
29.29037	-0.1927861	0.4072804	0	0	0	0	0	0
29.30717	-0.1927607	0.4072625	0.001509263	-0.00106651	0.04523976	-0.03196836	0	0
29.32351	-0.1927607	0.4072625	0	0	-0.04554965	0.03218735	0	0
29.34007	-0.1927354	0.4072446	0.00152994	-0.001081122	0.04649217	-0.03285338	0	0
29.35664	-0.1926593	0.4071909	0.004590721	-0.003239768	0.09237454	-0.06514806	0	0
29.37321	-0.1925326	0.4070656	0.007651501	-0.007562457	0.09237453	-0.130459	0	0
29.38977	-0.1905036	0.4056338	0.122469	-0.08642499	3.465199	-2.380076	0	0
29.40634	-0.1863646	0.4027169	0.2498282	-0.1760646	3.843709	-2.705328	0	0
29.42291	-0.1812773	0.3991386	0.3071055	-0.2160082	1.72873	-1.205571	0	0
29.43976	-0.1787811	0.3973856	0.1481165	-0.1040187	-4.75749	3.351107	0	0
29.45604	-0.1789849	0.3975287	-0.01252142	0.008789978	-4.848063	3.404573	0	0
29.47279	-0.178934	0.3974929	0.003043484	-0.002137558	0.471296	-0.3308794	0	0
29.4893	-0.178934	0.3974929	0	0	-0.09152064	0.06427853	0	0
29.50574	-0.178934	0.3974929	0	0	0	0	0	0
29.52231	-0.178934	0.3974929	0	0	0	0	0	0
29.53887	-0.1789085	0.397475	0.001538035	-0.001079323	0.046418	-0.03257403	0	0
29.55544	-0.1789085	0.397475	0	0	-0.046418	0.03257403	0	0
29.57201	-0.1789085	0.397475	0	0	0	0	0	0
29.58858	-0.178934	0.3974929	-0.001538035	0.001079323	-0.046418	0.03257403	0	0
29.60514	-0.1789085	0.3975108	0.001538035	0.001081122	0.092836	5.42929E-05	0	0
29.62171	-0.1789085	0.3975108	0	0	-0.046418	-0.03262833	0	0
29.63828	-0.178934	0.3975287	-0.001538035	0.001079323	-0.046418	0.03257403	0	0
29.65484	-0.178934	0.3975287	0	0	0.046418	-0.03257403	0	0
29.67141	-0.178934	0.3975287	0	0	0	0	0	0
29.69249	-0.1789595	0.3975466	-0.001208774	0.0008482627	-0.03210791	0.02253187	0	0
29.70906	-0.1789595	0.3975466	0	0	0.03210791	-0.02253187	0	0
29.72563	-0.1789595	0.3975466	0	0	0	0	0	0
29.74219	-0.1789849	0.3975644	-0.001538035	0.001079323	-0.046418	0.03257403	0	0
29.75899	-0.1789849	0.3975644	0	0	0.04609692	-0.03234871	0	0
29.77533	-0.1789849	0.3975644	0	0	0	0	0	0
29.79202	-0.1789849	0.3975644	0	0	0	0	0	0
29.87473	-0.1789849	0.3975644	0	0	0	0	0	0
29.89129	-0.1789849	0.3975644	0	0	0	0	0	0
29.9081	-0.1789595	0.3975466	0.001516388	-0.001064132	0.04544032	-0.03188794	0	0
29.92443	-0.1789595	0.3975466	0	0	-0.04576467	0.03211556	0	0
29.94112	-0.1789595	0.3975466	0	0	0	0	0	0
29.95763	-0.1789595	0.3975466	0	0	0	0	0	0
29.97415	-0.1789595	0.3975466	0	0	0	0	0	0
29.99069	-0.1789595	0.3975466	0	0	0	0	0	0
30.00726	-0.1789595	0.3975466	0	0	0	0	0	0
30.0404	-0.1789595	0.3975466	0	0	0	0	0	0
30.05721	-0.1789595	0.3975466	0	0	0	0	0	0
30.07353	-0.1789595	0.3975466	0	0	0	0	0	0
30.09023	-0.1789595	0.3975466	0	0	0	0	0	0
30.10666	-0.1789595	0.3975466	0	0	0	0	0	0
30.12323	-0.1789595	0.3975466	0	0	0	0	0	0
30.1398	-0.1789595	0.3975466	0	0	0	0	0	0
30.15636	-0.1789595	0.3975466	0	0	0	0	0	0
30.17296	-0.1789595	0.3975466	0	0	0	0	0	0
30.1895	-0.1789595	0.3975466	0	0	0	0	0	0
30.20631	-0.1789595	0.3975466	0	0	0	0	0	0
30.22263	-0.1789595	0.3975466	0	0	0	0	0	0
30.23934	-0.1789595	0.3975466	0	0	0	0	0	0
30.25576	-0.1789595	0.3975466	0	0	0	0	0	0
30.27236	-0.1789595	0.3975466	0	0	0	0	0	0
30.2889	-0.1789595	0.3975466	0	0	0	0	0	0
30.30546	-0.1789595	0.3975466	0	0	0	0	0	0
30.32203	-0.1789595	0.3975466	0	0	0	0	0	0
30.3386	-0.1789595	0.3975466	0	0	0	0	0	0
30.35517	-0.1789595	0.3975466	0	0	0	0	0	0
30.37173	-0.1789595	0.3975466	0	0	0	0	0	0
30.38844	-0.1789595	0.3975466	0	0	0	0	0	0
30.41112	-0.1789595	0.3975466	0	0	0	0	0	0
30.42768	-0.1789595	0.3975466	0	0	0	0	0	0
30.44425	-0.1789595	0.3975466	0	0	0	0	0	0
30.46082	-0.1789595	0.3975466	0	0	0	0	0	0
30.47739	-0.1789595	0.3975466	0	0	0	0	0	0
30.49402	-0.1789595	0.3975466	0	0	0	0	0	0
30.51052	-0.1789595	0.3975466	0	0	0	0	0	0
30.52709	-0.1789849	0.3975287	-0.001538035	-0.001079323	-0.04651171	-0.03263979	0	0
30.56022	-0.1789595	0.3975108	0.0007690177	-0.0005396615	0.046418	0.01085801	0	0
30.57679	-0.1789595	0.3975108	0	0	-0.01547267	0.01085801	0	0
30.59336	-0.1789595	0.3975108	0	0	0	0	0	0
30.60992	-0.178934	0.3975287	0.001538035	0.001079323	0.046418	0.03257403	0	0
30.62649	-0.178934	0.3975287	0	0	-0.046418	-0.03257403	0	0
30.64306	-0.178934	0.3975287	0	0	0	0	0	0
30.65963	-0.178934	0.3975287	0	0	0	0	0	0
30.67619	-0.178934	0.3975287	0	0	0	0	0	0
30.69276	-0.178934	0.3975287	0	0	0	0	0	0
30.70933	-0.178934	0.3975287	0	0	0	0	0	0
30.72589	-0.178934	0.3975287	0	0	0	0	0	0
30.7427	-0.178934	0.3975287	0	0	0	0	0	0
30.75903	-0.178934	0.3975287	0	0	0	0	0	0
30.7756	-0.178934	0.3975287	0	0	0	0	0	0
30.79216	-0.1789595	0.3975108	-0.001538035	-0.001079323	-0.046418	-0.03257403	0	0
30.80875	-0.1789595	0.3975108	0	0	0.04638863	0.03255342	0	0
30.8253	-0.178934	0.3974929	0.001540163	-0.001082618	0.04648489	-0.03267534	0	0
30.84186	-0.178934	0.3974929	0	0	-0.04651435	0.03269605	0	0
30.85843	-0.178934	0.3974929	0	0	0	0	0	0
30.875	-0.178934	0.3974929	0	0	0	0	0	0
30.89157	-0.178934	0.3974929	0	0	0	0	0	0
30.90833	-0.178934	0.3974929	0	0	0	0	0	0
30.94127	-0.178934	0.3974929	0	0	0	0	0	0
30.95786	-0.178934	0.3974929	0	0	0	0	0	0
30.9744	-0.178934	0.3974929	0	0	0	0	0	0
30.99096	-0.178934	0.3974929	0	0	0	0	0	0
31.00753	-0.178934	0.3974929	0	0	0	0	0	0
31.04092	-0.178934	0.3974929	0	0	0	0	0	0
31.05723	-0.1789085	0.397475	0.001561952	-0.001096107	0.03142653	-0.02205371	0	0
31.07712	-0.178934	0.3974571	-0.001281598	-0.0008993669	-0.07856031	0.005435437	0	0
31.09396	-0.178934	0.3974214	0	-0.002123683	0.03489982	-0.03333997	0	0
31.11025	-0.178934	0.3973856	0	-0.002196608	0	-0.002200885	0	0
31.12698	-0.178934	0.3973856	0	0	0	0.066512	0	0
31.14349	-0.178934	0.3973856	0	0	0	0	0	0
31.15995	-0.178934	0.3973856	0	0	0	0	0	0
31.17652	-0.178934	0.3973856	0	0	0	0	0	0
31.19308	-0.178934	0.3973856	0	0	0	0	0	0
31.20965	-0.178934	0.3973856	0	0	0	0	0	0
31.22655	-0.178934	0.3973856	0	0	0	0	0	0
31.24278	-0.178934	0.3973856	0	0	0	0	0	0
31.25935	-0.178934	0.3973856	0	0	0	0	0	0
31.27592	-0.1789595	0.3974034	-0.001538035	0.001079323	-0.046418	0.03257403	0	0
31.29249	-0.1789595	0.3974034	0	0	0.046418	-0.03257403	0	0
31.30905	-0.1789595	0.3974034	0	0	0	0	0	0
31.32562	-0.1789595	0.3974034	0	0	0	0	0	0
31.34264	-0.1789849	0.3974214	-0.001497688	0.001052761	-0.04459449	0.03134653	0	0
31.35876	-0.1790104	0.3974034	-0.001580991	-0.001111317	-0.002514388	-0.0653195	0	0
31.37566	-0.1790614	0.3974034	-0.003014299	0	-0.04340224	0.03365196	0	0
31.39217	-0.1790614	0.3974034	0	0	0.09020325	0	0	0
31.42502	-0.1793417	0.397314	-0.008532419	-0.002722717	-0.1728667	-0.05516221	0	0
31.44171	-0.179469	0.3973319	-0.007633908	0.001073337	0.01813863	0.0766326	0	0
31.45815	-0.1797493	0.3974214	-0.01703837	0.005437855	-0.2838273	0.1317214	0	0
31.47472	-0.1801059	0.3972782	-0.0215262	-0.008638182	-0.1359359	-0.4263619	0	0
31.49129	-0.1805389	0.3970815	-0.02613491	-0.01187615	-0.1390911	-0.09772211	0	0
31.50826	-0.182601	0.3959546	-0.1215421	-0.06641898	-2.845166	-1.626537	0	0
31.52442	-0.1926086	0.389803	-0.61903	-0.3805156	-15.01508	-9.48	0	0
31.54128	-0.2060342	0.3825629	-0.7965249	-0.4295434	-5.375062	-1.484705	0	0
31.55755	-0.2141645	0.3800786	-0.4994819	-0.1526248	8.965292	8.357901	0	0
31.57412	-0.239572	0.3790242	-1.533604	-0.06364408	-31.48535	2.709148	0	0
31.59069	-0.2580619	0.3807398	-1.116052	0.1035574	12.60175	5.046152	0	0
31.60727	-0.2774931	0.3831349	-1.17206	0.1444647	-1.689759	1.234158	0	0
31.62384	-0.3036519	0.3871569	-1.578582	0.2427144	-12.2632	2.963818	0	0
31.64039	-0.3227529	0.3901606	-1.154001	0.1814682	12.8183	-1.849054	0	0
31.65696	-0.334845	0.391895	-0.729885	0.1046925	12.80575	-2.318162	0	0
31.67352	-0.3613752	0.3947384	-1.601363	0.1716285	-26.30125	2.020133	0	0
31.69009	-0.3755511	0.3947206	-0.8556585	-0.001079323	22.5054	-5.212334	0	0
31.70666	-0.3907857	0.3927712	-0.9195653	-0.1176606	-1.928709	-3.51843	0	0
31.72843	-0.3997735	0.3897136	-0.4128803	-0.1404635	13.21702	-0.5948187	0	0
31.745	-0.4070749	0.3837426	-0.4407092	-0.3604076	-0.7259231	-5.737303	0	0
31.76156	-0.4121012	0.3796854	-0.3033887	-0.244893	4.14434	3.486236	0	0
31.77813	-0.4195665	0.3736634	-0.4506048	-0.363489	-4.442989	-3.579235	0	0
31.7947	-0.4251494	0.3691075	-0.3369862	-0.2749917	3.429014	2.670854	0	0
31.81126	-0.4327231	0.3628911	-0.4571527	-0.3752266	-3.62663	-3.025096	0	0
31.82783	-0.4363822	0.3598368	-0.2208637	-0.1843556	7.131216	5.7605	0	0
31.8444	-0.4420088	0.3551396	-0.339618	-0.283522	-3.584013	-2.992848	0	0
31.86101	-0.4495925	0.3487463	-0.4564434	-0.3847955	-3.52073	-3.052047	0	0
31.87753	-0.4547665	0.3443712	-0.3132379	-0.2648744	4.322197	3.619432	0	0
31.8941	-0.4601468	0.339764	-0.3247539	-0.2780894	-0.3480738	-0.3994257	0	0
31.91067	-0.4629737	0.3372997	-0.1706338	-0.1487451	4.651355	3.903618	0	0
31.92756	-0.4631633	0.3370319	-0.01122347	-0.01585434	4.764118	3.971557	0	0
31.97693	-0.4631001	0.3369783	0.001279649	-0.001085287	0.1886778	0.2228718	0	0
31.9935	-0.4630369	0.3369247	0.003815407	-0.003234371	0.03845503	-0.03259108	0	0
32.01012	-0.4628894	0.3367997	0.008872217	-0.007520226	0.1523693	-0.1291392	0	0
32.02663	-0.4628262	0.3367462	0.003827746	-0.003243027	-0.1522425	0.1290861	0	0
32.0432	-0.4627841	0.3367105	0.002543605	-0.002156847	-0.03881803	0.03283389	0	0
32.05977	-0.4627209	0.3366569	0.003815407	-0.003232572	0.03838307	-0.03246545	0	0
32.07634	-0.4626998	0.3366033	0.001271802	-0.003234371	-0.07676613	-5.428939E-05	0	0
32.0929	-0.4626787	0.3365497	0.001271802	-0.003234371	0	0	0	0
32.10947	-0.4627841	0.336389	-0.006359011	-0.009699516	-0.2302984	-0.1951184	0	0
32.12604	-0.4643842	0.3349247	-0.09658142	-0.08838576	-2.722918	-2.374756	0	0
32.14272	-0.4666746	0.3329068	-0.1373335	-0.1209919	-1.225806	-0.9807805	0	0
32.15923	-0.4672831	0.3323533	-0.03685486	-0.03352985	3.02757	2.635362	0	0
32.17574	-0.4672831	0.3323533	0	0	1.116008	1.015323	0	0
32.1923	-0.4672831	0.3323533	0	0	0	0	0	0
32.20887	-0.4672831	0.3323533	0	0	0	0	0	0
32.22578	-0.4672831	0.3323533	0	0	0	0	0	0
32.242	-0.4672831	0.3323533	0	0	0	0	0	0
32.25857	-0.4672831	0.3323533	0	0	0	0	0	0
32.27514	-0.4672621	0.3323354	0.001266406	-0.001079323	0.0382202	-0.03257403	0	0
32.29171	-0.4672621	0.3323354	0	0	-0.0382202	0.03257403	0	0
32.30827	-0.4672621	0.3323354	0	0	0	0	0	0
32.32905	-0.4672202	0.3322997	0.002018397	-0.001718578	0.05405154	-0.04602256	0	0
32.34562	-0.4671782	0.332264	0.002532811	-0.002155048	0.01377575	-0.01168844	0	0
32.36237	-0.4669264	0.3320497	0.0150239	-0.01278846	0.3748242	-0.3190801	0	0
32.37875	-0.4667585	0.3319068	0.01025345	-0.008726264	-0.1439891	0.1226113	0	0
32.39531	-0.4665067	0.3316925	0.01520406	-0.01293389	0.1502922	-0.1277363	0	0
32.41191	-0.4661497	0.3313889	0.02150862	-0.01829562	0.1901187	-0.161687	0	0
32.42845	-0.4652884	0.3306568	0.05207673	-0.04426423	0.9225473	-0.7837342	0	0
32.44501	-0.4637739	0.329371	0.09141327	-0.07761052	1.188137	-1.007205	0	0
32.46158	-0.463795	0.3293889	-0.001271802	0.001079323	-2.797241	2.374864	0	0
32.47816	-0.463795	0.3293889	0	0	0.03836982	-0.03256278	0	0
32.49471	-0.4637739	0.329371	0.001272975	-0.001080318	0.03842288	-0.03260782	0	0
32.51148	-0.4637739	0.329371	0	0	-0.03820731	0.03242488	0	0
32.52785	-0.4637739	0.329371	0	0	0	0	0	0
32.54441	-0.4637739	0.329371	0	0	0	0	0	0
32.56101	-0.4637739	0.329371	0	0	0	0	0	0
32.57755	-0.4637739	0.329371	0	0	0	0	0	0
32.59412	-0.4637739	0.329371	0	0	0	0	0	0
32.61068	-0.4637739	0.329371	0	0	0	0	0	0
32.62725	-0.463795	0.3293889	-0.001271802	0.001079323	-0.03838307	0.03257403	0	0
32.64382	-0.463795	0.3293889	0	0	0.03838307	-0.03257403	0	0
32.66059	-0.463795	0.3293889	0	0	0	0	0	0
32.67695	-0.463795	0.3293889	0	0	0	0	0	0
32.69361	-0.4637108	0.3294246	0.005055673	0.002143205	0.1530917	0.06489872	0	0
32.71012	-0.4636897	0.3294424	0.001274111	0.001081009	-0.1139965	-0.03202027	0	0
32.72665	-0.4635634	0.3294781	0.007643016	0.002161825	0.1927465	0.03270947	0	0
32.74322	-0.4628052	0.329121	0.04576689	-0.02155948	1.151907	-0.7167355	0	0
32.75979	-0.4607804	0.3276209	0.1222171	-0.09054621	2.307273	-2.082024	0	0
32.77636	-0.4535764	0.3219059	0.4348287	-0.3449534	9.434634	-7.678025	0	0
32.79292	-0.4445214	0.3152258	0.5465656	-0.4032117	3.372227	-1.758238	0	0
32.87576	-0.3818668	0.3066151	0.7563676	-0.1039489	2.110613	3.01059	0	0
32.89233	-0.3543568	0.3075978	1.660508	0.0593142	9.09567	1.64243	0	0
32.90889	-0.3429673	0.3080266	0.6874712	0.02588217	-29.36631	-1.008981	0	0
32.92546	-0.3261336	0.3090092	1.016318	0.05932426	9.92575	1.009401	0	0
32.94202	-0.298804	0.3107421	1.649616	0.104599	19.11517	1.366552	0	0
32.95859	-0.2881943	0.311814	0.640402	0.06469642	-30.45813	-1.204262	0	0
32.97532	-0.2689044	0.3148686	1.153454	0.1826546	15.41119	3.54326	0	0
32.99172	-0.2567329	0.3188339	0.7418442	0.2416843	-12.42384	1.781726	0	0
33.01179	-0.2423764	0.3256743	0.7154928	0.3409042	-0.7225038	2.720416	0	0
33.02835	-0.2320585	0.332764	0.6227856	0.4279354	-2.530734	2.375788	0	0
33.04492	-0.2178552	0.3429069	0.8573162	0.612228	7.078148	5.561963	0	0
33.06149	-0.207219	0.3504606	0.6419994	0.4559456	-6.498275	-4.716612	0	0
33.07839	-0.1970413	0.3576578	0.6022644	0.4258924	-1.187311	-0.8980154	0	0
33.09462	-0.1840002	0.3668745	0.8032502	0.5676894	6.065763	4.279442	0	0
33.11119	-0.1777361	0.3712693	0.3781067	0.2652688	-12.96067	-9.219412	0	0
33.13946	-0.1612201	0.3828489	0.5842865	0.4096533	4.598723	3.220414	0	0
33.15644	-0.149945	0.3906612	0.6637546	0.4599041	1.756056	1.110423	0	0
33.17259	-0.1465986	0.3929859	0.207238	0.1439619	-13.7777	-9.535156	0	0
33.18916	-0.1418049	0.3963481	0.2893449	0.2029487	2.509778	1.80306	0	0
33.20573	-0.1358941	0.4004088	0.3567801	0.2451017	2.035198	1.272179	0	0
33.22229	-0.1313447	0.4036652	0.2746005	0.1965591	-2.480187	-1.465017	0	0
33.23886	-0.1251322	0.4079605	0.3749856	0.2592642	3.029629	1.892443	0	0
33.25543	-0.1221779	0.4099655	0.1783258	0.1210173	-5.935206	-4.172299	0	0
33.272	-0.1193511	0.4118453	0.1706252	0.1134692	-0.2324021	-0.227801	0	0
33.28856	-0.1191954	0.4117021	0.009395507	-0.008645378	-4.865923	-3.685426	0	0
33.30513	-0.1188841	0.4114156	0.01879236	-0.01729255	0.2835977	-0.2609723	0	0
33.3217	-0.1186765	0.4112008	0.01252869	-0.01296807	-0.1890379	0.1305133	0	0
33.33858	-0.1187284	0.411165	-0.003074241	-0.00212041	-0.4664935	0.3243212	0	0
33.35509	-0.1187544	0.4111112	-0.001570982	-0.003253855	0.04501602	-0.03394172	0	0
33.3716	-0.1188841	0.4110217	-0.007857627	-0.005420734	-0.1903669	-0.06561562	0	0
33.38796	-0.118936	0.4109501	-0.003171722	-0.004377113	0.1425533	0.03174875	0	0
33.40462	-0.1189619	0.4109322	-0.001557312	-0.00107518	0.04889185	0.09999791	0	0
33.42109	-0.1191436	0.4108069	-0.01102579	-0.00760805	-0.2857922	-0.1971851	0	0
33.43766	-0.1193511	0.4106637	-0.01252734	-0.008645378	-0.04544767	-0.03139697	0	0
33.45423	-0.119377	0.4106816	-0.001565918	0.001081122	0.3308164	0.2935463	0	0
33.47079	-0.119403	0.4106637	-0.001565918	-0.001081122	0	-0.06525666	0	0
33.48768	-0.119403	0.4106637	0	0	0.04681218	0.03231949	0	0
33.57024	-0.1200256	0.410234	-0.007541037	-0.005204362	-0.07583388	-0.0523359	0	0
33.58676	-0.1208555	0.4096611	-0.05022309	-0.03466752	-0.4307709	-0.2973585	0	0
33.60333	-0.1217371	0.4090883	-0.05321557	-0.03457611	-0.090428	0.002762068	0	0
33.6199	-0.1228519	0.4083185	-0.0672859	-0.04646126	-0.4246431	-0.3586943	0	0
33.63646	-0.1231629	0.4081037	-0.01877438	-0.01296627	1.464081	1.010881	0	0
33.65303	-0.1231629	0.4081037	0	0	0.5666118	0.3913227	0	0
33.6696	-0.1231629	0.4081037	0	0	0	0	0	0
33.68616	-0.1231629	0.4081037	0	0	0	0	0	0
33.70564	-0.1231629	0.4081037	0	0	0	0	0	0
33.72235	-0.1231629	0.4081037	0	0	0	0	0	0
33.73878	-0.123137	0.4081216	0.001578012	0.001090412	0.04762451	0.03290869	0	0
33.75534	-0.123137	0.4081216	0	0	-0.04782825	-0.03304947	0	0
33.77191	-0.123137	0.4081216	0	0	0	0	0	0
33.78848	-0.123137	0.4081216	0	0	0	0	0	0
33.80505	-0.123137	0.4081216	0	0	0	0	0	0
33.82161	-0.123137	0.4081216	0	0	0	0	0	0
33.83818	-0.123137	0.4081216	0	0	0	0	0	0
33.85495	-0.1231111	0.4081037	0.001545706	-0.001068087	0.04636657	-0.03203944	0	0
33.87132	-0.1231111	0.4081037	0	0	-0.04664949	0.03223494	0	0
33.88788	-0.1231111	0.4081037	0	0	0	0	0	0
33.90445	-0.1231111	0.4081037	0	0	0	0	0	0
33.92101	-0.1231111	0.4081037	0	0	0	0	0	0
33.93758	-0.1231111	0.4081037	0	0	0	0	0	0
33.95415	-0.1231111	0.4081037	0	0	0	0	0	0
33.97103	-0.1231111	0.4081037	0	0	0	0	0	0
33.98728	-0.1231111	0.4081037	0	0	0	0	0	0
34.02057	-0.1231111	0.4081037	0	0	0	0	0	0
34.03698	-0.1231111	0.4081037	0	0	0	0	0	0
34.05359	-0.1231111	0.4081037	0	0	0	0	0	0
34.07011	-0.1231111	0.4081037	0	0	0	0	0	0
34.08668	-0.1231111	0.4081037	0	0	0	0	0	0
34.10325	-0.1231111	0.4081037	0	0	0	0	0	0
34.11982	-0.1231111	0.4081037	0	0	0	0	0	0
34.13638	-0.1231111	0.4081037	0	0	0	0	0	0
34.15316	-0.123137	0.4080859	-0.001544651	-0.001065583	-0.04631905	-0.03195335	0	0
34.16952	-0.123137	0.4080859	0	0	0.04661767	0.03215936	0	0
34.18619	-0.123137	0.4080859	0	0	0	0	0	0
34.2027	-0.123137	0.4080859	0	0	0	0	0	0
34.21922	-0.123137	0.4080859	0	0	0	0	0	0
34.23579	-0.1231629	0.4080679	-0.001564569	-0.001081122	-0.0472841	-0.03267347	0	0
34.25274	-0.1231888	0.40805	-0.001528915	-0.001056789	0.001063787	0.0007260203	0	0
34.26892	-0.1232148	0.4080321	-0.001601443	-0.001104761	-0.002188897	-0.0014478	0	0
34.30228	-0.1232666	0.4080321	-0.001553967	0	0.0009582971	0.02229972	0	0
34.31862	-0.1232666	0.4080321	0	0	0.03126828	0	0	0
34.33529	-0.1232925	0.40805	-0.001554546	0.001072409	-0.04708434	0.03248129	0	0
34.35529	-0.1232925	0.40805	0	0	0.04239648	-0.02924736	0	0
34.37185	-0.1232666	0.4080321	0.001564569	-0.001079323	0.04279448	-0.02952192	0	0
34.38842	-0.1232666	0.4080321	0	0	-0.04721878	0.03257403	0	0
34.40499	-0.1232666	0.4080321	0	0	0	0	0	0
34.42185	-0.1232666	0.4080321	0	0	0	0	0	0
34.43812	-0.1232666	0.4080321	0	0	0	0	0	0
34.45469	-0.1232666	0.4080321	0	0	0	0	0	0
34.47126	-0.1232666	0.4080321	0	0	0	0	0	0
34.48782	-0.1232666	0.4080321	0	0	0	0	0	0
34.50441	-0.1232666	0.4080321	0	0	0	0	0	0
34.52607	-0.1232666	0.4080321	0	0	0	0	0	0
34.54263	-0.1232666	0.4080321	0	0	0	0	0	0
34.55945	-0.1232666	0.4080321	0	0	0	0	0	0
34.57576	-0.1232666	0.4080321	0	0	0	0	0	0
34.59233	-0.1232666	0.4080321	0	0	0	0	0	0
34.6089	-0.1232666	0.4080321	0	0	0	0	0	0
34.62547	-0.1232666	0.4080321	0	0	0	0	0	0
34.64203	-0.1232666	0.4080321	0	0	0	0	0	0
34.6586	-0.1232666	0.4080321	0	0	0	0	0	0
34.67517	-0.1232666	0.4080321	0	0	0	0	0	0
34.69173	-0.1232666	0.4080321	0	0	0	0	0	0
34.70856	-0.1232666	0.4080321	0	0	0	0	0	0
34.72487	-0.1232666	0.4080321	0	0	0	0	0	0
34.74144	-0.1232925	0.4080142	-0.001564569	-0.001081122	-0.04759135	-0.03288578	0	0
34.758	-0.1233184	0.4079964	-0.001564569	-0.001079323	0	5.42929E-05	0	0
34.77457	-0.1233184	0.4079964	0	0	0.04721878	0.03257403	0	0
34.79162	-0.1233443	0.4079784	-0.00151968	-0.001050405	-0.0452031	-0.03124447	0	0
34.8077	-0.1233962	0.4079427	-0.003222934	-0.002225525	-0.05140432	-0.03546517	0	0
34.82427	-0.1234221	0.4079247	-0.001564569	-0.001081122	0.05079221	0.03505063	0	0
34.84084	-0.1236553	0.4077637	-0.01407887	-0.009722902	-0.3776823	-0.2608094	0	0
34.85741	-0.1242773	0.4073341	-0.03753931	-0.02593074	-0.7080374	-0.4891534	0	0
34.87418	-0.1274113	0.4053116	-0.1868054	-0.1205466	-4.476516	-2.837546	0	0
34.89054	-0.1358941	0.3994785	-0.5185893	-0.3566038	-10.01326	-7.124221	0	0
34.90711	-0.1417018	0.3955254	-0.3505533	-0.2386113	5.103652	3.583713	0	0
34.92368	-0.1464183	0.3923599	-0.2846904	-0.1910672	1.987749	1.434886	0	0
34.94024	-0.1512826	0.3894811	-0.2936082	-0.1737656	-0.2691427	0.5221617	0	0
34.95724	-0.1526711	0.3888732	-0.08166578	-0.03575485	6.313573	4.111216	0	0
34.97847	-0.1530824	0.3891951	-0.01937402	0.01516032	1.629357	1.331781	0	0
34.99527	-0.1531338	0.3891951	-0.003060073	0	0.4289901	-0.3986546	0	0
35.01178	-0.1531081	0.3891772	0.001556904	-0.001083064	0.1386066	-0.03251474	0	0
35.0283	-0.1531081	0.3891772	0	0	-0.04714486	0.03279643	0	0
35.04481	-0.1531081	0.3891772	0	0	0	0	0	0
35.06132	-0.1531081	0.3891772	0	0	0	0	0	0
35.07788	-0.1531081	0.3891772	0	0	0	0	0	0
35.09444	-0.1531081	0.3891772	0	0	0	0	0	0
35.11101	-0.1531081	0.3891772	0	0	0	0	0	0
35.12758	-0.1531081	0.3891772	0	0	0	0	0	0
35.14415	-0.1531081	0.3891772	0	0	0	0	0	0
35.16089	-0.1531081	0.3891772	0	0	0	0	0	0
35.17728	-0.1531081	0.3891772	0	0	0	0	0	0
35.19384	-0.1531081	0.3891772	0	0	0	0	0	0
35.21041	-0.1531081	0.3891772	0	0	0	0	0	0
35.22698	-0.1531081	0.3891772	0	0	0	0	0	0
35.24355	-0.1531081	0.3891772	0	0	0	0	0	0
35.26011	-0.1530824	0.3891951	0.001551527	0.001079323	0.04682517	0.03257403	0	0
35.27668	-0.1531081	0.3891772	-0.001551527	-0.001079323	-0.09365035	-0.06514806	0	0
35.29325	-0.1530824	0.3891593	0.001551527	-0.001079323	0.09365035	0	0	0
35.30981	-0.1530824	0.3891593	0	0	-0.04682517	0.03257403	0	0
35.40921	-0.1530053	0.3891056	0.0007757932	-0.0005396822	0.006689787	-0.004653765	0	0
35.42578	-0.1530053	0.3891056	0	0	-0.006689787	0.004653765	0	0
35.44235	-0.1530053	0.3891056	0	0	0	0	0	0
35.45911	-0.1530053	0.3891056	0	0	0	0	0	0
35.47562	-0.1530053	0.3891056	0	0	0	0	0	0
35.49213	-0.1530053	0.3891056	0	0	0	0	0	0
35.50864	-0.1529796	0.3890878	0.001556545	-0.001082814	0.04713397	-0.03278885	0	0
35.52518	-0.1529796	0.3890878	0	0	-0.04709046	0.03275858	0	0
35.54175	-0.1530053	0.3891056	-0.001551527	0.001079323	-0.04686294	0.03260031	0	0
35.55832	-0.1530053	0.3891056	0	0	0.04682517	-0.03257403	0	0
35.57519	-0.1530053	0.3891056	0	0	0	0	0	0
35.59145	-0.1530053	0.3891056	0	0	0	0	0	0
35.60802	-0.1530053	0.3891056	0	0	0	0	0	0
35.62473	-0.1530053	0.3891056	0	0	0	0	0	0
35.64116	-0.1530053	0.3891056	0	0	0	0	0	0
35.65772	-0.1530053	0.3891056	0	0	0	0	0	0
35.67796	-0.1530053	0.3891056	0	0	0	0	0	0
35.69452	-0.1530053	0.3891056	0	0	0	0	0	0
35.71109	-0.1530053	0.3891056	0	0	0	0	0	0
35.72766	-0.1530053	0.3891056	0	0	0	0	0	0
35.74422	-0.1530053	0.3891056	0	0	0	0	0	0
35.76079	-0.1529796	0.3890878	0.001551527	-0.001079323	0.04682517	-0.03257403	0	0
35.77736	-0.1529796	0.3890878	0	0	-0.04682517	0.03257403	0	0
35.79393	-0.1529538	0.3890699	0.001551527	-0.001079323	0.04682517	-0.03257403	0	0
35.81049	-0.1529538	0.3890699	0	0	-0.04682517	0.03257403	0	0
35.82706	-0.1529538	0.3890699	0	0	0	0	0	0
35.84363	-0.1529538	0.3890699	0	0	0	0	0	0
35.8602	-0.1529538	0.3890699	0	0	0	0	0	0
35.87676	-0.1529281	0.389052	0.001551527	-0.001077524	0.04683056	-0.03252349	0	0
35.89343	-0.1529281	0.389052	0	0	-0.04668543	0.03242269	0	0
35.90994	-0.1529281	0.389052	0	0	0	0	0	0
35.92646	-0.1529281	0.389052	0	0	0	0	0	0
35.94303	-0.1529281	0.389052	0	0	0	0	0	0
35.9596	-0.1529538	0.3890699	-0.001551527	0.001077524	-0.04682517	0.03251974	0	0
35.97649	-0.1529538	0.3890699	0	0	0.04637668	-0.03220827	0	0
35.993	-0.1529281	0.389052	0.001556545	-0.001081009	0.04660105	-0.03236409	0	0
36.00951	-0.1529281	0.389052	0	0	-0.04713397	0.0327342	0	0
36.02586	-0.1529538	0.3890699	-0.001571794	0.0010916	-0.04782779	0.03321605	0	0
36.04253	-0.1529538	0.3890699	0	0	0.04759575	-0.0330549	0	0
36.059	-0.1529538	0.3890699	0	0	0	0	0	0
36.07557	-0.1529538	0.3890699	0	0	0	0	0	0
36.09213	-0.1529538	0.3890699	0	0	0	0	0	0
36.1087	-0.1529538	0.3890699	0	0	0	0	0	0
