Time	Pos X	Pos Y	Vel X	Vel Y	Acc X	Acc YForce X	Force Y
0.01626475	-0.1720198	0.3807041	0.002639643	-0.005841903	-4.05158E-05	8.966718E-05	0	0
0.05706951	-0.1720198	0.3806684	0	-0.0008757061	4.053069E-05	-7.625401E-05	0	0
0.0736394	-0.1720198	0.3806326	0	-0.0021583	0	-0.0223547	0	0
0.09020376	-0.1719942	0.3806148	0.0015419	-0.001077711	0.04653493	0.03261244	0	0
0.1067981	-0.1719687	0.3805611	0.00154001	-0.003232674	-5.699514E-05	-0.06498934	0	0
0.1233672	-0.1718665	0.3804896	0.006166736	-0.004313208	0.1395127	-0.03258204	0	0
0.1399332	-0.1717388	0.3804003	0.007710564	-0.005395236	0.04659203	-0.0326551	0	0
0.1566085	-0.1712533	0.380025	0.02911104	-0.02250639	0.643793	-0.5147569	0	0
0.1731231	-0.1663433	0.3765938	0.2973135	-0.2077638	8.08084	-5.581736	0	0
0.1896342	-0.1609893	0.3728594	0.3242657	-0.226178	0.8160971	-0.5575719	0	0
0.2062005	-0.1544187	0.3682857	0.3966267	-0.2760805	2.187629	-1.508661	0	0
0.2227676	-0.1505881	0.365624	0.231214	-0.1606618	-4.992315	3.483448	0	0
0.2393324	-0.1496105	0.3649453	0.059019	-0.04097722	-5.197261	3.61237	0	0
0.2558999	-0.1481692	0.3639449	0.08699277	-0.06037804	0.8443055	-0.5855564	0	0
0.2724662	-0.1472166	0.3632841	0.05750224	-0.03989393	-0.890042	0.6182228	0	0
0.2892011	-0.1471136	0.3632126	0.006155504	-0.004268695	-1.541887	1.069787	0	0
0.3057122	-0.1471136	0.3632126	0	0	-0.1851503	0.1283973	0	0
0.3221653	-0.1471136	0.3632126	0	0	0	0	0	0
0.3387379	-0.1471136	0.3632126	0	0	0	0	0	0
0.3557527	-0.1471136	0.3632126	0	0	0	0	0	0
0.4052914	-0.1471136	0.3632126	0	0	0	0	0	0
0.4217946	-0.1471136	0.3632126	0	0	0	0	0	0
0.4381328	-0.1471136	0.3632126	0	0	0	0	0	0
0.4546991	-0.1471136	0.3632126	0	0	0	0	0	0
0.4712659	-0.1471136	0.3632126	0	0	0	0	0	0
0.487833	-0.1471136	0.3632126	0	0	0	0	0	0
0.5043989	-0.1471136	0.3632126	0	0	0	0	0	0
0.5209657	-0.1471136	0.3632126	0	0	0	0	0	0
0.5375328	-0.1471136	0.3632126	0	0	0	0	0	0
0.5540991	-0.1471136	0.3632126	0	0	0	0	0	0
0.6047329	-0.1470879	0.3631947	0.000508538	-0.0003531514	0.007567517	-0.00525522	0	0
0.6213009	-0.1470879	0.3631947	0	0	-0.007567335	0.005255094	0	0
0.6379482	-0.1470621	0.3631769	0.001546752	-0.001072343	0.04656755	-0.03228468	0	0
0.6544604	-0.1470621	0.3631769	0	0	-0.04664573	0.03233888	0	0
0.7207009	-0.1470621	0.3631769	0	0	0	0	0	0
0.7540306	-0.1470364	0.363159	0.0007725612	-0.0005356066	0.007758963	-0.005379188	0	0
0.7937257	-0.1470106	0.3631411	0.000648674	-0.000450468	-0.001696508	0.001165886	0	0
0.8102925	-0.1470106	0.3631411	0	0	-0.01152954	0.008006628	0	0
0.8268608	-0.1470106	0.3631411	0	0	0	0	0	0
0.8434287	-0.1470106	0.3631411	0	0	0	0	0	0
0.8601099	-0.1470106	0.3631411	0	0	0	0	0	0
0.8766214	-0.1470106	0.3631411	0	0	0	0	0	0
0.8931289	-0.1470106	0.3631411	0	0	0	0	0	0
0.9096944	-0.1470106	0.3631411	0	0	0	0	0	0
0.926262	-0.1469849	0.3631233	0.001554197	-0.001077505	0.04690771	-0.03252051	0	0
0.9428287	-0.1469849	0.3631233	0	0	-0.04690602	0.03251934	0	0
0.9593946	-0.1469849	0.3631233	0	0	0	0	0	0
0.9759614	-0.1469849	0.3631233	0	0	0	0	0	0
1.009213	-0.1469849	0.3631233	0	0	0	0	0	0
1.025662	-0.1469849	0.3631233	0	0	0	0	0	0
1.042238	-0.1469849	0.3631233	0	0	0	0	0	0
1.058795	-0.1469849	0.3631233	0	0	0	0	0	0
1.075359	-0.1470106	0.3631411	-0.001554494	0.00107771	-0.04693396	0.03253871	0	0
1.091929	-0.1470106	0.3631411	0	0	0.04691556	-0.03252595	0	0
1.108495	-0.1470879	0.3631947	-0.00466291	0.003234534	-0.1407208	0.09761422	0	0
1.125062	-0.1471651	0.3632841	-0.004663709	0.005391374	-2.410302E-05	0.06509612	0	0
1.141629	-0.1479118	0.363802	-0.04506933	0.03126709	-1.219479	0.7809532	0	0
1.158319	-0.1481692	0.3639807	-0.01542457	0.01070265	0.891371	-0.6183401	0	0
1.174762	-0.1483752	0.3641236	-0.01252338	0.008690877	0.08756061	-0.0607173	0	0
1.191328	-0.1489672	0.3645701	-0.03573562	0.02695643	-0.7032158	0.5533558	0	0
1.207895	-0.1546242	0.3685001	-0.3414569	0.237212	-9.226986	6.345731	0	0
1.224462	-0.1630398	0.3744317	-0.5079919	0.3580475	-5.026126	3.646888	0	0
1.241029	-0.1757979	0.3833494	-0.7701012	0.5382865	-7.910787	5.43984	0	0
1.257595	-0.1849157	0.3897136	-0.550369	0.3841547	6.631722	-4.651841	0	0
1.274402	-0.1904528	0.3936118	-0.3294486	0.2319365	6.619545	-4.560987	0	0
1.290729	-0.2004301	0.4006593	-0.6111177	0.4316673	-8.501037	6.028061	0	0
1.307427	-0.2069922	0.4053116	-0.39299	0.2786212	6.605113	-4.634381	0	0
1.323862	-0.214265	0.4104846	-0.4425106	0.3147499	-1.4946	1.090412	0	0
1.340429	-0.2191844	0.4139941	-0.2969438	0.2118358	4.410846	-3.118416	0	0
1.356996	-0.2250434	0.4181493	-0.3536544	0.2508131	-1.711561	1.176357	0	0
1.373562	-0.2284165	0.4205679	-0.203612	0.1459948	4.528422	-3.163514	0	0
1.390129	-0.2315351	0.4227719	-0.1882412	0.1330376	0.46391	-0.3910646	0	0
1.406996	-0.2329805	0.4237756	-0.08569747	0.05950286	3.067089	-2.199429	0	0
1.423509	-0.2330552	0.4237218	-0.004526259	-0.003257535	2.431712	-1.880164	0	0
1.444615	-0.2338772	0.4231304	-0.03894376	-0.02802081	-0.9148939	-0.6582631	0	0
1.461534	-0.2387027	0.4197258	-0.285212	-0.2012263	-6.47656	-4.555098	0	0
1.477749	-0.2489376	0.4125436	-0.6311827	-0.4429241	-10.44145	-7.294478	0	0
1.494316	-0.2563144	0.4074773	-0.445268	-0.3058086	5.671145	4.182575	0	0
1.593715	-0.299549	0.3954002	-0.4349591	-0.1215006	0.08889633	1.589324	0	0
1.610283	-0.3028369	0.3929501	-0.1984638	-0.1478899	2.039345	-0.2275602	0	0
1.626849	-0.3082222	0.3889269	-0.3250743	-0.2428545	-3.821223	-2.86612	0	0
1.643415	-0.3122312	0.3859234	-0.2419964	-0.1812976	2.507421	1.857884	0	0
1.659982	-0.3170617	0.382259	-0.2915686	-0.2211837	-1.496135	-1.203798	0	0
1.676549	-0.3205501	0.3795961	-0.2105658	-0.1607428	2.444715	1.824142	0	0
1.693193	-0.3215453	0.3786668	-0.05979222	-0.05583329	4.539886	3.15889	0	0
1.709682	-0.3221374	0.37822	-0.03590794	-0.02709498	0.7208603	0.8673615	0	0
1.726249	-0.3264169	0.3746283	-0.2583236	-0.2168027	-6.728519	-5.739038	0	0
1.742816	-0.3262517	0.3739671	0.009976829	-0.03990732	8.097556	5.338866	0	0
1.75974	-0.32611	0.3738599	0.008371546	-0.006334129	-0.04793211	1.002461	0	0
1.776252	-0.3259919	0.3737706	0.00715085	-0.005410966	-0.0365081	0.0276096	0	0
1.792516	-0.3258974	0.3736991	0.005808882	-0.004394227	-0.04094376	0.03102096	0	0
1.809082	-0.325803	0.3736277	0.005702588	-0.004313819	-0.003237694	0.002449213	0	0
1.825649	-0.3257321	0.373574	0.00427784	-0.003236264	-0.0430002	0.03252161	0	0
1.842216	-0.3257321	0.373574	0	0	-0.1291106	0.09767449	0	0
1.858809	-0.3257084	0.3735562	0.00142421	-0.00107579	0.04294921	-0.03244209	0	0
1.875349	-0.3257084	0.3735562	0	0	-0.04298413	0.03246846	0	0
1.891918	-0.3257084	0.3735562	0	0	0	0	0	0
1.908483	-0.3257084	0.3735562	0	0	0	0	0	0
1.925359	-0.3257084	0.3735562	0	0	0	0	0	0
1.941616	-0.3257084	0.3735562	0	0	0	0	0	0
1.958183	-0.3257084	0.3735562	0	0	0	0	0	0
1.97475	-0.3257084	0.3735562	0	0	0	0	0	0
1.991316	-0.3257084	0.3735562	0	0	0	0	0	0
2.007918	-0.3257084	0.3735562	0	0	0	0	0	0
2.02445	-0.3256848	0.3735383	0.001427706	-0.001081596	0.04308903	-0.03264321	0	0
2.041016	-0.3256848	0.3735383	0	0	-0.04313512	0.03267812	0	0
2.057583	-0.3256612	0.3735205	0.001426546	-0.001077555	0.04305542	-0.03252232	0	0
2.07415	-0.325614	0.3734847	0.002851294	-0.002156909	0.0430002	-0.03257591	0	0
2.090718	-0.3254722	0.3733775	0.008554695	-0.006469983	0.172124	-0.1301651	0	0
2.107487	-0.3250942	0.3730916	0.02254422	-0.01704901	0.4196321	-0.3173302	0	0
2.124002	-0.3229895	0.3715015	0.1274398	-0.09628405	3.151536	-2.380578	0	0
2.14051	-0.3218769	0.3706618	0.06740338	-0.05086622	-1.818037	1.375354	0	0
2.177202	-0.315802	0.3661242	0.1655626	-0.1236671	1.845106	-1.368444	0	0
2.193769	-0.3136606	0.3645523	0.1292561	-0.09488013	-0.6816894	0.5405036	0	0
2.210336	-0.310061	0.3621052	0.2172838	-0.1477175	2.65674	-1.594668	0	0
2.226903	-0.3088911	0.36123	0.07061189	-0.05282671	-4.426663	2.863871	0	0
2.243588	-0.3087956	0.3613729	0.005726554	0.008564825	-1.951307	1.846238	0	0
2.260034	-0.3087	0.3614443	0.005809571	0.004343587	0.002505687	-0.12741	0	0
2.276602	-0.3086762	0.3614621	0.001440834	0.001077478	-0.1323286	-0.09893016	0	0
2.293168	-0.3086523	0.36148	0.00144284	0.001079432	6.055556E-05	5.897447E-05	0	0
2.310131	-0.3086045	0.3615157	0.002816233	0.002104708	0.04096129	0.03057876	0	0
2.326301	-0.3085806	0.3615336	0.001478134	0.001105836	-0.04038508	-0.0301469	0	0
2.342868	-0.3085089	0.3615872	0.004324612	0.003234464	0.08695047	0.06502254	0	0
2.359434	-0.3084373	0.3616408	0.004326535	0.003234558	5.804423E-05	2.810858E-06	0	0
2.376001	-0.3083417	0.3617122	0.005769148	0.00431202	0.04354	0.03251928	0	0
2.425712	-0.30827	0.3617658	0.001441826	0.001077922	-0.06529073	-0.04879614	0	0
2.442269	-0.30827	0.3617658	0	0	-0.02175766	-0.01626623	0	0
2.458835	-0.30827	0.3617658	0	0	0	0	0	0
2.475402	-0.30827	0.3617301	0	-0.002156847	0	-0.06509612	0	0
2.491969	-0.30827	0.3617301	0	0	0	0.06509471	0	0
2.508536	-0.3082461	0.3617122	0.001442695	-0.001077524	0.04354125	-0.03252021	0	0
2.525102	-0.3081744	0.3616586	0.004326535	-0.003234558	0.08703698	-0.06510127	0	0
2.541794	-0.3080789	0.3615872	0.005725804	-0.004279623	0.0420726	-0.03142257	0	0
2.558305	-0.3079594	0.3614979	0.007236358	-0.005409669	0.04549465	-0.03403457	0	0
2.574817	-0.3076965	0.3613014	0.01592258	-0.01189952	0.2630364	-0.1965258	0	0
2.591368	-0.3070032	0.3607834	0.04188754	-0.03129457	0.785308	-0.5866015	0	0
2.607935	-0.3026691	0.3575507	0.2616214	-0.1951402	6.63497	-4.9474	0	0
2.624501	-0.3000534	0.355604	0.1578879	-0.1175075	-3.130817	2.343063	0	0
2.641068	-0.2974575	0.3536752	0.1566934	-0.1164245	-0.03605088	0.03268442	0	0
2.657876	-0.2967597	0.3531573	0.04151359	-0.03081293	-3.451103	2.565158	0	0
2.674201	-0.2966394	0.353068	0.007369693	-0.005469309	-1.030502	0.7648996	0	0
2.690899	-0.2965672	0.3530144	0.004324561	-0.003209064	-0.09221213	0.06844433	0	0
2.707335	-0.2965191	0.3529787	0.002928441	-0.002172305	-0.04213621	0.03129036	0	0
2.723902	-0.2964709	0.3529787	0.002905136	0	-0.0007061444	0.06582125	0	0
2.740469	-0.2964228	0.352943	0.002907144	-0.002156971	6.060783E-05	-0.06509893	0	0
2.757446	-0.2963987	0.3529609	0.001416625	0.001053252	-0.04443531	0.09570307	0	0
2.773602	-0.2962302	0.3530858	0.01043004	0.007736751	0.2720391	0.2017186	0	0
2.790169	-0.2960858	0.353193	0.008719131	0.006468743	-0.05228508	-0.03875011	0	0
2.826495	-0.295845	0.3534073	0.006628129	0.005899601	-0.03953256	-0.01076021	0	0
2.843006	-0.2957487	0.3535502	0.005833598	0.008651125	-0.0150373	0.05207534	0	0
2.859433	-0.2955078	0.3537645	0.01466117	0.01304646	0.2680055	0.1334427	0	0
2.875999	-0.2952911	0.3539967	0.01308395	0.01401582	-0.04780486	0.0293808	0	0
2.892566	-0.2948816	0.3544074	0.02471974	0.02479169	0.3511765	0.3252236	0	0
2.909132	-0.2926153	0.3563005	0.1368072	0.1142794	3.382952	2.700862	0	0
2.925699	-0.2911429	0.3577829	0.08887146	0.08947588	-1.446776	-0.7486107	0	0
2.942266	-0.2861127	0.3637128	0.3036419	0.3579493	6.48197	8.102777	0	0
2.958833	-0.2826215	0.3695005	0.2107288	0.3493517	-2.804202	-0.2594848	0	0
2.975399	-0.2807761	0.3763615	0.1113979	0.4141529	-2.997898	1.955761	0	0
2.991966	-0.2799012	0.3839035	0.05280588	0.4552333	-1.768363	1.239844	0	0
3.008533	-0.2793664	0.391591	0.03228441	0.4640493	-0.619357	0.2660752	0	0
3.107932	-0.2684152	0.4345521	0.1101735	0.4322047	0.6716537	-0.2746026	0	0
3.1245	-0.2689533	0.4368128	-0.03248176	0.1364568	-1.230133	-2.55027	0	0
3.141217	-0.2690022	0.4368488	-0.002925426	0.002148164	0.8879802	-4.035123	0	0
3.157729	-0.2690267	0.4369026	-0.001481864	0.00325974	0.043443	0.03345209	0	0
3.1742	-0.2691979	0.4371718	-0.01039314	0.01634242	-0.2701833	0.3966571	0	0
3.190766	-0.2691489	0.4378178	0.002952033	0.03899707	0.4039383	0.6857217	0	0
3.207332	-0.2679992	0.443293	0.06940367	0.3305071	2.005615	8.798234	0	0
3.2239	-0.2666528	0.4523659	0.08126763	0.5476395	0.358068	6.553306	0	0
3.257033	-0.2630985	0.4772303	0.1072732	0.7504407	0.5232472	4.080485	0	0
3.273653	-0.2602502	0.4865073	0.1713803	0.5581865	1.28851	-3.864177	0	0
3.290322	-0.2575452	0.4955448	0.1622704	0.5421529	-0.2736546	-0.4816386	0	0
3.306733	-0.2550335	0.5042703	0.1530564	0.5317068	-0.278536	-0.3157847	0	0
3.323347	-0.2530365	0.5163316	0.1201945	0.7259493	-0.9950685	5.88172	0	0
3.339866	-0.2511116	0.5248005	0.1165279	0.5126757	-0.1106628	-6.436795	0	0
3.356433	-0.2470333	0.5350887	0.2461719	0.6210136	3.918416	3.27445	0	0
3.373	-0.2431202	0.5422403	0.2362023	0.4316877	-0.3008929	-5.714031	0	0
3.389566	-0.2382057	0.5489283	0.2966582	0.4037116	1.824643	-0.8443549	0	0
3.406132	-0.229365	0.5559018	0.5336543	0.4209422	7.152969	0.5200496	0	0
3.422699	-0.2273926	0.5573492	0.1190573	0.08737012	-12.51311	-10.06766	0	0
3.439428	-0.2191844	0.5633278	0.490665	0.3573811	11.16086	8.109501	0	0
3.45594	-0.2096372	0.5703084	0.5782008	0.4227612	2.633385	1.966864	0	0
3.472399	-0.2002027	0.5771915	0.5731955	0.4181876	-0.1518074	-0.1387137	0	0
3.509478	-0.1858055	0.5876704	0.3882899	0.2826152	-3.453737	-2.532273	0	0
3.525697	-0.1769967	0.5940323	0.5431226	0.3922524	2.905077	2.057087	0	0
3.542263	-0.170001	0.5991083	0.4222685	0.3063962	-3.686188	-2.61871	0	0
3.55883	-0.1604509	0.6060313	0.5764825	0.4178948	4.654389	3.365178	0	0
3.575398	-0.1561654	0.6091357	0.2586518	0.1873687	-9.592011	-6.957191	0	0
3.591963	-0.1455167	0.6168454	0.6428447	0.4654207	11.5953	8.391869	0	0
3.608549	-0.1395347	0.6210997	0.360678	0.2565083	-8.511705	-6.301951	0	0
3.625096	-0.1346539	0.6245188	0.2949562	0.2066242	-1.983571	-1.505571	0	0
3.641663	-0.1328963	0.6256033	0.1060921	0.06546094	-5.703338	-4.262861	0	0
3.674797	-0.124355	0.6239954	0.2577851	-0.04852811	3.052143	-2.293519	0	0
3.691363	-0.1228	0.6228741	0.09386288	-0.06768465	-3.298264	-0.385447	0	0
3.707929	-0.1169377	0.6186545	0.3538697	-0.2547097	7.847472	-5.644753	0	0
3.724496	-0.1077651	0.6120013	0.5536617	-0.4015909	6.029909	-4.433011	0	0
3.741142	-0.0981051	0.6049538	0.5803476	-0.423394	0.8034913	-0.6564727	0	0
3.75763	-0.09382894	0.6015751	0.2593484	-0.2049171	-9.688123	6.593881	0	0
3.774196	-0.08988869	0.5985893	0.2378406	-0.1802305	-0.6506704	0.7468381	0	0
3.790763	-0.08842669	0.5974031	0.08825143	-0.07160281	-4.514805	3.278533	0	0
3.807329	-0.0870949	0.5964582	0.08039216	-0.05703831	-0.237207	0.4395829	0	0
3.840463	-0.08607626	0.5954765	0.03074294	-0.02962784	-0.9989731	0.5515155	0	0
3.857029	-0.08631135	0.5953099	-0.01419077	-0.01005987	-0.9040939	0.3937198	0	0
3.873735	-0.08652031	0.5951617	-0.01250821	-0.008866261	0.05056983	0.03587425	0	0
3.890165	-0.08657254	0.5951247	-0.003179373	-0.002256534	0.2815366	0.1994762	0	0
3.906729	-0.08657254	0.5951247	0	0	0.09636066	0.0683912	0	0
3.923296	-0.08659866	0.5951432	-0.001576756	0.00111893	-0.04759071	0.0337723	0	0
3.939863	-0.08662478	0.5951617	-0.001576307	0.00111893	1.357274E-05	0	0	0
3.956794	-0.08672925	0.5952358	-0.006170525	0.004372439	-0.1371508	0.09712669	0	0
3.972996	-0.08678149	0.5953099	-0.003223958	0.004572677	0.08893077	0.006043429	0	0
3.989563	-0.08691208	0.5954024	-0.00788311	0.005587617	-0.1421829	0.03097282	0	0
4.00613	-0.08701655	0.5954765	-0.006305495	0.004471995	0.04761388	-0.03367052	0	0
4.022697	-0.08756498	0.5959395	-0.03310278	0.02794647	-0.8087322	0.7084507	0	0
4.039358	-0.08866169	0.5967917	-0.06582579	0.0511484	-0.9847904	0.6982561	0	0
4.055864	-0.08915775	0.597329	-0.03005381	0.03255453	1.078561	-0.5606235	0	0
4.072397	-0.09270717	0.5999242	-0.2146887	0.156971	-5.588458	3.76579	0	0
4.088963	-0.09800084	0.6042109	-0.3195448	0.258761	-3.167936	3.075303	0	0
4.105529	-0.1042783	0.6094705	-0.3789285	0.3174904	-1.792307	1.772557	0	0
4.122096	-0.1067245	0.6115918	-0.1476601	0.1280402	6.979995	-5.717865	0	0
4.15523	-0.1048769	0.6157827	0.05576111	0.1264859	4.092922	-0.03127309	0	0
4.175582	-0.1020652	0.6179084	0.1381583	0.1044434	1.540541	-0.4121173	0	0
4.19215	-0.1021954	0.6180763	-0.007859495	0.01013455	-3.955022	-2.55444	0	0
4.208716	-0.1024037	0.6182255	-0.01257574	0.009009268	-0.1423385	-0.03396161	0	0
4.225283	-0.1030286	0.6186733	-0.03772208	0.02702703	-0.7589508	0.5438005	0	0
4.24185	-0.1058919	0.6207263	-0.1728271	0.1239207	-4.077535	2.924298	0	0
4.258417	-0.1098195	0.6238459	-0.2370792	0.1883041	-1.939163	1.943124	0	0
4.274983	-0.1111193	0.6250423	-0.07846051	0.07222166	4.787329	-3.503527	0	0
4.291549	-0.1126006	0.6265199	-0.08941717	0.0891896	-0.3306917	0.5121229	0	0
4.308116	-0.1111713	0.6275116	0.08627682	0.05986098	5.302684	-0.8851777	0	0
4.324683	-0.1098975	0.6284287	0.07688558	0.05535848	-0.2834323	-0.1358876	0	0
4.341565	-0.1062302	0.6311819	0.2172358	0.1630854	4.195925	3.220615	0	0
4.358078	-0.1062562	0.6314256	-0.00157563	0.01475642	-6.552351	-4.441741	0	0
4.374589	-0.1062562	0.6314256	0	0	0.04771191	-0.4468414	0	0
4.3911	-0.1063082	0.631463	-0.003151985	0.002267082	-0.09544989	0.06865286	0	0
4.407516	-0.1063342	0.6314818	-0.001584829	0.001143691	0.04759411	-0.0341171	0	0
4.424083	-0.1064123	0.6315005	-0.004711831	0.001129724	-0.09480558	-0.0004234616	0	0
4.44065	-0.1064643	0.631538	-0.00314083	0.002262981	0.04741357	0.03420225	0	0
4.457217	-0.1065944	0.6316317	-0.007852977	0.005655978	-0.142217	0.1024038	0	0
4.473783	-0.1066985	0.6317067	-0.006281841	0.004526092	0.04741903	-0.03410152	0	0
4.49035	-0.1071148	0.6320065	-0.02512674	0.01810129	-0.5687647	0.409718	0	0
4.506917	-0.1090655	0.6334502	-0.1177456	0.08714095	-2.795323	2.083681	0	0
4.523694	-0.1094035	0.633694	-0.02014911	0.01453117	2.926976	-2.17761	0	0
4.540208	-0.1094555	0.6337315	-0.003149001	0.002273777	0.5106467	-0.3681855	0	0
4.556617	-0.1095335	0.6337878	-0.004754112	0.003429136	-0.04875316	0.03509252	0	0
4.573184	-0.1106774	0.6346507	-0.06904853	0.05208603	-1.949781	1.47556	0	0
4.58975	-0.1169377	0.6394767	-0.3778832	0.2913069	-9.320918	7.219908	0	0
4.606317	-0.120648	0.6440854	-0.223967	0.2781971	4.645401	-0.3956699	0	0
4.622883	-0.118936	0.649551	0.1033419	0.3299118	9.878629	1.560818	0	0
4.639778	-0.1191954	0.6559736	-0.01535687	0.3801616	-3.547365	1.501739	0	0
4.656288	-0.1201034	0.6586039	-0.05499256	0.1593187	-1.186543	-6.611202	0	0
4.672584	-0.1225149	0.6604032	-0.1479837	0.1104133	-2.834585	-1.490748	0	0
4.68915	-0.1257798	0.6629813	-0.1970836	0.1556258	-1.494114	1.37582	0	0
4.705717	-0.1261165	0.6637971	-0.02032424	0.04924013	5.334838	-3.210863	0	0
4.722334	-0.1257021	0.6641386	0.02493723	0.02055237	1.363933	-0.8644922	0	0
4.73885	-0.1258057	0.6645181	-0.006272376	0.02297826	-0.9419349	0.07321568	0	0
4.755417	-0.1291974	0.6670436	-0.2047197	0.15244	-5.998475	3.913245	0	0
4.771983	-0.1325601	0.6697049	-0.202995	0.1606459	0.05205305	0.2476659	0	0
4.78855	-0.1346797	0.6716456	-0.1279394	0.1171425	2.265282	-1.312992	0	0
4.805117	-0.1355841	0.6724262	-0.05458743	0.0471174	2.213797	-2.113393	0	0
4.821684	-0.1355324	0.6724262	0.003119333	0	1.741644	-1.422047	0	0
4.838251	-0.1355324	0.6724262	0	0	-0.09414438	0	0	0
4.859772	-0.1355324	0.6724262	0	0	0	0	0	0
4.876445	-0.1355324	0.6724262	0	0	0	0	0	0
4.892959	-0.1355324	0.6724262	0	0	0	0	0	0
4.909473	-0.1355324	0.6724262	0	0	0	0	0	0
4.926041	-0.1355066	0.6724071	0.001559577	-0.001151245	0.04714343	-0.03480022	0	0
4.942606	-0.1355066	0.6724071	0	0	-0.04707016	0.03474614	0	0
4.959172	-0.1355066	0.6724071	0	0	0	0	0	0
4.976015	-0.1355066	0.6724071	0	0	0	0	0	0
4.992526	-0.1354807	0.6723881	0.001564079	-0.001151625	0.04689425	-0.03452802	0	0
5.008872	-0.1354549	0.6723691	0.001580732	-0.001163215	0.0005068332	-0.0003527488	0	0
5.025439	-0.1354549	0.6723691	0	0	-0.04802729	0.03534188	0	0
5.042005	-0.1354549	0.672331	0	-0.00229909	0	-0.06938868	0	0
5.058571	-0.1354291	0.6723119	0.001559712	-0.001151344	0.0470749	0.03464104	0	0
5.075139	-0.1354032	0.6722929	0.001559622	-0.00114768	-2.712439E-06	0.0001105811	0	0
5.091705	-0.1353774	0.6722738	0.001559712	-0.001151344	2.712439E-06	-0.0001105811	0	0
5.108272	-0.1352999	0.6722167	0.004677966	-0.003446638	0.09411181	-0.06927411	0	0
5.124838	-0.1352482	0.6721786	0.003119423	-0.00229909	-0.04703826	0.03463406	0	0
5.141405	-0.1351707	0.6720834	0.004679	-0.005745762	0.04707015	-0.1040252	0	0
5.158144	-0.1350673	0.6720073	0.00617451	-0.004547202	0.04490259	0.03598667	0	0
5.174538	-0.1347831	0.6717598	0.01733788	-0.01509555	0.3369258	-0.3183634	0	0
5.191105	-0.1346797	0.6716837	0.006238667	-0.004598049	-0.3367389	0.3184834	0	0
5.207672	-0.1346022	0.6715885	0.0046799	-0.005745762	-0.04704504	-0.03463905	0	0
5.224238	-0.1343179	0.6713411	0.01715903	-0.01493466	0.3766318	-0.2773296	0	0
5.2412	-0.1341112	0.6711888	0.01218919	-0.008974755	-0.1482261	0.1777548	0	0
5.257713	-0.1341112	0.6711888	0	0	-0.3641289	0.2681038	0	0
5.273939	-0.1341112	0.6711888	0	0	0	0	0	0
5.290505	-0.1340853	0.6711698	0.001560611	-0.001151344	0.04759177	-0.03511093	0	0
5.307072	-0.1341112	0.6711507	-0.001560566	-0.001147713	-0.09420138	0.0001095883	0	0
5.323759	-0.1341112	0.6711507	0	0	0.04692914	0.03451388	0	0
5.340271	-0.1340853	0.6711317	0.001565749	-0.001151525	0.04716277	-0.0346857	0	0
5.356772	-0.1340595	0.6711127	0.001565841	-0.001152257	2.796365E-06	-2.217344E-05	0	0
5.373339	-0.1340595	0.6710746	0	-0.002299024	-0.0473519	-0.03467888	0	0
5.390306	-0.1340337	0.6710175	0.001523683	-0.003365277	0.04543626	-0.03179566	0	0
5.406472	-0.133982	0.6709795	0.003197636	-0.002352369	0.05052144	0.03057051	0	0
5.423039	-0.1339561	0.6709224	0.001559667	-0.003446738	-0.05004108	-0.03343372	0	0
5.439606	-0.1339303	0.6708273	0.001560566	-0.005742164	2.714548E-05	-0.0692781	0	0
5.456172	-0.1335942	0.6704658	0.02028403	-0.0218222	0.5651078	-0.4853244	0	0
5.475718	-0.1303359	0.6679937	0.1666946	-0.1264667	4.054259	-2.897714	0	0
5.492286	-0.1265568	0.6649168	0.2280976	-0.185721	1.700221	-1.640724	0	0
5.508853	-0.1241218	0.6626779	0.1469824	-0.1351423	-2.448061	1.526466	0	0
5.52542	-0.1227482	0.6611423	0.08291283	-0.09269133	-1.933679	1.28121	0	0
5.541986	-0.122126	0.6600054	0.03755586	-0.06862731	-1.368935	0.7262849	0	0
5.558553	-0.1232148	0.6587175	-0.06571692	-0.07773868	-3.116913	-0.2749935	0	0
5.575119	-0.1232148	0.6581874	0	-0.03199925	1.983398	1.380458	0	0
5.591686	-0.1229037	0.6579602	0.018775	-0.01371179	0.5666552	0.5519406	0	0
5.641484	-0.1149126	0.6513062	0.1604699	-0.1336202	2.135092	-1.806808	0	0
5.657953	-0.1097415	0.6465718	0.3139857	-0.2874732	2.316608	-2.321697	0	0
5.67452	-0.107609	0.6411876	0.1287257	-0.3250065	-5.607944	-1.136157	0	0
5.691086	-0.1117951	0.6332814	-0.2526777	-0.4772328	-11.51127	-4.594398	0	0
5.707653	-0.1144191	0.6276051	-0.1583916	-0.3426302	2.845642	4.062433	0	0
5.72422	-0.115406	0.620913	-0.0595682	-0.4039519	2.982583	-1.850746	0	0
5.740787	-0.1152242	0.6144037	0.01097208	-0.3929101	2.128971	0.3332515	0	0
5.757568	-0.1147827	0.6041924	0.02630686	-0.6084773	0.4598333	-6.464063	0	0
5.774079	-0.1147308	0.5956617	0.003146209	-0.5166823	-0.6956761	2.757244	0	0
5.790486	-0.1147567	0.5863588	-0.00158298	-0.5669883	-0.1436659	-1.528222	0	0
5.807054	-0.1151723	0.5765468	-0.02508032	-0.5922533	-0.7125865	-0.7661942	0	0
5.82362	-0.1166781	0.5637867	-0.09090132	-0.7702492	-1.986539	-5.372082	0	0
5.840625	-0.1183392	0.5550959	-0.09768101	-0.5110762	-0.2019492	7.72009	0	0
5.856753	-0.1201034	0.5424412	-0.109381	-0.784613	-0.3531168	-8.255594	0	0
5.923184	-0.1266604	0.5060461	-0.09870423	-0.5478633	0.1293221	2.867622	0	0
5.939588	-0.133465	0.4971188	-0.4148226	-0.5442247	-3.816255	0.04392561	0	0
5.956209	-0.1401798	0.4924886	-0.4040033	-0.2785783	0.3276176	8.043966	0	0
5.97272	-0.1457744	0.4884582	-0.3388395	-0.2441031	1.966816	1.040554	0	0
5.989286	-0.1518483	0.4840874	-0.3666368	-0.2638301	-0.8403637	-0.5963854	0	0
6.005854	-0.1575774	0.4795212	-0.3458061	-0.2756195	0.6286805	-0.3558103	0	0
6.07853	-0.1559342	0.4489512	0.02260906	-0.4206298	4.128184	-1.624876	0	0
6.095097	-0.1522855	0.4422336	0.2202476	-0.4054863	2.214601	0.1696874	0	0
6.111665	-0.1515912	0.4365437	0.04190441	-0.3434343	-5.382408	1.872734	0	0
6.128332	-0.1505367	0.4299604	0.06326979	-0.3949911	0.6428655	-1.5513	0	0
6.144798	-0.1517712	0.4242953	-0.07497303	-0.3440468	-4.172357	1.537568	0	0
6.161366	-0.1550096	0.4166626	-0.1954521	-0.4606711	-3.647035	-3.530345	0	0
6.17793	-0.1562937	0.4128301	-0.0775281	-0.2313761	3.559159	6.920533	0	0
6.194875	-0.1604252	0.4079784	-0.2438188	-0.2863206	-4.9626	-1.639703	0	0
6.211063	-0.1645	0.4051327	-0.2517103	-0.1757931	-0.2381769	3.33587	0	0
6.22763	-0.1684925	0.4022695	-0.2409955	-0.1728244	0.327121	0.09063419	0	0
6.244411	-0.1715088	0.4001226	-0.1797505	-0.127941	1.836562	1.345925	0	0
6.264115	-0.1771242	0.3961156	-0.284979	-0.2033538	-2.884142	-2.066941	0	0
6.280937	-0.1819901	0.3925924	-0.2892658	-0.2094418	-0.1173614	-0.1666758	0	0
6.29725	-0.184636	0.390697	-0.1621947	-0.1161925	3.834957	2.814228	0	0
6.313818	-0.1849412	0.3904466	-0.01841775	-0.01511052	4.372738	3.074242	0	0
6.330384	-0.1848903	0.3905182	0.003069951	0.004317541	0.6485187	0.586357	0	0
6.346951	-0.1848649	0.3905003	0.001534438	-0.001079323	-0.04634323	-0.1628823	0	0
6.363517	-0.1848649	0.3905003	0	0	-0.04631142	0.03257544	0	0
6.380084	-0.1848649	0.3905003	0	0	0	0	0	0
6.39665	-0.1848649	0.3905003	0	0	0	0	0	0
6.413217	-0.1848649	0.3905003	0	0	0	0	0	0
6.429784	-0.1848649	0.3905003	0	0	0	0	0	0
6.446351	-0.1848649	0.3905003	0	0	0	0	0	0
6.462917	-0.1848649	0.3905003	0	0	0	0	0	0
6.479484	-0.1848649	0.3905003	0	0	0	0	0	0
6.496049	-0.1848649	0.3905003	0	0	0	0	0	0
6.512616	-0.1848903	0.3904824	-0.001534482	-0.001079354	-0.04631342	-0.03257685	0	0
6.529183	-0.1848903	0.3904824	0	0	0.04631142	0.03257544	0	0
6.54575	-0.1848649	0.3905003	0.001534526	0.001079385	0.04631342	0.03257685	0	0
6.562316	-0.1848649	0.3905003	0	0	-0.04631475	-0.03257778	0	0
6.579147	-0.1848649	0.3905003	0	0	0	0	0	0
6.595449	-0.1848649	0.3905003	0	0	0	0	0	0
6.612016	-0.1848649	0.3905003	0	0	0	0	0	0
6.628583	-0.1848649	0.3905003	0	0	0	0	0	0
6.645195	-0.1848649	0.3904645	0	-0.002152883	0	-0.06488824	0	0
6.661716	-0.1848649	0.3904645	0	0	0	0.06497602	0	0
6.678283	-0.1848395	0.3904466	0.001535381	-0.001079354	0.046402	-0.03262004	0	0
6.69485	-0.1847886	0.3904109	0.003069863	-0.002158708	0.04631209	-0.03257591	0	0
6.711416	-0.1847123	0.3903573	0.004604477	-0.003236357	0.04631676	-0.0325249	0	0
6.810816	-0.1654218	0.376844	0.1940697	-0.1359483	1.633795	-1.144401	0	0
6.827383	-0.1653194	0.3767725	0.006182001	-0.004313819	-1.620185	1.135105	0	0
6.84395	-0.1653194	0.3767725	0	0	-0.1865785	0.1301951	0	0
6.860516	-0.1653194	0.3767725	0	0	0	0	0	0
6.877083	-0.1653194	0.3767725	0	0	0	0	0	0
6.893651	-0.1653194	0.3767725	0	0	0	0	0	0
6.910381	-0.1653194	0.3767725	0	0	0	0	0	0
6.926784	-0.1653194	0.3767725	0	0	0	0	0	0
6.943407	-0.1653194	0.3767725	0	0	0	0	0	0
6.959917	-0.1653194	0.3767725	0	0	0	0	0	0
6.976483	-0.1653194	0.3767725	0	0	0	0	0	0
6.99305	-0.165345	0.3767904	-0.001545275	0.001077555	-0.04663784	0.03252162	0	0
7.012636	-0.1654474	0.3768976	-0.005229129	0.005474875	-0.101898	0.121633	0	0
7.029203	-0.1656778	0.3770584	-0.01390708	0.009706712	-0.240035	0.1170541	0	0
7.04577	-0.1661642	0.3773622	-0.02935759	0.0183377	-0.4662973	0.2604837	0	0
7.062337	-0.1666504	0.3777018	-0.02935214	0.02049514	0.0001644867	0.06511251	0	0
7.079004	-0.1688249	0.3792208	-0.1304681	0.09113846	-3.042577	2.125657	0	0
7.095513	-0.1696943	0.3798284	-0.05265737	0.03680538	2.345361	-1.637702	0	0
7.112046	-0.169771	0.3798105	-0.004639144	-0.001081596	1.45325	-1.146632	0	0
7.129036	-0.1708189	0.3805075	-0.06167823	0.04102176	-1.701487	1.255951	0	0
7.14517	-0.1756959	0.3835638	-0.3022893	0.1894433	-7.263957	4.48079	0	0
7.161736	-0.1840002	0.3887838	-0.5012683	0.3150887	-6.084972	3.842358	0	0
7.178304	-0.1921016	0.3909115	-0.4889963	0.1284287	0.3703741	-5.633491	0	0
7.19487	-0.200228	0.3898924	-0.4905392	-0.06152136	-0.04656604	-5.732868	0	0
7.211437	-0.218407	0.3850653	-1.097321	-0.291368	-18.3135	-6.937086	0	0
7.228108	-0.2337776	0.3775766	-0.9219841	-0.4492002	5.275203	-4.748556	0	0
7.24457	-0.2444337	0.3719124	-0.6473042	-0.3440704	8.290092	3.172914	0	0
7.261137	-0.2527405	0.3668388	-0.5014139	-0.3062577	4.417026	1.144831	0	0
7.277704	-0.2619695	0.3617122	-0.5570656	-0.3094383	-1.679595	-0.09599188	0	0
7.294271	-0.2667018	0.3586937	-0.2856475	-0.1822022	8.191533	3.84005	0	0
7.310837	-0.2707867	0.3557469	-0.2465854	-0.1778878	1.178962	0.1302157	0	0
7.327404	-0.2722521	0.3546753	-0.08845307	-0.0646821	4.772719	3.416752	0	0
7.344188	-0.2721788	0.3547289	0.004362695	0.003192562	2.783003	2.035164	0	0
7.360538	-0.27213	0.3547289	0.002987561	0	-0.04150221	-0.09635311	0	0
7.377211	-0.27213	0.3547289	0	0	-0.09046812	0	0	0
7.393671	-0.2721056	0.354711	0.001482879	-0.001084548	0.04475467	-0.03273265	0	0
7.410237	-0.2721056	0.354711	0	0	-0.04490006	0.03283899	0	0
7.426804	-0.2721056	0.354711	0	0	0	0	0	0
7.44337	-0.2721056	0.354711	0	0	0	0	0	0
7.459937	-0.2720812	0.3546931	0.001473318	-0.001079354	0.04446612	-0.03257591	0	0
7.476504	-0.2720568	0.3546753	0.001473318	-0.001077555	0	5.429095E-05	0	0
7.493071	-0.2720323	0.3546574	0.001475117	-0.001077555	5.429446E-05	0	0	0
7.575904	-0.2714463	0.3548717	0.007075207	0.002587227	0.05633891	0.03686902	0	0
7.625604	-0.2697847	0.3551218	0.03343271	0.005030438	0.1988749	0.01843473	0	0
7.642171	-0.2679013	0.3550325	0.1136797	-0.00538942	1.210964	-0.1572405	0	0
7.658738	-0.2637364	0.3554611	0.2514032	0.02587212	4.156562	0.9434887	0	0
7.675423	-0.2602748	0.3566934	0.2074617	0.07385617	-1.321458	1.443032	0	0
7.696401	-0.2467117	0.3614443	0.6465406	0.2264698	11.65795	4.052034	0	0
7.712969	-0.2362664	0.3634984	0.6304558	0.1239819	-0.4284059	-2.729686	0	0
7.729536	-0.2221659	0.365624	0.851111	0.1283045	6.659291	0.1304561	0	0
7.746102	-0.2104678	0.3676248	0.7061374	0.1207724	-4.375439	-0.2273264	0	0
7.763489	-0.2025016	0.3690897	0.4581851	0.08425381	-7.302871	-1.075572	0	0
7.779235	-0.197598	0.3719839	0.3114099	0.1838018	-4.429876	3.004494	0	0
7.795802	-0.1927861	0.3753787	0.2904551	0.2049172	-0.6484861	0.6534564	0	0
7.812368	-0.1916704	0.3760935	0.06734374	0.04314483	-6.733805	-4.88251	0	0
7.828935	-0.1886761	0.3777018	0.1807466	0.09708171	3.422704	1.627912	0	0
7.845502	-0.1860851	0.3763436	0.1563966	-0.08197638	-0.7349066	-5.40414	0	0
7.862069	-0.1818374	0.3736098	0.2563979	-0.1650189	3.018087	-2.506263	0	0
7.878635	-0.1765631	0.3701259	0.3183654	-0.2102978	1.870237	-1.36656	0	0
7.895586	-0.1735521	0.3680178	0.1776433	-0.1243688	-4.198543	2.563752	0	0
7.911774	-0.1732201	0.3677855	0.0205035	-0.01434647	-4.741876	3.32005	0	0
7.928335	-0.1701033	0.3656062	0.1882027	-0.1315953	5.120641	-3.580156	0	0
7.944901	-0.1690806	0.3648917	0.06173094	-0.04313043	-3.81775	2.670452	0	0
7.966561	-0.1690039	0.3648381	0.00354163	-0.002473912	-1.522239	1.063579	0	0
7.983129	-0.1690295	0.3648202	-0.001543388	-0.001079292	-0.1330197	0.03648207	0	0
8.000152	-0.1690295	0.3648202	0	0	0.0459474	0.03213105	0	0
8.016262	-0.1690295	0.3648202	0	0	0	0	0	0
8.032828	-0.1690551	0.3648024	-0.001543521	-0.001077586	-0.04723613	-0.03297721	0	0
8.049395	-0.1690551	0.3647666	0	-0.002156971	0.04658623	-0.03257779	0	0
8.066196	-0.1690551	0.3647309	0	-0.002126731	0	0.0009062628	0	0
8.082709	-0.1690039	0.3646595	0.003097026	-0.00432609	0.09296272	-0.06601766	0	0
8.099094	-0.1689272	0.3645701	0.004681771	-0.005451153	0.04817154	-0.03419856	0	0
8.115732	-0.1689272	0.3645344	0	-0.002147699	-0.1417735	0.1000353	0	0
8.132228	-0.1689528	0.3645166	-0.001550124	-0.001082196	-0.04678419	0.03215785	0	0
8.148794	-0.1689272	0.3644987	0.001543521	-0.001077586	0.09357107	0.00013944	0	0
8.16536	-0.1689272	0.364463	0	-0.002156971	-0.04658623	-0.03257779	0	0
8.182279	-0.1689272	0.3643915	0	-0.004224211	0	-0.06173728	0	0
8.198494	-0.1689272	0.3643201	0	-0.004405472	0	-0.005470639	0	0
8.215302	-0.1689272	0.3642486	0	-0.004252014	0	0.004647027	0	0
8.248194	-0.1689528	0.3641593	-0.0007773992	-0.002714555	-0.0156419	0.03093493	0	0
8.264838	-0.1691062	0.3640164	-0.009217613	-0.008585558	-0.170383	-0.1185182	0	0
8.281326	-0.1696431	0.3636056	-0.03256496	-0.0249183	-0.7046649	-0.4929515	0	0
8.297894	-0.1702055	0.3632126	-0.03394366	-0.02371676	-0.04170758	0.0363484	0	0
8.314462	-0.1715599	0.3622659	-0.08175243	-0.05714296	-1.44283	-1.008776	0	0
8.333604	-0.1715855	0.3622123	-0.001334259	-0.002799297	2.252018	1.521832	0	0
8.350172	-0.1715855	0.3622123	0	0	0.03736339	0.078389	0	0
8.366738	-0.1715855	0.3622123	0	0	0	0	0	0
8.383305	-0.1715855	0.3622123	0	0	0	0	0	0
8.399932	-0.1715855	0.3622123	0	0	0	0	0	0
8.416439	-0.1715599	0.3621945	0.001547244	-0.001081446	0.04669593	-0.03263811	0	0
8.433004	-0.1715599	0.3621945	0	0	-0.04678345	0.03269928	0	0
8.449571	-0.1715344	0.3621766	0.001542621	-0.001077586	0.04656042	-0.03252443	0	0
8.466137	-0.1715599	0.3621587	-0.001542621	-0.001079385	-0.09311817	-5.429603E-05	0	0
8.482703	-0.1715344	0.3621409	0.001542621	-0.001077586	0.09311817	5.429603E-05	0	0
8.499269	-0.1715344	0.3621409	0	0	-0.04655908	0.03252349	0	0
8.515836	-0.1715344	0.3621409	0	0	0	0	0	0
8.532402	-0.1715344	0.3621409	0	0	0	0	0	0
8.548968	-0.1715344	0.3621409	0	0	0	0	0	0
8.565545	-0.1715344	0.3621409	0	0	0	0	0	0
8.582111	-0.1715344	0.3621409	0	0	0	0	0	0
8.598669	-0.1715344	0.3621409	0	0	0	0	0	0
8.615235	-0.1715599	0.362123	-0.001542621	-0.001077586	-0.04657115	-0.03253192	0	0
8.631802	-0.1715599	0.362123	0	0	0.04655908	0.03252349	0	0
8.648368	-0.1715344	0.3621052	0.001542621	-0.001079385	0.04655908	-0.03257778	0	0
8.664934	-0.1715344	0.3620695	0	-0.002155172	-0.04655908	-0.03246919	0	0
8.681501	-0.1715088	0.3620159	0.001542532	-0.003234371	0.04655506	-0.03257123	0	0
8.698139	-0.1715344	0.361998	-0.00153599	-0.001074745	-0.09271252	0.06503912	0	0
8.714651	-0.1715088	0.3619801	0.0015477	-0.001081134	0.09302309	-0.0001927243	0	0
8.731236	-0.1715088	0.3619801	0	0	-0.04676216	0.03266535	0	0
8.747768	-0.1715088	0.3619801	0	0	0	0	0	0
8.764336	-0.1715088	0.3619801	0	0	0	0	0	0
8.780902	-0.1714833	0.3619623	0.001541722	-0.001077586	0.0465306	-0.03252255	0	0
8.797469	-0.1714577	0.3619444	0.001542532	-0.001079323	2.446466E-05	-5.241824E-05	0	0
8.814035	-0.1714577	0.3619444	0	0	-0.04655506	0.03257497	0	0
8.830602	-0.1714322	0.3619266	0.001541722	-0.001077586	0.04653194	-0.03252349	0	0
8.847245	-0.1714577	0.3619087	-0.001534566	-0.001072585	-0.09263194	0.0001506012	0	0
8.863757	-0.1714577	0.3619087	0	0	0.04628399	0.03235019	0	0
8.880302	-0.1714577	0.3619087	0	0	0	0	0	0
8.896869	-0.1714577	0.3619087	0	0	0	0	0	0
8.913435	-0.1714577	0.3619087	0	0	0	0	0	0
8.930002	-0.1714833	0.3618908	-0.001542532	-0.001079323	-0.04655506	-0.03257497	0	0
8.946568	-0.1714833	0.3618908	0	0	0.04655506	0.03257497	0	0
8.971543	-0.1716621	0.3617658	-0.007160961	-0.005005871	-0.1723826	-0.1205041	0	0
8.988347	-0.171841	0.3616408	-0.0106422	-0.007440054	-0.08332604	-0.05826392	0	0
9.004857	-0.1721475	0.3614621	-0.01856642	-0.01081981	-0.2378662	-0.1014522	0	0
9.021245	-0.1727094	0.3611407	-0.03428789	-0.01961672	-0.4778861	-0.2674001	0	0
9.037879	-0.1771242	0.3584794	-0.2654055	-0.1599892	-6.998914	-4.250886	0	0
9.054379	-0.1809463	0.3561219	-0.2316539	-0.1428837	1.018656	0.5162587	0	0
9.070953	-0.1921776	0.3525501	-0.6776099	-0.2154955	-13.48343	-2.19541	0	0
9.087511	-0.1983822	0.3530323	-0.3747255	0.02912071	9.141594	7.382958	0	0
9.104077	-0.2107195	0.3588009	-0.7447227	0.348215	-11.17007	9.633336	0	0
9.120939	-0.2163244	0.3628196	-0.3323995	0.2383332	12.33459	-3.287102	0	0
9.137211	-0.2271428	0.3705367	-0.6648675	0.4742685	-10.03419	7.120747	0	0
9.15396	-0.2296395	0.3723234	-0.1490616	0.1066678	15.62055	-11.13234	0	0
9.170344	-0.2417067	0.3808471	-0.7365132	0.5202434	-17.72983	12.4821	0	0
9.186912	-0.2466869	0.3841895	-0.3006085	0.2017453	13.22873	-9.665707	0	0
9.203495	-0.2472807	0.383975	-0.03580838	-0.01293382	7.987776	-6.475859	0	0
9.220044	-0.2491847	0.3825629	-0.1150521	-0.08532567	-2.391719	-2.184916	0	0
9.23661	-0.255945	0.377666	-0.4080715	-0.295595	-8.848433	-6.349597	0	0
9.253177	-0.261282	0.3738242	-0.3221623	-0.2319041	2.592893	1.922306	0	0
9.269743	-0.267216	0.369572	-0.3581958	-0.2566778	-1.087555	-0.7477149	0	0
9.286309	-0.2695402	0.3679106	-0.1402985	-0.1002893	6.576532	4.720087	0	0
9.303064	-0.2714218	0.3665708	-0.1123019	-0.07996329	0.8402002	0.6099984	0	0
9.319444	-0.2716416	0.3663743	-0.01342067	-0.011996	2.98424	2.051257	0	0
9.336089	-0.2716905	0.3662314	-0.002934499	-0.008585067	0.3175242	0.103284	0	0
9.3526	-0.2717149	0.3661778	-0.001478297	-0.003245394	0.04391921	0.161045	0	0
9.43541	-0.271202	0.3652311	0.006193713	-0.011433	0.07724505	-0.08243626	0	0
9.452169	-0.2708111	0.3648024	0.02332281	-0.02557934	0.1720318	-0.1420753	0	0
9.468543	-0.2708355	0.3647845	-0.001492516	-0.001090264	-0.7489494	0.7391029	0	0
9.48511	-0.2708355	0.3647488	0	-0.002156847	0.04530894	-0.03237871	0	0
9.501704	-0.2708111	0.3647309	0.001472701	-0.001077586	0.04441042	0.03254593	0	0
9.518243	-0.2708111	0.3647309	0	0	-0.04444877	0.03252349	0	0
9.53481	-0.2708111	0.3647309	0	0	0	0	0	0
9.551376	-0.2708111	0.3647309	0	0	0	0	0	0
9.567943	-0.2708111	0.3647309	0	0	0	0	0	0
9.584764	-0.2707867	0.364713	0.001452829	-0.001061274	0.04351458	-0.03178687	0	0
9.601075	-0.2707867	0.364713	0	0	-0.043849	0.03203116	0	0
9.617641	-0.2707867	0.364713	0	0	0	0	0	0
9.63695	-0.2707867	0.364713	0	0	0	0	0	0
9.653811	-0.2707867	0.364713	0	0	0	0	0	0
9.670084	-0.2707623	0.3646952	0.001499868	-0.001096973	0.04526741	-0.03310767	0	0
9.68665	-0.2707623	0.3646952	0	0	-0.0456723	0.0334038	0	0
9.703217	-0.2707623	0.3646952	0	0	0	0	0	0
9.719783	-0.2707623	0.3646595	0	-0.002156971	0	-0.06510127	0	0
9.73637	-0.2707623	0.3646595	0	0	0	0.06506008	0	0
9.752916	-0.2707623	0.3646595	0	0	0	0	0	0
9.769483	-0.2707623	0.3646595	0	0	0	0	0	0
9.78605	-0.2707623	0.3646595	0	0	0	0	0	0
9.802616	-0.2707623	0.3646595	0	0	0	0	0	0
9.819427	-0.2707378	0.3646773	0.001453736	0.001061936	0.04355542	0.0318167	0	0
9.835749	-0.2707378	0.3646773	0	0	-0.04387636	-0.03205115	0	0
9.852316	-0.2707378	0.3646773	0	0	0	0	0	0
9.868882	-0.2707378	0.3646773	0	0	0	0	0	0
9.902016	-0.270689	0.3646416	0.001475117	-0.001077555	0.02968056	-0.02168129	0	0
9.918584	-0.270689	0.3646416	0	0	-0.02967942	0.02168045	0	0
9.93515	-0.2706645	0.3646237	0.00147516	-0.001079385	0.04452041	-0.03257591	0	0
9.951716	-0.2706401	0.3646059	0.00147516	-0.001077586	0	5.429603E-05	0	0
9.968283	-0.2706156	0.364588	0.00147516	-0.001079385	0	-5.429603E-05	0	0
9.984849	-0.2706156	0.364588	0	0	-0.04452297	0.03257778	0	0
10.00155	-0.2706156	0.3645523	0	-0.00213721	0	-0.06423488	0	0
10.01807	-0.2706156	0.3645523	0	0	0	0.06434185	0	0
10.03458	-0.2706156	0.3645523	0	0	0	0	0	0
10.05112	-0.2705912	0.3645701	0.001477882	0.001079575	0.04471583	0.03266437	0	0
10.06768	-0.2705912	0.3645701	0	0	-0.04464627	-0.03261355	0	0
10.08425	-0.2705912	0.3645701	0	0	0	0	0	0
10.10082	-0.2705912	0.3645701	0	0	0	0	0	0
10.11738	-0.2705912	0.3645701	0	0	0	0	0	0
10.13395	-0.2705912	0.3645701	0	0	0	0	0	0
10.15066	-0.2705912	0.3645701	0	0	0	0	0	0
10.16717	-0.2705912	0.3645701	0	0	0	0	0	0
10.18365	-0.2705912	0.3645701	0	0	0	0	0	0
10.20022	-0.2705912	0.3645701	0	0	0	0	0	0
10.28305	-0.2706156	0.3645523	-0.0002950286	-0.0002155148	-0.002968107	-0.002168166	0	0
10.29976	-0.2705912	0.3645344	0.00146203	-0.001069778	0.01765047	-0.008581474	0	0
10.31628	-0.2705912	0.3645344	0	0	-0.04400131	0.03219608	0	0
10.33279	-0.2705668	0.3645166	0.001477955	-0.001080946	0.04475032	-0.03272948	0	0
10.34933	-0.2705668	0.3645166	0	0	-0.04471288	0.03270209	0	0
10.3688	-0.2705668	0.3645166	0	0	0	0	0	0
10.38537	-0.2705668	0.3645166	0	0	0	0	0	0
10.40194	-0.2705668	0.3645166	0	0	0	0	0	0
10.41885	-0.2705668	0.3645166	0	0	0	0	0	0
10.43507	-0.2705668	0.3645166	0	0	0	0	0	0
10.45164	-0.2705668	0.3645166	0	0	0	0	0	0
10.4682	-0.2705668	0.3645166	0	0	0	0	0	0
10.48477	-0.2705668	0.3645166	0	0	0	0	0	0
10.5014	-0.2705668	0.3645166	0	0	0	0	0	0
10.5179	-0.2705668	0.3645166	0	0	0	0	0	0
10.53447	-0.2705668	0.3645166	0	0	0	0	0	0
10.55104	-0.2705424	0.3644987	0.00147516	-0.001077586	0.04452297	-0.03252349	0	0
10.56795	-0.2705424	0.3644987	0	0	-0.04405631	0.0321826	0	0
10.58417	-0.2705424	0.3644987	0	0	0	0	0	0
10.60074	-0.2705424	0.3644987	0	0	0	0	0	0
10.61749	-0.2705424	0.3644987	0	0	0	0	0	0
10.63387	-0.2705424	0.3644987	0	0	0	0	0	0
10.65051	-0.2705179	0.3644808	0.001468734	-0.001074683	0.0444801	-0.03254642	0	0
10.66702	-0.2704935	0.364463	0.001479931	-0.001081071	0.0003377459	-0.0001926921	0	0
10.68357	-0.270469	0.3644094	0.001476775	-0.003238099	-9.544985E-05	-0.06524383	0	0
10.70014	-0.2704202	0.3643737	0.00295015	-0.002156847	0.04449214	0.03265105	0	0
10.71706	-0.2703957	0.3643558	0.001444313	-0.001055053	-0.04496737	0.03290183	0	0
10.73357	-0.2703957	0.3643558	0	0	-0.0432015	0.03155817	0	0
10.75008	-0.2703957	0.3643558	0	0	0	0	0	0
10.7664	-0.2703957	0.3643558	0	0	0	0	0	0
10.78297	-0.2703957	0.3643558	0	0	0	0	0	0
10.79954	-0.2703957	0.3643558	0	0	0	0	0	0
10.81613	-0.2703957	0.3643558	0	0	0	0	0	0
10.83267	-0.2703957	0.3643558	0	0	0	0	0	0
10.84924	-0.2703957	0.3643558	0	0	0	0	0	0
10.8658	-0.2703957	0.3643558	0	0	0	0	0	0
10.88237	-0.2704202	0.3643737	-0.001475075	0.001077524	-0.04451913	0.03252068	0	0
10.89894	-0.2704202	0.3643737	0	0	0.04451913	-0.03252068	0	0
10.9155	-0.2704202	0.3643737	0	0	0	0	0	0
10.93222	-0.2704202	0.3643737	0	0	0	0	0	0
10.94872	-0.2704202	0.3643737	0	0	0	0	0	0
10.96749	-0.2704202	0.3643737	0	0	0	0	0	0
10.98406	-0.2704202	0.3643737	0	0	0	0	0	0
11.00076	-0.2703957	0.3643558	0.001463199	-0.001068849	0.04397968	-0.03212662	0	0
11.01719	-0.2703957	0.3643558	0	0	-0.0441607	0.03225885	0	0
11.03376	-0.2703957	0.3643558	0	0	0	0	0	0
11.05032	-0.2703957	0.3643558	0	0	0	0	0	0
11.06689	-0.2703713	0.3643379	0.00147516	-0.001079385	0.04452297	-0.03257778	0	0
11.08381	-0.2703713	0.3643379	0	0	-0.04404502	0.03222806	0	0
11.10002	-0.2703469	0.3643201	0.001507796	-0.001101427	0.0455067	-0.03324209	0	0
11.11684	-0.2703469	0.3643201	0	0	-0.04565914	0.03335345	0	0
11.13336	-0.2703469	0.3643201	0	0	0	0	0	0
11.14972	-0.2703469	0.3643201	0	0	0	0	0	0
11.16629	-0.2703469	0.3643201	0	0	0	0	0	0
11.18288	-0.2703469	0.3643201	0	0	0	0	0	0
11.19942	-0.2703469	0.3643201	0	0	0	0	0	0
11.21599	-0.2703469	0.3643201	0	0	0	0	0	0
11.23256	-0.2703469	0.3643201	0	0	0	0	0	0
11.24912	-0.2703469	0.3643201	0	0	0	0	0	0
11.26569	-0.2703469	0.3643201	0	0	0	0	0	0
11.28226	-0.2703469	0.3643201	0	0	0	0	0	0
11.29897	-0.2703224	0.3643022	0.001462364	-0.001068239	0.0439445	-0.03210092	0	0
11.31539	-0.270298	0.3642843	0.001488095	-0.00108885	0.0007766009	-0.0006220692	0	0
11.33199	-0.2702246	0.3642308	0.00441863	-0.003228239	0.08874767	-0.06478879	0	0
11.34852	-0.2699069	0.3639985	0.01921718	-0.0140443	0.446634	-0.3264386	0	0
11.36509	-0.268831	0.3632126	0.0649448	-0.04744078	1.381454	-1.008924	0	0
11.38166	-0.2677789	0.3624445	0.06350563	-0.04636319	-0.04343693	0.03252356	0	0
11.39822	-0.2677055	0.362391	0.004430876	-0.003234558	-1.782982	1.3017	0	0
11.4148	-0.267681	0.3623731	0.001478077	-0.001078888	-0.08910027	0.065047	0	0
11.43136	-0.267681	0.3623731	0	0	-0.04460974	0.03256185	0	0
11.44792	-0.267681	0.3623731	0	0	0	0	0	0
11.46458	-0.267681	0.3623731	0	0	0	0	0	0
11.51943	-0.267681	0.3623731	0	0	0	0	0	0
11.55264	-0.267681	0.3623731	0	0	0	0	0	0
11.56915	-0.267681	0.3623731	0	0	0	0	0	0
11.5857	-0.2677055	0.362391	-0.001480633	0.001080754	-0.04479001	0.03269344	0	0
11.62137	-0.2677055	0.362391	0	0	0.02835667	-0.0206983	0	0
11.6382	-0.267681	0.3623731	0.001455217	-0.001062203	0.02771654	-0.02023105	0	0
11.65472	-0.267681	0.3623731	0	0	-0.04363971	0.03185381	0	0
11.67107	-0.267681	0.3623731	0	0	0	0	0	0
11.68764	-0.267681	0.3623731	0	0	0	0	0	0
11.7042	-0.267681	0.3623731	0	0	0	0	0	0
11.72077	-0.267681	0.3623731	0	0	0	0	0	0
11.73734	-0.267681	0.3623731	0	0	0	0	0	0
11.7539	-0.2677055	0.3623552	-0.001478758	-0.001077586	-0.04463028	-0.03252255	0	0
11.77047	-0.2677055	0.3623552	0	0	0.04463157	0.03252349	0	0
11.78704	-0.2677055	0.3623552	0	0	0	0	0	0
11.8036	-0.2677055	0.3623552	0	0	0	0	0	0
11.82033	-0.2677055	0.3623552	0	0	0	0	0	0
11.83684	-0.26773	0.3623731	-0.001481907	0.001081196	-0.0445816	0.03252665	0	0
11.8533	-0.26773	0.3623731	0	0	0.04494524	-0.03279196	0	0
11.86987	-0.26773	0.3623731	0	0	0	0	0	0
11.88644	-0.26773	0.3623731	0	0	0	0	0	0
11.903	-0.26773	0.3623731	0	0	0	0	0	0
11.91957	-0.26773	0.3623731	0	0	0	0	0	0
11.93614	-0.2677545	0.362391	-0.001476874	0.001079323	-0.04457214	0.03257403	0	0
11.95293	-0.2677545	0.362391	0	0	0.04427649	-0.03235796	0	0
11.96944	-0.2677545	0.3624267	0	0.002162267	0	0.06493217	0	0
11.98595	-0.2677545	0.3624267	0	0	0	-0.06547596	0	0
12.00246	-0.2677789	0.3624445	-0.001481821	0.001082939	-0.04487126	0.03279264	0	0
12.01897	-0.2681215	0.3627661	-0.02074911	0.01947124	-0.5834357	0.556819	0	0
12.03554	-0.2683907	0.3630697	-0.01624935	0.01833292	0.1360456	-0.03441576	0	0
12.0521	-0.2716905	0.3656955	-0.1991879	0.1585023	-5.521892	4.230929	0	0
12.06901	-0.2757153	0.3691432	-0.2381012	0.2039616	-1.162625	1.358203	0	0
12.08524	-0.2792934	0.3718767	-0.2204669	0.1684246	0.5322187	-1.072538	0	0
12.1018	-0.288025	0.3793101	-0.5270692	0.4487058	-9.348798	8.546226	0	0
12.11837	-0.2904908	0.3822412	-0.1488197	0.1768987	11.41526	-8.20292	0	0
12.13494	-0.2925187	0.3864597	-0.1224201	0.2546614	0.7967414	2.346884	0	0
12.15157	-0.2935318	0.3895705	-0.06091761	0.1870591	1.852737	-2.036489	0	0
12.16807	-0.2909497	0.391591	0.1564685	0.1224374	6.561104	-1.950401	0	0
12.18464	-0.2829127	0.397636	0.4851423	0.3648952	9.939131	7.331952	0	0
12.21777	-0.2780285	0.4048105	0.1474083	0.2165346	-6.795482	-2.985134	0	0
12.23434	-0.2833737	0.4092136	-0.3226516	0.2657824	-9.457988	0.9909055	0	0
12.2509	-0.2903458	0.4144418	-0.4208649	0.3155924	-2.964252	1.503356	0	0
12.27025	-0.298804	0.4245283	-0.4372212	0.5213951	-0.4554603	5.730821	0	0
12.28716	-0.2998132	0.4370103	-0.05966662	0.7379916	10.4128	5.973642	0	0
12.30367	-0.2993567	0.4586598	0.02764541	1.31122	2.612226	17.15002	0	0
12.31995	-0.2991405	0.4759679	0.01328587	1.063388	-0.4379601	-7.558784	0	0
12.3367	-0.2986598	0.4929045	0.02870174	1.011293	0.4668103	-1.577502	0	0
12.35308	-0.2978183	0.5133182	0.05135643	1.2458	0.6837397	7.07766	0	0
12.36965	-0.2970485	0.5260739	0.04646573	0.7699794	-0.1484176	-14.43969	0	0
12.38623	-0.2964469	0.5333754	0.03628221	0.4403144	-0.3072067	-9.945015	0	0
12.40278	-0.2937006	0.5490381	0.1659284	0.9463267	3.912843	15.27192	0	0
12.41935	-0.2921568	0.5542352	0.09318872	0.3137161	-2.196426	-19.10212	0	0
12.43591	-0.2902251	0.5633645	0.1165993	0.5510484	0.7065521	7.162909	0	0
12.45248	-0.2896209	0.5691502	0.03646703	0.3492459	-2.418466	-6.090588	0	0
12.46905	-0.2897659	0.5734171	-0.008752014	0.2575629	-1.364792	-2.767157	0	0
12.48561	-0.292374	0.5761417	-0.1574319	0.1644659	-4.487427	-2.809834	0	0
12.50218	-0.2935318	0.5782785	-0.06989019	0.1289901	2.642167	-1.070723	0	0
12.51882	-0.2902975	0.5814126	0.194337	0.188313	7.95653	1.786357	0	0
12.53534	-0.2895001	0.5820212	0.04829168	0.03685898	-4.40474	-4.567867	0	0
12.55188	-0.2895001	0.5820212	0	0	-1.460852	-1.115006	0	0
12.56845	-0.2895001	0.5820212	0	0	0	0	0	0
12.58501	-0.2895243	0.5820397	-0.001460768	0.001111767	-0.0440886	0.03355512	0	0
12.60158	-0.2895243	0.5820397	0	0	0.0440886	-0.03355512	0	0
12.61814	-0.2895484	0.5820581	-0.001458969	0.001115365	-0.04403431	0.03366371	0	0
12.6349	-0.2895726	0.5820765	-0.001442362	0.001099112	0.0004983461	-0.0004877223	0	0
12.65128	-0.2896209	0.5821134	-0.002951753	0.002252941	-0.04555481	0.03482362	0	0
12.66784	-0.2896451	0.5821319	-0.001458969	0.001115365	0.04531446	-0.03453189	0	0
12.68441	-0.2897418	0.5822057	-0.005833741	0.004454006	-0.1320347	0.1007633	0	0
12.70098	-0.2898626	0.5823348	-0.007294845	0.007793161	-0.04409746	0.1007788	0	0
12.71754	-0.2898384	0.5824271	0.001458969	0.005569628	0.2642058	-0.06711024	0	0
12.73447	-0.2898626	0.5827038	-0.001427736	0.01634767	-0.08618331	0.3217812	0	0
12.75068	-0.290829	0.5836633	-0.05963117	0.0592082	-1.756583	1.293533	0	0
12.7675	-0.2928324	0.5852324	-0.1191221	0.09329458	-1.801455	1.032175	0	0
12.78381	-0.2965191	0.5881693	-0.2259766	0.1800213	-3.225059	2.617569	0	0
12.86664	-0.2922051	0.601705	0.05208118	0.1634106	2.804504	-0.1675371	0	0
12.88321	-0.2911671	0.6035054	0.0626547	0.1086698	0.106374	-0.5507138	0	0
12.90009	-0.2924946	0.6045266	-0.07865649	0.06050825	-4.225136	-1.440008	0	0
12.91634	-0.296158	0.6073508	-0.225363	0.173735	-4.427739	3.417287	0	0
12.93291	-0.2999813	0.6103449	-0.2307773	0.1807255	-0.1649548	0.212978	0	0
12.94948	-0.3011098	0.6112195	-0.0681164	0.05279633	4.909256	-3.86102	0	0
12.96604	-0.3013737	0.6114243	-0.01593532	0.01235896	1.574919	-1.220472	0	0
12.98261	-0.3013737	0.6114243	0	0	0.4809567	-0.3730156	0	0
13.01574	-0.3013737	0.6114243	0	0	0	0	0	0
13.03671	-0.3013498	0.6114056	0.001144506	-0.0008900136	0.02115724	-0.01645271	0	0
13.05327	-0.3013258	0.611387	0.001448092	-0.001122496	0.008089354	-0.00619474	0	0
13.06984	-0.3013018	0.6113684	0.001448175	-0.001122561	2.519196E-06	-1.950005E-06	0	0
13.08641	-0.3013018	0.6113684	0	0	-0.04370853	0.0338809	0	0
13.10297	-0.3012298	0.6113126	0.004346074	-0.003371086	0.1311685	-0.1017425	0	0
13.11954	-0.3011818	0.6112753	0.002898149	-0.002248719	-0.04369972	0.03387407	0	0
13.13611	-0.3011578	0.6112567	0.001448175	-0.001122561	-0.04376282	0.03398949	0	0
13.15267	-0.3010378	0.6111637	0.007244473	-0.005616401	0.1749427	-0.1356322	0	0
13.16928	-0.3009418	0.6110892	0.005780855	-0.004483259	-0.04412255	0.03415995	0	0
13.18581	-0.3008217	0.6109962	0.007262997	-0.005629363	0.04473241	-0.0345905	0	0
13.20237	-0.3007737	0.6109589	0.002898149	-0.002248719	-0.1318908	0.1021515	0	0
13.21894	-0.3007497	0.6109403	0.001448092	-0.001122496	-0.04376408	0.03399046	0	0
13.23583	-0.3007257	0.6109217	0.00142238	-0.001101197	-0.0007685558	0.0006366412	0	0
13.25234	-0.3007017	0.6109031	0.001453111	-0.001126386	0.0009201494	-0.0007542181	0	0
13.26864	-0.3007017	0.6109031	0	0	-0.04428708	0.03432936	0	0
13.28536	-0.3006777	0.6108845	0.001436495	-0.001112125	0.04349998	-0.03367741	0	0
13.30177	-0.3006537	0.6108287	0.001461808	-0.003403016	0.0007639698	-0.06914122	0	0
13.31838	-0.3006297	0.6108101	0.001445979	-0.001119467	-0.0004793273	0.0691485	0	0
13.3349	-0.3005337	0.6107357	0.005812024	-0.004506032	0.1317713	-0.1022097	0	0
13.35147	-0.3004136	0.6106426	0.007248071	-0.005616401	0.04340122	-0.03355833	0	0
13.36804	-0.3003176	0.6105682	0.005796298	-0.004493841	-0.04381712	0.03388089	0	0
13.3846	-0.3001494	0.6104379	0.01014802	-0.007861522	0.1313428	-0.1016427	0	0
13.40117	-0.3000774	0.6103449	0.004347873	-0.005616078	-0.1750538	0.06776959	0	0
13.41774	-0.3000534	0.6103263	0.001449974	-0.001122561	-0.08746127	0.1356185	0	0
13.4343	-0.2999813	0.6102332	0.004349922	-0.005616401	0.08752564	-0.1356322	0	0
13.45087	-0.2999333	0.6101961	0.002899948	-0.002245121	-0.04376282	0.1017513	0	0
13.46744	-0.2998612	0.6100658	0.004349922	-0.007861522	0.04376282	-0.1695131	0	0
13.484	-0.2997892	0.61001	0.004349672	-0.003367488	-7.561101E-06	0.1356341	0	0
13.50057	-0.299621	0.6097682	0.01014923	-0.01459964	0.1750311	-0.3389871	0	0
13.51752	-0.2992366	0.6093961	0.02267757	-0.02194796	0.3737704	-0.2192298	0	0
13.5337	-0.2986598	0.6085407	0.0356464	-0.05286733	0.3914227	-0.9332021	0	0
13.55027	-0.2975297	0.6071463	0.06821894	-0.08417045	0.9946643	-0.9559003	0	0
13.56756	-0.2943032	0.6023545	0.186638	-0.2771832	3.497983	-5.701406	0	0
13.5834	-0.2901767	0.5918857	0.2604079	-0.6606508	2.226443	-11.57341	0	0
13.59997	-0.2896451	0.5842724	0.03209012	-0.4595626	-7.044121	6.204028	0	0
13.61654	-0.2891617	0.5760127	0.02918298	-0.498586	-0.08774277	-1.177795	0	0
13.63601	-0.2888473	0.565035	0.0161431	-0.5637918	-0.3618424	-1.809391	0	0
13.65262	-0.2889199	0.5564697	-0.004366891	-0.5156376	-0.5684232	1.334568	0	0
13.66914	-0.2888957	0.5446694	0.001462758	-0.7141579	0.1759392	-5.991356	0	0
13.68571	-0.2890166	0.5358543	-0.007296644	-0.5321117	-0.2647174	5.501608	0	0
13.70265	-0.2891858	0.5278937	-0.009988111	-0.4697982	-0.08031553	1.859484	0	0
13.71884	-0.2891375	0.5180387	0.002987674	-0.6087233	0.3916099	-4.192768	0	0
13.73541	-0.2889924	0.5110683	0.008755613	-0.4207551	0.1760888	5.738461	0	0
13.75197	-0.2891375	0.5044334	-0.008755613	-0.4005095	-0.5285203	0.6110507	0	0
13.76854	-0.2888957	0.4974083	0.01459245	-0.4240355	0.7046661	-0.710036	0	0
13.78521	-0.2888231	0.4943873	0.004353439	-0.1812336	-0.3080651	7.305278	0	0
13.80172	-0.2870328	0.4869046	0.1084256	-0.4531665	3.136481	-8.195395	0	0
13.81824	-0.2872749	0.4825349	-0.01465346	-0.2645326	-3.726224	5.7109	0	0
13.83525	-0.2871538	0.4748319	0.007117169	-0.4529857	0.6494127	-5.621512	0	0
13.90108	-0.2815048	0.4598292	0.08581425	-0.2279036	0.9500549	2.717259	0	0
13.91781	-0.2814805	0.4597752	0.001451376	-0.003225083	-1.021783	2.721253	0	0
13.93431	-0.2814319	0.4597392	0.002943343	-0.002181324	0.04488555	0.03140127	0	0
13.95083	-0.2805331	0.4590735	0.05443391	-0.0403142	1.559554	-1.154974	0	0
13.96734	-0.2773227	0.4566991	0.1944047	-0.1437832	4.238234	-3.132981	0	0
13.98391	-0.2739358	0.4541996	0.2044481	-0.1508819	0.3036089	-0.2145896	0	0
14.00047	-0.2705912	0.4517367	0.20189	-0.1486655	-0.07720932	0.0668931	0	0
14.01704	-0.2685375	0.4501911	0.123971	-0.09330025	-2.351736	1.671023	0	0
14.03361	-0.2685619	0.4502091	-0.001476959	0.001084782	-3.786244	2.84871	0	0
14.05017	-0.2685619	0.4502091	0	0	0.04457727	-0.03274067	0	0
14.06691	-0.2685375	0.4501911	0.001462061	-0.00107384	0.04390396	-0.03224615	0	0
14.08331	-0.2685375	0.4501911	0	0	-0.04412637	0.0324095	0	0
14.09987	-0.2685375	0.4501552	0	-0.002169564	0	-0.06581476	0	0
14.11644	-0.268513	0.4501372	0.001476619	-0.001084532	0.04456187	0.03274444	0	0
14.13301	-0.268513	0.4501013	0	-0.002169939	-0.04456572	-0.03275858	0	0
14.16614	-0.268513	0.4500653	0	-0.001084782	0	0.02183591	0	0
14.1827	-0.268513	0.4500653	0	0	0	0.0218267	0	0
14.1995	-0.268513	0.4500653	0	0	0	0	0	0
14.21584	-0.2684885	0.4500473	0.001497563	-0.001099915	0.04519784	-0.03319647	0	0
14.23252	-0.2684885	0.4500473	0	0	-0.04534926	0.03330768	0	0
14.24904	-0.2684641	0.4500294	0.00148165	-0.001088228	0.04463022	-0.03277956	0	0
14.26554	-0.2684396	0.4499755	0.001480957	-0.003267136	-2.098739E-05	-0.06599702	0	0
14.28211	-0.2682439	0.4498317	0.01181499	-0.008677757	0.3125024	-0.1636178	0	0
14.29867	-0.265918	0.4481247	0.1403974	-0.1030399	3.880737	-2.847937	0	0
14.31524	-0.2614048	0.4448195	0.272435	-0.1995154	3.985132	-2.911803	0	0
14.3318	-0.255477	0.4404922	0.3578252	-0.2612112	2.577229	-1.862092	0	0
14.36779	-0.248814	0.4356465	0.1851501	-0.1346504	-3.28572	2.408244	0	0
14.38436	-0.2485668	0.4354671	0.0149225	-0.01082983	-3.239151	2.3561	0	0
14.40092	-0.2485915	0.4354492	-0.00149225	-0.001082983	-0.4954267	0.2941774	0	0
14.41749	-0.2485668	0.4354312	0.00149225	-0.001082983	0.09007757	0	0	0
14.43416	-0.2485668	0.4354312	0	0	-0.04489277	0.03258041	0	0
14.45062	-0.2485915	0.4354133	-0.001502021	-0.001090074	-0.04533369	-0.0329004	0	0
14.46719	-0.2485915	0.4353774	0	-0.002165966	0.04548162	-0.03257832	0	0
14.48376	-0.2486162	0.4353595	-0.001492164	-0.001082921	-0.0450349	0.03268731	0	0
14.50032	-0.2486162	0.4353595	0	0	0.0450349	0.03268356	0	0
14.51689	-0.2486162	0.4353595	0	0	0	0	0	0
14.53346	-0.2486162	0.4353595	0	0	0	0	0	0
14.55002	-0.2486162	0.4353595	0	0	0	0	0	0
14.56659	-0.2485915	0.4353415	0.00149225	-0.001082983	0.04503879	-0.03268638	0	0
14.58327	-0.2485915	0.4353057	0	-0.002151352	-0.04488633	-0.03213615	0	0
14.59978	-0.248987	0.4348033	-0.02395232	-0.0304234	-0.7216361	-0.8517812	0	0
14.61629	-0.2528392	0.431969	-0.2332966	-0.1716476	-6.339004	-4.276309	0	0
14.63286	-0.2616258	0.4253528	-0.530453	-0.3994257	-8.983971	-6.886448	0	0
14.64942	-0.2680726	0.4205679	-0.3891525	-0.2888327	4.264947	3.338088	0	0
14.66633	-0.2735943	0.4165193	-0.3266134	-0.2394811	1.868399	1.474412	0	0
14.68256	-0.2787341	0.4127406	-0.3167295	-0.2328562	0.2983047	0.199945	0	0
14.79852	-0.2811647	0.4109143	-0.02095994	-0.01574823	2.237365	1.642325	0	0
14.81509	-0.2811647	0.4109143	0	0	0.1581476	0.118824	0	0
14.83166	-0.2811647	0.4109143	0	0	0	0	0	0
14.84822	-0.2811647	0.4109143	0	0	0	0	0	0
14.86479	-0.2811647	0.4109143	0	0	0	0	0	0
14.88148	-0.281189	0.4109322	-0.001455108	0.00107303	-0.04375153	0.0322634	0	0
14.89792	-0.2812133	0.4110217	-0.001477306	0.005445186	-0.000669955	0.1319557	0	0
14.9145	-0.2813833	0.4112187	-0.0102543	0.01187737	-0.2657929	0.1947853	0	0
14.93106	-0.2817476	0.4117379	-0.02200481	0.03136703	-0.3546413	0.5882158	0	0
14.94762	-0.2824273	0.4124899	-0.04103283	0.04539534	-0.5745313	0.4235705	0	0
14.96419	-0.2833009	0.413242	-0.05273156	0.04539714	-0.3530888	5.419413E-05	0	0
14.98076	-0.2845377	0.4142269	-0.07465318	0.05944731	-0.6616147	0.4240473	0	0
14.99756	-0.2874927	0.4164477	-0.1758214	0.1321391	-3.031363	2.178107	0	0
15.01407	-0.2910222	0.419063	-0.2137911	0.1584163	-1.139696	0.7887329	0	0
15.03058	-0.2943996	0.4215713	-0.2045473	0.151911	0.2799382	-0.1970032	0	0
15.0471	-0.296856	0.4233992	-0.1487633	0.1106998	1.689203	-1.247924	0	0
15.06361	-0.2987559	0.4248151	-0.1150658	0.08575069	1.020398	-0.7554878	0	0
15.08015	-0.2987319	0.4247613	0.001451645	-0.003250893	3.524519	-2.692194	0	0
15.09672	-0.2987319	0.4247613	0	0	-0.04383724	0.09817149	0	0
15.11329	-0.2987319	0.4247613	0	0	0	0	0	0
15.13264	-0.2987319	0.4247254	0	-0.001852365	0	-0.05156761	0	0
15.14924	-0.2987079	0.4247075	0.001449437	-0.001079444	0.0403206	0.0215012	0	0
15.16578	-0.2986839	0.4246896	0.001452148	-0.001082805	8.181353E-05	-0.0001014254	0	0
15.18234	-0.2986839	0.4246896	0	0	-0.04386125	0.03270547	0	0
15.1992	-0.2986598	0.4246717	0.001426642	-0.001064236	0.04268268	-0.03184012	0	0
15.21548	-0.2986117	0.4246358	0.002953607	-0.002202845	0.04608521	-0.03436428	0	0
15.23204	-0.2985637	0.4246	0.002901747	-0.002164167	-0.001579077	0.001177698	0	0
15.24874	-0.2985156	0.4245642	0.002879863	-0.002146061	-0.000657991	0.0005444264	0	0
15.26518	-0.2984675	0.4245283	0.002925779	-0.002180738	0.001385808	-0.001046638	0	0
15.28174	-0.2984435	0.4245104	0.001449891	-0.001082921	-0.04471355	0.03325952	0	0
15.29831	-0.298203	0.4243311	0.01451413	-0.01081904	0.394291	-0.2938451	0	0
15.31528	-0.297674	0.4239368	0.03117098	-0.02323074	0.496644	-0.3700698	0	0
15.33144	-0.2958209	0.4225569	0.1146688	-0.08539208	2.520113	-1.876141	0	0
15.34801	-0.2936282	0.4209263	0.1323502	-0.09842527	0.5402659	-0.3982367	0	0
15.36458	-0.2883636	0.4170566	0.3177908	-0.2335843	5.596769	-4.079226	0	0
15.38114	-0.2786124	0.409858	0.5886175	-0.4345335	8.174037	-6.065006	0	0
15.39771	-0.2665059	0.4009813	0.7307959	-0.5358302	4.2912	-3.057317	0	0
15.41435	-0.2600536	0.3962766	0.3876741	-0.2826771	-10.33195	7.622843	0	0
15.54681	-0.1965098	0.3507821	0.479736	-0.3434692	0.6174536	-0.4077287	0	0
15.56337	-0.1913154	0.3471212	0.3135524	-0.2209825	-1.115161	0.8219363	0	0
15.57994	-0.1895646	0.3458891	0.1056808	-0.07437863	-6.273939	4.424768	0	0
15.59739	-0.1850937	0.3427819	0.2561528	-0.1780185	4.422991	-3.0464	0	0
15.61396	-0.183059	0.3413533	0.1228091	-0.08622395	-3.919301	2.698066	0	0
15.63053	-0.1793926	0.3387819	0.2213153	-0.155221	2.972924	-2.082335	0	0
15.64709	-0.1765376	0.3367819	0.1723382	-0.1207274	-1.478217	1.041077	0	0
15.66366	-0.176155	0.336514	0.02309434	-0.01616919	-4.504449	3.155756	0	0
15.68023	-0.1732712	0.3344961	0.1740787	-0.1218068	4.556981	-3.188333	0	0
15.69679	-0.1697198	0.3319782	0.2143722	-0.15199	1.216128	-0.9109836	0	0
15.71356	-0.1655754	0.3290853	0.2471722	-0.1725344	0.9839866	-0.6163232	0	0
15.72993	-0.1632192	0.3274423	0.1439693	-0.1003893	-3.11476	2.177406	0	0
15.74658	-0.163296	0.3274959	-0.004614586	0.003217149	-4.499551	3.137505	0	0
15.76306	-0.1633217	0.3275137	-0.001554542	0.001083386	0.09235499	-0.06439892	0	0
15.77963	-0.1633217	0.3275137	0	0	0.0470448	-0.03278631	0	0
15.79619	-0.1633217	0.3275137	0	0	0	0	0	0
15.81313	-0.1633217	0.3275137	0	0	0	0	0	0
15.82933	-0.1633217	0.3275137	0	0	0	0	0	0
15.84589	-0.1633217	0.3275137	0	0	0	0	0	0
15.86266	-0.1633217	0.3275137	0	0	0	0	0	0
15.88221	-0.1633217	0.3275137	0	0	0	0	0	0
15.89919	-0.1633217	0.3275137	0	0	0	0	0	0
15.92211	-0.163296	0.3274959	0.001117743	-0.0007789742	0.02801173	-0.01952185	0	0
15.93867	-0.163296	0.3274959	0	0	-0.02830875	0.01972884	0	0
15.97181	-0.163296	0.3274959	0	0	0	0	0	0
15.98837	-0.163296	0.3274959	0	0	0	0	0	0
16.00526	-0.1633217	0.3275137	-0.001516793	0.001057079	-0.04533846	0.03159713	0	0
16.02151	-0.1633473	0.3274959	-0.001577727	-0.001098905	-0.001839087	-0.06507146	0	0
16.03807	-0.1633473	0.3274959	0	0	0.04808367	0.03349083	0	0
16.0548	-0.1633729	0.327478	-0.001531671	-0.001069229	-0.04600874	-0.03211779	0	0
16.07131	-0.1633729	0.3274423	0	-0.002162267	0.04608531	-0.03288763	0	0
16.08777	-0.1633985	0.3274601	-0.001555803	0.001084265	-0.04717963	0.09845092	0	0
16.10434	-0.1633985	0.3274601	0	0	0.04710062	-0.03282522	0	0
16.12091	-0.1633985	0.3274601	0	0	0	0	0	0
16.13786	-0.1633985	0.3274601	0	0	0	0	0	0
16.15437	-0.1634241	0.3274423	-0.001552391	-0.001081259	-0.04639459	-0.03231437	0	0
16.17061	-0.1634241	0.3274423	0	0	0.04740246	0.03301636	0	0
16.18718	-0.1634498	0.3274244	-0.00154613	-0.001077524	-0.04712893	-0.03284494	0	0
16.28657	-0.1634754	0.3273709	-0.0002577032	-0.0005390929	0.01111049	0.004643054	0	0
16.30314	-0.1634754	0.3273709	0	0	0.002222252	0.00464876	0	0
16.31998	-0.163501	0.3273887	-0.001520744	0.001059832	-0.04551622	0.03172102	0	0
16.33627	-0.163501	0.3273887	0	0	0.04589878	-0.03198763	0	0
16.35301	-0.1635266	0.3273709	-0.001531514	-0.001066717	-0.046376	-0.03230143	0	0
16.36941	-0.1635266	0.3273709	0	0	0.04622383	0.03219543	0	0
16.38603	-0.1635266	0.3273709	0	0	0	0	0	0
16.40254	-0.1635779	0.3274066	-0.003102619	0.002164072	-0.09363184	0.06530807	0	0
16.4191	-0.1636547	0.3274601	-0.004640893	0.003233689	-0.04651087	0.03234068	0	0
16.43567	-0.1638596	0.327603	-0.01236904	0.008623791	-0.2332763	0.1627017	0	0
16.46881	-0.1645768	0.3281031	-0.02164358	0.01509163	-0.186604	0.1301333	0	0
16.48537	-0.1652426	0.3285674	-0.04018589	0.02802462	-0.3730722	0.2602122	0	0
16.50194	-0.1682623	0.3306746	-0.1822707	0.1271946	-4.288127	2.992957	0	0
16.51851	-0.1712022	0.3327283	-0.177456	0.1239585	0.145307	-0.09766794	0	0
16.53514	-0.1767927	0.336639	-0.3361615	0.2351599	-4.78066	3.349704	0	0
16.55165	-0.1812519	0.3397283	-0.2700614	0.1870957	1.994445	-1.450247	0	0
16.56821	-0.1852971	0.3425676	-0.2443105	0.171479	0.7786888	-0.4722368	0	0
16.58477	-0.1883461	0.3447105	-0.1840354	0.1293425	1.819631	-1.272049	0	0
16.60134	-0.1898946	0.3457998	-0.09346937	0.06575056	2.733287	-1.919208	0	0
16.61791	-0.1910871	0.3466034	-0.07197916	0.04850478	0.648576	-0.5204788	0	0
16.63471	-0.1939266	0.3486034	-0.169018	0.1190519	-2.908216	2.114269	0	0
16.65104	-0.1954211	0.3496213	-0.0915056	0.062323	2.339465	-1.712181	0	0
16.66774	-0.1956743	0.3497642	-0.01516192	0.008554848	2.311108	-1.627692	0	0
16.68418	-0.1956996	0.3497463	-0.001541464	-0.001086278	0.4110664	-0.2909698	0	0
16.70498	-0.195725	0.3497642	-0.001216742	0.0008579498	0.008719471	0.05220669	0	0
16.72155	-0.195725	0.3497642	0	0	0.03255541	-0.02295549	0	0
16.73828	-0.1957503	0.3497463	-0.001512987	-0.001066839	-0.04543451	-0.03203681	0	0
16.7548	-0.1958009	0.3497106	-0.003067069	-0.002163823	-0.04674354	-0.03299498	0	0
16.77125	-0.1958516	0.3496749	-0.003077185	-0.002169787	-0.0003068248	-0.0001809056	0	0
16.78782	-0.1958516	0.3496749	0	0	0.09318611	0.06570745	0	0
16.80439	-0.1959528	0.3497106	-0.006112566	0.002155048	-0.1844776	0.06503949	0	0
16.82095	-0.1961301	0.3497999	-0.01069699	0.00538942	-0.1383582	0.09761353	0	0
16.83752	-0.196282	0.3498713	-0.009168849	0.004311895	0.04611939	-0.03251975	0	0
16.85409	-0.1963832	0.3498356	-0.006111667	-0.002155048	0.09226596	-0.1951728	0	0
16.87066	-0.1965351	0.3497285	-0.00916705	-0.006466944	-0.09221166	-0.1301333	0	0
16.88789	-0.1966363	0.3496571	-0.005873638	-0.004143962	0.09742138	0.06871539	0	0
16.9039	-0.196687	0.3496571	-0.003161671	0	0.08156562	0.1246345	0	0
16.95914	-0.1974462	0.3497285	-0.01374614	0.001293405	-0.1485719	0.01815525	0	0
16.9757	-0.197851	0.3495499	-0.02443497	-0.01078064	-0.1488731	-0.1681661	0	0
17.00898	-0.2153451	0.3404426	-0.5256749	-0.2736614	-10.05564	-5.27379	0	0
17.02549	-0.2291404	0.338639	-0.8355702	-0.1092414	-6.224117	3.302306	0	0
17.04197	-0.2443594	0.3379605	-0.9236158	-0.04118134	-2.669054	2.063202	0	0
17.05854	-0.2638835	0.337139	-1.178481	-0.0495805	-7.712698	-0.2541748	0	0
17.0751	-0.2684641	0.3369783	-0.2764812	-0.009701315	27.22239	1.203556	0	0
17.09167	-0.2882911	0.3345676	-1.196761	-0.1455125	-27.77409	-4.098791	0	0
17.10824	-0.3000294	0.3305853	-0.7085252	-0.2403688	14.73497	-2.862769	0	0
17.12481	-0.3059746	0.3266565	-0.3588533	-0.2371435	10.55312	0.09734235	0	0
17.14137	-0.3115876	0.322531	-0.3388049	-0.2490142	0.6050631	-0.3582602	0	0
17.15809	-0.3183916	0.3175301	-0.4070773	-0.2992072	-2.051374	-1.508144	0	0
17.17451	-0.3228948	0.3144935	-0.2742816	-0.1849497	4.008015	3.448498	0	0
17.19107	-0.3240777	0.313779	-0.07139722	-0.04312795	6.150678	4.299493	0	0
17.20764	-0.3243141	0.3140648	-0.01427225	0.01725118	1.724035	1.822246	0	0
17.22421	-0.3243614	0.3141005	-0.002854809	0.002156847	0.344579	-0.4555479	0	0
17.24077	-0.3243614	0.3141005	0	0	0.08615832	-0.06509378	0	0
17.30704	-0.3243378	0.3140826	0.0003570966	-0.0002698463	0.004311077	-0.003257741	0	0
17.3237	-0.3243378	0.3140826	0	0	-0.004306021	0.00325392	0	0
17.34017	-0.3243378	0.3140826	0	0	0	0	0	0
17.35674	-0.3243141	0.3140648	0.00142667	-0.001077648	0.04318624	-0.03262113	0	0
17.37331	-0.3243141	0.3140648	0	0	-0.04305945	0.03252536	0	0
17.38987	-0.3242905	0.3140469	0.001426505	-0.001077524	0.04305201	-0.03251974	0	0
17.40644	-0.3242905	0.3140469	0	0	-0.04305201	0.03251974	0	0
17.42327	-0.3242669	0.314029	0.001405648	-0.001062203	0.04208339	-0.03180106	0	0
17.44321	-0.3242669	0.3139933	0	-0.001791268	-0.03823223	-0.01982985	0	0
17.45977	-0.3242432	0.3139755	0.001426505	-0.001079323	0.03908338	0.01950586	0	0
17.47634	-0.3242196	0.3139576	0.001428304	-0.001077524	5.428939E-05	5.428939E-05	0	0
17.49291	-0.3241723	0.3139219	0.002853011	-0.002156847	0.04299773	-0.03257403	0	0
17.50948	-0.3241013	0.3138683	0.004283113	-0.003234371	0.04316059	-0.03251974	0	0
17.52604	-0.3240777	0.3138504	0.001426505	-0.001079323	-0.0862126	0.06503949	0	0
17.54261	-0.3240304	0.3138147	0.002855138	-0.002155297	0.04311871	-0.03247482	0	0
17.55918	-0.3239594	0.3137254	0.004283113	-0.005391219	0.04309886	-0.09766595	0	0
17.57588	-0.3238885	0.3136718	0.004245149	-0.003207049	-0.001140923	0.06563877	0	0
17.5924	-0.3238412	0.3136361	0.002866178	-0.002164072	-0.0415099	0.03139577	0	0
17.60888	-0.3237466	0.3135289	0.005740017	-0.006504991	0.08710872	-0.1315772	0	0
17.62544	-0.3231315	0.3130644	0.03712691	-0.02803362	0.9497734	-0.6514603	0	0
17.64201	-0.3219005	0.3121355	0.07430916	-0.05607549	1.122227	-0.8463541	0	0
17.65858	-0.3219005	0.3120641	0	-0.004313694	-2.242784	1.562264	0	0
17.67514	-0.3232971	0.3110101	-0.08429693	-0.0636189	-2.544086	-1.789835	0	0
17.69171	-0.3279272	0.3074727	-0.2794727	-0.2135153	-5.890417	-4.523882	0	0
17.70828	-0.3349859	0.3021123	-0.426061	-0.3235541	-4.424043	-3.320977	0	0
17.72484	-0.3399298	0.2983415	-0.2984166	-0.227604	3.852314	2.895777	0	0
17.74141	-0.3426171	0.2962504	-0.1622079	-0.1262214	4.110789	3.059733	0	0
17.75798	-0.3463241	0.2934083	-0.2237563	-0.1715512	-1.857534	-1.368055	0	0
17.77455	-0.3468596	0.2929971	-0.03231853	-0.02481723	5.777602	4.42844	0	0
17.79111	-0.3467897	0.2930507	0.004214757	0.00323617	1.102577	0.8466535	0	0
17.80768	-0.3467897	0.2930507	0	0	-0.1272016	-0.09766781	0	0
17.82425	-0.3467897	0.2930507	0	0	0	0	0	0
17.84081	-0.3467897	0.2930507	0	0	0	0	0	0
17.85738	-0.3467897	0.2930507	0	0	0	0	0	0
17.8741	-0.3467897	0.2930507	0	0	0	0	0	0
17.89062	-0.3467897	0.2930507	0	0	0	0	0	0
17.90708	-0.3467897	0.2930507	0	0	0	0	0	0
17.92365	-0.3467897	0.2930507	0	0	0	0	0	0
17.94021	-0.3467897	0.2930507	0	0	0	0	0	0
17.95678	-0.346813	0.2930686	-0.001404919	0.001079323	-0.04240298	0.03257591	0	0
17.97335	-0.346813	0.2930686	0	0	0.04240054	-0.03257403	0	0
17.98992	-0.346813	0.2930686	0	0	0	0	0	0
18.00669	-0.346813	0.2930686	0	0	0	0	0	0
18.02321	-0.346813	0.2930686	0	0	0	0	0	0
18.04634	-0.346813	0.2930686	0	0	0	0	0	0
18.0629	-0.3468363	0.2930865	-0.001404757	0.001079199	-0.03538811	0.02718677	0	0
18.07975	-0.3468363	0.2930865	0	0	0.04204232	-0.03229883	0	0
18.09626	-0.3468363	0.2930865	0	0	0	0	0	0
18.11277	-0.3468363	0.2930865	0	0	0	0	0	0
18.12917	-0.3468363	0.2930865	0	0	0	0	0	0
18.14574	-0.3468363	0.2930865	0	0	0	0	0	0
18.1623	-0.3468363	0.2930865	0	0	0	0	0	0
18.17887	-0.346813	0.2930686	0.001404919	-0.001079323	0.04240054	-0.03257403	0	0
18.26171	-0.346813	0.2930686	0	0	-0.01413351	0.01085801	0	0
18.27839	-0.346813	0.2930686	0	0	0	0	0	0
18.2949	-0.346813	0.2930686	0	0	0	0	0	0
18.31141	-0.346813	0.2930686	0	0	0	0	0	0
18.32797	-0.346813	0.2930686	0	0	0	0	0	0
18.34454	-0.346813	0.2930686	0	0	0	0	0	0
18.36111	-0.346813	0.2930686	0	0	0	0	0	0
18.37799	-0.346813	0.2931044	0	0.002119123	0	0.06336436	0	0
18.39424	-0.3468596	0.2931759	-0.002863239	0.00439751	-0.08641273	0.06876186	0	0
18.41099	-0.3468596	0.2935691	0	0.02348644	0.08675732	0.5784026	0	0
18.42738	-0.3467897	0.2940518	0.004260868	0.02945145	0.1286006	0.1800347	0	0
18.44394	-0.347767	0.2948741	-0.0589868	0.04963267	-1.919203	0.612384	0	0
18.46053	-0.3486041	0.2957678	-0.05047441	0.05388873	0.2567715	0.1283816	0	0
18.47708	-0.3512283	0.2984309	-0.1585604	0.1609121	-3.26204	3.229972	0	0
18.49364	-0.3552361	0.30188	-0.2419123	0.2081888	-2.51687	1.427553	0	0
18.51021	-0.3612601	0.3080087	-0.3636077	0.369929	-3.672776	4.881328	0	0
18.52678	-0.3641584	0.313904	-0.1749658	0.355883	5.693552	-0.423933	0	0
18.54334	-0.3644571	0.3211737	-0.01802829	0.438797	4.736657	2.502493	0	0
18.5601	-0.362687	0.332764	0.1056622	0.6918657	3.712259	7.595219	0	0
18.57661	-0.3613291	0.3420319	0.08223656	0.5612871	-0.7042313	-3.925503	0	0
18.59304	-0.3583322	0.3549253	0.1823412	0.7844813	3.038305	6.774229	0	0
18.60963	-0.3575242	0.358015	0.04871492	0.18628	-4.046593	-18.11528	0	0
18.62618	-0.3512283	0.3758076	0.3804641	1.075198	10.01221	26.82761	0	0
18.64274	-0.3484181	0.3816871	0.1696423	0.3549295	-6.366644	-21.75153	0	0
18.65931	-0.3445068	0.3904824	0.2360839	0.5308848	2.005326	5.310648	0	0
18.67588	-0.338151	0.4014644	0.3836382	0.6628752	4.453196	3.983479	0	0
18.69245	-0.3341641	0.4103414	0.2406495	0.5358173	-4.315408	-3.834615	0	0
18.70901	-0.3290825	0.4235246	0.3067292	0.7957399	1.994291	7.844479	0	0
18.72951	-0.3241013	0.4382485	0.2430703	0.7184998	-1.717737	-2.084201	0	0
18.74623	-0.3219716	0.4464719	0.1273633	0.4917803	-3.10921	-6.092274	0	0
18.76264	-0.3173468	0.4636085	0.2817838	1.0441	4.660422	16.66905	0	0
18.77925	-0.3122312	0.4816144	0.3079573	1.08397	0.7925622	1.207303	0	0
18.79577	-0.3077921	0.495165	0.2686605	0.8200861	-1.185978	-7.964037	0	0
18.81277	-0.3029808	0.5076048	0.2830153	0.7317472	0.4282002	-2.635131	0	0
18.82891	-0.2941104	0.5216729	0.5498493	0.8720405	8.053528	4.234306	0	0
18.84547	-0.2899109	0.5279664	0.253479	0.3798786	-9.063426	-15.05102	0	0
18.86204	-0.281359	0.5383711	0.5161934	0.6280293	7.928738	7.489204	0	0
18.87882	-0.278807	0.5403601	0.1520782	0.1185248	-10.91862	-15.27837	0	0
18.97801	-0.2673873	0.5567079	0.1151322	0.1648168	-0.3185865	0.3991767	0	0
18.99458	-0.2692468	0.5581006	-0.1122352	0.08406487	-1.964211	-0.6976103	0	0
19.01114	-0.2690267	0.5579357	0.01328467	-0.009954956	3.788197	-2.837524	0	0
19.02771	-0.2690022	0.5579174	0.001477044	-0.001108233	-0.3563753	0.26701	0	0
19.04444	-0.2687331	0.5577158	0.01607916	-0.01204691	0.4385219	-0.3285035	0	0
19.06084	-0.2685375	0.5575691	0.01193089	-0.008939993	-0.125195	0.09376681	0	0
19.07741	-0.2681705	0.5572942	0.02215131	-0.01659279	0.3100052	-0.2321245	0	0
19.09398	-0.2681215	0.5572576	0.002953748	-0.002212612	-0.5793835	0.4339947	0	0
19.11102	-0.2680481	0.5572026	0.004308595	-0.003225761	0.04031845	-0.03014995	0	0
19.12711	-0.2679502	0.5571293	0.006082252	-0.004554746	0.05353215	-0.04011114	0	0
19.14368	-0.2678524	0.557056	0.005907495	-0.004425224	-0.005350251	0.003965343	0	0
19.16052	-0.2678034	0.5570194	0.002906689	-0.002172498	-0.08980972	0.0674208	0	0
19.17681	-0.2677545	0.5569828	0.003004597	-0.002250703	0.002955035	-0.002360361	0	0
19.1936	-0.26773	0.5569644	0.001457741	-0.00109375	-0.04677303	0.03498335	0	0
19.20994	-0.2677055	0.5569461	0.001496689	-0.001119327	0.001175518	-0.0007719537	0	0
19.22657	-0.2676566	0.5569094	0.00294436	-0.002204238	0.04389799	-0.03289797	0	0
19.24308	-0.2676566	0.5569094	0	0	-0.08884562	0.06651255	0	0
19.25965	-0.2676566	0.5569094	0	0	0	0	0	0
19.27621	-0.2676321	0.5568911	0.001476874	-0.001104507	0.04457984	-0.03333985	0	0
19.29278	-0.2676566	0.5568728	-0.001476874	-0.001108105	-0.08914427	-0.0001085788	0	0
19.30935	-0.2676566	0.5568728	0	0	0.04457214	0.03344267	0	0
19.32591	-0.2676566	0.5568728	0	0	0	0	0	0
19.34248	-0.2676076	0.5568361	0.002953748	-0.002212612	0.08914427	-0.06677677	0	0
19.37561	-0.2673628	0.5566529	0.007388392	-0.00553005	0.08922864	-0.06674954	0	0
19.39219	-0.2669466	0.5563415	0.0251039	-0.01878523	0.3563684	-0.2666436	0	0
19.41288	-0.2651094	0.5549676	0.08879517	-0.06639761	1.708934	-1.277513	0	0
19.42945	-0.2630985	0.5534661	0.1213753	-0.09063075	0.8744423	-0.650412	0	0
19.44602	-0.2590457	0.5504465	0.2446286	-0.1822689	3.719792	-2.765644	0	0
19.46274	-0.2548117	0.5473011	0.2532334	-0.1881239	0.2585032	-0.1758932	0	0
19.47915	-0.2484926	0.5426238	0.3850133	-0.284976	3.977354	-2.923173	0	0
19.49577	-0.2433433	0.5389732	0.3098468	-0.2196682	-2.275601	1.977141	0	0
19.51229	-0.2341013	0.5360184	0.559331	-0.1788245	7.527714	1.232382	0	0
19.52885	-0.220613	0.5370396	0.814531	0.06166854	7.71394	7.269392	0	0
19.54542	-0.2034862	0.538809	1.033773	0.106799	6.61826	1.362354	0	0
19.56199	-0.1974715	0.5393929	0.3630519	0.0352435	-20.2424	-2.15955	0	0
19.57855	-0.1651145	0.5423682	1.953068	0.1795886	47.98679	4.356342	0	0
19.59512	-0.146341	0.5433726	1.13317	0.06062558	-24.74457	-3.59031	0	0
19.61185	-0.1164445	0.5445051	1.787477	0.06771012	19.65313	0.2127952	0	0
19.62836	-0.1106774	0.5444685	0.3492676	-0.002212805	-43.27076	-2.103739	0	0
19.64482	-0.08777389	0.5443406	1.39127	-0.007769957	31.60051	-0.1685301	0	0
19.66139	-0.06530175	0.5436283	1.356421	-0.04299663	-1.055105	-1.06652	0	0
19.67796	-0.05069337	0.5430986	0.8817635	-0.03196955	-14.32518	0.3327981	0	0
19.69452	-0.03440747	0.5425507	0.9830194	-0.03307046	3.055907	-0.03322561	0	0
19.71109	-0.0272827	0.5423499	0.4300517	-0.0121244	-16.6886	0.6321535	0	0
19.72793	-0.01723514	0.5408164	0.5965819	-0.09105323	4.984576	-2.362494	0	0
19.74444	-0.01123637	0.5397943	0.3632992	-0.06189716	-6.994187	0.874145	0	0
19.76079	-0.00460523	0.5377874	0.4056267	-0.1227613	1.288126	-1.852238	0	0
19.77747	-0.002394732	0.536219	0.1325561	-0.09405381	-8.268897	0.8692974	0	0
19.79398	0.0004736842	0.534232	0.1736979	-0.1203259	1.239593	-0.7915704	0	0
19.81049	0.005105219	0.5309889	0.2805289	-0.1964317	3.234967	-2.304572	0	0
19.82706	0.008210341	0.5288038	0.1874256	-0.1318933	-2.814725	1.951142	0	0
19.84363	0.009052385	0.5281849	0.05082583	-0.03735537	-4.122589	2.85316	0	0
19.86019	0.01134162	0.5263832	0.1381785	-0.108749	2.636308	-2.154664	0	0
19.87676	0.01163105	0.5261467	0.01746835	-0.0142778	-3.642829	2.850982	0	0
19.9099	0.01912924	0.5207823	0.2262958	-0.1618967	4.201456	-2.969983	0	0
19.92646	0.02504739	0.5162226	0.3573023	-0.2752872	2.636059	-2.281596	0	0
19.97616	0.03703569	0.5069341	0.2412235	-0.1868991	-1.751834	1.333932	0	0
19.99273	0.04063552	0.504379	0.2172859	-0.1542245	-0.3612396	0.4930899	0	0
20.00929	0.04423428	0.5018251	0.2172471	-0.1541739	-0.001172482	0.00152733	0	0
20.02586	0.04644027	0.5001956	0.1331536	-0.09835871	-2.538092	1.684602	0	0
20.04242	0.04935462	0.4980416	0.175931	-0.1300266	1.291099	-0.9557945	0	0
20.06309	0.05334408	0.4951469	0.1930434	-0.1400712	0.4596211	-0.2697886	0	0
20.07968	0.05323911	0.4951469	-0.00632711	0	-5.351331	3.759672	0	0
20.09622	0.05321287	0.4951288	-0.001586098	-0.001093426	0.143084	-0.03299966	0	0
20.11279	0.05321287	0.4950203	0	-0.006552245	0.04790438	-0.1648709	0	0
20.12936	0.05365897	0.4945681	0.02692619	-0.02729248	0.8126807	-0.6259776	0	0
20.14623	0.0573843	0.4919643	0.2208193	-0.1543386	5.798632	-3.799485	0	0
20.16249	0.06585202	0.4857668	0.5207042	-0.3811063	9.051064	-6.844257	0	0
20.17906	0.07436263	0.479864	0.5137016	-0.3562917	-0.2133032	0.7558671	0	0
20.19562	0.07943775	0.4763285	0.3063348	-0.213402	-6.25834	4.312422	0	0
20.21219	0.08249655	0.4741108	0.1846299	-0.1338648	-3.673062	2.400435	0	0
20.22876	0.08529257	0.47211	0.1687679	-0.1207673	-0.4787162	0.3952857	0	0
20.24533	0.08941881	0.4690108	0.2490601	-0.1870647	2.423223	-2.00086	0	0
20.26189	0.09364634	0.465949	0.2552038	-0.1848338	0.1854294	0.06733295	0	0
20.27846	0.09820934	0.4623665	0.2754235	-0.2162406	0.6102646	-0.9479138	0	0
20.29502	0.1029505	0.4581921	0.286178	-0.2519698	0.3245731	-1.078309	0	0
20.31185	0.1022735	0.4541636	-0.04024912	-0.2394882	-9.776741	0.3738307	0	0
20.32816	0.09979893	0.4513413	-0.1516879	-0.173004	-3.36323	2.006499	0	0
20.34473	0.09844391	0.4495801	-0.08178885	-0.1063061	2.125834	2.028475	0	0
20.36138	0.0964107	0.4467773	-0.1220784	-0.1682873	-1.212729	-1.865654	0	0
20.37786	0.09609783	0.4460588	-0.01898775	-0.04360675	3.11146	3.763082	0	0
20.39443	0.09591531	0.4458971	-0.01101674	-0.00975708	0.2412181	1.024357	0	0
20.41099	0.09583709	0.4457714	-0.004721588	-0.00758944	0.1899881	0.06541951	0	0
20.42756	0.09578493	0.4456995	-0.003148026	-0.00433708	0.04749022	0.09815642	0	0
20.44413	0.09578493	0.4456636	0	-0.00216764	0.0950076	0.06547381	0	0
20.4607	0.09570671	0.4455738	-0.004721588	-0.005420001	-0.1424978	-0.09815643	0	0
20.47727	0.09560241	0.4454301	-0.006293428	-0.008671165	-0.04743001	-0.09810337	0	0
20.49383	0.09555025	0.4453942	-0.003149476	-0.002168639	0.09489012	0.1962579	0	0
20.5104	0.0954981	0.4453224	-0.003148026	-0.00433708	4.378028E-05	-0.06545874	0	0
20.527	0.09541987	0.4452685	-0.004711191	-0.003244889	-0.04712217	0.0329245	0	0
20.54353	0.09539379	0.4452505	-0.001577827	-0.001087349	0.09457053	0.06511844	0	0
20.56009	0.09539379	0.4452505	0	0	0.04767656	0.03285596	0	0
20.57666	0.09539379	0.4452505	0	0	0	0	0	0
20.59323	0.09536771	0.4452326	-0.001574013	-0.001082921	-0.04750653	-0.0326845	0	0
20.60979	0.09536771	0.4452326	0	0	0.0475038	0.03268262	0	0
20.62636	0.09536771	0.4451966	0	-0.002169689	0	-0.06548512	0	0
20.64293	0.09539379	0.4451068	0.001573832	-0.005419377	0.04749833	-0.09807577	0	0
20.66009	0.09552418	0.4448734	0.00759633	-0.01360221	0.1785324	-0.2425737	0	0
20.67611	0.09560241	0.444568	0.004885721	-0.01906827	-0.0817029	-0.1647575	0	0
20.69263	0.09547202	0.4435444	-0.007889138	-0.06193559	-0.392597	-1.317399	0	0
20.71235	0.09474183	0.438769	-0.03704229	-0.2422533	-0.8044551	-4.975705	0	0
20.72914	0.0945071	0.4276653	-0.0139737	-0.6610118	0.6318347	-11.46955	0	0
20.74548	0.09544595	0.4196721	0.05746954	-0.4892878	2.156161	5.182641	0	0
20.76205	0.09604568	0.4149611	0.03620005	-0.2843549	-0.6464169	6.22827	0	0
20.86174	0.09622819	0.4051327	0.001830744	-0.09858873	-0.295628	1.59787	0	0
20.87802	0.09633248	0.4050611	0.006407275	-0.00439785	0.0394635	0.8122095	0	0
20.89477	0.09635855	0.4050074	0.00155583	-0.003205037	-0.146865	0.03610932	0	0
20.91127	0.09651498	0.4041484	0.009479383	-0.05205083	0.2382419	-1.468673	0	0
20.92772	0.0977402	0.4011602	0.0745201	-0.1817485	1.974298	-3.936945	0	0
20.9443	0.09510694	0.3945238	-0.1588158	-0.400252	-7.06609	-6.616922	0	0
20.96085	0.08887056	0.3854229	-0.3767758	-0.5498405	-6.578423	-4.514849	0	0
20.97742	0.08521419	0.3798462	-0.2206986	-0.3366067	4.712588	6.438373	0	0
20.99399	0.08090198	0.375754	-0.2601058	-0.2468398	-1.188901	2.708236	0	0
21.01084	0.07470284	0.3715909	-0.3679122	-0.2470763	-3.225015	-0.007075648	0	0
21.02712	0.07043592	0.3686788	-0.2622004	-0.1789458	3.191492	2.056892	0	0
21.04387	0.06545898	0.3652847	-0.2970912	-0.2026073	-1.056472	-0.7164561	0	0
21.06025	0.06362453	0.3641057	-0.1119908	-0.07197179	5.58666	3.942815	0	0
21.07681	0.05953483	0.3613907	-0.2468835	-0.1638979	-4.094403	-2.790236	0	0
21.09338	0.05922015	0.3612121	-0.01899406	-0.01078064	6.878114	4.621354	0	0
21.10995	0.05914148	0.3612657	-0.004748025	0.003233999	0.4299215	0.4229382	0	0
21.12652	0.05906281	0.3613193	-0.004749118	0.003234744	-3.299805E-05	2.247887E-05	0	0
21.14308	0.05885301	0.3614621	-0.01266338	0.008623791	-0.2388667	0.1626511	0	0
21.15965	0.05869566	0.3615693	-0.009497593	0.006468743	0.0955437	-0.06503949	0	0
21.17646	0.05845963	0.3617301	-0.01403835	0.009561118	-0.1360302	0.09264015	0	0
21.19279	0.05796132	0.3620695	-0.03053124	0.02079438	-0.4977566	0.3390205	0	0
21.20935	0.05727938	0.3625338	-0.04116697	0.02803325	-0.3234071	0.2201167	0	0
21.226	0.0558104	0.3634984	-0.08824084	0.05794032	-1.417347	0.9004721	0	0
21.24251	0.05420999	0.3644808	-0.09692459	0.05949846	-0.2618801	0.04698937	0	0
21.25905	0.05337032	0.3640878	-0.05076436	-0.02375822	1.396575	-2.518926	0	0
21.27562	0.05082461	0.3624624	-0.1536594	-0.09811226	-3.107883	-2.245819	0	0
21.29218	0.03524855	0.3553004	-0.9401729	-0.4323013	-23.73702	-10.08584	0	0
21.30875	0.02641491	0.3531573	-0.5332612	-0.1293718	12.28133	9.142957	0	0
21.32557	0.007131458	0.3503892	-1.146658	-0.1645968	-18.37483	-1.055197	0	0
21.34188	-0.008894502	0.349407	-0.9822561	-0.06020027	4.961932	3.150875	0	0
21.35845	-0.02554707	0.3489963	-1.005151	-0.02479205	-0.6962605	1.076804	0	0
21.37502	-0.04796319	0.3487642	-1.353039	-0.01401321	-10.49929	0.325306	0	0
21.39211	-0.07158798	0.3489963	-1.381771	0.01357862	-0.8534632	0.8196071	0	0
21.40815	-0.08335901	0.3491035	-0.7339926	0.006680765	19.54999	-0.2081777	0	0
21.42472	-0.107505	0.349282	-1.457621	0.01078008	-22.19561	0.125737	0	0
21.44128	-0.1258575	0.3498713	-1.107764	0.03557089	10.55932	0.7482312	0	0
21.45785	-0.14312	0.3508	-1.042083	0.0560593	1.982356	0.618377	0	0
21.47879	-0.1659082	0.3528537	-1.088023	0.09805431	-1.224734	1.119571	0	0
21.49536	-0.1766141	0.3541931	-0.6462123	0.08084669	11.7779	-0.4587253	0	0
21.59476	-0.2556494	0.3651953	-0.7950965	0.1106828	-1.28381	0.2572728	0	0
21.61133	-0.2597587	0.3654276	-0.2480356	0.01401681	4.717237	-0.8335385	0	0
21.6279	-0.2597587	0.365499	0	0.004313694	7.48573	-0.2928406	0	0
21.64447	-0.2597587	0.365499	0	0	0	-0.1301876	0	0
21.66103	-0.2597587	0.365499	0	0	0	0	0	0
21.6776	-0.2597833	0.3655169	-0.00148424	0.001077648	-0.04479703	0.03252536	0	0
21.69434	-0.2598078	0.3655348	-0.001466902	0.001068133	0.000520564	-0.0002857034	0	0
21.71073	-0.2599061	0.3656062	-0.005998007	0.004358055	-0.1367569	0.09929578	0	0
21.72735	-0.2605205	0.3660528	-0.03695855	0.0268664	-0.9377919	0.6817755	0	0
21.74387	-0.2628286	0.3677677	-0.1397857	0.1038592	-3.10333	2.323648	0	0
21.76043	-0.2647907	0.3691969	-0.1184341	0.08626489	0.6454703	-0.531886	0	0
21.777	-0.2651339	0.369447	-0.02071221	0.01509613	2.949253	-2.147878	0	0
21.7939	-0.2650849	0.3694112	0.002900702	-0.002114251	0.7055318	-0.5142302	0	0
21.81041	-0.2650113	0.3693576	0.004452683	-0.003245206	0.0464485	-0.03384784	0	0
21.8267	-0.2649378	0.3693041	0.004514214	-0.003290052	0.001876018	-0.001367293	0	0
21.84344	-0.2648152	0.3692147	0.007323718	-0.005338319	0.08507504	-0.06202392	0	0
21.85983	-0.2646682	0.3691075	0.008969335	-0.00653571	0.04966481	-0.03613734	0	0
21.8764	-0.2645701	0.3690361	0.005918969	-0.004314191	-0.09253964	0.06739473	0	0
21.89299	-0.264374	0.3688931	0.01182248	-0.008614496	0.1780453	-0.1296939	0	0
21.90953	-0.2636873	0.3683929	0.04151291	-0.03024101	0.8961107	-0.6527269	0	0
21.9261	-0.2616012	0.3668745	0.1259156	-0.09165432	2.549334	-1.854952	0	0
21.94301	-0.2566099	0.3632483	0.2952304	-0.2144806	5.058101	-3.669308	0	0
21.95923	-0.2533325	0.3608727	0.2019844	-0.146407	-2.814331	2.054584	0	0
21.99255	-0.2384045	0.3501035	0.4481032	-0.3232673	4.968126	-3.570082	0	0
22.00893	-0.2335783	0.3466748	0.2945288	-0.2092451	-3.090042	2.294219	0	0
22.02557	-0.2290406	0.3434605	0.2727684	-0.1932165	-0.6589674	0.4853939	0	0
22.04208	-0.2260934	0.3413533	0.1785312	-0.127643	-2.843266	1.978444	0	0
22.05863	-0.2192847	0.3364962	0.4112597	-0.293381	7.038752	-5.012659	0	0
22.0752	-0.2152698	0.3336747	0.2422531	-0.1702458	-5.10151	3.716869	0	0
22.11211	-0.203991	0.3256743	0.3055988	-0.2167716	1.18447	-0.8699651	0	0
22.12868	-0.1998994	0.3227811	0.2469725	-0.1746345	-1.096342	0.7879874	0	0
22.16181	-0.1959528	0.3199949	0.1191064	-0.08408646	-2.57267	1.82183	0	0
22.17838	-0.1923297	0.3174407	0.2186897	-0.1541687	2.00362	-1.410058	0	0
22.19518	-0.1903006	0.3160118	0.1207696	-0.08504796	-2.934459	2.071402	0	0
22.21151	-0.1873809	0.3139219	0.1787833	-0.1279746	1.750956	-1.295604	0	0
22.22821	-0.1827537	0.3106706	0.2771974	-0.1947644	2.980093	-2.022472	0	0
22.24465	-0.180004	0.3087412	0.1672586	-0.1173661	-3.318151	2.336021	0	0
22.26123	-0.1758234	0.3058111	0.2521099	-0.1766987	2.569547	-1.796766	0	0
22.27778	-0.1720964	0.3032024	0.2251948	-0.1576276	-0.8123462	0.5756019	0	0
22.29435	-0.1712789	0.3026305	0.04934575	-0.03451495	-5.309887	3.717472	0	0
22.31091	-0.1707167	0.3022374	0.03393392	-0.02373072	-0.4651301	0.3254689	0	0
22.32748	-0.1707167	0.3022374	0	0	-1.024128	0.7161945	0	0
22.34405	-0.1707167	0.3022374	0	0	0	0	0	0
22.36061	-0.1706911	0.3022195	0.001542532	-0.001077524	0.04655372	-0.03251974	0	0
22.43203	-0.1707167	0.3022374	-0.0003578451	0.0002499699	-0.02159957	0.01508822	0	0
22.44886	-0.1706911	0.3022195	0.001518237	-0.001060552	0.02125937	-0.01485057	0	0
22.46516	-0.1706911	0.3022195	0	0	-0.04582047	0.03200753	0	0
22.48189	-0.1707167	0.3022017	-0.001528281	-0.001069351	-0.04627812	-0.03238119	0	0
22.4984	-0.1706911	0.3021838	0.0015477	-0.001081134	0.09255623	-0.0003545427	0	0
22.51491	-0.1707167	0.3021659	-0.001547879	-0.001083064	-0.09374312	-5.844752E-05	0	0
22.53143	-0.1706911	0.302148	0.001546628	-0.001082189	0.09367819	2.649473E-05	0	0
22.548	-0.1706911	0.302148	0	0	-0.04673921	0.03270381	0	0
22.63083	-0.1703845	0.3018622	0.003702523	-0.003451395	0.03724817	-0.03472177	0	0
22.6475	-0.1698221	0.3013975	0.03373409	-0.02787114	0.3018112	-0.2454135	0	0
22.66402	-0.1670599	0.2994675	0.1672097	-0.1168348	4.021588	-2.680454	0	0
22.68053	-0.1623479	0.2961789	0.2853981	-0.1991863	3.578263	-2.493266	0	0
22.6971	-0.1568073	0.2923178	0.3344354	-0.2330564	1.482509	-1.023972	0	0
22.71367	-0.1502023	0.2876872	0.3986794	-0.2795069	1.938888	-1.401878	0	0
22.73023	-0.1464441	0.284969	0.226871	-0.164085	-5.185486	3.483641	0	0
22.7468	-0.1427075	0.2811952	0.2255407	-0.2277875	-0.04015088	-1.922657	0	0
22.76359	-0.145594	0.2763292	-0.1719558	-0.2898765	-11.91758	-1.861526	0	0
22.77993	-0.1495333	0.268007	-0.2409933	-0.509127	-2.083676	-6.617375	0	0
22.79661	-0.1544444	0.2624025	-0.2945008	-0.3360831	-1.620362	5.240272	0	0
22.81307	-0.1581677	0.2567957	-0.2262248	-0.3406645	2.060573	-0.1382649	0	0
22.82963	-0.160656	0.2511146	-0.1502123	-0.3429494	2.301747	-0.06919076	0	0
22.8462	-0.1660362	0.2455205	-0.3247467	-0.3376608	-5.267763	0.1596195	0	0
22.86277	-0.1706145	0.2424533	-0.2763472	-0.1851363	1.460702	4.603199	0	0
22.87934	-0.1740116	0.240103	-0.2050253	-0.141849	2.152375	1.306338	0	0
22.8959	-0.1770732	0.2378778	-0.1847972	-0.1343137	0.6104498	0.2274039	0	0
22.91643	-0.1769967	0.2379675	0.003726565	0.00437198	5.082571	3.738943	0	0
22.93299	-0.1769967	0.2379675	0	0	-0.1004676	-0.1178679	0	0
22.94956	-0.1769967	0.2379675	0	0	0	0	0	0
22.96613	-0.1769967	0.2379675	0	0	0	0	0	0
22.9827	-0.1769967	0.2379675	0	0	0	0	0	0
22.99926	-0.1769967	0.2379675	0	0	0	0	0	0
23.01583	-0.1769967	0.2379675	0	0	0	0	0	0
23.03239	-0.1770222	0.2379855	-0.001539112	0.001083045	-0.04645584	0.03269014	0	0
23.04896	-0.1769967	0.2380034	0.001538935	0.00108382	0.09290098	2.338317E-05	0	0
23.06553	-0.1769967	0.2380034	0	0	-0.04644514	-0.03270976	0	0
23.0821	-0.1769967	0.2380034	0	0	0	0	0	0
23.09866	-0.1769967	0.2380034	0	0	0	0	0	0
23.11534	-0.1769967	0.2380034	0	0	0	0	0	0
23.1318	-0.1769967	0.2380034	0	0	0	0	0	0
23.14836	-0.1769967	0.2380034	0	0	0	0	0	0
23.16537	-0.1769967	0.2380034	0	0	0	0	0	0
23.1815	-0.1769967	0.2380034	0	0	0	0	0	0
23.19806	-0.1769967	0.2380034	0	0	0	0	0	0
23.21463	-0.1769967	0.2380034	0	0	0	0	0	0
23.2312	-0.1769967	0.2380393	0	0.002166741	0	0.06539237	0	0
23.25334	-0.1769967	0.2381111	0	0.003241693	0	0.02776962	0	0
23.26991	-0.1769712	0.2382008	0.001539657	0.00541578	0.03977255	0.05616119	0	0
23.28648	-0.1769457	0.2383265	0.001538935	0.007583144	-2.179601E-05	0.06540741	0	0
23.30305	-0.1768946	0.2383982	0.003078769	0.004332582	0.04647229	-0.09810213	0	0
23.31999	-0.1768692	0.238488	0.001504636	0.005295686	-0.04697205	0.02873896	0	0
23.33618	-0.1767161	0.2385956	0.009449729	0.00665015	0.2397696	0.04087546	0	0
23.35275	-0.1766141	0.2387033	0.006158247	0.006500072	-0.1004824	-0.004581596	0	0
23.36952	-0.1764866	0.2388289	0.007601111	0.007487423	0.0432742	0.02961252	0	0
23.38604	-0.1764356	0.2388648	0.003089082	0.002173999	-0.1355413	-0.1596152	0	0
23.40255	-0.1764101	0.2388828	0.001544636	0.001086297	-0.04676224	-0.03293307	0	0
23.41906	-0.1764356	0.2388648	-0.001545349	-0.0010868	-0.09356833	-0.06580389	0	0
23.43558	-0.1763846	0.2388289	0.003087845	-0.002172494	0.1402661	-0.03286848	0	0
23.45258	-0.1763591	0.238811	0.001499741	-0.001055341	-0.04737278	0.03332442	0	0
23.53514	-0.1763591	0.238811	0	0	-0.01506343	0.01059987	0	0
23.55165	-0.1763591	0.238811	0	0	0	0	0	0
23.57176	-0.1763591	0.238811	0	0	0	0	0	0
23.58832	-0.1763591	0.238811	0	0	0	0	0	0
23.60489	-0.1763336	0.238793	0.001539834	-0.00108382	0.04647229	-0.03270976	0	0
23.62146	-0.1763336	0.238793	0	0	-0.04647229	0.03270976	0	0
23.63803	-0.1763846	0.238793	-0.003078769	0	-0.09291743	0	0	0
23.65459	-0.1763846	0.238793	0	0	0.09291743	0	0	0
23.67116	-0.1763846	0.238793	0	0	0	0	0	0
23.68773	-0.1763846	0.238793	0	0	0	0	0	0
23.70429	-0.1763846	0.238793	0	0	0	0	0	0
23.72086	-0.1763846	0.238793	0	0	0	0	0	0
23.73743	-0.1763846	0.238793	0	0	0	0	0	0
23.754	-0.1763846	0.238793	0	0	0	0	0	0
23.77056	-0.1763846	0.238793	0	0	0	0	0	0
23.78713	-0.1763591	0.2387751	0.001538935	-0.001082921	0.04644514	-0.03268262	0	0
23.8037	-0.1763591	0.2387751	0	0	-0.04644514	0.03268262	0	0
23.82026	-0.1763591	0.2387751	0	0	0	0	0	0
23.83683	-0.1763591	0.2387751	0	0	0	0	0	0
23.8534	-0.1763336	0.2387572	0.001539834	-0.001082921	0.04647229	-0.03268262	0	0
23.86997	-0.1763591	0.2387392	-0.001539834	-0.00108382	-0.09294458	-2.714469E-05	0	0
23.88654	-0.1763591	0.2387392	0	0	0.04646961	0.03270788	0	0
23.9031	-0.1763591	0.2387392	0	0	0	0	0	0
23.93644	-0.1763336	0.2387213	0.000765204	-0.0005381458	0.01533356	-0.01078365	0	0
23.9528	-0.1763336	0.2387213	0	0	-0.01539653	0.01082793	0	0
23.96937	-0.1763591	0.2387392	-0.001539834	0.001082921	-0.04676301	0.03288707	0	0
23.98594	-0.1763591	0.2387392	0	0	0.04647229	-0.03268262	0	0
24.0025	-0.1763591	0.2387392	0	0	0	0	0	0
24.01907	-0.1763591	0.2387392	0	0	0	0	0	0
24.03564	-0.1763591	0.2387392	0	0	0	0	0	0
24.0522	-0.1763591	0.2387392	0	0	0	0	0	0
24.06903	-0.1763591	0.2387392	0	0	0	0	0	0
24.08534	-0.1763591	0.2387392	0	0	0	0	0	0
24.1019	-0.1763591	0.2387392	0	0	0	0	0	0
24.11847	-0.1763591	0.2387392	0	0	0	0	0	0
24.13508	-0.1763591	0.2387392	0	0	0	0	0	0
24.21787	-0.1763846	0.2387213	-0.0003079571	-0.0002167039	-0.003098114	-0.002180087	0	0
24.23444	-0.1763591	0.2387033	0.001538935	-0.001082921	0.01858833	-0.008718174	0	0
24.25101	-0.1763846	0.2387213	-0.001538935	0.001082921	-0.09289028	0.06536523	0	0
24.27052	-0.1763591	0.2387033	0.00130641	-0.0009192973	0.07885507	-0.05548889	0	0
24.28709	-0.1763591	0.2387033	0	0	-0.03620547	0.02547714	0	0
24.30371	-0.1763591	0.2387033	0	0	0	0	0	0
24.32022	-0.1763591	0.2387033	0	0	0	0	0	0
24.33679	-0.1763591	0.2387033	0	0	0	0	0	0
24.35374	-0.1763591	0.2387033	0	0	0	0	0	0
24.38649	-0.1763591	0.2387033	0	0	0	0	0	0
24.40328	-0.1763591	0.2387033	0	0	0	0	0	0
24.41979	-0.1763591	0.2387033	0	0	0	0	0	0
24.43619	-0.1763591	0.2387033	0	0	0	0	0	0
24.45276	-0.1763591	0.2387033	0	0	0	0	0	0
24.46933	-0.1763591	0.2387033	0	0	0	0	0	0
24.48589	-0.1763591	0.2387033	0	0	0	0	0	0
24.50246	-0.1763846	0.2386854	-0.001538935	-0.00108382	-0.04644514	-0.03270976	0	0
24.51903	-0.1763846	0.2386854	0	0	0.04644514	0.03270976	0	0
24.53559	-0.1763846	0.2386854	0	0	0	0	0	0
24.55216	-0.1763846	0.2386854	0	0	0	0	0	0
24.5689	-0.1763846	0.2386854	0	0	0	0	0	0
24.58529	-0.1763846	0.2386854	0	0	0	0	0	0
24.60186	-0.1763846	0.2386854	0	0	0	0	0	0
24.61843	-0.1763846	0.2386854	0	0	0	0	0	0
24.635	-0.1763846	0.2386854	0	0	0	0	0	0
24.65156	-0.1763846	0.2386854	0	0	0	0	0	0
24.66813	-0.1763846	0.2386854	0	0	0	0	0	0
24.6847	-0.1763846	0.2386854	0	0	0	0	0	0
24.70127	-0.1763846	0.2386854	0	0	0	0	0	0
24.71783	-0.1763846	0.2386854	0	0	0	0	0	0
24.7344	-0.1763591	0.2386674	0.001538935	-0.001082921	0.04644514	-0.03268262	0	0
24.75097	-0.1763591	0.2386674	0	0	-0.04644514	0.03268262	0	0
24.76753	-0.1763591	0.2386674	0	0	0	0	0	0
24.7841	-0.1763591	0.2386674	0	0	0	0	0	0
24.80067	-0.1763591	0.2386674	0	0	0	0	0	0
24.8338	-0.1763591	0.2386315	0	-0.001082921	0	-0.02178841	0	0
24.85037	-0.1763591	0.2386315	0	0	0	0.02178841	0	0
24.86693	-0.1763591	0.2386315	0	0	0	0	0	0
24.8835	-0.1763591	0.2386315	0	0	0	0	0	0
24.90014	-0.1763591	0.2386315	0	0	0	0	0	0
24.91663	-0.1763591	0.2386315	0	0	0	0	0	0
24.93607	-0.1763591	0.2386315	0	0	0	0	0	0
24.95267	-0.1763591	0.2386315	0	0	0	0	0	0
24.96921	-0.1763591	0.2386315	0	0	0	0	0	0
24.98577	-0.1763591	0.2386315	0	0	0	0	0	0
25.00234	-0.1763591	0.2386315	0	0	0	0	0	0
25.01891	-0.1763591	0.2386315	0	0	0	0	0	0
25.03573	-0.1763336	0.2386136	0.00151644	-0.001067354	0.04541593	-0.03196624	0	0
25.05204	-0.1763591	0.2385956	-0.001564145	-0.001100018	-0.09297758	-0.0009858455	0	0
25.06861	-0.1763591	0.2385956	0	0	0.04757569	0.03345861	0	0
25.08527	-0.1763336	0.2385777	0.001531196	-0.001076846	0.04608162	-0.03240787	0	0
25.10178	-0.1763591	0.2385598	-0.001545171	-0.001087577	-0.09274352	-0.0003234923	0	0
25.11831	-0.1763591	0.2385598	0	0	0.04676796	0.03291787	0	0
25.13487	-0.1763336	0.2385418	0.001539834	-0.001082921	0.04652585	-0.03272029	0	0
25.15181	-0.1763336	0.2385418	0	0	-0.04595643	0.03231983	0	0
25.16801	-0.1763081	0.2385239	0.001575383	-0.001107921	0.04754788	-0.03343905	0	0
25.18457	-0.1763081	0.2385239	0	0	-0.0480877	0.03381868	0	0
25.25084	-0.1763081	0.238488	0	-0.0005417009	0	-0.006539576	0	0
25.26741	-0.1763081	0.238488	0	0	0	0.006539576	0	0
25.28398	-0.1763081	0.238488	0	0	0	0	0	0
25.30054	-0.1763081	0.238488	0	0	0	0	0	0
25.31711	-0.1763081	0.238488	0	0	0	0	0	0
25.33368	-0.1763081	0.238488	0	0	0	0	0	0
25.35024	-0.1763081	0.238488	0	0	0	0	0	0
25.36681	-0.1763081	0.238488	0	0	0	0	0	0
25.38338	-0.1763081	0.238488	0	0	0	0	0	0
25.39994	-0.1763081	0.238488	0	0	0	0	0	0
25.41651	-0.1763081	0.238488	0	0	0	0	0	0
25.43308	-0.1763081	0.238488	0	0	0	0	0	0
25.44965	-0.1763081	0.238488	0	0	0	0	0	0
25.46621	-0.1763081	0.238488	0	0	0	0	0	0
25.48278	-0.1763081	0.238488	0	0	0	0	0	0
25.49935	-0.1763081	0.238488	0	0	0	0	0	0
25.51591	-0.1763081	0.238488	0	0	0	0	0	0
25.53259	-0.1763081	0.238488	0	0	0	0	0	0
25.5491	-0.1763081	0.238488	0	0	0	0	0	0
25.56561	-0.1763081	0.238488	0	0	0	0	0	0
25.58218	-0.1763081	0.238488	0	0	0	0	0	0
25.59875	-0.1763081	0.238488	0	0	0	0	0	0
25.66502	-0.1763081	0.238488	0	0	0	0	0	0
25.68158	-0.1763081	0.238488	0	0	0	0	0	0
25.70165	-0.1763081	0.238488	0	0	0	0	0	0
25.71822	-0.1763081	0.238488	0	0	0	0	0	0
25.73478	-0.1763081	0.238488	0	0	0	0	0	0
25.75135	-0.1763081	0.238488	0	0	0	0	0	0
25.76792	-0.1763336	0.23847	-0.001539834	-0.001082921	-0.04647229	-0.03268262	0	0
25.78448	-0.1763336	0.23847	0	0	0.04647229	0.03268262	0	0
25.80105	-0.1763336	0.23847	0	0	0	0	0	0
25.81762	-0.1763081	0.2384521	0.001539834	-0.00108382	0.04647229	-0.03270976	0	0
25.83418	-0.1763081	0.2384521	0	0	-0.04647229	0.03270976	0	0
25.85082	-0.1763081	0.2384521	0	0	0	0	0	0
25.86733	-0.1763081	0.2384521	0	0	0	0	0	0
25.88388	-0.1763081	0.2384162	0	-0.002168489	0	-0.06558481	0	0
25.90045	-0.1762571	0.2383803	0.003079124	-0.002166091	0.09297094	7.239576E-05	0	0
25.91702	-0.1762315	0.2383623	0.001539834	-0.00108382	-0.04645852	0.03266488	0	0
25.93358	-0.1762061	0.2383444	0.001538935	-0.001082921	-2.714469E-05	2.714469E-05	0	0
25.95015	-0.176053	0.2382008	0.009238106	-0.008666065	0.2323615	-0.2288597	0	0
25.96672	-0.1759765	0.238147	0.004619502	-0.003249662	-0.1393897	0.1634673	0	0
25.99985	-0.1687994	0.2331027	0.2166057	-0.1522363	4.265172	-2.997617	0	0
26.04955	-0.1579367	0.2254865	0.2185563	-0.1532384	0.02354741	-0.01209759	0	0
26.06612	-0.1558058	0.2239949	0.128622	-0.09003443	-1.357111	0.9537495	0	0
26.08269	-0.1556774	0.223905	0.007750439	-0.005424498	-3.647912	2.553533	0	0
26.09926	-0.1557031	0.223923	-0.001549728	0.00108472	-0.2806796	0.1964486	0	0
26.11582	-0.1557031	0.223923	0	0	0.04677088	-0.0327369	0	0
26.13239	-0.1557031	0.223923	0	0	0	0	0	0
26.14896	-0.1557031	0.223923	0	0	0	0	0	0
26.16555	-0.1557031	0.223923	0	0	0	0	0	0
26.18209	-0.1557031	0.223923	0	0	0	0	0	0
26.19866	-0.1557031	0.223923	0	0	0	0	0	0
26.21523	-0.1557031	0.223923	0	0	0	0	0	0
26.23179	-0.1557031	0.223923	0	0	0	0	0	0
26.24861	-0.1557031	0.223923	0	0	0	0	0	0
26.26493	-0.1557031	0.223923	0	0	0	0	0	0
26.28163	-0.1557031	0.223923	0	0	0	0	0	0
26.29806	-0.1557031	0.223923	0	0	0	0	0	0
26.31463	-0.1557031	0.223923	0	0	0	0	0	0
26.3312	-0.1556774	0.223941	0.001549728	0.00108472	0.04677088	0.0327369	0	0
26.34776	-0.1557031	0.2239589	-0.001549728	0.00108472	-0.09354176	0	0	0
26.37142	-0.1560113	0.2242465	-0.01302524	0.01215362	-0.2852626	0.2751548	0	0
26.38799	-0.1572694	0.2253787	-0.07593847	0.06834004	-1.563921	1.396703	0	0
26.40456	-0.1597584	0.2272654	-0.1502382	0.1138803	-2.242369	1.374407	0	0
26.42113	-0.1661642	0.2328334	-0.3866522	0.336085	-7.13499	6.706152	0	0
26.43769	-0.1779145	0.2458254	-0.7092519	0.7841983	-9.736079	13.52409	0	0
26.45426	-0.1847886	0.2601278	-0.4149215	0.8632966	8.882912	2.387189	0	0
26.47083	-0.1892093	0.2842894	-0.2668329	1.458399	4.46932	17.96024	0	0
26.48739	-0.1907827	0.3041672	-0.09496964	1.199826	5.186845	-7.803761	0	0
26.50396	-0.1912393	0.3171014	-0.02756141	0.7807049	2.034384	-12.6491	0	0
26.52053	-0.1903767	0.3414962	0.05205785	1.472304	2.402776	20.8713	0	0
26.53732	-0.1885492	0.3578186	0.1088196	0.971907	1.70132	-14.99841	0	0
26.55367	-0.1829063	0.3821875	0.3453358	1.491346	7.138075	15.67669	0	0
26.57023	-0.1774556	0.3958116	0.3290425	0.8224417	-0.4951536	-20.32798	0	0
26.5868	-0.1729903	0.4050969	0.2694948	0.5603992	-1.797153	-7.908459	0	0
26.60337	-0.1605278	0.4280777	0.7522396	1.387124	14.56843	24.94918	0	0
26.61993	-0.1535193	0.4422336	0.4230822	0.8545517	-9.934563	-16.074	0	0
26.6369	-0.146341	0.4561956	0.4231478	0.8230355	0.001957236	-0.9399586	0	0
26.65307	-0.1387862	0.4697495	0.4671982	0.838186	1.329444	0.4572408	0	0
26.66963	-0.1302065	0.4869588	0.5178718	1.038759	1.547865	6.126647	0	0
26.6862	-0.1266345	0.4950565	0.2156065	0.488775	-9.122386	-16.59854	0	0
26.70294	-0.1219446	0.5069522	0.2801192	0.7105049	1.936743	6.656569	0	0
26.71933	-0.1191436	0.5186018	0.1708986	0.7107821	-3.296477	0.008363436	0	0
26.7359	-0.1169377	0.5331385	0.1331435	0.8774357	-1.145583	5.056687	0	0
26.75248	-0.1149645	0.5460216	0.1190498	0.7772655	-0.42525	-3.022445	0	0
26.76903	-0.1128345	0.5546929	0.1286421	0.5237048	0.2895125	-7.65292	0	0
26.7856	-0.1079732	0.5639886	0.2934288	0.5610861	4.974704	1.128494	0	0
26.80217	-0.1046687	0.5698488	0.199458	0.353723	-2.836045	-6.258231	0	0
26.81874	-0.1012838	0.5759207	0.2043127	0.3665021	0.1465154	0.3856763	0	0
26.8353	-0.09860028	0.5783339	0.161979	0.1456582	-1.277635	-6.665082	0	0
26.85187	-0.09654105	0.579753	0.1242948	0.08566228	-1.137309	-1.810682	0	0
26.86843	-0.0928898	0.5823348	0.2204155	0.1558542	2.901094	2.118518	0	0
26.88507	-0.09239408	0.5826854	0.0297912	0.02106617	-5.740826	-4.059265	0	0
26.90157	-0.09236799	0.5826669	0.001581833	-0.001116588	-0.8513604	-0.6694769	0	0
26.9186	-0.0923419	0.5826485	0.001532395	-0.001085191	-0.001474804	0.0009366075	0	0
26.9347	-0.09228972	0.5826485	0.003239713	0	0.05152697	0.03275113	0	0
26.95127	-0.09226362	0.5826669	0.001574912	0.0011153	-0.05095062	0.03413336	0	0
26.97219	-0.09215925	0.5827038	0.004988391	0.001763332	0.09104834	0.01728506	0	0
27.00533	-0.0914286	0.5831835	0.02204721	0.01447482	0.3155313	0.2351202	0	0
27.0219	-0.08834836	0.585177	0.185988	0.1203681	3.298495	2.130577	0	0
27.03868	-0.08534481	0.5872639	0.1789254	0.1243218	-0.2117829	0.1185588	0	0
27.05503	-0.08508357	0.5874487	0.01598235	0.01130397	-4.917915	-3.411082	0	0
27.0716	-0.08508357	0.5874487	0	0	-0.4855908	-0.3434477	0	0
27.08816	-0.08505744	0.5874672	0.001577161	0.0011153	0.04759881	0.03365983	0	0
27.10473	-0.08508357	0.5874857	-0.001577161	0.0011153	-0.09519761	0	0	0
27.1213	-0.08508357	0.5874857	0	0	0.04759881	-0.03365983	0	0
27.13826	-0.08508357	0.5874857	0	0	0	0	0	0
27.15443	-0.08508357	0.5874857	0	0	0	0	0	0
27.171	-0.08508357	0.5874857	0	0	0	0	0	0
27.18756	-0.08505744	0.5875041	0.001577161	0.0011153	0.04760155	0.03366177	0	0
27.20413	-0.08503132	0.5875226	0.001576711	0.0011153	-1.357235E-05	0	0	0
27.2207	-0.08500519	0.5875411	0.001577161	0.0011153	1.357235E-05	0	0	0
27.23733	-0.08500519	0.5875411	0	0	-0.04751129	-0.03359795	0	0
27.25384	-0.08500519	0.5875411	0	0	0	0	0	0
27.2704	-0.08500519	0.5875411	0	0	0	0	0	0
27.28697	-0.08497906	0.5875226	0.001577161	-0.0011153	0.04760703	-0.03366565	0	0
27.30353	-0.08497906	0.5875226	0	0	-0.04759881	0.03365983	0	0
27.3201	-0.08495294	0.5875041	0.001576893	-0.001115429	0.04759346	-0.03366565	0	0
27.33667	-0.08492681	0.5874857	0.001577161	-0.0011153	8.091875E-06	3.875527E-06	0	0
27.35323	-0.08490068	0.5874672	0.001576711	-0.0011153	-1.357235E-05	0	0	0
27.36992	-0.0848223	0.5874857	0.004696965	0.001107269	0.09382918	0.06683491	0	0
27.38643	-0.08466554	0.5875596	0.009494213	0.004476146	0.1444984	0.1014743	0	0
27.40293	-0.08419522	0.5878922	0.0285033	0.02015663	0.5758167	0.4749878	0	0
27.4195	-0.08197378	0.5894262	0.1340861	0.09259152	3.192928	2.190503	0	0
27.43607	-0.07760698	0.5924407	0.263581	0.1819595	3.908165	2.69713	0	0
27.45263	-0.07731923	0.5926443	0.01736811	0.01228629	-7.430721	-5.120747	0	0
27.4692	-0.07731923	0.5926443	0	0	-0.5242007	-0.3708224	0	0
27.48577	-0.07729308	0.5926628	0.00157896	0.0011153	0.04765584	0.03366177	0	0
27.50251	-0.07713612	0.5927738	0.00937233	0.006630837	0.2339385	0.1655633	0	0
27.51903	-0.07705764	0.5928293	0.004752198	0.003360332	-0.1389081	-0.09833048	0	0
27.5686	-0.06936223	0.5980517	0.1552371	0.1053506	2.277114	1.543301	0	0
27.58517	-0.06585202	0.6001282	0.211877	0.1253382	0.8563727	0.3022045	0	0
27.60173	-0.06278579	0.6019277	0.1850778	0.1086159	-0.8087997	-0.5046802	0	0
27.6183	-0.06142264	0.6027443	0.08227994	0.04928908	-3.102446	-1.790486	0	0
27.63487	-0.05683346	0.6053625	0.2770031	0.1580345	5.876756	3.281942	0	0
27.65619	-0.05431494	0.6068861	0.1180959	0.07144374	-4.193545	-2.28512	0	0
27.67276	-0.05426247	0.6068861	0.003167363	0	-3.032951	-1.885393	0	0
27.68933	-0.05405256	0.6070348	0.01267013	0.00897637	0.286794	0.2709074	0	0
27.70589	-0.05363273	0.6073694	0.02534407	0.02019646	0.3825224	0.3386425	0	0
27.72246	-0.04880332	0.6108287	0.2915036	0.2088058	8.033173	5.69257	0	0
27.73903	-0.04594133	0.6129323	0.1727499	0.1269716	-3.583992	-2.469764	0	0
27.7557	-0.04326246	0.6148695	0.1607163	0.1162247	-0.36207	-0.3233548	0	0
27.77216	-0.04221175	0.6157268	0.06381777	0.05207006	-2.924572	-1.936302	0	0
27.78873	-0.04223802	0.6157454	-0.001585705	0.001122496	-1.980036	-1.542395	0	0
27.8053	-0.04223802	0.6157454	0	0	0.04785668	-0.033877	0	0
27.88795	-0.04218549	0.6156709	0.0006356276	-0.0009014076	0.006406104	-0.009084739	0	0
27.90452	-0.04213295	0.6156336	0.003171551	-0.002252447	0.02555852	-0.01361656	0	0
27.92108	-0.04213295	0.6155964	0	-0.002248849	-0.09572863	0.0001086053	0	0
27.93783	-0.04213295	0.615559	0	-0.002228329	0	0.0006160203	0	0
27.95421	-0.04215921	0.6155031	-0.001602826	-0.003411604	-0.04837618	-0.03571336	0	0
27.98736	-0.04218549	0.6154472	-0.000792579	-0.001686759	0.01635745	0.03482154	0	0
28.00391	-0.04221175	0.6154286	-0.001586759	-0.001123401	-0.01597955	0.01133522	0	0
28.02048	-0.04218549	0.61541	0.001585481	-0.001126094	0.09577698	-8.128765E-05	0	0
28.03705	-0.04210668	0.6153541	0.004756892	-0.003374683	0.09571337	-0.06786258	0	0
28.05362	-0.04205414	0.6153167	0.003171186	-0.002252187	-0.04785669	0.033877	0	0
28.07042	-0.04205414	0.6152795	0	-0.002216689	-0.09502285	0.00106368	0	0
28.08675	-0.04202787	0.6152608	0.001608858	-0.001142536	0.04855544	0.03241801	0	0
28.10332	-0.04197533	0.6152236	0.003171186	-0.00224859	0.04749287	-0.0336227	0	0
28.11996	-0.04144993	0.6148136	0.03157507	-0.02463749	0.8553599	-0.6742237	0	0
28.13645	-0.04118722	0.6146273	0.01592696	-0.01129596	-0.4722611	0.4026482	0	0
28.15302	-0.0404516	0.6138821	0.04440689	-0.04498417	0.86146	-1.019	0	0
28.16958	-0.0405567	0.6137704	-0.006343272	-0.006745769	-1.531731	1.154104	0	0
28.18615	-0.0407406	0.61364	-0.01110061	-0.007871863	-0.1435768	-0.03398556	0	0
28.20272	-0.04097705	0.6134351	-0.01427202	-0.01236544	-0.09571338	-0.1356166	0	0
28.21928	-0.04116095	0.6132675	-0.01110144	-0.01011802	0.09569388	0.06783132	0	0
28.23604	-0.04210668	0.6124108	-0.0564474	-0.0511299	-1.360945	-1.230868	0	0
28.25242	-0.04192279	0.6122805	0.01122723	-0.00795534	2.042542	1.303086	0	0
28.26898	-0.04181771	0.6121688	0.006342597	-0.006742171	-0.1482634	0.03682334	0	0
28.28557	-0.04176517	0.6121316	0.003167036	-0.002245487	-0.09577248	0.1356165	0	0
28.30212	-0.04168636	0.6120757	0.004764021	-0.003376139	0.0481999	-0.03412509	0	0
28.3191	-0.04163382	0.611964	0.003094112	-0.006577839	-0.04981302	-0.09550598	0	0
28.33525	-0.04160755	0.611871	0.001626336	-0.005759978	-0.04429756	0.02468311	0	0
28.35212	-0.04144993	0.6117221	0.009344038	-0.008830139	0.2337144	-0.09297343	0	0
28.38967	-0.03456518	0.6067746	0.1833491	-0.1317573	3.197531	-2.25892	0	0
28.40624	-0.02983325	0.603394	0.2856196	-0.2040532	1.889796	-1.335914	0	0
28.42317	-0.02709863	0.601204	0.1614561	-0.1292969	-3.705875	2.231234	0	0
28.43937	-0.02712492	0.6011855	-0.001623541	-0.001144459	-4.921754	3.867648	0	0
28.45594	-0.02723011	0.6010371	-0.006349005	-0.008958382	-0.1442254	-0.2384879	0	0
28.4725	-0.02757196	0.6004992	-0.02063634	-0.03247337	-0.4312173	-0.7097248	0	0
28.48922	-0.02723011	0.5982556	0.02044798	-0.1341985	1.234385	-3.056348	0	0
28.50564	-0.02817675	0.5887423	-0.05765712	-0.579432	-2.357081	-13.4364	0	0
28.52224	-0.02862376	0.5806012	-0.02692261	-0.4903252	0.9307304	2.69841	0	0
28.53877	-0.02828193	0.5762337	0.02068284	-0.2642564	1.436901	6.823558	0	0
28.55534	-0.02712492	0.5662655	0.06984508	-0.6017559	1.485601	-10.19867	0	0
28.5719	-0.02738789	0.5626305	-0.01587246	-0.2194084	-2.587109	11.53994	0	0
28.58847	-0.03022763	0.5570927	-0.1714074	-0.3342628	-4.694054	-3.466312	0	0
28.60504	-0.03269887	0.5543816	-0.1491639	-0.1636398	0.6713101	5.149412	0	0
28.6216	-0.03388176	0.546643	-0.07139992	-0.4671022	2.346922	-9.158515	0	0
28.63832	-0.03467031	0.5453638	-0.04716242	-0.07651009	0.728136	11.73406	0	0
28.65474	-0.03898025	0.5420395	-0.2625664	-0.2025186	-6.500906	-3.802944	0	0
28.67131	-0.04024142	0.5411632	-0.07612465	-0.05289403	5.652856	4.53657	0	0
28.68787	-0.04615141	0.5370214	-0.356728	-0.25	-8.468624	-5.94867	0	0
28.70444	-0.05008965	0.5342866	-0.2377121	-0.1650717	3.591905	2.563142	0	0
28.72101	-0.05583664	0.5302604	-0.346889	-0.243024	-3.294965	-2.352605	0	0
28.7379	-0.05895791	0.5280939	-0.1847838	-0.1282605	4.844934	3.430003	0	0
28.78728	-0.06307412	0.5251279	-0.08336218	-0.06006765	1.530455	1.029032	0	0
28.80395	-0.06304791	0.5251097	0.001572153	-0.001090407	1.285918	0.8929238	0	0
28.82041	-0.0630217	0.5250915	0.00159219	-0.001107925	0.000604709	-0.0005286856	0	0
28.83698	-0.06296927	0.5250188	0.003164215	-0.004389247	0.04759452	-0.09934502	0	0
28.85398	-0.06294306	0.5249642	0.001541295	-0.00321052	-0.04833983	0.0351092	0	0
28.87011	-0.06283821	0.524855	0.006501792	-0.006767445	0.1497167	-0.1073544	0	0
28.88668	-0.06283821	0.5247822	0	-0.004392339	-0.1988573	0.07264262	0	0
28.90325	-0.06163237	0.5234728	0.07279321	-0.07904433	2.196903	-2.253001	0	0
28.91981	-0.05764659	0.519801	0.2405822	-0.2216354	5.064174	-4.303655	0	0
28.93655	-0.05762036	0.5103428	0.001567531	-0.5652321	-7.177533	-10.3181	0	0
28.95295	-0.05982327	0.5047957	-0.1343132	-0.3382116	-4.100888	6.851493	0	0
28.96951	-0.06404387	0.4959066	-0.2547562	-0.5365477	-3.653274	-6.015924	0	0
29.00265	-0.0795685	0.4795934	-0.4685611	-0.4923634	-4.301928	0.889024	0	0
29.01921	-0.08247042	0.4761482	-0.1751602	-0.2079514	5.903465	5.7226	0	0
29.03578	-0.08944491	0.4699296	-0.4209814	-0.3753544	-7.418899	-5.052233	0	0
29.05235	-0.09202878	0.467822	-0.1559806	-0.1272327	7.998201	7.48876	0	0
29.07383	-0.09865239	0.4624205	-0.308299	-0.2514135	-4.003143	-3.263649	0	0
29.0904	-0.1009191	0.4606749	-0.1368217	-0.1053671	4.506439	3.838114	0	0
29.10697	-0.100841	0.4605489	0.004717092	-0.007602032	4.27165	2.950556	0	0
29.12353	-0.1007629	0.4604949	0.004717092	-0.003259556	0	0.1310562	0	0
29.1401	-0.1005023	0.460279	0.01572394	-0.01303283	0.3321873	-0.2949579	0	0
29.1567	-0.1004242	0.460153	0.004706796	-0.007585439	-0.3321348	0.1642228	0	0
29.17323	-0.1006847	0.4597572	-0.01576023	-0.02394775	-0.6177315	-0.4938441	0	0
29.1898	-0.1045125	0.4570768	-0.2310755	-0.1618056	-6.506093	-4.165592	0	0
29.20674	-0.1068806	0.4553683	-0.139799	-0.1008614	2.724308	1.818985	0	0
29.22293	-0.1086494	0.453858	-0.1092154	-0.09325867	0.9230151	0.2294506	0	0
29.2395	-0.1102615	0.4527074	-0.09730727	-0.06944904	0.3634668	0.7267335	0	0
29.25627	-0.1130164	0.4504786	-0.1642406	-0.1328765	-2.007572	-1.902416	0	0
29.27278	-0.1115612	0.4486817	0.08813928	-0.1088407	7.582794	0.7221588	0	0
29.2892	-0.1060741	0.4448913	0.3342433	-0.2308877	7.474331	-3.706642	0	0
29.30577	-0.09714066	0.4387331	0.5392203	-0.3717099	6.21448	-4.269438	0	0
29.32233	-0.09085445	0.4344086	0.3794365	-0.2610271	-4.822287	3.340412	0	0
29.3389	-0.08550156	0.4307315	0.3231012	-0.2219484	-1.700202	1.179397	0	0
29.35547	-0.08147712	0.4279701	0.2429156	-0.1666799	-2.420006	1.668008	0	0
29.37203	-0.07731923	0.4251198	0.2509994	-0.1720657	0.2439833	-0.1625545	0	0
29.40517	-0.07574952	0.4240085	0.04737419	-0.03353817	-4.097105	2.787287	0	0
29.42189	-0.07124762	0.4204604	0.2692243	-0.212186	4.4498	-3.583262	0	0
29.4384	-0.07326338	0.4188301	-0.1220647	-0.09872553	-11.7732	3.413828	0	0
29.45491	-0.07985613	0.4142806	-0.399365	-0.2755903	-8.39746	-5.355981	0	0
29.47193	-0.08364648	0.41172	-0.2227587	-0.1504876	5.268124	3.731785	0	0
29.488	-0.08960155	0.4076383	-0.3705402	-0.2539702	-4.466483	-3.127613	0	0
29.50457	-0.09351591	0.4049179	-0.2362715	-0.1642046	4.11381	2.750294	0	0
29.52113	-0.09737527	0.4022695	-0.2329512	-0.1598567	0.1002057	0.1312191	0	0
29.5377	-0.09935598	0.400874	-0.1195562	-0.08423577	3.422269	2.282245	0	0
29.55427	-0.09935598	0.400874	0	0	3.608212	2.54224	0	0
29.57084	-0.09938204	0.4008561	-0.001572664	-0.001081122	-0.04746308	-0.03262833	0	0
29.5874	-0.09938204	0.4008561	0	0	0.04746308	0.03262833	0	0
29.60397	-0.09938204	0.4008561	0	0	0	0	0	0
29.6371	-0.09938204	0.4008561	0	0	0	0	0	0
29.68681	-0.09938204	0.4008561	0	0	0	0	0	0
29.70337	-0.09938204	0.4008561	0	0	0	0	0	0
29.73963	-0.09938204	0.4008561	0	0	0	0	0	0
29.7562	-0.09938204	0.4008561	0	0	0	0	0	0
29.77314	-0.09938204	0.4008561	0	0	0	0	0	0
29.78933	-0.09938204	0.4008561	0	0	0	0	0	0
29.80617	-0.09938204	0.4008561	0	0	0	0	0	0
29.82268	-0.09938204	0.4008561	0	0	0	0	0	0
29.83903	-0.09938204	0.4008561	0	0	0	0	0	0
29.85559	-0.09938204	0.4008561	0	0	0	0	0	0
29.87216	-0.09938204	0.4008561	0	0	0	0	0	0
29.88873	-0.09938204	0.4008561	0	0	0	0	0	0
29.90529	-0.09935598	0.4008382	0.001573026	-0.001079572	0.04747402	-0.03258154	0	0
29.92186	-0.09935598	0.4008024	0	-0.002160196	-0.04747675	-0.03261519	0	0
29.93843	-0.09932993	0.4007845	0.001572845	-0.001079447	0.04746855	0.03261707	0	0
29.95499	-0.09953837	0.4004267	-0.01258176	-0.02159726	-0.4272114	-0.6192643	0	0
29.97178	-0.1002939	0.3998721	-0.04500531	-0.03303581	-0.9720538	-0.3429266	0	0
29.98813	-0.1065424	0.3955433	-0.3823074	-0.2648555	-10.18038	-6.996735	0	0
30.00469	-0.1124707	0.3913586	-0.3578338	-0.2525886	0.7436232	0.3727271	0	0
30.02126	-0.1181316	0.3872821	-0.3417319	-0.246087	0.4859851	0.1962291	0	0
30.03783	-0.1237849	0.3815262	-0.3411553	-0.3473433	0.01740128	-3.055746	0	0
30.05439	-0.1225149	0.373181	0.07667612	-0.5038361	12.61018	-4.722961	0	0
30.07096	-0.1212186	0.3657134	0.07824732	-0.4507469	0.04742439	1.60242	0	0
30.08787	-0.120674	0.3608013	0.0322075	-0.2905069	-1.375313	4.78673	0	0
30.12089	-0.1194289	0.3500856	0.03770574	-0.3245193	0.1101218	-0.6812201	0	0
30.1374	-0.1201552	0.3475855	-0.04398761	-0.1514129	-1.649307	3.494845	0	0
30.15391	-0.1201552	0.3475855	0	0	1.332073	4.585222	0	0
30.17036	-0.1201552	0.3475855	0	0	0	0	0	0
30.18693	-0.1201293	0.347532	0.001565468	-0.003232572	0.04741241	-0.09790301	0	0
30.2035	-0.1201293	0.347532	0	0	-0.04724592	0.09755923	0	0
30.22006	-0.1201293	0.347532	0	0	0	0	0	0
30.23663	-0.1201293	0.347532	0	0	0	0	0	0
30.25348	-0.1201293	0.347532	0	0	0	0	0	0
30.26976	-0.1201293	0.3474962	0	-0.002195006	0	-0.06624922	0	0
30.28633	-0.1201293	0.3474962	0	0	0	0.06682627	0	0
30.3029	-0.1200515	0.3473713	0.004696854	-0.007544468	0.1417513	-0.2276925	0	0
30.31953	-0.1199737	0.3473177	0.004678452	-0.003221391	-0.0005542428	0.1302084	0	0
30.33604	-0.1198959	0.3472284	0.004712588	-0.005407474	0.001029864	-0.06595332	0	0
30.3526	-0.119844	0.347157	0.003133912	-0.004313573	-0.04774349	0.03308255	0	0
30.36957	-0.1195846	0.3469427	0.01528649	-0.01262891	0.3625086	-0.2480444	0	0
30.38573	-0.1190657	0.3465855	0.03210187	-0.022097	0.5075184	-0.2857642	0	0
30.40229	-0.1151203	0.3438712	0.2381724	-0.1638565	6.296422	-4.331418	0	0
30.41886	-0.1101575	0.3404604	0.2995553	-0.2058719	1.852647	-1.2681	0	0
30.5017	-0.08356807	0.3220667	0.3209957	-0.2220553	0.2156949	-0.1628088	0	0
30.52546	-0.08035293	0.3198341	0.1352966	-0.0939469	-1.742052	1.201791	0	0
30.54203	-0.07792086	0.3181373	0.1468001	-0.1024188	0.2852277	-0.2100591	0	0
30.5587	-0.07726692	0.3176194	0.03921934	-0.0310659	-3.23636	2.146514	0	0
30.57516	-0.07729308	0.3176372	-0.001589206	0.001086327	-1.231604	0.9703563	0	0
30.59173	-0.07729308	0.3176015	0	-0.002156847	0.04811743	-0.09819572	0	0
30.60873	-0.07739771	0.3175301	-0.006152913	-0.004200664	-0.1832689	-0.06087654	0	0
30.62486	-0.07752851	0.317405	-0.008110493	-0.007754287	-0.05908328	-0.1072547	0	0
30.64143	-0.0783655	0.3168334	-0.05052131	-0.03450056	-1.29721	-0.8180825	0	0
30.658	-0.07935929	0.3161904	-0.05998518	-0.03881246	-0.2856199	-0.1301333	0	0
30.67456	-0.08756498	0.3105456	-0.4952964	-0.3407225	-13.13772	-9.111663	0	0
30.69113	-0.09719279	0.3039886	-0.5811359	-0.3957824	-2.590641	-1.66171	0	0
30.7077	-0.1055016	0.2982879	-0.5015178	-0.3440918	2.402879	1.560025	0	0
30.72426	-0.1129384	0.2931401	-0.4488896	-0.3107209	1.588323	1.007134	0	0
30.74083	-0.1182354	0.2895288	-0.3197279	-0.2179801	3.898107	2.798924	0	0
30.75784	-0.122826	0.2863281	-0.269847	-0.1881464	1.485483	0.8884647	0	0
30.77396	-0.128395	0.2825188	-0.3454568	-0.2362958	-2.282038	-1.453233	0	0
30.79087	-0.1305946	0.28107	-0.1301281	-0.08571358	6.520401	4.559803	0	0
30.80738	-0.1347831	0.278172	-0.2536666	-0.1755101	-3.697115	-2.687323	0	0
30.82366	-0.1349382	0.278172	-0.009520856	0	7.444181	5.351429	0	0
30.84755	-0.1349382	0.278172	0	0	0.2369876	0	0	0
30.86412	-0.1350157	0.2782257	-0.004678865	0.003239768	-0.115651	0.08007975	0	0
30.88069	-0.1350157	0.2782257	0	0	0.1412084	-0.0977764	0	0
30.89725	-0.1350673	0.2782615	-0.003119244	0.002158646	-0.09413896	0.06514806	0	0
30.91395	-0.1350932	0.2782794	-0.00154733	0.001072601	0.04725276	-0.03264722	0	0
30.94698	-0.1350932	0.2782794	0	0	0.03111921	-0.02157168	0	0
30.96352	-0.1350932	0.2782794	0	0	0	0	0	0
30.98009	-0.1350673	0.2782972	0.001559622	0.001079323	0.04710202	0.03259655	0	0
30.99701	-0.1350673	0.2782972	0	0	-0.0465682	-0.03222713	0	0
31.01353	-0.1350673	0.2782972	0	0	0	0	0	0
31.02979	-0.1350673	0.2782972	0	0	0	0	0	0
31.04655	-0.1350673	0.2782972	0	0	0	0	0	0
31.06293	-0.1350673	0.2782972	0	0	0	0	0	0
31.07949	-0.1350415	0.2782794	0.001559622	-0.001079323	0.04734474	-0.03276452	0	0
31.09609	-0.1350415	0.2782794	0	0	-0.04703158	0.0325478	0	0
31.11263	-0.1350415	0.2782794	0	0	0	0	0	0
31.1292	-0.1350415	0.2782794	0	0	0	0	0	0
31.14843	-0.1350157	0.2782972	0.001343403	0.0009296906	0.03752224	0.02596695	0	0
31.165	-0.1350157	0.2782972	0	0	-0.03752424	-0.02596833	0	0
31.18156	-0.1350157	0.2782972	0	0	0	0	0	0
31.19813	-0.1350157	0.2782972	0	0	0	0	0	0
31.2147	-0.1350157	0.2782972	0	0	0	0	0	0
31.23127	-0.1350415	0.2783151	-0.001559622	0.001079323	-0.04706948	0.03257403	0	0
31.24783	-0.1350415	0.2783151	0	0	0.04706948	-0.03257403	0	0
31.26471	-0.1350415	0.2783151	0	0	0	0	0	0
31.28122	-0.1350415	0.2783151	0	0	0	0	0	0
31.29753	-0.1350415	0.2783151	0	0	0	0	0	0
31.38037	-0.1350673	0.2782972	-0.0003119243	-0.0002158646	-0.003145994	-0.002177158	0	0
31.39693	-0.1350673	0.2782972	0	0	0.003137965	0.002171602	0	0
31.41381	-0.1350673	0.2782972	0	0	0	0	0	0
31.43007	-0.1350673	0.2782972	0	0	0	0	0	0
31.47977	-0.1350415	0.2782794	0.0005198739	-0.0003597744	0.007882346	-0.005454911	0	0
31.49637	-0.1350415	0.2782794	0	0	-0.0078404	0.005425883	0	0
31.5129	-0.1350415	0.2782794	0	0	0	0	0	0
31.52947	-0.1350415	0.2782794	0	0	0	0	0	0
31.54604	-0.1350415	0.2782794	0	0	0	0	0	0
31.56292	-0.1350415	0.2782794	0	0	0	0	0	0
31.57917	-0.1350415	0.2782794	0	0	0	0	0	0
31.59574	-0.1350415	0.2782794	0	0	0	0	0	0
31.61246	-0.1350415	0.2782794	0	0	0	0	0	0
31.62887	-0.1350673	0.2782972	-0.001574303	0.001089483	-0.04751528	0.03288255	0	0
31.64548	-0.1350673	0.2782972	0	0	0.04767447	-0.03299271	0	0
31.662	-0.1350673	0.2782972	0	0	0	0	0	0
31.67857	-0.1350673	0.2782972	0	0	0	0	0	0
31.69514	-0.1350673	0.2782972	0	0	0	0	0	0
31.71171	-0.1350673	0.2782972	0	0	0	0	0	0
31.72827	-0.1350673	0.2782972	0	0	0	0	0	0
31.74484	-0.1350673	0.2782972	0	0	0	0	0	0
31.76141	-0.1350673	0.2782972	0	0	0	0	0	0
31.79756	-0.1350673	0.2782972	0	0	0	0	0	0
31.81413	-0.1350673	0.2782972	0	0	0	0	0	0
31.83069	-0.1350415	0.2782794	0.001559622	-0.001079323	0.04706948	-0.03257403	0	0
31.84726	-0.1350415	0.2782794	0	0	-0.04706948	0.03257403	0	0
31.86414	-0.1350415	0.2782794	0	0	0	0	0	0
31.88039	-0.1350415	0.2782794	0	0	0	0	0	0
31.89717	-0.1350415	0.2782794	0	0	0	0	0	0
31.91368	-0.1350415	0.2782794	0	0	0	0	0	0
31.9301	-0.1350415	0.2782794	0	0	0	0	0	0
31.94666	-0.1350415	0.2782794	0	0	0	0	0	0
31.96323	-0.1350415	0.2782794	0	0	0	0	0	0
31.9798	-0.1350415	0.2782794	0	0	0	0	0	0
31.99636	-0.1350415	0.2782794	0	0	0	0	0	0
32.01293	-0.1350415	0.2782794	0	0	0	0	0	0
32.0295	-0.1350415	0.2782794	0	0	0	0	0	0
32.04606	-0.1350415	0.2782794	0	0	0	0	0	0
32.06263	-0.1350415	0.2782794	0	0	0	0	0	0
32.0792	-0.1350673	0.2782972	-0.001559622	0.001079323	-0.04706948	0.03257403	0	0
32.09581	-0.1350673	0.2782972	0	0	0.04700994	-0.03253283	0	0
32.16203	-0.1350673	0.2782972	0	0	0	0	0	0
32.17859	-0.1350673	0.2782972	0	0	0	0	0	0
32.19516	-0.1350673	0.2782972	0	0	0	0	0	0
32.21188	-0.1350415	0.2782794	0.001545036	-0.001069229	0.04641021	-0.03211779	0	0
32.22829	-0.1350673	0.2782972	-0.001574486	0.001089609	-0.09414735	0.06515387	0	0
32.24491	-0.1350673	0.2782972	0	0	0.04767725	-0.03299464	0	0
32.26192	-0.1350673	0.2782972	0	0	0	0	0	0
32.278	-0.1350673	0.2782972	0	0	0	0	0	0
32.29495	-0.1350673	0.2782972	0	0	0	0	0	0
32.31113	-0.1350415	0.2782794	0.001596756	-0.001105021	0.04819018	-0.03334961	0	0
32.3277	-0.1350415	0.2782794	0	0	-0.04875712	0.03374195	0	0
32.34426	-0.1350415	0.2782794	0	0	0	0	0	0
32.361	-0.1350415	0.2782794	0	0	0	0	0	0
32.37751	-0.1350415	0.2782794	0	0	0	0	0	0
32.39396	-0.1350415	0.2782794	0	0	0	0	0	0
32.41053	-0.1350415	0.2782794	0	0	0	0	0	0
32.4271	-0.1350415	0.2782794	0	0	0	0	0	0
32.44366	-0.1350415	0.2782794	0	0	0	0	0	0
32.46023	-0.1350415	0.2782794	0	0	0	0	0	0
32.48223	-0.1350415	0.2782794	0	0	0	0	0	0
32.49909	-0.1350415	0.2782794	0	0	0	0	0	0
32.51536	-0.1350415	0.2782794	0	0	0	0	0	0
32.53193	-0.1350415	0.2782794	0	0	0	0	0	0
32.54863	-0.1350415	0.2782794	0	0	0	0	0	0
32.56514	-0.1350415	0.2782794	0	0	0	0	0	0
32.58163	-0.1350415	0.2782794	0	0	0	0	0	0
32.59819	-0.1350415	0.2782794	0	0	0	0	0	0
32.61476	-0.1350415	0.2782794	0	0	0	0	0	0
32.63133	-0.1350415	0.2782794	0	0	0	0	0	0
32.6479	-0.1350415	0.2782794	0	0	0	0	0	0
32.66471	-0.1350415	0.2782794	0	0	0	0	0	0
32.68103	-0.1350415	0.2782794	0	0	0	0	0	0
32.69773	-0.1350415	0.2782794	0	0	0	0	0	0
32.71424	-0.1350415	0.2782794	0	0	0	0	0	0
32.73073	-0.1350415	0.2782794	0	0	0	0	0	0
32.7473	-0.1350415	0.2782794	0	0	0	0	0	0
32.76386	-0.1350415	0.2782794	0	0	0	0	0	0
32.78043	-0.1350415	0.2782794	0	0	0	0	0	0
32.797	-0.1350415	0.2782794	0	0	0	0	0	0
32.81356	-0.1350415	0.2782794	0	0	0	0	0	0
32.83033	-0.1350415	0.2782794	0	0	0	0	0	0
32.84669	-0.1350157	0.2782615	0.001578522	-0.001094223	0.04764537	-0.03302753	0	0
32.86326	-0.1349898	0.2782436	0.001559622	-0.001079323	-0.0005738428	0.0004524017	0	0
32.87983	-0.1349898	0.2782436	0	0	-0.04706948	0.03257403	0	0
32.8964	-0.1349898	0.2782436	0	0	0	0	0	0
32.91296	-0.1349898	0.2782436	0	0	0	0	0	0
32.92953	-0.1349898	0.2782436	0	0	0	0	0	0
32.9461	-0.1349898	0.2782436	0	0	0	0	0	0
32.96292	-0.1349898	0.2782436	0	0	0	0	0	0
32.97923	-0.1350157	0.2782257	-0.001584059	-0.001096235	-0.047807	-0.03308443	0	0
32.99594	-0.1350157	0.2782257	0	0	0.04796715	0.03319526	0	0
