Time	Pos X	Pos Y	Vel X	Vel Y	Acc X	Acc YForce X	Force Y
0.02078786	-0.2110718	0.3584794	0.0034277	-0.005821527	-5.567912E-05	9.456412E-05	0	0
0.04904846	-0.2110718	0.3584794	0	0	5.56897E-05	-9.458209E-05	0	0
0.06561598	-0.2110718	0.3584794	0	0	0	0	0	0
0.08249852	-0.2110718	0.3584794	0	0	0	0	0	0
0.09874985	-0.2110718	0.3584794	0	0	0	0	0	0
0.1153166	-0.2110718	0.3584794	0	0	0	0	0	0
0.1318833	-0.2110718	0.3584794	0	0	0	0	0	0
0.1484501	-0.2110466	0.3584973	0.001519192	0.001077556	0.04585068	0.03252168	0	0
0.1650172	-0.2110466	0.3584973	0	0	-0.04585014	-0.0325213	0	0
0.1815879	-0.2110466	0.3584973	0	0	0	0	0	0
0.1981518	-0.2110466	0.3584973	0	0	0	0	0	0
0.2147241	-0.2110466	0.3584973	0	0	0	0	0	0
0.2312865	-0.2110466	0.3584973	0	0	0	0	0	0
0.247854	-0.2110214	0.3584794	0.00151912	-0.001077505	0.04585342	-0.03252362	0	0
0.2651329	-0.2110214	0.3584794	0	0	-0.04488275	0.03183513	0	0
0.2809843	-0.2110214	0.3584794	0	0	0	0	0	0
0.2975515	-0.2110466	0.3584616	-0.001519155	-0.00107753	-0.04686064	-0.03323804	0	0
0.3141234	-0.2110466	0.3584616	0	0	0.04584189	0.03251544	0	0
0.330728	-0.2110466	0.3584616	0	0	0	0	0	0
0.3472556	-0.2110466	0.3584616	0	0	0	0	0	0
0.3638204	-0.2110466	0.3584616	0	0	0	0	0	0
0.3803903	-0.2110466	0.3584616	0	0	0	0	0	0
0.3972349	-0.2110466	0.3584616	0	0	0	0	0	0
0.4135249	-0.2110466	0.3584616	0	0	0	0	0	0
0.4302575	-0.2110466	0.3584616	0	0	0	0	0	0
0.4466552	-0.2110466	0.3584616	0	0	0	0	0	0
0.4632216	-0.2110466	0.3584616	0	0	0	0	0	0
0.4802944	-0.2110466	0.3584616	0	0	0	0	0	0
0.4963574	-0.2110466	0.3584616	0	0	0	0	0	0
0.5129234	-0.2110466	0.3584616	0	0	0	0	0	0
0.5294905	-0.2110214	0.3584437	0.001519158	-0.001079331	0.04585026	-0.03257567	0	0
0.5460568	-0.2110214	0.3584437	0	0	-0.04584968	0.03257526	0	0
0.5626248	-0.2110214	0.3584437	0	0	0	0	0	0
0.5791852	-0.2110214	0.3584437	0	0	0	0	0	0
0.5957519	-0.2110214	0.3584437	0	0	0	0	0	0
0.6123795	-0.2110214	0.3584437	0	0	0	0	0	0
0.6506894	-0.2110214	0.3584437	0	0	0	0	0	0
0.6672561	-0.2110214	0.3584437	0	0	0	0	0	0
0.6839555	-0.2110214	0.3584437	0	0	0	0	0	0
0.7004362	-0.2110214	0.3584437	0	0	0	0	0	0
0.7169567	-0.2110214	0.3584437	0	0	0	0	0	0
0.7335223	-0.2110214	0.3584437	0	0	0	0	0	0
0.7500882	-0.2110214	0.3584437	0	0	0	0	0	0
0.7666562	-0.2110214	0.3584437	0	0	0	0	0	0
0.7832229	-0.2110214	0.3584437	0	0	0	0	0	0
0.7997881	-0.2110214	0.3584437	0	0	0	0	0	0
0.8165202	-0.2109963	0.3584258	0.001503283	-0.001066903	0.04514728	-0.03204173	0	0
0.8329219	-0.2109963	0.3584258	0	0	-0.04536998	0.03219978	0	0
0.8494875	-0.2109963	0.3584258	0	0	0	0	0	0
0.8660562	-0.2109963	0.3584258	0	0	0	0	0	0
0.8826225	-0.2109963	0.3584258	0	0	0	0	0	0
0.8991889	-0.2109963	0.3584258	0	0	0	0	0	0
0.9157537	-0.2109963	0.3584258	0	0	0	0	0	0
0.93232	-0.2109963	0.3584258	0	0	0	0	0	0
0.9488868	-0.2109963	0.3584258	0	0	0	0	0	0
0.9654535	-0.2109963	0.3584258	0	0	0	0	0	0
0.9820206	-0.2109963	0.3584258	0	0	0	0	0	0
0.9985874	-0.2109963	0.3584258	0	0	0	0	0	0
1.015156	-0.2109963	0.3584258	0	0	0	0	0	0
1.03172	-0.2109963	0.3584258	0	0	0	0	0	0
1.048288	-0.2109963	0.3584258	0	0	0	0	0	0
1.064854	-0.2109963	0.3584258	0	0	0	0	0	0
1.081421	-0.2109963	0.3584258	0	0	0	0	0	0
1.097987	-0.2109963	0.3584258	0	0	0	0	0	0
1.114554	-0.2109963	0.3584258	0	0	0	0	0	0
1.131121	-0.2109963	0.3584258	0	0	0	0	0	0
1.147688	-0.2109963	0.3584258	0	0	0	0	0	0
1.164273	-0.2109963	0.3584258	0	0	0	0	0	0
1.247322	-0.2109711	0.358408	0.0003030501	-0.000214952	0.003041632	-0.002157415	0	0
1.263837	-0.2109711	0.358408	0	0	-0.003043755	0.002158921	0	0
1.280222	-0.2109711	0.358408	0	0	0	0	0	0
1.296787	-0.2109711	0.358408	0	0	0	0	0	0
1.313354	-0.2109711	0.358408	0	0	0	0	0	0
1.329921	-0.2109711	0.358408	0	0	0	0	0	0
1.350093	-0.2109711	0.358408	0	0	0	0	0	0
1.36666	-0.2109711	0.358408	0	0	0	0	0	0
1.383227	-0.2109711	0.358408	0	0	0	0	0	0
1.399794	-0.2109711	0.358408	0	0	0	0	0	0
1.416361	-0.2109711	0.358408	0	0	0	0	0	0
1.432952	-0.2109711	0.358408	0	0	0	0	0	0
1.449494	-0.2109711	0.358408	0	0	0	0	0	0
1.46606	-0.2109711	0.358408	0	0	0	0	0	0
1.482627	-0.2109711	0.358408	0	0	0	0	0	0
1.499499	-0.2109711	0.358408	0	0	0	0	0	0
1.515761	-0.210946	0.3583901	0.001546819	-0.001099634	0.04668443	-0.03318798	0	0
1.532327	-0.210946	0.3583901	0	0	-0.04711943	0.03349723	0	0
1.548894	-0.210946	0.3583901	0	0	0	0	0	0
1.565461	-0.210946	0.3583901	0	0	0	0	0	0
1.582057	-0.210946	0.3583901	0	0	0	0	0	0
1.598595	-0.210946	0.3583901	0	0	0	0	0	0
1.615581	-0.210946	0.3583901	0	0	0	0	0	0
1.631728	-0.210946	0.3583901	0	0	0	0	0	0
1.648294	-0.210946	0.3583901	0	0	0	0	0	0
1.664861	-0.210946	0.3583901	0	0	0	0	0	0
1.681427	-0.2109711	0.358408	-0.001518324	0.001079377	-0.04582443	0.03257661	0	0
1.698139	-0.2109711	0.358408	0	0	0.04562548	-0.03243518	0	0
1.714687	-0.2109711	0.358408	0	0	0	0	0	0
1.731128	-0.2109711	0.358408	0	0	0	0	0	0
1.748176	-0.2109711	0.358408	0	0	0	0	0	0
1.764261	-0.2109711	0.358408	0	0	0	0	0	0
1.780828	-0.2109711	0.358408	0	0	0	0	0	0
1.797406	-0.210946	0.3583901	0.001517276	-0.001078632	0.04577748	-0.03254323	0	0
1.813962	-0.210946	0.3583901	0	0	-0.0457923	0.03255377	0	0
1.830529	-0.210946	0.3583901	0	0	0	0	0	0
1.847246	-0.210946	0.3583901	0	0	0	0	0	0
1.863661	-0.210946	0.3583901	0	0	0	0	0	0
1.896794	-0.210946	0.3583901	0	0	0	0	0	0
1.913361	-0.210946	0.3583901	0	0	0	0	0	0
1.930303	-0.210946	0.3583901	0	0	0	0	0	0
1.946494	-0.210946	0.3583901	0	0	0	0	0	0
1.963061	-0.210946	0.3583901	0	0	0	0	0	0
1.979629	-0.210946	0.3583901	0	0	0	0	0	0
1.996195	-0.210946	0.3583901	0	0	0	0	0	0
2.016732	-0.210946	0.3583901	0	0	0	0	0	0
2.033299	-0.210946	0.3583901	0	0	0	0	0	0
2.049891	-0.210946	0.3583901	0	0	0	0	0	0
2.132947	-0.210946	0.3583901	0	0	0	0	0	0
2.149267	-0.210946	0.3583901	0	0	0	0	0	0
2.165833	-0.210946	0.3583901	0	0	0	0	0	0
2.1824	-0.210946	0.3583901	0	0	0	0	0	0
2.198967	-0.210946	0.3583901	0	0	0	0	0	0
2.215533	-0.210946	0.3583901	0	0	0	0	0	0
2.232517	-0.210946	0.3583901	0	0	0	0	0	0
2.248666	-0.210946	0.3583901	0	0	0	0	0	0
2.265541	-0.210946	0.3583901	0	0	0	0	0	0
2.281799	-0.210946	0.3583901	0	0	0	0	0	0
2.298563	-0.210946	0.3583901	0	0	0	0	0	0
2.314933	-0.210946	0.3583901	0	0	0	0	0	0
2.331588	-0.210946	0.3583901	0	0	0	0	0	0
2.348066	-0.210946	0.3583901	0	0	0	0	0	0
2.364633	-0.210946	0.3583901	0	0	0	0	0	0
2.398134	-0.2109711	0.358408	-0.0007508256	0.0005337622	-0.01499629	0.01066087	0	0
2.414335	-0.210946	0.3583901	0.001552589	-0.001103736	0.04634503	-0.03294669	0	0
2.4309	-0.210946	0.3583901	0	0	-0.04738367	0.03368507	0	0
2.447466	-0.210946	0.3583901	0	0	0	0	0	0
2.464182	-0.210946	0.3583901	0	0	0	0	0	0
2.4806	-0.210946	0.3583901	0	0	0	0	0	0
2.497167	-0.210946	0.3583901	0	0	0	0	0	0
2.513735	-0.210946	0.3583901	0	0	0	0	0	0
2.5303	-0.210946	0.3583901	0	0	0	0	0	0
2.546867	-0.210946	0.3583901	0	0	0	0	0	0
2.563434	-0.210946	0.3583901	0	0	0	0	0	0
2.580264	-0.210946	0.3583901	0	0	0	0	0	0
2.596569	-0.210946	0.3583901	0	0	0	0	0	0
2.613134	-0.210946	0.3583901	0	0	0	0	0	0
2.629703	-0.210946	0.3583901	0	0	0	0	0	0
2.646313	-0.210946	0.3583901	0	0	0	0	0	0
2.662834	-0.210946	0.3583901	0	0	0	0	0	0
2.679401	-0.210946	0.3583901	0	0	0	0	0	0
2.699277	-0.210946	0.3583901	0	0	0	0	0	0
2.715859	-0.210946	0.3583901	0	0	0	0	0	0
2.732411	-0.210946	0.3583901	0	0	0	0	0	0
2.848454	-0.2109711	0.358408	-0.000216758	0.0001540933	-0.001634739	0.001162137	0	0
2.864945	-0.2109711	0.358408	0	0	0.001635495	-0.001162674	0	0
2.881512	-0.2109711	0.358408	0	0	0	0	0	0
2.898078	-0.2109711	0.358408	0	0	0	0	0	0
2.914645	-0.2109711	0.358408	0	0	0	0	0	0
2.931512	-0.2109963	0.3584258	-0.001492176	0.001058394	-0.04463061	0.03165629	0	0
2.964345	-0.210795	0.3588187	0.006130913	0.01196683	0.1533813	0.2194845	0	0
3.016716	-0.2110466	0.3603905	-0.004804584	0.03001172	-0.128344	0.2117831	0	0
3.033584	-0.2136367	0.362909	-0.1535565	0.1493081	-2.148393	1.722973	0	0
3.049852	-0.2157218	0.366678	-0.1281711	0.2316841	0.7661038	2.486023	0	0
3.066418	-0.2168766	0.3701794	-0.0697068	0.2113629	1.7806	-0.6189073	0	0
3.08312	-0.2165754	0.3759327	0.01803393	0.3444691	2.637412	4.001061	0	0
3.09963	-0.2127066	0.382831	0.2343179	0.4178098	6.512141	2.208232	0	0
3.116118	-0.207597	0.3862452	0.3099026	0.2070729	2.290544	-6.386247	0	0
3.132684	-0.2029814	0.3895527	0.2786221	0.1996531	-0.9463477	-0.224474	0	0
3.149251	-0.1978257	0.3932004	0.3111967	0.2201801	0.9831386	0.6195272	0	0
3.165818	-0.1936985	0.3960798	0.2491311	0.1738116	-1.873198	-1.399445	0	0
3.182384	-0.1897677	0.398924	0.2372717	0.1716767	-0.3579325	-0.06443522	0	0
3.198951	-0.1871777	0.400713	0.1563364	0.1079876	-2.442704	-1.922196	0	0
3.215518	-0.184636	0.4025737	0.1534238	0.1123226	-0.08790431	0.1308374	0	0
3.232224	-0.1841783	0.4029316	0.02740117	0.02142144	-3.787618	-2.732041	0	0
3.248651	-0.1842292	0.4029674	-0.003096745	0.002178787	-0.9204487	-0.5807568	0	0
3.265217	-0.1842292	0.4029674	0	0	0.0938584	-0.06603628	0	0
3.281785	-0.1842292	0.4029674	0	0	0	0	0	0
3.298351	-0.1842546	0.4029853	-0.001534482	0.001079354	-0.04631142	0.03257544	0	0
3.314918	-0.1843054	0.4030569	-0.003070851	0.004321139	-0.04636971	0.09784149	0	0
3.331484	-0.1843309	0.4030747	-0.001535381	0.001079354	0.04634257	-0.09784149	0	0
3.348308	-0.1843817	0.4031105	-0.003022965	0.002127501	-0.04455108	0.03139056	0	0
3.364618	-0.1843817	0.4031105	0	0	0.09123589	-0.06420996	0	0
3.38133	-0.1843817	0.4031105	0	0	0	0	0	0
3.397751	-0.1843817	0.4031105	0	0	0	0	0	0
3.414318	-0.1843817	0.4031105	0	0	0	0	0	0
3.430884	-0.1843817	0.4031105	0	0	0	0	0	0
3.447451	-0.1843817	0.4031105	0	0	0	0	0	0
3.464019	-0.1843563	0.4031284	0.001535227	0.001081044	0.04633223	0.03262527	0	0
3.480585	-0.1843309	0.4031463	0.001534548	0.001079401	-2.047973E-05	-4.959546E-05	0	0
3.497152	-0.1843054	0.4031642	0.001535337	0.001079323	2.381483E-05	-2.34705E-06	0	0
3.517084	-0.1841783	0.4032537	0.006380236	0.004490239	0.1327423	0.09345347	0	0
3.533938	-0.1838985	0.4034505	0.01659995	0.01167725	0.2778164	0.1953744	0	0
3.550451	-0.1836187	0.4036474	0.01694406	0.01192049	0.01031282	0.007289616	0	0
3.566785	-0.183288	0.40388	0.02024734	0.01424265	0.1005659	0.07069658	0	0
3.583474	-0.1831862	0.4039516	0.006098389	0.004289408	-0.4284621	-0.3014067	0	0
3.599918	-0.182041	0.4047568	0.06963776	0.04896844	1.917691	1.348464	0	0
3.616497	-0.1797493	0.4063318	0.1382399	0.09500029	2.077428	1.393948	0	0
3.633052	-0.17041	0.4128838	0.5641255	0.3957685	12.85362	9.077464	0	0
3.649619	-0.1623479	0.4185255	0.4866412	0.3405416	-2.339357	-1.667375	0	0
3.666185	-0.1529538	0.4251198	0.567045	0.3980424	2.426661	1.735427	0	0
3.683043	-0.1466759	0.4295301	0.3724022	0.2616111	-5.823296	-4.081731	0	0
3.699318	-0.1397153	0.4344086	0.4276839	0.2997586	1.66848	1.151344	0	0
3.715885	-0.1356616	0.4375486	0.2446914	0.1895364	-5.571961	-3.35617	0	0
3.732578	-0.1342146	0.4396305	0.08668534	0.1247215	-4.750719	-1.94877	0	0
3.749092	-0.138812	0.4483583	-0.2783874	0.5284876	-10.99379	12.159	0	0
3.765585	-0.140799	0.4533366	-0.1204744	0.3018496	4.784173	-6.86628	0	0
3.782152	-0.1443572	0.4621145	-0.2147825	0.5298513	-2.852669	6.896687	0	0
3.799127	-0.1461608	0.4689928	-0.106243	0.4051896	3.235913	-3.716568	0	0
3.815285	-0.146238	0.4700918	-0.004781728	0.06801397	3.062217	-10.17635	0	0
3.881552	-0.1558058	0.4850264	-0.1443833	0.2253709	-1.693687	1.9091	0	0
3.898195	-0.1574491	0.4891087	-0.09873576	0.2452905	0.5505695	0.240257	0	0
3.914685	-0.1539819	0.4937543	0.2102572	0.2817194	9.325828	1.099476	0	0
3.931252	-0.1475256	0.4982588	0.3897116	0.2719001	5.42864	-0.2970435	0	0
3.947819	-0.1442284	0.5006481	0.1990275	0.1442251	-5.755023	-3.85335	0	0
3.964385	-0.1415728	0.502803	0.160294	0.130073	-1.169014	-0.4271243	0	0
3.980953	-0.1419339	0.5047595	-0.02179423	0.1180923	-5.495512	-0.3615814	0	0
3.997519	-0.1470364	0.5085294	-0.3080043	0.2275668	-8.638087	3.30404	0	0
4.014085	-0.1517198	0.5169126	-0.2827022	0.5060337	0.7636586	8.404571	0	0
4.030791	-0.1525683	0.524855	-0.05078995	0.4754346	6.970187	-0.919664	0	0
4.047223	-0.152234	0.5297505	0.02033971	0.2979288	2.146512	-5.356674	0	0
4.063787	-0.1520541	0.5366932	0.01086558	0.4191424	-0.2871322	3.67362	0	0
4.080352	-0.1514626	0.5405426	0.03570259	0.2323731	0.7496905	-5.63752	0	0
4.09692	-0.1565249	0.5451993	-0.3055397	0.2810647	-10.29886	1.469536	0	0
4.113485	-0.1591171	0.5478129	-0.1564902	0.1577802	4.498517	-3.720896	0	0
4.130361	-0.1591684	0.554107	-0.00304023	0.3729726	4.588799	6.435158	0	0
4.146619	-0.1571924	0.5636215	0.1215401	0.5852116	3.75995	6.405572	0	0
4.179752	-0.1558058	0.571375	0.04184701	0.2340094	-1.61349	-7.110545	0	0
4.218856	-0.1558058	0.582833	0	0.2930131	-0.5792977	0.816802	0	0
4.235435	-0.1571924	0.5909978	-0.08363384	0.4924895	-1.501973	3.58238	0	0
4.251989	-0.1550353	0.5942915	0.1303073	0.1989681	6.457129	-8.859005	0	0
4.268556	-0.1548298	0.5944396	0.01240538	0.008937052	-3.559774	-5.737542	0	0
4.285123	-0.1548298	0.5944396	0	0	-0.3744004	-0.2697247	0	0
4.301689	-0.1545985	0.5945692	0.01395645	0.007825542	0.4212186	0.2361821	0	0
4.318255	-0.1539048	0.5950691	0.04187744	0.03017601	0.8427058	0.6745774	0	0
4.334823	-0.1489672	0.5985893	0.2980276	0.212473	7.730738	5.501814	0	0
4.35139	-0.1459804	0.6007403	0.1802793	0.1298354	-3.553599	-2.493973	0	0
4.368028	-0.1425786	0.6032269	0.2044657	0.149454	0.7283961	0.590834	0	0
4.384523	-0.140928	0.604378	0.1000683	0.06978854	-3.150903	-2.404448	0	0
4.40109	-0.1409022	0.6043595	0.001556968	-0.00111893	-2.979638	-2.144714	0	0
4.417656	-0.1404894	0.6045823	0.02491671	0.01344914	0.7050287	0.4396842	0	0
4.434223	-0.1398702	0.6049538	0.03737893	0.02242538	0.376127	0.2709152	0	0
4.45079	-0.1352482	0.6079456	0.2789807	0.1805851	7.291662	4.773339	0	0
4.467356	-0.133284	0.6093589	0.1185642	0.08531101	-4.841521	-2.875461	0	0
4.48411	-0.1326119	0.6098053	0.04012203	0.02664722	-2.354209	-1.760621	0	0
4.517133	-0.1265309	0.6091543	0.1841406	-0.01971338	2.893273	-0.9313653	0	0
4.533646	-0.1230592	0.6068489	0.2102469	-0.1396192	0.5270199	-2.420593	0	0
4.55019	-0.1176126	0.6029856	0.3292157	-0.233514	3.598928	-2.840411	0	0
4.567169	-0.1143152	0.600629	0.1942051	-0.1387929	-4.027392	2.825546	0	0
4.583323	-0.111951	0.5989415	0.146348	-0.10446	-1.444372	1.0362	0	0
4.59989	-0.1069066	0.595421	0.3044959	-0.212513	4.833216	-3.302247	0	0
4.616457	-0.1048769	0.5939768	0.1225166	-0.08717223	-5.492383	3.782954	0	0
4.633023	-0.1024037	0.5923667	0.1492891	-0.09718864	0.8080184	-0.3023046	0	0
4.732423	-0.06163237	0.5658614	0.4101742	-0.2666527	2.249654	-1.461315	0	0
4.748991	-0.05609897	0.5622084	0.3339965	-0.2204949	-0.6568895	0.3980243	0	0
4.765557	-0.05029964	0.5583023	0.3500684	-0.2357881	0.4850662	-0.4615624	0	0
4.782123	-0.04775314	0.5567812	0.1537157	-0.0918197	-5.926279	4.345225	0	0
4.79869	-0.04468077	0.554931	0.1854542	-0.1116772	0.9579104	-0.5993256	0	0
4.815257	-0.04008378	0.5517273	0.2774749	-0.1933787	2.77723	-2.465793	0	0
4.831857	-0.03398691	0.5475204	0.3672892	-0.2534327	2.707951	-1.810662	0	0
4.84839	-0.02765085	0.5431534	0.3832285	-0.264132	0.4810724	-0.3229195	0	0
4.864957	-0.02118104	0.5386996	0.3905293	-0.2688419	0.2205669	-0.1422925	0	0
4.881523	-0.01889249	0.5371855	0.1381453	-0.09139154	-7.617293	5.355695	0	0
4.89809	-0.01599864	0.5352892	0.1746734	-0.1144658	1.10245	-0.6964028	0	0
4.914656	-0.01231517	0.5327377	0.2223538	-0.1540219	1.43906	-1.193857	0	0
4.931426	-0.008184028	0.529878	0.2463427	-0.170523	0.7196172	-0.4949994	0	0
4.968452	0.004710491	0.5209277	0.348252	-0.2417289	1.894355	-1.32362	0	0
4.98478	0.008999757	0.517966	0.2626962	-0.1813854	-1.603541	1.130997	0	0
5.001475	0.01302558	0.5151514	0.2411459	-0.168597	-0.6525958	0.3872648	0	0
5.01791	0.02123365	0.5093454	0.4994074	-0.3532588	7.795355	-5.573826	0	0
5.034499	0.0265201	0.5054843	0.318687	-0.2327599	-5.472421	3.648848	0	0
5.051044	0.03640496	0.4984579	0.5974252	-0.4246646	8.412457	-5.79178	0	0
5.06761	0.04100332	0.4952192	0.2775816	-0.1955021	-9.659573	6.92092	0	0
5.084177	0.04355139	0.4933926	0.1538064	-0.110256	-3.735758	2.572879	0	0
5.100744	0.04363019	0.4933023	0.004756354	-0.005456135	-4.498468	3.162958	0	0
5.11731	0.04363019	0.4933023	0	0	-0.1435532	0.1646736	0	0
5.133877	0.04365645	0.4933203	0.001585256	0.001090116	0.04784449	0.03290072	0	0
5.150444	0.04365645	0.4933203	0	0	-0.04784449	-0.03290072	0	0
5.167011	0.04357766	0.4934107	-0.004756217	0.005457777	-0.143547	0.1647208	0	0
5.183577	0.04299979	0.4939894	-0.0348819	0.0349307	-0.9092212	0.8895202	0	0
5.200144	0.04205414	0.4948937	-0.05707977	0.05458137	-0.6699523	0.5930753	0	0
5.217131	0.0385861	0.4976797	-0.2041658	0.1640162	-4.383615	3.261494	0	0
5.233277	0.03430233	0.5012456	-0.2653041	0.2208449	-1.845235	1.715166	0	0
5.249844	0.02865005	0.5078586	-0.3411818	0.3991739	-2.319468	5.451252	0	0
5.26641	0.02912334	0.5146794	0.02856942	0.4117279	11.1596	0.3788947	0	0
5.282977	0.02899187	0.5194557	-0.007935613	0.2883063	-1.101771	-3.725032	0	0
5.299544	0.02570486	0.5302786	-0.1984101	0.6532899	-5.748698	11.01554	0	0
5.316198	0.02344307	0.5353074	-0.1358105	0.3019563	1.884354	-10.57572	0	0
5.349244	0.01568292	0.5462409	-0.2348303	0.3308599	-1.99236	0.5815639	0	0
5.382378	0.005052588	0.5629791	-0.3208288	0.5051664	-1.299468	2.633835	0	0
5.398943	-0.001868419	0.5678453	-0.4177889	0.2937523	-1.950916	-4.253823	0	0
5.415511	-0.006315705	0.5718348	-0.2684388	0.2408042	4.507591	-1.598048	0	0
5.432077	-0.007526174	0.5767679	-0.07306612	0.2977686	5.896443	1.719216	0	0
5.448644	-0.009736534	0.5820028	-0.1334253	0.3159972	-1.821723	0.5501637	0	0
5.46521	-0.01699836	0.5875411	-0.4383374	0.3343047	-9.202662	0.5525464	0	0
5.481777	-0.02136517	0.5907204	-0.2635886	0.1919092	5.27408	-4.297631	0	0
5.51491	-0.02723011	0.5957358	-0.1770119	0.1513708	1.741994	-0.8156649	0	0
5.53185	-0.02896558	0.6011113	-0.1024503	0.3173329	1.489068	3.314424	0	0
5.548044	-0.02741418	0.6048795	0.09580164	0.2326934	5.983428	-2.554498	0	0
5.56461	-0.03114782	0.6089684	-0.2253691	0.2468123	-9.803562	0.4309725	0	0
5.597744	-0.03020134	0.6137704	0.02856556	0.1449285	5.109323	-2.049966	0	0
5.614408	-0.03191022	0.6155031	-0.102546	0.1039795	-2.632867	-0.8223016	0	0
5.63092	-0.03188393	0.6155218	0.001592145	0.001129866	3.13892	-3.100082	0	0
5.647444	-0.03188393	0.6155218	0	0	-0.04819531	-0.0342018	0	0
5.682825	-0.03185764	0.6155404	0.0007430398	0.0005272982	0.0143156	0.01015907	0	0
5.699391	-0.03185764	0.6155404	0	0	-0.01430364	-0.01015058	0	0
5.715959	-0.03185764	0.6155404	0	0	0	0	0	0
5.732525	-0.03185764	0.6155404	0	0	0	0	0	0
5.749092	-0.03185764	0.6155404	0	0	0	0	0	0
5.765658	-0.03183135	0.6155218	0.001586875	-0.001126126	0.04789406	-0.03398802	0	0
5.782529	-0.03183135	0.6155218	0	0	-0.04745831	0.03367879	0	0
5.798792	-0.03180506	0.6155031	0.001616514	-0.001147159	0.04878788	-0.03462232	0	0
5.815358	-0.03180506	0.6155031	0	0	-0.04923999	0.03494316	0	0
5.831925	-0.03180506	0.6155031	0	0	0	0	0	0
5.848492	-0.03180506	0.6155031	0	0	0	0	0	0
5.865088	-0.03180506	0.6154659	0	-0.002244713	0	-0.06768811	0	0
5.881625	-0.03180506	0.6154659	0	0	0	0.0677485	0	0
5.898191	-0.03177877	0.6154472	0.001586921	-0.001126159	0.04793821	-0.03401935	0	0
5.914759	-0.03172619	0.61541	0.00317366	-0.00224859	0.04788924	-0.03387601	0	0
5.931326	-0.03167361	0.6153727	0.00317366	-0.002252187	0	-0.0001085788	0	0
5.948146	-0.03162104	0.6153354	0.003125886	-0.002214741	-0.001430876	0.00112155	0	0
5.964658	-0.03156846	0.6152982	0.003184383	-0.002256187	0.001754982	-0.001243433	0	0
5.981026	-0.03148959	0.6152422	0.00481846	-0.003415778	0.04969918	-0.03526805	0	0
5.997591	-0.03135814	0.6151118	0.007935058	-0.007876141	0.09463248	-0.1354346	0	0
6.014193	-0.03130556	0.6150745	0.003167096	-0.00224394	-0.1437546	0.1698115	0	0
6.030725	-0.03125298	0.6150373	0.003180342	-0.002253324	0.0003997488	-0.000283228	0	0
6.047294	-0.03122669	0.6149814	0.001586805	-0.003374392	-0.04814152	-0.03386801	0	0
6.063859	-0.03114782	0.6148882	0.004761536	-0.005624244	0.09581771	-0.06790362	0	0
6.080425	-0.03114782	0.6148509	0	-0.002252252	-0.1437179	0.1017772	0	0
6.096992	-0.03112153	0.614795	0.001586921	-0.003374878	0.04789544	-0.03388236	0	0
6.113558	-0.03109524	0.6147018	0.001586988	-0.005623435	2.016791E-06	-0.06786453	0	0
6.130125	-0.03109524	0.6145528	0	-0.008994617	-0.04789677	-0.1017454	0	0
6.146692	-0.03122669	0.6143106	-0.007934486	-0.01462123	-0.2394667	-0.1698139	0	0
6.163259	-0.0314633	0.6137704	-0.01428263	-0.03260823	-0.1915928	-0.5428643	0	0
6.179825	-0.03156846	0.6134351	-0.006347684	-0.02023847	0.2394908	0.3733414	0	0
6.196393	-0.03154217	0.6133047	0.001586784	-0.007871636	0.2394662	0.3732372	0	0
6.248044	-0.03114782	0.6127647	0.007634824	-0.01045504	0.08865599	-0.03786912	0	0
6.264612	-0.03054313	0.6122991	0.03649794	-0.02809757	0.4230939	-0.2586154	0	0
6.281178	-0.02654639	0.6093961	0.2412573	-0.1752382	6.179739	-4.440776	0	0
6.300071	-0.0247844	0.6078527	0.09326306	-0.08169279	-4.173667	2.638125	0	0
6.316638	-0.024837	0.6078898	-0.003174805	0.00224133	-2.719588	2.366977	0	0
6.333205	-0.0248633	0.6078713	-0.00158755	-0.00111893	0.04790344	-0.1014129	0	0
6.349929	-0.024837	0.6078527	0.001572658	-0.001111998	0.09492854	0.0002082338	0	0
6.366339	-0.0248896	0.6078155	-0.003205341	-0.002266519	-0.1442044	-0.03484452	0	0
6.382953	-0.0248896	0.6078155	0	0	0.09706143	0.06863284	0	0
6.416039	-0.02491589	0.6074995	-0.0007948627	-0.009551639	-0.01599328	-0.1921867	0	0
6.432605	-0.024837	0.6071835	0.004762425	-0.01907578	0.1119235	-0.1918157	0	0
6.449172	-0.0244951	0.6068675	0.02063807	-0.01907274	0.4791486	9.202751E-05	0	0
6.465739	-0.02339047	0.606087	0.06667563	-0.04710886	1.389456	-0.8461561	0	0
6.482306	-0.01944492	0.6032269	0.238161	-0.1726427	5.175512	-3.788673	0	0
6.498872	-0.01555138	0.6003693	0.235028	-0.172493	-0.09455772	0.00451941	0	0
6.515439	-0.01334131	0.5987005	0.1334036	-0.1007325	-3.067162	2.165828	0	0
6.532057	-0.01326238	0.5986449	0.00474966	-0.003346293	-3.876815	2.934603	0	0
6.548573	-0.01326238	0.5986449	0	0	-0.1433471	0.1009928	0	0
6.565139	-0.01326238	0.5986449	0	0	0	0	0	0
6.581706	-0.01318345	0.5985893	0.004764562	-0.003356791	0.143801	-0.1013125	0	0
6.598606	-0.01286771	0.5983298	0.01868254	-0.01535608	0.4158739	-0.3585427	0	0
6.614839	-0.01223623	0.5978479	0.03890105	-0.02968672	0.6102223	-0.4325184	0	0
6.631405	-0.01207836	0.5976996	0.009529403	-0.008947846	-0.8954847	0.6322881	0	0
6.64814	-0.01205205	0.597644	0.00157225	-0.003323028	-0.2389404	0.1689041	0	0
6.664539	-0.0119468	0.5973846	0.006418165	-0.01582219	0.1462542	-0.3772362	0	0
6.681106	-0.01178893	0.5971252	0.00952946	-0.01565783	0.09438124	0.004985747	0	0
6.697672	-0.01165737	0.596662	0.00794152	-0.02795967	-0.04792621	-0.3712864	0	0
6.714239	-0.01336762	0.5951617	-0.1032344	-0.09055781	-3.35544	-1.889297	0	0
6.730805	-0.02181233	0.5882617	-0.509738	-0.4164976	-12.26866	-9.837164	0	0
6.747373	-0.0244425	0.5798084	-0.1587574	-0.5102464	10.59277	-2.829386	0	0
6.763939	-0.02357458	0.5664675	0.05239077	-0.8053041	6.372648	-8.905116	0	0
6.780506	-0.02304855	0.5598606	0.03175212	-0.3988034	-0.6229025	12.26875	0	0
6.797072	-0.02257511	0.5501538	0.02857841	-0.585937	-0.09578703	-5.647949	0	0
6.813639	-0.02360088	0.5370579	-0.06191726	-0.7904938	-2.731283	-6.173802	0	0
6.830206	-0.02662528	0.5344871	-0.1825534	-0.1551707	-3.64086	19.17437	0	0
6.84678	-0.03393434	0.5300783	-0.4409848	-0.266003	-7.797791	-3.344205	0	0
6.863791	-0.03616843	0.52864	-0.131331	-0.08455151	9.219852	5.402667	0	0
6.879906	-0.04060924	0.5256373	-0.2755831	-0.1863385	-4.354727	-3.072779	0	0
6.896472	-0.04302606	0.5240366	-0.1458879	-0.09662297	3.968579	2.745232	0	0
6.913039	-0.04935462	0.5200554	-0.3820039	-0.2403146	-7.126302	-4.336809	0	0
6.929605	-0.05536442	0.5163679	-0.3627622	-0.2225844	0.580733	0.5351136	0	0
6.946172	-0.05866943	0.514262	-0.199497	-0.1271155	4.927494	2.881339	0	0
6.962862	-0.06338865	0.5111772	-0.2827688	-0.1848357	-2.503957	-1.735629	0	0
6.999538	-0.07504302	0.5031472	-0.3177622	-0.2189418	-0.6557295	-0.6391004	0	0
7.016105	-0.08048366	0.4993809	-0.328407	-0.2273372	-0.1999273	-0.1576804	0	0
7.032671	-0.09064565	0.4923078	-0.6133965	-0.4269475	-8.601247	-6.024426	0	0
7.04924	-0.09669748	0.488115	-0.3652682	-0.2530669	7.488418	5.247652	0	0
7.065805	-0.1005284	0.4854237	-0.2312617	-0.1624658	4.044441	2.734425	0	0
7.082371	-0.1064643	0.4812715	-0.3583248	-0.2506458	-3.835159	-2.661547	0	0
7.098938	-0.1154579	0.474886	-0.5428674	-0.3854409	-5.569827	-4.068358	0	0
7.115504	-0.1209592	0.4709567	-0.3320714	-0.2371827	6.36202	4.474572	0	0
7.132481	-0.1289386	0.4652288	-0.4700263	-0.3374038	-4.112763	-2.98783	0	0
7.148638	-0.1335167	0.4620065	-0.28335	-0.1994304	5.634063	4.164165	0	0
7.165205	-0.1403604	0.4570588	-0.4130866	-0.2986433	-3.964525	-3.031773	0	0
7.18177	-0.149173	0.4506224	-0.531993	-0.3885471	-3.588809	-2.713457	0	0
7.198528	-0.1556517	0.4459151	-0.386615	-0.2809094	4.362717	3.230149	0	0
7.214905	-0.1637572	0.4401691	-0.4949292	-0.3508607	-3.268929	-2.111135	0	0
7.231471	-0.1675716	0.4375307	-0.2302517	-0.1592633	8.034347	5.815986	0	0
7.248063	-0.1703589	0.4355389	-0.1679908	-0.1200443	1.877689	1.182779	0	0
7.297738	-0.189057	0.4224135	-0.376412	-0.2642273	-3.145195	-2.175803	0	0
7.31461	-0.1901737	0.4215893	-0.06618623	-0.04885191	4.661726	3.236421	0	0
7.330871	-0.1901737	0.4216251	0	0.002203015	1.997562	1.540885	0	0
7.347438	-0.1901484	0.4216072	0.001531783	-0.001081153	0.04666176	-0.1000436	0	0
7.364146	-0.1901737	0.4216251	-0.001518843	0.00107202	-0.09168021	0.0647091	0	0
7.380571	-0.1901484	0.4216072	0.001544991	-0.001090475	0.09247069	-0.06526703	0	0
7.397138	-0.1901484	0.4216072	0	0	-0.04682941	0.03305282	0	0
7.413704	-0.1901484	0.4216072	0	0	0	0	0	0
7.430272	-0.1901737	0.4216251	-0.001531695	0.001081091	-0.04622732	0.03262785	0	0
7.446838	-0.1901737	0.4216251	0	0	0.04622732	-0.03262785	0	0
7.463405	-0.1901737	0.4216251	0	0	0	0	0	0
7.47997	-0.1901737	0.4216251	0	0	0	0	0	0
7.496538	-0.1901737	0.4216251	0	0	0	0	0	0
7.51325	-0.1901737	0.4216251	0	0	0	0	0	0
7.529671	-0.1901737	0.4216251	0	0	0	0	0	0
7.546275	-0.1901737	0.4216251	0	0	0	0	0	0
7.562804	-0.1901737	0.4216251	0	0	0	0	0	0
7.579371	-0.1901737	0.4216251	0	0	0	0	0	0
7.595937	-0.1901737	0.4216251	0	0	0	0	0	0
7.620393	-0.1901737	0.4216251	0	0	0	0	0	0
7.63696	-0.1901737	0.4216251	0	0	0	0	0	0
7.653527	-0.1901737	0.4216251	0	0	0	0	0	0
7.670094	-0.1901737	0.4216251	0	0	0	0	0	0
7.686873	-0.1901737	0.4216251	0	0	0	0	0	0
7.703227	-0.1901737	0.4216251	0	0	0	0	0	0
7.719794	-0.1901737	0.4216251	0	0	0	0	0	0
7.736408	-0.1901737	0.4216251	0	0	0	0	0	0
7.752927	-0.1901737	0.4216251	0	0	0	0	0	0
7.769494	-0.1901991	0.421643	-0.001531783	0.001081153	-0.04629727	0.03267723	0	0
7.786061	-0.1901991	0.421643	0	0	0.04622998	-0.03262973	0	0
7.802628	-0.1902245	0.4216609	-0.001531783	0.001082952	-0.04622998	0.03268403	0	0
7.819193	-0.1902245	0.4216609	0	0	0.04623197	-0.03268544	0	0
7.83576	-0.1902245	0.4216609	0	0	0	0	0	0
7.852327	-0.1902245	0.4216609	0	0	0	0	0	0
7.868894	-0.1902245	0.4216609	0	0	0	0	0	0
7.885513	-0.1902245	0.4216609	0	0	0	0	0	0
7.902028	-0.1902245	0.4216609	0	0	0	0	0	0
7.918594	-0.1901991	0.421643	0.001531827	-0.001082983	0.04630595	-0.03273773	0	0
7.935549	-0.1901991	0.421643	0	0	-0.04569666	0.03230697	0	0
7.951727	-0.1901991	0.421643	0	0	0	0	0	0
7.968294	-0.1901991	0.421643	0	0	0	0	0	0
7.985086	-0.1901991	0.421643	0	0	0	0	0	0
8.001428	-0.1901991	0.421643	0	0	0	0	0	0
8.017994	-0.1901991	0.421643	0	0	0	0	0	0
8.03456	-0.1901737	0.4216251	0.001531827	-0.001081184	0.04623331	-0.03263208	0	0
8.051131	-0.1901484	0.421643	0.001531387	0.001080873	-1.330418E-05	0.06524538	0	0
8.067696	-0.1901484	0.421643	0	0	-0.04621601	-0.03261987	0	0
8.084262	-0.1901737	0.4216251	-0.001531827	-0.001081184	-0.04623597	-0.03263396	0	0
8.150527	-0.1901484	0.4216072	0.0003829569	-0.000270296	0.02311665	0.009789624	0	0
8.167093	-0.1901484	0.4216072	0	0	-0.004623331	0.003263208	0	0
8.18366	-0.1901484	0.4216072	0	0	0	0	0	0
8.200235	-0.1901484	0.4216072	0	0	0	0	0	0
8.216793	-0.1901484	0.4216072	0	0	0	0	0	0
8.23336	-0.1901484	0.4216072	0	0	0	0	0	0
8.249927	-0.1901484	0.4216072	0	0	0	0	0	0
8.266493	-0.1901737	0.4216251	-0.001531827	0.001081184	-0.04623331	0.03263208	0	0
8.302942	-0.1901737	0.4216251	0	0	0.02889384	-0.02039366	0	0
8.319509	-0.1901737	0.4216251	0	0	0	0	0	0
8.336075	-0.1901991	0.421643	-0.001531827	0.001081184	-0.04623331	0.03263208	0	0
8.352841	-0.1901991	0.421643	0	0	0.04595553	-0.03243602	0	0
8.369208	-0.1902245	0.4216609	-0.001550482	0.001096172	-0.04679499	0.03308348	0	0
8.385865	-0.1902245	0.4216609	0	0	0.0469504	-0.03319335	0	0
8.402341	-0.1902245	0.4216609	0	0	0	0	0	0
8.418908	-0.1902245	0.4216609	0	0	0	0	0	0
8.452715	-0.1902245	0.4216609	0	0	0	0	0	0
8.469423	-0.1902245	0.4216609	0	0	0	0	0	0
8.485935	-0.1902245	0.4216609	0	0	0	0	0	0
8.502446	-0.1902245	0.4216609	0	0	0	0	0	0
8.518982	-0.1901991	0.421643	0.001534655	-0.001084982	0.04643893	-0.03283175	0	0
8.535548	-0.1901991	0.421643	0	0	-0.04636133	0.03277689	0	0
8.552482	-0.1901737	0.4216251	0.001498613	-0.001057741	0.0447351	-0.03157463	0	0
8.568682	-0.1901484	0.4216072	0.001566455	-0.001105625	0.002047537	-0.001445179	0	0
8.602016	-0.190123	0.4215893	0.0007612684	-0.0005373133	-0.01625497	0.01147297	0	0
8.618382	-0.1900722	0.4215534	0.003101326	-0.002190778	0.04708385	-0.03326906	0	0
8.634948	-0.1900215	0.4215176	0.003063655	-0.002162368	-0.001143921	0.0008626971	0	0
8.651551	-0.18992	0.4214459	0.006113584	-0.004316844	0.09194913	-0.06495302	0	0
8.668081	-0.1897931	0.4213563	0.007676831	-0.005421378	0.04718023	-0.03333588	0	0
8.684648	-0.1897423	0.4213205	0.003063655	-0.002162368	-0.1393864	0.09847048	0	0
8.701587	-0.1896916	0.4212846	0.002996214	-0.002116527	-0.002012845	0.001368176	0	0
8.717781	-0.1895646	0.421195	0.007836884	-0.005531918	0.1460959	-0.1030797	0	0
8.73461	-0.1894631	0.4211234	0.006032706	-0.004259109	-0.05463418	0.03854324	0	0
8.750915	-0.1891839	0.4208904	0.01712471	-0.01428613	0.3347671	-0.3026249	0	0
8.767481	-0.1870761	0.4194033	0.1272352	-0.08976527	3.349752	-2.296206	0	0
8.784047	-0.1810482	0.4151581	0.3638662	-0.2562568	7.141946	-5.025015	0	0
8.800613	-0.1776596	0.4127764	0.2045489	-0.1437687	-4.808481	3.395094	0	0
8.81718	-0.1718665	0.4087124	0.3496902	-0.2453209	4.380626	-3.065027	0	0
8.833747	-0.168339	0.4062423	0.2129208	-0.1490941	-4.12783	2.904214	0	0
8.850313	-0.168339	0.4062423	0	0	-6.426146	4.499798	0	0
8.866879	-0.1684925	0.4063497	-0.009263824	0.006481708	-0.2795989	0.1956296	0	0
8.883446	-0.1684669	0.4063318	0.00154442	-0.001079385	0.3262122	-0.2282074	0	0
8.900013	-0.1684925	0.4063139	-0.001544331	-0.001081122	-0.0932214	-5.241824E-05	0	0
8.916738	-0.1684925	0.4063139	0	0	0.04638772	0.0324741	0	0
8.933146	-0.168518	0.4062602	-0.001558323	-0.003272841	-0.04703163	-0.09877738	0	0
8.949759	-0.1685692	0.4062244	-0.003079255	-0.002154492	-0.04605826	0.03386685	0	0
8.986927	-0.1717132	0.4040589	-0.08459102	-0.05826149	-1.515636	-1.043258	0	0
9.003493	-0.184458	0.395114	-0.7693219	-0.5399463	-12.74301	-8.964274	0	0
9.020061	-0.1861105	0.3939515	-0.09974294	-0.07016859	20.20852	14.17833	0	0
9.036627	-0.1892347	0.391752	-0.1885866	-0.1327734	-2.681383	-1.88947	0	0
9.053194	-0.1891839	0.3917877	0.003064378	0.002158646	5.784204	4.072373	0	0
9.069845	-0.1891839	0.3917877	0	0	-0.09224946	-0.06498347	0	0
9.086327	-0.1891839	0.3917877	0	0	0	0	0	0
9.102893	-0.1891839	0.3917877	0	0	0	0	0	0
9.11946	-0.1891839	0.3917877	0	0	0	0	0	0
9.136392	-0.1891839	0.3917877	0	0	0	0	0	0
9.152594	-0.1891839	0.3917877	0	0	0	0	0	0
9.16916	-0.1891839	0.3917877	0	0	0	0	0	0
9.185726	-0.1891585	0.3918056	0.001532727	0.001079385	0.04626045	0.03257778	0	0
9.202292	-0.1891839	0.3918235	-0.001532727	0.001079385	-0.09252091	0	0	0
9.218951	-0.1891839	0.3918235	0	0	0.04613165	-0.03248708	0	0
9.235461	-0.1891839	0.3918235	0	0	0	0	0	0
9.251993	-0.1891839	0.3918235	0	0	0	0	0	0
9.268559	-0.1891839	0.3918235	0	0	0	0	0	0
9.285126	-0.1891839	0.3918235	0	0	0	0	0	0
9.318258	-0.1892093	0.3918414	-0.0007659137	0.0005396926	-0.0154111	0.01085926	0	0
9.335032	-0.1892093	0.3918414	0	0	0.0153472	-0.01081423	0	0
9.351543	-0.1892854	0.391895	-0.004612416	0.003248816	-0.1385728	0.09760559	0	0
9.369716	-0.1892854	0.391895	0	0	0.1329833	-0.09366852	0	0
9.386284	-0.1893362	0.3919308	-0.003064202	0.002158522	-0.08820271	0.06213282	0	0
9.403089	-0.1893616	0.3919487	-0.001510095	0.001064071	0.04656797	-0.03279461	0	0
9.419592	-0.1893616	0.3919487	0	0	0.04533725	-0.03194639	0	0
9.435983	-0.1893616	0.3919487	0	0	0	0	0	0
9.452614	-0.189387	0.3919666	-0.00152675	0.001075176	-0.04623444	0.03255947	0	0
9.469126	-0.189387	0.3919666	0	0	0.04606549	-0.03244048	0	0
9.485682	-0.189387	0.3919666	0	0	0	0	0	0
9.502249	-0.1893616	0.3919487	0.001532727	-0.001079385	0.04627377	-0.03258716	0	0
9.519161	-0.1893616	0.3919487	0	0	-0.0457821	0.03224092	0	0
9.535382	-0.1893616	0.3919487	0	0	0	0	0	0
9.572839	-0.1893108	0.3919129	0.001355392	-0.0009547815	0.02525062	-0.01778735	0	0
9.589406	-0.1892854	0.391895	0.001531739	-0.001079323	0.003264256	-0.00230531	0	0
9.605972	-0.1892854	0.391895	0	0	-0.04622931	0.03257497	0	0
9.622539	-0.1892854	0.391895	0	0	0	0	0	0
9.639105	-0.1892854	0.391895	0	0	0	0	0	0
9.655671	-0.1892854	0.391895	0	0	0	0	0	0
9.672237	-0.1892854	0.391895	0	0	0	0	0	0
9.688804	-0.1892854	0.3918593	0	-0.00215877	0	-0.06515557	0	0
9.705371	-0.1893108	0.3918771	-0.001531739	0.001079323	-0.04622931	0.09772866	0	0
9.721937	-0.1893108	0.3918771	0	0	0.04622931	-0.03257497	0	0
9.738503	-0.1892854	0.391895	0.001531827	0.001079385	0.04623331	0.03257778	0	0
9.75507	-0.1893108	0.3919129	-0.001531827	0.001079385	-0.09246662	0	0	0
9.771636	-0.1893108	0.3919129	0	0	0.04623331	-0.03257778	0	0
9.788202	-0.1893108	0.3919129	0	0	0	0	0	0
9.804769	-0.1893108	0.3919129	0	0	0	0	0	0
9.821335	-0.1893362	0.3919308	-0.001532727	0.001079385	-0.04626045	0.03257778	0	0
9.837901	-0.1893362	0.3919308	0	0	0.04626045	-0.03257778	0	0
9.854467	-0.1893362	0.3919308	0	0	0	0	0	0
9.871406	-0.1893362	0.3919308	0	0	0	0	0	0
9.887601	-0.1893362	0.3919308	0	0	0	0	0	0
9.904167	-0.1893108	0.3919129	0.001532727	-0.001079385	0.04678429	-0.03294668	0	0
9.92094	-0.1893108	0.3919129	0	0	-0.0459733	0.03237557	0	0
9.937451	-0.1893108	0.3919129	0	0	0	0	0	0
9.953868	-0.1893108	0.3919129	0	0	0	0	0	0
9.987002	-0.1892854	0.391895	0.0007658696	-0.0005396615	0.01545619	-0.01089103	0	0
10.00357	-0.1893108	0.3918771	-0.001531916	-0.001079447	-0.0462333	-0.01086093	0	0
10.02013	-0.1893108	0.3918771	0	0	0.0462373	0.0325806	0	0
10.0367	-0.1893108	0.3918771	0	0	0	0	0	0
10.05327	-0.1893108	0.3918771	0	0	0	0	0	0
10.06983	-0.1893108	0.3918771	0	0	0	0	0	0
10.08656	-0.1893108	0.3918771	0	0	0	0	0	0
10.10297	-0.1893108	0.3918771	0	0	0	0	0	0
10.11953	-0.1893108	0.3918771	0	0	0	0	0	0
10.1361	-0.1893108	0.3918771	0	0	0	0	0	0
10.15267	-0.1893108	0.3918771	0	0	0	0	0	0
10.16923	-0.1893108	0.3918771	0	0	0	0	0	0
10.1858	-0.1893108	0.3918771	0	0	0	0	0	0
10.20605	-0.1893108	0.3918771	0	0	0	0	0	0
10.22262	-0.1893108	0.3918771	0	0	0	0	0	0
10.23918	-0.1893108	0.3918771	0	0	0	0	0	0
10.25575	-0.1893108	0.3918771	0	0	0	0	0	0
10.27269	-0.1893108	0.3918771	0	0	0	0	0	0
10.28888	-0.1893108	0.3918771	0	0	0	0	0	0
10.30571	-0.1893108	0.3918771	0	0	0	0	0	0
10.32202	-0.1893108	0.3918771	0	0	0	0	0	0
10.33873	-0.1893108	0.3918771	0	0	0	0	0	0
10.35515	-0.1893108	0.3918771	0	0	0	0	0	0
10.37172	-0.1893108	0.3918771	0	0	0	0	0	0
10.38828	-0.1893108	0.3918771	0	0	0	0	0	0
10.40485	-0.1892854	0.3918593	0.001531827	-0.001079385	0.04623331	-0.03257778	0	0
10.42142	-0.1892854	0.3918593	0	0	-0.04623331	0.03257778	0	0
10.43798	-0.1892854	0.3918593	0	0	0	0	0	0
10.45481	-0.1892854	0.3918593	0	0	0	0	0	0
10.47112	-0.1892854	0.3918593	0	0	0	0	0	0
10.48834	-0.1892854	0.3918593	0	0	0	0	0	0
10.50425	-0.1892854	0.3918593	0	0	0	0	0	0
10.52086	-0.1892601	0.3918414	0.001528591	-0.001076473	0.04700009	-0.03309865	0	0
10.53738	-0.1892601	0.3918414	0	0	-0.0461343	0.03248894	0	0
10.55395	-0.1892601	0.3918414	0	0	0	0	0	0
10.57051	-0.1892601	0.3918414	0	0	0	0	0	0
10.58741	-0.1892601	0.3918414	0	0	0	0	0	0
10.60365	-0.1892854	0.3918593	-0.001563509	0.001101063	-0.04718816	0.0332311	0	0
10.62021	-0.1892854	0.3918593	0	0	0.04765867	-0.03356244	0	0
10.63694	-0.1892854	0.3918593	0	0	0	0	0	0
10.65335	-0.1892854	0.3918593	0	0	0	0	0	0
10.66996	-0.1892854	0.3918593	0	0	0	0	0	0
10.68648	-0.1892854	0.3918593	0	0	0	0	0	0
10.70305	-0.1892854	0.3918593	0	0	0	0	0	0
10.75275	-0.1892854	0.3918593	0	0	0	0	0	0
10.76932	-0.1892854	0.3918593	0	0	0	0	0	0
10.78605	-0.1892854	0.3918593	0	0	0	0	0	0
10.80245	-0.1892854	0.3918593	0	0	0	0	0	0
10.81901	-0.1892854	0.3918593	0	0	0	0	0	0
10.83558	-0.1892854	0.3918593	0	0	0	0	0	0
10.85215	-0.1892854	0.3918593	0	0	0	0	0	0
10.86871	-0.1892854	0.3918593	0	0	0	0	0	0
10.88561	-0.1892854	0.3918593	0	0	0	0	0	0
10.90185	-0.1892854	0.3918593	0	0	0	0	0	0
10.92168	-0.1892854	0.3918593	0	0	0	0	0	0
10.93824	-0.1892854	0.3918593	0	0	0	0	0	0
10.95481	-0.1892854	0.3918593	0	0	0	0	0	0
10.97138	-0.1892854	0.3918593	0	0	0	0	0	0
10.98795	-0.1892854	0.3918593	0	0	0	0	0	0
11.0047	-0.1892854	0.3918593	0	0	0	0	0	0
11.02121	-0.1892854	0.3918593	0	0	0	0	0	0
11.03764	-0.1892854	0.3918593	0	0	0	0	0	0
11.05424	-0.1892854	0.3918593	0	0	0	0	0	0
11.07078	-0.1892854	0.3918593	0	0	0	0	0	0
11.08735	-0.1892854	0.3918593	0	0	0	0	0	0
11.10391	-0.1892854	0.3918593	0	0	0	0	0	0
11.12048	-0.1892854	0.3918593	0	0	0	0	0	0
11.13729	-0.1892854	0.3918593	0	0	0	0	0	0
11.1538	-0.1892854	0.3918593	0	0	0	0	0	0
11.17018	-0.1892854	0.3918593	0	0	0	0	0	0
11.18683	-0.1892854	0.3918593	0	0	0	0	0	0
11.20331	-0.1892854	0.3918593	0	0	0	0	0	0
11.21988	-0.1892854	0.3918593	0	0	0	0	0	0
11.23644	-0.1892854	0.3918593	0	0	0	0	0	0
11.25301	-0.1892854	0.3918593	0	0	0	0	0	0
11.26958	-0.1892854	0.3918593	0	0	0	0	0	0
11.28614	-0.1892854	0.3918593	0	0	0	0	0	0
11.30291	-0.1892854	0.3918593	0	0	0	0	0	0
11.31928	-0.1892854	0.3918593	0	0	0	0	0	0
11.33593	-0.1892854	0.3918593	0	0	0	0	0	0
11.35241	-0.1892854	0.3918593	0	0	0	0	0	0
11.36898	-0.1892854	0.3918593	0	0	0	0	0	0
11.46838	-0.1892601	0.3918414	0.0002554496	-0.0001798941	0.0022028	-0.001551268	0	0
11.48494	-0.1892601	0.3918414	0	0	-0.0022028	0.001551268	0	0
11.50155	-0.1892601	0.3918414	0	0	0	0	0	0
11.51807	-0.1892601	0.3918414	0	0	0	0	0	0
11.53464	-0.1892601	0.3918414	0	0	0	0	0	0
11.55121	-0.1892601	0.3918414	0	0	0	0	0	0
11.56777	-0.1892601	0.3918414	0	0	0	0	0	0
11.58434	-0.1892601	0.3918414	0	0	0	0	0	0
11.60091	-0.1892601	0.3918414	0	0	0	0	0	0
11.61747	-0.1892601	0.3918414	0	0	0	0	0	0
11.63822	-0.1892601	0.3918414	0	0	0	0	0	0
11.68818	-0.1892854	0.3918593	-0.0005082077	0.0003578927	-0.007187773	0.005061812	0	0
11.70469	-0.1892854	0.3918593	0	0	0.007645104	-0.005383876	0	0
11.72105	-0.1892854	0.3918593	0	0	0	0	0	0
11.73771	-0.1892854	0.3918593	0	0	0	0	0	0
11.75424	-0.1892854	0.3918593	0	0	0	0	0	0
11.77075	-0.1892854	0.3918593	0	0	0	0	0	0
11.78732	-0.1892854	0.3918593	0	0	0	0	0	0
11.80388	-0.1892854	0.3918593	0	0	0	0	0	0
11.82045	-0.1892854	0.3918593	0	0	0	0	0	0
11.83702	-0.1892854	0.3918593	0	0	0	0	0	0
11.85358	-0.1892854	0.3918593	0	0	0	0	0	0
11.87031	-0.1892854	0.3918593	0	0	0	0	0	0
11.88682	-0.1892854	0.3918593	0	0	0	0	0	0
11.90333	-0.1892854	0.3918593	0	0	0	0	0	0
11.91985	-0.1892854	0.3918593	0	0	0	0	0	0
11.93642	-0.1892854	0.3918593	0	0	0	0	0	0
11.95298	-0.1892854	0.3918593	0	0	0	0	0	0
11.96955	-0.1892854	0.3918593	0	0	0	0	0	0
11.98639	-0.1892854	0.3918593	0	0	0	0	0	0
12.00268	-0.1892854	0.3918593	0	0	0	0	0	0
12.01925	-0.1892854	0.3918593	0	0	0	0	0	0
12.03592	-0.1892854	0.3918593	0	0	0	0	0	0
12.05238	-0.1892854	0.3918593	0	0	0	0	0	0
12.06895	-0.1892854	0.3918593	0	0	0	0	0	0
12.08552	-0.1892854	0.3918593	0	0	0	0	0	0
12.10208	-0.1892854	0.3918593	0	0	0	0	0	0
12.11865	-0.1892854	0.3918593	0	0	0	0	0	0
12.13521	-0.1892854	0.3918593	0	0	0	0	0	0
12.152	-0.1892854	0.3918593	0	0	0	0	0	0
12.16835	-0.1892854	0.3918593	0	0	0	0	0	0
12.18491	-0.1892854	0.3918593	0	0	0	0	0	0
12.20148	-0.1892854	0.3918593	0	0	0	0	0	0
12.23461	-0.1892854	0.3918593	0	0	0	0	0	0
12.25118	-0.1892854	0.3918593	0	0	0	0	0	0
12.2704	-0.1892854	0.3918593	0	0	0	0	0	0
12.28699	-0.1892854	0.3918593	0	0	0	0	0	0
12.30361	-0.1892854	0.3918593	0	0	0	0	0	0
12.3201	-0.1892854	0.3918593	0	0	0	0	0	0
12.33666	-0.1892854	0.3918593	0	0	0	0	0	0
12.35323	-0.1892854	0.3918593	0	0	0	0	0	0
12.3698	-0.1892854	0.3918593	0	0	0	0	0	0
12.38636	-0.1892854	0.3918593	0	0	0	0	0	0
12.40293	-0.1892854	0.3918593	0	0	0	0	0	0
12.4195	-0.1892854	0.3918593	0	0	0	0	0	0
12.4362	-0.1892854	0.3918593	0	0	0	0	0	0
12.45271	-0.1892854	0.3918593	0	0	0	0	0	0
12.46923	-0.1892854	0.3918593	0	0	0	0	0	0
12.48576	-0.1892854	0.3918593	0	0	0	0	0	0
12.55229	-0.1893108	0.3918771	-0.0003814745	0.0002688018	-0.004592849	0.0032363	0	0
12.58531	-0.1893616	0.3919844	-0.001537366	0.00324891	-0.01161169	0.02993715	0	0
12.60173	-0.1893362	0.3921096	0.00154535	0.007622394	0.06234737	0.08845293	0	0
12.61833	-0.1892347	0.3926461	0.00611573	0.03231267	0.1383964	0.7476501	0	0
12.63486	-0.1894377	0.392968	-0.01228348	0.01947221	-0.5553053	-0.387537	0	0
12.65143	-0.1896408	0.3933614	-0.01225732	0.02374827	0.0007905077	0.1291969	0	0
12.66837	-0.1898438	0.3936118	-0.01198796	0.01478217	0.008039552	-0.2676168	0	0
12.68456	-0.1898185	0.3937369	0.001566916	0.007728772	0.4091107	-0.2128841	0	0
12.70113	-0.1898185	0.3937727	0	0.00215877	-0.04782788	-0.1700163	0	0
12.71769	-0.1897931	0.3938264	0.001532727	0.003239955	0.04626045	0.03263208	0	0
12.73441	-0.1897931	0.3938264	0	0	-0.04604707	-0.09733658	0	0
12.75083	-0.1897677	0.3938085	0.001545978	-0.001089356	0.04665771	-0.03287684	0	0
12.7674	-0.1897677	0.3938085	0	0	-0.04687493	0.0330299	0	0
12.78396	-0.1897677	0.3938085	0	0	0	0	0	0
12.80053	-0.1897423	0.3937906	0.001531827	-0.001079385	0.04623331	-0.03257778	0	0
12.81709	-0.1897423	0.3937906	0	0	-0.04623331	0.03257778	0	0
12.83366	-0.1897423	0.3937906	0	0	0	0	0	0
12.85023	-0.1897423	0.3937906	0	0	0	0	0	0
12.86679	-0.1897423	0.3937906	0	0	0	0	0	0
12.88352	-0.1897423	0.3937906	0	0	0	0	0	0
12.89993	-0.1897423	0.3937906	0	0	0	0	0	0
12.91654	-0.1897169	0.3937727	0.001527431	-0.001078081	0.04625238	-0.03264555	0	0
12.93306	-0.1897169	0.3937727	0	0	-0.04609928	0.03253749	0	0
12.94963	-0.1897169	0.3937727	0	0	0	0	0	0
12.96619	-0.1897423	0.3937548	-0.001531827	-0.001079385	-0.04623331	-0.03257778	0	0
13.00258	-0.1897423	0.3937548	0	0	0.02892767	0.02038356	0	0
13.01915	-0.1897423	0.3937548	0	0	0	0	0	0
13.03571	-0.1897423	0.3937548	0	0	0	0	0	0
13.05264	-0.1897423	0.3937548	0	0	0	0	0	0
13.06885	-0.1897423	0.3937548	0	0	0	0	0	0
13.08566	-0.1897423	0.3937548	0	0	0	0	0	0
13.10217	-0.1897423	0.3937548	0	0	0	0	0	0
13.11868	-0.1897423	0.3937548	0	0	0	0	0	0
13.13511	-0.1897423	0.3937548	0	0	0	0	0	0
13.15168	-0.1897169	0.3937012	0.001531827	-0.003238156	0.04642171	-0.09813162	0	0
13.16825	-0.1896916	0.3936833	0.001531739	-0.001079323	-2.66325E-06	0.06515557	0	0
13.18481	-0.1897169	0.3936654	-0.001531827	-0.001079385	-0.09246129	-1.876221E-06	0	0
13.20138	-0.1897169	0.3936654	0	0	0.04623331	0.03257778	0	0
13.21795	-0.1897169	0.3936296	0	-0.00215877	0	-0.06515557	0	0
13.23451	-0.1897423	0.3936118	-0.001531739	-0.001079323	-0.04622931	0.03257872	0	0
13.25108	-0.1896916	0.3935402	0.003063655	-0.004317541	0.1386933	-0.09773242	0	0
13.26765	-0.1896916	0.3934329	0	-0.00647811	-0.09246662	-0.06520986	0	0
13.2843	-0.1896916	0.3933614	0	-0.004295287	0	0.0657113	0	0
13.30078	-0.1896408	0.3932541	0.003080515	-0.006511848	0.09297547	-0.06689981	0	0
13.31735	-0.1896408	0.3932541	0	0	-0.09321695	0.1970498	0	0
13.33392	-0.1896408	0.3931825	0	-0.004316298	0	-0.1302549	0	0
13.35048	-0.18959	0.3930753	0.00306526	-0.006477803	0.09251241	-0.0652362	0	0
13.36705	-0.1895139	0.3928785	0.004595482	-0.01187504	0.04619016	-0.162917	0	0
13.48301	-0.1862884	0.3381212	0.02781437	-0.4721891	0.1751957	-3.473251	0	0
13.49958	-0.186263	0.3232454	0.001534526	-0.8979549	-0.1982918	-3.212571	0	0
13.51614	-0.1862122	0.3155295	0.003068152	-0.4657583	0.0462876	13.04447	0	0
13.53271	-0.1864663	0.303524	-0.01534076	-0.7246974	-0.5556141	-7.815248	0	0
13.54948	-0.1857293	0.2867394	0.04394154	-1.000675	1.77814	-8.277802	0	0
13.56584	-0.1848903	0.2740209	0.05127878	-0.7774027	0.2214449	6.738572	0	0
13.58241	-0.1832371	0.2572794	0.09979456	-1.010576	1.473454	-7.081622	0	0
13.59898	-0.1824228	0.2446596	0.0491525	-0.761777	-1.528468	7.509205	0	0
13.61554	-0.1814046	0.2281098	0.06146109	-0.9990079	0.3714954	-7.160055	0	0
13.63211	-0.1810227	0.2152198	0.02305387	-0.7780865	-1.159199	6.667805	0	0
13.64867	-0.1809209	0.2064356	0.006147644	-0.5302129	-0.5102456	7.481054	0	0
13.66556	-0.1804879	0.1835824	0.02563259	-1.353096	0.5823911	-24.59538	0	0
13.68181	-0.1800804	0.1742901	0.02508789	-0.5720794	-0.0164401	23.57248	0	0
13.69859	-0.1791378	0.1515445	0.0561754	-1.355531	0.9413933	-23.7245	0	0
13.71494	-0.1785772	0.1426398	0.03427951	-0.5444732	-0.6608192	24.47776	0	0
13.73151	-0.1781949	0.1294016	0.02307726	-0.7991076	-0.3402787	-7.734746	0	0
13.74808	-0.1765631	0.1121978	0.09849363	-1.038426	2.276136	-7.222858	0	0
13.76464	-0.176053	0.09952081	0.03079306	-0.7652265	-2.043266	8.245419	0	0
13.78458	-0.1745986	0.08322006	0.07293236	-0.8174356	1.154261	-1.430086	0	0
13.80115	-0.1736542	0.07121735	0.05700715	-0.7244848	-0.436205	2.545999	0	0
13.81772	-0.172786	0.05541876	0.05240505	-0.95366	-0.1388955	-6.916719	0	0
13.83428	-0.1711767	0.043742	0.09713998	-0.7048106	1.350142	7.510506	0	0
13.85085	-0.1685692	0.02738208	0.1573977	-0.9875433	1.818635	-8.533138	0	0
13.86742	-0.1670087	0.01876259	0.09419163	-0.5202733	-1.907619	14.10264	0	0
13.91999	-0.1578597	-0.03138749	0.1740234	-0.9539096	1.154633	-6.271819	0	0
13.93656	-0.1563194	-0.03900051	0.09297199	-0.4595229	-1.172273	7.150471	0	0
13.95312	-0.1497649	-0.0558752	0.3956567	-1.018617	9.135307	-16.87398	0	0
13.96969	-0.1463668	-0.06159227	0.2051201	-0.3451028	-5.75074	20.32787	0	0
13.9863	-0.1416244	-0.07390959	0.2855614	-0.7416815	2.424862	-11.95466	0	0
14.00282	-0.1380634	-0.08287388	0.2154761	-0.5424284	-2.115239	6.013641	0	0
14.01939	-0.1340078	-0.08994634	0.24481	-0.4269189	0.8864216	3.490506	0	0
14.03596	-0.1259871	-0.09596779	0.4841618	-0.3634767	7.22407	1.9148	0	0
14.05285	-0.1222297	-0.09878898	0.222476	-0.1670469	-7.822048	5.871479	0	0
14.06909	-0.1149645	-0.1042454	0.4472061	-0.3358664	6.782367	-5.094982	0	0
14.08587	-0.1102355	-0.1077982	0.2818731	-0.2117675	-5.00662	3.757967	0	0
14.21846	-0.1012838	-0.1145269	0.06751389	-0.05074807	-1.435114	1.07801	0	0
14.23475	-0.1012838	-0.1145269	0	0	-0.4534582	0.3408503	0	0
14.25148	-0.1012838	-0.1145269	0	0	0	0	0	0
14.26789	-0.1013099	-0.1145074	-0.001587113	0.001193854	-0.04790054	0.03603162	0	0
14.28446	-0.1013099	-0.1145074	0	0	0.04813189	-0.03620565	0	0
14.31759	-0.1012838	-0.1145269	0.0007859273	-0.0005911883	0.0158135	-0.01189519	0	0
14.33416	-0.1012838	-0.1145269	0	0	-0.0158135	0.01189519	0	0
14.35072	-0.1012578	-0.1145074	0.001572304	0.001182377	0.04745361	0.03568522	0	0
14.36756	-0.1012578	-0.1145074	0	0	-0.04706482	-0.03539285	0	0
14.38385	-0.1012578	-0.1145074	0	0	0	0	0	0
14.40042	-0.1012578	-0.1145074	0	0	0	0	0	0
14.41699	-0.1012578	-0.1145074	0	0	0	0	0	0
14.43361	-0.1012578	-0.1145074	0	0	0	0	0	0
14.45012	-0.1012578	-0.1145074	0	0	0	0	0	0
14.46669	-0.1012578	-0.1145074	0	0	0	0	0	0
14.48325	-0.1012578	-0.1145074	0	0	0	0	0	0
14.49982	-0.1012838	-0.1144878	-0.001572214	0.001181859	-0.04745088	0.0356696	0	0
14.51639	-0.1012838	-0.1144878	0	0	0.04745088	-0.0356696	0	0
14.53295	-0.1012838	-0.1144878	0	0	0	0	0	0
14.54969	-0.1012838	-0.1144878	0	0	0	0	0	0
14.56609	-0.1012838	-0.1144878	0	0	0	0	0	0
14.58265	-0.1012838	-0.1144878	0	0	0	0	0	0
14.59922	-0.1013359	-0.1144878	-0.003144159	0	-0.09489637	0	0	0
14.61579	-0.1013359	-0.1144878	0	0	0.09489637	0	0	0
14.65186	-0.101362	-0.1144682	-0.0007220944	0.0005430166	-0.01371811	0.01031605	0	0
14.66842	-0.101362	-0.1144682	0	0	0.01371811	-0.01031605	0	0
14.68499	-0.101362	-0.1144682	0	0	0	0	0	0
14.7018	-0.101362	-0.1144682	0	0	0	0	0	0
14.71813	-0.101362	-0.1144682	0	0	0	0	0	0
14.73482	-0.101362	-0.1144682	0	0	0	0	0	0
14.75126	-0.101388	-0.1144486	-0.001584527	0.001191568	-0.04782113	0.0359616	0	0
14.76783	-0.101388	-0.1144486	0	0	0.04801044	-0.03610397	0	0
14.78439	-0.101388	-0.1144486	0	0	0	0	0	0
14.80096	-0.101388	-0.1144486	0	0	0	0	0	0
14.81752	-0.101388	-0.1144486	0	0	0	0	0	0
14.83409	-0.101388	-0.1144486	0	0	0	0	0	0
14.85066	-0.101388	-0.1144486	0	0	0	0	0	0
14.86722	-0.101388	-0.1144486	0	0	0	0	0	0
14.88393	-0.101388	-0.1144486	0	0	0	0	0	0
14.90036	-0.101388	-0.1144486	0	0	0	0	0	0
14.91692	-0.101388	-0.1144486	0	0	0	0	0	0
14.98349	-0.101388	-0.1144486	0	0	0	0	0	0
15.00001	-0.101388	-0.1144486	0	0	0	0	0	0
15.01632	-0.101388	-0.1144486	0	0	0	0	0	0
15.03289	-0.101388	-0.1144486	0	0	0	0	0	0
15.04954	-0.101388	-0.1144486	0	0	0	0	0	0
15.06602	-0.101388	-0.1144486	0	0	0	0	0	0
15.08259	-0.101388	-0.1144486	0	0	0	0	0	0
15.09916	-0.101388	-0.1144486	0	0	0	0	0	0
15.11609	-0.101388	-0.1144486	0	0	0	0	0	0
15.14886	-0.101388	-0.1144486	0	0	0	0	0	0
15.16562	-0.101388	-0.1144486	0	0	0	0	0	0
15.18213	-0.101414	-0.114429	-0.001577663	0.001185955	-0.04740792	0.0356373	0	0
15.19855	-0.101414	-0.114429	0	0	0.04790905	-0.03601401	0	0
15.21512	-0.101414	-0.114429	0	0	0	0	0	0
15.23169	-0.101414	-0.114429	0	0	0	0	0	0
15.24825	-0.101414	-0.114429	0	0	0	0	0	0
15.26519	-0.101414	-0.114429	0	0	0	0	0	0
15.28139	-0.101414	-0.114429	0	0	0	0	0	0
15.29795	-0.101414	-0.114429	0	0	0	0	0	0
15.3201	-0.101414	-0.114429	0	0	0	0	0	0
15.33667	-0.101414	-0.114429	0	0	0	0	0	0
15.35324	-0.101414	-0.114429	0	0	0	0	0	0
15.3698	-0.101414	-0.114429	0	0	0	0	0	0
15.38637	-0.101414	-0.114429	0	0	0	0	0	0
15.40294	-0.1014401	-0.1144094	-0.001572214	0.001182308	-0.04745088	0.03568317	0	0
15.4195	-0.1014401	-0.1144094	0	0	0.04745088	-0.03568317	0	0
15.43607	-0.1014401	-0.1144094	0	0	0	0	0	0
15.45264	-0.1014401	-0.1144094	0	0	0	0	0	0
15.4692	-0.1014401	-0.1144094	0	0	0	0	0	0
15.48577	-0.1014661	-0.1143899	-0.001572214	0.001182308	-0.04745088	0.03568317	0	0
15.50236	-0.1014661	-0.1143899	0	0	0.04742358	-0.03566264	0	0
15.5189	-0.1014661	-0.1143899	0	0	0	0	0	0
15.53547	-0.1014661	-0.1143899	0	0	0	0	0	0
15.55204	-0.1014661	-0.1143899	0	0	0	0	0	0
15.5686	-0.1014661	-0.1143899	0	0	0	0	0	0
15.58517	-0.1014661	-0.1143899	0	0	0	0	0	0
15.60192	-0.1014661	-0.1143899	0	0	0	0	0	0
15.6183	-0.1014661	-0.1143899	0	0	0	0	0	0
15.63487	-0.1014661	-0.1143899	0	0	0	0	0	0
15.65143	-0.1014661	-0.1143899	0	0	0	0	0	0
15.668	-0.1014661	-0.1143899	0	0	0	0	0	0
15.68457	-0.1014661	-0.1143899	0	0	0	0	0	0
15.70113	-0.1014661	-0.1143899	0	0	0	0	0	0
15.71801	-0.1014661	-0.1143899	0	0	0	0	0	0
15.73427	-0.1014661	-0.1143899	0	0	0	0	0	0
15.75083	-0.1014661	-0.1143899	0	0	0	0	0	0
15.7674	-0.1014661	-0.1143899	0	0	0	0	0	0
15.78397	-0.1014661	-0.1143899	0	0	0	0	0	0
15.80053	-0.1014661	-0.1143899	0	0	0	0	0	0
15.8171	-0.1014661	-0.1143899	0	0	0	0	0	0
15.83367	-0.1014661	-0.1143899	0	0	0	0	0	0
15.85023	-0.1014661	-0.1143899	0	0	0	0	0	0
15.8668	-0.1014661	-0.1143899	0	0	0	0	0	0
15.88336	-0.1014661	-0.1143899	0	0	0	0	0	0
15.89993	-0.1014661	-0.1143899	0	0	0	0	0	0
15.9165	-0.1014661	-0.1143899	0	0	0	0	0	0
15.93306	-0.1014661	-0.1143899	0	0	0	0	0	0
16.00274	-0.1014661	-0.1143899	0	0	0	0	0	0
16.0193	-0.1014922	-0.1143703	-0.001571945	0.001181995	-0.01822801	0.01370621	0	0
16.03587	-0.1014922	-0.1143703	0	0	0.04744413	-0.03567473	0	0
16.05244	-0.1014922	-0.1143703	0	0	0	0	0	0
16.069	-0.1014922	-0.1143703	0	0	0	0	0	0
16.08576	-0.1014922	-0.1143703	0	0	0	0	0	0
16.10214	-0.1014922	-0.1143703	0	0	0	0	0	0
16.11871	-0.1014922	-0.1143703	0	0	0	0	0	0
16.1353	-0.1014922	-0.1143703	0	0	0	0	0	0
16.15184	-0.1014922	-0.1143703	0	0	0	0	0	0
16.16841	-0.1014922	-0.1143703	0	0	0	0	0	0
16.18497	-0.1014922	-0.1143703	0	0	0	0	0	0
16.20154	-0.1014922	-0.1143703	0	0	0	0	0	0
16.21811	-0.1014922	-0.1143703	0	0	0	0	0	0
16.23467	-0.1014922	-0.1143703	0	0	0	0	0	0
16.25138	-0.1014922	-0.1143703	0	0	0	0	0	0
16.2679	-0.1014922	-0.1143703	0	0	0	0	0	0
16.28441	-0.1014922	-0.1143703	0	0	0	0	0	0
16.30094	-0.1014922	-0.1143703	0	0	0	0	0	0
16.31751	-0.1014922	-0.1143703	0	0	0	0	0	0
16.33408	-0.1014922	-0.1143703	0	0	0	0	0	0
16.35064	-0.1014922	-0.1143703	0	0	0	0	0	0
16.36747	-0.1014922	-0.1143703	0	0	0	0	0	0
16.38398	-0.1014922	-0.1143703	0	0	0	0	0	0
16.40034	-0.1014922	-0.1143703	0	0	0	0	0	0
16.417	-0.1014922	-0.1143703	0	0	0	0	0	0
16.43348	-0.1014922	-0.1143703	0	0	0	0	0	0
16.45004	-0.1014922	-0.1143703	0	0	0	0	0	0
16.46661	-0.1014922	-0.1143703	0	0	0	0	0	0
16.48318	-0.1014922	-0.1143703	0	0	0	0	0	0
16.49974	-0.1014922	-0.1143703	0	0	0	0	0	0
16.51631	-0.1014922	-0.1143703	0	0	0	0	0	0
16.53288	-0.1014922	-0.1143703	0	0	0	0	0	0
16.5496	-0.1014922	-0.1143703	0	0	0	0	0	0
16.56601	-0.1014922	-0.1143703	0	0	0	0	0	0
16.58258	-0.1014922	-0.1143703	0	0	0	0	0	0
16.60484	-0.1014922	-0.1143703	0	0	0	0	0	0
16.6214	-0.1014922	-0.1143703	0	0	0	0	0	0
16.63797	-0.1014922	-0.1143703	0	0	0	0	0	0
16.65454	-0.1014922	-0.1143703	0	0	0	0	0	0
16.67111	-0.1014922	-0.1143703	0	0	0	0	0	0
16.68767	-0.1014922	-0.1143703	0	0	0	0	0	0
16.70424	-0.1014922	-0.1143703	0	0	0	0	0	0
16.72081	-0.1014922	-0.1143703	0	0	0	0	0	0
16.73738	-0.1014922	-0.1143703	0	0	0	0	0	0
16.75394	-0.1014922	-0.1143703	0	0	0	0	0	0
16.77051	-0.1014922	-0.1143703	0	0	0	0	0	0
16.78708	-0.1015703	-0.1143115	-0.004716642	0.003546476	-0.1423485	0.1070329	0	0
16.88684	-0.1422176	-0.04464654	-0.4074422	0.698312	-3.461948	5.972409	0	0
16.91961	-0.146032	-0.005264304	-0.1163918	1.201701	2.196043	3.79819	0	0
16.93618	-0.1468046	0.01383573	-0.04663845	1.15288	1.413748	-0.9894947	0	0
16.95275	-0.1474484	0.03974254	-0.03885653	1.563738	0.2348588	12.39971	0	0
16.96931	-0.1474484	0.05982789	0	1.212354	1.172692	-10.60479	0	0
16.98588	-0.1477059	0.08018111	-0.01554135	1.228523	-0.4690389	0.4879727	0	0
17.00245	-0.1478346	0.09373873	-0.007770222	0.8184342	0.2345467	-12.37721	0	0
17.01901	-0.1480148	0.1204235	-0.01087778	1.610698	-0.09379163	23.91193	0	0
17.03595	-0.1486326	0.1465487	-0.03647916	1.542641	-0.7641615	-2.031373	0	0
17.05215	-0.1493789	0.1662346	-0.04607287	1.215243	-0.2895389	-9.88089	0	0
17.06871	-0.1507939	0.1930065	-0.08542027	1.616141	-1.200918	12.23576	0	0
17.08528	-0.1520541	0.2138524	-0.0760617	1.258261	0.2824585	-10.80146	0	0
17.10185	-0.1540847	0.2421125	-0.1225679	1.705782	-1.403561	13.5062	0	0
17.11841	-0.1554976	0.2629577	-0.08528631	1.258221	1.125161	-13.50742	0	0
17.13502	-0.1567046	0.2825546	-0.0726759	1.180019	0.3801235	-2.357299	0	0
17.15155	-0.1580137	0.2996641	-0.07921144	1.035232	-0.1972431	-4.369679	0	0
17.16812	-0.1596301	0.3137968	-0.0975681	0.8530555	-0.5546756	-5.504738	0	0
17.18468	-0.1619379	0.3314068	-0.1392938	1.062941	-1.259285	6.334347	0	0
17.20125	-0.1635779	0.3372283	-0.09900151	0.3514285	1.216095	-21.47472	0	0
17.21782	-0.1664457	0.3479784	-0.1731027	0.6488764	-2.236508	8.977513	0	0
17.23459	-0.1676483	0.3539967	-0.0716929	0.3587603	3.041471	-8.701127	0	0
17.2511	-0.1702567	0.3634984	-0.1579656	0.5754465	-2.591779	6.509626	0	0
17.26761	-0.1756703	0.3790063	-0.3278651	0.9391948	-5.144755	11.01472	0	0
17.28408	-0.1783733	0.3837247	-0.164134	0.2865199	4.964563	-19.79004	0	0
17.30065	-0.1819901	0.3893381	-0.2183129	0.3388229	-1.640031	1.583248	0	0
17.31722	-0.1835424	0.3916804	-0.09369244	0.1413859	3.761052	-5.95866	0	0
17.33416	-0.1828809	0.3910367	0.03903788	-0.03798964	3.960666	-5.352559	0	0
17.35338	-0.1828045	0.3909831	0.003971761	-0.002791009	-0.9696082	0.9732726	0	0
17.36995	-0.1828554	0.3909473	-0.003071574	-0.002158646	-0.1968095	0.0176699	0	0
17.3867	-0.1827791	0.3905718	0.004557959	-0.02242057	0.2290074	-0.6081801	0	0
17.4057	-0.1826773	0.3904288	0.005357075	-0.007528609	0.02235327	0.4165649	0	0
17.42227	-0.182041	0.3899103	0.03840411	-0.03129677	0.9291166	-0.6682412	0	0
17.43883	-0.1808699	0.3889447	0.07068846	-0.05827805	0.9743436	-0.8142965	0	0
17.4554	-0.1805644	0.3885514	0.01844473	-0.02374151	-1.576719	1.042315	0	0
17.47197	-0.1805898	0.3885693	-0.001537136	0.001079323	-0.603054	0.7490942	0	0
17.5051	-0.1805644	0.3885514	0.000768568	-0.0005396615	0.04639085	-0.03257403	0	0
17.52167	-0.1805644	0.3885514	0	0	-0.01546362	0.01085801	0	0
17.53831	-0.1805644	0.3885514	0	0	0	0	0	0
17.55482	-0.1805644	0.3885514	0	0	0	0	0	0
17.57137	-0.1805644	0.3885514	0	0	0	0	0	0
17.58794	-0.1805644	0.3885514	0	0	0	0	0	0
17.6045	-0.1805644	0.3885514	0	0	0	0	0	0
17.62137	-0.1805389	0.388462	0.001510016	-0.005301402	0.04516678	-0.1585727	0	0
17.63788	-0.1804115	0.3883726	0.007712328	-0.005412888	0.1858276	-0.00334023	0	0
17.65439	-0.1803351	0.388319	0.004626855	-0.003248816	-0.0934317	0.06553062	0	0
17.6709	-0.1803097	0.3883011	0.001543188	-0.001082939	-0.09337703	0.06558528	0	0
17.68734	-0.1802842	0.3882832	0.001549624	-0.001088092	0.000195374	-0.0001564165	0	0
17.70391	-0.1802587	0.3882653	0.001537136	-0.001079323	-0.0003784236	0.0002657156	0	0
17.73704	-0.1802587	0.3882653	0	0	-0.03092724	0.02171602	0	0
17.75397	-0.1802842	0.3882475	-0.001504571	-0.001056457	-0.03005519	-0.0211037	0	0
17.77017	-0.1802842	0.3882475	0	0	0.04540804	0.03188394	0	0
17.78674	-0.1802842	0.3882475	0	0	0	0	0	0
17.80331	-0.1802842	0.3882475	0	0	0	0	0	0
17.82001	-0.1802842	0.3882475	0	0	0	0	0	0
17.83644	-0.1803097	0.3882653	-0.001549984	0.001088345	-0.04677861	0.03284631	0	0
17.86958	-0.1803097	0.3882653	0	0	0.03127335	-0.02195905	0	0
17.88614	-0.1803097	0.3882653	0	0	0	0	0	0
17.90271	-0.1803097	0.3882653	0	0	0	0	0	0
17.91928	-0.1803351	0.3882475	-0.001538035	-0.001079323	-0.046418	-0.03257403	0	0
17.93584	-0.1803351	0.3882475	0	0	0.046418	0.03257403	0	0
17.95241	-0.1803351	0.3882475	0	0	0	0	0	0
17.96912	-0.1803351	0.3882475	0	0	0	0	0	0
17.98563	-0.1803351	0.3882475	0	0	0	0	0	0
18.00215	-0.1803351	0.3882475	0	0	0	0	0	0
18.02275	-0.1803097	0.3882296	0.001236865	-0.0008665285	0.03332511	-0.02334706	0	0
18.03933	-0.1803097	0.3882296	0	0	-0.03326357	0.02330395	0	0
18.05589	-0.1803351	0.3882117	-0.001539276	-0.001080194	-0.04645276	-0.03259843	0	0
18.0727	-0.1803097	0.3882296	0.001515699	0.001063649	0.09156159	0.06425374	0	0
18.08902	-0.1803097	0.3882296	0	0	-0.04574917	-0.03210468	0	0
18.10572	-0.1803097	0.3882296	0	0	0	0	0	0
18.12223	-0.1803097	0.3882296	0	0	0	0	0	0
18.13872	-0.1803097	0.3882296	0	0	0	0	0	0
18.15528	-0.1803097	0.3881938	0	-0.002158646	0	-0.0653135	0	0
18.17185	-0.1803097	0.3881938	0	0	0	0.06514806	0	0
18.18842	-0.1803097	0.3881938	0	0	0	0	0	0
18.20498	-0.1803097	0.3881938	0	0	0	0	0	0
18.22155	-0.1802842	0.388176	0.001537136	-0.001079323	0.04639085	-0.03257403	0	0
18.23812	-0.1802842	0.388176	0	0	-0.04639085	0.03257403	0	0
18.25469	-0.1803097	0.3881581	-0.001537136	-0.001079323	-0.04639085	-0.03257403	0	0
18.27134	-0.1803097	0.3881581	0	0	0.04626834	0.03248801	0	0
18.28782	-0.1803097	0.3881581	0	0	0	0	0	0
18.30439	-0.1803097	0.3881581	0	0	0	0	0	0
18.32095	-0.1803097	0.3881581	0	0	0	0	0	0
18.33752	-0.1803097	0.3881581	0	0	0	0	0	0
18.35409	-0.1803097	0.3881581	0	0	0	0	0	0
18.37066	-0.1803097	0.3881581	0	0	0	0	0	0
18.38742	-0.1803351	0.388176	-0.001519492	0.00106631	-0.04558024	0.03198614	0	0
18.40379	-0.1803351	0.388176	0	0	0.045861	-0.03218316	0	0
18.42045	-0.1803351	0.388176	0	0	0	0	0	0
18.43692	-0.1803351	0.388176	0	0	0	0	0	0
18.45349	-0.1803351	0.388176	0	0	0	0	0	0
18.47005	-0.1803351	0.388176	0	0	0	0	0	0
18.48662	-0.1803351	0.388176	0	0	0	0	0	0
18.50319	-0.1803097	0.3881581	0.001538035	-0.001079323	0.046418	-0.03257403	0	0
18.52002	-0.1803097	0.3881581	0	0	-0.04605217	0.03231731	0	0
18.53632	-0.1803097	0.3881581	0	0	0	0	0	0
18.55289	-0.1802842	0.3881402	0.001537136	-0.001079323	0.04676232	-0.03283487	0	0
18.56946	-0.1802333	0.3881044	0.003074272	-0.002158646	0.04639085	-0.03257403	0	0
18.58603	-0.1798002	0.3878005	0.02613761	-0.01834489	0.6960528	-0.4885019	0	0
18.60259	-0.1790359	0.3872642	0.04613566	-0.0323725	0.6035426	-0.4233539	0	0
18.61916	-0.1754407	0.3847436	0.2170301	-0.1521607	5.1579	-3.615423	0	0
18.65229	-0.167546	0.3792208	0.2382633	-0.1666799	0.427229	-0.2921375	0	0
18.66886	-0.1667784	0.3786846	0.04633354	-0.0323617	-3.861634	2.702487	0	0
18.68854	-0.1668552	0.3787382	-0.003900194	0.002723777	-1.385717	0.9678467	0	0
18.70515	-0.1668552	0.3787382	0	0	0.107464	-0.07504958	0	0
18.72216	-0.1668552	0.3787382	0	0	0	0	0	0
18.73824	-0.1668552	0.3787382	0	0	0	0	0	0
18.75481	-0.1668552	0.3787382	0	0	0	0	0	0
18.77138	-0.1668552	0.3787382	0	0	0	0	0	0
18.82402	-0.1669063	0.378774	-0.0009722461	0.0006792986	-0.01404698	0.009814487	0	0
18.84075	-0.1668808	0.3787918	0.001529714	0.001067325	0.03606576	0.005593405	0	0
18.85716	-0.1668808	0.3787918	0	0	-0.04616421	-0.03221009	0	0
18.87373	-0.1669063	0.3788097	-0.001544331	0.001079323	-0.04682906	0.03272852	0	0
18.8903	-0.1669063	0.3788097	0	0	0.04660802	-0.03257403	0	0
18.90686	-0.1669063	0.3788097	0	0	0	0	0	0
18.92343	-0.1669063	0.3788097	0	0	0	0	0	0
18.93999	-0.1669063	0.3788097	0	0	0	0	0	0
18.95733	-0.1669063	0.3788097	0	0	0	0	0	0
18.97313	-0.1669063	0.3788097	0	0	0	0	0	0
18.98986	-0.1669063	0.3788097	0	0	0	0	0	0
19.00637	-0.1669063	0.3788097	0	0	0	0	0	0
19.02283	-0.1669063	0.3788097	0	0	0	0	0	0
19.0394	-0.1669063	0.3788097	0	0	0	0	0	0
19.05596	-0.1669063	0.3788097	0	0	0	0	0	0
19.07253	-0.1669063	0.3788097	0	0	0	0	0	0
19.0891	-0.1669319	0.3787918	-0.001544331	-0.001079323	-0.0466107	-0.03257591	0	0
19.10566	-0.1669319	0.3787918	0	0	0.04660802	0.03257403	0	0
19.12223	-0.1669319	0.3787918	0	0	0	0	0	0
19.13897	-0.1669319	0.3787918	0	0	0	0	0	0
19.15536	-0.1669319	0.3787918	0	0	0	0	0	0
19.172	-0.1669319	0.3787918	0	0	0	0	0	0
19.1885	-0.1669319	0.3787918	0	0	0	0	0	0
19.20506	-0.1669319	0.3787918	0	0	0	0	0	0
19.22163	-0.1669063	0.3788097	0.001544331	0.001079323	0.0466107	0.03257591	0	0
19.2382	-0.1669063	0.3788097	0	0	-0.04660802	-0.03257403	0	0
19.25476	-0.1669063	0.3788097	0	0	0	0	0	0
19.27133	-0.1669063	0.3788097	0	0	0	0	0	0
19.2879	-0.1669063	0.3788097	0	0	0	0	0	0
19.30447	-0.1669319	0.3788276	-0.001544331	0.001079323	-0.04660802	0.03257403	0	0
19.32103	-0.1669319	0.3788276	0	0	0.0466107	-0.03257591	0	0
19.36647	-0.1669319	0.3787918	0	-0.0007871206	0	-0.01269544	0	0
19.40302	-0.1669319	0.3787918	0	0	0	0.009600956	0	0
19.41958	-0.1669319	0.3787918	0	0	0	0	0	0
19.43618	-0.1669063	0.3788097	0.001541846	0.001077586	0.04649554	0.03249543	0	0
19.45272	-0.1669063	0.3788097	0	0	-0.04653301	-0.03252162	0	0
19.48585	-0.1669319	0.3787918	-0.0007721657	-0.0005396615	-0.01554436	-0.01086385	0	0
19.50242	-0.1669063	0.3788097	0.001544331	0.001079323	0.04660802	0.03257403	0	0
19.51899	-0.1669063	0.3788097	0	0	-0.04660802	-0.03257403	0	0
19.53625	-0.1669063	0.3788097	0	0	0	0	0	0
19.55226	-0.1669063	0.3788097	0	0	0	0	0	0
19.56869	-0.1669319	0.3788276	-0.001557963	0.00108885	-0.04803701	0.03357275	0	0
19.58525	-0.1669319	0.3788276	0	0	0.04722603	-0.03300596	0	0
19.60182	-0.1669319	0.3788276	0	0	0	0	0	0
19.61839	-0.1669319	0.3788276	0	0	0	0	0	0
19.63495	-0.1669319	0.3788276	0	0	0	0	0	0
19.65152	-0.1669319	0.3788276	0	0	0	0	0	0
19.66809	-0.1669319	0.3788276	0	0	0	0	0	0
19.68486	-0.1669319	0.3788276	0	0	0	0	0	0
19.70137	-0.1669319	0.3788276	0	0	0	0	0	0
19.71788	-0.1669319	0.3788276	0	0	0	0	0	0
19.73436	-0.1669319	0.3788276	0	0	0	0	0	0
19.75092	-0.1669319	0.3788276	0	0	0	0	0	0
19.76749	-0.1669319	0.3788276	0	0	0	0	0	0
19.78406	-0.1669319	0.3788276	0	0	0	0	0	0
19.80062	-0.1669319	0.3788276	0	0	0	0	0	0
19.81719	-0.1669063	0.3788097	0.001544331	-0.001079323	0.04660802	-0.03257403	0	0
19.83376	-0.1669319	0.3788276	-0.001544331	0.001079323	-0.09321603	0.06514806	0	0
19.85032	-0.1669319	0.3788276	0	0	0.04660802	-0.03257403	0	0
19.86689	-0.1669319	0.3788276	0	0	0	0	0	0
19.8835	-0.1669319	0.3788276	0	0	0	0	0	0
19.90002	-0.1669319	0.3788276	0	0	0	0	0	0
19.91659	-0.1669319	0.3788276	0	0	0	0	0	0
19.93316	-0.1669319	0.3788276	0	0	0	0	0	0
19.96948	-0.1670087	0.3788812	-0.002113416	0.001475125	-0.03995667	0.02788901	0	0
19.98608	-0.1670343	0.3788991	-0.001542023	0.00107771	0.0107978	-0.007510083	0	0
20.00262	-0.1670343	0.3788991	0	0	0.04653836	-0.03252535	0	0
20.01919	-0.1670343	0.3788991	0	0	0	0	0	0
20.03575	-0.1670343	0.3788991	0	0	0	0	0	0
20.05232	-0.1670087	0.3788812	0.001544154	-0.001079199	0.04659997	-0.03256841	0	0
20.06889	-0.1670087	0.3788812	0	0	-0.04660533	0.03257216	0	0
20.08545	-0.1670087	0.3788812	0	0	0	0	0	0
20.10202	-0.1670087	0.3788812	0	0	0	0	0	0
20.11859	-0.1670343	0.3788633	-0.001544331	-0.001077524	-0.04660802	-0.03251974	0	0
20.13515	-0.1670087	0.3788455	0.001544331	-0.001079323	0.09321603	-5.428939E-05	0	0
20.15172	-0.1669831	0.3788276	0.001544331	-0.001077524	0	5.428939E-05	0	0
20.16829	-0.1669575	0.3788097	0.001545231	-0.001079323	2.714469E-05	-5.428939E-05	0	0
20.18486	-0.1669319	0.3787918	0.001544331	-0.001079323	-2.714469E-05	0	0	0
20.20142	-0.1669319	0.3787918	0	0	-0.04660802	0.03257403	0	0
20.21799	-0.1669319	0.3786489	0	-0.008629188	0	-0.2604294	0	0
20.23456	-0.1670343	0.3779698	-0.006178225	-0.04098909	-0.1864592	-0.9766239	0	0
20.25112	-0.1669319	0.3772193	0.006178936	-0.045308	0.3729613	-0.1303524	0	0
20.26769	-0.165345	0.3725735	0.09578902	-0.2804189	2.704593	-7.096071	0	0
20.28426	-0.1661386	0.357122	-0.04790126	-0.9326521	-4.336582	-19.68443	0	0
20.30083	-0.1665481	0.3413355	-0.0247174	-0.9528785	0.6996903	-0.6104363	0	0
20.31739	-0.1667272	0.3172085	-0.01081392	-1.456305	0.4196078	-15.19345	0	0
20.33396	-0.1671366	0.2981271	-0.0247129	-1.151758	-0.4194721	9.191253	0	0
20.35053	-0.1676995	0.2792812	-0.03397439	-1.13754	-0.2795123	0.4291065	0	0
20.36709	-0.1683646	0.2555414	-0.04014452	-1.432936	-0.1862149	-8.915079	0	0
20.38366	-0.1691318	0.2443188	-0.04630835	-0.6773958	-0.1860248	22.80226	0	0
20.40023	-0.17041	0.2281277	-0.07715361	-0.9772974	-0.9309117	-9.051048	0	0
20.41689	-0.1719687	0.2126107	-0.09355413	-0.9313555	-0.4935766	1.382627	0	0
20.44993	-0.1764356	0.171775	-0.1352011	-1.235981	-0.8379704	-6.129321	0	0
20.4665	-0.1784753	0.1509997	-0.1231139	-1.254001	0.2436624	-0.363244	0	0
20.48306	-0.1799021	0.1353237	-0.08612638	-0.9462038	1.116285	9.289327	0	0
20.49995	-0.1808699	0.1249328	-0.05731461	-0.6153652	0.8612614	9.889658	0	0
20.5162	-0.1822956	0.1044161	-0.0877377	-1.262666	-0.9181707	-19.53557	0	0
20.53297	-0.1834406	0.08982474	-0.06825878	-0.8698217	0.5898444	11.89577	0	0
20.54948	-0.1855005	0.07116196	-0.12475	-1.130261	-1.697094	-7.824051	0	0
20.566	-0.1868982	0.05775361	-0.08465242	-0.8120409	1.214202	9.636084	0	0
20.58605	-0.1910364	0.03730356	-0.2063106	-1.019562	-3.326758	-5.674697	0	0
20.60262	-0.1934451	0.02590647	-0.1453911	-0.6879298	1.663335	9.054833	0	0
20.61919	-0.1967629	0.01469797	-0.200263	-0.6765465	-1.656037	0.3435485	0	0
20.63576	-0.2023501	0.00153465	-0.3372462	-0.7945393	-4.134161	-3.56103	0	0
20.65232	-0.2061099	-0.004020238	-0.2269394	-0.3352937	3.329066	13.86006	0	0
20.66907	-0.2102665	-0.01241744	-0.2481788	-0.5013724	-0.6375205	-4.985003	0	0
20.68546	-0.2157972	-0.02252308	-0.3375627	-0.6167945	-2.697768	-3.483647	0	0
20.70209	-0.2186327	-0.02979116	-0.170449	-0.4368917	5.060982	5.448296	0	0
20.7186	-0.2217402	-0.03522968	-0.1881967	-0.3293695	-0.5354105	3.24372	0	0
20.73516	-0.2285164	-0.04035383	-0.4093874	-0.3095791	-6.689797	0.5985497	0	0
20.75172	-0.2308868	-0.04216555	-0.1430769	-0.1093559	8.040971	6.045532	0	0
20.76864	-0.2335783	-0.04422653	-0.1590932	-0.1218206	-0.4783065	-0.3722434	0	0
20.78486	-0.2335783	-0.04422653	0	0	4.801441	3.676553	0	0
20.80166	-0.2335783	-0.04422653	0	0	0	0	0	0
20.81799	-0.2335783	-0.04422653	0	0	0	0	0	0
20.83456	-0.2335783	-0.04422653	0	0	0	0	0	0
20.85112	-0.2336032	-0.04420745	-0.001502957	0.001152177	-0.04535934	0.03477278	0	0
20.86771	-0.2336032	-0.04420745	0	0	0.04533064	-0.03475078	0	0
20.88426	-0.2336032	-0.04420745	0	0	0	0	0	0
20.90083	-0.2336032	-0.04420745	0	0	0	0	0	0
20.91739	-0.2336032	-0.04420745	0	0	0	0	0	0
20.93396	-0.2336281	-0.04418836	-0.001502957	0.001152177	-0.04535934	0.03477278	0	0
20.95053	-0.2336281	-0.04418836	0	0	0.04535934	-0.03477278	0	0
20.96728	-0.2336531	-0.04416927	-0.001486909	0.001139416	-0.04462073	0.03419277	0	0
20.9838	-0.2336531	-0.04416927	0	0	0.04469236	-0.03424766	0	0
21.00023	-0.2338274	-0.04403564	-0.01061045	0.008132881	-0.3220781	0.2468719	0	0
21.01682	-0.2341511	-0.0437875	-0.01951014	0.01495547	-0.2695085	0.2066079	0	0
21.03336	-0.2342009	-0.04374933	-0.003010768	0.00230785	0.4979809	-0.381728	0	0
21.04993	-0.2342507	-0.04371116	-0.003004669	0.002303865	0.0001841779	-0.0001203615	0	0
21.06649	-0.2342507	-0.04371116	0	0	0.09068111	-0.06953077	0	0
21.08306	-0.2342507	-0.04371116	0	0	0	0	0	0
21.09963	-0.2342507	-0.04371116	0	0	0	0	0	0
21.11639	-0.2342507	-0.04371116	0	0	0	0	0	0
21.13276	-0.2342258	-0.04373024	0.001520083	-0.001166004	0.04587885	-0.03519209	0	0
21.14933	-0.2342258	-0.04373024	0	0	-0.04614983	0.03539996	0	0
21.16592	-0.2342009	-0.04374933	0.001500366	-0.001149967	0.04524208	-0.03467612	0	0
21.18575	-0.234176	-0.04376842	0.001256104	-0.0009629378	-0.006707023	0.005135486	0	0
21.20231	-0.234176	-0.04376842	0	0	-0.03451754	0.02646138	0	0
21.21896	-0.2341511	-0.0437875	0.001495725	-0.001146409	0.0450322	-0.03451525	0	0
21.23545	-0.2341511	-0.0437875	0	0	-0.04514367	0.03460069	0	0
21.25201	-0.2341511	-0.0437875	0	0	0	0	0	0
21.26858	-0.2341511	-0.0437875	0	0	0	0	0	0
21.28515	-0.2341511	-0.0437875	0	0	0	0	0	0
21.30202	-0.2341262	-0.04380659	0.001475773	-0.001131338	0.04413245	-0.03383223	0	0
21.36798	-0.2341013	-0.04382568	0.0003774886	-0.0002893853	-0.01325882	0.0101643	0	0
21.38458	-0.2341013	-0.04382568	0	0	-0.004572317	0.003505169	0	0
21.40112	-0.2341013	-0.04382568	0	0	0	0	0	0
21.41768	-0.2341013	-0.04382568	0	0	0	0	0	0
21.43425	-0.2341013	-0.04382568	0	0	0	0	0	0
21.45082	-0.2340764	-0.04384476	0.001502957	-0.001151953	0.04535934	-0.034766	0	0
21.46738	-0.2340764	-0.04384476	0	0	-0.04535934	0.034766	0	0
21.48395	-0.2340764	-0.04384476	0	0	0	0	0	0
21.50052	-0.2340764	-0.04384476	0	0	0	0	0	0
21.51719	-0.2341013	-0.04382568	-0.001493159	0.001144442	-0.04491625	0.03442638	0	0
21.53369	-0.2341013	-0.04382568	0	0	0.04501439	-0.0345016	0	0
21.5507	-0.2340764	-0.04384476	0.001463694	-0.001121859	0.04368402	-0.03348193	0	0
21.56679	-0.2341013	-0.04382568	-0.001548048	0.001186512	-0.09099932	0.06974708	0	0
21.58335	-0.2341013	-0.04382568	0	0	0.04741065	-0.03633823	0	0
21.59992	-0.2341013	-0.04382568	0	0	0	0	0	0
21.61649	-0.2341013	-0.04382568	0	0	0	0	0	0
21.63305	-0.2341013	-0.04382568	0	0	0	0	0	0
21.64962	-0.2341013	-0.04382568	0	0	0	0	0	0
21.66628	-0.2341013	-0.04382568	0	0	0	0	0	0
21.6828	-0.2341013	-0.04382568	0	0	0	0	0	0
21.69932	-0.2341013	-0.04382568	0	0	0	0	0	0
21.71589	-0.2340764	-0.04384476	0.001502957	-0.001151953	0.04541948	-0.03481209	0	0
21.73246	-0.2340764	-0.04384476	0	0	-0.04535412	0.034762	0	0
21.74902	-0.2341013	-0.04382568	-0.001503304	0.001152218	-0.04536979	0.03477401	0	0
21.76559	-0.2341013	-0.0437875	0	0.002304355	0.04537502	0.03477556	0	0
21.78237	-0.2341511	-0.04367298	-0.002967986	0.00682517	-0.0890053	0.1355722	0	0
21.79888	-0.234176	-0.04350121	-0.001507992	0.01040275	0.0438557	0.1074645	0	0
21.81539	-0.2347735	-0.04266158	-0.03618459	0.05084984	-1.050048	1.224785	0	0
21.83837	-0.2374352	-0.03905768	-0.1158386	0.1568426	-2.017081	2.684057	0	0
21.85494	-0.2410367	-0.033327	-0.2173892	0.3459046	-2.56797	4.780926	0	0
21.87151	-0.2438142	-0.02660098	-0.1676513	0.4059834	1.501093	1.813183	0	0
21.88807	-0.2448053	-0.01754194	-0.05981878	0.5468046	3.25439	4.249992	0	0
21.90464	-0.2441859	-0.007508584	0.03738325	0.6056147	2.933563	1.774893	0	0
21.92121	-0.2417563	0.005220256	0.1466557	0.7683143	3.29785	4.910283	0	0
21.93777	-0.2378578	0.01777029	0.2353131	0.7575213	2.675685	-0.3257325	0	0
21.95449	-0.234425	0.02801697	0.2053139	0.6128466	-0.9012291	-4.346278	0	0
21.97091	-0.2285164	0.0434631	0.3599996	0.9411066	4.668694	9.907478	0	0
21.98752	-0.2233924	0.05599333	0.3083597	0.754069	-1.563446	-5.662734	0	0
22.00404	-0.2193348	0.0649534	0.2456544	0.5424545	-1.89245	-6.386538	0	0
22.02061	-0.2124552	0.08391963	0.4152533	1.144804	5.126178	18.20618	0	0
22.03718	-0.2065637	0.1034998	0.3556127	1.181861	-1.799959	1.118377	0	0
22.05407	-0.2052777	0.1082444	0.07611587	0.2808275	-8.352531	-26.92663	0	0
22.07031	-0.1974209	0.131753	0.4838189	1.447647	12.3045	35.21468	0	0
22.08688	-0.1943066	0.1411665	0.1879983	0.5682625	-9.017686	-26.80683	0	0
22.10344	-0.1873809	0.1594199	0.4180344	1.101781	6.942902	16.10255	0	0
22.12011	-0.1838731	0.1683354	0.210428	0.5348148	-6.246158	-17.05805	0	0
22.13662	-0.1764611	0.1916352	0.4489371	1.411249	7.18829	26.41435	0	0
22.15314	-0.1716621	0.2050848	0.2905357	0.8142564	-4.796026	-18.07555	0	0
22.16971	-0.1654986	0.2236354	0.3720328	1.11972	2.463273	9.232738	0	0
22.18628	-0.1621685	0.2384341	0.2010014	0.8932523	-5.161736	-6.83482	0	0
22.20317	-0.1576544	0.2589456	0.2671835	1.214031	1.977795	9.586223	0	0
22.21941	-0.1542902	0.275184	0.2071643	0.9999578	-1.811382	-6.460756	0	0
22.23598	-0.1490444	0.2955354	0.316641	1.228412	3.337054	6.963703	0	0
22.25271	-0.1463153	0.3048998	0.1631308	0.5597602	-4.610389	-20.08169	0	0
22.26911	-0.1415212	0.3226203	0.2922629	1.080307	3.897439	15.71104	0	0
22.28568	-0.1387346	0.3306568	0.1682035	0.4850802	-3.762748	-18.05336	0	0
22.30224	-0.1346281	0.3416033	0.2478701	0.6607346	2.404344	5.301261	0	0
22.31881	-0.1309826	0.3564434	0.2200398	0.8957482	-0.8399215	7.092725	0	0
22.33538	-0.1285245	0.3717159	0.1483745	0.9218516	-2.162861	0.7878033	0	0
22.35195	-0.1254949	0.3855301	0.1828634	0.8338274	1.040876	-2.656576	0	0
22.36851	-0.1240441	0.3948636	0.08757402	0.5633724	-2.87584	-8.162348	0	0
22.38978	-0.1226186	0.4038263	0.06703341	0.4214742	-0.542939	-3.750721	0	0
22.40635	-0.1190398	0.4083723	0.2160175	0.2743945	3.938018	-3.887679	0	0
22.42291	-0.117353	0.4095358	0.1018116	0.07023155	-3.44674	-6.16165	0	0
22.43948	-0.117353	0.4095	0	-0.002160445	-3.072682	-2.184795	0	0
22.45605	-0.117353	0.4095	0	0	0	0.06520236	0	0
22.47261	-0.117379	0.4094463	-0.001566368	-0.003241567	-0.04727307	-0.09783068	0	0
22.48918	-0.1174049	0.4093926	-0.001566998	-0.00324194	-1.901924E-05	-1.126468E-05	0	0
22.50589	-0.1174309	0.4092673	-0.001552604	-0.007497789	0.0004325108	-0.1278823	0	0
22.52241	-0.1174309	0.4090525	0	-0.0130097	0.04672857	-0.1658915	0	0
22.53888	-0.1174828	0.4088735	-0.003150596	-0.01086406	-0.09550849	0.06504392	0	0
22.55545	-0.1175347	0.4086944	-0.003133546	-0.01080707	0.0005160242	0.001724924	0	0
22.57201	-0.1176904	0.4085512	-0.009399555	-0.008643579	-0.1891194	0.06529797	0	0
22.58858	-0.1177683	0.4084617	-0.004699552	-0.005402012	0.1418463	0.09783068	0	0
22.60515	-0.1178721	0.4083901	-0.00626592	-0.004322689	-0.04727307	0.03257402	0	0
22.62172	-0.1185208	0.4079069	-0.03915829	-0.0291705	-0.9926937	-0.7499086	0	0
22.63828	-0.1197402	0.4070298	-0.07360976	-0.05294689	-1.039807	-0.7176141	0	0
22.65485	-0.1209592	0.4060454	-0.07358015	-0.05941673	0.000893641	-0.1952715	0	0
22.67151	-0.1209592	0.4060454	0	0	2.214407	1.788157	0	0
22.68802	-0.1209074	0.4060096	0.003141425	-0.002167682	0.09469936	-0.06534555	0	0
22.70455	-0.1209074	0.4060096	0	0	-0.09508204	0.06560961	0	0
22.72112	-0.1209074	0.4060096	0	0	0	0	0	0
22.73768	-0.1209074	0.4060096	0	0	0	0	0	0
22.75425	-0.1208814	0.4059917	0.001565018	-0.001081122	0.04723507	-0.03263021	0	0
22.77082	-0.1207777	0.4059201	0.006261423	-0.00432089	0.1417378	-0.09777638	0	0
22.78738	-0.120648	0.4057949	0.007826891	-0.007560658	0.04724592	-0.0977764	0	0
22.80411	-0.1204665	0.4056696	0.01085703	-0.007492586	0.09102541	0.002044875	0	0
22.82062	-0.1203627	0.405598	0.006283575	-0.004335865	-0.1376232	0.09499115	0	0
22.83708	-0.1203109	0.4055622	0.003150245	-0.002173457	-0.09501256	0.06557114	0	0
22.85365	-0.1202849	0.4055443	0.001565468	-0.001081122	-0.04797227	0.0330657	0	0
22.87022	-0.1202849	0.4055085	0	-0.002160445	-0.04724592	-0.03257403	0	0
22.88678	-0.1201812	0.4054369	0.006263043	-0.004321388	0.1890299	-0.06522113	0	0
22.90368	-0.1201034	0.4053474	0.004606693	-0.00529655	-0.04950713	-0.02914692	0	0
22.91992	-0.1199477	0.4052401	0.00958123	-0.006610718	0.1501318	-0.03966166	0	0
22.93649	-0.1196624	0.4050074	0.0172233	-0.01404379	0.2329173	-0.2265476	0	0
22.95305	-0.119403	0.4048284	0.01565828	-0.01080223	-0.0472323	0.09783068	0	0
22.96962	-0.1190657	0.4045242	0.02035738	-0.01836288	0.1418192	-0.2281811	0	0
22.98619	-0.1189619	0.4043453	0.006264121	-0.01080043	-0.4253354	0.2282354	0	0
23.00275	-0.1184949	0.4037368	0.02819057	-0.03672577	0.6617415	-0.7824284	0	0
23.01932	-0.1181057	0.4029316	0.02349417	-0.04860372	-0.1417377	-0.3584773	0	0
23.03589	-0.118443	0.402699	-0.02036188	-0.01404019	-1.323578	1.043129	0	0
23.05783	-0.1255726	0.3978864	-0.3249563	-0.219349	-7.910011	-5.331664	0	0
23.0744	-0.1302841	0.3946669	-0.2843872	-0.1943303	1.053539	0.6497106	0	0
23.09096	-0.1409022	0.3874608	-0.6409065	-0.43496	-10.75977	-7.262218	0	0
23.10753	-0.1444861	0.3850832	-0.2163251	-0.1435122	12.81389	8.795913	0	0
23.1241	-0.1510769	0.3807935	-0.3978196	-0.2589314	-5.477514	-3.483359	0	0
23.14071	-0.1558058	0.378077	-0.2846549	-0.1635118	3.410606	2.875797	0	0
23.15723	-0.1603227	0.3758254	-0.2734231	-0.1362989	0.3389953	0.8213348	0	0
23.25663	-0.1651658	0.3762007	-0.04872263	0.003775305	1.938393	1.208359	0	0
23.2732	-0.1651658	0.3762007	0	0	0.420136	-0.03255451	0	0
23.28976	-0.1651401	0.3761828	0.001546308	-0.001079447	0.04667036	-0.03257966	0	0
23.30633	-0.1651401	0.3761828	0	0	-0.04667036	0.03257966	0	0
23.3229	-0.1651145	0.376165	0.001545409	-0.001077648	0.04664321	-0.03252536	0	0
23.33946	-0.1650377	0.3761114	0.004636592	-0.00323617	0.09329746	-0.06514807	0	0
23.35603	-0.1650121	0.3760935	0.001545231	-0.001079323	-0.09329746	0.06509378	0	0
23.3726	-0.1649609	0.3760577	0.003091361	-0.002156847	0.0466623	-0.03251974	0	0
23.38917	-0.1649353	0.3760399	0.001545231	-0.001079323	-0.0466623	0.03251974	0	0
23.40604	-0.1648841	0.3760041	0.003035447	-0.002117836	0.04456436	-0.03105634	0	0
23.46266	-0.1648073	0.3759505	0.001357002	-0.0009464273	-0.02283905	0.01593967	0	0
23.47922	-0.1647817	0.3759327	0.001545231	-0.001079323	0.00257196	-0.001815887	0	0
23.49579	-0.164756	0.3759148	0.00154613	-0.001079323	2.714469E-05	0	0	0
23.51236	-0.164756	0.3759148	0	0	-0.0466623	0.03257403	0	0
23.52892	-0.164756	0.3759148	0	0	0	0	0	0
23.54549	-0.1647304	0.3758969	0.001545231	-0.001077524	0.04663516	-0.03251974	0	0
23.56215	-0.1647304	0.3758969	0	0	-0.046512	0.03243386	0	0
23.57862	-0.1647304	0.3758612	0	-0.002168581	0	-0.06545168	0	0
23.59519	-0.1647304	0.3758612	0	0	0	0.06562547	0	0
23.61176	-0.1647304	0.3758612	0	0	0	0	0	0
23.62833	-0.1647304	0.3758612	0	0	0	0	0	0
23.64489	-0.1647304	0.3758612	0	0	0	0	0	0
23.66146	-0.1647304	0.3758612	0	0	0	0	0	0
23.67823	-0.1647048	0.3758433	0.001527316	-0.001066189	0.04581231	-0.03198067	0	0
23.69459	-0.1647048	0.3758433	0	0	-0.04609714	0.0321795	0	0
23.71116	-0.1647304	0.3758612	-0.00154613	0.001079323	-0.04695421	0.03277781	0	0
23.73038	-0.1647048	0.375879	0.001332972	0.0009289702	0.08045832	-0.004201703	0	0
23.74694	-0.1647048	0.375879	0	0	-0.03725073	-0.02596066	0	0
23.76351	-0.1647048	0.375879	0	0	0	0	0	0
23.78008	-0.1647048	0.375879	0	0	0	0	0	0
23.79665	-0.1647048	0.375879	0	0	0	0	0	0
23.81592	-0.1647048	0.375879	0	0	0	0	0	0
23.83249	-0.1647048	0.375879	0	0	0	0	0	0
23.84905	-0.1647304	0.3758969	-0.00154613	0.001079323	-0.0466623	0.03257403	0	0
23.86587	-0.1647304	0.3758969	0	0	0.04631836	-0.03233393	0	0
23.88238	-0.1647304	0.3758969	0	0	0	0	0	0
23.89889	-0.1647304	0.3758969	0	0	0	0	0	0
23.9154	-0.1647304	0.3758969	0	0	0	0	0	0
23.93191	-0.1647304	0.3758969	0	0	0	0	0	0
24.04785	-0.1647048	0.375879	0.0002209303	-0.0001542271	0.001667978	-0.001164383	0	0
24.06451	-0.1647048	0.375879	0	0	-0.001666203	0.001163143	0	0
24.08103	-0.1647048	0.375879	0	0	0	0	0	0
24.09755	-0.1647048	0.375879	0	0	0	0	0	0
24.11412	-0.1647048	0.375879	0	0	0	0	0	0
24.13069	-0.1647048	0.375879	0	0	0	0	0	0
24.14725	-0.1647048	0.375879	0	0	0	0	0	0
24.16382	-0.1647048	0.375879	0	0	0	0	0	0
24.18039	-0.1647048	0.375879	0	0	0	0	0	0
24.19695	-0.1647048	0.375879	0	0	0	0	0	0
24.21352	-0.1647048	0.375879	0	0	0	0	0	0
24.23013	-0.1647048	0.375879	0	0	0	0	0	0
24.24666	-0.1647048	0.375879	0	0	0	0	0	0
24.26322	-0.1647048	0.375879	0	0	0	0	0	0
24.27979	-0.1647048	0.375879	0	0	0	0	0	0
24.29667	-0.1647048	0.375879	0	0	0	0	0	0
24.31292	-0.1647048	0.375879	0	0	0	0	0	0
24.32949	-0.1647048	0.375879	0	0	0	0	0	0
24.34606	-0.1647048	0.375879	0	0	0	0	0	0
24.36263	-0.1647048	0.375879	0	0	0	0	0	0
24.37919	-0.1647048	0.375879	0	0	0	0	0	0
24.39625	-0.1647048	0.375879	0	0	0	0	0	0
24.41232	-0.1646792	0.3758612	0.001592156	-0.001110246	0.04805413	-0.03350922	0	0
24.42889	-0.1646792	0.3758612	0	0	-0.04877006	0.03400846	0	0
24.44546	-0.1646792	0.3758612	0	0	0	0	0	0
24.46203	-0.1646792	0.3758612	0	0	0	0	0	0
24.47859	-0.1646792	0.3758254	0	-0.002158646	0	-0.06514806	0	0
24.49516	-0.1646536	0.3758076	0.001546308	-0.001077648	0.04667036	0.03262645	0	0
24.51173	-0.1646536	0.3758076	0	0	-0.04667036	0.03252536	0	0
24.52834	-0.164628	0.3757897	0.001541516	-0.001076102	0.04645352	-0.03242829	0	0
24.54486	-0.164628	0.3757897	0	0	-0.04652572	0.03247869	0	0
24.56483	-0.164628	0.3757897	0	0	0	0	0	0
24.58139	-0.164628	0.3757897	0	0	0	0	0	0
24.59796	-0.164628	0.3757897	0	0	0	0	0	0
24.61453	-0.164628	0.3757897	0	0	0	0	0	0
24.6311	-0.164628	0.3757897	0	0	0	0	0	0
24.64766	-0.164628	0.3757897	0	0	0	0	0	0
24.66444	-0.164628	0.3757897	0	0	0	0	0	0
24.68095	-0.164628	0.3757897	0	0	0	0	0	0
24.69736	-0.164628	0.3757897	0	0	0	0	0	0
24.76363	-0.1646536	0.3758076	-0.0003865326	0.0002698308	-0.00467495	0.00326349	0	0
24.7802	-0.1646536	0.3758076	0	0	0.004666231	-0.003257403	0	0
24.79704	-0.1646536	0.3758076	0	0	0	0	0	0
24.81333	-0.1646536	0.3758076	0	0	0	0	0	0
24.8299	-0.1646536	0.3758076	0	0	0	0	0	0
24.84647	-0.1646536	0.3758076	0	0	0	0	0	0
24.86303	-0.1646536	0.3758076	0	0	0	0	0	0
24.8796	-0.1646536	0.3758076	0	0	0	0	0	0
24.91312	-0.1646536	0.3758076	0	0	0	0	0	0
24.9293	-0.1646536	0.3758076	0	0	0	0	0	0
24.94614	-0.1646536	0.3758076	0	0	0	0	0	0
24.96265	-0.1646536	0.3758076	0	0	0	0	0	0
24.979	-0.1646536	0.3758076	0	0	0	0	0	0
24.99568	-0.1646536	0.3758076	0	0	0	0	0	0
25.01213	-0.1646536	0.3758076	0	0	0	0	0	0
25.0287	-0.1646536	0.3758076	0	0	0	0	0	0
25.04527	-0.1646536	0.3758076	0	0	0	0	0	0
25.06183	-0.1646536	0.3758076	0	0	0	0	0	0
25.0784	-0.164628	0.3757897	0.00154613	-0.001079323	0.04666499	-0.03257591	0	0
25.09525	-0.164628	0.3757897	0	0	-0.04627077	0.03230071	0	0
25.11153	-0.164628	0.3757897	0	0	0	0	0	0
25.12827	-0.164628	0.3757897	0	0	0	0	0	0
25.14467	-0.164628	0.3757897	0	0	0	0	0	0
25.16129	-0.164628	0.3757897	0	0	0	0	0	0
25.1778	-0.164628	0.3757897	0	0	0	0	0	0
25.19436	-0.164628	0.3757897	0	0	0	0	0	0
25.21093	-0.164628	0.3757897	0	0	0	0	0	0
25.2275	-0.164628	0.3757897	0	0	0	0	0	0
25.24407	-0.164628	0.3757897	0	0	0	0	0	0
25.26086	-0.164628	0.3757897	0	0	0	0	0	0
25.27968	-0.164628	0.3757897	0	0	0	0	0	0
25.29639	-0.164628	0.3757897	0	0	0	0	0	0
25.31282	-0.1646536	0.3758076	-0.001559235	0.001088471	-0.04705508	0.03284823	0	0
25.32938	-0.1646536	0.3758076	0	0	0.04726183	-0.03299256	0	0
25.34595	-0.164628	0.3758254	0.00154613	0.001077524	0.04666768	0.03252349	0	0
25.36252	-0.164628	0.3758254	0	0	-0.0466623	-0.03251974	0	0
25.37908	-0.164628	0.3758254	0	0	0	0	0	0
25.39565	-0.164628	0.3758254	0	0	0	0	0	0
25.49505	-0.164628	0.3757897	0	-0.0003594745	0	-0.003099704	0	0
25.51162	-0.164628	0.3757897	0	0	0	0.003099704	0	0
25.52819	-0.164628	0.3757897	0	0	0	0	0	0
25.54475	-0.164628	0.3757897	0	0	0	0	0	0
25.56132	-0.164628	0.3757897	0	0	0	0	0	0
25.57789	-0.164628	0.3757897	0	0	0	0	0	0
25.5946	-0.164628	0.3757897	0	0	0	0	0	0
25.61112	-0.164628	0.3757897	0	0	0	0	0	0
25.62763	-0.164628	0.3757897	0	0	0	0	0	0
25.64415	-0.164628	0.3757897	0	0	0	0	0	0
25.66072	-0.164628	0.3757897	0	0	0	0	0	0
25.67729	-0.164628	0.3757897	0	0	0	0	0	0
25.72699	-0.164628	0.3757897	0	0	0	0	0	0
25.74355	-0.164628	0.3757897	0	0	0	0	0	0
25.76012	-0.164628	0.3757897	0	0	0	0	0	0
25.77669	-0.164628	0.3757897	0	0	0	0	0	0
25.79325	-0.164628	0.3757897	0	0	0	0	0	0
25.81026	-0.164628	0.3757897	0	0	0	0	0	0
25.82639	-0.164628	0.3757897	0	0	0	0	0	0
25.84295	-0.164628	0.3757897	0	0	0	0	0	0
25.85952	-0.164628	0.3757897	0	0	0	0	0	0
25.8763	-0.164628	0.3757897	0	0	0	0	0	0
25.89265	-0.164628	0.3757897	0	0	0	0	0	0
25.90933	-0.164628	0.3757897	0	0	0	0	0	0
25.92579	-0.164628	0.3757897	0	0	0	0	0	0
25.94236	-0.164628	0.3757897	0	0	0	0	0	0
25.95892	-0.164628	0.3757897	0	0	0	0	0	0
25.97549	-0.164628	0.3757897	0	0	0	0	0	0
25.99239	-0.164628	0.3757897	0	0	0	0	0	0
26.00862	-0.164628	0.3757897	0	0	0	0	0	0
26.02541	-0.164628	0.3757897	0	0	0	0	0	0
26.04176	-0.164628	0.3757897	0	0	0	0	0	0
26.0629	-0.164628	0.3757897	0	0	0	0	0	0
26.07995	-0.164628	0.3757897	0	0	0	0	0	0
26.09603	-0.164628	0.3757897	0	0	0	0	0	0
26.11297	-0.164628	0.3757897	0	0	0	0	0	0
26.12917	-0.164628	0.3757897	0	0	0	0	0	0
26.14573	-0.164628	0.3757897	0	0	0	0	0	0
26.1623	-0.164628	0.3757897	0	0	0	0	0	0
26.24514	-0.164628	0.3757897	0	0	0	0	0	0
26.26171	-0.164628	0.3757897	0	0	0	0	0	0
26.27859	-0.164628	0.3757897	0	0	0	0	0	0
26.29484	-0.1646024	0.3758076	0.001576077	0.001100869	0.04756885	0.0332262	0	0
26.31162	-0.1646024	0.3758076	0	0	-0.04772545	-0.03333559	0	0
26.32797	-0.164628	0.3758254	-0.001565416	0.0010916	-0.04724434	0.03294454	0	0
26.34454	-0.164628	0.3758254	0	0	0.04755091	-0.03315832	0	0
26.3611	-0.164628	0.3758254	0	0	0	0	0	0
26.37767	-0.164628	0.3758254	0	0	0	0	0	0
26.39424	-0.164628	0.3758254	0	0	0	0	0	0
26.4108	-0.164628	0.3758254	0	0	0	0	0	0
26.42737	-0.164628	0.3758254	0	0	0	0	0	0
26.44421	-0.164628	0.3758254	0	0	0	0	0	0
26.4605	-0.164628	0.3758254	0	0	0	0	0	0
26.47724	-0.1646024	0.3758076	0.001530081	-0.00106696	0.04633264	-0.03230879	0	0
26.49364	-0.1646024	0.3758076	0	0	-0.04617795	0.03220092	0	0
26.52677	-0.164628	0.3757897	-0.0007726154	-0.0005396615	-0.01559653	-0.01089396	0	0
26.54334	-0.1646024	0.3757719	0.001545231	-0.001077524	0.04663516	-0.01082182	0	0
26.55991	-0.1645512	0.3757361	0.003091361	-0.002156847	0.0466623	-0.03257403	0	0
26.57648	-0.1645	0.3757004	0.003092261	-0.002158646	2.714469E-05	-5.428939E-05	0	0
26.59333	-0.1643719	0.375611	0.007596788	-0.005299097	0.1347754	-0.09396227	0	0
26.60961	-0.1643463	0.3755574	0.001573484	-0.003293424	-0.1817837	0.06053134	0	0
26.62685	-0.1653706	0.3742709	-0.0594241	-0.0746376	-1.819958	-2.128664	0	0
26.64274	-0.1667784	0.3732525	-0.0885651	-0.06407113	-0.8795278	0.3189152	0	0
26.65931	-0.1768946	0.3652489	-0.6106189	-0.4830942	-16.08147	-12.90768	0	0
26.67588	-0.1804879	0.3610871	-0.2168418	-0.251151	11.88285	6.999254	0	0
26.69244	-0.1865679	0.3478534	-0.3671155	-0.7990632	-4.53553	-16.53697	0	0
26.70901	-0.1877111	0.3409069	-0.06900472	-0.4192918	8.998556	11.4635	0	0
26.72592	-0.1882953	0.3239955	-0.03454987	-1.000273	1.029303	-17.35621	0	0
26.76257	-0.1917719	0.2911021	-0.09484104	-0.8973209	-1.12559	1.922041	0	0
26.77914	-0.1934451	0.2852015	-0.1009941	-0.3561622	-0.1156048	10.16746	0	0
26.79571	-0.1960794	0.2779036	-0.1590086	-0.4405005	-1.750881	-2.545335	0	0
26.81227	-0.2042686	0.2711395	-0.4942985	-0.4082827	-10.11907	0.9723352	0	0
26.82884	-0.2131089	0.2641396	-0.533603	-0.4225172	-1.186211	-0.4295976	0	0
26.8455	-0.2169268	0.2570107	-0.2291816	-0.4279379	9.16214	-0.1631449	0	0
26.86197	-0.2202622	0.2447672	-0.2024674	-0.7432078	0.8062819	-9.515413	0	0
26.87854	-0.2208385	0.2332284	-0.03478568	-0.6964844	5.074959	1.414103	0	0
26.89511	-0.2209387	0.2243184	-0.006048706	-0.5378096	0.8672838	4.788816	0	0
26.91168	-0.2214397	0.2093887	-0.03023903	-0.9011574	-0.7300656	-10.96586	0	0
26.92856	-0.2217402	0.1875377	-0.01780053	-1.294196	0.3718416	-11.74964	0	0
26.94481	-0.222241	0.1700011	-0.03082081	-1.07926	-0.3929755	6.48713	0	0
26.96138	-0.2226916	0.1519076	-0.02719984	-1.092126	0.1103419	-0.3920699	0	0
26.97794	-0.2238178	0.1224322	-0.06797487	-1.77914	-1.230593	-20.73411	0	0
26.99451	-0.2245182	0.1056437	-0.04227798	-1.013355	0.7755334	23.11144	0	0
27.01108	-0.2259184	0.08456388	-0.08451639	-1.272382	-1.274758	-7.817443	0	0
27.02813	-0.2266681	0.0744288	-0.04395776	-0.594241	1.206286	20.1691	0	0
27.04421	-0.2283416	0.0603648	-0.1040777	-0.8746837	-1.814423	-8.463778	0	0
27.06078	-0.2313107	0.0425333	-0.1792341	-1.076435	-2.302285	-6.180302	0	0
27.07734	-0.2335285	0.02988364	-0.1338693	-0.763535	1.369191	9.44389	0	0
27.09391	-0.2364157	0.01866899	-0.1742693	-0.6769177	-1.219273	2.614117	0	0
27.11048	-0.2415826	0.006441636	-0.3118758	-0.7380447	-4.152972	-1.844817	0	0
27.1272	-0.2461177	-0.001627673	-0.2711452	-0.4824543	1.223408	7.677054	0	0
27.14372	-0.2505189	-0.00818783	-0.2665509	-0.3972983	0.1382256	2.562047	0	0
27.16023	-0.2528639	-0.01455323	-0.1420148	-0.3855033	3.771098	0.3571667	0	0
27.17675	-0.2586769	-0.02273159	-0.351927	-0.4951287	-6.355283	-3.319008	0	0
27.19331	-0.259685	-0.02381226	-0.06084863	-0.06522956	8.797929	12.99383	0	0
27.20988	-0.2560928	-0.02722736	0.2168252	-0.2061362	8.380213	-4.252571	0	0
27.22645	-0.2541215	-0.02874639	0.1189828	-0.09168883	-2.95289	3.454028	0	0
27.24301	-0.2539983	-0.02884136	0.00744099	-0.005732652	-3.366532	2.594312	0	0
27.25958	-0.2539736	-0.02886035	0.001487667	-0.001146443	-0.179682	0.13842	0	0
27.27615	-0.2539736	-0.02886035	0	0	-0.04489788	0.03459973	0	0
27.29272	-0.253949	-0.02887934	0.001487667	-0.001146443	0.04489788	-0.03459973	0	0
27.30928	-0.253949	-0.02887934	0	0	-0.04489788	0.03459973	0	0
27.32585	-0.253949	-0.02887934	0	0	0	0	0	0
27.34242	-0.253949	-0.02887934	0	0	0	0	0	0
27.35898	-0.253949	-0.02887934	0	0	0	0	0	0
27.3972	-0.253949	-0.02887934	0	0	0	0	0	0
27.43042	-0.2539243	-0.02886035	0.0007428514	0.0005717735	0.01039857	0.008003791	0	0
27.44693	-0.2539243	-0.02886035	0	0	-0.0149376	-0.01149749	0	0
27.46347	-0.2539243	-0.02886035	0	0	0	0	0	0
27.48004	-0.2539243	-0.02886035	0	0	0	0	0	0
27.4966	-0.253949	-0.02884136	-0.001489466	0.001146443	-0.04495217	0.03459973	0	0
27.51317	-0.253949	-0.02884136	0	0	0.04495217	-0.03459973	0	0
27.52974	-0.253949	-0.02884136	0	0	0	0	0	0
27.54631	-0.253949	-0.02884136	0	0	0	0	0	0
27.56287	-0.253949	-0.02884136	0	0	0	0	0	0
27.57944	-0.253949	-0.02884136	0	0	0	0	0	0
27.59604	-0.2539243	-0.02886035	0.001486386	-0.001144073	0.04481277	-0.03449244	0	0
27.61257	-0.2539243	-0.02886035	0	0	-0.04486179	0.03453017	0	0
27.62914	-0.2539243	-0.02886035	0	0	0	0	0	0
27.64608	-0.2538997	-0.02887934	0.001455166	-0.001121397	0.04343198	-0.03347006	0	0
27.66227	-0.2539243	-0.02889834	-0.001521832	-0.001172772	-0.08985116	-0.001550587	0	0
27.6791	-0.2538997	-0.02891733	0.001464567	-0.001128642	0.09043162	0.001336315	0	0
27.69541	-0.253875	-0.02893633	0.001511684	-0.001165066	0.001422076	-0.001099346	0	0
27.71197	-0.253801	-0.02899331	0.0044648	-0.00343933	0.08983886	-0.06918704	0	0
27.72854	-0.2537517	-0.0290313	0.002977133	-0.002292999	-0.04489787	0.03459634	0	0
27.74511	-0.2536038	-0.02914526	0.008929599	-0.00687911	0.1796458	-0.1384091	0	0
27.76167	-0.2532832	-0.02939221	0.01935226	-0.01490568	0.3145566	-0.2422422	0	0
27.77824	-0.2510622	-0.03106436	0.1340573	-0.100931	3.461805	-2.596249	0	0
27.79519	-0.2471323	-0.03412598	0.2319233	-0.1806815	2.920316	-2.379753	0	0
27.8117	-0.2462167	-0.03479196	0.05545918	-0.04033781	-5.274686	4.195013	0	0
27.82794	-0.2428475	-0.03741924	0.2073986	-0.1617294	4.638679	-3.706059	0	0
27.84451	-0.2404162	-0.03924825	0.1467528	-0.1103997	-1.848274	1.564352	0	0
27.86108	-0.2401183	-0.03947696	0.01798152	-0.01380477	-3.886327	2.915241	0	0
27.87774	-0.2401183	-0.03947696	0	0	-0.5410328	0.4153615	0	0
27.89426	-0.2401183	-0.03947696	0	0	0	0	0	0
27.91078	-0.2401183	-0.03947696	0	0	0	0	0	0
27.92734	-0.2401183	-0.03947696	0	0	0	0	0	0
27.94391	-0.2401183	-0.03947696	0	0	0	0	0	0
27.9608	-0.2401183	-0.03947696	0	0	0	0	0	0
27.99733	-0.2401183	-0.03947696	0	0	0	0	0	0
28.01389	-0.2401183	-0.03947696	0	0	0	0	0	0
28.03046	-0.2400935	-0.03949602	0.00149846	-0.001150378	0.04523143	-0.03472449	0	0
28.04703	-0.2400935	-0.03949602	0	0	-0.04522102	0.03471649	0	0
28.06359	-0.2400687	-0.03951508	0.001498633	-0.001150736	0.04522882	-0.03472928	0	0
28.08039	-0.2400438	-0.03953414	0.001478041	-0.001134702	-0.0006172433	0.0004806008	0	0
28.0969	-0.2400438	-0.03957226	0	-0.00230869	-0.04437491	-0.03524638	0	0
28.11329	-0.2399693	-0.03962944	0.004544413	-0.003488308	0.1381126	-0.03585064	0	0
28.12986	-0.2399197	-0.03966756	0.00299782	-0.002300982	-0.04692479	0.03602434	0	0
28.14644	-0.2397459	-0.03976287	0.01048378	-0.005748596	0.2258487	-0.1040133	0	0
28.16299	-0.239572	-0.0398963	0.01050128	-0.008060494	0.0005283084	-0.06977725	0	0
28.17956	-0.2394727	-0.03962944	0.00599564	0.01610755	-0.1360354	0.729687	0	0
28.19613	-0.2388517	-0.03827645	0.03748219	0.08166653	0.950266	1.978574	0	0
28.21269	-0.240019	-0.03623858	-0.07045731	0.1230059	-3.257621	1.247626	0	0
28.27896	-0.2524198	0.01481042	-0.1871332	0.7703531	-1.408547	7.814971	0	0
28.29554	-0.2502719	0.03892351	0.1295254	1.45413	3.822094	8.253241	0	0
28.3121	-0.2466869	0.06369575	0.2165912	1.496634	2.62765	1.282761	0	0
28.32866	-0.2433681	0.08252037	0.2003233	1.136256	-0.4911927	-10.88123	0	0
28.34523	-0.2408382	0.09502428	0.1527062	0.7547378	-1.437085	-11.51424	0	0
28.3618	-0.2349975	0.1207888	0.3525447	1.55515	6.031137	24.15648	0	0
28.37836	-0.2261184	0.1471666	0.5360067	1.59235	5.537214	1.122766	0	0
28.39493	-0.2173534	0.167593	0.5290554	1.232938	-0.2098055	-10.84771	0	0
28.4115	-0.2035367	0.1949006	0.8337839	1.647914	9.195666	12.52257	0	0
28.42814	-0.1943066	0.2162452	0.5547672	1.282897	-8.401877	-10.99156	0	0
28.44463	-0.1885746	0.2306964	0.3475867	0.8763093	-6.253801	-12.27296	0	0
28.4612	-0.1770222	0.2663062	0.6973057	2.149413	10.5789	38.51103	0	0
28.47776	-0.1748794	0.2730725	0.1293398	0.4084122	-17.14124	-52.54352	0	0
28.49433	-0.1669831	0.2996641	0.4766183	1.605072	10.48089	36.11527	0	0
28.5109	-0.1611175	0.3245492	0.3540467	1.502069	-3.699216	-3.108648	0	0
28.52747	-0.1586296	0.336389	0.1501725	0.7146558	-6.152936	-23.76417	0	0
28.54422	-0.1533137	0.3646595	0.3172163	1.686984	5.012537	29.17698	0	0
28.5606	-0.1507168	0.3802215	0.158596	0.9503804	-4.787445	-22.23203	0	0
28.57717	-0.1476286	0.3990313	0.1864009	1.135358	0.8440599	5.615278	0	0
28.59376	-0.1442284	0.4103772	0.2049075	0.6837392	0.558081	-13.6189	0	0
28.6103	-0.141057	0.4192063	0.1917369	0.5337851	-0.3974904	-4.525625	0	0
28.62728	-0.1388378	0.4240802	0.1306672	0.2869883	-1.821694	-7.361892	0	0
28.64343	-0.1320171	0.4292073	0.4222966	0.3174377	8.801392	0.9189653	0	0
28.66	-0.1308274	0.429817	0.07181276	0.03679952	-10.71205	-8.577313	0	0
28.67657	-0.1306204	0.4295659	0.0124928	-0.01515544	-1.790383	-1.568094	0	0
28.69313	-0.1306463	0.4295121	-0.001561421	-0.003246963	-0.4241818	0.3594193	0	0
28.71251	-0.1306981	0.4292969	-0.002670046	-0.01110469	-0.03084315	-0.2186102	0	0
28.72908	-0.1306463	0.4291535	0.003122841	-0.00865797	0.1611643	0.06807024	0	0
28.74565	-0.1306204	0.4290639	0.001561421	-0.005411006	-0.04712377	0.09799355	0	0
28.76238	-0.1306463	0.4288307	-0.001545584	-0.01392806	-0.09329164	-0.2557351	0	0
28.77878	-0.1306463	0.4286515	0	-0.01093405	0.04664582	0.09035958	0	0
28.7954	-0.1310602	0.4281853	-0.02489584	-0.0280411	-0.7539186	-0.5180514	0	0
28.81192	-0.131862	0.4274502	-0.04855717	-0.04451961	-0.714059	-0.4972937	0	0
28.82848	-0.1336201	0.426016	-0.1061453	-0.08658525	-1.74112	-1.271813	0	0
28.84505	-0.1334133	0.4257651	0.01248237	-0.0151483	3.580602	2.15622	0	0
28.86161	-0.1331548	0.4255858	0.01560341	-0.01081841	0.09419325	0.1306762	0	0
28.92159	-0.1323792	0.4249047	0.0129323	-0.01135664	-0.0348965	-0.007031537	0	0
28.93816	-0.1317844	0.4244566	0.03590008	-0.02704784	0.3000606	-0.2049963	0	0
28.95473	-0.1310343	0.423901	0.045274	-0.03353637	0.2829055	-0.1958243	0	0
28.97129	-0.1302841	0.4233454	0.0452821	-0.03353457	0.0002443093	5.430344E-05	0	0
28.98786	-0.13031	0.4233275	-0.001561421	-0.001081122	-1.41374	0.979447	0	0
29.00443	-0.1303359	0.4233096	-0.001561421	-0.001082921	0	-5.428939E-05	0	0
29.02107	-0.1303618	0.4232917	-0.001555515	-0.001076413	0.0001778433	0.0001959856	0	0
29.03758	-0.1304135	0.4232558	-0.003133303	-0.002171292	-0.04759306	-0.03302641	0	0
29.05413	-0.1304652	0.42322	-0.00312572	-0.002164237	0.0002293246	0.0002133678	0	0
29.07069	-0.130517	0.4231841	-0.003123561	-0.002164541	6.52115E-05	-9.175312E-06	0	0
29.08726	-0.1305428	0.4231662	-0.00156232	-0.001081122	0.04712376	0.03270142	0	0
29.10383	-0.1307498	0.4230228	-0.01249136	-0.008654372	-0.3298392	-0.2285611	0	0
29.12064	-0.1310343	0.4228257	-0.01692723	-0.01172806	-0.1329031	-0.09209078	0	0
29.15353	-0.1324309	0.421858	-0.04246042	-0.02942147	-0.5137485	-0.3560057	0	0
29.1701	-0.1397669	0.4167342	-0.4428058	-0.309271	-8.094727	-5.658379	0	0
29.18669	-0.1507425	0.409142	-0.6615709	-0.4576375	-6.597787	-4.474618	0	0
29.20323	-0.1562424	0.4053116	-0.3324357	-0.2315198	9.933321	6.824245	0	0
29.2198	-0.1605791	0.4022517	-0.261793	-0.1847222	2.133598	1.413413	0	0
29.23636	-0.1649865	0.3991744	-0.2660325	-0.1857425	-0.1279557	-0.03079396	0	0
29.25324	-0.1703845	0.3954002	-0.3197467	-0.2235658	-1.605847	-1.130771	0	0
29.2695	-0.1734499	0.3932541	-0.1886379	-0.1320643	3.957098	2.761682	0	0
29.28606	-0.1796729	0.3888911	-0.375617	-0.2633494	-5.697483	-4.00042	0	0
29.30263	-0.180437	0.3883547	-0.04612397	-0.0323743	9.944119	6.970843	0	0
29.3192	-0.1807936	0.3881044	-0.0215208	-0.01510872	0.742525	0.521076	0	0
29.33579	-0.1807936	0.3881044	0	0	0.6489761	0.455615	0	0
29.35634	-0.1807936	0.3881044	0	0	0	0	0	0
29.3729	-0.1807936	0.3881044	0	0	0	0	0	0
29.38947	-0.1807936	0.3881044	0	0	0	0	0	0
29.40604	-0.1807936	0.3881044	0	0	0	0	0	0
29.42285	-0.180819	0.3881223	-0.001514469	0.001063407	-0.04536728	0.03185531	0	0
29.43937	-0.180819	0.3881223	0	0	0.04544258	-0.03190819	0	0
29.45574	-0.180819	0.3881223	0	0	0	0	0	0
29.47239	-0.180819	0.3881223	0	0	0	0	0	0
29.50544	-0.180819	0.3881223	0	0	0	0	0	0
29.522	-0.180819	0.3881223	0	0	0	0	0	0
29.53858	-0.180819	0.3881223	0	0	0	0	0	0
29.55514	-0.180819	0.3881223	0	0	0	0	0	0
29.5717	-0.180819	0.3881223	0	0	0	0	0	0
29.58827	-0.180819	0.3881223	0	0	0	0	0	0
29.60484	-0.180819	0.3881223	0	0	0	0	0	0
29.62149	-0.180819	0.3881223	0	0	0	0	0	0
29.63797	-0.180819	0.3881223	0	0	0	0	0	0
29.65454	-0.180819	0.3881223	0	0	0	0	0	0
29.6711	-0.1807936	0.3881044	0.001537136	-0.001079323	0.04639085	-0.03257403	0	0
29.68767	-0.180819	0.3880866	-0.001537136	-0.001079323	-0.09278171	0	0	0
29.70424	-0.180819	0.3880866	0	0	0.04639085	0.03257403	0	0
29.72106	-0.180819	0.3880866	0	0	0	0	0	0
29.73737	-0.180819	0.3880866	0	0	0	0	0	0
29.75409	-0.180819	0.3880866	0	0	0	0	0	0
29.7706	-0.180819	0.3880866	0	0	0	0	0	0
29.78707	-0.180819	0.3880866	0	0	0	0	0	0
29.80364	-0.180819	0.3880866	0	0	0	0	0	0
29.82021	-0.180819	0.3880866	0	0	0	0	0	0
29.83677	-0.180819	0.3880866	0	0	0	0	0	0
29.85366	-0.180819	0.3880866	0	0	0	0	0	0
29.86991	-0.180819	0.3880866	0	0	0	0	0	0
29.88647	-0.180819	0.3880866	0	0	0	0	0	0
29.90304	-0.180819	0.3880866	0	0	0	0	0	0
29.91961	-0.180819	0.3880866	0	0	0	0	0	0
29.93618	-0.180819	0.3880866	0	0	0	0	0	0
29.95274	-0.180819	0.3880866	0	0	0	0	0	0
29.97025	-0.180819	0.3880866	0	0	0	0	0	0
30.08833	-0.180819	0.3880866	0	0	0	0	0	0
30.10801	-0.180819	0.3880866	0	0	0	0	0	0
30.12485	-0.180819	0.3880866	0	0	0	0	0	0
30.14136	-0.180819	0.3880866	0	0	0	0	0	0
30.15771	-0.180819	0.3880866	0	0	0	0	0	0
30.17428	-0.180819	0.3880866	0	0	0	0	0	0
30.1909	-0.180819	0.3880866	0	0	0	0	0	0
30.20741	-0.180819	0.3880866	0	0	0	0	0	0
30.22398	-0.180819	0.3880866	0	0	0	0	0	0
30.24055	-0.1808445	0.3881044	-0.001537136	0.001079323	-0.04639085	0.03257403	0	0
30.25712	-0.1808445	0.3881044	0	0	0.04639085	-0.03257403	0	0
30.27368	-0.1808445	0.3881044	0	0	0	0	0	0
30.29025	-0.1808445	0.3881044	0	0	0	0	0	0
30.30698	-0.1808445	0.3881044	0	0	0	0	0	0
30.32338	-0.1808445	0.3881044	0	0	0	0	0	0
30.33995	-0.1808445	0.3881044	0	0	0	0	0	0
30.35652	-0.1808445	0.3881044	0	0	0	0	0	0
30.37308	-0.1808445	0.3881044	0	0	0	0	0	0
30.38965	-0.1808445	0.3881044	0	0	0	0	0	0
30.40622	-0.1808445	0.3881044	0	0	0	0	0	0
30.42307	-0.1808445	0.3881044	0	0	0	0	0	0
30.43935	-0.1808445	0.3881044	0	0	0	0	0	0
30.45592	-0.1808445	0.3881044	0	0	0	0	0	0
30.47248	-0.1808445	0.3881044	0	0	0	0	0	0
30.48905	-0.1808445	0.3881044	0	0	0	0	0	0
30.50562	-0.180819	0.3880866	0.001537136	-0.001079323	0.04639085	-0.03257403	0	0
30.52218	-0.180819	0.3880866	0	0	-0.04639352	0.03257591	0	0
30.53875	-0.180819	0.3880866	0	0	0	0	0	0
30.55532	-0.180819	0.3880866	0	0	0	0	0	0
30.57189	-0.1808445	0.3881044	-0.001537136	0.001079323	-0.04639085	0.03257403	0	0
30.58845	-0.1808445	0.3881044	0	0	0.04639085	-0.03257403	0	0
30.6052	-0.1808445	0.3881044	0	0	0	0	0	0
30.62159	-0.1808445	0.3881044	0	0	0	0	0	0
30.63815	-0.1808445	0.3881044	0	0	0	0	0	0
30.65473	-0.1808445	0.3881044	0	0	0	0	0	0
30.67129	-0.1808445	0.3881044	0	0	0	0	0	0
30.68826	-0.1808445	0.3881044	0	0	0	0	0	0
30.82039	-0.1808445	0.3881044	0	0	0	0	0	0
30.83695	-0.1808445	0.3881044	0	0	0	0	0	0
30.85352	-0.1808445	0.3881044	0	0	0	0	0	0
30.87009	-0.1808445	0.3881044	0	0	0	0	0	0
30.88666	-0.1808445	0.3881044	0	0	0	0	0	0
30.90659	-0.1808445	0.3881044	0	0	0	0	0	0
30.92343	-0.180819	0.3880866	0.001512754	-0.001062203	0.04114112	-0.02888786	0	0
30.93973	-0.1808445	0.3881044	-0.001562317	0.001097004	-0.09280582	0.065165	0	0
30.95629	-0.1808445	0.3881044	0	0	0.0475339	-0.03337664	0	0
30.97296	-0.1808445	0.3881044	0	0	0	0	0	0
30.98947	-0.1808445	0.3881044	0	0	0	0	0	0
31.00599	-0.1808445	0.3881044	0	0	0	0	0	0
31.02256	-0.1808445	0.3881044	0	0	0	0	0	0
31.03913	-0.180819	0.3881223	0.001537136	0.001079323	0.04639085	0.03257403	0	0
31.0557	-0.180819	0.3881223	0	0	-0.04638818	-0.03257216	0	0
31.07226	-0.180819	0.3881223	0	0	0	0	0	0
31.08883	-0.180819	0.3881223	0	0	0	0	0	0
31.1054	-0.180819	0.3881223	0	0	0	0	0	0
31.12196	-0.180819	0.3881223	0	0	0	0	0	0
31.13858	-0.180819	0.3881223	0	0	0	0	0	0
31.1551	-0.180819	0.3881223	0	0	0	0	0	0
31.17167	-0.180819	0.3881223	0	0	0	0	0	0
31.18862	-0.180819	0.3881223	0	0	0	0	0	0
31.2048	-0.180819	0.3881223	0	0	0	0	0	0
31.22164	-0.1808445	0.3881044	-0.001512068	-0.001061721	-0.04578982	-0.03215201	0	0
31.23793	-0.1808445	0.3881044	0	0	0.04563694	0.03204466	0	0
31.25467	-0.1808445	0.3881044	0	0	0	0	0	0
31.27106	-0.1808445	0.3881044	0	0	0	0	0	0
31.28763	-0.1808445	0.3881044	0	0	0	0	0	0
31.3042	-0.1808445	0.3881044	0	0	0	0	0	0
31.32121	-0.1808445	0.3881044	0	0	0	0	0	0
31.33733	-0.1808445	0.3881044	0	0	0	0	0	0
31.3539	-0.1808699	0.3881223	-0.00153606	0.001079199	-0.04699134	0.03301499	0	0
31.37047	-0.1808445	0.3881402	0.001536413	0.001079447	0.09272742	7.501155E-06	0	0
31.38703	-0.1808445	0.3881402	0	0	-0.04637438	-0.03258154	0	0
31.4036	-0.1808445	0.3881402	0	0	0	0	0	0
31.42017	-0.1808445	0.3881402	0	0	0	0	0	0
31.4368	-0.1808445	0.3881402	0	0	0	0	0	0
31.4533	-0.1808445	0.3881402	0	0	0	0	0	0
31.56939	-0.180819	0.3881223	0.0002193635	-0.0001540294	0.001654411	-0.001161669	0	0
31.58591	-0.1808445	0.3881044	-0.001541751	-0.001082564	-0.01328056	-0.007002076	0	0
31.60667	-0.1808445	0.3881044	0	0	0.04135483	0.02903792	0	0
31.62324	-0.1808445	0.3881044	0	0	0	0	0	0
31.6398	-0.1808445	0.3881044	0	0	0	0	0	0
31.65645	-0.1808445	0.3881044	0	0	0	0	0	0
31.67294	-0.1808445	0.3881044	0	0	0	0	0	0
31.68951	-0.1808445	0.3881044	0	0	0	0	0	0
31.70607	-0.180819	0.3881223	0.001537136	0.001079323	0.04639085	0.03257403	0	0
31.72264	-0.1808445	0.3881402	-0.001537136	0.001079323	-0.09278171	0	0	0
31.73921	-0.1808445	0.3881402	0	0	0.04639085	-0.03257403	0	0
31.75578	-0.1808445	0.3881402	0	0	0	0	0	0
31.77234	-0.1808445	0.3881402	0	0	0	0	0	0
31.78905	-0.1808445	0.3881402	0	0	0	0	0	0
31.80558	-0.1808445	0.3881402	0	0	0	0	0	0
31.83861	-0.1808445	0.3881402	0	0	0	0	0	0
31.87174	-0.1808445	0.3881402	0	0	0	0	0	0
31.88831	-0.1808445	0.3881402	0	0	0	0	0	0
31.90513	-0.1808445	0.3881402	0	0	0	0	0	0
31.92144	-0.180819	0.3881223	0.001561039	-0.001096107	0.04711495	-0.03308247	0	0
31.93815	-0.1808445	0.3881044	-0.001524151	-0.001070205	-0.09342851	0.0007843615	0	0
31.95458	-0.1808445	0.3881044	0	0	0.04600162	0.03230073	0	0
31.97114	-0.1808445	0.3881044	0	0	0	0	0	0
32.0047	-0.1808445	0.3881044	0	0	0	0	0	0
32.03741	-0.1808445	0.3881402	0	0.001093294	0	0.01649832	0	0
32.05398	-0.1808445	0.3881402	0	0	0	-0.02218442	0	0
32.07055	-0.1808445	0.3881402	0	0	0	0	0	0
32.08726	-0.1808445	0.3881402	0	0	0	0	0	0
32.10368	-0.1808445	0.3881402	0	0	0	0	0	0
32.12028	-0.1808445	0.3881402	0	0	0	0	0	0
32.13681	-0.1808445	0.3881402	0	0	0	0	0	0
32.15338	-0.1808445	0.3881402	0	0	0	0	0	0
32.16994	-0.1808445	0.3881402	0	0	0	0	0	0
32.18651	-0.180819	0.3881223	0.001537136	-0.001079323	0.04639085	-0.03257403	0	0
32.20308	-0.180819	0.3881223	0	0	-0.04639085	0.03257403	0	0
32.21965	-0.180819	0.3881223	0	0	0	0	0	0
32.23637	-0.1808445	0.3881044	-0.001523108	-0.001069473	-0.04575677	-0.0321288	0	0
32.25278	-0.180819	0.3880866	0.001551425	-0.001089356	0.09278958	-0.0006000783	0	0
32.26935	-0.180819	0.3880866	0	0	-0.04703871	0.03302894	0	0
32.28592	-0.180819	0.3880866	0	0	0	0	0	0
32.30633	-0.1807681	0.3880151	0.002494687	-0.003501903	0.06745406	-0.09468829	0	0
32.3229	-0.1810737	0.3875145	-0.01844383	-0.03021565	-0.5661585	-0.7223154	0	0
32.33947	-0.1840511	0.3851369	-0.1797199	-0.1435122	-4.867321	-3.419296	0	0
32.35645	-0.1873555	0.3810616	-0.1945283	-0.2399102	-0.441329	-2.872916	0	0
32.3726	-0.1872793	0.3763973	0.00472036	-0.2889222	6.014028	-1.479354	0	0
32.38947	-0.1819901	0.3650346	0.3134103	-0.6732948	9.348571	-11.64059	0	0
32.40573	-0.1731946	0.3528001	0.541117	-0.7526861	6.872991	-2.39631	0	0
32.42229	-0.1654218	0.3437998	0.4691682	-0.5432611	-2.192111	6.380697	0	0
32.43901	-0.1544187	0.3318889	0.6583872	-0.7127029	5.685766	-5.091492	0	0
32.45552	-0.143584	0.3247277	0.6562491	-0.433749	-0.06435871	8.396613	0	0
32.47199	-0.1366432	0.3198877	0.421279	-0.2937674	-7.123396	4.243708	0	0
32.48856	-0.1263755	0.3128322	0.6197545	-0.4258721	6.006599	-3.997975	0	0
32.50513	-0.1124447	0.3032738	0.8408651	-0.5769449	6.673131	-4.559388	0	0
32.52169	-0.09445494	0.2911021	1.085866	-0.7346844	7.394156	-4.760586	0	0
32.53826	-0.0870949	0.2861672	0.444253	-0.2978734	-19.36393	13.18298	0	0
32.55483	-0.07616815	0.2787982	0.6595397	-0.4447962	6.497366	-4.434141	0	0
32.5714	-0.06147507	0.2690453	0.8868759	-0.5886844	6.861021	-4.342553	0	0
32.58811	-0.05079836	0.2619368	0.6387118	-0.4252482	-7.456132	4.910467	0	0
32.60462	-0.03753499	0.2530683	0.8033533	-0.5371599	4.955201	-3.368196	0	0
32.63766	-0.01844528	0.2401927	0.5777918	-0.3897085	-4.552282	2.975864	0	0
32.65423	-0.005447315	0.2315045	0.7845585	-0.5244188	4.168151	-2.715586	0	0
32.67167	0.007052515	0.2231501	0.7165439	-0.4789115	-1.999732	1.337982	0	0
32.68736	0.01663005	0.2168568	0.6104285	-0.4011081	-3.202569	2.348111	0	0
32.70393	0.02315376	0.2125747	0.3937719	-0.2584664	-6.71656	4.422029	0	0
32.7205	0.03556395	0.2045804	0.7490805	-0.4825402	10.72324	-6.76256	0	0
32.73706	0.04426055	0.1989759	0.5249281	-0.3382859	-6.764934	4.353601	0	0
32.7702	0.06058366	0.1880433	0.4926325	-0.3299482	-0.6497884	0.1677562	0	0
32.78677	0.06538036	0.1847747	0.2895295	-0.1972922	-4.08644	2.669044	0	0
32.80333	0.06941461	0.1819563	0.2435074	-0.1701175	-1.38895	0.8201331	0	0
32.8199	0.07056684	0.1811612	0.06954888	-0.0479948	-5.250079	3.685671	0	0
32.83647	0.07216395	0.1800225	0.09640153	-0.06872949	0.8104147	-0.6257743	0	0
32.85303	0.0733419	0.1791006	0.07110131	-0.0556463	-0.7635624	0.3948514	0	0
32.86982	0.07352512	0.1787571	0.01091575	-0.02046431	-1.804562	1.054872	0	0
32.88633	0.07362981	0.1784317	0.006341338	-0.01971086	-0.1373917	0.02262983	0	0
32.90273	0.0738392	0.1779616	0.01276481	-0.02865825	0.1951639	-0.2718481	0	0
32.91935	0.07425794	0.1770213	0.02519428	-0.05657294	0.3763789	-0.8452891	0	0
32.93587	0.07378685	0.1766958	-0.02852717	-0.01971082	-1.621317	1.112501	0	0
32.95243	0.07368216	0.1766235	-0.006318987	-0.004366761	0.6713265	0.4638321	0	0
32.98851	0.07365599	0.1766054	-0.000725529	-0.0005014474	0.106253	0.07342528	0	0
33.00508	0.07365599	0.1765692	0	-0.002182931	0.01378211	-0.03194137	0	0
33.02164	0.07360364	0.1765692	-0.003159718	0	-0.09536048	0.06588098	0	0
33.05495	0.07355129	0.176533	-0.001571716	-0.00108584	0.03184069	-0.02177195	0	0
33.07146	0.07349894	0.1764969	-0.003170669	-0.002190497	-0.03209709	-0.02217468	0	0
33.08791	0.07349894	0.1764969	0	0	0.09620045	0.06646129	0	0
33.10448	0.07342042	0.1764426	-0.004737396	-0.003273339	-0.1434538	-0.09912049	0	0
33.12104	0.07339425	0.1764245	-0.001580587	-0.001092418	0.09527268	0.06582031	0	0
33.13761	0.07336807	0.1764064	-0.001579859	-0.001091915	2.197448E-05	1.518499E-05	0	0
33.15418	0.07336807	0.1764064	0	0	0.04768024	0.03295407	0	0
33.17075	0.0733419	0.1763884	-0.001579859	-0.001091016	-0.04768024	-0.03292692	0	0
33.18731	0.07331572	0.1763703	-0.001579859	-0.001091915	0	-2.714469E-05	0	0
33.20388	0.07331572	0.1763703	0	0	0.04768024	0.03295407	0	0
33.22057	0.07328955	0.1763522	-0.001568304	-0.001083929	-0.04715776	-0.03259296	0	0
33.23708	0.07328955	0.1763522	0	0	0.04723361	0.03264538	0	0
33.2536	0.07326338	0.1763341	-0.001584968	-0.001095446	-0.04798914	-0.03316756	0	0
33.27015	0.07326338	0.1763341	0	0	0.04793378	0.03312929	0	0
33.28672	0.07326338	0.1763341	0	0	0	0	0	0
33.30328	0.07326338	0.1763341	0	0	0	0	0	0
33.32014	0.07326338	0.1763341	0	0	0	0	0	0
33.33641	0.0732372	0.1763522	-0.001608833	0.001111624	-0.04856027	0.03355274	0	0
33.35316	0.0732372	0.1763522	0	0	0.04871733	-0.03366126	0	0
33.36967	0.0732372	0.1763522	0	0	0	0	0	0
33.38611	0.0732372	0.1763522	0	0	0	0	0	0
33.40269	0.0732372	0.1763522	0	0	0	0	0	0
33.41925	0.0732372	0.1763522	0	0	0	0	0	0
33.43581	0.0732372	0.1763522	0	0	0	0	0	0
33.45238	0.0732372	0.1763522	0	0	0	0	0	0
33.51865	0.0732372	0.1763522	0	0	0	0	0	0
33.53521	0.07321102	0.1763341	-0.001579859	-0.001091915	-0.01907297	-0.01318223	0	0
33.5518	0.07321102	0.1763341	0	0	0.04764733	0.03293132	0	0
33.56835	0.07318485	0.176316	-0.001582045	-0.001092525	-0.0477462	-0.03297247	0	0
33.58492	0.07315867	0.1762979	-0.001579859	-0.001091915	6.601008E-05	1.841954E-05	0	0
33.60148	0.07315867	0.1762979	0	0	0.04768024	0.03295407	0	0
33.65118	0.0731325	0.1762798	-0.0005266601	-0.0003639997	-0.007947775	-0.005493082	0	0
33.66775	0.0731325	0.1762798	0	0	0.007947775	0.005493082	0	0
33.68431	0.07310633	0.1762979	-0.001579859	0.001091915	-0.04768024	0.03295407	0	0
33.70558	0.07310633	0.1762979	0	0	0.04175747	-0.02886056	0	0
33.72215	0.07310633	0.1762979	0	0	0	0	0	0
33.73893	0.07308014	0.176316	-0.001559837	0.00107777	-0.04676905	0.0323151	0	0
33.75545	0.07297544	0.1763884	-0.006340325	0.004380883	-0.1435647	0.09919708	0	0
33.77196	0.07273985	0.1765873	-0.01426936	0.01204908	-0.2401005	0.232202	0	0
33.78841	0.07260897	0.1767139	-0.007953303	0.007692071	0.1915897	-0.1321644	0	0
33.80498	0.06925748	0.1791006	-0.2022966	0.1440617	-5.884941	4.129432	0	0
33.82155	0.06344107	0.183185	-0.351079	0.2465327	-4.490263	3.092579	0	0
33.83812	0.05232063	0.1909494	-0.6712312	0.4686637	-9.662211	6.703927	0	0
33.85468	0.04239563	0.197804	-0.5990738	0.4137459	2.177716	-1.657421	0	0
33.87153	0.03219939	0.2048326	-0.6052724	0.4172301	-0.1855145	0.1042776	0	0
33.88781	0.01826113	0.2144461	-0.855899	0.5903351	-7.564799	5.224921	0	0
33.90438	0.004342078	0.2240308	-0.8401555	0.5785334	0.4792223	-0.3592389	0	0
33.92095	-0.006105187	0.2311633	-0.6305982	0.4305177	6.324453	-4.467122	0	0
33.93752	-0.01986581	0.2406233	-0.8305926	0.5710078	-6.035844	4.24	0	0
33.95409	-0.03017505	0.2476903	-0.6221238	0.4264665	6.290876	-4.361763	0	0
33.97065	-0.03724593	0.2525486	-0.4269956	0.2933791	5.88966	-4.017048	0	0
33.98761	-0.05119208	0.2621697	-0.8221046	0.5671502	-11.78601	8.166531	0	0
34.00378	-0.06215667	0.2696897	-0.6780617	0.4650456	4.347224	-3.081525	0	0
34.02063	-0.07700533	0.2799431	-0.8810515	0.6083882	-6.146765	4.340582	0	0
34.03691	-0.08884445	0.2880805	-0.7271684	0.4998078	4.644201	-3.276964	0	0
34.05349	-0.1050071	0.2992351	-0.975129	0.6729844	-7.546893	5.270778	0	0
34.08668	-0.1293526	0.3160297	-0.7334841	0.5059862	4.85557	-3.355632	0	0
34.10318	-0.1408764	0.3239955	-0.6983076	0.4827099	0.7078604	-0.468392	0	0
34.11975	-0.1542902	0.3332997	-0.8096614	0.5616006	-3.367253	2.385594	0	0
34.13632	-0.1630654	0.3394069	-0.5296733	0.3686302	8.450058	-5.823857	0	0
34.15289	-0.1729137	0.3463176	-0.5944417	0.417135	-1.954713	1.463877	0	0
34.16945	-0.1771242	0.3492642	-0.2541437	0.1778526	10.27021	-7.221555	0	0
34.18602	-0.1846106	0.3545503	-0.4518829	0.3190695	-5.96778	4.261932	0	0
34.20277	-0.1878635	0.3568363	-0.1942456	0.136507	7.733661	-5.480094	0	0
34.21928	-0.1900215	0.3583187	-0.1307041	0.08978599	1.910647	-1.404867	0	0
34.2523	-0.1894377	0.3578722	0.01767627	-0.01352049	2.995536	-2.085573	0	0
34.26885	-0.1893108	0.3577829	0.007669325	-0.005395632	-0.2018668	0.1639002	0	0
34.28542	-0.1892093	0.3577114	0.006128756	-0.004313694	-0.04652125	0.03267175	0	0
34.30198	-0.1891839	0.3576578	0.001531739	-0.003232572	-0.1387382	0.03262832	0	0
34.31855	-0.1891077	0.3576043	0.004597017	-0.003234371	0.09251025	-5.428939E-05	0	0
34.38171	-0.1890824	0.3575864	0.0004020446	-0.0002826581	-0.05261911	0.03702445	0	0
34.3984	-0.1890824	0.3575864	0	0	-0.005034805	0.003539728	0	0
34.46454	-0.1891077	0.3575685	-0.0003839111	-0.0002703599	-0.004634584	-0.003263791	0	0
34.48528	-0.1891077	0.3575685	0	0	0.004419073	0.003112024	0	0
34.50198	-0.1891077	0.3575685	0	0	0	0	0	0
34.51849	-0.1891077	0.3575685	0	0	0	0	0	0
34.53498	-0.1890824	0.3575507	0.001539729	-0.001082509	0.04665713	-0.03280237	0	0
34.55154	-0.1890824	0.3575149	0	-0.002156847	-0.04657637	-0.03249841	0	0
34.56811	-0.189057	0.3574614	0.001531739	-0.003232572	0.04622798	-0.03246545	0	0
34.58468	-0.189057	0.3574614	0	0	-0.04622798	0.09755923	0	0
34.60155	-0.189057	0.3574614	0	0	0	0	0	0
34.61781	-0.189057	0.3574614	0	0	0	0	0	0
34.63438	-0.189057	0.3574614	0	0	0	0	0	0
34.65094	-0.1890824	0.3574792	-0.001531739	0.001077524	-0.0462333	0.03252349	0	0
34.66751	-0.1890824	0.3574792	0	0	0.04622798	-0.03251974	0	0
34.6841	-0.1890824	0.3574792	0	0	0	0	0	0
34.70064	-0.1891077	0.3574971	-0.001535113	0.001079264	-0.04633513	0.03257599	0	0
34.71721	-0.1891331	0.3575149	-0.001531739	0.001077524	0.0001019011	-5.25434E-05	0	0
34.73381	-0.1891077	0.3575328	0.001528923	0.001077339	0.09228597	-5.595241E-06	0	0
34.75034	-0.1891077	0.3575328	0	0	-0.04614298	-0.03251414	0	0
34.76691	-0.1891077	0.3575328	0	0	0	0	0	0
34.78367	-0.1891331	0.3575507	-0.001513961	0.001065018	-0.04542471	0.03195468	0	0
34.81669	-0.1891585	0.3575685	-0.0007689753	0.0005406293	0.01496502	-0.01053374	0	0
34.83318	-0.1891839	0.3575864	-0.001540442	0.001084818	-0.01558414	0.01099298	0	0
34.84974	-0.1891585	0.3575685	0.001532639	-0.001079323	0.09298126	-0.06547976	0	0
34.86631	-0.1891585	0.3575685	0	0	-0.04625513	0.03257403	0	0
34.88288	-0.1891585	0.3575685	0	0	0	0	0	0
34.89944	-0.1891585	0.3575685	0	0	0	0	0	0
34.94929	-0.1891331	0.3575507	0.0005093939	-0.0003581302	0.007669991	-0.0053924	0	0
34.9658	-0.1891331	0.3575507	0	0	-0.007676605	0.00539705	0	0
34.98231	-0.1891331	0.3575507	0	0	0	0	0	0
34.99884	-0.1891331	0.3575507	0	0	0	0	0	0
35.01541	-0.1891331	0.3575507	0	0	0	0	0	0
35.03198	-0.1891331	0.3575507	0	0	0	0	0	0
35.04855	-0.1891331	0.3575507	0	0	0	0	0	0
35.06511	-0.1891331	0.3575507	0	0	0	0	0	0
35.08168	-0.1891331	0.3575507	0	0	0	0	0	0
35.0984	-0.1891331	0.3575507	0	0	0	0	0	0
35.11481	-0.1890824	0.3575149	0.003092864	-0.002176897	0.09335357	-0.06570645	0	0
35.13138	-0.1891077	0.3574971	-0.001532639	-0.001077524	-0.1402438	0.03333263	0	0
35.14795	-0.1890824	0.3574792	0.001532639	-0.001077524	0.09251025	0	0	0
35.16451	-0.1890824	0.3574792	0	0	-0.04625513	0.03251974	0	0
35.18108	-0.1890824	0.3574792	0	0	0	0	0	0
35.20141	-0.189057	0.3574614	0.001248329	-0.0008781549	0.03383394	-0.02380097	0	0
35.21798	-0.189057	0.3574614	0	0	-0.03383394	0.02380097	0	0
35.26768	-0.1890316	0.3574435	0.0005108796	-0.0003597744	0.007709188	-0.005429006	0	0
35.30104	-0.1890316	0.3574435	0	0	-0.006150074	0.004331038	0	0
35.31755	-0.1890316	0.3574435	0	0	0	0	0	0
35.33395	-0.1890316	0.3574435	0	0	0	0	0	0
35.35051	-0.1890316	0.3574435	0	0	0	0	0	0
35.36708	-0.1890316	0.3574435	0	0	0	0	0	0
35.38365	-0.1890316	0.3574435	0	0	0	0	0	0
35.40022	-0.1890316	0.3574435	0	0	0	0	0	0
35.41678	-0.1890316	0.3574435	0	0	0	0	0	0
35.43335	-0.1890316	0.3574435	0	0	0	0	0	0
35.44992	-0.1890316	0.3574435	0	0	0	0	0	0
35.46666	-0.1890316	0.3574435	0	0	0	0	0	0
35.48317	-0.1890316	0.3574435	0	0	0	0	0	0
35.49961	-0.1890316	0.3574435	0	0	0	0	0	0
35.51618	-0.1890316	0.3574435	0	0	0	0	0	0
35.53612	-0.1890062	0.3574257	0.00127368	-0.0008954626	0.03489262	-0.02453131	0	0
35.55268	-0.1890062	0.3574257	0	0	-0.03489262	0.02453131	0	0
35.56925	-0.1890062	0.3574257	0	0	0	0	0	0
35.58582	-0.1890062	0.3574257	0	0	0	0	0	0
35.60239	-0.1890062	0.3574257	0	0	0	0	0	0
35.61895	-0.1889808	0.3574078	0.001532639	-0.001077524	0.04625513	-0.03251974	0	0
35.63552	-0.1889808	0.3574078	0	0	-0.04625513	0.03251974	0	0
35.65209	-0.1889808	0.3574078	0	0	0	0	0	0
35.66881	-0.1889808	0.3574078	0	0	0	0	0	0
35.68522	-0.1889808	0.3574078	0	0	0	0	0	0
35.70179	-0.1890316	0.3574078	-0.003065277	0	-0.092949	0	0	0
35.71836	-0.1890316	0.3574078	0	0	0.09251025	0	0	0
35.73492	-0.1890316	0.3574078	0	0	0	0	0	0
35.75149	-0.1890316	0.3574078	0	0	0	0	0	0
35.76806	-0.1890316	0.3574078	0	0	0	0	0	0
35.78463	-0.1890316	0.3574078	0	0	0	0	0	0
35.80536	-0.1890316	0.3574078	0	0	0	0	0	0
35.82192	-0.1890316	0.3574078	0	0	0	0	0	0
35.83849	-0.1890316	0.3574078	0	0	0	0	0	0
35.85506	-0.1890062	0.3573899	0.001532639	-0.001079323	0.04625513	-0.03257403	0	0
35.87162	-0.1890062	0.3573899	0	0	-0.04625513	0.03257403	0	0
35.88819	-0.1890062	0.3573899	0	0	0	0	0	0
35.90498	-0.1890062	0.3573899	0	0	0	0	0	0
35.92149	-0.1890062	0.3573899	0	0	0	0	0	0
35.938	-0.1889808	0.3573721	0.001537951	-0.001081259	0.04657631	-0.03274555	0	0
35.95445	-0.1889808	0.3573721	0	0	-0.04666256	0.03280619	0	0
35.97103	-0.1889808	0.3573721	0	0	0	0	0	0
35.98759	-0.1889808	0.3573721	0	0	0	0	0	0
36.00455	-0.1889808	0.3573721	0	0	0	0	0	0
36.02106	-0.1889808	0.3573721	0	0	0	0	0	0
36.03728	-0.1889808	0.3573721	0	0	0	0	0	0
36.05385	-0.1889808	0.3573721	0	0	0	0	0	0
36.15325	-0.1890062	0.3573899	-0.0002554594	0.0001796011	-0.002202939	0.00154878	0	0
36.16982	-0.1890062	0.3573899	0	0	0.002202939	-0.00154878	0	0
36.18668	-0.1889808	0.3573721	0.001505939	-0.001058753	0.04504997	-0.03167246	0	0
36.20319	-0.1889808	0.3573721	0	0	-0.04512721	0.03172676	0	0
36.21952	-0.1889808	0.3573721	0	0	0	0	0	0
36.23608	-0.1889808	0.3573721	0	0	0	0	0	0
36.25265	-0.1889554	0.3573542	0.001531739	-0.001077524	0.04622798	-0.03251974	0	0
36.26922	-0.1888793	0.3573006	0.004597017	-0.003234371	0.09251025	-0.06509378	0	0
36.28579	-0.1887777	0.3571935	0.006130555	-0.006468743	0.04628227	-0.09761352	0	0
36.30235	-0.1886508	0.3571042	0.007662294	-0.00538942	0.046228	0.03257402	0	0
36.31892	-0.1883207	0.356872	0.0199243	-0.01401501	0.3700682	-0.2603208	0	0
36.33549	-0.1877111	0.3564434	0.03679052	-0.02587137	0.5090235	-0.3578258	0	0
36.3688	-0.1860851	0.3553004	0.04880487	-0.03430648	0.2408418	-0.1690918	0	0
36.38519	-0.1860851	0.3553004	0	0	-0.9820313	0.6903008	0	0
36.40184	-0.1861105	0.3552825	-0.001525809	-0.001072093	-0.04619259	-0.03245673	0	0
36.41834	-0.1861105	0.3552825	0	0	0.04601722	0.03233351	0	0
36.43489	-0.1860851	0.3553004	0.00153566	0.001079015	0.04646399	0.03264742	0	0
36.45145	-0.1860851	0.3553004	0	0	-0.04637834	-0.03258724	0	0
36.46802	-0.1860851	0.3553004	0	0	0	0	0	0
36.48459	-0.1860851	0.3553004	0	0	0	0	0	0
36.50116	-0.1861105	0.3553182	-0.001533538	0.001077524	-0.04628228	0.03251974	0	0
36.51772	-0.1861105	0.3553182	0	0	0.04628228	-0.03251974	0	0
36.53429	-0.1861105	0.3553182	0	0	0	0	0	0
36.55094	-0.1860851	0.3553004	0.001525809	-0.001072093	0.04593267	-0.0322741	0	0
36.58803	-0.1860851	0.3553004	0	0	-0.02839367	0.01995051	0	0
36.6046	-0.1861105	0.3552825	-0.001533538	-0.001077524	-0.02858214	-0.02008294	0	0
36.62116	-0.1861105	0.3552825	0	0	0.04628228	0.03251974	0	0
36.63773	-0.1861105	0.3552825	0	0	0	0	0	0
36.6543	-0.1861105	0.3552825	0	0	0	0	0	0
36.67086	-0.1861105	0.3552825	0	0	0	0	0	0
36.68754	-0.1861105	0.3552825	0	0	0	0	0	0
36.70405	-0.1861105	0.3552825	0	0	0	0	0	0
36.72056	-0.1861105	0.3552825	0	0	0	0	0	0
36.73713	-0.1861359	0.3553004	-0.001534438	0.001077524	-0.04638953	0.032576	0	0
36.75408	-0.1861359	0.3553004	0	0	0.04577713	-0.03214595	0	0
36.77026	-0.1861359	0.3553004	0	0	0	0	0	0
36.78683	-0.1861359	0.3553004	0	0	0	0	0	0
36.80362	-0.1861359	0.3553004	0	0	0	0	0	0
36.81996	-0.1861359	0.3553004	0	0	0	0	0	0
36.83653	-0.1861359	0.3553004	0	0	0	0	0	0
36.8531	-0.1861359	0.3553004	0	0	0	0	0	0
36.86967	-0.1861359	0.3553004	0	0	0	0	0	0
36.88623	-0.1861359	0.3553004	0	0	0	0	0	0
36.9028	-0.1861359	0.3553004	0	0	0	0	0	0
36.91936	-0.1861359	0.3553004	0	0	0	0	0	0
36.93621	-0.1861359	0.3553004	0	0	0	0	0	0
37.01877	-0.1861105	0.3552825	0.0003079085	-0.0002162218	0.003097446	-0.002175112	0	0
37.03533	-0.1861359	0.3552646	-0.001535145	-0.00107982	-0.01859395	-0.008712561	0	0
37.0519	-0.1861359	0.3552646	0	0	0.04634142	0.03259655	0	0
37.06932	-0.1861359	0.3552646	0	0	0	0	0	0
37.08503	-0.1861359	0.3552646	0	0	0	0	0	0
37.1016	-0.1861359	0.3552646	0	0	0	0	0	0
37.11816	-0.1861359	0.3552646	0	0	0	0	0	0
37.13473	-0.1861359	0.3552646	0	0	0	0	0	0
37.15136	-0.1861359	0.3552646	0	0	0	0	0	0
37.16788	-0.1861359	0.3552646	0	0	0	0	0	0
