Time	Pos X	Pos Y	Vel X	Vel Y	Acc X	Acc YForce X	Force Y
0.01656634	-0.1920508	0.3557826	0.003150515	-0.005836466	-5.169692E-05	9.57708E-05	0	0
0.07248829	-0.1933691	0.3548539	-0.0235727	-0.01660654	0.0004387858	0.0001768408	0	0
0.08899858	-0.1933691	0.3548539	0	0	0.3254448	0.22927	0	0
0.1060118	-0.1933944	0.3548717	-0.001489836	0.001049279	-0.04444156	0.03129981	0	0
0.1221257	-0.1933944	0.3548717	0	0	0.04497326	-0.03167429	0	0
0.1386905	-0.1934198	0.3549253	-0.001530169	0.003234854	-0.04682465	0.09898967	0	0
0.1555434	-0.1934451	0.3549432	-0.00150312	0.001059257	0.0008094247	-0.06510316	0	0
0.1718236	-0.1934704	0.354961	-0.00155692	0.001096525	-0.001623746	0.001124795	0	0
0.1883915	-0.1934958	0.3549789	-0.001529877	0.00107748	0.0008232591	-0.0005798144	0	0
0.2049574	-0.1935211	0.3549968	-0.001530059	0.001079407	-5.48455E-06	5.815871E-05	0	0
0.2215242	-0.1935211	0.3549968	0	0	0.04617974	-0.0325783	0	0
0.2380905	-0.1935211	0.3549968	0	0	0	0	0	0
0.2546572	-0.1935211	0.3549968	0	0	0	0	0	0
0.2716243	-0.1935211	0.3549968	0	0	0	0	0	0
0.2877899	-0.1935211	0.3549968	0	0	0	0	0	0
0.3043571	-0.1935211	0.3549968	0	0	0	0	0	0
0.3211595	-0.1935211	0.3549968	0	0	0	0	0	0
0.3872085	-0.1935211	0.3549968	0	0	0	0	0	0
0.4037575	-0.1935211	0.3549968	0	0	0	0	0	0
0.4203238	-0.1935211	0.3549968	0	0	0	0	0	0
0.4368913	-0.1935211	0.3549968	0	0	0	0	0	0
0.4534577	-0.1935465	0.3550146	-0.001529124	0.001077582	-0.04614987	0.03252209	0	0
0.470024	-0.1935465	0.3550146	0	0	0.04615153	-0.03252326	0	0
0.4865911	-0.1935465	0.3550146	0	0	0	0	0	0
0.5031579	-0.1935465	0.3550146	0	0	0	0	0	0
0.5198	-0.1935718	0.3550325	-0.001523053	0.001072673	-0.04586282	0.0323008	0	0
0.5363131	-0.1935718	0.3550325	0	0	0.04593706	-0.03235308	0	0
0.5559644	-0.1935718	0.3550325	0	0	0	0	0	0
0.5725319	-0.1935718	0.3550325	0	0	0	0	0	0
0.5893817	-0.1935718	0.3550325	0	0	0	0	0	0
0.6058604	-0.1935718	0.3550325	0	0	0	0	0	0
0.6223719	-0.1935718	0.3550325	0	0	0	0	0	0
0.6387993	-0.1935718	0.3550325	0	0	0	0	0	0
0.6553956	-0.1935718	0.3550325	0	0	0	0	0	0
0.6719315	-0.1935718	0.3550325	0	0	0	0	0	0
0.6884983	-0.1935718	0.3550325	0	0	0	0	0	0
0.705065	-0.1935718	0.3550325	0	0	0	0	0	0
0.7216318	-0.1935972	0.3550503	-0.001529984	0.001077555	-0.04617635	0.03252162	0	0
0.7381989	-0.1935972	0.3550503	0	0	0.04617585	-0.03252127	0	0
0.7549658	-0.1935972	0.3550503	0	0	0	0	0	0
0.7713316	-0.1935972	0.3550503	0	0	0	0	0	0
0.7878996	-0.1935972	0.3550503	0	0	0	0	0	0
0.8044655	-0.1935972	0.3550503	0	0	0	0	0	0
0.8210326	-0.1935972	0.3550503	0	0	0	0	0	0
0.8375989	-0.1936225	0.3550682	-0.001529124	0.001079381	-0.04615045	0.03257679	0	0
0.8541657	-0.1936225	0.3550682	0	0	0.04615095	-0.03257714	0	0
0.870732	-0.1936225	0.3550682	0	0	0	0	0	0
0.8875601	-0.1936225	0.3550682	0	0	0	0	0	0
0.9040715	-0.1936478	0.3550861	-0.00153511	0.001081165	-0.04604478	0.03242895	0	0
0.9204326	-0.1936478	0.3550861	0	0	0.04669891	-0.03288965	0	0
0.9369993	-0.1936478	0.3550861	0	0	0	0	0	0
0.9535657	-0.1936478	0.3550861	0	0	0	0	0	0
0.9701328	-0.1936732	0.3551039	-0.001529951	0.001077532	-0.04617544	0.03252097	0	0
0.9866999	-0.1936732	0.3551039	0	0	0.04617436	-0.03252021	0	0
1.003267	-0.1936985	0.3551218	-0.00152909	0.001077559	-0.04614896	0.03252144	0	0
1.019833	-0.1936985	0.3551218	0	0	0.04614995	-0.03252214	0	0
1.036404	-0.1936985	0.3551218	0	0	0	0	0	0
1.052966	-0.1936985	0.3551218	0	0	0	0	0	0
1.069538	-0.1936985	0.3551218	0	0	0	0	0	0
1.086102	-0.1936985	0.3551218	0	0	0	0	0	0
1.103216	-0.1937239	0.3551396	-0.001481067	0.001044845	-0.04397738	0.03102461	0	0
1.119235	-0.1937239	0.3551396	0	0	0.04470047	-0.03153472	0	0
1.135801	-0.1937239	0.3551396	0	0	0	0	0	0
1.152366	-0.1937239	0.3551396	0	0	0	0	0	0
1.168933	-0.1937239	0.3551396	0	0	0	0	0	0
1.275698	-0.1937492	0.3551575	-0.0002372682	0.0001672043	-0.001923824	0.00135573	0	0
1.292265	-0.1937492	0.3551575	0	0	0.001923813	-0.001355722	0	0
1.308862	-0.1937492	0.3551575	0	0	0	0	0	0
1.325397	-0.1937492	0.3551575	0	0	0	0	0	0
1.341964	-0.1937492	0.3551575	0	0	0	0	0	0
1.35853	-0.1937492	0.3551575	0	0	0	0	0	0
1.375097	-0.1937492	0.3551575	0	0	0	0	0	0
1.391663	-0.1937492	0.3551575	0	0	0	0	0	0
1.40823	-0.1937492	0.3551575	0	0	0	0	0	0
1.424798	-0.1937492	0.3551575	0	0	0	0	0	0
1.441364	-0.1937492	0.3551575	0	0	0	0	0	0
1.457965	-0.1937492	0.3551575	0	0	0	0	0	0
1.474497	-0.1937492	0.3551575	0	0	0	0	0	0
1.491063	-0.1937745	0.3551753	-0.001530061	0.001077609	-0.04622841	0.03255828	0	0
1.50763	-0.1937745	0.3551753	0	0	0.04617934	-0.03252372	0	0
1.52451	-0.1937745	0.3551753	0	0	0	0	0	0
1.540763	-0.1937999	0.3551932	-0.001558615	0.001098365	-0.04704062	0.0331498	0	0
1.557329	-0.1937999	0.3551932	0	0	0.04749154	-0.03346756	0	0
1.573896	-0.1937999	0.3551932	0	0	0	0	0	0
1.590462	-0.1937999	0.3551932	0	0	0	0	0	0
1.607069	-0.1937999	0.3551932	0	0	0	0	0	0
1.623596	-0.1937999	0.3551932	0	0	0	0	0	0
1.640163	-0.1937999	0.3551932	0	0	0	0	0	0
1.656742	-0.1937999	0.3551932	0	0	0	0	0	0
1.673296	-0.1937999	0.3551932	0	0	0	0	0	0
1.689863	-0.1937999	0.3551932	0	0	0	0	0	0
1.706639	-0.1937999	0.3551932	0	0	0	0	0	0
1.723156	-0.1937999	0.3551932	0	0	0	0	0	0
1.739663	-0.1937999	0.3551932	0	0	0	0	0	0
1.756183	-0.1937999	0.3551932	0	0	0	0	0	0
1.772696	-0.1937999	0.3551932	0	0	0	0	0	0
1.789263	-0.1937999	0.3551932	0	0	0	0	0	0
1.805833	-0.1937999	0.3551932	0	0	0	0	0	0
1.822396	-0.1937999	0.3551932	0	0	0	0	0	0
1.838963	-0.1937999	0.3551932	0	0	0	0	0	0
1.872258	-0.1937999	0.3551932	0	0	0	0	0	0
1.891734	-0.1937999	0.3551932	0	0	0	0	0	0
1.908301	-0.1937999	0.3551932	0	0	0	0	0	0
1.924868	-0.1937999	0.3551932	0	0	0	0	0	0
1.941435	-0.1937999	0.3551932	0	0	0	0	0	0
1.958316	-0.1937999	0.3551932	0	0	0	0	0	0
2.007701	-0.1937999	0.3551932	0	0	0	0	0	0
2.024269	-0.1937999	0.3551932	0	0	0	0	0	0
2.040878	-0.1937745	0.3552111	0.001525156	0.001076581	0.04597042	0.03244971	0	0
2.057401	-0.1937999	0.3552289	-0.0015331	0.001080385	-0.09230302	0.0001148174	0	0
2.074399	-0.1937999	0.3552289	0	0	0.04573626	-0.03223061	0	0
2.090535	-0.1937999	0.3552289	0	0	0	0	0	0
2.123668	-0.1937999	0.3552289	0	0	0	0	0	0
2.140236	-0.1937999	0.3552289	0	0	0	0	0	0
2.156802	-0.1937999	0.3552289	0	0	0	0	0	0
2.17347	-0.1937999	0.3552289	0	0	0	0	0	0
2.189935	-0.1937999	0.3552289	0	0	0	0	0	0
2.206501	-0.1937999	0.3552289	0	0	0	0	0	0
2.223068	-0.1937999	0.3552289	0	0	0	0	0	0
2.239635	-0.1937999	0.3552289	0	0	0	0	0	0
2.256202	-0.1937999	0.3552289	0	0	0	0	0	0
2.272768	-0.1937999	0.3552289	0	0	0	0	0	0
2.289335	-0.1937999	0.3552289	0	0	0	0	0	0
2.306063	-0.1937999	0.3552289	0	0	0	0	0	0
2.322469	-0.1937999	0.3552289	0	0	0	0	0	0
2.339087	-0.1937999	0.3552289	0	0	0	0	0	0
2.355602	-0.1937999	0.3552289	0	0	0	0	0	0
2.372169	-0.1937999	0.3552289	0	0	0	0	0	0
2.388736	-0.1938252	0.3552468	-0.001529984	0.001077555	-0.04617635	0.03252162	0	0
2.405302	-0.1938252	0.3552468	0	0	0.04617701	-0.03252209	0	0
2.449512	-0.1938252	0.3552468	0	0	0	0	0	0
2.466079	-0.1938252	0.3552468	0	0	0	0	0	0
2.482646	-0.1938252	0.3552468	0	0	0	0	0	0
2.499213	-0.1938252	0.3552468	0	0	0	0	0	0
2.51578	-0.1938252	0.3552468	0	0	0	0	0	0
2.532346	-0.1938252	0.3552468	0	0	0	0	0	0
2.548913	-0.1938252	0.3552468	0	0	0	0	0	0
2.582046	-0.1938252	0.3552468	0	0	0	0	0	0
2.598613	-0.1938252	0.3552468	0	0	0	0	0	0
2.634804	-0.1938252	0.3552468	0	0	0	0	0	0
2.651371	-0.1938252	0.3552468	0	0	0	0	0	0
2.66832	-0.1938252	0.3552468	0	0	0	0	0	0
2.684834	-0.1938252	0.3552468	0	0	0	0	0	0
2.701072	-0.1938252	0.3552468	0	0	0	0	0	0
2.717637	-0.1938252	0.3552468	0	0	0	0	0	0
2.734367	-0.1938252	0.3552468	0	0	0	0	0	0
2.750883	-0.1938252	0.3552468	0	0	0	0	0	0
2.76739	-0.1938252	0.3552468	0	0	0	0	0	0
2.783903	-0.1938505	0.3552646	-0.00153403	0.00108104	-0.04645758	0.03273893	0	0
2.800471	-0.1938505	0.3552646	0	0	0.0463722	-0.03267876	0	0
2.817036	-0.1938505	0.3552646	0	0	0	0	0	0
2.833603	-0.1938505	0.3552646	0	0	0	0	0	0
2.85017	-0.1938505	0.3552646	0	0	0	0	0	0
2.866736	-0.1938505	0.3552646	0	0	0	0	0	0
2.883303	-0.1938505	0.3552646	0	0	0	0	0	0
2.899869	-0.1938505	0.3552646	0	0	0	0	0	0
2.916495	-0.1938505	0.3552646	0	0	0	0	0	0
2.949569	-0.1938505	0.3552646	0	0	0	0	0	0
2.966136	-0.1938505	0.3552646	0	0	0	0	0	0
2.982703	-0.1938505	0.3552646	0	0	0	0	0	0
2.999554	-0.1938505	0.3552646	0	0	0	0	0	0
3.015836	-0.1938505	0.3552646	0	0	0	0	0	0
3.032404	-0.1938505	0.3552646	0	0	0	0	0	0
3.04897	-0.1938505	0.3552646	0	0	0	0	0	0
3.065536	-0.1938505	0.3552646	0	0	0	0	0	0
3.082103	-0.1938505	0.3552646	0	0	0	0	0	0
3.098669	-0.1938505	0.3552646	0	0	0	0	0	0
3.115236	-0.1938505	0.3552646	0	0	0	0	0	0
3.132145	-0.1938505	0.3552646	0	0	0	0	0	0
3.148369	-0.1938505	0.3552646	0	0	0	0	0	0
3.164936	-0.1938505	0.3552646	0	0	0	0	0	0
3.181503	-0.1938505	0.3552646	0	0	0	0	0	0
3.198069	-0.1938505	0.3552646	0	0	0	0	0	0
3.214705	-0.1938505	0.3552646	0	0	0	0	0	0
3.231203	-0.1938505	0.3552646	0	0	0	0	0	0
3.247769	-0.1938505	0.3552646	0	0	0	0	0	0
3.264336	-0.1938505	0.3552646	0	0	0	0	0	0
3.283066	-0.1938505	0.3552646	0	0	0	0	0	0
3.299633	-0.1938505	0.3552646	0	0	0	0	0	0
3.316199	-0.1938505	0.3552646	0	0	0	0	0	0
3.332766	-0.1938505	0.3552646	0	0	0	0	0	0
3.349333	-0.1938505	0.3552646	0	0	0	0	0	0
3.3659	-0.1938505	0.3552646	0	0	0	0	0	0
3.382466	-0.1938505	0.3552646	0	0	0	0	0	0
3.399336	-0.1938505	0.3552646	0	0	0	0	0	0
3.4156	-0.1938505	0.3552646	0	0	0	0	0	0
3.432166	-0.1938505	0.3552646	0	0	0	0	0	0
3.44887	-0.1938505	0.3552646	0	0	0	0	0	0
3.465382	-0.1938505	0.3552646	0	0	0	0	0	0
3.481894	-0.1938505	0.3552646	0	0	0	0	0	0
3.498432	-0.1938505	0.3552646	0	0	0	0	0	0
3.514999	-0.1938505	0.3552646	0	0	0	0	0	0
3.531566	-0.1938505	0.3552646	0	0	0	0	0	0
3.548133	-0.1938505	0.3552646	0	0	0	0	0	0
3.581266	-0.1938759	0.3552825	-0.0007649977	0.0005396809	-0.0153923	0.01085877	0	0
3.597975	-0.1939519	0.3553718	-0.004549135	0.00534374	-0.07592249	0.09638554	0	0
3.614488	-0.1940279	0.3554611	-0.004603059	0.005407083	-0.001623144	0.00190666	0	0
3.630966	-0.1942306	0.3559254	-0.01230141	0.0281803	-0.2333475	0.6902871	0	0
3.647533	-0.1940786	0.3562469	0.009176309	0.01940499	0.6499621	-0.2655598	0	0
3.6641	-0.1934451	0.3571935	0.03823972	0.05713561	0.8771606	1.138745	0	0
3.680666	-0.1947626	0.3584437	-0.07953	0.07546701	-3.554451	0.5532666	0	0
3.697233	-0.1994949	0.3626767	-0.285641	0.2555082	-6.220623	5.433809	0	0
3.713799	-0.201264	0.3643201	-0.1067908	0.0991973	5.397867	-4.717607	0	0
3.730366	-0.204647	0.3681071	-0.2042066	0.2285928	-2.940142	3.905333	0	0
3.746933	-0.2094609	0.3848866	-0.2905747	1.012841	-2.60667	23.66933	0	0
3.763592	-0.2087055	0.3980832	0.04534835	0.7921604	10.11032	-6.641842	0	0
3.780104	-0.2080002	0.4072446	0.04271561	0.5548328	-0.07936867	-7.154684	0	0
3.796633	-0.2066897	0.4158387	0.07928098	0.5199471	1.106674	-1.055838	0	0
3.8132	-0.2054795	0.4238651	0.07305218	0.4844775	-0.1882035	-1.071715	0	0
3.862903	-0.2051768	0.4503169	0.006089276	0.5321927	-1.010447	0.720005	0	0
3.879727	-0.2071182	0.4571668	-0.1154003	0.407165	-1.826179	-1.879363	0	0
3.896033	-0.2095868	0.4663812	-0.1513862	0.5650724	-1.086207	4.766306	0	0
3.915634	-0.2114995	0.4753187	-0.09757928	0.4559751	1.498488	-3.038285	0	0
3.932212	-0.2128575	0.481055	-0.08191912	0.3460223	0.4328571	-3.039167	0	0
3.948768	-0.21331	0.4848819	-0.02733166	0.2311513	1.647488	-3.466891	0	0
3.965335	-0.2135362	0.4916209	-0.01365414	0.4067586	0.4129249	5.301596	0	0
3.981902	-0.2133603	0.4969198	0.01062025	0.3198596	0.7326184	-2.622675	0	0
3.998468	-0.2126563	0.5023503	0.0424909	0.3278057	0.9619133	0.2398268	0	0
4.015035	-0.2143906	0.5072604	-0.104683	0.2963834	-4.441907	-0.9483656	0	0
4.031604	-0.2172781	0.5154782	-0.1742699	0.495971	-2.100048	6.023304	0	0
4.048168	-0.2183568	0.5186927	-0.06512411	0.1940598	3.294122	-9.111959	0	0
4.064736	-0.2223662	0.5223274	-0.2419979	0.2193841	-5.338447	0.764343	0	0
4.081318	-0.2253685	0.5245458	-0.181055	0.1337851	1.838415	-2.582195	0	0
4.097869	-0.2288908	0.5272567	-0.2128187	0.1637893	-0.9586723	0.9055678	0	0
4.114435	-0.2304129	0.5284761	-0.09188081	0.07361259	3.651858	-2.722987	0	0
4.131352	-0.234649	0.5322639	-0.2503955	0.2238965	-4.734112	4.488297	0	0
4.147567	-0.2335783	0.5341773	0.06603073	0.118001	9.550312	-3.196117	0	0
4.164135	-0.2306623	0.5397761	0.1760055	0.3379335	3.354675	6.708827	0	0
4.180701	-0.228042	0.5484529	0.1581777	0.5237759	-0.5380621	5.608897	0	0
4.197399	-0.2275175	0.5563048	0.03140795	0.4702233	-3.811	-1.60992	0	0
4.21391	-0.2282168	0.5609609	-0.04235108	0.2820108	-2.221066	-5.667541	0	0
4.230422	-0.2284914	0.5645026	-0.01663256	0.2144842	0.7788093	-2.044842	0	0
4.246967	-0.2292403	0.5721108	-0.04526148	0.4598524	-0.8660416	7.422531	0	0
4.263945	-0.2285913	0.5754603	0.0382239	0.1972842	2.490385	-7.832462	0	0
4.280456	-0.2259684	0.5803061	0.158861	0.2934982	3.602318	2.873025	0	0
4.296667	-0.2250934	0.5850478	0.05397443	0.2924964	-3.205431	-0.03061609	0	0
4.313233	-0.2260434	0.5928478	-0.05734159	0.470825	-3.396081	5.440534	0	0
4.3298	-0.2270179	0.597014	-0.0588257	0.2514787	-0.04479185	-6.620076	0	0
4.346366	-0.2276174	0.6036168	-0.03618819	0.3985666	0.6832309	4.439312	0	0
4.363014	-0.2273926	0.6138635	0.01350321	0.6154978	1.496094	6.531301	0	0
4.379527	-0.2273926	0.6173675	0	0.2122004	-0.4072053	-12.16191	0	0
4.396068	-0.2273926	0.6245375	0	0.4334695	0	6.694196	0	0
4.413051	-0.2283416	0.6277174	-0.05587728	0.1872403	-1.666782	-7.344857	0	0
4.429201	-0.2302632	0.6317441	-0.1189905	0.2493393	-1.904869	1.874261	0	0
4.446076	-0.2297393	0.6432571	0.03104515	0.6822215	4.543056	13.1076	0	0
4.462334	-0.2292403	0.6484193	0.03069823	0.3175172	-0.01047018	-11.00711	0	0
4.479098	-0.2292902	0.6571843	-0.002977714	0.522844	-1.019806	6.217891	0	0
4.495467	-0.2304877	0.6611233	-0.07316094	0.2406417	-2.118225	-8.517247	0	0
4.515376	-0.2358933	0.6655052	-0.2715154	0.2200972	-5.467659	-0.5663109	0	0
4.532134	-0.2365649	0.6663978	-0.04007708	0.05325945	6.31192	-4.550097	0	0
4.548512	-0.2368633	0.6735879	-0.01822174	0.4390286	0.6595765	11.6422	0	0
4.565077	-0.2359182	0.6818323	0.05705689	0.4976864	2.285133	1.780598	0	0
4.581669	-0.2366147	0.6879199	-0.0419756	0.3668922	-2.986701	-3.944593	0	0
4.59821	-0.2375346	0.6946587	-0.05561741	0.4073986	-0.4117225	1.22252	0	0
4.614777	-0.2392492	0.7031165	-0.1034959	0.510542	-1.446163	3.115428	0	0
4.631344	-0.2396217	0.7106781	-0.0224859	0.4564205	2.444958	-1.633435	0	0
4.64791	-0.240168	0.7194932	-0.03297432	0.5321117	-0.3165503	2.28443	0	0
4.664477	-0.2411608	0.7323394	-0.05992934	0.7754224	-0.8135392	7.343448	0	0
4.68124	-0.2416818	0.7447013	-0.03108377	0.7374588	0.865467	-1.13904	0	0
4.714177	-0.2438638	0.7576442	-0.06624644	0.392959	-0.7075015	-6.931615	0	0
4.73078	-0.2453006	0.7621789	-0.0865395	0.2731268	-0.4096295	-2.418897	0	0
4.74731	-0.2443346	0.7662265	0.05843904	0.2448582	4.375587	-0.8531705	0	0
4.763877	-0.2433185	0.7670852	0.06132983	0.05182909	0.08734105	-5.832093	0	0
4.780444	-0.2433433	0.7671052	-0.001496747	0.001205313	-1.896165	-1.527873	0	0
4.797322	-0.2433681	0.7671251	-0.00146821	0.001183043	0.0008532913	-0.0006658887	0	0
4.813577	-0.2433681	0.7671251	0	0	0.04431257	-0.03570586	0	0
4.830144	-0.2433681	0.7671251	0	0	0	0	0	0
4.846711	-0.2433433	0.7671052	0.001495805	-0.001205279	0.04514413	-0.03637591	0	0
4.863368	-0.2433433	0.7671052	0	0	-0.04502168	0.03627724	0	0
4.879893	-0.2433185	0.7670852	0.001500462	-0.001208304	0.0452183	-0.03641377	0	0
4.896893	-0.2432937	0.7670652	0.001457749	-0.001174614	-0.001274076	0.00100494	0	0
4.912977	-0.2432442	0.7670252	0.003082291	-0.002486585	0.04910438	-0.03965642	0	0
4.929914	-0.2432194	0.7669653	0.001463923	-0.00353664	-0.04900889	-0.03179873	0	0
4.94611	-0.2431698	0.7669254	0.003061146	-0.002465846	0.04820636	0.03231802	0	0
4.962677	-0.2429715	0.7667657	0.01197149	-0.009641953	0.2719676	-0.219034	0	0
4.979243	-0.2428475	0.7666658	0.007482838	-0.006026567	-0.1354717	0.1091157	0	0
4.995962	-0.2427483	0.766546	0.005932518	-0.007166082	-0.04657761	-0.03423543	0	0
5.012376	-0.2426987	0.7665061	0.003021148	-0.002432896	-0.08786911	0.142854	0	0
5.028987	-0.2425748	0.7664062	0.007463758	-0.006010478	0.1345215	-0.1083286	0	0
5.04551	-0.2425748	0.7663663	0	-0.002416958	-0.2252631	0.1084558	0	0
5.062077	-0.2425251	0.7663264	0.002994222	-0.002410488	0.09048691	0.0001955095	0	0
5.09521	-0.2424012	0.7661467	0.003742265	-0.005422033	0.01505108	-0.06059415	0	0
5.112044	-0.2423268	0.7660469	0.004419773	-0.005930799	0.01355917	-0.01018207	0	0
5.128557	-0.2422772	0.7660069	0.003003177	-0.002418423	-0.04248092	0.1053292	0	0
5.154576	-0.2422276	0.7659271	0.001906522	-0.003067386	-0.02578425	-0.01525824	0	0
5.17116	-0.2422028	0.7659072	0.001495155	-0.001204031	-0.009655803	0.04373764	0	0
5.187711	-0.2422028	0.7659072	0	0	-0.04512322	0.03633721	0	0
5.204278	-0.2422028	0.7659072	0	0	0	0	0	0
5.220844	-0.2422028	0.7658672	0	-0.002410627	0	-0.07275496	0	0
5.237411	-0.2422028	0.7658672	0	0	0	0.07275601	0	0
5.253978	-0.2421779	0.7658473	0.001497604	-0.001201681	0.04519907	-0.03626784	0	0
5.270544	-0.2421779	0.7658473	0	0	-0.04520037	0.03626889	0	0
5.287167	-0.2421532	0.7658274	0.001491595	-0.001201165	0.04494206	-0.03619132	0	0
5.30368	-0.2421532	0.7658274	0	0	-0.0450132	0.03624861	0	0
5.320244	-0.2421283	0.7658074	0.001497906	-0.001205522	0.04528574	-0.03644618	0	0
5.38651	-0.2421035	0.7657874	0.0003741815	-0.000301324	-0.01356672	0.01091637	0	0
5.403077	-0.2421035	0.7657874	0	0	-0.004517284	0.003637717	0	0
5.419762	-0.2420787	0.7657276	0.00148699	-0.003586637	0.04471848	-0.1078615	0	0
5.436211	-0.2420291	0.7656876	0.003015836	-0.002427888	0.04614199	0.03497211	0	0
5.452785	-0.2420291	0.7656876	0	0	-0.09132563	0.07352139	0	0
5.469344	-0.2420043	0.7656677	0.001498294	-0.001205834	0.0452199	-0.03639319	0	0
5.48591	-0.2419795	0.7656477	0.001496747	-0.001205313	-4.668154E-05	1.571632E-05	0	0
5.502477	-0.2419547	0.7655879	0.001497647	-0.003612343	2.714626E-05	-0.07264847	0	0
5.519044	-0.2418803	0.765528	0.004491653	-0.003612031	0.0903606	9.416105E-06	0	0
5.535611	-0.2418555	0.7655081	0.001497647	-0.001205313	-0.0903606	0.07263591	0	0
5.552177	-0.2418059	0.7654681	0.002994394	-0.002410627	0.04517453	-0.03637853	0	0
5.568868	-0.2417811	0.7654482	0.00148648	-0.001196326	-0.04534126	0.03651264	0	0
5.601891	-0.2417315	0.7653683	0.001502148	-0.002416793	0.0003151643	-0.02454972	0	0
5.618443	-0.2415826	0.765089	0.008993389	-0.01687408	0.1511068	-0.2916199	0	0
5.635011	-0.2413841	0.7648098	0.01198049	-0.01685543	0.090191	0.0005632419	0	0
5.651578	-0.2409871	0.764371	0.02396457	-0.02648299	0.3616803	-0.2905604	0	0
5.668144	-0.2399197	0.7629957	0.064433	-0.08302271	1.221375	-1.706421	0	0
5.684711	-0.2393485	0.7617807	0.03447736	-0.07334062	-0.9041151	0.2922229	0	0
5.701461	-0.2400935	0.7609446	-0.04447485	-0.04991389	-2.369755	0.7031549	0	0
5.717972	-0.2402673	0.7605665	-0.01052587	-0.02289825	1.020675	0.8122242	0	0
5.734488	-0.2395224	0.756036	0.04510039	-0.2743014	1.684233	-7.611898	0	0
5.750997	-0.2315101	0.7489854	0.4853517	-0.4271014	13.33093	-4.626828	0	0
5.767544	-0.2224413	0.7411946	0.5480583	-0.4708194	1.89702	-1.322573	0	0
5.78411	-0.2206381	0.739031	0.1088506	-0.1306056	-13.26371	10.27418	0	0
5.801031	-0.2199865	0.7242665	0.03850462	-0.8725519	-2.100675	-22.15603	0	0
5.817245	-0.2206882	0.7159742	-0.04327595	-0.5114442	-2.468143	10.89825	0	0
5.83381	-0.2205879	0.7074451	0.006050302	-0.5148784	1.504825	-0.1047704	0	0
5.850568	-0.2186829	0.7019972	0.1136782	-0.3250854	3.229763	5.695426	0	0
5.870675	-0.2174036	0.6907397	0.0636265	-0.5598972	-1.35771	-6.369547	0	0
5.887242	-0.2173785	0.6848932	0.001514606	-0.3528853	-1.693621	5.644646	0	0
5.90381	-0.2169017	0.6755509	0.02877842	-0.5638833	0.8227999	-6.367749	0	0
5.920377	-0.2156967	0.6596644	0.07273288	-0.9589137	1.326529	-11.92187	0	0
5.936944	-0.2154456	0.6532703	0.01515817	-0.3859701	-1.737658	17.29197	0	0
5.953638	-0.214667	0.644688	0.04664114	-0.514096	0.9465618	-3.852209	0	0
5.97015	-0.2132597	0.6347257	0.08522637	-0.603334	1.161996	-2.687408	0	0
5.986661	-0.2129329	0.6324564	0.01979218	-0.1374397	-1.981452	14.10802	0	0
6.019777	-0.2067906	0.6188039	0.185481	-0.4122666	3.338662	-5.537815	0	0
6.036347	-0.206841	0.6132861	-0.003042266	-0.3329964	-3.794297	1.595424	0	0
6.052911	-0.206362	0.6090614	0.02891549	-0.2550558	0.964501	2.352284	0	0
6.069477	-0.204975	0.5959766	0.08372521	-0.7898437	1.654375	-16.14202	0	0
6.086043	-0.2038901	0.5865251	0.0654908	-0.570527	-0.5503473	6.619371	0	0
6.10261	-0.2022996	0.5768784	0.09600502	-0.5823103	0.920974	-0.3556412	0	0
6.119257	-0.2004554	0.5675881	0.1107803	-0.5580639	0.4448569	0.7300155	0	0
6.135768	-0.1972184	0.5545648	0.1960503	-0.7887678	2.571603	-6.957653	0	0
6.15231	-0.1963579	0.5523312	0.05202028	-0.1350203	-4.357495	19.77853	0	0
6.168877	-0.1934198	0.5442493	0.1773565	-0.4878533	3.785596	-10.6568	0	0
6.185443	-0.1861105	0.5385901	0.4412004	-0.3416012	7.963168	4.414088	0	0
6.202011	-0.1793162	0.5336852	0.4101059	-0.2960583	-0.9384471	1.374506	0	0
6.218576	-0.1714322	0.5279118	0.4759191	-0.3485111	1.986333	-1.583097	0	0
6.235144	-0.1605278	0.5196556	0.658191	-0.4983486	5.501213	-4.5223	0	0
6.25185	-0.1547013	0.5129189	0.3487664	-0.4032468	-9.299507	2.85821	0	0
6.268414	-0.1541361	0.5021873	0.03412518	-0.6478934	-9.457239	-7.353397	0	0
6.284844	-0.1566276	0.4946405	-0.1516392	-0.4593225	-5.6302	5.715263	0	0
6.301411	-0.1602201	0.4852069	-0.2168503	-0.5694259	-1.976268	-3.336757	0	0
6.317978	-0.1615277	0.4773204	-0.07893179	-0.47603	4.16245	2.818733	0	0
6.334547	-0.162066	0.4711368	-0.03248842	-0.3732103	1.401603	3.102972	0	0
6.351112	-0.1620917	0.456933	-0.001547163	-0.8574217	0.9338089	-14.61353	0	0
6.367933	-0.1624761	0.4456995	-0.0228546	-0.6678248	-0.6382011	5.678814	0	0
6.384445	-0.1635779	0.4327224	-0.06672719	-0.785951	-1.316217	-3.543891	0	0
6.400955	-0.1644487	0.424833	-0.05274729	-0.4778394	0.4233521	9.330518	0	0
6.417468	-0.1669831	0.4172895	-0.1534832	-0.4568371	-3.050487	0.6359903	0	0
6.433945	-0.1672902	0.412848	-0.0186337	-0.269548	4.087588	5.677153	0	0
6.500211	-0.1717388	0.4090883	-0.06713323	-0.05673748	-0.5861453	2.57194	0	0
6.54605	-0.171611	0.4089988	0.002786533	-0.001953044	0.6236994	0.488689	0	0
6.562617	-0.171611	0.4089988	0	0	-0.0446513	0.0312955	0	0
6.579185	-0.171611	0.4089988	0	0	0	0	0	0
6.595751	-0.171611	0.4089988	0	0	0	0	0	0
6.615792	-0.171611	0.4089988	0	0	0	0	0	0
6.632619	-0.171611	0.4089988	0	0	0	0	0	0
6.649132	-0.171611	0.4089988	0	0	0	0	0	0
6.665493	-0.171611	0.4089988	0	0	0	0	0	0
6.682153	-0.171611	0.4089988	0	0	0	0	0	0
6.698626	-0.171611	0.4089988	0	0	0	0	0	0
6.715192	-0.171611	0.4089988	0	0	0	0	0	0
6.731759	-0.171611	0.4089988	0	0	0	0	0	0
6.748326	-0.171611	0.4089988	0	0	0	0	0	0
6.764893	-0.171611	0.4089988	0	0	0	0	0	0
6.781723	-0.171611	0.4089988	0	0	0	0	0	0
6.798027	-0.171611	0.4089988	0	0	0	0	0	0
6.814592	-0.171611	0.4089988	0	0	0	0	0	0
6.831258	-0.171611	0.4089988	0	0	0	0	0	0
6.84777	-0.171611	0.4089988	0	0	0	0	0	0
6.864293	-0.171611	0.4089988	0	0	0	0	0	0
6.880859	-0.171611	0.4089988	0	0	0	0	0	0
6.897427	-0.1716366	0.4090167	-0.001541633	0.001081122	-0.04652725	0.0326288	0	0
6.913993	-0.1716366	0.4090167	0	0	0.04652792	-0.03262927	0	0
6.93056	-0.1716366	0.4090167	0	0	0	0	0	0
6.947126	-0.1716621	0.4090346	-0.001542621	0.001081184	-0.04655841	0.03263161	0	0
6.963693	-0.1716621	0.4090346	0	0	0.04655774	-0.03263114	0	0
6.980364	-0.1716621	0.4090346	0	0	0	0	0	0
6.996876	-0.1716621	0.4090346	0	0	0	0	0	0
7.013393	-0.1716621	0.4090346	0	0	0	0	0	0
7.029961	-0.1716621	0.4090346	0	0	0	0	0	0
7.046526	-0.1716621	0.4090346	0	0	0	0	0	0
7.063093	-0.1716621	0.4090346	0	0	0	0	0	0
7.079934	-0.1716621	0.4090346	0	0	0	0	0	0
7.096227	-0.1716621	0.4090704	0	0.002196865	0	0.06630344	0	0
7.112957	-0.1716877	0.4090525	-0.001526562	-0.001070553	-0.04622675	-0.09894265	0	0
7.129469	-0.1716621	0.4090704	0.001546797	0.001084744	0.09245217	0.06483518	0	0
7.145926	-0.1716621	0.4090704	0	0	-0.04691672	-0.03290193	0	0
7.162494	-0.1716877	0.4090883	-0.001541633	0.001081122	-0.04668176	0.03273715	0	0
7.17906	-0.1716877	0.4090883	0	0	0.04652792	-0.03262927	0	0
7.195627	-0.1716877	0.4090883	0	0	0	0	0	0
7.212193	-0.1716877	0.4090883	0	0	0	0	0	0
7.229043	-0.1716877	0.4090883	0	0	0	0	0	0
7.245327	-0.1716877	0.4090883	0	0	0	0	0	0
7.285041	-0.1716877	0.4090883	0	0	0	0	0	0
7.301609	-0.1716877	0.4090883	0	0	0	0	0	0
7.318175	-0.1716877	0.4090883	0	0	0	0	0	0
7.334743	-0.1716877	0.4090883	0	0	0	0	0	0
7.352129	-0.1716877	0.4090883	0	0	0	0	0	0
7.367876	-0.1716877	0.4090883	0	0	0	0	0	0
7.384443	-0.1716877	0.4090883	0	0	0	0	0	0
7.40101	-0.1716877	0.4090883	0	0	0	0	0	0
7.417577	-0.1716877	0.4090883	0	0	0	0	0	0
7.434186	-0.1716621	0.4090704	0.001537738	-0.001078391	0.04634967	-0.03250426	0	0
7.45071	-0.1716621	0.4090704	0	0	-0.0464117	0.03254776	0	0
7.483842	-0.1716621	0.4090704	0	0	0	0	0	0
7.50041	-0.1716366	0.4090525	0.001542488	-0.001081091	0.03103582	-0.02175222	0	0
7.516975	-0.1716366	0.4090525	0	0	-0.04655439	0.03262879	0	0
7.533756	-0.1716366	0.4090525	0	0	0	0	0	0
7.55027	-0.1716366	0.4090525	0	0	0	0	0	0
7.566676	-0.1716366	0.4090525	0	0	0	0	0	0
7.583294	-0.1716621	0.4090346	-0.001537841	-0.00107604	-0.0465676	-0.03258375	0	0
7.599809	-0.1716366	0.4090525	0.001547387	0.00108272	0.09311637	0.06515432	0	0
7.616376	-0.1716366	0.4090525	0	0	-0.0467736	-0.03272789	0	0
7.632942	-0.1716366	0.4090525	0	0	0	0	0	0
7.649509	-0.1716366	0.4090525	0	0	0	0	0	0
7.666077	-0.1716366	0.4090525	0	0	0	0	0	0
7.682643	-0.1716366	0.4090525	0	0	0	0	0	0
7.699209	-0.1716366	0.4090525	0	0	0	0	0	0
7.715885	-0.1716621	0.4090704	-0.001532476	0.001074073	-0.04610094	0.03231098	0	0
7.732398	-0.1716621	0.4090704	0	0	0.0461738	-0.03236204	0	0
7.748909	-0.1716621	0.4090704	0	0	0	0	0	0
7.765477	-0.1716621	0.4090704	0	0	0	0	0	0
7.782042	-0.1716621	0.4090704	0	0	0	0	0	0
7.798609	-0.1716621	0.4090704	0	0	0	0	0	0
7.815175	-0.1716621	0.4090704	0	0	0	0	0	0
7.831742	-0.1716621	0.4090704	0	0	0	0	0	0
7.848485	-0.1716621	0.4090704	0	0	0	0	0	0
7.86499	-0.1716621	0.4090704	0	0	0	0	0	0
7.881504	-0.1716621	0.4090704	0	0	0	0	0	0
7.89801	-0.1716621	0.4090704	0	0	0	0	0	0
7.917215	-0.1716621	0.4090704	0	0	0	0	0	0
7.933782	-0.1716621	0.4090704	0	0	0	0	0	0
7.959599	-0.1716621	0.4090704	0	0	0	0	0	0
7.976166	-0.1716621	0.4090704	0	0	0	0	0	0
7.992733	-0.1716621	0.4090704	0	0	0	0	0	0
8.009299	-0.1716621	0.4090704	0	0	0	0	0	0
8.026106	-0.1716621	0.4090704	0	0	0	0	0	0
8.042434	-0.1716621	0.4090704	0	0	0	0	0	0
8.058999	-0.1716621	0.4090704	0	0	0	0	0	0
8.075639	-0.1716621	0.4090704	0	0	0	0	0	0
8.092133	-0.1716621	0.4090704	0	0	0	0	0	0
8.108699	-0.1716366	0.4090525	0.001542621	-0.001081184	0.04666116	-0.03270362	0	0
8.125267	-0.1716366	0.4090525	0	0	-0.0465564	0.0326302	0	0
8.141833	-0.1716366	0.4090525	0	0	0	0	0	0
8.1584	-0.1716366	0.4090525	0	0	0	0	0	0
8.174967	-0.1716366	0.4090525	0	0	0	0	0	0
8.191531	-0.1716366	0.4090525	0	0	0	0	0	0
8.208098	-0.1716366	0.4090167	0	-0.002160445	0	-0.06520799	0	0
8.224743	-0.1716366	0.4090167	0	0	0	0.0650507	0	0
8.241232	-0.171611	0.4089988	0.001548945	-0.001086249	0.04674858	-0.03278401	0	0
8.257798	-0.1715855	0.4089809	0.001542621	-0.001079385	-0.000191292	0.0002076544	0	0
8.274364	-0.1715599	0.408963	0.001541722	-0.001081184	-2.714626E-05	-5.429603E-05	0	0
8.290932	-0.1715599	0.408963	0	0	-0.0465306	0.03263114	0	0
8.307498	-0.1715344	0.4089451	0.001542621	-0.001081184	0.04655774	-0.03263114	0	0
8.324064	-0.1715344	0.4089093	0	-0.002160569	-0.04655908	-0.03257779	0	0
8.340631	-0.1714577	0.4088556	0.004626965	-0.003241753	0.1396501	-0.03263208	0	0
8.357197	-0.1704867	0.4081396	0.05861601	-0.04322038	1.629487	-1.206627	0	0
8.373847	-0.1670343	0.4057233	0.2073492	-0.1451204	4.477693	-3.067754	0	0
8.390359	-0.1647048	0.4041305	0.1410771	-0.09646095	-1.998426	1.467319	0	0
8.406897	-0.1612201	0.401697	0.2107154	-0.1471495	2.107085	-1.533711	0	0
8.423463	-0.1591427	0.4002478	0.1253958	-0.08747877	-2.577325	1.802525	0	0
8.44003	-0.15845	0.3997648	0.04181567	-0.02915611	-2.522525	1.760232	0	0
8.459383	-0.15845	0.3997648	0	0	-1.164129	0.8116925	0	0
8.47595	-0.15845	0.3997648	0	0	0	0	0	0
8.492517	-0.15845	0.399729	0	-0.002160569	0	-0.06520799	0	0
8.509443	-0.15845	0.399729	0	0	0	0.06450801	0	0
8.52565	-0.1584243	0.3997111	0.001583279	-0.001103331	0.04778484	-0.03329954	0	0
8.542464	-0.15845	0.3996932	-0.001526076	-0.001063468	-0.09416305	0.0012072	0	0
8.558783	-0.15845	0.3996932	0	0	0.04605972	0.03209737	0	0
8.575487	-0.15845	0.3996932	0	0	0	0	0	0
8.591916	-0.15845	0.3996932	0	0	0	0	0	0
8.608482	-0.1584756	0.3997111	-0.001548918	0.001079385	-0.04694369	0.03271338	0	0
8.625049	-0.15845	0.399729	0.001548918	0.001079385	0.09349824	0	0	0
8.641615	-0.15845	0.399729	0	0	-0.04674912	-0.03257778	0	0
8.658181	-0.15845	0.399729	0	0	0	0	0	0
8.674747	-0.15845	0.399729	0	0	0	0	0	0
8.691315	-0.15845	0.399729	0	0	0	0	0	0
8.707881	-0.1584756	0.3997111	-0.001548918	-0.001079385	-0.04674777	-0.03257685	0	0
8.724448	-0.1584756	0.3997111	0	0	0.04674777	0.03257685	0	0
8.741104	-0.1584756	0.3997111	0	0	0	0	0	0
8.757608	-0.15845	0.3996932	0.001554735	-0.001083439	0.04688557	-0.03267287	0	0
8.774148	-0.15845	0.3996932	0	0	-0.04705065	0.03278791	0	0
8.790714	-0.15845	0.3996932	0	0	0	0	0	0
8.807281	-0.15845	0.3996932	0	0	0	0	0	0
8.823848	-0.1584756	0.3997111	-0.001548918	0.001079385	-0.04674777	0.03257685	0	0
8.840414	-0.1584756	0.3997111	0	0	0.04674912	-0.03257778	0	0
8.85698	-0.1584756	0.3997111	0	0	0	0	0	0
8.873547	-0.1584756	0.3997111	0	0	0	0	0	0
8.90668	-0.1584756	0.3997111	0	0	0	0	0	0
8.923247	-0.1584756	0.3997111	0	0	0	0	0	0
8.939814	-0.1584756	0.3997111	0	0	0	0	0	0
8.956379	-0.1584756	0.3997111	0	0	0	0	0	0
8.972946	-0.15845	0.3996932	0.001548829	-0.001079323	0.04674643	-0.03257591	0	0
8.989512	-0.15845	0.3996932	0	0	-0.04674508	0.03257497	0	0
9.00608	-0.15845	0.3996932	0	0	0	0	0	0
9.022649	-0.15845	0.3996932	0	0	0	0	0	0
9.039312	-0.1584756	0.3997111	-0.001539876	0.001073084	-0.04633618	0.03229002	0	0
9.055824	-0.1584756	0.3997111	0	0	0.0464161	-0.03234571	0	0
9.072346	-0.1584756	0.3997111	0	0	0	0	0	0
9.091562	-0.1584756	0.3997111	0	0	0	0	0	0
9.108361	-0.1584756	0.3997111	0	0	0	0	0	0
9.124696	-0.1584756	0.3997111	0	0	0	0	0	0
9.141384	-0.1584756	0.3997111	0	0	0	0	0	0
9.157895	-0.1584756	0.3997111	0	0	0	0	0	0
9.174396	-0.1584756	0.3997111	0	0	0	0	0	0
9.190962	-0.1584756	0.3997111	0	0	0	0	0	0
9.240663	-0.1584756	0.3997111	0	0	0	0	0	0
9.257229	-0.1584756	0.3997111	0	0	0	0	0	0
9.273795	-0.1584756	0.3997111	0	0	0	0	0	0
9.290361	-0.15845	0.399729	0.001548918	0.001079385	0.04674912	0.03257778	0	0
9.307	-0.1584756	0.3997469	-0.001542171	0.001074683	-0.09309096	-0.000141602	0	0
9.323495	-0.1584756	0.3997469	0	0	0.04654414	-0.03243494	0	0
9.340061	-0.1584756	0.3997469	0	0	0	0	0	0
9.356628	-0.1584756	0.3997469	0	0	0	0	0	0
9.373547	-0.1584756	0.3997469	0	0	0	0	0	0
9.389762	-0.1584756	0.3997469	0	0	0	0	0	0
9.406328	-0.1584756	0.3997469	0	0	0	0	0	0
9.422894	-0.1584756	0.3997469	0	0	0	0	0	0
9.439462	-0.1584756	0.3997469	0	0	0	0	0	0
9.456027	-0.1584756	0.3997469	0	0	0	0	0	0
9.472593	-0.1584756	0.3997469	0	0	0	0	0	0
9.48916	-0.1584756	0.3997469	0	0	0	0	0	0
9.505727	-0.1584756	0.3997469	0	0	0	0	0	0
9.522293	-0.1584756	0.3997469	0	0	0	0	0	0
9.538859	-0.1584756	0.3997469	0	0	0	0	0	0
9.555674	-0.1584756	0.3997469	0	0	0	0	0	0
9.572186	-0.1584756	0.3997469	0	0	0	0	0	0
9.588558	-0.1584756	0.3997469	0	0	0	0	0	0
9.605209	-0.1584756	0.3997469	0	0	0	0	0	0
9.621718	-0.1584756	0.3997469	0	0	0	0	0	0
9.638258	-0.1584756	0.3997469	0	0	0	0	0	0
9.655242	-0.1584756	0.3997469	0	0	0	0	0	0
9.671391	-0.1584756	0.3997469	0	0	0	0	0	0
9.687958	-0.1584756	0.3997469	0	0	0	0	0	0
9.704524	-0.1584756	0.3997469	0	0	0	0	0	0
9.72109	-0.1584756	0.3997469	0	0	0	0	0	0
9.7378	-0.1584756	0.3997469	0	0	0	0	0	0
9.754312	-0.1585013	0.3997648	-0.001554919	0.001084744	-0.04680497	0.0326521	0	0
9.770823	-0.1585013	0.3997648	0	0	0.04708476	-0.03284729	0	0
9.790633	-0.1585013	0.3997648	0	0	0	0	0	0
9.807349	-0.1585013	0.3997648	0	0	0	0	0	0
9.823768	-0.1585013	0.3997648	0	0	0	0	0	0
9.840334	-0.1585013	0.3997648	0	0	0	0	0	0
9.857386	-0.1585013	0.3997648	0	0	0	0	0	0
9.873467	-0.1585013	0.3997648	0	0	0	0	0	0
9.956301	-0.1585013	0.3997648	0	0	0	0	0	0
9.972867	-0.1585013	0.3997648	0	0	0	0	0	0
9.989477	-0.1585013	0.3997648	0	0	0	0	0	0
10.006	-0.1585013	0.3997648	0	0	0	0	0	0
10.02257	-0.1585013	0.3997648	0	0	0	0	0	0
10.03952	-0.1585013	0.3997648	0	0	0	0	0	0
10.05602	-0.1585013	0.3997648	0	0	0	0	0	0
10.07254	-0.1585013	0.3997648	0	0	0	0	0	0
10.08883	-0.1585013	0.3997648	0	0	0	0	0	0
10.10556	-0.1585013	0.3997648	0	0	0	0	0	0
10.1551	-0.1585013	0.3997648	0	0	0	0	0	0
10.17167	-0.1585013	0.3997648	0	0	0	0	0	0
10.18823	-0.1585013	0.3997648	0	0	0	0	0	0
10.2048	-0.1585013	0.3997648	0	0	0	0	0	0
10.22137	-0.1584756	0.3997469	0.001549728	-0.001081122	0.04677223	-0.03262927	0	0
10.23815	-0.1584756	0.3997469	0	0	-0.0464633	0.03241375	0	0
10.25467	-0.1584756	0.3997469	0	0	0	0	0	0
10.27107	-0.1584756	0.3997469	0	0	0	0	0	0
10.28763	-0.1584756	0.3997469	0	0	0	0	0	0
10.3042	-0.1584756	0.3997469	0	0	0	0	0	0
10.32077	-0.1584756	0.3997469	0	0	0	0	0	0
10.33733	-0.1584756	0.3997469	0	0	0	0	0	0
10.3539	-0.1584756	0.3997469	0	0	0	0	0	0
10.37075	-0.1584756	0.3997469	0	0	0	0	0	0
10.38703	-0.1585013	0.3997648	-0.001576407	0.001099734	-0.04757742	0.03319098	0	0
10.4036	-0.1585013	0.3997648	0	0	0.04798346	-0.03347424	0	0
10.43673	-0.1585013	0.3997648	0	0	0	0	0	0
10.4533	-0.1585013	0.3997648	0	0	0	0	0	0
10.46987	-0.1584756	0.3997469	0.001550085	-0.001081371	0.04678166	-0.03263584	0	0
10.48643	-0.1584756	0.3997469	0	0	-0.04678974	0.03264147	0	0
10.503	-0.1584756	0.3997469	0	0	0	0	0	0
10.51957	-0.1584756	0.3997469	0	0	0	0	0	0
10.53955	-0.1585013	0.3997648	-0.001284992	0.0008964369	-0.03515936	0.02452789	0	0
10.55611	-0.1585013	0.3997648	0	0	0.03515936	-0.02452789	0	0
10.57289	-0.1584756	0.3997469	0.001530435	-0.001067662	0.04589929	-0.03202029	0	0
10.64694	-0.1584756	0.3997469	0	0	-0.01685018	0.01175503	0	0
10.66323	-0.1584756	0.3997469	0	0	0	0	0	0
10.67979	-0.1584756	0.3997469	0	0	0	0	0	0
10.69648	-0.1584756	0.3997469	0	0	0	0	0	0
10.71293	-0.1584756	0.3997469	0	0	0	0	0	0
10.72949	-0.1584756	0.3997469	0	0	0	0	0	0
10.74606	-0.1584756	0.3997469	0	0	0	0	0	0
10.76262	-0.1584756	0.3997469	0	0	0	0	0	0
10.77919	-0.1584756	0.3997469	0	0	0	0	0	0
10.79576	-0.1584756	0.3997469	0	0	0	0	0	0
10.81232	-0.1584756	0.3997469	0	0	0	0	0	0
10.82889	-0.1584756	0.3997469	0	0	0	0	0	0
10.84546	-0.1584756	0.3997469	0	0	0	0	0	0
10.86202	-0.1584756	0.3997469	0	0	0	0	0	0
10.87859	0	0	9.565608	-24.12877	288.6989	-728.2286	0	0
10.89516	-0.1584756	0.3997469	-9.566159	24.13016	-577.4145	1456.499	0	0
10.91213	-0.1584756	0.3997469	0	0	285.267	-719.5718	0	0
10.92829	-0.1584756	0.3997469	0	0	0	0	0	0
10.94515	-0.1584756	0.3997469	0	0	0	0	0	0
11.01112	-0.1584756	0.3997469	0	0	0	0	0	0
11.06082	-0.1584756	0.3997469	0	0	0	0	0	0
11.07739	-0.1584756	0.3997469	0	0	0	0	0	0
11.09425	-0.1584756	0.3997469	0	0	0	0	0	0
11.11076	-0.1584756	0.3997469	0	0	0	0	0	0
11.12728	-0.1584756	0.3997469	0	0	0	0	0	0
11.14366	-0.1584756	0.3997469	0	0	0	0	0	0
11.16022	-0.1584756	0.3997469	0	0	0	0	0	0
11.17679	-0.1584756	0.3997469	0	0	0	0	0	0
11.19336	-0.1584756	0.3997469	0	0	0	0	0	0
11.21033	-0.1584756	0.3997469	0	0	0	0	0	0
11.22649	-0.1584756	0.3997469	0	0	0	0	0	0
11.24306	-0.1584756	0.3997469	0	0	0	0	0	0
11.25962	-0.1584756	0.3997469	0	0	0	0	0	0
11.27619	-0.1584756	0.3997469	0	0	0	0	0	0
11.29289	-0.1584756	0.3997469	0	0	0	0	0	0
11.30932	-0.1584756	0.3997469	0	0	0	0	0	0
11.32971	-0.1584756	0.3997469	0	0	0	0	0	0
11.34627	-0.1584756	0.3997469	0	0	0	0	0	0
11.36284	-0.1584756	0.3997469	0	0	0	0	0	0
11.37941	-0.1584756	0.3997469	0	0	0	0	0	0
11.39597	-0.1584756	0.3997469	0	0	0	0	0	0
11.41254	-0.1584756	0.3997469	0	0	0	0	0	0
11.42911	-0.1584756	0.3997469	0	0	0	0	0	0
11.44567	-0.1584756	0.3997469	0	0	0	0	0	0
11.46224	-0.1584756	0.3997469	0	0	0	0	0	0
11.47881	-0.1584756	0.3997469	0	0	0	0	0	0
11.49537	-0.1584756	0.3997469	0	0	0	0	0	0
11.51204	-0.1584756	0.3997469	0	0	0	0	0	0
11.52851	-0.1584756	0.3997469	0	0	0	0	0	0
11.54507	-0.1584756	0.3997469	0	0	0	0	0	0
11.56164	-0.1584756	0.3997469	0	0	0	0	0	0
11.57821	-0.1584756	0.3997469	0	0	0	0	0	0
11.59477	-0.1584756	0.3997469	0	0	0	0	0	0
11.61162	-0.1584756	0.3997469	0	0	0	0	0	0
11.6279	-0.1584756	0.3997469	0	0	0	0	0	0
11.64447	-0.1584756	0.3997469	0	0	0	0	0	0
11.66104	-0.1584756	0.3997469	0	0	0	0	0	0
11.67766	-0.1584756	0.3997469	0	0	0	0	0	0
11.69417	-0.1584756	0.3997469	0	0	0	0	0	0
11.71074	-0.1584756	0.3997469	0	0	0	0	0	0
11.7273	-0.1585013	0.399729	-0.001549817	-0.001079385	-0.04677627	-0.03257778	0	0
11.74387	-0.1585013	0.399729	0	0	0.04677627	0.03257778	0	0
11.76044	-0.1585013	0.399729	0	0	0	0	0	0
11.777	-0.1585013	0.399729	0	0	0	0	0	0
11.79374	-0.1585013	0.399729	0	0	0	0	0	0
11.81014	-0.1585013	0.399729	0	0	0	0	0	0
11.8764	-0.1585013	0.399729	0	0	0	0	0	0
11.89297	-0.1585013	0.399729	0	0	0	0	0	0
11.90982	-0.1585013	0.399729	0	0	0	0	0	0
11.92611	-0.1585013	0.399729	0	0	0	0	0	0
11.96259	-0.1590401	0.3993175	-0.01477161	-0.01128	-0.2799514	-0.2137785	0	0
11.97915	-0.1626811	0.3967774	-0.2197826	-0.1533303	-3.865039	-2.678051	0	0
12.01229	-0.1775066	0.3864418	-0.4474605	-0.3119468	-4.581151	-3.191555	0	0
12.02886	-0.1804115	0.384404	-0.1753322	-0.122998	5.475336	3.801731	0	0
12.04542	-0.1831353	0.3824914	-0.1644354	-0.1154625	0.3288864	0.227433	0	0
12.06199	-0.1860088	0.3804718	-0.1734563	-0.121913	-0.2722829	-0.1946965	0	0
12.07855	-0.1863392	0.3802394	-0.01994229	-0.014024	4.633195	3.256189	0	0
12.09512	-0.1863392	0.3802394	0	0	0.6018596	0.4232453	0	0
12.11196	-0.1863392	0.3802394	0	0	0	0	0	0
12.12848	-0.1863392	0.3802394	0	0	0	0	0	0
12.14499	-0.1863392	0.3802394	0	0	0	0	0	0
12.1615	-0.1863392	0.3802394	0	0	0	0	0	0
12.17795	-0.1863392	0.3802394	0	0	0	0	0	0
12.19453	-0.1863392	0.3802394	0	0	0	0	0	0
12.21109	-0.1863392	0.3802394	0	0	0	0	0	0
12.22765	-0.1863392	0.3802394	0	0	0	0	0	0
12.24422	-0.1863392	0.3802394	0	0	0	0	0	0
12.26079	-0.1863392	0.3802394	0	0	0	0	0	0
12.27735	-0.1863392	0.3802394	0	0	0	0	0	0
12.29409	-0.1863392	0.3802394	0	0	0	0	0	0
12.31049	-0.1863392	0.3802037	0	-0.002179683	0	-0.06578486	0	0
12.34362	-0.1863138	0.3801858	0.0007672629	-0.0005396926	0.01549206	0.03311358	0	0
12.36019	-0.1863138	0.3801858	0	0	-0.01543825	0.01085926	0	0
12.37675	-0.1862884	0.3801679	0.001533626	-0.001079385	0.0462876	-0.03257778	0	0
12.39332	-0.186263	0.3801501	0.001534526	-0.001077586	2.714626E-05	5.429603E-05	0	0
12.40988	-0.1862376	0.3801322	0.001533626	-0.001079385	-2.714626E-05	-5.429603E-05	0	0
12.42645	-0.1860851	0.380025	0.009204458	-0.006472713	0.2315195	-0.1627803	0	0
12.44302	-0.1859834	0.3799535	0.006137204	-0.004315742	-0.09257521	0.06510127	0	0
12.45971	-0.1857038	0.3797569	0.01675076	-0.01177723	0.319133	-0.224355	0	0
12.47615	-0.1853988	0.3795067	0.01855225	-0.01521808	0.05437055	-0.1038483	0	0
12.49272	-0.1806408	0.376165	0.2872118	-0.2017173	8.139084	-5.650023	0	0
12.50928	-0.1702567	0.3688931	0.6268215	-0.4389536	10.25003	-7.160217	0	0
12.52585	-0.1574747	0.359944	0.7715634	-0.5402053	4.368572	-3.055959	0	0
12.54242	-0.1508196	0.3550325	0.4017247	-0.2964747	-11.1624	7.356227	0	0
12.59212	-0.1370564	0.3139933	0.276928	-0.8257408	-1.883266	-7.986987	0	0
12.60868	-0.136669	0.3057218	0.02338398	-0.499302	-3.826153	4.926184	0	0
12.62532	-0.1355066	0.2904764	0.06985847	-0.9162046	1.399582	-12.55504	0	0
12.64182	-0.1346022	0.2835562	0.05482979	-0.4195631	-0.4535795	14.9891	0	0
12.6783	-0.1283692	0.2604144	0.1708405	-0.6342867	2.189768	-4.053032	0	0
12.69487	-0.1230852	0.2526023	0.3188692	-0.4714297	2.79006	3.069544	0	0
12.71143	-0.1192473	0.2470089	0.2317053	-0.3376954	-2.630612	4.036109	0	0
12.728	-0.1158474	0.2441933	0.2052329	-0.1699636	-0.7990524	5.062884	0	0
12.74457	-0.1083373	0.2390443	0.453335	-0.3108126	7.488166	-4.251075	0	0
12.76113	-0.100867	0.2338927	0.4509057	-0.3109476	-0.07332052	-0.004074562	0	0
12.7777	-0.09338548	0.2287385	0.4516143	-0.3111265	0.0213883	-0.005399469	0	0
12.79444	-0.08803502	0.2250193	0.3196057	-0.2221662	-3.96338	2.670911	0	0
12.81083	-0.08432587	0.2224671	0.2262684	-0.1556928	-2.817006	2.006231	0	0
12.82747	-0.07614198	0.2168028	0.4920827	-0.34058	8.049163	-5.5986	0	0
12.84398	-0.07292309	0.2145901	0.1949434	-0.1340092	-8.965358	6.232707	0	0
12.86053	-0.06855032	0.2115488	0.2641085	-0.1836858	2.09156	-1.502227	0	0
12.8775	-0.06291685	0.2076782	0.3320284	-0.2281297	2.026035	-1.325753	0	0
12.89367	-0.05977083	0.2055171	0.1945993	-0.1336798	-4.147737	2.850586	0	0
12.91053	-0.05504959	0.2021661	0.2800418	-0.198764	2.587147	-1.97071	0	0
12.92704	-0.05266179	0.2004901	0.1446355	-0.1015214	-4.057954	2.914237	0	0
12.94337	-0.04959089	0.1983089	0.1880338	-0.1335557	1.321477	-0.9754418	0	0
12.95993	-0.04680789	0.1962172	0.1679917	-0.1262593	-0.6092196	0.2217879	0	0
12.97657	-0.0447333	0.1947203	0.1246986	-0.08997922	-1.303885	1.09267	0	0
12.99308	-0.04018888	0.1909855	0.2752366	-0.2261983	4.541417	-4.109445	0	0
13.00963	-0.03863866	0.1888015	0.09365233	-0.1319406	-5.491922	2.850775	0	0
13.0262	-0.04008378	0.1828236	-0.08722796	-0.3608267	-5.461336	-6.910779	0	0
13.04277	-0.04630897	0.1697477	-0.3757533	-0.789264	-8.707711	-12.93026	0	0
13.05933	-0.05006339	0.1609974	-0.2266435	-0.5282285	4.500402	7.87852	0	0
13.0759	-0.05276676	0.149256	-0.163185	-0.7087513	1.915344	-5.448661	0	0
13.09247	-0.05455109	0.1407117	-0.1077083	-0.5157689	1.674389	5.824555	0	0
13.10903	-0.05539065	0.1352873	-0.05067893	-0.3274351	1.721247	5.684254	0	0
13.1256	-0.05664985	0.1262465	-0.07600548	-0.5457039	-0.7643787	-6.587556	0	0
13.14217	-0.05602027	0.1210627	0.03800358	-0.3129093	3.440899	7.025959	0	0
13.15873	-0.05507582	0.1162392	0.0570102	-0.2911633	0.5736541	0.6563336	0	0
13.1753	-0.05415751	0.1099653	0.0554325	-0.3787198	-0.04761786	-2.642615	0	0
13.19187	-0.05247809	0.1050208	0.1013702	-0.298449	1.386444	2.422648	0	0
13.20843	-0.05295046	0.1008047	-0.02851376	-0.2544974	-3.92002	1.326499	0	0
13.225	-0.04859329	0.09724557	0.263014	-0.2148431	8.798832	1.19684	0	0
13.24156	-0.04756935	0.09652974	0.06180897	-0.04321049	-6.07273	5.18018	0	0
13.25827	-0.04759561	0.0965481	-0.001572046	0.001099183	-1.905166	1.331902	0	0
13.2747	-0.04756935	0.09656645	0.00159796	0.001116849	0.09567648	0.0005331713	0	0
13.32651	-0.04746433	0.09656645	0.002026816	0	0.006283806	-0.01636461	0	0
13.34308	-0.04743807	0.0965848	0.001585122	0.001108169	-0.006459093	0.01620527	0	0
13.35965	-0.0473593	0.09660316	0.004754692	0.001108169	0.09566331	0	0	0
13.37635	-0.04730678	0.09660316	0.003144136	0	-0.0484102	-0.03330942	0	0
13.39278	-0.04714924	0.09652974	0.009588769	-0.004469015	0.1945106	-0.1348829	0	0
13.40935	-0.04691292	0.09640124	0.01426497	-0.007756282	0.1417196	-0.09962571	0	0
13.42591	-0.04260578	0.09357343	0.2599797	-0.1706873	7.415898	-4.917409	0	0
13.44248	-0.03984732	0.0916811	0.1665107	-0.1142277	-2.820982	1.704002	0	0
13.45905	-0.03574792	0.0888503	0.2474542	-0.170877	2.443022	-1.709777	0	0
13.47561	-0.03167361	0.08603609	0.2459399	-0.1698763	-0.04570387	0.03020255	0	0
13.49243	-0.02875523	0.0840669	0.1735172	-0.1170812	-2.169303	1.58139	0	0
13.50875	-0.02665158	0.08259402	0.1289434	-0.09028012	-1.345279	0.808881	0	0
13.52531	-0.02586265	0.08204157	0.04762259	-0.03334805	-2.4732	1.731469	0	0
13.54188	-0.02583635	0.08205998	0.001587483	0.001111317	-1.389422	1.040046	0	0
13.55844	-0.02583635	0.08205998	0	0	-0.0479131	-0.03354154	0	0
13.60814	-0.02557337	0.08213364	0.005291536	0.001482206	0.07985403	0.02236782	0	0
13.62471	-0.02528408	0.0820784	0.01746243	-0.003334851	0.1836697	-0.07269371	0	0
13.64153	-0.0246792	0.08187582	0.03595417	-0.01204137	0.5538101	-0.2607521	0	0
13.65784	-0.02402169	0.08163638	0.04031361	-0.0146803	0.1315718	-0.07964526	0	0
13.67441	-0.02015517	0.07951777	0.2333976	-0.1278869	5.873096	-3.443441	0	0
13.69098	-0.01302558	0.07640243	0.4303675	-0.1880536	5.944905	-1.81594	0	0
13.70754	-0.007210401	0.07490845	0.351025	-0.09018173	-2.394698	2.95395	0	0
13.72411	-0.005657834	0.0749269	0.09371852	0.001113566	-7.765972	2.755456	0	0
13.74067	-0.005605204	0.0749269	0.003176934	0	-2.732708	-0.03360942	0	0
13.75724	-0.005552575	0.07496379	0.003176934	0.002227132	0	0.06721883	0	0
13.77381	-0.004947328	0.07538806	0.03653486	0.02561021	1.006802	0.7057434	0	0
13.79037	-0.001499999	0.07776682	0.2080932	0.1435906	5.177938	3.560861	0	0
13.80715	0.001578946	0.07992315	0.1835631	0.128558	-0.7357664	-0.4508952	0	0
13.82351	0.008973443	0.08513442	0.4519785	0.3185314	8.101027	5.733573	0	0
13.84007	0.01084168	0.08651444	0.1127735	0.08330335	-10.30187	-7.144022	0	0
13.85668	0.01386753	0.08866642	0.1821793	0.1295657	2.092081	1.394474	0	0
13.87321	0.01394646	0.08875836	0.004776466	0.005563611	-5.354029	-3.74239	0	0
13.88977	0.01394646	0.08875836	0	0	-0.144341	-0.1681279	0	0
13.90634	0.01407802	0.0888503	0.007941014	0.005549839	0.2396741	0.1675041	0	0
13.92291	0.01431481	0.08905257	0.01429294	0.01220849	0.1917069	0.2009643	0	0
13.93947	0.01489364	0.08949383	0.03493987	0.02663608	0.6231435	0.4354379	0	0
13.95604	0.0150778	0.08965929	0.01111711	0.009987911	-0.7190138	-0.5024716	0	0
13.97261	0.01523566	0.08976959	0.009528947	0.006658457	-0.04793347	-0.1004889	0	0
14.04155	0.01552507	0.08993504	0.00419739	0.002399574	-0.06234644	-0.04980275	0	0
14.05833	0.01552507	0.08993504	0	0	-0.04896625	-0.02799314	0	0
14.07469	0.01552507	0.08993504	0	0	0	0	0	0
14.09125	0.01552507	0.08993504	0	0	0	0	0	0
14.10782	0.01552507	0.08993504	0	0	0	0	0	0
14.12439	0.01552507	0.08993504	0	0	0	0	0	0
14.14095	0.01552507	0.08993504	0	0	0	0	0	0
14.15752	0.01549876	0.08991666	-0.001588102	-0.001109518	-0.04793038	-0.03348628	0	0
14.17409	0.01549876	0.08991666	0	0	0.04793176	0.03348725	0	0
14.19065	0.01549876	0.08991666	0	0	0	0	0	0
14.20722	0.01549876	0.08991666	0	0	0	0	0	0
14.22394	0.01549876	0.08991666	0	0	0	0	0	0
14.24035	0.01549876	0.08991666	0	0	0	0	0	0
14.25696	0.01549876	0.08991666	0	0	0	0	0	0
14.27349	0.01549876	0.08991666	0	0	0	0	0	0
14.29005	0.01549876	0.08991666	0	0	0	0	0	0
14.30662	0.01549876	0.08991666	0	0	0	0	0	0
14.32351	0.01547245	0.08993504	-0.00155767	0.001088219	-0.04655632	0.03252515	0	0
14.33975	0.01547245	0.08993504	0	0	0.04701192	-0.03284344	0	0
14.35653	0.01544614	0.08991666	-0.001567939	-0.001095393	-0.04748039	-0.03317072	0	0
14.37289	0.01544614	0.08991666	0	0	0.04732186	0.03305997	0	0
14.38956	0.01544614	0.08991666	0	0	0	0	0	0
14.45572	0.01544614	0.08991666	0	0	0	0	0	0
14.47262	0.01544614	0.08991666	0	0	0	0	0	0
14.48885	0.01544614	0.08991666	0	0	0	0	0	0
14.50542	0.01544614	0.08991666	0	0	0	0	0	0
14.52199	0.01544614	0.08991666	0	0	0	0	0	0
14.53855	0.01541983	0.08989827	-0.001588102	-0.001109968	-0.04793038	-0.03349986	0	0
14.55512	0.01541983	0.08989827	0	0	0.04793176	0.03350082	0	0
14.57168	0.01541983	0.08989827	0	0	0	0	0	0
14.58825	0.01541983	0.08989827	0	0	0	0	0	0
14.60482	0.01541983	0.08989827	0	0	0	0	0	0
14.62138	0.01541983	0.08989827	0	0	0	0	0	0
14.63795	0.01541983	0.08989827	0	0	0	0	0	0
14.65666	0.01541983	0.08989827	0	0	0	0	0	0
14.67326	0.01541983	0.08989827	0	0	0	0	0	0
14.72691	0.01539352	0.08987989	-0.0004903729	-0.0003425841	-0.006980442	-0.004876672	0	0
14.74348	0.01539352	0.08987989	0	0	0.006983286	0.004878659	0	0
14.76005	0.01539352	0.08987989	0	0	0	0	0	0
14.77661	0.01539352	0.08987989	0	0	0	0	0	0
14.79318	0.01539352	0.08987989	0	0	0	0	0	0
14.80975	0.01539352	0.08987989	0	0	0	0	0	0
14.82631	0.01539352	0.08987989	0	0	0	0	0	0
14.84288	0.01539352	0.08987989	0	0	0	0	0	0
14.85945	0.01539352	0.08987989	0	0	0	0	0	0
14.87606	0.01539352	0.08987989	0	0	0	0	0	0
14.89258	0.01539352	0.08987989	0	0	0	0	0	0
14.90942	0.01539352	0.08987989	0	0	0	0	0	0
14.92571	0.01539352	0.08987989	0	0	0	0	0	0
14.94228	0.01539352	0.08987989	0	0	0	0	0	0
14.95885	0.01539352	0.08987989	0	0	0	0	0	0
14.97547	0.01536721	0.08986151	-0.001582873	-0.001105826	-0.04769432	-0.03332018	0	0
14.99198	0.01536721	0.08986151	0	0	0.04777257	0.03337485	0	0
15.00855	0.01536721	0.08986151	0	0	0	0	0	0
15.02511	0.01536721	0.08986151	0	0	0	0	0	0
15.04201	0.01536721	0.08986151	0	0	0	0	0	0
15.05824	0.0153409	0.08987989	-0.001620853	0.001132399	-0.04892025	0.03417785	0	0
15.07504	0.0153409	0.08987989	0	0	0.0490813	-0.03429037	0	0
15.09138	0.01528828	0.08991666	-0.003220063	0.002250055	-0.09718449	0.06790873	0	0
15.10795	0.01518304	0.08999019	-0.006351844	0.004438011	-0.09516373	0.06648425	0	0
15.12451	0.01489364	0.0901924	-0.01747074	0.01220675	-0.3355787	0.2344678	0	0
15.14108	0.01452529	0.09041298	-0.02222798	0.01331128	-0.1435655	0.033333	0	0
15.15765	0.01442005	0.0904865	-0.006354207	0.004439094	0.4790852	-0.2677709	0	0
15.17421	0.01439374	0.09050488	-0.001588158	0.001109518	0.1438645	-0.1005042	0	0
15.19112	0.01420957	0.09059679	-0.01089289	0.005435568	-0.2779693	0.1292363	0	0
15.20734	0.01399909	0.09070707	-0.0129729	0.006797192	-0.06277842	0.04109624	0	0
15.22391	0.0137886	0.09081735	-0.01270571	0.006656658	0.008148264	-0.00428571	0	0
15.24048	0.01365705	0.09090924	-0.007940614	0.005546821	0.1438151	-0.03349593	0	0
15.25717	0.01339394	0.09105627	-0.01576608	0.008810325	-0.2353129	0.09813403	0	0
15.27368	0.01252566	0.09166273	-0.05259081	0.03673256	-1.109234	0.8410727	0	0
15.29019	0.01023648	0.09326115	-0.1386378	0.09680434	-2.605753	1.819148	0	0
15.30674	0.007789316	0.09496919	-0.1478135	0.1031687	-0.2774823	0.1924632	0	0
15.32331	0.002447363	0.09869525	-0.3224595	0.2249182	-5.272798	3.675785	0	0
15.33988	-0.003710509	0.1029866	-0.3717113	0.259039	-1.48651	1.029825	0	0
15.35644	-0.01042068	0.1076585	-0.4050264	0.2819983	-1.00548	0.6929355	0	0
15.37627	-0.02149669	0.1153618	-0.5586091	0.3885072	-4.219876	2.926463	0	0
15.39284	-0.02796639	0.1198573	-0.390512	0.2713526	4.618678	-3.218968	0	0
15.4094	-0.03403948	0.1240751	-0.3665934	0.2545986	0.7218864	-0.5056513	0	0
15.42597	-0.03984732	0.128107	-0.3505619	0.2433653	0.4838457	-0.3390314	0	0
15.44254	-0.0509821	0.13587	-0.6721354	0.468607	-9.705388	6.798002	0	0
15.45931	-0.05649246	0.1396927	-0.3286333	0.2279835	10.30492	-7.218607	0	0
15.47567	-0.06954556	0.1487837	-0.797574	0.5554792	-14.15307	9.884122	0	0
15.49224	-0.08147712	0.157062	-0.7202319	0.4997086	2.348521	-1.693493	0	0
15.50884	-0.09463751	0.1661983	-0.7926741	0.5502964	-2.184048	1.525163	0	0
15.52537	-0.1127046	0.1787571	-1.092921	0.7597108	-9.061719	6.320323	0	0
15.54194	-0.1256244	0.1877544	-0.7798895	0.5431079	9.457915	-6.544435	0	0
15.5585	-0.1417018	0.1989759	-0.9704869	0.6773717	-5.752573	4.052323	0	0
15.57507	-0.1491473	0.204184	-0.449438	0.3143817	15.72619	-10.95569	0	0
15.59164	-0.1629373	0.2138524	-0.8324165	0.5836155	-11.55898	8.125958	0	0
15.60841	-0.169413	0.2184036	-0.3860738	0.2713374	13.3878	-9.366611	0	0
15.62477	-0.1814046	0.2268521	-0.7329696	0.5164074	-10.46964	7.396441	0	0
15.64143	-0.1920508	0.2343775	-0.6389276	0.4516307	2.847783	-1.961571	0	0
15.65794	-0.1989133	0.2392417	-0.4156084	0.2945864	6.73165	-4.733883	0	0
15.67447	-0.2067653	0.244821	-0.4751522	0.3376264	-1.802327	1.302776	0	0
15.69104	-0.21243	0.2488558	-0.341942	0.2435516	4.025505	-2.842867	0	0
15.7076	-0.2141393	0.2500749	-0.1031793	0.07358979	7.206287	-5.129752	0	0
15.72417	-0.2262433	0.2588381	-0.7306404	0.5289761	-18.9379	13.74438	0	0
15.74074	-0.2326815	0.2635666	-0.3886326	0.285429	10.32241	-7.350688	0	0
15.7573	-0.2419299	0.2702983	-0.5582331	0.4063292	-5.118699	3.648878	0	0
15.77387	-0.2489376	0.2754346	-0.4230075	0.3100426	4.081235	-2.906018	0	0
15.79044	-0.2535051	0.278816	-0.2756996	0.2041072	4.445889	-3.197229	0	0
15.807	-0.2628041	0.2860778	-0.5613181	0.4383455	-8.620232	7.06953	0	0
15.82357	-0.26533	0.28935	-0.1524704	0.1975221	12.33976	-7.268484	0	0
15.84013	-0.2632948	0.2975551	0.1228484	0.4952921	8.309615	8.987232	0	0
15.8567	-0.2595866	0.3037205	0.2238282	0.3721434	3.047664	-3.716742	0	0
15.8736	-0.2520743	0.3098489	0.4446889	0.3627657	6.600616	-0.2802614	0	0
15.89011	-0.2465137	0.3138683	0.3367642	0.2434248	-3.230766	-3.572514	0	0
15.9064	-0.2414337	0.3174943	0.3117583	0.2225323	-0.7622238	-0.63684	0	0
15.95615	-0.2334289	0.3232454	0.1608942	0.1155943	-2.284204	-1.619128	0	0
15.97267	-0.2334289	0.3232454	0	0	-2.428002	-1.744396	0	0
15.98923	-0.2334289	0.3232811	0	0.002156971	0	0.0652045	0	0
16.0058	-0.2334289	0.3232811	0	0	0	-0.06510127	0	0
16.02584	-0.2334289	0.3232811	0	0	0	0	0	0
16.04271	-0.2334289	0.3232811	0	0	0	0	0	0
16.05923	-0.233404	0.323299	0.001508894	0.001081134	0.0451977	0.03238447	0	0
16.07554	-0.233404	0.323299	0	0	-0.04596452	-0.03293391	0	0
16.09211	-0.2333791	0.3233526	0.001502957	0.003234371	0.04570664	0.09836091	0	0
16.10876	-0.2333044	0.3235848	0.004487423	0.01394278	0.08983863	0.3223453	0	0
16.12524	-0.2332794	0.3238169	0.001511863	0.01408782	-0.08980773	0.004377666	0	0
16.14181	-0.2323825	0.3248885	0.05413884	0.06467843	1.592502	1.530881	0	0
16.19182	-0.2288908	0.3438891	0.06981878	0.3799306	0.2355126	4.735087	0	0
16.20807	-0.2294149	0.3461569	-0.03224089	0.1395067	-1.540128	-3.628109	0	0
16.22464	-0.2294149	0.346907	0	0.04527221	0.9822482	-2.87094	0	0
16.24121	-0.2294149	0.346907	0	0	0	-1.366318	0	0
16.25787	-0.2294399	0.3469248	-0.001498447	0.001071725	-0.0451012	0.03225745	0	0
16.27438	-0.2295148	0.3469784	-0.004533379	0.003243027	-0.09149437	0.06545842	0	0
16.29139	-0.2297393	0.3471391	-0.01320128	0.009447878	-0.2585467	0.1850788	0	0
16.30748	-0.2329805	0.3494249	-0.2015065	0.142111	-5.689614	4.008395	0	0
16.32441	-0.2370125	0.3522822	-0.2380569	0.1687007	-1.106851	0.805215	0	0
16.34061	-0.2426987	0.3563719	-0.3510602	0.252495	-3.410446	2.528916	0	0
16.35718	-0.2484679	0.3605334	-0.3482256	0.2511854	0.08651418	-0.03996846	0	0
16.37374	-0.2500002	0.3616408	-0.09249079	0.06684247	7.718091	-5.563482	0	0
16.39031	-0.2584555	0.3677677	-0.5103651	0.369821	-12.61147	9.143911	0	0
16.40688	-0.2604222	0.3691969	-0.1187093	0.08626489	11.82019	-8.557742	0	0
16.42349	-0.2641042	0.3718767	-0.2217128	0.1613662	-3.104896	2.263826	0	0
16.44001	-0.2760077	0.3805433	-0.7203172	0.524442	-15.04878	10.95828	0	0
16.45658	-0.2807518	0.3840286	-0.2863864	0.2103987	13.11342	-9.490412	0	0
16.47314	-0.283689	0.3861558	-0.1772932	0.1283999	3.292628	-2.474871	0	0
16.48971	-0.2841498	0.3864955	-0.02781056	0.02050174	4.511395	-3.256372	0	0
16.50655	-0.2841498	0.3864955	0	0	0.8326143	-0.6137972	0	0
16.52306	-0.2841983	0.3864597	-0.002938713	-0.002166128	-0.08813248	-0.06496251	0	0
16.53941	-0.2842953	0.3863524	-0.0059293	-0.006557945	-0.09099466	-0.1336299	0	0
16.55598	-0.2843437	0.3863167	-0.002926764	-0.002158646	0.09119944	0.1336249	0	0
16.57255	-0.284368	0.3862988	-0.001462483	-0.001079323	0.04419211	0.03257403	0	0
16.58911	-0.2843922	0.3862809	-0.001464282	-0.001079323	-5.428939E-05	0	0	0
16.60568	-0.2844165	0.3862631	-0.001462483	-0.001077524	5.428939E-05	5.428939E-05	0	0
16.62263	-0.2844407	0.3862809	-0.001431486	0.001053391	0.0009248992	0.06358278	0	0
16.63881	-0.2844407	0.3862809	0	0	0.04320481	-0.03179322	0	0
16.65565	-0.2844407	0.3862809	0	0	0	0	0	0
16.67195	-0.2845134	0.3863346	-0.004462718	0.003292169	-0.1346928	0.09936357	0	0
16.68851	-0.2846104	0.3864061	-0.005853529	0.004315493	-0.04232313	0.03114032	0	0
16.70777	-0.2874927	0.3885335	-0.149646	0.1104581	-4.01345	2.962591	0	0
16.72434	-0.2902492	0.390536	-0.1663848	0.1208716	-0.4672057	0.2906542	0	0
16.74091	-0.2908048	0.3909473	-0.03353637	0.02482443	4.009375	-2.898709	0	0
16.75772	-0.2907807	0.3909294	0.001435437	-0.001063287	1.047552	-0.7754453	0	0
16.77404	-0.2907565	0.3909115	0.001481224	-0.00109585	0.00138186	-0.0009827707	0	0
16.79061	-0.2907565	0.3908043	0	-0.006475938	-0.04504311	-0.1636051	0	0
16.80726	-0.2907324	0.3906076	0.001449742	-0.01181271	0.04364277	-0.1606573	0	0
16.82374	-0.2909014	0.3900533	-0.01025696	-0.03362756	-0.3533089	-0.6583733	0	0
16.84031	-0.2914809	0.3889447	-0.03497906	-0.06691083	-0.7480091	-1.007042	0	0
16.85688	-0.2914568	0.3889269	0.001457086	-0.001079323	1.099645	1.986799	0	0
16.87344	-0.2914809	0.3889447	-0.001457254	0.001079447	-0.08796002	0.06515557	0	0
16.89001	-0.2914568	0.3889626	0.001457086	0.001079323	0.08796002	-3.75255E-06	0	0
16.90683	-0.2914809	0.3889447	-0.001435112	-0.001063046	-0.08662351	-0.06416557	0	0
16.93971	-0.2914809	0.3889447	0	0	0.02887561	0.02138934	0	0
16.95637	-0.2915051	0.3889626	-0.001449244	0.001073514	-0.02925653	0.0216715	0	0
16.97288	-0.2915051	0.3889984	0	0.002165877	0.04369301	0.03293346	0	0
16.98941	-0.2915534	0.3890342	-0.002922026	0.002163129	-0.08842617	-8.317691E-05	0	0
17.0064	-0.2915534	0.3890342	0	0	0.08716337	-0.06452563	0	0
17.02255	-0.2915534	0.3890342	0	0	0	0	0	0
17.03911	-0.2915534	0.3890342	0	0	0	0	0	0
17.0557	-0.2915775	0.389052	-0.001455411	0.001078082	-0.04390163	0.03251973	0	0
17.07245	-0.2916017	0.3890699	-0.001440994	0.001065624	0.0004324281	-0.0003736801	0	0
17.08896	-0.2916499	0.3891056	-0.002923934	0.002165877	-0.04458073	0.03307624	0	0
17.10547	-0.2916982	0.3891056	-0.002923934	0	0	-0.06558528	0	0
17.12195	-0.2916982	0.3891056	0	0	0.08864765	0	0	0
17.13851	-0.2917465	0.3891414	-0.002914172	0.002158646	-0.08820376	0.06533612	0	0
17.15508	-0.2917947	0.3891772	-0.002912373	0.002158646	5.428939E-05	0	0	0
17.17165	-0.291843	0.3891772	-0.002914172	0	-5.428939E-05	-0.06514806	0	0
17.18822	-0.2920844	0.3892845	-0.01456906	0.006475938	-0.3517453	0.1954442	0	0
17.20505	-0.2922051	0.3893738	-0.00716891	0.005309844	0.2215642	-0.03491344	0	0
17.22135	-0.2925429	0.3895884	-0.02072424	0.01316405	-0.4091243	0.2370542	0	0
17.23792	-0.2926635	0.3895705	-0.007281833	-0.001079323	0.4089888	-0.4333584	0	0
17.25448	-0.2928324	0.3894454	-0.01019241	-0.007555261	-0.08784131	-0.1954442	0	0
17.2711	-0.2929771	0.3893381	-0.008711251	-0.006458094	0.0446397	0.03306688	0	0
17.28762	-0.2930977	0.3892487	-0.007300205	-0.005409764	0.04258546	0.03163867	0	0
17.30418	-0.2931218	0.3892308	-0.001455287	-0.001079323	0.176644	0.1308738	0	0
17.32075	-0.2931218	0.3892308	0	0	0.04392065	0.03257403	0	0
17.33732	-0.293146	0.3892129	-0.001457086	-0.001079323	-0.04397494	-0.03257403	0	0
17.35416	-0.293146	0.3892129	0	0	0.0436184	0.03230993	0	0
17.37067	-0.293146	0.3892129	0	0	0	0	0	0
17.38702	-0.293146	0.3892487	0	0.002187099	0	0.06655464	0	0
17.40724	-0.293146	0.3892487	0	0	0	-0.05980649	0	0
17.4238	-0.2931218	0.3892666	0.001457086	0.001079323	0.03961074	0.02934129	0	0
17.44037	-0.2930977	0.3892845	0.001455455	0.001079447	-4.923289E-05	3.75255E-06	0	0
17.45723	-0.2930977	0.3892845	0	0	-0.04354471	-0.03229521	0	0
17.47374	-0.2930736	0.3892666	0.001460162	-0.001082939	0.04375546	-0.03245152	0	0
17.49007	-0.2930495	0.3892487	0.001478361	-0.001095082	0.0005541551	-0.0003697771	0	0
17.50664	-0.2930012	0.3892129	0.002910574	-0.002158646	0.04353755	-0.03233105	0	0
17.5232	-0.2929289	0.3891235	0.004367661	-0.005396615	0.04397495	-0.09772211	0	0
17.53977	-0.2928806	0.3890878	0.002912373	-0.002158646	-0.04392066	0.09772211	0	0
17.55634	-0.2928806	0.3890878	0	0	-0.0878956	0.06514806	0	0
17.5729	-0.2928806	0.3890878	0	0	0	0	0	0
17.58947	-0.2928806	0.3890878	0	0	0	0	0	0
17.60604	-0.2928565	0.3890699	0.001457254	-0.001079447	0.04398254	-0.03257966	0	0
17.63568	-0.2928565	0.3890342	0	-0.001205403	-0.03153592	-0.002725765	0	0
17.65237	-0.2928565	0.3890342	0	0	0	0.02601698	0	0
17.66888	-0.2927841	0.3889805	0.004382798	-0.003249191	0.1320223	-0.09787486	0	0
17.68539	-0.292567	0.3888196	0.01315049	-0.009744643	0.2655111	-0.1967012	0	0
17.70195	-0.2918189	0.3882653	0.04517608	-0.03347083	0.968374	-0.7174206	0	0
17.71852	-0.2908531	0.3875502	0.05829424	-0.04316393	0.3959979	-0.2926056	0	0
17.73508	-0.2881943	0.3855838	0.1604845	-0.1186968	3.084109	-2.279585	0	0
17.75165	-0.2829855	0.3817407	0.314405	-0.2319663	4.645329	-3.418482	0	0
17.78497	-0.2740821	0.3752358	0.2672594	-0.1952624	-0.9451613	0.7358298	0	0
17.80135	-0.2718614	0.3736098	0.1355076	-0.09921838	-2.650852	1.93241	0	0
17.81792	-0.2689044	0.3714479	0.1784859	-0.130492	1.304143	-0.9489732	0	0
17.8345	-0.265526	0.3689825	0.2037559	-0.1486954	0.7623443	-0.5491604	0	0
17.85105	-0.2612329	0.3658563	0.2593718	-0.1888702	1.678586	-1.212547	0	0
17.86762	-0.2552552	0.3615515	0.3608123	-0.2598398	3.062892	-2.142854	0	0
17.88419	-0.2532832	0.3601226	0.1190331	-0.0862487	-7.29691	5.238991	0	0
17.90075	-0.2506424	0.358283	0.159398	-0.111039	1.218214	-0.7481712	0	0
17.91732	-0.2500743	0.3578722	0.03429009	-0.02479565	-3.775765	2.602828	0	0
17.93407	-0.2500496	0.3578543	0.001474963	-0.001065745	-0.9849198	0.712234	0	0
17.95058	-0.2499014	0.3577471	0.008977561	-0.006490412	0.2255589	-0.1630878	0	0
17.9671	-0.2492342	0.3572649	0.04040625	-0.02920505	0.951697	-0.6878256	0	0
17.98361	-0.2470086	0.3556575	0.1347862	-0.09734536	2.857933	-2.063368	0	0
18.00309	-0.2464642	0.3552646	0.02794495	-0.0201684	-2.968341	2.144187	0	0
18.08593	-0.2397707	0.35055	0.08080388	-0.05691558	0.5166152	-0.3591475	0	0
18.10249	-0.2397459	0.3505321	0.00149846	-0.001079323	-0.7978141	0.5617139	0	0
18.11921	-0.2397459	0.3505321	0	0	-0.04502405	0.03243029	0	0
18.13563	-0.2397459	0.3505321	0	0	0	0	0	0
18.15223	-0.2397459	0.3505321	0	0	0	0	0	0
18.16876	-0.2396962	0.3505678	0.003004392	0.002161575	0.09067794	0.06524023	0	0
18.18533	-0.2396714	0.3505857	0.00149936	0.001077524	-0.04547169	-0.03275255	0	0
18.20189	-0.239572	0.3506571	0.00599564	0.004311895	0.135698	0.09761352	0	0
18.21846	-0.2395224	0.3506928	0.00299782	0.002155048	-0.09047438	-0.06509378	0	0
18.23503	-0.239423	0.3507285	0.005996539	0.002156847	0.09050152	5.428939E-05	0	0
18.2518	-0.239274	0.3506571	0.008883898	-0.004258941	0.08660228	-0.1924325	0	0
18.26816	-0.2370374	0.3492642	0.1367014	-0.08513603	3.857542	-2.440876	0	0
18.30134	-0.2261434	0.3422105	0.328386	-0.2126241	3.86962	-2.573658	0	0
18.31787	-0.2242181	0.3408712	0.1164924	-0.08103541	-4.263308	2.64757	0	0
18.33443	-0.2207383	0.338639	0.2100408	-0.1347337	2.826714	-1.622579	0	0
18.351	-0.2174036	0.3365497	0.2012829	-0.1261099	-0.2643114	0.2602666	0	0
18.36757	-0.21532	0.3354247	0.1257636	-0.06790561	-2.279178	1.756609	0	0
18.3844	-0.2099141	0.3330497	0.3211268	-0.1410835	5.848938	-2.190858	0	0
18.4007	-0.2076726	0.332889	0.1375283	-0.009859567	-5.541333	3.960575	0	0
18.41729	-0.2034105	0.3318354	0.2568767	-0.06350047	3.628677	-1.630903	0	0
18.43394	-0.199419	0.3302996	0.2398212	-0.09227452	-0.5131703	-0.8657613	0	0
18.45045	-0.1947119	0.3335854	0.2851057	0.1990184	1.365903	8.78618	0	0
18.46697	-0.1935718	0.334389	0.06900921	0.04863917	-6.542141	-4.552605	0	0
18.48353	-0.1877873	0.3382819	0.3491511	0.2349758	8.466395	5.631432	0	0
18.5001	-0.1865425	0.3389069	0.07513797	0.03772414	-8.269732	-5.953068	0	0
18.51667	-0.18517	0.3379426	0.08284524	-0.05820429	0.2326058	-2.895126	0	0
18.53324	-0.1815574	0.3353712	0.2180574	-0.155212	4.080712	-2.9277	0	0
18.5498	-0.178883	0.3334604	0.1614254	-0.1153329	-1.70916	1.203556	0	0
18.56653	-0.1773281	0.3323711	0.09295361	-0.06512079	-2.056537	1.508111	0	0
18.58304	-0.1762826	0.3316032	0.06332213	-0.046505	-0.8914573	0.5600528	0	0
18.59955	-0.1763081	0.3315854	-0.001544268	-0.001081259	-1.964343	1.375563	0	0
18.61607	-0.1763591	0.3315496	-0.003089271	-0.002163572	-0.04678177	-0.03277183	0	0
18.63264	-0.1763846	0.3315318	-0.001538935	-0.001077524	0.04686208	0.03282803	0	0
18.6492	-0.1764356	0.3314961	-0.003079668	-0.002155048	-0.04649943	-0.03251974	0	0
18.66577	-0.1764866	0.3314604	-0.003078769	-0.002156847	2.714469E-05	-5.428939E-05	0	0
18.68234	-0.1765121	0.3314425	-0.001539834	-0.001077524	0.04644514	0.03257403	0	0
18.6989	-0.1765631	0.3314068	-0.003079124	-0.002155297	-0.04645852	-0.03252911	0	0
18.7177	-0.1765886	0.3313889	-0.001356662	-0.0009514869	0.04871432	0.0340459	0	0
18.73465	-0.1765886	0.3313889	0	0	0.0379512	0.02661686	0	0
18.75083	-0.1765886	0.3313889	0	0	0	0	0	0
18.8115	-0.1766141	0.3314068	-0.0004204917	0.0002947372	-0.005471663	0.003835277	0	0
18.87777	-0.1766651	0.3313711	-0.0007696922	-0.0005392118	-0.002750956	-0.006569741	0	0
18.92747	-0.1766651	0.3313711	0	0	0.006637068	0.004649632	0	0
18.94403	-0.1766651	0.3313711	0	0	0	0	0	0
18.9606	-0.1766651	0.3313711	0	0	0	0	0	0
18.97717	-0.1766651	0.3313711	0	0	0	0	0	0
18.99384	-0.1766651	0.3313711	0	0	0	0	0	0
19.0103	-0.1766651	0.3313711	0	0	0	0	0	0
19.02687	-0.1766651	0.3313711	0	0	0	0	0	0
19.04343	-0.1766651	0.3313711	0	0	0	0	0	0
19.06	-0.1766906	0.3313889	-0.001538935	0.001077524	-0.04644782	0.03252162	0	0
19.07689	-0.1767161	0.3314068	-0.001510276	0.001058604	0.0008565555	-0.0005654676	0	0
19.09313	-0.1767161	0.3314068	0	0	0.04558283	-0.03195058	0	0
19.1097	-0.1767416	0.3314247	-0.001538758	0.0010774	-0.04689874	0.03283734	0	0
19.12627	-0.1767671	0.3314425	-0.001539112	0.001077648	-1.069485E-05	7.487101E-06	0	0
19.14294	-0.1767671	0.3314425	0	0	0.04630655	-0.0324227	0	0
19.15945	-0.1767927	0.3314604	-0.001544992	0.001081134	-0.04655828	0.03257992	0	0
19.17597	-0.1767927	0.3314604	0	0	0.04677606	-0.03273231	0	0
19.19254	-0.1767927	0.3314604	0	0	0	0	0	0
19.20949	-0.1768181	0.3314782	-0.001503959	0.001053035	-0.04486785	0.03141537	0	0
19.22567	-0.1768437	0.3314961	-0.001576683	0.001105151	-0.002194936	0.001572968	0	0
19.24224	-0.1769202	0.3315496	-0.004617704	0.003232572	-0.09286334	0.06496484	0	0
19.25902	-0.1769712	0.3315854	-0.003037652	0.002128664	0.04737245	-0.03309691	0	0
19.27537	-0.1769967	0.3316032	-0.001560495	0.001091982	0.0445807	-0.03128715	0	0
19.29194	-0.1769967	0.3316032	0	0	0.04740967	-0.03317569	0	0
19.30856	-0.1770477	0.3316389	-0.003067628	0.002147877	-0.09242689	0.06471503	0	0
19.32507	-0.1770732	0.3316568	-0.001544268	0.001083064	0.04597772	-0.03213798	0	0
19.34164	-0.1770732	0.3316568	0	0	0.04668674	-0.03274348	0	0
19.35821	-0.1770986	0.3316747	-0.001538935	0.001077524	-0.04644514	0.03251974	0	0
19.37477	-0.1770986	0.3316747	0	0	0.04644514	-0.03251974	0	0
19.39134	-0.1771497	0.3317104	-0.003078769	0.002155048	-0.09291743	0.06503949	0	0
19.40791	-0.1771497	0.3317104	0	0	0.09291743	-0.06503949	0	0
19.42465	-0.1771751	0.3317282	-0.001522632	0.00106611	-0.04570843	0.03200392	0	0
19.44104	-0.1771751	0.3317282	0	0	0.04595577	-0.0321771	0	0
19.45761	-0.1771751	0.3317282	0	0	0	0	0	0
19.47624	-0.1772006	0.3317461	-0.001368187	0.0009595701	-0.03886671	0.02725895	0	0
19.49319	-0.1772006	0.3317461	0	0	0.03844592	-0.02696383	0	0
19.50938	-0.1772006	0.3317461	0	0	0	0	0	0
19.52622	-0.1772261	0.331764	-0.001514009	0.001060072	-0.0458486	0.03210206	0	0
19.54251	-0.1772261	0.331764	0	0	0.04569289	-0.03199303	0	0
19.55908	-0.1772516	0.3317818	-0.001538935	0.001077524	-0.04683064	0.03278966	0	0
19.57565	-0.1772771	0.3317997	-0.001539834	0.001077524	-2.714469E-05	0	0	0
19.59227	-0.1772771	0.3317997	0	0	0.0463975	-0.03246741	0	0
19.60878	-0.1772771	0.3317997	0	0	0	0	0	0
19.62535	-0.1773026	0.3318175	-0.001538935	0.001077524	-0.04652013	0.03257224	0	0
19.64191	-0.1773026	0.3318175	0	0	0.04644514	-0.03251974	0	0
19.65882	-0.1773281	0.3318354	-0.001508371	0.001057888	-0.04506616	0.03160689	0	0
19.67505	-0.1773281	0.3318354	0	0	0.04552274	-0.03192711	0	0
19.77445	-0.1773281	0.3318354	0	0	0	0	0	0
19.79102	-0.1773281	0.3318354	0	0	0	0	0	0
19.80792	-0.1773281	0.3318354	0	0	0	0	0	0
19.82443	-0.1773281	0.3318354	0	0	0	0	0	0
19.84072	-0.1773026	0.3318175	0.001565794	-0.001098161	0.04774498	-0.03348567	0	0
19.85728	-0.1773026	0.3318175	0	0	-0.04766459	0.03342929	0	0
19.87397	-0.1773026	0.3318175	0	0	0	0	0	0
19.89042	-0.1773026	0.3318175	0	0	0	0	0	0
19.90698	-0.1773281	0.3318354	-0.001538935	0.001079323	-0.04661419	0.03269259	0	0
19.92355	-0.1773281	0.3318354	0	0	0.04644514	-0.03257403	0	0
19.94014	-0.1773281	0.3318354	0	0	0	0	0	0
19.95668	-0.1773281	0.3318354	0	0	0	0	0	0
19.97325	-0.1773281	0.3318354	0	0	0	0	0	0
19.98982	-0.1773281	0.3318354	0	0	0	0	0	0
20.00657	-0.1773281	0.3318354	0	0	0	0	0	0
20.02308	-0.1773281	0.3318354	0	0	0	0	0	0
20.03952	-0.1773281	0.3318354	0	0	0	0	0	0
20.0561	-0.1773281	0.3318354	0	0	0	0	0	0
20.07265	-0.1773536	0.3318532	-0.001540709	0.001078766	-0.04650403	0.03256098	0	0
20.09348	-0.1773536	0.3318532	0	0	0.04122353	-0.0288637	0	0
20.11014	-0.1773791	0.3318711	-0.001530127	0.001071357	-0.04081542	0.02857795	0	0
20.12661	-0.1773791	0.3318711	0	0	0.04617932	-0.03233362	0	0
20.14318	-0.1773791	0.3318711	0	0	0	0	0	0
20.15975	-0.1773791	0.3318711	0	0	0	0	0	0
20.17632	-0.1773791	0.3318711	0	0	0	0	0	0
20.1932	-0.1773791	0.3318711	0	0	0	0	0	0
20.20971	-0.1773536	0.3318532	0.00154409	-0.001081134	0.0462361	-0.03237338	0	0
20.22601	-0.1773536	0.3318532	0	0	-0.04705579	0.03294731	0	0
20.24273	-0.1773536	0.3318532	0	0	0	0	0	0
20.25915	-0.1773536	0.3318532	0	0	0	0	0	0
20.27575	-0.1773536	0.3318532	0	0	0	0	0	0
20.29277	-0.1773536	0.3318532	0	0	0	0	0	0
20.30885	-0.1773536	0.3318532	0	0	0	0	0	0
20.32579	-0.1773536	0.3318532	0	0	0	0	0	0
20.34198	-0.1773536	0.3318532	0	0	0	0	0	0
20.35855	-0.1773536	0.3318532	0	0	0	0	0	0
20.37511	-0.1773536	0.3318532	0	0	0	0	0	0
20.39168	-0.1773536	0.3318532	0	0	0	0	0	0
20.40835	-0.1773536	0.3318532	0	0	0	0	0	0
20.42486	-0.1773536	0.3318532	0	0	0	0	0	0
20.44187	-0.1773536	0.3318532	0	0	0	0	0	0
20.45795	-0.1773536	0.3318532	0	0	0	0	0	0
20.50765	-0.1773536	0.3318532	0	0	0	0	0	0
20.52443	-0.1773536	0.3318532	0	0	0	0	0	0
20.54095	-0.1773536	0.3318532	0	0	0	0	0	0
20.55746	-0.1773536	0.3318532	0	0	0	0	0	0
20.57397	-0.1773536	0.3318532	0	0	0	0	0	0
20.59048	-0.1773536	0.3318532	0	0	0	0	0	0
20.62361	-0.1773536	0.3318532	0	0	0	0	0	0
20.64051	-0.1773536	0.3318532	0	0	0	0	0	0
20.65675	-0.1773536	0.3318532	0	0	0	0	0	0
20.67354	-0.1773536	0.3318532	0	0	0	0	0	0
20.69005	-0.1773536	0.3318532	0	0	0	0	0	0
20.70645	-0.1773536	0.3318532	0	0	0	0	0	0
20.72308	-0.1773536	0.3318532	0	0	0	0	0	0
20.73959	-0.1773536	0.3318532	0	0	0	0	0	0
20.75615	-0.1773536	0.3318532	0	0	0	0	0	0
20.77272	-0.1773536	0.3318532	0	0	0	0	0	0
20.78929	-0.1773536	0.3318532	0	0	0	0	0	0
20.80585	-0.1773536	0.3318532	0	0	0	0	0	0
20.82586	-0.1773536	0.3318532	0	0	0	0	0	0
20.84266	-0.1773536	0.3318532	0	0	0	0	0	0
20.85918	-0.1773536	0.3318532	0	0	0	0	0	0
20.87556	-0.1773536	0.3318532	0	0	0	0	0	0
20.89213	-0.1773536	0.3318532	0	0	0	0	0	0
20.90871	-0.1773536	0.3318532	0	0	0	0	0	0
20.92526	-0.1773536	0.3318532	0	0	0	0	0	0
20.94183	-0.1773536	0.3318532	0	0	0	0	0	0
20.9584	-0.1773536	0.3318532	0	0	0	0	0	0
20.97496	-0.1773536	0.3318532	0	0	0	0	0	0
20.99153	-0.1773536	0.3318532	0	0	0	0	0	0
21.0081	-0.1773536	0.3318532	0	0	0	0	0	0
21.0248	-0.1773536	0.3318532	0	0	0	0	0	0
21.04125	-0.1773536	0.3318532	0	0	0	0	0	0
21.0578	-0.1773536	0.3318532	0	0	0	0	0	0
21.07437	-0.1773536	0.3318532	0	0	0	0	0	0
21.09093	-0.1773536	0.3318532	0	0	0	0	0	0
21.1075	-0.1773536	0.3318532	0	0	0	0	0	0
21.12437	-0.1773536	0.3318532	0	0	0	0	0	0
21.14063	-0.1773536	0.3318532	0	0	0	0	0	0
21.15739	-0.1773536	0.3318532	0	0	0	0	0	0
21.1739	-0.1773791	0.3318711	-0.00154409	0.001081134	-0.04640839	0.032494	0	0
21.24003	-0.1773791	0.3318711	0	0	0.01868417	-0.0130822	0	0
21.2566	-0.1773791	0.3318711	0	0	0	0	0	0
21.27317	-0.1773791	0.3318711	0	0	0	0	0	0
21.28974	-0.1773791	0.3318711	0	0	0	0	0	0
21.3063	-0.1773791	0.3318711	0	0	0	0	0	0
21.32302	-0.1773791	0.3318711	0	0	0	0	0	0
21.33944	-0.1773791	0.3318711	0	0	0	0	0	0
21.356	-0.1773791	0.3318711	0	0	0	0	0	0
21.37257	-0.1773791	0.3318711	0	0	0	0	0	0
21.38914	-0.1773791	0.3318711	0	0	0	0	0	0
21.40571	-0.1773791	0.3318711	0	0	0	0	0	0
21.43884	-0.1773791	0.3318711	0	0	0	0	0	0
21.47212	-0.1773791	0.3318711	0	0	0	0	0	0
21.49284	-0.1773791	0.3318711	0	0	0	0	0	0
21.5094	-0.1773791	0.3318711	0	0	0	0	0	0
21.52597	-0.1773791	0.3318711	0	0	0	0	0	0
21.54267	-0.1773791	0.3318711	0	0	0	0	0	0
21.55919	-0.1773791	0.3318711	0	0	0	0	0	0
21.5757	-0.1773791	0.3318711	0	0	0	0	0	0
21.59224	-0.1773791	0.3318711	0	0	0	0	0	0
21.6088	-0.1773791	0.3318711	0	0	0	0	0	0
21.62537	-0.1773791	0.3318711	0	0	0	0	0	0
21.64194	-0.1773791	0.3318711	0	0	0	0	0	0
21.6585	-0.1773791	0.3318711	0	0	0	0	0	0
21.67507	-0.1773791	0.3318711	0	0	0	0	0	0
21.69164	-0.1773791	0.3318711	0	0	0	0	0	0
21.70829	-0.1773791	0.3318711	0	0	0	0	0	0
21.72477	-0.1773791	0.3318711	0	0	0	0	0	0
21.74134	-0.1773791	0.3318711	0	0	0	0	0	0
21.75791	-0.1774046	0.3318889	-0.001538935	0.001077524	-0.04644514	0.03251974	0	0
21.77448	-0.1774301	0.3319068	-0.001538935	0.001077524	0	0	0	0
21.79104	-0.1775321	0.3319782	-0.006155739	0.004311895	-0.1393354	0.09761352	0	0
21.80761	-0.1780674	0.332389	-0.03231313	0.02479205	-0.7894318	0.6180924	0	0
21.82418	-0.1789849	0.3330676	-0.05538006	0.04096031	-0.6961613	0.487959	0	0
21.84074	-0.1813283	0.3347104	-0.1414435	0.09916461	-2.597399	1.756609	0	0
21.85731	-0.1916197	0.342014	-0.6211936	0.4408459	-14.47889	10.31196	0	0
21.87391	-0.1979522	0.3465141	-0.3813936	0.2710296	7.229272	-5.119467	0	0
21.89044	-0.2147172	0.3584616	-1.014274	0.7228158	-19.10148	13.63572	0	0
21.90701	-0.218106	0.3608727	-0.2045497	0.1455395	24.46571	-17.44231	0	0
21.92395	-0.2314104	0.3705189	-0.7854206	0.5694583	-17.33612	12.65188	0	0
21.94015	-0.244508	0.3802215	-0.8087295	0.5991031	-0.7034632	0.8946815	0	0
21.95671	-0.2541215	0.3874608	-0.5802737	0.4369639	6.97308	-4.948921	0	0
21.97328	-0.2641533	0.3975466	-0.6055164	0.608776	-0.7618258	5.185297	0	0
21.99	-0.2665304	0.4073699	-0.1421722	0.5875257	13.91966	-0.6383957	0	0
22.00651	-0.2668242	0.4202992	-0.01779629	0.7830278	3.742684	5.882996	0	0
22.02303	-0.2669956	0.4291356	-0.01037877	0.5350904	0.2245983	-7.5074	0	0
22.03955	-0.2676566	0.4389844	-0.03999668	0.5959862	-0.8964505	1.843146	0	0
22.05612	-0.2685375	0.4450889	-0.05317717	0.3685107	-0.3983155	-6.874326	0	0
22.07306	-0.2706156	0.449634	-0.1226432	0.2682315	-2.072982	-2.992497	0	0
22.08925	-0.2719347	0.4564653	-0.08148307	0.4220057	1.242288	4.641182	0	0
22.10608	-0.2721788	0.4584799	-0.01450602	0.1196831	2.028377	-9.155737	0	0
22.12259	-0.2729111	0.4676959	-0.04434814	0.558143	-0.8949701	13.14948	0	0
22.1391	-0.274838	0.4723262	-0.1166957	0.2804252	-2.190767	-8.409617	0	0
22.15888	-0.2781745	0.4800986	-0.1687385	0.3930681	-1.434265	3.104361	0	0
22.17563	-0.2788314	0.485532	-0.03920927	0.3243393	3.546247	-1.881656	0	0
22.19214	-0.279415	0.4887834	-0.03534531	0.1969161	0.1161598	-3.830643	0	0
22.20865	-0.2791232	0.4930853	0.01767175	0.260528	1.605418	1.92624	0	0
22.22515	-0.2820389	0.4968836	-0.1768086	0.2303269	-5.892836	-0.915105	0	0
22.24171	-0.2822574	0.4970826	-0.01318753	0.01201287	4.949492	-6.603936	0	0
22.25828	-0.2821603	0.4971912	0.005860724	0.00655329	0.5748774	-0.1647703	0	0
22.27485	-0.2818447	0.4990913	0.01905005	0.1146943	0.3980547	3.263701	0	0
22.29141	-0.2812619	0.5077499	0.03517874	0.5226298	0.4867646	12.31152	0	0
22.30798	-0.281189	0.5151696	0.004398242	0.4478543	-0.9289572	-2.256729	0	0
22.32474	-0.2804602	0.5221819	0.04349744	0.4184974	1.173329	-0.8809715	0	0
22.34125	-0.2793664	0.5304971	0.06623571	0.50353	0.683449	2.555841	0	0
22.35768	-0.2785638	0.5357632	0.04884853	0.3205175	-0.5277841	-5.555306	0	0
22.37425	-0.2756666	0.5418022	0.1748755	0.3645126	3.819332	1.333301	0	0
22.39082	-0.2736918	0.5433908	0.1191968	0.09589066	-1.680386	-8.107026	0	0
22.40738	-0.2702491	0.546113	0.2077817	0.16429	2.673344	2.064178	0	0
22.42395	-0.2710066	0.5498611	-0.04572192	0.2262369	-7.650316	1.869453	0	0
22.44052	-0.273765	0.5556636	-0.1665209	0.3502842	-3.645931	3.743972	0	0
22.45708	-0.2773714	0.563805	-0.2176815	0.4914158	-1.544117	4.259604	0	0
22.47365	-0.2818447	0.5675514	-0.2700089	0.226129	-1.579244	-8.006372	0	0
22.49022	-0.285386	0.5707497	-0.2137509	0.1930513	1.697868	-0.9982852	0	0
22.50687	-0.2838345	0.5746871	0.09316301	0.2364348	9.23875	1.305934	0	0
22.52338	-0.2799012	0.5785918	0.2382104	0.2364813	4.373511	0.00140138	0	0
22.53992	-0.2743747	0.5831466	0.3342333	0.2754679	2.905672	1.179742	0	0
22.55649	-0.271373	0.5870053	0.181186	0.2329107	-4.623504	-1.285636	0	0
22.57305	-0.2734723	0.5925517	-0.1267143	0.3347808	-9.292449	3.074445	0	0
22.58962	-0.2766166	0.6027257	-0.1897936	0.6141024	-1.903735	8.429943	0	0
22.60619	-0.2779555	0.6072764	-0.08081611	0.2746805	3.288946	-10.24377	0	0
22.62276	-0.2771036	0.6150373	0.05142075	0.4684478	3.990916	5.847907	0	0
22.63947	-0.2760077	0.6199422	0.06557792	0.2934939	0.4254033	-5.257119	0	0
22.65598	-0.2752523	0.6239581	0.04574513	0.24321	-0.5969397	-1.513478	0	0
22.67245	-0.2729599	0.6257904	0.1391417	0.1112128	2.831264	-4.001419	0	0
22.68902	-0.2691	0.6287844	0.2329809	0.1807218	2.839918	2.103599	0	0
22.70601	-0.2668487	0.6306947	0.1324889	0.1124214	-2.994415	-2.035186	0	0
22.72253	-0.2646191	0.6327376	0.135028	0.1237221	0.07578339	0.3372893	0	0
22.73872	-0.2643494	0.6361333	0.01665562	0.2096916	-3.619363	2.628608	0	0
22.75529	-0.2683907	0.6440854	-0.2439306	0.479993	-7.954252	8.250802	0	0
22.77206	-0.2701024	0.6467226	-0.1020529	0.1572237	4.255422	-9.68101	0	0
22.7919	-0.2719835	0.6497208	-0.09482872	0.1511478	0.1973295	-0.1659625	0	0
22.80846	-0.273643	0.6510419	-0.1001702	0.07974039	-0.1467283	-1.961546	0	0
22.82503	-0.2769332	0.6539695	-0.1985936	0.1767104	-2.970426	2.92656	0	0
22.8416	-0.287178	0.6633607	-0.6183801	0.5668569	-12.66918	11.77464	0	0
22.89822	-0.2880008	0.6640817	-0.01453171	0.01273413	8.25099	-7.571538	0	0
22.91478	-0.2876621	0.6664357	0.02044598	0.1420893	0.4779354	1.76751	0	0
22.93167	-0.2827428	0.6703706	0.2912256	0.2329529	8.092948	2.715695	0	0
22.94792	-0.2759346	0.6762375	0.4191485	0.3611914	3.860721	3.870245	0	0
22.96449	-0.2733747	0.6796156	0.1545159	0.2039057	-8.065557	-4.793804	0	0
22.98105	-0.2747405	0.6871916	-0.0824369	0.4572876	-7.151249	7.647079	0	0
22.99772	-0.2759103	0.6922565	-0.07017305	0.3038294	0.3689765	-4.617026	0	0
23.01418	-0.2780042	0.6947164	-0.1271959	0.149425	-1.721053	-4.6602	0	0
23.03075	-0.2780042	0.6947933	0	0.004644687	3.850973	-4.383358	0	0
23.04732	-0.2780042	0.6947933	0	0	0	-0.140185	0	0
23.06388	-0.2779799	0.6947741	0.001467879	-0.001162071	0.04430324	-0.0350734	0	0
23.08078	-0.2779312	0.6947356	0.002880518	-0.002275486	0.04221553	-0.03327347	0	0
23.09729	-0.2779069	0.6947164	0.001474601	-0.001165964	-0.04208421	0.03321204	0	0
23.19642	-0.2774444	0.6943511	0.004665251	-0.003685419	0.02759199	-0.02178766	0	0
23.21298	-0.2773714	0.6942934	0.004407236	-0.003479018	-0.00223019	0.001784059	0	0
23.22955	-0.2773227	0.6942549	0.002939695	-0.00232441	-0.04429303	0.03484814	0	0
23.2464	-0.2772497	0.6941973	0.004334381	-0.003421507	0.04174329	-0.03283638	0	0
23.26291	-0.2771766	0.6941396	0.004423805	-0.003494282	0.002680759	-0.002181659	0	0
23.27925	-0.2771766	0.6941396	0	0	-0.1346501	0.1063576	0	0
23.29599	-0.2771523	0.6941204	0.001454275	-0.001146332	0.04395589	-0.03464822	0	0
23.31244	-0.2771523	0.6941204	0	0	-0.04381444	0.03453672	0	0
23.32895	-0.277128	0.6941012	0.001472967	-0.001166099	0.0446909	-0.0353803	0	0
23.34552	-0.277128	0.6941012	0	0	-0.04453369	0.03525584	0	0
23.36248	-0.2771036	0.694082	0.001435469	-0.001131508	0.04281483	-0.03374878	0	0
23.37865	-0.2770793	0.6940627	0.001505558	-0.001190441	0.002115287	-0.001778606	0	0
23.3955	-0.2770306	0.6940243	0.002889785	-0.002281409	0.04191601	-0.03303578	0	0
23.41201	-0.2770062	0.6940051	0.001474772	-0.001162488	-0.04241464	0.03353935	0	0
23.42835	-0.2769819	0.6939858	0.001490267	-0.00117835	0.0004717094	-0.0004828837	0	0
23.44554	-0.2769332	0.6939474	0.002833343	-0.002236849	0.04006136	-0.03157298	0	0
23.46148	-0.2768845	0.6939089	0.003053977	-0.002411035	0.006659153	-0.005257224	0	0
23.47805	-0.2768601	0.6938897	0.001469678	-0.001158473	-0.04872868	0.03852533	0	0
23.49507	-0.2768358	0.6938705	0.001430322	-0.001130952	-0.001171649	0.0008193149	0	0
23.5311	-0.2767628	0.6938128	0.002027792	-0.001600061	0.01126339	-0.008843549	0	0
23.54761	-0.2765923	0.6936783	0.01032163	-0.008145426	0.1578639	-0.1245837	0	0
23.56402	-0.2763974	0.6935245	0.01187587	-0.00937282	0.04720872	-0.03728103	0	0
23.58059	-0.2763244	0.6934285	0.004410834	-0.005799563	-0.22639	0.1083651	0	0
23.61372	-0.2762269	0.6933516	0.002940256	-0.002320545	-0.02958808	0.06999798	0	0
23.63029	-0.2762269	0.6933516	0	0	-0.05915807	0.04668945	0	0
23.64685	-0.2761539	0.6932939	0.004410834	-0.003479018	0.1331192	-0.104997	0	0
23.66342	-0.2760808	0.6932363	0.004410834	-0.003479018	0	0	0	0
23.68021	-0.2757153	0.692948	0.02177379	-0.0171733	0.5205988	-0.4105996	0	0
23.69656	-0.2751061	0.6924678	0.03726158	-0.02937252	0.4674223	-0.3681733	0	0
23.71323	-0.2741309	0.6916996	0.0584874	-0.04607427	0.6427426	-0.5057483	0	0
23.72969	-0.2740821	0.6916612	0.002964205	-0.002332252	-1.67579	1.320213	0	0
23.74626	-0.2740821	0.6916612	0	0	-0.08975439	0.07061921	0	0
23.76282	-0.2740821	0.6916612	0	0	0	0	0	0
23.77939	-0.2740577	0.691642	0.001471477	-0.001158473	0.04440927	-0.0349628	0	0
23.79596	-0.2740333	0.6916227	0.001473276	-0.001162071	5.428939E-05	-0.0001085788	0	0
23.81252	-0.2740089	0.6916035	0.001471477	-0.001158473	-5.428939E-05	0.0001085788	0	0
23.82931	-0.2739846	0.6915843	0.001452085	-0.001143206	-0.0005813801	0.0004577113	0	0
23.84566	-0.2739601	0.6915652	0.001493392	-0.001174291	0.001246725	-0.0009381972	0	0
23.86222	-0.2739114	0.6915268	0.002944753	-0.002316947	0.04409917	-0.03471925	0	0
23.87885	-0.2738626	0.6914883	0.002932488	-0.002312292	-0.0003694936	0.0001402304	0	0
23.89536	-0.2738626	0.6914499	0	-0.002324977	-0.08849758	-0.0003828074	0	0
23.94506	-0.2737162	0.6913348	0.002945092	-0.002317214	0.04448378	0.0001172594	0	0
23.96162	-0.2735455	0.6912004	0.01030872	-0.008113845	0.1111302	-0.08748142	0	0
23.97819	-0.2733747	0.6910276	0.01030754	-0.01042986	-3.581085E-05	-0.06990144	0	0
23.99493	-0.2732283	0.690874	0.008744446	-0.009171699	-0.04692832	0.03777345	0	0
24.01144	-0.2731063	0.6907781	0.007390105	-0.005812442	-0.04073105	0.1010278	0	0
24.02796	-0.2727647	0.6904709	0.02067702	-0.01858839	0.402227	-0.386759	0	0
24.04446	-0.2693935	0.6877474	0.204308	-0.1650568	5.56056	-4.435233	0	0
24.06104	-0.2663344	0.6851995	0.1845159	-0.1536866	-0.5983254	0.343727	0	0
24.09416	-0.2567822	0.6725785	0.2884707	-0.3811435	2.091976	-4.57732	0	0
24.11073	-0.2528639	0.665904	0.236483	-0.4028289	-1.046396	-0.4364803	0	0
24.12729	-0.2511116	0.6538372	0.1057908	-0.7285201	-3.944526	-9.829945	0	0
24.14386	-0.2504942	0.6477782	0.03726543	-0.365725	-2.068339	10.95044	0	0
24.16055	-0.2481464	0.6437277	0.1406768	-0.2426964	3.109505	3.699381	0	0
24.17699	-0.2476518	0.640003	0.03008098	-0.2265181	-3.33798	0.4882914	0	0
24.19356	-0.2482453	0.6333565	-0.03582633	-0.401188	-1.996557	-5.291346	0	0
24.21374	-0.2488634	0.6187852	-0.03061741	-0.7218	0.1417215	-8.723043	0	0
24.23059	-0.2479733	0.6130067	0.05282679	-0.342947	2.253002	10.22907	0	0
24.2471	-0.2470333	0.6072764	0.05692738	-0.3470421	0.122914	-0.1227506	0	0
24.26344	-0.2468106	0.600017	0.01362787	-0.4442665	-1.31801	-2.959451	0	0
24.28001	-0.2471076	0.5936066	-0.01792126	-0.3869301	-0.9587221	1.742352	0	0
24.29658	-0.2463404	0.5868576	0.04630386	-0.4073725	1.938318	-0.6169528	0	0
24.31315	-0.2457711	0.5804536	0.03436565	-0.3865416	-0.3602959	0.6286787	0	0
24.32971	-0.2455235	0.5736747	0.01494503	-0.409175	-0.5861155	-0.6830775	0	0
24.34628	-0.2448053	0.564576	0.04335101	-0.5491992	0.8572943	-4.225938	0	0
24.36285	-0.2441859	0.5572942	0.03738325	-0.4395291	-0.1801072	3.309849	0	0
24.37942	-0.2427235	0.5473559	0.08827154	-0.5998806	1.535811	-4.839417	0	0
24.39621	-0.2405403	0.538809	0.1299668	-0.5088034	1.24966	2.729703	0	0
24.41255	-0.2382306	0.5329563	0.141405	-0.3583022	0.345226	4.542396	0	0
24.42912	-0.2342507	0.5206187	0.2402258	-0.7446969	3.003513	-11.74389	0	0
24.44568	-0.2318342	0.512429	0.1458597	-0.4943336	-2.847975	7.555981	0	0
24.46227	-0.2260934	0.5072423	0.3460775	-0.3126761	6.038761	5.478965	0	0
24.47882	-0.2231922	0.50514	0.1753359	-0.1270533	-5.152991	5.602106	0	0
24.49538	-0.2216901	0.5040167	0.09066673	-0.06780308	-2.55694	1.789309	0	0
24.52852	-0.2216901	0.5039442	0	-0.002187428	-1.824218	1.320189	0	0
24.56184	-0.2263683	0.4948032	-0.1404112	-0.2743588	-2.112971	-4.095758	0	0
24.57835	-0.2247183	0.4830223	0.09992636	-0.7134815	4.8232	-8.812507	0	0
24.59479	-0.2210389	0.4726146	0.2238169	-0.6330926	3.759802	2.439624	0	0
24.61137	-0.2177548	0.4667954	0.1980443	-0.3509263	-0.7804711	8.544816	0	0
24.62792	-0.2145413	0.4616826	0.1941672	-0.3089291	-0.1170161	1.267549	0	0
24.64449	-0.2119019	0.4596852	0.1593162	-0.1205604	-1.052352	5.687927	0	0
24.66105	-0.2107195	0.4588397	0.07137114	-0.05103939	-2.654187	2.098148	0	0
24.67762	-0.2052525	0.4547929	0.3300284	-0.2442879	7.806742	-5.832588	0	0
24.69443	-0.1994949	0.4505865	0.3424816	-0.2502145	0.3731106	-0.1775668	0	0
24.71075	-0.1927354	0.4457534	0.4141547	-0.2961227	2.163223	-1.385592	0	0
24.72745	-0.1859072	0.4408871	0.4088571	-0.2913823	-0.1604259	0.1435518	0	0
24.74397	-0.1775576	0.4349647	0.5056692	-0.3586729	2.914914	-2.026051	0	0
24.76045	-0.1723774	0.4313234	0.3142346	-0.2208868	-5.801552	4.175698	0	0
24.77702	-0.1669831	0.4275398	0.3255985	-0.2283758	0.3438131	-0.2265769	0	0
24.794	-0.1636035	0.4251736	0.1990459	-0.139363	-3.772459	2.653419	0	0
24.81015	-0.162066	0.4240623	0.095178	-0.06879317	-3.134919	2.129924	0	0
24.82672	-0.158527	0.4215534	0.2136178	-0.151438	3.619736	-2.525777	0	0
24.84328	-0.1560626	0.4198333	0.148764	-0.1038356	-1.957404	1.436725	0	0
24.85985	-0.1559599	0.4197258	0.006200711	-0.00648853	-4.302817	2.938111	0	0
24.89607	-0.1560113	0.4196542	-0.001418173	-0.001978942	-0.1443357	0.08543173	0	0
24.91263	-0.1560626	0.4195467	-0.003100713	-0.006489277	-0.03187596	-0.08544897	0	0
24.9292	-0.1559086	0.4194033	0.009301066	-0.008650774	0.374308	-0.06523786	0	0
24.9461	-0.1558058	0.4193317	0.006077564	-0.004238603	-0.09630975	0.131824	0	0
24.96233	-0.1519769	0.4166626	0.2359212	-0.1644582	6.937093	-4.835716	0	0
24.97913	-0.1487355	0.4144059	0.1930284	-0.1343867	-1.298918	0.9106524	0	0
24.99564	-0.1461608	0.4126152	0.1559341	-0.1084491	-1.1138	0.7788093	0	0
25.01215	-0.1430169	0.4104309	0.1904005	-0.1322882	1.04368	-0.7218752	0	0
25.02867	-0.1425786	0.4101266	0.0265385	-0.01842736	-4.961357	3.447439	0	0
25.04517	-0.1425786	0.4101266	0	0	-0.8036166	0.5580018	0	0
25.06173	-0.1425786	0.4100908	0	-0.00216144	0	-0.06536409	0	0
25.0783	-0.1426044	0.4100729	-0.001555845	-0.001080998	-0.0469636	0.03261346	0	0
25.09487	-0.1426301	0.410055	-0.001556203	-0.001081246	-1.081431E-05	-7.511695E-06	0	0
25.11143	-0.1426559	0.4100371	-0.001556923	-0.001079323	-2.173879E-05	5.805209E-05	0	0
25.128	-0.1426817	0.4100192	-0.001556203	-0.001081246	2.173879E-05	-5.805209E-05	0	0
25.14457	-0.1426817	0.4100192	0	0	0.04696901	0.03263396	0	0
25.16113	-0.1426817	0.4099834	0	-0.002160445	0	-0.06520236	0	0
25.17777	-0.1427075	0.4099655	-0.001549779	-0.001076783	-0.04667839	0.03263922	0	0
25.19428	-0.1427333	0.4099118	-0.001562139	-0.003252426	-0.0003728876	-0.06563836	0	0
25.21083	-0.1427591	0.4098938	-0.001557279	-0.001081994	0.0001469794	0.06563979	0	0
25.2274	-0.1428106	0.4098222	-0.003112406	-0.004323186	-0.04695546	-0.09786446	0	0
25.24397	-0.1428622	0.4097506	-0.003112948	-0.00432089	-1.633132E-05	6.931677E-05	0	0
25.26053	-0.1429395	0.4096611	-0.004668972	-0.005403811	-0.0469609	-0.03268262	0	0
25.2771	-0.1435067	0.4092315	-0.03423647	-0.02593552	-0.8924003	-0.6196839	0	0
25.29367	-0.1477573	0.4063139	-0.2565704	-0.1761077	-6.710436	-4.532468	0	0
25.31036	-0.1500736	0.4047032	-0.1387734	-0.09649969	3.541866	2.39362	0	0
25.3268	-0.1649609	0.3942913	-0.9054778	-0.6332711	-23.14052	-16.20073	0	0
25.34337	-0.1728116	0.3888375	-0.473866	-0.3291971	13.07575	9.211968	0	0
25.35993	-0.1779145	0.385262	-0.30805	-0.2158409	5.004625	3.421295	0	0
25.39307	-0.1958516	0.3726807	-0.5413417	-0.3797041	-4.694018	-3.29706	0	0
25.40963	-0.2034862	0.3673211	-0.4608296	-0.3235055	1.619907	1.130717	0	0
25.42644	-0.2070174	0.3648917	-0.2100696	-0.1445273	7.513024	5.362371	0	0
25.44277	-0.2146418	0.3595867	-0.4670959	-0.3249956	-7.757513	-5.446859	0	0
25.45947	-0.2170523	0.358015	-0.144314	-0.09409972	9.773644	6.991391	0	0
25.4759	-0.2195604	0.3563362	-0.1526576	-0.102181	-0.2518233	-0.2439087	0	0
25.49247	-0.2195353	0.3564612	0.001513751	0.007546267	4.672264	3.325359	0	0
25.50903	-0.2195353	0.3564612	0	0	-0.04568508	-0.2277468	0	0
25.5256	-0.2195353	0.3564612	0	0	0	0	0	0
25.54218	-0.2195353	0.3564612	0	0	0	0	0	0
25.56235	-0.2195855	0.356497	-0.002487139	0.00177241	-0.06768633	0.04823532	0	0
25.57905	-0.2198111	0.3566934	-0.01350462	0.01176068	-0.2988582	0.27094	0	0
25.59556	-0.2198863	0.3568184	-0.004553757	0.007571546	0.2694705	-0.126116	0	0
25.61208	-0.2201369	0.3570684	-0.01517653	0.01513954	-0.3216514	0.2291543	0	0
25.62861	-0.2202622	0.3571578	-0.007577314	0.005401168	0.2299273	-0.2946509	0	0
25.64518	-0.2202872	0.3572114	-0.001512851	0.003234371	0.1831946	-0.06545434	0	0
25.66175	-0.2203374	0.3572828	-0.003024803	0.004311895	-0.04563079	0.03251974	0	0
25.67831	-0.2203875	0.3573542	-0.003025702	0.004311895	-2.714469E-05	0	0	0
25.69488	-0.2204877	0.3574614	-0.006049606	0.006468743	-0.09126158	0.06509378	0	0
25.71165	-0.2205128	0.3574792	-0.001494233	0.001064896	0.1366711	-0.1621271	0	0
25.72816	-0.2205378	0.3574971	-0.001517744	0.001081009	-0.0007065099	0.0004841847	0	0
25.74458	-0.2205378	0.3574971	0	0	0.04608147	-0.03282141	0	0
25.76118	-0.2205378	0.3574971	0	0	0	0	0	0
25.77771	-0.2205378	0.3574971	0	0	0	0	0	0
25.79428	-0.2205378	0.3574971	0	0	0	0	0	0
25.81085	-0.2205378	0.3574971	0	0	0	0	0	0
25.89378	-0.2205629	0.3575864	-0.0003022293	0.001077029	-0.003037576	0.01082475	0	0
25.91025	-0.220613	0.3576936	-0.003041059	0.006503633	-0.02755268	0.05459175	0	0
25.92682	-0.2208635	0.3579079	-0.01512311	0.01293749	-0.3656686	0.1947233	0	0
25.94382	-0.2215148	0.3583722	-0.03831904	0.02732052	-0.6911032	0.4285305	0	0
25.95995	-0.2243682	0.3605155	-0.1768285	0.1328236	-4.180463	3.184272	0	0
25.97652	-0.2247183	0.3608013	-0.02113341	0.0172474	4.760544	-3.533867	0	0
25.99309	-0.2266432	0.3621766	-0.1161837	0.08301613	-2.868459	1.98479	0	0
26.01038	-0.2293401	0.3642843	-0.1559802	0.1219026	-1.175418	1.148538	0	0
26.02622	-0.2296395	0.3645344	-0.01889745	0.0157811	4.136929	-3.202568	0	0
26.04289	-0.22939	0.3645701	0.01497575	0.002144503	1.041968	-0.4194734	0	0
26.05935	-0.2293151	0.3645523	0.004547413	-0.001084139	-0.3147821	-0.09745744	0	0
26.07592	-0.2290156	0.3643379	0.01807686	-0.01293928	0.4095691	-0.3588839	0	0
26.09249	-0.2288908	0.3642486	0.007534542	-0.005391839	-0.3181861	0.2277955	0	0
26.10905	-0.2266432	0.362641	0.1356535	-0.09702177	3.866637	-2.765397	0	0
26.12562	-0.2231422	0.3601404	0.2113441	-0.1509535	2.284347	-1.627663	0	0
26.14246	-0.2192596	0.3573364	0.2305586	-0.1665127	0.5751921	-0.4657698	0	0
26.15875	-0.2165754	0.3554611	0.1647484	-0.1151004	-1.986268	1.551716	0	0
26.17548	-0.2148177	0.3541752	0.1050675	-0.07686196	-1.807313	1.157971	0	0
26.19188	-0.2139886	0.3535859	0.05054597	-0.03592842	-1.645557	1.235448	0	0
26.2085	-0.2139886	0.3535859	0	0	-1.530767	1.08808	0	0
26.22502	-0.2139886	0.3535859	0	0	0	0	0	0
26.24158	-0.2139634	0.353568	0.001516798	-0.001077772	0.04585096	-0.03257975	0	0
26.25815	-0.2139634	0.353568	0	0	-0.04578233	0.03253098	0	0
26.27472	-0.2139383	0.3535502	0.001517348	-0.001079323	0.04579366	-0.03257403	0	0
26.31107	-0.2138881	0.3535145	0.001382148	-0.0009820961	-0.002554735	0.001837199	0	0
26.32747	-0.2138378	0.3534787	0.003064848	-0.002178923	0.03189743	-0.02268717	0	0
26.34404	-0.2138127	0.3534609	0.001517348	-0.001077524	-0.04694142	0.03340951	0	0
26.36061	-0.2138378	0.3534787	-0.001517348	0.001077524	-0.09158733	0.06503949	0	0
26.38756	-0.2138378	0.3534787	0	0	0.03486251	-0.02475713	0	0
26.40413	-0.2138378	0.3534787	0	0	0	0	0	0
26.4207	-0.2138127	0.3534966	0.001517348	0.001079323	0.04579366	0.03257403	0	0
26.43726	-0.2138127	0.3534966	0	0	-0.04579366	-0.03257403	0	0
26.45417	-0.2138127	0.3534966	0	0	0	0	0	0
26.4704	-0.2138127	0.3534966	0	0	0	0	0	0
26.48696	-0.2138127	0.3534966	0	0	0	0	0	0
26.50353	-0.2137875	0.3534787	0.001516449	-0.001079323	0.04576652	-0.03257403	0	0
26.52022	-0.2137875	0.3534787	0	0	-0.04559591	0.03245261	0	0
26.53673	-0.2137121	0.3534252	0.004566919	-0.003243776	0.1375528	-0.09770051	0	0
26.55324	-0.2134357	0.3532287	0.01674404	-0.01189789	0.3687585	-0.2620716	0	0
26.5698	-0.2124803	0.3525501	0.05771024	-0.04099515	1.23893	-0.8799807	0	0
26.58636	-0.2114995	0.3518536	0.05921308	-0.04204447	0.04537675	-0.03168328	0	0
26.60293	-0.2114995	0.3518536	0	0	-1.787157	1.268978	0	0
26.6195	-0.2114995	0.3518536	0	0	0	0	0	0
26.63606	-0.2114491	0.3518179	0.003036496	-0.002155048	0.09164162	-0.06503949	0	0
26.65263	-0.211424	0.3518	0.001518248	-0.001079323	-0.04582081	0.03246545	0	0
26.6692	-0.2113737	0.3517643	0.003037395	-0.002155048	0.04584795	-0.03246545	0	0
26.68577	-0.2113485	0.3517465	0.001518248	-0.001077524	-0.04584795	0.03251974	0	0
26.70235	-0.2112982	0.3517107	0.003033902	-0.002154367	0.04571622	-0.03248049	0	0
26.7189	-0.211273	0.3516929	0.001520173	-0.001078891	-0.04568706	0.03245981	0	0
26.73547	-0.2112479	0.351675	0.001518248	-0.001077524	-5.813826E-05	4.126316E-05	0	0
26.75203	-0.2112227	0.3516572	0.001519147	-0.001077524	2.714469E-05	0	0	0
26.7686	-0.2111976	0.3516393	0.001518248	-0.001079323	-2.714469E-05	-5.428939E-05	0	0
26.78517	-0.2111724	0.3516214	0.001519147	-0.001077524	2.714469E-05	5.428939E-05	0	0
26.85144	-0.2054542	0.347532	0.08628738	-0.06171029	1.023324	-0.7319602	0	0
26.868	-0.1951932	0.3402819	0.6193587	-0.4376151	6.43525	-4.537932	0	0
26.88457	-0.1870507	0.3345497	0.4914815	-0.345995	-3.859344	2.765101	0	0
26.90114	-0.1833643	0.3319604	0.2225105	-0.1562932	-8.117558	5.725212	0	0
26.91771	-0.1788066	0.3287995	0.275106	-0.1907901	1.587332	-1.04112	0	0
26.93427	-0.175109	0.3261743	0.2231833	-0.1584572	-1.567028	0.9758092	0	0
26.99247	-0.1704611	0.322924	0.07987007	-0.05585464	-1.916966	1.372418	0	0
27.00903	-0.1701544	0.3227096	0.01851399	-0.01293749	-0.8207026	0.5740623	0	0
27.0256	-0.1700777	0.322656	0.004627964	-0.003233999	-0.419057	0.2928349	0	0
27.04217	-0.1700266	0.3226203	0.00308632	-0.002155297	-0.04652691	0.0325553	0	0
27.05911	-0.1700266	0.3226203	0	0	-0.09210089	0.06431761	0	0
27.0753	-0.1700266	0.3226203	0	0	0	0	0	0
27.09213	-0.1700266	0.3226203	0	0	0	0	0	0
27.10843	-0.1700522	0.3226025	-0.001568716	-0.001095176	-0.04734668	-0.03305438	0	0
27.125	-0.1700522	0.3226025	0	0	0.04772859	0.03332101	0	0
27.14167	-0.1700777	0.3226203	-0.001533177	0.001070989	-0.04613065	0.03222421	0	0
27.15818	-0.1700777	0.3226203	0	0	0.04621021	-0.03227978	0	0
27.1747	-0.1700777	0.3226203	0	0	0	0	0	0
27.19171	-0.1700777	0.3226203	0	0	0	0	0	0
27.20783	-0.1700777	0.3226203	0	0	0	0	0	0
27.2244	-0.1700777	0.3226203	0	0	0	0	0	0
27.24124	-0.1700777	0.3226203	0	0	0	0	0	0
27.25754	-0.1700777	0.3226203	0	0	0	0	0	0
27.2741	-0.1700777	0.3226203	0	0	0	0	0	0
27.29078	-0.1700777	0.3226203	0	0	0	0	0	0
27.30729	-0.1701033	0.3226382	-0.001548602	0.001081134	-0.04666707	0.03257992	0	0
27.3238	-0.1701033	0.3226382	0	0	0.04688806	-0.0327342	0	0
27.34037	-0.1701033	0.3226382	0	0	0	0	0	0
27.35694	-0.1701033	0.3226382	0	0	0	0	0	0
27.3735	-0.1701033	0.3226382	0	0	0	0	0	0
27.39007	-0.1701033	0.3226382	0	0	0	0	0	0
27.40686	-0.1701033	0.3226382	0	0	0	0	0	0
27.4232	-0.1701033	0.3226382	0	0	0	0	0	0
27.43977	-0.1701289	0.322656	-0.001542532	0.001077524	-0.04686939	0.03274025	0	0
27.45634	-0.1701289	0.322656	0	0	0.04655372	-0.03251974	0	0
27.47291	-0.1701289	0.322656	0	0	0	0	0	0
27.48947	-0.1701289	0.322656	0	0	0	0	0	0
27.50604	-0.1701544	0.3226739	-0.001542532	0.001079323	-0.04655372	0.03257403	0	0
27.52261	-0.17018	0.3226918	-0.001543432	0.001077524	-2.714821E-05	-5.428939E-05	0	0
27.53918	-0.1702055	0.3227096	-0.001542532	0.001077524	2.714821E-05	0	0	0
27.55574	-0.1702311	0.3227275	-0.001542532	0.001079323	0	5.428939E-05	0	0
27.57231	-0.1702822	0.3227632	-0.00308632	0.002155297	-0.04659428	0.03247482	0	0
27.58887	-0.1703589	0.3228168	-0.004628497	0.003234371	-0.04654568	0.03256842	0	0
27.62201	-0.1704611	0.3228882	-0.003085692	0.002156072	0.03104248	-0.02169626	0	0
27.64232	-0.1706911	0.3230847	-0.01132336	0.009671361	-0.1541311	0.1406151	0	0
27.65889	-0.1709978	0.323299	-0.01851039	0.01293569	-0.1948736	0.0885109	0	0
27.67556	-0.1725562	0.3244241	-0.09347114	0.06748727	-2.25518	1.641174	0	0
27.69202	-0.174471	0.3257636	-0.1163167	0.08136369	-0.6894813	0.4187911	0	0
27.74172	-0.1835678	0.3323533	-0.183035	0.1325897	-1.008407	0.7742504	0	0
27.75829	-0.1860851	0.3341211	-0.1519426	0.1067091	0.4691993	-0.3905511	0	0
27.77486	-0.1892093	0.3364605	-0.1885766	0.1412024	-1.105617	1.041012	0	0
27.79144	-0.1915183	0.3382283	-0.139259	0.1066213	1.487811	-1.043239	0	0
27.80799	-0.1948133	0.3411212	-0.1990693	0.1747739	-1.805184	2.056965	0	0
27.82456	-0.1945346	0.342139	0.01681945	0.06143866	6.518538	-3.422039	0	0
27.84112	-0.1927861	0.3442641	0.1055416	0.1282668	2.67764	2.016876	0	0
27.85769	-0.1936478	0.3472284	-0.05201527	0.1789266	-4.755076	1.528916	0	0
27.87426	-0.1926086	0.351175	0.06272666	0.2382174	3.462919	1.7894	0	0
27.89083	-0.1918733	0.3527287	0.04438266	0.09378058	-0.553623	-4.359111	0	0
27.90772	-0.1918733	0.3527287	0	0	-1.326339	-2.802555	0	0
27.92396	-0.1920001	0.3528537	-0.007807912	0.007698717	-0.2356433	0.2323477	0	0
27.94053	-0.192634	0.3533359	-0.0382602	0.02910575	-0.9282424	0.6525261	0	0
27.97366	-0.2024259	0.3602833	-0.29552	0.2096738	-5.176078	3.633036	0	0
27.99029	-0.2084788	0.3645701	-0.3640543	0.2578331	-1.377273	0.9678163	0	0
28.0068	-0.2148428	0.3690539	-0.3855096	0.2716114	-0.6475246	0.4158299	0	0
28.02337	-0.2183568	0.3715551	-0.2120833	0.1509547	5.243073	-3.647725	0	0
28.03993	-0.2199364	0.3727164	-0.09535208	0.0701047	3.522954	-2.440059	0	0
28.0565	-0.2198863	0.372645	0.003026051	-0.004314191	2.9694	-2.246225	0	0
28.07334	-0.2198863	0.372645	0	0	-0.09056525	0.1291174	0	0
28.08985	-0.2198863	0.372645	0	0	0	0	0	0
28.1062	-0.2198863	0.372645	0	0	0	0	0	0
28.12288	-0.2198863	0.372645	0	0	0	0	0	0
28.13939	-0.2198863	0.372645	0	0	0	0	0	0
28.1559	-0.2198612	0.3726271	0.00151827	-0.001081384	0.04598028	-0.03274933	0	0
28.17246	-0.2198361	0.3726092	0.001513025	-0.001079447	-0.0001585682	5.854306E-05	0	0
28.18903	-0.219786	0.3725735	0.003025702	-0.002156847	0.04565531	-0.03251786	0	0
28.20594	-0.2197108	0.3725199	0.004446912	-0.003169064	0.04245475	-0.03023719	0	0
28.22245	-0.2194351	0.3722876	0.01670175	-0.014069	0.3667064	-0.3261632	0	0
28.23896	-0.2191844	0.3720732	0.0151828	-0.01298443	-0.04599814	0.03284376	0	0
28.25547	-0.2191342	0.371966	0.003037091	-0.006492967	-0.3678074	0.1965805	0	0
28.27186	-0.219059	0.3719124	0.004588957	-0.003268996	0.04716665	0.0979878	0	0
28.2885	-0.2189838	0.3717874	0.004522649	-0.007520427	-0.002007892	-0.1287383	0	0
28.30878	-0.2189838	0.3717159	0	-0.003522823	-0.1225031	0.1082814	0	0
28.32552	-0.2189838	0.3716802	0	-0.002134728	0	0.03749029	0	0
28.34204	-0.2189086	0.3715909	0.004555036	-0.005408654	0.1369824	-0.09845589	0	0
28.35855	-0.2188835	0.3715372	0.001518997	-0.003247386	-0.09193478	0.06544569	0	0
28.37505	-0.218733	0.37143	0.009116239	-0.006495218	0.2301197	-0.09837653	0	0
28.39162	-0.2186829	0.3713943	0.003027501	-0.002156847	-0.1841082	0.1311815	0	0
28.40818	-0.2186829	0.3713943	0	0	-0.09137017	0.06509378	0	0
28.4251	-0.2186829	0.3713943	0	0	0	0	0	0
28.44132	-0.2186829	0.3713943	0	0	0	0	0	0
28.45812	-0.2186829	0.3713943	0	0	0	0	0	0
28.47463	-0.2186829	0.3713943	0	0	0	0	0	0
28.49114	-0.2186829	0.3713943	0	0	0	0	0	0
28.50765	-0.2186829	0.3713943	0	0	0	0	0	0
28.52416	-0.2186829	0.3713943	0	0	0	0	0	0
28.54072	-0.2186829	0.3713943	0	0	0	0	0	0
28.55729	-0.2186829	0.3713943	0	0	0	0	0	0
28.57385	-0.2186829	0.3713943	0	0	0	0	0	0
28.62355	-0.2186578	0.3713765	0.0005042837	-0.0003591747	0.007609656	-0.005419957	0	0
28.64012	-0.2186578	0.3713765	0	0	-0.007609656	0.005419957	0	0
28.65676	-0.2186327	0.3713586	0.00150733	-0.001074745	0.04539462	-0.03236693	0	0
28.67325	-0.2186076	0.3713407	0.001520402	-0.001082259	0.0003945483	-0.0002267833	0	0
28.68982	-0.2186076	0.3713407	0	0	-0.04598642	0.03273424	0	0
28.70639	-0.2185826	0.3713228	0.001513751	-0.001079323	0.04568508	-0.03257403	0	0
28.72296	-0.2185826	0.3713228	0	0	-0.04568508	0.03257403	0	0
28.73952	-0.2185575	0.371305	0.001513751	-0.001077524	0.04568508	-0.03251974	0	0
28.75609	-0.2185575	0.371305	0	0	-0.04568508	0.03251974	0	0
28.77266	-0.2185575	0.371305	0	0	0	0	0	0
28.78922	-0.2185575	0.371305	0	0	0	0	0	0
28.80579	-0.2185575	0.371305	0	0	0	0	0	0
28.82236	-0.2185575	0.371305	0	0	0	0	0	0
28.83892	-0.2185575	0.371305	0	0	0	0	0	0
28.85549	-0.2185575	0.371305	0	0	0	0	0	0
28.87206	-0.2185324	0.3712871	0.001513751	-0.001079323	0.04568508	-0.03257403	0	0
28.88863	-0.2185575	0.3712693	-0.001513751	-0.001077524	-0.09137017	5.428939E-05	0	0
28.90519	-0.2185324	0.3712514	0.001513751	-0.001079323	0.09137017	-5.428939E-05	0	0
28.94204	-0.2184823	0.3712156	0.001361192	-0.0009697384	-0.002856077	0.002051559	0	0
28.95861	-0.2184823	0.3712156	0	0	-0.02548319	0.01815469	0	0
28.97549	-0.2184572	0.3711978	0.001485363	-0.001057318	0.04440405	-0.03160788	0	0
28.99174	-0.2184572	0.3711978	0	0	-0.04483094	0.03191175	0	0
29.00851	-0.2184572	0.3711978	0	0	0	0	0	0
29.02488	-0.2184572	0.3711978	0	0	0	0	0	0
29.04154	-0.2184572	0.3711978	0	0	0	0	0	0
29.05801	-0.2184823	0.3712156	-0.001522691	0.001083888	-0.04595755	0.0327137	0	0
29.07458	-0.2184823	0.3712156	0	0	0.04609022	-0.03280813	0	0
29.09114	-0.2184823	0.3712156	0	0	0	0	0	0
29.10809	-0.2184823	0.3712156	0	0	0	0	0	0
29.12428	-0.2184572	0.3711978	0.001548879	-0.00110253	0.04674527	-0.03327441	0	0
29.14084	-0.2184572	0.3711978	0	0	-0.04728145	0.03365608	0	0
29.15741	-0.2184572	0.3711978	0	0	0	0	0	0
29.17398	-0.2184572	0.3711978	0	0	0	0	0	0
29.19054	-0.2184572	0.3711978	0	0	0	0	0	0
29.20716	-0.2184572	0.3711978	0	0	0	0	0	0
29.22368	-0.2184572	0.3711978	0	0	0	0	0	0
29.24025	-0.2184572	0.3711978	0	0	0	0	0	0
29.25681	-0.2184572	0.3711978	0	0	0	0	0	0
29.27338	-0.2184572	0.3711978	0	0	0	0	0	0
29.29022	-0.2184572	0.3711978	0	0	0	0	0	0
29.30651	-0.2184572	0.3711978	0	0	0	0	0	0
29.32324	-0.2184572	0.3711978	0	0	0	0	0	0
29.33975	-0.2184572	0.3711978	0	0	0	0	0	0
29.35621	-0.2184572	0.3711978	0	0	0	0	0	0
29.37278	-0.2184572	0.3711978	0	0	0	0	0	0
29.38935	-0.2184321	0.3711799	0.001513751	-0.001079323	0.04568508	-0.03257403	0	0
29.40592	-0.2183568	0.3711263	0.004542151	-0.003234371	0.09139731	-0.06503949	0	0
29.42248	-0.218106	0.3709119	0.01514105	-0.01294257	0.3198937	-0.293011	0	0
29.43933	-0.2170774	0.3702152	0.06107126	-0.04136529	1.374781	-0.8507472	0	0
29.45561	-0.2163746	0.3697149	0.04314439	-0.03071026	-0.5410651	0.3215879	0	0
29.47218	-0.2159478	0.3694112	0.02576074	-0.0183323	-0.5290862	0.3767337	0	0
29.53845	-0.2159478	0.3694112	0	0	-0.3109843	0.221308	0	0
29.55502	-0.2159478	0.3694112	0	0	0	0	0	0
29.57158	-0.2159478	0.3694112	0	0	0	0	0	0
29.58815	-0.2159478	0.3694112	0	0	0	0	0	0
29.60494	-0.2159478	0.3694112	0	0	0	0	0	0
29.62128	-0.2159478	0.3694112	0	0	0	0	0	0
29.63797	-0.2159478	0.3694112	0	0	0	0	0	0
29.67488	-0.2159227	0.3693934	0.0006802782	-0.0004836636	0.01269304	-0.009024486	0	0
29.69145	-0.2159227	0.3693934	0	0	-0.01272065	0.00904412	0	0
29.70802	-0.2158976	0.3693755	0.001515201	-0.001079075	0.04572095	-0.03256091	0	0
29.72458	-0.2158474	0.3693398	0.003032496	-0.002157841	0.04579732	-0.03256098	0	0
29.74154	-0.2157972	0.3693041	0.002960212	-0.002104649	-0.002156205	0.001586699	0	0
29.75771	-0.2157218	0.3692504	0.004658196	-0.003315567	0.05124527	-0.03654557	0	0
29.77428	-0.2156716	0.3692147	0.003031998	-0.002156847	-0.0496735	0.03539401	0	0
29.79085	-0.2155963	0.3691611	0.004546648	-0.003234371	0.04571223	-0.03251974	0	0
29.80759	-0.215546	0.3691254	0.003000221	-0.002134242	-0.04642541	0.03302706	0	0
29.82398	-0.2154958	0.3690897	0.003063904	-0.00218019	0.001922065	-0.001386806	0	0
29.84061	-0.2154205	0.3690361	0.004529817	-0.00322176	0.04439211	-0.03154177	0	0
29.85711	-0.2153954	0.3690182	0.001521505	-0.001083564	-0.09079102	0.06453088	0	0
29.87368	-0.2153703	0.3690003	0.001516449	-0.001077524	-0.0001528977	0.0001826549	0	0
29.89025	-0.2153703	0.3690003	0	0	-0.04576652	0.03251974	0	0
29.90682	-0.2153954	0.3690182	-0.001516449	0.001077524	-0.04576652	0.03251974	0	0
29.92338	-0.2153703	0.3690361	0.001516449	0.001079323	0.09153304	5.428939E-05	0	0
29.94019	-0.2154205	0.3690718	-0.002989323	0.00212649	-0.1350207	0.03137957	0	0
29.95652	-0.2154205	0.3690718	0	0	0.09021795	-0.06417759	0	0
29.97321	-0.2154707	0.369179	-0.003009477	0.006420695	-0.09113573	0.1944373	0	0
29.98972	-0.2155209	0.3692862	-0.003041253	0.006492217	-0.0009569981	0.002154084	0	0
30.00623	-0.2155712	0.3695005	-0.003042155	0.01298263	-2.732728E-05	0.1965372	0	0
30.02279	-0.2156214	0.3697149	-0.003033893	0.01295301	0.0002498797	-0.0008957222	0	0
30.03935	-0.2153451	0.3704474	0.01667374	0.04421267	0.5950516	0.943853	0	0
30.07248	-0.2092595	0.375879	0.1836758	0.1639361	3.360218	2.408933	0	0
30.08905	-0.2012135	0.3857983	0.4856585	0.5987257	6.076137	8.748319	0	0
30.10581	-0.1937492	0.395901	0.4455189	0.602998	-1.204621	0.1282162	0	0
30.12218	-0.1878127	0.4060275	0.3624556	0.6182838	-2.506998	0.4613526	0	0
30.13875	-0.1827537	0.4142806	0.3053675	0.4981579	-1.732798	-3.646185	0	0
30.15532	-0.1781184	0.422306	0.279783	0.4844146	-0.7721405	-0.4147758	0	0
30.17189	-0.1744965	0.4258189	0.2186169	0.2120366	-1.845997	-8.220384	0	0
30.18845	-0.1693108	0.4340498	0.3130136	0.4968196	2.848898	8.594768	0	0
30.20502	-0.1663689	0.4436162	0.1775711	0.5774325	-4.087661	2.432901	0	0
30.22159	-0.165729	0.4486278	0.03862627	0.3024983	-4.193364	-8.29753	0	0
30.2384	-0.1640133	0.4580302	0.102042	0.5592226	1.899783	7.690845	0	0
30.25472	-0.1630911	0.4651567	0.05651279	0.4366965	-1.374153	-3.698058	0	0
30.27129	-0.1635266	0.4755531	-0.02628961	0.6275274	-2.517823	5.802713	0	0
30.30442	-0.1649609	0.4924163	-0.0432867	0.5089314	-0.3419821	-2.386157	0	0
30.32099	-0.1665225	0.5035819	-0.09425638	0.6739599	-1.025512	3.32038	0	0
30.34081	-0.1698221	0.5125923	-0.1664537	0.4545397	-1.983971	-6.029634	0	0
30.35749	-0.1738074	0.5173485	-0.2390096	0.2852465	-1.98799	-4.638536	0	0
30.374	-0.1775321	0.5200372	-0.2255797	0.1628307	0.4046847	-3.688785	0	0
30.40708	-0.1913154	0.5300783	-0.4166276	0.3035133	-3.85217	2.836636	0	0
30.42365	-0.1997477	0.5364379	-0.5089746	0.3838648	-1.859951	1.618354	0	0
30.44056	-0.2059838	0.5414188	-0.368771	0.2945452	4.187958	-2.668028	0	0
30.45678	-0.2121283	0.5467527	-0.3787744	0.3288066	-0.301922	1.034071	0	0
30.47335	-0.2154205	0.5567995	-0.1987178	0.6064284	5.491336	8.466862	0	0
30.48992	-0.2151944	0.5691134	0.01364354	0.7432686	6.409077	4.129844	0	0
30.50659	-0.2149433	0.5755156	0.01506033	0.3838704	0.04261636	-10.81057	0	0
30.52311	-0.2147172	0.5841986	0.01369105	0.5258642	-0.04125594	4.27824	0	0
30.53962	-0.214893	0.5919782	-0.01065013	0.4712049	-0.7371217	-1.655241	0	0
30.55663	-0.2135865	0.6037653	0.07679547	0.6928076	2.608482	6.610356	0	0
30.57275	-0.2133351	0.6077783	0.01559357	0.2489609	-1.847183	-13.39609	0	0
30.58932	-0.2136116	0.6150559	-0.01668813	0.4392737	-0.9876238	5.822413	0	0
30.60588	-0.2146167	0.6174048	-0.06066875	0.1417835	-1.327338	-8.978272	0	0
30.62245	-0.2156967	0.6185053	-0.06518842	0.06642514	-0.1364038	-2.274319	0	0
30.63919	-0.218733	0.620801	-0.1813931	0.1371461	-3.48899	2.123361	0	0
30.6557	-0.2213645	0.6227994	-0.1593707	0.1210292	0.6623138	-0.4847048	0	0
30.67215	-0.2217652	0.6232105	-0.02435779	0.02498913	4.095917	-2.91359	0	0
30.68872	-0.226918	0.6285223	-0.3110213	0.3206201	-8.682009	8.953601	0	0
30.70574	-0.2279671	0.6380487	-0.06164625	0.5598065	7.425282	7.121908	0	0
30.72225	-0.2271179	0.6437277	0.05142966	0.3439341	3.372452	-6.438326	0	0
30.73876	-0.2250684	0.6532703	0.1241192	0.577921	2.201124	7.085396	0	0
30.75498	-0.2249934	0.6581306	0.004624493	0.2995753	-3.650274	-8.502787	0	0
30.77155	-0.2255935	0.6616541	-0.03622028	0.212677	-1.245604	-2.650054	0	0
30.78812	-0.224068	0.6655432	0.09207795	0.2347492	3.872048	0.6661393	0	0
30.80469	-0.2290406	0.6699711	-0.3001471	0.2672692	-11.83738	0.9814554	0	0
30.82125	-0.2316348	0.6719882	-0.1565855	0.1217548	4.332699	-4.391632	0	0
30.83783	-0.2363162	0.6757225	-0.2823762	0.2252466	-3.795061	3.12231	0	0
30.85439	-0.2391995	0.6780118	-0.1741557	0.138274	3.266101	-2.624838	0	0
30.87095	-0.2417315	0.6802269	-0.1528303	0.1337029	0.643824	-0.1380036	0	0
30.88752	-0.2428227	0.6821381	-0.06586749	0.1153652	2.624544	-0.553433	0	0
30.90409	-0.2428723	0.6892239	-0.002993323	0.4276961	1.897546	9.426166	0	0
30.92066	-0.2420539	0.693736	0.04939612	0.2723492	1.581117	-4.688381	0	0
30.9374	-0.2419051	0.7031358	0.008886374	0.5612366	-1.215937	8.671221	0	0
30.98694	-0.248987	0.718715	-0.1429653	0.3145047	-2.290919	-3.722336	0	0
31.00349	-0.2509634	0.7207001	-0.1194342	0.1199574	0.3560802	-2.943944	0	0
31.02006	-0.2508153	0.7269017	0.008942191	0.3743272	3.876638	7.681319	0	0
31.07809	-0.2493577	0.7387558	0.02511575	0.2042651	0.2168031	-2.279647	0	0
31.09466	-0.2492836	0.7386968	0.004474693	-0.003561766	-0.276689	-2.785874	0	0
31.11122	-0.2492836	0.7386968	0	0	-0.1350465	0.1074943	0	0
31.12779	-0.2492836	0.7386968	0	0	0	0	0	0
31.16311	-0.2492589	0.7386771	0.0006999102	-0.0005552031	0.01348899	-0.01070013	0	0
31.18008	-0.2492589	0.7386771	0	0	-0.01338517	0.01061777	0	0
31.21281	-0.2492094	0.7386378	0.001510056	-0.001201853	0.03038238	-0.02418133	0	0
31.22938	-0.2491847	0.7386181	0.001491265	-0.001187255	-0.0003811586	0.0002961033	0	0
31.24612	-0.2491353	0.7385789	0.002952714	-0.002345797	0.04387176	-0.03477866	0	0
31.26264	-0.2491106	0.7385592	0.00149626	-0.001191233	-0.04379451	0.03471691	0	0
31.27915	-0.2490612	0.7385199	0.002994325	-0.002378855	0.04536315	-0.0359626	0	0
31.29566	-0.2490612	0.7385199	0	0	-0.09066641	0.07203034	0	0
31.31221	-0.248987	0.738461	0.004479719	-0.003561449	0.1354789	-0.1077079	0	0
31.32878	-0.2489129	0.7384019	0.004475593	-0.003561766	-0.000124573	-9.589029E-06	0	0
31.3457	-0.2488387	0.738343	0.004384126	-0.00348475	-0.002731705	0.002300116	0	0
31.36191	-0.2487151	0.7382448	0.007622288	-0.006057398	0.09773353	-0.07764715	0	0
31.37872	-0.2486409	0.7381858	0.004412985	-0.003507689	-0.097187	0.07721261	0	0
31.39505	-0.2486162	0.7381662	0.001513951	-0.001204591	-0.08749302	0.06950766	0	0
31.41174	-0.2485915	0.7381465	0.001480742	-0.001174597	-0.001005606	0.0009082302	0	0
31.42826	-0.2485668	0.7381269	0.00149699	-0.001191095	0.0004892488	-0.0004967857	0	0
31.44475	-0.2485915	0.7381072	-0.001498894	-0.00119261	-0.09076602	-4.590422E-05	0	0
31.46132	-0.248542	0.7380679	0.002984672	-0.002371186	0.1356266	-0.03565158	0	0
31.47788	-0.2485173	0.7380483	0.001493064	-0.001187255	-0.04501942	0.03573315	0	0
31.49445	-0.2484679	0.738009	0.002984328	-0.002370913	0.04500646	-0.03572286	0	0
31.51102	-0.2484679	0.738009	0	0	-0.0900672	0.0715543	0	0
31.52758	-0.2484431	0.7379894	0.001492164	-0.001183658	0.0450336	-0.03572286	0	0
31.54415	-0.2484184	0.7379697	0.001492164	-0.001187255	0	-0.0001085823	0	0
31.56085	-0.2484184	0.7379697	0	0	-0.04485287	0.03568764	0	0
31.57729	-0.2483937	0.73795	0.001505194	-0.001196901	0.04542684	-0.03612255	0	0
31.59385	-0.248369	0.7379304	0.001492164	-0.001183658	-0.0003948307	0.0004013074	0	0
31.61042	-0.2483442	0.7379107	0.001492164	-0.001187255	0	-0.0001085823	0	0
31.64392	-0.2483195	0.7378911	0.0007384972	-0.0005872388	-0.01505462	0.01198543	0	0
31.66012	-0.2482948	0.7378715	0.001525355	-0.001209986	0.0158316	-0.0125297	0	0
31.67669	-0.2482701	0.7378518	0.001492164	-0.001187255	-0.001012708	0.0006935552	0	0
31.69326	-0.2482701	0.7378518	0	0	-0.0450336	0.03583144	0	0
31.70996	-0.2482453	0.7378322	0.00148062	-0.001173793	0.04449821	-0.03527689	0	0
31.7265	-0.2482206	0.7378125	0.001494918	-0.001189446	0.0004301002	-0.0004708836	0	0
31.74299	-0.2481712	0.7377732	0.002999386	-0.002382157	0.0455544	-0.03611459	0	0
31.76	-0.2481712	0.7377732	0	0	-0.0895372	0.0711118	0	0
31.77651	-0.2481464	0.7377536	0.001498065	-0.001191233	0.04468948	-0.03553621	0	0
31.81157	-0.247998	0.7376357	0.004231576	-0.003360782	0.05300099	-0.04206614	0	0
31.82814	-0.2478249	0.7374982	0.01044965	-0.008299994	0.1204352	-0.09566551	0	0
31.84506	-0.2471323	0.736909	0.04093944	-0.03482596	0.9105396	-0.7921647	0	0
31.86127	-0.2461177	0.7361041	0.06256983	-0.04963538	0.6528066	-0.4469492	0	0
31.87784	-0.2451768	0.7353585	0.05679038	-0.04500777	-0.1762915	0.1411566	0	0
31.89441	-0.2451768	0.7353585	0	0	-1.713937	1.358337	0	0
31.91098	-0.2451768	0.7353585	0	0	0	0	0	0
31.92762	-0.2451768	0.7353585	0	0	0	0	0	0
31.94413	-0.2452016	0.7353388	-0.00149987	-0.001191233	-0.04523753	-0.03592872	0	0
31.96068	-0.245152	0.7352996	0.002993861	-0.00237059	0.1359419	-0.03567729	0	0
31.97724	-0.245152	0.7352604	0	-0.002367315	-0.09041736	9.891493E-05	0	0
31.99381	-0.2450777	0.7352015	0.004484587	-0.00355457	0.1353451	-0.03583144	0	0
32.01038	-0.2449539	0.7350642	0.007475173	-0.008286557	0.09026124	-0.1428199	0	0
32.10978	-0.2290905	0.7147314	0.1595921	-0.2045564	1.31175	-1.692493	0	0
32.12636	-0.2254685	0.7022865	0.2184265	-0.7504817	0.5072712	-4.706981	0	0
32.14291	-0.2237427	0.6877666	0.1042606	-0.8772327	-3.445534	-3.825353	0	0
32.15947	-0.2224914	0.6769432	0.07555022	-0.6534539	-0.8669798	6.757547	0	0
32.17604	-0.221064	0.6666067	0.08615876	-0.6239135	0.3202032	0.8916343	0	0
32.1928	-0.2181562	0.6531947	0.1734761	-0.80015	2.619859	-5.287783	0	0
32.20917	-0.2155209	0.6429184	0.1609919	-0.6277965	-0.3768157	5.202238	0	0
32.22583	-0.2119774	0.6299829	0.2127627	-0.7766763	1.567678	-4.508252	0	0
32.24234	-0.2083025	0.6222763	0.2225877	-0.4667824	0.2962455	9.344009	0	0
32.25887	-0.2052272	0.6158946	0.1860056	-0.3860031	-1.107107	2.444679	0	0
32.27636	-0.1988122	0.6099728	0.3667777	-0.3385735	5.313187	1.394034	0	0
32.292	-0.1923805	0.6052138	0.4111269	-0.3042017	1.338459	1.037342	0	0
32.30857	-0.1848903	0.5992938	0.4521059	-0.3573351	1.272196	-1.649526	0	0
32.32539	-0.1792397	0.5944026	0.335887	-0.290749	-3.480646	1.99419	0	0
32.3417	-0.1713555	0.5749264	0.4834613	-1.194284	4.454312	-27.27187	0	0
32.35827	-0.1707167	0.5646127	0.03856061	-0.622532	-13.53307	17.39165	0	0
32.37493	-0.1684925	0.5442311	0.1335174	-1.22348	2.857903	-18.08668	0	0
32.39144	-0.1667784	0.5292589	0.1037967	-0.9066435	-0.8959395	9.551153	0	0
32.40797	-0.163296	0.5044877	0.2106797	-1.498644	3.234672	-17.91612	0	0
32.42454	-0.1619379	0.4947309	0.08197998	-0.5889218	-3.888641	27.48712	0	0
32.4411	-0.1594249	0.4806399	0.1516809	-0.8505335	2.103577	-7.895457	0	0
32.45799	-0.1549068	0.4636625	0.2675993	-1.005543	3.465312	-4.6339	0	0
32.47424	-0.1507682	0.4521322	0.2547354	-0.7096956	-0.388279	8.929705	0	0
32.49101	-0.1468819	0.4413	0.2316447	-0.6456539	-0.6992124	1.939258	0	0
32.50752	-0.1417534	0.4274323	0.3106308	-0.8399611	2.372878	-5.837322	0	0
32.52394	-0.1386313	0.4165193	0.190198	-0.6648305	-3.657831	5.319133	0	0
32.56156	-0.1344988	0.3942556	0.1098352	-0.5917373	-1.487125	1.352602	0	0
32.57785	-0.1301548	0.3784523	0.2666292	-0.9699683	2.908066	-7.015069	0	0
32.59459	-0.1275925	0.3706439	0.1531409	-0.4666927	-3.436559	15.23977	0	0
32.61099	-0.1225927	0.3659099	0.3048106	-0.2886065	4.577402	5.374653	0	0
32.62761	-0.1161849	0.3615336	0.3855308	-0.263303	2.444303	0.7662197	0	0
32.64412	-0.1127306	0.3591581	0.2092272	-0.1438832	-5.321468	3.60451	0	0
32.66069	-0.1095595	0.3569435	0.1914036	-0.133676	-0.538848	0.3085884	0	0
32.67725	-0.1061781	0.3546217	0.2041018	-0.1401411	0.3832334	-0.1951182	0	0
32.69382	-0.1059439	0.354461	0.01413553	-0.009701315	-5.733193	3.936681	0	0
32.71039	-0.1059439	0.354461	0	0	-0.4266113	0.2927863	0	0
32.72696	-0.1059439	0.354461	0	0	0	0	0	0
32.74352	-0.1059439	0.354461	0	0	0	0	0	0
32.76009	-0.1059439	0.354461	0	0	0	0	0	0
32.77666	-0.1059439	0.354461	0	0	0	0	0	0
32.79323	-0.10597	0.3544431	-0.001570142	-0.001077028	-0.04737606	-0.03249729	0	0
32.80979	-0.106022	0.3543717	-0.003142727	-0.004313882	-0.04746072	-0.09768844	0	0
32.82636	-0.1061261	0.3543003	-0.00628256	-0.004311895	-0.09478216	5.996683E-05	0	0
32.84293	-0.1068806	0.3537824	-0.04554338	-0.03126079	-1.184894	-0.8133193	0	0
32.85979	-0.1077651	0.3531751	-0.05245687	-0.0360135	-0.2068161	-0.1421767	0	0
32.92583	-0.1236035	0.3422819	-0.2398166	-0.1649393	-2.259938	-1.555106	0	0
32.94234	-0.1270229	0.3399248	-0.2071116	-0.1427713	0.3961662	0.2685278	0	0
32.9589	-0.1285245	0.3389247	-0.0906952	-0.06040287	3.520749	2.491045	0	0
32.97546	-0.1333099	0.3358712	-0.2888502	-0.1843142	-5.982398	-3.740943	0	0
32.99203	-0.133801	0.3355676	-0.02964541	-0.01832331	7.822817	5.009615	0	0
33.00859	-0.1338527	0.3356033	-0.003120862	0.002155545	0.8006045	0.6181241	0	0
33.02517	-0.1338786	0.3355854	-0.001559263	-0.001077276	0.04712915	-0.09756673	0	0
33.04173	-0.1339044	0.3356033	-0.001560881	0.001077772	-4.882953E-05	0.06503949	0	0
33.05842	-0.1340853	0.3357283	-0.0108377	0.007489359	-0.2789473	0.1927918	0	0
33.07494	-0.134809	0.3362283	-0.04381876	0.03027727	-0.9931977	0.6862395	0	0
33.09143	-0.1351707	0.3364783	-0.02193065	0.01515704	0.6631037	-0.4580697	0	0
33.108	-0.1352224	0.336514	-0.003119244	0.002155048	0.5689739	-0.3932613	0	0
33.12457	-0.1352482	0.3365319	-0.001559622	0.001077524	0.04706948	-0.03251974	0	0
33.14148	-0.1352741	0.3365497	-0.001527269	0.001055172	0.0009661779	-0.0006675207	0	0
33.1577	-0.1353774	0.3366212	-0.006372581	0.004405214	-0.1462318	0.1011045	0	0
33.17427	-0.1356874	0.3368712	-0.01871366	0.01509073	-0.3764417	0.325942	0	0
33.19486	-0.1367981	0.337639	-0.05393925	0.03728956	-0.94797	0.5974017	0	0
33.21153	-0.1382441	0.338639	-0.08672036	0.05997269	-0.8796573	0.6086851	0	0
33.22804	-0.1411859	0.3406748	-0.1781839	0.1233032	-2.756248	1.908462	0	0
33.24456	-0.1444861	0.3429605	-0.1998423	0.1384124	-0.6558421	0.4575256	0	0
33.26112	-0.1470621	0.3447462	-0.1554909	0.1077866	1.340689	-0.9257821	0	0
33.27769	-0.1478088	0.345264	-0.04507073	0.0312572	3.332487	-2.309662	0	0
33.29426	-0.1490701	0.3461391	-0.07613005	0.05281667	-0.9373723	0.6506663	0	0
33.31083	-0.1531595	0.3489785	-0.2468358	0.1713857	-5.151909	3.57842	0	0
33.32739	-0.1541104	0.3496392	-0.0573948	0.03988099	5.71734	-3.96882	0	0
33.34396	-0.154059	0.3496035	0.003102154	-0.002155048	1.825802	-1.26865	0	0
33.36064	-0.154059	0.3496035	0	0	-0.09331166	0.06482306	0	0
33.37715	-0.154059	0.3496035	0	0	0	0	0	0
33.39366	-0.154059	0.3496035	0	0	0	0	0	0
33.41022	-0.154059	0.3496035	0	0	0	0	0	0
33.42679	-0.1540847	0.3496213	-0.001551527	0.001077524	-0.04683056	0.03252349	0	0
33.44336	-0.1541104	0.3496392	-0.001550627	0.001077524	2.714469E-05	0	0	0
33.45993	-0.1542131	0.3497106	-0.006204308	0.004311895	-0.1404484	0.09761352	0	0
33.47649	-0.1547013	0.3500499	-0.02946552	0.02048015	-0.7020247	0.487959	0	0
33.49306	-0.1573977	0.351925	-0.1627556	0.1131832	-4.022704	2.797784	0	0
33.50963	-0.1618866	0.3550503	-0.2709497	0.1886423	-3.265303	2.277359	0	0
33.52626	-0.1652426	0.3573899	-0.2017757	0.140668	2.083596	-1.445038	0	0
33.6256	-0.1831353	0.3698757	-0.180126	0.1256942	0.1866892	-0.1291211	0	0
33.64234	-0.1833389	0.3700187	-0.01215387	0.008535023	1.447022	-1.009287	0	0
33.65873	-0.1846869	0.3709655	-0.08225857	0.05777904	-2.115764	1.486187	0	0
33.6753	-0.1856276	0.3716266	-0.05677959	0.03990078	0.7731405	-0.5425026	0	0
33.69188	-0.1858818	0.3718053	-0.01533199	0.01077679	1.250459	-0.8786601	0	0
33.70843	-0.1858818	0.3718053	0	0	0.4627735	-0.3252817	0	0
33.72499	-0.1858563	0.3717874	0.001534438	-0.001079323	0.04633076	-0.03258904	0	0
33.74156	-0.1858563	0.3717874	0	0	-0.04630942	0.03257403	0	0
33.75813	-0.1858563	0.3717874	0	0	0	0	0	0
33.77494	-0.1858563	0.3717874	0	0	0	0	0	0
33.80783	-0.1858563	0.3717516	0	-0.001086429	0	-0.02186066	0	0
33.82439	-0.1858563	0.3717516	0	0	0	0.02196689	0	0
33.84098	-0.1858563	0.3717516	0	0	0	0	0	0
33.85799	-0.1858309	0.3716981	0.001494184	-0.003149524	0.04446997	-0.09373623	0	0
33.8741	-0.1858055	0.3716802	0.001577862	-0.001110519	0.002526856	0.06157273	0	0
33.89066	-0.1858055	0.3716802	0	0	-0.04829836	0.03399298	0	0
33.90723	-0.1858055	0.3716802	0	0	0	0	0	0
33.9238	-0.1858309	0.3716981	-0.001533538	0.001079323	-0.04628228	0.03257403	0	0
33.94036	-0.1858309	0.3716981	0	0	0.04628228	-0.03257403	0	0
33.96101	-0.1858309	0.3716981	0	0	0	0	0	0
33.97758	-0.1858309	0.3716981	0	0	0	0	0	0
33.99414	-0.1858563	0.3717159	-0.001534791	0.001077772	-0.04632008	0.03252723	0	0
34.01071	-0.1858818	0.3717338	-0.001534438	0.001079323	1.066446E-05	4.680416E-05	0	0
34.02728	-0.1859072	0.3717516	-0.001533538	0.001077524	2.714469E-05	-5.428939E-05	0	0
34.04385	-0.185958	0.3717874	-0.003068875	0.002156847	-0.04633657	0.03257403	0	0
34.06064	-0.1861105	0.3718946	-0.009078505	0.006382367	-0.1801267	0.1266516	0	0
34.07698	-0.1863138	0.3720375	-0.01244382	0.008748249	-0.1015654	0.07140246	0	0
34.09355	-0.1865171	0.3721447	-0.012271	0.006470541	0.005251825	-0.0692195	0	0
34.11012	-0.1874826	0.3727879	-0.05827445	0.03882325	-1.388387	0.9764067	0	0
34.12668	-0.1884476	0.3734311	-0.05825197	0.03882505	0.0006786244	5.430344E-05	0	0
34.14325	-0.1887015	0.373574	-0.01532639	0.008627389	1.295496	-0.9113672	0	0
34.15982	-0.1887269	0.3735562	-0.001532639	-0.001077524	0.4162962	-0.2928949	0	0
34.17673	-0.1887523	0.3735383	-0.001501523	-0.00105741	0.0009294508	0.0006008096	0	0
34.19295	-0.1887523	0.3735383	0	0	0.04532126	0.03191638	0	0
34.20951	-0.1887523	0.3735383	0	0	0	0	0	0
34.22608	-0.1887523	0.3735383	0	0	0	0	0	0
34.24265	-0.1887523	0.3735383	0	0	0	0	0	0
34.25922	-0.1887269	0.3735562	0.001532639	0.001079323	0.04625513	0.03257403	0	0
34.2758	-0.1887269	0.3735562	0	0	-0.04623384	-0.03255904	0	0
34.37519	-0.1887269	0.3735562	0	0	0	0	0	0
34.39175	-0.1887015	0.3735383	0.001532639	-0.001079323	0.01321749	-0.009308091	0	0
