Time	Pos X	Pos Y	Vel X	Vel Y	Acc X	Acc YForce X	Force Y
0.01636304	-0.1693363	0.4006772	0.002611266	-0.006178677	-4.027766E-05	9.530345E-05	0	0
0.04307422	-0.1693363	0.4006772	0	0	4.028383E-05	-9.531807E-05	0	0
0.05964214	-0.1692596	0.4006235	0.004629205	-0.003239634	0.1069617	-0.07485447	0	0
0.07620926	-0.1691829	0.4005698	0.004630325	-0.003239788	3.379852E-05	-4.658715E-06	0	0
0.0927756	-0.1691318	0.4005341	0.00308703	-0.002158763	-0.04657812	0.0326264	0	0
0.1093427	-0.1691062	0.4005162	0.001543442	-0.001081129	-0.04658701	0.03252404	0	0
0.1259091	-0.1690551	0.4004804	0.00308703	-0.002158763	0.04658701	-0.03252404	0	0
0.1591546	-0.1687482	0.4002657	0.009230088	-0.006457879	0.123325	-0.08630699	0	0
0.175721	-0.1680321	0.3997648	0.04322922	-0.03023707	0.6825503	-0.4773795	0	0
0.1922877	-0.1660362	0.3983336	0.1204758	-0.08638618	2.331404	-1.694654	0	0
0.2088545	-0.1659338	0.3982621	0.006180207	-0.004319219	-3.449551	2.476859	0	0
0.2254212	-0.1659338	0.3982621	0	0	-0.1865246	0.1303582	0	0
0.2751387	-0.1659338	0.3982621	0	0	0	0	0	0
0.2917027	-0.1659082	0.39828	0.001545534	0.001079535	0.02331772	0.01628711	0	0
0.3087143	-0.1659082	0.39828	0	0	-0.04603147	-0.03215237	0	0
0.3248212	-0.1659082	0.39828	0	0	0	0	0	0
0.3413875	-0.1659082	0.39828	0	0	0	0	0	0
0.3579542	-0.1659082	0.39828	0	0	0	0	0	0
0.3745214	-0.1659082	0.39828	0	0	0	0	0	0
0.3910881	-0.1659338	0.3982621	-0.001545278	-0.001079356	-0.04663743	-0.03257562	0	0
0.4077847	-0.1659338	0.3982621	0	0	0.04645591	0.03244883	0	0
0.4242958	-0.1659082	0.39828	0.001550485	0.001082993	0.04669056	0.03261273	0	0
0.4407875	-0.1659082	0.39828	0	0	-0.04698039	-0.03281517	0	0
0.4573598	-0.1659338	0.3982621	-0.001544761	-0.001078995	-0.04672033	-0.03263352	0	0
0.4739214	-0.1659338	0.3982621	0	0	0.04662183	0.03256472	0	0
0.4904877	-0.1659338	0.3982621	0	0	0	0	0	0
0.5073588	-0.1659338	0.3982621	0	0	0	0	0	0
0.5238663	-0.1659338	0.3982621	0	0	0	0	0	0
0.5403786	-0.1659338	0.3982621	0	0	0	0	0	0
0.5567542	-0.1659338	0.3982621	0	0	0	0	0	0
0.5734011	-0.1659338	0.3982621	0	0	0	0	0	0
0.589913	-0.1659338	0.3982621	0	0	0	0	0	0
0.6064544	-0.1659082	0.39828	0.001547636	0.001081003	0.04682239	0.03270481	0	0
0.6230212	-0.1659082	0.39828	0	0	-0.04674475	-0.03265059	0	0
0.6395875	-0.1659082	0.39828	0	0	0	0	0	0
0.6561543	-0.1659082	0.39828	0	0	0	0	0	0
0.672721	-0.1659082	0.39828	0	0	0	0	0	0
0.6892878	-0.1659082	0.39828	0	0	0	0	0	0
0.7058545	-0.1659082	0.39828	0	0	0	0	0	0
0.7225057	-0.1659082	0.39828	0	0	0	0	0	0
0.7389876	-0.1659082	0.39828	0	0	0	0	0	0
0.7555544	-0.1659082	0.39828	0	0	0	0	0	0
0.7898327	-0.1659082	0.39828	0	0	0	0	0	0
0.806566	-0.1659082	0.39828	0	0	0	0	0	0
0.8230779	-0.1659082	0.39828	0	0	0	0	0	0
0.8395893	-0.1659082	0.39828	0	0	0	0	0	0
0.9141331	-0.1659082	0.39828	0	0	0	0	0	0
0.9306999	-0.1659082	0.39828	0	0	0	0	0	0
0.9472666	-0.1659338	0.3982978	-0.001545275	0.001079354	-0.04663784	0.03257591	0	0
0.9638334	-0.1659338	0.3982978	0	0	0.04663784	-0.03257591	0	0
0.9806935	-0.1659338	0.3982978	0	0	0	0	0	0
0.9972038	-0.1659338	0.3982978	0	0	0	0	0	0
1.013532	-0.1659338	0.3982978	0	0	0	0	0	0
1.030098	-0.1659338	0.3982978	0	0	0	0	0	0
1.04674	-0.1659338	0.3982978	0	0	0	0	0	0
1.063231	-0.1659338	0.3982978	0	0	0	0	0	0
1.079799	-0.1659082	0.39828	0.001545242	-0.001079331	0.04674279	-0.03264921	0	0
1.096364	-0.1659082	0.39828	0	0	-0.04663751	0.03257567	0	0
1.113286	-0.1659082	0.39828	0	0	0	0	0	0
1.129498	-0.1659082	0.39828	0	0	0	0	0	0
1.146065	-0.1659338	0.3982621	-0.001545275	-0.001079354	-0.04714278	-0.0329286	0	0
1.162632	-0.1659338	0.3982621	0	0	0.04663734	0.03257556	0	0
1.179198	-0.1659338	0.3982621	0	0	0	0	0	0
1.195764	-0.1659338	0.3982621	0	0	0	0	0	0
1.212353	-0.1659338	0.3982621	0	0	0	0	0	0
1.228898	-0.1659082	0.3982442	0.00154738	-0.001080824	0.04670136	-0.03262027	0	0
1.245465	-0.1659082	0.3982442	0	0	-0.04673263	0.03264212	0	0
1.262031	-0.1659082	0.3982442	0	0	0	0	0	0
1.278599	-0.1659082	0.3982442	0	0	0	0	0	0
1.295166	-0.1659082	0.3982442	0	0	0	0	0	0
1.311981	-0.1659082	0.3982442	0	0	0	0	0	0
1.328298	-0.1659082	0.3982442	0	0	0	0	0	0
1.344947	-0.1659082	0.3982442	0	0	0	0	0	0
1.361432	-0.1659082	0.3982442	0	0	0	0	0	0
1.378	-0.1659082	0.3982442	0	0	0	0	0	0
1.394565	-0.1659082	0.3982442	0	0	0	0	0	0
1.428007	-0.1659082	0.3982442	0	0	0	0	0	0
1.444265	-0.1659082	0.3982442	0	0	0	0	0	0
1.461032	-0.1659082	0.3982442	0	0	0	0	0	0
1.477399	-0.1659082	0.3982442	0	0	0	0	0	0
1.510564	-0.1659082	0.3982442	0	0	0	0	0	0
1.527098	-0.1659082	0.3982442	0	0	0	0	0	0
1.544089	-0.1659082	0.3982442	0	0	0	0	0	0
1.560232	-0.1659082	0.3982442	0	0	0	0	0	0
1.576798	-0.1659082	0.3982442	0	0	0	0	0	0
1.593366	-0.1659082	0.3982442	0	0	0	0	0	0
1.609931	-0.1659082	0.3982442	0	0	0	0	0	0
1.626498	-0.1659082	0.3982442	0	0	0	0	0	0
1.643065	-0.1658826	0.3982263	0.001545275	-0.001081153	0.04663734	-0.03262985	0	0
1.659673	-0.1658826	0.3982263	0	0	-0.0465802	0.03258987	0	0
1.676198	-0.165857	0.3982084	0.001549155	-0.001082064	0.04675559	-0.03265816	0	0
1.692765	-0.1658314	0.3981905	0.001545309	-0.001079377	-0.0001162195	8.118057E-05	0	0
1.709333	-0.1658058	0.3981369	0.001545131	-0.003239558	-5.368469E-06	-0.06519391	0	0
1.725899	-0.1657802	0.3980832	0.001545387	-0.003238295	7.719125E-06	3.811428E-05	0	0
1.742465	-0.1656522	0.397958	0.007726543	-0.00755924	0.1865618	-0.1304162	0	0
1.759032	-0.1650377	0.3974214	0.0370902	-0.03239142	0.8862321	-0.7494663	0	0
1.775598	-0.1642695	0.3968132	0.04637455	-0.03671142	0.2802132	-0.1303832	0	0
1.825298	-0.142527	0.3796497	0.437476	-0.3453439	5.901977	-4.657465	0	0
1.841865	-0.1411859	0.3673211	0.08094976	-0.7441751	-5.380186	-6.018591	0	0
1.858431	-0.142888	0.3496392	-0.1027383	-1.067314	-5.543877	-9.75263	0	0
1.874998	-0.1439191	0.3338176	-0.0622423	-0.9550421	1.222221	3.388503	0	0
1.891564	-0.1446149	0.322406	-0.04200217	-0.6888222	0.6108726	8.034851	0	0
1.908131	-0.1458259	0.2978054	-0.07309476	-1.484941	-0.9384034	-24.02761	0	0
1.924857	-0.1464698	0.2787982	-0.03849868	-1.136369	1.03914	10.46982	0	0
1.94137	-0.1474999	0.2548067	-0.06237998	-1.452916	-0.7184746	-9.523376	0	0
1.95788	-0.148298	0.2392237	-0.04833929	-0.9438563	0.4251853	15.41553	0	0
1.974398	-0.1491473	0.2216761	-0.05142049	-1.062351	-0.09329172	-3.587735	0	0
1.990965	-0.1495848	0.2178101	-0.0264064	-0.2333591	0.7560667	25.05679	0	0
2.024098	-0.1532366	0.1885849	-0.1102155	-0.8820473	-1.686295	-13.05204	0	0
2.057231	-0.1577571	0.1572434	-0.1364326	-0.9459136	-0.3956291	-0.9637732	0	0
2.073798	-0.1583473	0.1531603	-0.03562948	-0.2464624	2.028221	14.07339	0	0
2.090365	-0.1603739	0.1364527	-0.122326	-1.008474	-2.616543	-22.9979	0	0
2.106987	-0.1619891	0.1244766	-0.09717461	-0.7205175	0.7578266	8.676326	0	0
2.123499	-0.1632704	0.1168424	-0.07759797	-0.4623404	0.5908411	7.792025	0	0
2.140065	-0.1665225	0.09829159	-0.1963051	-1.119797	-3.588682	-19.87582	0	0
2.156632	-0.1682878	0.08791243	-0.106561	-0.6265053	2.708598	14.8882	0	0
2.191336	-0.1730414	0.06312229	-0.1369732	-0.7143268	-0.5931647	-1.712891	0	0
2.207901	-0.1756703	0.05183965	-0.1587044	-0.6811096	-0.4238653	0.6478964	0	0
2.224569	-0.1773536	0.0467156	-0.1009891	-0.3074167	1.736678	11.24458	0	0
2.241035	-0.1792652	0.03858841	-0.1160992	-0.4935986	-0.4560403	-5.619183	0	0
2.257601	-0.1820665	0.03132033	-0.1690898	-0.4387147	-1.604223	1.661541	0	0
2.274167	-0.1850683	0.02261683	-0.1812017	-0.5253819	-0.3655554	-2.615752	0	0
2.290734	-0.1879651	0.01460426	-0.1748581	-0.4836541	0.1914609	1.25941	0	0
2.307301	-0.1891839	0.01074116	-0.07356576	-0.233177	3.057052	7.559522	0	0
2.323868	-0.1949146	0.004130038	-0.345924	-0.399071	-8.220026	-5.006834	0	0
2.340434	-0.1974209	-0.0008556384	-0.1512841	-0.3009447	5.8745	2.961586	0	0
2.357001	-0.2021228	-0.008508634	-0.2838198	-0.461949	-4.000051	-4.859261	0	0
2.373567	-0.2051768	-0.01105732	-0.1843482	-0.1538478	3.002187	9.298915	0	0
2.390185	-0.2093602	-0.01419401	-0.2517396	-0.1887527	-2.030821	-1.051851	0	0
2.406701	-0.2139634	-0.0176555	-0.2787223	-0.2095899	-0.8143655	-0.6288861	0	0
2.423268	-0.2141142	-0.01776905	-0.009100754	-0.006854348	8.150039	6.128229	0	0
2.439834	-0.2141142	-0.01776905	0	0	0.2746692	0.2068706	0	0
2.456402	-0.2141142	-0.01776905	0	0	0	0	0	0
2.472967	-0.2141142	-0.01776905	0	0	0	0	0	0
2.489756	-0.2141142	-0.01776905	0	0	0	0	0	0
2.506101	-0.2141142	-0.01776905	0	0	0	0	0	0
2.522779	-0.2141142	-0.01776905	0	0	0	0	0	0
2.539234	-0.2141142	-0.01776905	0	0	0	0	0	0
2.555802	-0.2141142	-0.01776905	0	0	0	0	0	0
2.572367	-0.2141142	-0.01776905	0	0	0	0	0	0
2.588935	-0.2141142	-0.01776905	0	0	0	0	0	0
2.605501	-0.2141142	-0.01776905	0	0	0	0	0	0
2.622068	-0.2141142	-0.01776905	0	0	0	0	0	0
2.638634	-0.2141142	-0.01776905	0	0	0	0	0	0
2.655201	-0.2141142	-0.01776905	0	0	0	0	0	0
2.671767	-0.2141142	-0.01776905	0	0	0	0	0	0
2.688334	-0.2141142	-0.01776905	0	0	0	0	0	0
2.704907	-0.2141142	-0.01776905	0	0	0	0	0	0
2.721467	-0.2141142	-0.01776905	0	0	0	0	0	0
2.738034	-0.2141142	-0.01776905	0	0	0	0	0	0
2.754601	-0.2141142	-0.01776905	0	0	0	0	0	0
2.771167	-0.2141142	-0.01776905	0	0	0	0	0	0
2.787734	-0.2141142	-0.01776905	0	0	0	0	0	0
2.90655	-0.2141142	-0.0177312	0	0.0003185813	0	0.002353191	0	0
2.923098	-0.2141142	-0.0177312	0	0	0	-0.002353506	0	0
2.956232	-0.2140891	-0.01767442	0.0007582353	0.001713562	0.01526173	0.03449051	0	0
2.972799	-0.2139886	-0.01748517	0.006067769	0.0114235	0.1068301	0.1953681	0	0
2.989609	-0.2134859	-0.01680396	0.02990082	0.04052403	0.7140628	0.8718817	0	0
3.006121	-0.2131592	-0.01606615	0.01978952	0.04468287	-0.3034416	0.1248073	0	0
3.022499	-0.2139132	-0.01462886	-0.04603908	0.08775935	-2.001487	1.30972	0	0
3.039144	-0.216475	-0.01118953	-0.1539024	0.2066201	-3.266272	3.599292	0	0
3.055632	-0.2205378	-0.003944856	-0.246421	0.4394076	-2.792338	7.025846	0	0
3.072199	-0.2232172	0.00367881	-0.1617303	0.4601654	2.562147	0.6279835	0	0
3.088765	-0.2242931	0.01286077	-0.06494301	0.5542561	2.921129	2.839746	0	0
3.105333	-0.2238428	0.02674708	0.02717888	0.8381432	2.780264	8.567791	0	0
3.121901	-0.2235676	0.03404288	0.01661234	0.4403689	-0.3188896	-12.00451	0	0
3.138465	-0.2225665	0.04848008	0.06043814	0.8715818	1.32277	13.01506	0	0
3.155032	-0.2215148	0.05979086	0.06347951	0.6827394	0.09179814	-5.69985	0	0
3.171737	-0.2199113	0.07184507	0.09598485	0.7215606	0.976943	1.166766	0	0
3.188249	-0.2183568	0.08809634	0.09414256	0.9842148	-0.05546115	7.907064	0	0
3.204762	-0.2173283	0.1001995	0.06229063	0.7329845	-0.9645064	-7.60749	0	0
3.221299	-0.2161236	0.1124722	0.07285058	0.7421265	0.3195207	0.2766143	0	0
3.237865	-0.2147172	0.1294198	0.0848894	1.022992	0.3636672	8.484339	0	0
3.254432	-0.2137875	0.142949	0.05611813	0.81667	-0.8683562	-6.227065	0	0
3.270999	-0.2126563	0.1607255	0.06827888	1.072988	0.3670226	7.735923	0	0
3.287565	-0.2120528	0.1699287	0.03643105	0.5555416	-0.9611971	-15.61702	0	0
3.304132	-0.2107698	0.193223	0.07744679	1.406125	1.237929	25.67213	0	0
3.320868	-0.2102413	0.2026166	0.03157764	0.5612642	-1.377337	-25.36907	0	0
3.337265	-0.2091336	0.2214064	0.06755445	1.145898	1.085798	17.64455	0	0
3.353832	-0.2084032	0.230876	0.04408839	0.5716163	-0.7118748	-17.42163	0	0
3.370399	-0.2075214	0.2450721	0.05322502	0.8568817	0.275752	8.609576	0	0
3.386966	-0.2065637	0.2675057	0.05781111	1.354134	0.1384104	15.00733	0	0
3.403906	-0.2051768	0.2845577	0.08186962	1.006604	0.7180172	-10.3719	0	0
3.420098	-0.2044957	0.2926217	0.04206483	0.4980086	-1.20138	-15.35033	0	0
3.436665	-0.2034357	0.30406	0.06397872	0.6904395	0.6689386	5.874104	0	0
3.453437	-0.2022996	0.3176551	0.0677401	0.8105783	0.112823	3.603575	0	0
3.469799	-0.2018955	0.3261922	0.02469763	0.5217796	-1.299062	-8.716212	0	0
3.486365	-0.1996466	0.3364247	0.1357513	0.6176568	3.372597	2.911701	0	0
3.502971	-0.1984075	0.3432283	0.07461594	0.4097111	-1.842946	-6.268597	0	0
3.519499	-0.1974968	0.3509428	0.05510336	0.466762	-0.5889078	1.72185	0	0
3.536503	-0.1964338	0.3564076	0.06251139	0.3213888	0.2209281	-4.335433	0	0
3.552633	-0.1968894	0.3596225	-0.0282444	0.1993053	-2.739055	-3.684539	0	0
3.58603	-0.1979269	0.3688217	-0.03106372	0.2754464	-0.05692413	1.537345	0	0
3.602377	-0.2013651	0.3712514	-0.2103254	0.148633	-3.603658	-2.5493	0	0
3.619055	-0.2015166	0.3713586	-0.009088635	0.006427805	6.093595	-4.306077	0	0
3.635566	-0.2014914	0.3713407	0.001529695	-0.001081165	0.3199369	-0.22625	0	0
3.652077	-0.2014661	0.3713228	0.001529739	-0.001083001	1.339631E-06	-5.560525E-05	0	0
3.668643	-0.2014661	0.3713228	0	0	-0.04624749	0.03274158	0	0
3.73491	-0.2013145	0.3711085	0.002287556	-0.003234914	0.02761639	-0.03905331	0	0
3.751647	-0.2011124	0.3707869	0.01207515	-0.01921447	0.1179168	-0.192515	0	0
3.768044	-0.2007081	0.3702866	0.02465701	-0.03050886	0.3797324	-0.3408753	0	0
3.784672	-0.2006323	0.3700901	0.004559532	-0.01181822	-0.6085619	0.5659621	0	0
3.801184	-0.2006323	0.3700901	0	0	-0.1375832	0.356613	0	0
3.817744	-0.2006323	0.3700901	0	0	0	0	0	0
3.834311	-0.2006323	0.3700901	0	0	0	0	0	0
3.851221	-0.2006323	0.3700901	0	0	0	0	0	0
3.867444	-0.2006576	0.3700722	-0.001557816	-0.001102228	-0.04701734	-0.03326698	0	0
3.884242	-0.200607	0.3700008	0.00300897	-0.004254428	0.1382996	-0.09546055	0	0
3.900578	-0.2006323	0.3699472	-0.001547084	-0.003280256	-0.1375059	0.02940143	0	0
3.917144	-0.2006576	0.3698936	-0.001525487	-0.003234464	0.0006563891	0.001391737	0	0
3.933711	-0.2006576	0.3698579	0	-0.002156909	0.04604062	0.03252161	0	0
3.950278	-0.2006576	0.3698221	0	-0.002156909	0	0	0	0
3.9673	-0.2006829	0.3696971	-0.001484635	-0.007347895	-0.04419957	-0.1545425	0	0
3.98341	-0.2007081	0.369572	-0.001568743	-0.00776232	-0.002538533	-0.01250811	0	0
3.999978	-0.2007081	0.3694291	0	-0.00862559	0.04800732	-0.02641813	0	0
4.016544	-0.2006829	0.3693755	0.001525487	-0.003236264	0.04603996	0.1626525	0	0
4.033347	-0.2006576	0.3692862	0.001504101	-0.00531579	-0.0006409023	-0.06231901	0	0
4.049677	-0.2006576	0.3692504	0	-0.002188084	-0.04539581	0.09439845	0	0
4.06637	-0.2006323	0.3692326	0.00151394	-0.001069398	0.04584385	0.03387509	0	0
4.08281	-0.2006323	0.3691969	0	-0.00217355	-0.04569276	-0.03332481	0	0
4.099393	-0.2006323	0.3691611	0	-0.002154801	0	0.0005677837	0	0
4.115944	-0.2005818	0.3690897	0.003053875	-0.00431792	0.09216745	-0.06528401	0	0
4.132918	-0.200506	0.3690003	0.004466794	-0.005262178	0.04214585	-0.02816621	0	0
4.149078	-0.2004049	0.3689289	0.006255533	-0.004422396	0.05398579	0.02534541	0	0
4.165644	-0.2003543	0.3688931	0.003051062	-0.002156971	-0.09791733	0.06922339	0	0
4.182211	-0.2003796	0.3688753	-0.001525443	-0.001077524	-0.1381232	0.03257872	0	0
4.198778	-0.2003796	0.3688753	0	0	0.04603929	0.03252068	0	0
4.215476	-0.2003543	0.3688931	0.001513464	0.001069063	0.04549769	0.03213811	0	0
4.231911	-0.2003796	0.368911	-0.001537747	0.001088029	-0.09208973	0.0005724278	0	0
4.248498	-0.2003796	0.368911	0	0	0.04656679	-0.0329482	0	0
4.265511	-0.2004049	0.3688931	-0.001485509	-0.001051068	-0.04421115	-0.03128147	0	0
4.281611	-0.2004049	0.3688931	0	0	0.04486246	0.0317423	0	0
4.298177	-0.2004049	0.3688931	0	0	0	0	0	0
4.331868	-0.2003796	0.3688753	0.0007501345	-0.0005298709	0.01492605	-0.01054328	0	0
4.431269	-0.2008092	0.3685001	-0.004322043	-0.003774123	-0.03811047	-0.02437612	0	0
4.447838	-0.2016682	0.3676784	-0.05184201	-0.04959638	-0.4097604	-0.3951212	0	0
4.464654	-0.2037134	0.3659456	-0.1216178	-0.1030407	-2.089986	-1.600813	0	0
4.480968	-0.2036629	0.3658027	0.003093671	-0.008759463	3.764232	2.845742	0	0
4.497536	-0.2036882	0.3657848	-0.001523601	-0.001077493	-0.1404205	0.2336242	0	0
4.514186	-0.2036882	0.3657848	0	0	0.0458675	0.03243759	0	0
4.530668	-0.2036629	0.365767	0.00153149	-0.001083073	0.0462238	-0.03268956	0	0
4.547235	-0.2036629	0.365767	0	0	-0.04633984	0.03277162	0	0
4.563802	-0.203562	0.3656955	0.006093854	-0.004313819	0.1839182	-0.1301951	0	0
4.580369	-0.2034862	0.3656419	0.004570933	-0.003234371	-0.04596249	0.03257825	0	0
4.596935	-0.2034357	0.3656062	0.003047464	-0.002156971	-0.0459797	0.03251693	0	0
4.613502	-0.203461	0.365624	-0.001523732	0.001077586	-0.1379669	0.09762477	0	0
4.630068	-0.203461	0.365624	0	0	0.04598831	-0.03252302	0	0
4.646636	-0.203461	0.365624	0	0	0	0	0	0
4.663292	-0.203461	0.365624	0	0	0	0	0	0
4.679804	-0.203461	0.365624	0	0	0	0	0	0
4.696335	-0.2034862	0.3656062	-0.001526985	-0.001079886	-0.04621217	-0.03268133	0	0
4.712902	-0.2034862	0.3655705	0	-0.002156971	0.04613627	-0.03254302	0	0
4.72984	-0.203461	0.365374	0.001490232	-0.01159988	0.04447794	-0.2818361	0	0
4.746035	-0.2032591	0.3649095	0.01246982	-0.02867911	0.3313789	-0.5154746	0	0
4.762862	-0.2026531	0.364195	0.03600701	-0.04246068	0.7127747	-0.4173461	0	0
4.779169	-0.2042938	0.3601047	-0.1006126	-0.2508334	-4.123188	-6.288701	0	0
4.795888	-0.2077734	0.356497	-0.2081233	-0.2157892	-3.25536	1.061118	0	0
4.812302	-0.2110466	0.3482463	-0.1994134	-0.5026563	0.2628773	-8.65804	0	0
4.828869	-0.2136619	0.3352462	-0.1578627	-0.7847102	1.259838	-8.552034	0	0
4.845435	-0.2147172	0.3250671	-0.06370351	-0.6144472	2.841854	5.138769	0	0
4.862002	-0.2159227	0.3122784	-0.07276556	-0.7719468	-0.2735049	-4.753553	0	0
4.878569	-0.2172781	0.3043817	-0.08181504	-0.4766626	-0.2731218	8.911954	0	0
4.895135	-0.2223662	0.2983594	-0.3071266	-0.3635139	-6.800113	3.414932	0	0
4.911702	-0.2267431	0.2952673	-0.2642065	-0.1866509	1.295388	5.337966	0	0
4.92848	-0.2297892	0.2929792	-0.1815539	-0.1363735	2.478764	1.507827	0	0
5.010354	-0.2372363	0.25452	-0.09095792	-0.4697379	0.9183403	-3.3792	0	0
5.026922	-0.2364157	0.2401209	0.04952998	-0.8690776	1.427112	-4.056595	0	0
5.043488	-0.2357191	0.2242465	0.04204686	-0.9582652	-0.2258443	-2.691728	0	0
5.060055	-0.2353459	0.207174	0.02252752	-1.030468	-0.5891117	-2.17916	0	0
5.076621	-0.2348233	0.1834559	0.03155044	-1.431749	0.27232	-12.111	0	0
5.192667	-0.2327064	0.06338128	0.01824117	-1.034716	-0.1003626	2.993943	0	0
5.209159	-0.2325071	0.05093044	0.01208672	-0.7549677	-0.04643545	2.110709	0	0
5.225723	-0.2323077	0.03572016	0.01203563	-0.918253	-0.001545477	-4.939619	0	0
5.259459	-0.2325819	0.01432311	-0.00812523	-0.6342634	-0.4008152	5.645957	0	0
5.276026	-0.232532	0.004524813	0.003007627	-0.5914092	0.221316	0.8519214	0	0
5.292738	-0.2329307	-0.004736461	-0.02385457	-0.5541787	-0.8071716	1.118724	0	0
5.309161	-0.2328808	-0.01069849	0.003034174	-0.3630351	0.8115041	5.768727	0	0
5.325727	-0.2313356	-0.02269367	0.09327328	-0.7240512	2.735389	-10.94337	0	0
5.342298	-0.2302383	-0.02880337	0.06622212	-0.3687185	-0.8163468	10.72319	0	0
5.35886	-0.2318093	-0.03517259	-0.0948485	-0.384546	-4.861331	-0.4776957	0	0
5.375426	-0.2310115	-0.0382193	0.04815996	-0.1839159	4.316749	6.056076	0	0
5.40856	-0.2322081	-0.04214648	-0.03611429	-0.1185259	-1.695683	1.315712	0	0
5.425126	-0.2322081	-0.04214648	0	0	0.7266489	2.384837	0	0
5.441844	-0.2322081	-0.04214648	0	0	0	0	0	0
5.474825	-0.2322081	-0.04214648	0	0	0	0	0	0
5.491393	-0.2322081	-0.04214648	0	0	0	0	0	0
5.507959	-0.2322081	-0.04214648	0	0	0	0	0	0
5.524525	-0.2322081	-0.04214648	0	0	0	0	0	0
5.541419	-0.2322081	-0.04214648	0	0	0	0	0	0
5.557658	-0.2322081	-0.04214648	0	0	0	0	0	0
5.574224	-0.2322081	-0.04214648	0	0	0	0	0	0
5.590792	-0.2322081	-0.04214648	0	0	0	0	0	0
5.60746	-0.2322081	-0.04214648	0	0	0	0	0	0
5.623971	-0.2322081	-0.04214648	0	0	0	0	0	0
5.640491	-0.2322081	-0.04214648	0	0	0	0	0	0
5.657058	-0.2322081	-0.04214648	0	0	0	0	0	0
5.674006	-0.2322081	-0.04214648	0	0	0	0	0	0
5.690191	-0.2322081	-0.04214648	0	0	0	0	0	0
5.706758	-0.2322081	-0.04214648	0	0	0	0	0	0
5.723325	-0.2322081	-0.04214648	0	0	0	0	0	0
5.739892	-0.2322081	-0.04214648	0	0	0	0	0	0
5.756564	-0.2322081	-0.04214648	0	0	0	0	0	0
5.773026	-0.2322081	-0.04214648	0	0	0	0	0	0
5.789593	-0.2322081	-0.04214648	0	0	0	0	0	0
5.806158	-0.2322081	-0.04214648	0	0	0	0	0	0
5.822725	-0.2321831	-0.04216555	0.0015039	-0.001151311	0.04539106	-0.03474914	0	0
5.839292	-0.2321831	-0.04216555	0	0	-0.0453891	0.03474764	0	0
5.856134	-0.2321831	-0.04216555	0	0	0	0	0	0
5.872425	-0.2321831	-0.04216555	0	0	0	0	0	0
5.888991	-0.2321831	-0.04216555	0	0	0	0	0	0
5.905558	-0.2321831	-0.04216555	0	0	0	0	0	0
5.939694	-0.2321831	-0.04216555	0	0	0	0	0	0
5.95619	-0.2321831	-0.04216555	0	0	0	0	0	0
5.972757	-0.2321831	-0.04216555	0	0	0	0	0	0
5.989324	-0.2321831	-0.04216555	0	0	0	0	0	0
6.00589	-0.2321831	-0.04216555	0	0	0	0	0	0
6.022458	-0.2321831	-0.04216555	0	0	0	0	0	0
6.039023	-0.2321831	-0.04216555	0	0	0	0	0	0
6.05559	-0.2321831	-0.04216555	0	0	0	0	0	0
6.072157	-0.2321831	-0.04216555	0	0	0	0	0	0
6.088724	-0.2321831	-0.04216555	0	0	0	0	0	0
6.10531	-0.2321831	-0.04216555	0	0	0	0	0	0
6.121857	-0.2321831	-0.04216555	0	0	0	0	0	0
6.138424	-0.2321831	-0.04216555	0	0	0	0	0	0
6.15499	-0.2321831	-0.04216555	0	0	0	0	0	0
6.171557	-0.2321831	-0.04216555	0	0	0	0	0	0
6.18837	-0.2321831	-0.04216555	0	0	0	0	0	0
6.20469	-0.2321831	-0.04216555	0	0	0	0	0	0
6.221394	-0.2321831	-0.04216555	0	0	0	0	0	0
6.237823	-0.2321831	-0.04216555	0	0	0	0	0	0
6.254416	-0.2321831	-0.04216555	0	0	0	0	0	0
6.270957	-0.2321831	-0.04216555	0	0	0	0	0	0
6.353986	-0.2352713	-0.03926731	-0.03719332	0.03490643	-0.3735384	0.3505708	0	0
6.370357	-0.2375098	-0.03701929	-0.1367383	0.1373193	-1.001463	1.030315	0	0
6.386924	-0.2432194	-0.02861345	-0.3446423	0.5073921	-6.312069	11.2356	0	0
6.403491	-0.2457958	-0.01951073	-0.1555152	0.5494412	5.707949	1.269063	0	0
6.420057	-0.2461424	-0.008018006	-0.02092179	0.6937622	4.062212	4.355803	0	0
6.436624	-0.2453749	0.005182669	0.04632724	0.7967943	2.029667	3.10965	0	0
6.453193	-0.2432442	0.02314039	0.1286001	1.083836	2.482893	8.662575	0	0
6.469758	-0.2412104	0.03624183	0.1227709	0.7908954	-0.1759279	-8.841105	0	0
6.48658	-0.2385784	0.04874004	0.1564582	0.7429537	1.008972	-1.43591	0	0
6.502892	-0.2347735	0.06017967	0.2332737	0.7013367	2.318364	-1.256039	0	0
6.519604	-0.2276924	0.07452104	0.423697	0.8581142	5.766238	4.747405	0	0
6.536024	-0.2207383	0.08881353	0.4235162	0.8704375	-0.005456292	0.3719381	0	0
6.552591	-0.2166758	0.1000528	0.2452185	0.6784213	-5.40515	-5.821031	0	0
6.569158	-0.2130083	0.1119965	0.2213692	0.7209262	-0.7197835	1.282819	0	0
6.586151	-0.2092091	0.1294745	0.2235738	1.02854	0.06569245	9.165997	0	0
6.602291	-0.2076726	0.1438764	0.0952023	0.8923382	-3.874483	-4.110803	0	0
6.619174	-0.2071182	0.1486747	0.03283598	0.2841934	-1.888552	-18.41559	0	0
6.635424	-0.2046218	0.1673394	0.1536273	1.148621	3.645595	26.08924	0	0
6.651991	-0.2010366	0.1938003	0.2164096	1.597226	1.913136	13.67014	0	0
6.686224	-0.1979522	0.2190869	0.09009975	0.7386514	-2.486398	-16.90097	0	0
6.702765	-0.1971172	0.227984	0.0504789	0.5378795	-0.7803286	-3.954182	0	0
6.719332	-0.1959275	0.2418613	0.07181213	0.8376579	0.6443575	9.054629	0	0
6.735898	-0.1948386	0.2656079	0.06573186	1.433431	-0.1835108	17.98123	0	0
6.752768	-0.1937239	0.2795674	0.0660792	0.8274987	0.01038822	-18.12224	0	0
6.769031	-0.1932677	0.2888673	0.0280495	0.5718403	-1.147805	-7.716229	0	0
6.785598	-0.192279	0.3069724	0.05967487	1.092831	0.9633	15.86922	0	0
6.802304	-0.1911885	0.322924	0.0652758	0.954838	0.1683313	-4.147261	0	0
6.818732	-0.1905036	0.3339069	0.04169388	0.6685479	-0.711714	-8.640377	0	0
6.835299	-0.1894377	0.347407	0.06433945	0.8149142	0.6863487	4.436112	0	0
6.851865	-0.1887777	0.3565505	0.03984076	0.5519241	-0.739404	-7.9374	0	0
6.869958	-0.1889046	0.3655348	-0.007016281	0.4965672	-1.351929	-1.597169	0	0
6.886525	-0.1889808	0.3740208	-0.004597017	0.5122162	0.06980018	0.4515001	0	0
6.903375	-0.1884476	0.3815084	0.03164354	0.4443821	1.084503	-2.029941	0	0
6.919888	-0.1880667	0.388462	0.02306707	0.4211034	-0.2570702	-0.6977523	0	0
6.936398	-0.1867712	0.3991028	0.07846661	0.6444892	1.677587	6.764476	0	0
6.952792	-0.1864155	0.4051506	0.02169957	0.3689063	-1.725224	-8.375321	0	0
6.969421	-0.186263	0.4071193	0.009169618	0.1183887	-0.3794324	-7.586185	0	0
6.985925	-0.1833643	0.4137792	0.1756369	0.4035368	5.024209	8.606158	0	0
7.002491	-0.1821683	0.4146567	0.0721926	0.0529675	-3.127987	-10.60065	0	0
7.019059	-0.1821429	0.4146388	0.001536236	-0.001081122	-2.132444	-1.631214	0	0
7.035625	-0.1821174	0.414585	0.001536281	-0.003243459	1.335119E-06	-0.06526041	0	0
7.052193	-0.1821174	0.414585	0	0	-0.04636571	0.0978892	0	0
7.068758	-0.1820665	0.4145134	0.003072738	-0.004323062	0.09273943	-0.1304759	0	0
7.085503	-0.1818883	0.4143522	0.01064063	-0.009625242	0.2271929	-0.1591748	0	0
7.101892	-0.1815065	0.4140478	0.02330043	-0.01857597	0.3820901	-0.2701452	0	0
7.118528	-0.1803861	0.4131166	0.06734572	-0.05597216	1.333704	-1.132367	0	0
7.135037	-0.1803861	0.4129734	0	-0.008677647	-2.031826	1.426879	0	0
7.151592	-0.1804115	0.4129196	-0.001538287	-0.003245795	-0.04652468	0.1642835	0	0
7.168158	-0.1804115	0.412848	0	-0.004322938	0.04644431	-0.03252134	0	0
7.184725	-0.180437	0.4128301	-0.00153718	-0.001081153	-0.04639419	0.09784148	0	0
7.201292	-0.1804879	0.4127227	-0.00307436	-0.006485119	-0.04639352	-0.1630967	0	0
7.217858	-0.1805134	0.412669	-0.001538124	-0.003241753	0.04636571	0.09788921	0	0
7.234425	-0.1809463	0.4121497	-0.02613116	-0.03134444	-0.7422514	-0.8481775	0	0
7.251014	-0.1817356	0.411523	-0.04757653	-0.03777486	-0.6468037	-0.1939449	0	0
7.267632	-0.1817356	0.4114156	0	-0.006465208	1.432729	0.9428649	0	0
7.300691	-0.1805134	0.4104846	0.03696849	-0.0281602	0.7441717	-0.4367179	0	0
7.317669	-0.1790104	0.4093568	0.08852777	-0.06643028	1.030415	-0.7648296	0	0
7.333826	-0.1790104	0.4092136	0	-0.008865065	-2.671773	1.737321	0	0
7.35069	-0.1791123	0.409142	-0.006043599	-0.004244656	-0.1830204	0.1399214	0	0
7.366958	-0.1791123	0.4090704	0	-0.004402389	0.1824093	-0.004760719	0	0
7.383713	-0.1791123	0.4089988	0	-0.004274097	0	0.003884929	0	0
7.400091	-0.1790869	0.4089093	0.001555813	-0.005464451	0.04695588	-0.03592598	0	0
7.416737	-0.1790614	0.4088914	0.00153081	-0.001076043	-0.0007571374	0.132888	0	0
7.43325	-0.1790614	0.4088556	0	-0.002167495	-0.04616604	-0.03291592	0	0
7.466358	-0.1790614	0.4087124	0	-0.004325275	0	-0.04348514	0	0
7.482925	-0.1790104	0.4086049	0.003076071	-0.006483134	0.06192394	-0.04343954	0	0
7.499795	-0.178934	0.4084797	0.004531162	-0.007426512	0.04351645	-0.02821298	0	0
7.516058	-0.1787811	0.4083006	0.009401754	-0.01100796	0.146999	-0.1080915	0	0
7.532625	-0.1784243	0.40805	0.02153671	-0.01512715	0.3696328	-0.1254711	0	0
7.549193	-0.1763846	0.4066181	0.1231095	-0.08642542	3.065428	-2.151755	0	0
7.565844	-0.1716877	0.4033253	0.282093	-0.1977669	4.786011	-3.351804	0	0
7.582354	-0.1667528	0.3998363	0.2988935	-0.2113159	0.506638	-0.4085853	0	0
7.598894	-0.1592967	0.3945954	0.4507921	-0.316864	4.595948	-3.193537	0	0
7.61546	-0.1571667	0.393111	0.1285774	-0.08960414	-9.732863	6.864644	0	0
7.632025	-0.1540847	0.3908579	0.1860526	-0.136014	1.734782	-1.400792	0	0
7.648592	-0.1524654	0.3894096	0.09774373	-0.0874248	-2.665398	1.46655	0	0
7.665414	-0.1516941	0.3884799	0.04585323	-0.05526659	-1.554137	0.963149	0	0
7.681725	-0.1523883	0.3879257	-0.04256165	-0.03397879	-2.668443	0.6424856	0	0
7.698436	-0.1547013	0.3860664	-0.1384149	-0.1112605	-2.902715	-2.340316	0	0
7.714947	-0.1638596	0.3790778	-0.5546817	-0.4232712	-12.52996	-9.391767	0	0
7.73146	-0.1737052	0.3720196	-0.5962207	-0.4274205	-1.257831	-0.1256452	0	0
7.748471	-0.1813537	0.3666601	-0.4496154	-0.3150596	4.373075	3.351606	0	0
7.764558	-0.1844835	0.3644987	-0.1945557	-0.1343613	7.706258	5.459535	0	0
7.781126	-0.1879143	0.3620516	-0.2070829	-0.1477047	-0.3836297	-0.4086266	0	0
7.797691	-0.1908334	0.3599618	-0.1762102	-0.1261478	0.931765	0.6506081	0	0
7.814258	-0.1933184	0.3579972	-0.1499969	-0.1185904	0.7911637	0.2280941	0	0
7.897092	-0.185958	0.3345676	0.08885693	-0.2828509	2.402944	-1.652511	0	0
7.913659	-0.1860088	0.3347819	-0.003067976	0.01293389	-0.9247886	2.975672	0	0
7.930224	-0.1860088	0.3347462	0	-0.002155297	0.09259702	-0.4554187	0	0
7.946791	-0.1860088	0.3347462	0	0	0	0.06505166	0	0
7.963357	-0.1860088	0.3347462	0	0	0	0	0	0
7.999504	-0.1859834	0.3347283	0.0007032847	-0.0004938659	0.01334179	-0.009368973	0	0
8.016159	-0.1859834	0.3347283	0	0	-0.01331938	0.009353235	0	0
8.032637	-0.1859834	0.3347283	0	0	0	0	0	0
8.049683	-0.1859834	0.3347283	0	0	0	0	0	0
8.06577	-0.1859834	0.3347283	0	0	0	0	0	0
8.082707	-0.1859834	0.3347283	0	0	0	0	0	0
8.098903	-0.185958	0.3347104	0.001568757	-0.00110227	0.0473479	-0.03326849	0	0
8.115469	-0.185958	0.3347104	0	0	-0.04788404	0.03364521	0	0
8.132242	-0.1859326	0.3346926	0.001515593	-0.001064291	0.04545938	-0.03192282	0	0
8.148603	-0.1859326	0.3346926	0	0	-0.04574069	0.03212037	0	0
8.165171	-0.1859326	0.3346926	0	0	0	0	0	0
8.181777	-0.1859326	0.3346926	0	0	0	0	0	0
8.198303	-0.1859326	0.3346926	0	0	0	0	0	0
8.214869	-0.1859326	0.3346926	0	0	0	0	0	0
8.231436	-0.1859326	0.3346926	0	0	0	0	0	0
8.248323	-0.1859326	0.3346926	0	0	0	0	0	0
8.264834	-0.1859326	0.3346926	0	0	0	0	0	0
8.281136	-0.1859326	0.3346926	0	0	0	0	0	0
8.297703	-0.1859326	0.3346926	0	0	0	0	0	0
8.314271	-0.1859326	0.3346926	0	0	0	0	0	0
8.330836	-0.1859326	0.3346926	0	0	0	0	0	0
8.347403	-0.1859326	0.3346926	0	0	0	0	0	0
8.36397	-0.1859326	0.3346926	0	0	0	0	0	0
8.380536	-0.1859326	0.3346926	0	0	0	0	0	0
8.397102	-0.1859326	0.3346926	0	0	0	0	0	0
8.413669	-0.1859326	0.3346926	0	0	0	0	0	0
8.430235	-0.1859072	0.3346747	0.001534526	-0.001079385	0.04631475	-0.03257778	0	0
8.446804	-0.1859072	0.3346747	0	0	-0.04631075	0.03257497	0	0
8.463475	-0.1859326	0.3346569	-0.00152487	-0.001070805	-0.0458741	-0.03221406	0	0
8.479936	-0.1859072	0.334639	0.001544395	-0.001084516	0.09263858	-0.0004138254	0	0
8.496502	-0.1859072	0.334639	0	0	-0.046762	0.03283756	0	0
8.513508	-0.1858818	0.3346212	0.001493979	-0.001049728	0.04450047	-0.03126778	0	0
8.529635	-0.1858818	0.3346212	0	0	-0.04508966	0.03168176	0	0
8.62909	-0.1858563	0.3346033	0.0002556072	-0.0001794944	0.00221147	-0.001552955	0	0
8.645602	-0.1858563	0.3346033	0	0	-0.002204141	0.001547808	0	0
8.678763	-0.1858563	0.3346033	0	0	0	0	0	0
8.695331	-0.1858818	0.3346212	-0.001534438	0.001077524	-0.03085637	0.02166819	0	0
8.711897	-0.1858818	0.3346212	0	0	0.04631075	-0.03252068	0	0
8.72866	-0.1858818	0.3346212	0	0	0	0	0	0
8.745173	-0.1858818	0.3346212	0	0	0	0	0	0
8.761683	-0.1858818	0.3346212	0	0	0	0	0	0
8.778195	-0.1858818	0.3346212	0	0	0	0	0	0
8.795209	-0.1858818	0.3346212	0	0	0	0	0	0
8.811297	-0.1858818	0.3345854	0	-0.002221029	0	-0.06709643	0	0
8.877767	-0.1854242	0.3341211	0.006883716	-0.006985046	0.08338069	-0.05770532	0	0
8.89413	-0.1776596	0.3276387	0.4745199	-0.3961581	5.645576	-4.698323	0	0
8.910697	-0.1737308	0.3224953	0.2371435	-0.3104583	-7.208435	2.602456	0	0
8.927263	-0.171841	0.3104205	0.1140748	-0.7288764	-3.714326	-12.62825	0	0
8.94383	-0.1718665	0.2826977	-0.001541633	-1.673354	-3.489412	-28.5052	0	0
8.960397	-0.1717388	0.2700835	0.007710408	-0.7614379	0.2792352	27.52246	0	0
8.976963	-0.1716877	0.2503797	0.003084343	-1.189396	-0.1396229	-12.91655	0	0
8.99353	-0.1715088	0.2305527	0.01079503	-1.196758	0.2327157	-0.222185	0	0
9.010097	-0.172122	0.2042561	-0.03701032	-1.587356	-1.44281	-11.78863	0	0
9.026665	-0.1725817	0.1914547	-0.0277496	-0.7726492	0.2794892	24.58791	0	0
9.043231	-0.1745221	0.1606348	-0.1171268	-1.8604	-2.697409	-32.8284	0	0
9.059896	-0.1761295	0.1434764	-0.09645938	-1.029639	0.6219355	24.99977	0	0
9.076914	-0.1774556	0.1273774	-0.07792186	-0.9459775	0.5503553	2.483792	0	0
9.09293	-0.1792143	0.1121978	-0.1098058	-0.9477813	-0.9651752	-0.05460428	0	0
9.109496	-0.1817865	0.08936512	-0.1552696	-1.37826	-1.395353	-13.21205	0	0
9.126441	-0.1829827	0.0809917	-0.07059038	-0.4941565	2.526895	26.38236	0	0
9.14263	-0.1843309	0.07311868	-0.0832824	-0.4863305	-0.3830569	0.2361933	0	0
9.159239	-0.1878381	0.05488117	-0.2111636	-1.098037	-3.899076	-18.65084	0	0
9.175764	-0.1915183	0.04164049	-0.2226977	-0.8012387	-0.3481015	8.957396	0	0
9.192489	-0.1954211	0.03299885	-0.2333584	-0.5167024	-0.3206229	8.557518	0	0
9.208897	-0.200051	0.02237373	-0.2821754	-0.6475587	-1.473385	-3.949479	0	0
9.225463	-0.2052272	0.01535387	-0.312455	-0.4237439	-0.9182805	6.787566	0	0
9.242029	-0.208504	0.008000604	-0.1977955	-0.4438697	3.460629	-0.6074321	0	0
9.258595	-0.2095113	0.005520944	-0.06080446	-0.1496812	4.134637	8.879139	0	0
9.275162	-0.2142399	-0.006263668	-0.2854335	-0.7113615	-6.779709	-16.95252	0	0
9.291728	-0.2155209	-0.01069849	-0.07733075	-0.2677021	6.280916	13.39044	0	0
9.308296	-0.2171526	-0.02040087	-0.09848436	-0.5856031	-0.6384171	-9.594273	0	0
9.343217	-0.2217652	-0.02570908	-0.1320882	-0.1520074	-0.6526418	8.421153	0	0
9.359783	-0.2250184	-0.02817667	-0.1963716	-0.1489528	-1.248539	0.05932742	0	0
9.376616	-0.2250184	-0.02817667	0	0	5.879464	4.459721	0	0
9.392917	-0.2250184	-0.02817667	0	0	0	0	0	0
9.409483	-0.2250184	-0.02817667	0	0	0	0	0	0
9.426049	-0.2250184	-0.02817667	0	0	0	0	0	0
9.442616	-0.2250184	-0.02817667	0	0	0	0	0	0
9.459185	-0.2250434	-0.02815768	-0.00150908	0.001146087	-0.04554281	0.03458797	0	0
9.475749	-0.2250434	-0.02815768	0	0	0.04554543	-0.03458996	0	0
9.492318	-0.2250434	-0.02815768	0	0	0	0	0	0
9.508883	-0.2250684	-0.02813869	-0.001510414	0.001146304	-0.04558569	0.03459652	0	0
9.52545	-0.2250684	-0.02810072	0	0.002292325	0.04558831	0.03458996	0	0
9.542775	-0.2250684	-0.02810072	0	0	0	-0.0676349	0	0
9.558582	-0.2250684	-0.02810072	0	0	0	0	0	0
9.575155	-0.2250684	-0.02810072	0	0	0	0	0	0
9.591716	-0.2250684	-0.02810072	0	0	0	0	0	0
9.608282	-0.2250684	-0.02810072	0	0	0	0	0	0
9.624849	-0.2250684	-0.02810072	0	0	0	0	0	0
9.641416	-0.2250684	-0.02810072	0	0	0	0	0	0
9.657983	-0.2250684	-0.02810072	0	0	0	0	0	0
9.674548	-0.2250684	-0.02810072	0	0	0	0	0	0
9.691337	-0.2250934	-0.0281197	-0.001489363	-0.001131002	-0.04465347	-0.03390923	0	0
9.707851	-0.2250934	-0.0281197	0	0	0.04472125	0.03396069	0	0
9.724248	-0.2250934	-0.0281197	0	0	0	0	0	0
9.740876	-0.2250684	-0.02810072	0.001503714	0.001141899	0.04553287	0.03457703	0	0
9.757382	-0.2250934	-0.02808173	-0.001514834	0.001150457	-0.09109996	0.0002582716	0	0
9.77395	-0.2255435	-0.02751213	-0.02716386	0.03438116	-0.7755178	1.004755	0	0
9.790515	-0.2259434	-0.02682874	-0.02414454	0.04125389	0.09112867	0.2074313	0	0
9.807419	-0.2275175	-0.02498815	-0.09312148	0.1088858	-2.060908	2.02072	0	0
9.823649	-0.2288908	-0.02360368	-0.08461132	0.08530023	0.2568371	-0.7118127	0	0
9.840216	-0.2322081	-0.01979479	-0.2002403	0.229918	-3.525613	4.409501	0	0
9.856783	-0.2360177	-0.0144776	-0.2299498	0.3209463	-0.8966581	2.747317	0	0
9.873349	-0.237112	-0.01194511	-0.06605568	0.1528703	4.946476	-5.07269	0	0
9.889977	-0.2372612	0.014623	-0.008971202	1.597768	1.719695	43.52817	0	0
9.906492	-0.2360426	0.02904376	0.07378768	0.8732035	2.497021	-21.86173	0	0
9.923048	-0.2344748	0.04415101	0.09469866	0.9125056	0.6323139	1.188432	0	0
9.939614	-0.2330054	0.05912424	0.08869488	0.9038378	-0.1812623	-0.2616934	0	0
9.956182	-0.2295896	0.07905707	0.2061777	1.203148	3.54574	9.033463	0	0
9.989676	-0.2234425	0.107457	0.1835298	0.8479126	-0.4524038	-7.096021	0	0
10.00624	-0.2191844	0.1200765	0.2570349	0.7617554	1.468332	-1.721069	0	0
10.02307	-0.2136116	0.136562	0.3311498	0.9796134	2.219352	6.523706	0	0
10.03958	-0.2099644	0.1489109	0.2208934	0.7479224	-3.307078	-6.949442	0	0
10.05594	-0.2078994	0.156935	0.1262168	0.490437	-2.880144	-7.832922	0	0
10.07251	-0.2029561	0.1766777	0.2983933	1.191739	5.228958	21.29837	0	0
10.08908	-0.2012387	0.1888196	0.1036609	0.7328829	-5.877206	-13.84871	0	0
10.10564	-0.199419	0.2050127	0.1098436	0.9774759	0.1866012	7.382046	0	0
10.12221	-0.198711	0.2133665	0.04273916	0.5042672	-2.025334	-14.28229	0	0
10.13877	-0.1971172	0.2351315	0.0962074	1.313812	1.613768	24.43353	0	0
10.15534	-0.1964085	0.2442471	0.04277873	0.5502499	-1.612573	-23.04569	0	0
10.17191	-0.1956743	0.2580319	0.04431956	0.832099	0.04650475	8.506712	0	0
10.18847	-0.1945853	0.2773133	0.06573816	1.163894	0.6464519	10.01416	0	0
10.20504	-0.1937239	0.2919424	0.05199848	0.8830666	-0.4146881	-8.47587	0	0
10.22171	-0.1925833	0.3109743	0.06842799	1.141803	0.4943495	7.785161	0	0
10.23817	-0.1917973	0.3234954	0.04773838	0.7604601	-0.6244316	-11.50929	0	0
10.25474	-0.191011	0.3345854	0.04745963	0.6693926	-0.008438637	-2.756913	0	0
10.27131	-0.1900215	0.3442105	0.05973048	0.5810025	0.3703455	-2.667696	0	0
10.28787	-0.1890316	0.3552646	0.05975296	0.6672688	0.0006786634	2.603671	0	0
10.30444	-0.1884984	0.3629982	0.03218457	0.4668287	-0.8320637	-6.049641	0	0
10.32178	-0.1889046	0.373181	-0.02342676	0.5872175	-1.640117	3.550564	0	0
10.33757	-0.1886761	0.3806326	0.01446822	0.4718354	1.143706	-3.482338	0	0
10.35414	-0.1885492	0.3853335	0.007663635	0.2837614	-0.2102834	-5.812086	0	0
10.37071	-0.1872285	0.3936296	0.07972069	0.5007861	2.174811	6.550197	0	0
10.38727	-0.186695	0.3991565	0.0322043	0.3336026	-1.434089	-5.045755	0	0
10.42041	-0.1864663	0.4045421	0.00690202	0.1625426	-0.5090926	-3.441799	0	0
10.45354	-0.1861105	0.407692	0.01073761	0.09506224	0.05787911	-1.018281	0	0
10.4869	-0.1861359	0.4076742	-0.0007621297	-0.0005360819	-0.1729514	-1.437761	0	0
10.5034	-0.1861105	0.4076563	0.001540023	-0.001085057	0.04616968	-0.0110097	0	0
10.51992	-0.1860597	0.4076205	0.003078075	-0.002167557	0.0465794	-0.03278315	0	0
10.53637	-0.1860343	0.4076025	0.001544026	-0.001088516	-0.04653207	0.03273039	0	0
10.55294	-0.1860088	0.4075488	0.001534261	-0.003241194	-0.0002957001	-0.06518559	0	0
10.56951	-0.1859834	0.407531	0.001534703	-0.00107951	1.33303E-05	0.06524163	0	0
10.58646	-0.1859834	0.4074952	0	-0.002110631	-0.04578112	-0.030759	0	0
10.60264	-0.185958	0.4074773	0.001570792	-0.001107385	0.04740931	0.03027978	0	0
10.6192	-0.185958	0.4074773	0	0	-0.04797688	0.033823	0	0
10.636	-0.185958	0.4074773	0	0	0	0	0	0
10.65234	-0.1859326	0.4074593	0.001555843	-0.001096203	0.04695813	-0.03308538	0	0
10.68547	-0.1859326	0.4074593	0	0	-0.03144844	0.02215769	0	0
10.70204	-0.1859072	0.4074415	0.001534438	-0.001079323	0.03087354	-0.02171644	0	0
10.7186	-0.1859072	0.4074415	0	0	-0.04631075	0.03257497	0	0
10.73517	-0.1859072	0.4074415	0	0	0	0	0	0
10.75174	-0.1858818	0.407352	0.001533626	-0.005402323	0.0462876	-0.1630518	0	0
10.7683	-0.1858563	0.4073341	0.001534526	-0.001081184	2.714626E-05	0.1304197	0	0
10.78487	-0.1858055	0.4072267	0.003068152	-0.006481708	0.0462876	-0.1629975	0	0
10.80144	-0.1857547	0.4071909	0.003068875	-0.002160445	2.181897E-05	0.1304197	0	0
10.818	-0.1857547	0.4071551	0	-0.002160569	-0.09262151	-3.759469E-06	0	0
10.83457	-0.1857293	0.4071372	0.001534438	-0.001081122	0.04631075	0.03257873	0	0
10.85114	-0.1857293	0.4071372	0	0	-0.04631075	0.03262927	0	0
10.8677	-0.1857293	0.4071372	0	0	0	0	0	0
10.88427	-0.1857293	0.4071372	0	0	0	0	0	0
10.90084	-0.1857293	0.4071372	0	0	0	0	0	0
10.9174	-0.1857293	0.4071372	0	0	0	0	0	0
10.93397	-0.1857293	0.4071372	0	0	0	0	0	0
10.95053	-0.1857293	0.4071372	0	0	0	0	0	0
10.9671	-0.1857547	0.4071193	-0.001534526	-0.001081184	-0.04631475	-0.03263208	0	0
10.98367	-0.1857547	0.4071193	0	0	0.04631342	0.03263114	0	0
11.00023	-0.1857547	0.4071193	0	0	0	0	0	0
11.0168	-0.1857547	0.4071193	0	0	0	0	0	0
11.03378	-0.1857547	0.4071193	0	0	0	0	0	0
11.04993	-0.1857547	0.4071193	0	0	0	0	0	0
11.0665	-0.1857547	0.4071193	0	0	0	0	0	0
11.08331	-0.1857547	0.4071193	0	0	0	0	0	0
11.09963	-0.1857547	0.4071193	0	0	0	0	0	0
11.11633	-0.1857293	0.4071014	0.001522257	-0.001070756	0.04609705	-0.03242465	0	0
11.13285	-0.1857293	0.4071014	0	0	-0.04583233	0.03223845	0	0
11.14933	-0.1857293	0.4071014	0	0	0	0	0	0
11.1659	-0.1857293	0.4071014	0	0	0	0	0	0
11.18247	-0.1857547	0.4070835	-0.001534526	-0.001081184	-0.04631475	-0.03263208	0	0
11.19903	-0.1857547	0.4070477	0	-0.002160445	0.04631342	-0.03257309	0	0
11.2159	-0.1857547	0.4069403	0	-0.006365185	0	-0.125752	0	0
11.23217	-0.1857801	0.406815	-0.00156305	-0.007703471	-0.04717429	-0.04039074	0	0
11.26744	-0.1855005	0.4063318	0.007927408	-0.01370028	0.18415	-0.1163604	0	0
11.28377	-0.1855259	0.4061349	-0.001556751	-0.01205615	-0.1837931	0.03186158	0	0
11.30033	-0.1855767	0.4060991	-0.003069052	-0.002160569	-0.04597211	0.3008138	0	0
11.3169	-0.1856276	0.4060633	-0.003068875	-0.002160445	5.3265E-06	3.759469E-06	0	0
11.33349	-0.1856276	0.4060633	0	0	0.09257088	0.06516859	0	0
11.35003	-0.185653	0.4060454	-0.001536206	-0.001082368	-0.04636547	-0.03266782	0	0
11.3666	-0.1856784	0.4060275	-0.001534526	-0.001081184	5.074339E-05	3.575311E-05	0	0
11.38317	-0.1857038	0.4060096	-0.001533538	-0.001079323	2.980873E-05	5.617068E-05	0	0
11.39973	-0.1857038	0.4060096	0	0	0.04628361	0.03257497	0	0
11.41654	-0.1857038	0.4060096	0	0	0	0	0	0
11.43287	-0.1857293	0.4059917	-0.001557388	-0.001097292	-0.04700477	-0.03311825	0	0
11.44944	-0.1857038	0.4059738	0.001534349	-0.001079261	0.09399871	0.0005482032	0	0
11.46608	-0.1857293	0.4058843	-0.001527404	-0.005377249	-0.09218896	-0.1294118	0	0
11.48257	-0.1858309	0.4057412	-0.006166312	-0.008683267	-0.1400146	-0.09978444	0	0
11.4996	-0.1859326	0.4050253	-0.005968836	-0.04202592	0.005891019	-0.9946603	0	0
11.5157	-0.1856022	0.4046495	0.02052389	-0.02334217	0.7995752	0.563893	0	0
11.53227	-0.1855513	0.4045779	0.003069052	-0.004321139	-0.5343394	0.5822846	0	0
11.54883	-0.1855767	0.4045958	-0.001534526	0.001079385	-0.1389443	0.1629975	0	0
11.5654	-0.1855767	0.4045958	0	0	0.04631342	-0.03257685	0	0
11.64823	-0.1855767	0.4045958	0	0	0	0	0	0
11.6648	-0.1856022	0.4046137	-0.001534438	0.001081122	-0.01543707	0.01087653	0	0
11.68137	-0.1856022	0.4046137	0	0	0.04631075	-0.03262927	0	0
11.69824	-0.1856022	0.4046137	0	0	0	0	0	0
11.7145	-0.1855767	0.4045958	0.001563508	-0.001101604	0.04718813	-0.03324744	0	0
11.73107	-0.1855767	0.4045958	0	0	-0.04763095	0.03355943	0	0
11.74763	-0.1855513	0.4045779	0.001534526	-0.001079385	0.04631475	-0.03257778	0	0
11.81966	-0.1838476	0.4034863	0.02365286	-0.01515498	0.2496556	-0.158875	0	0
11.83623	-0.1814556	0.4018759	0.1443855	-0.09720384	1.362728	-0.9260976	0	0
11.85285	-0.1732457	0.3963303	0.4939856	-0.3336794	10.53428	-7.125567	0	0
11.86936	-0.1636291	0.3905718	0.582369	-0.3487258	2.667568	-0.4541279	0	0
11.88593	-0.1560883	0.3871748	0.4551613	-0.2050444	-3.845443	4.34344	0	0
11.90249	-0.1452849	0.3837783	0.6521348	-0.205022	5.944843	0.0006750461	0	0
11.91906	-0.1340853	0.3820982	0.6760441	-0.101419	0.7216248	3.126925	0	0
11.93563	-0.1223075	0.379185	0.7109523	-0.1758498	1.053593	-2.246456	0	0
11.95219	-0.105996	0.3744675	0.9846224	-0.2847688	8.259853	-3.28737	0	0
11.96876	-0.09667141	0.3689646	0.5628647	-0.3321718	-12.7294	-1.430708	0	0
11.98533	-0.08547544	0.3613014	0.6757903	-0.4625529	3.408197	-3.935022	0	0
12.00189	-0.07705764	0.3555504	0.5081282	-0.3471501	-5.060195	3.482964	0	0
12.03503	-0.05969216	0.3437105	0.5240914	-0.3573297	0.3211851	-0.2048187	0	0
12.05159	-0.05134956	0.3380319	0.5035894	-0.3427804	-0.4125084	0.292739	0	0
12.06816	-0.0409245	0.3309068	0.6292575	-0.4300725	3.79278	-2.634557	0	0
12.08473	-0.03096378	0.3241384	0.6012649	-0.4085635	-0.8448429	0.6491604	0	0
12.10152	-0.02638861	0.3209951	0.2723794	-0.1871363	-9.857691	6.636842	0	0
12.11786	-0.01941861	0.3161904	0.4266534	-0.2941057	4.656133	-3.228438	0	0
12.13443	-0.01042068	0.3092593	0.5431478	-0.4183877	3.540571	-3.777255	0	0
12.15099	-0.004184186	0.3038099	0.3764569	-0.3289462	-5.031031	2.699504	0	0
12.16756	0.002736835	0.2989671	0.4177777	-0.2923299	1.247136	1.105147	0	0
12.18413	0.01086799	0.293444	0.4907976	-0.3333705	2.203809	-1.238644	0	0
12.20069	0.01473578	0.2908161	0.2334732	-0.1586336	-7.76629	5.273721	0	0
12.21726	0.01805067	0.2885991	0.200099	-0.1338258	-1.007293	0.7487461	0	0
12.23383	0.01902402	0.2879375	0.05875487	-0.03993545	-4.26602	2.833779	0	0
12.25063	0.01910294	0.2879196	0.004697012	-0.001064252	-1.620046	1.164921	0	0
12.26714	0.01918186	0.2879017	0.004779758	-0.001083001	0.002483929	-0.0005628109	0	0
12.30009	0.01955014	0.2877944	0.01117595	-0.003255774	0.1293095	-0.04392613	0	0
12.31666	0.01999733	0.2876335	0.02699419	-0.009714467	0.3194342	-0.1304272	0	0
12.33322	0.02010255	0.2876335	0.006351507	0	-0.6230332	0.2932	0	0
12.34979	0.02020778	0.2876335	0.006351507	0	0	0	0	0
12.36636	0.0203393	0.2876156	0.007939328	-0.001079385	0.04792327	-0.03257778	0	0
12.38292	0.02047082	0.2875977	0.007939216	-0.001079385	-3.373079E-06	0	0	0
12.39973	0.02068126	0.2875977	0.01252044	0	0.1372698	0.03234226	0	0
12.41606	0.02083909	0.2875977	0.009667165	0	-0.08611435	0	0	0
12.43275	0.02086539	0.2876156	0.001575396	0.001070939	-0.2450352	0.03243021	0	0
12.44919	0.02118104	0.2877944	0.01920197	0.01087776	0.5319558	0.295962	0	0
12.46576	0.02128626	0.287866	0.006351536	0.004317789	-0.3893622	-0.1987641	0	0
12.48232	0.02231209	0.2885633	0.0619262	0.04209665	1.67744	1.140299	0	0
12.49889	0.02846599	0.2928541	0.371472	0.2590075	9.342916	6.546947	0	0
12.51546	0.03514342	0.2975373	0.4030735	0.2826928	0.9537897	0.7148651	0	0
12.53232	0.03735104	0.299396	0.1308865	0.1102002	-8.141275	-5.159359	0	0
12.54883	0.0390328	0.300647	0.1018452	0.07575801	-0.8700345	-1.031834	0	0
12.56535	0.03890142	0.3008078	-0.007956666	0.009741033	-3.324831	-1.999013	0	0
12.58172	0.03887514	0.3008614	-0.001604909	0.003274434	0.1931473	-0.1966396	0	0
12.59829	0.03855982	0.3014333	-0.01903251	0.03451675	-0.5290573	0.9484365	0	0
12.61488	0.03813939	0.3028986	-0.02533798	0.08830968	-0.1901515	1.622213	0	0
12.63142	0.03782406	0.305686	-0.01906546	0.1685316	0.1893157	2.421242	0	0
12.66464	0.03916417	0.3171014	0.04033801	0.3436056	1.193757	3.518242	0	0
12.68121	0.03976849	0.3284066	0.03647685	0.6823876	-0.07754985	6.804296	0	0
12.69778	0.03942693	0.335889	-0.02061709	0.4516373	-1.723099	-6.964057	0	0
12.71434	0.03984732	0.3424248	0.02537635	0.3945207	1.388125	-1.723834	0	0
12.73096	0.04113468	0.3485499	0.07746884	0.3685886	1.569805	-0.781462	0	0
12.74748	0.04381405	0.3503	0.1622408	0.1059707	2.558569	-7.926281	0	0
12.76404	0.04764812	0.352943	0.2314382	0.1595421	2.091753	1.619401	0	0
12.78061	0.05079836	0.3553718	0.1901493	0.1466044	-1.246137	-0.3904712	0	0
12.79751	0.0522419	0.3579972	0.08541574	0.1553471	-3.12943	0.2612304	0	0
12.81374	0.05195321	0.3636234	-0.01778456	0.3466049	-3.114771	5.772505	0	0
12.83031	0.04932837	0.3704117	-0.1584445	0.4097634	-4.288575	1.925635	0	0
12.84687	0.04987964	0.3745032	0.03327677	0.2469777	5.786493	-4.913164	0	0
12.86344	0.05027339	0.3747355	0.02376806	0.01402121	-0.2869899	-7.031046	0	0
12.88006	0.05058838	0.3749499	0.01894837	0.01289907	-0.1452162	-0.03380979	0	0
12.89658	0.05069337	0.3750214	0.006358655	0.004328145	-0.3799474	-0.2586637	0	0
12.91314	0.05077212	0.375075	0.00475389	0.00323493	-0.04851708	-0.03305131	0	0
12.92971	0.05079836	0.3752358	0.001584131	0.009708511	-0.09567177	0.1953899	0	0
12.94627	0.05053588	0.3755217	-0.01584425	0.01725757	-0.5260047	0.2278376	0	0
12.96284	0.04772689	0.3775052	-0.1695611	0.1197308	-4.63945	3.092826	0	0
12.97941	0.04389284	0.3802215	-0.2314368	0.1639694	-1.867521	1.3352	0	0
12.99615	0.04042533	0.3826165	-0.207141	0.1430703	0.729471	-0.6274862	0	0
13.01254	0.03871748	0.3837783	-0.1041776	0.07086969	3.107531	-2.17908	0	0
13.02917	0.0382445	0.3841001	-0.0284428	0.01934822	2.293403	-1.560175	0	0
13.04568	0.03821822	0.3841537	-0.001591469	0.003248816	0.8102115	-0.4857832	0	0
13.06224	0.03821822	0.3841537	0	0	0.04812342	-0.0982389	0	0
13.07881	0.03821822	0.3841537	0	0	0	0	0	0
13.09537	0.03821822	0.3841537	0	0	0	0	0	0
13.11194	0.03821822	0.3841537	0	0	0	0	0	0
13.12851	0.03821822	0.3841537	0	0	0	0	0	0
13.14507	0.03821822	0.3841537	0	0	0	0	0	0
13.16164	0.03821822	0.3841537	0	0	0	0	0	0
13.17827	0.03821822	0.3841537	0	0	0	0	0	0
13.19477	0.03821822	0.3841537	0	0	0	0	0	0
13.21134	0.0382445	0.3841358	0.001586246	-0.001079385	0.04797381	-0.0326445	0	0
13.22859	0.0382445	0.3841358	0	0	-0.04690373	0.03191634	0	0
13.24516	0.03821822	0.384118	-0.001586155	-0.001079323	-0.04689971	-0.0319136	0	0
13.26173	0.03821822	0.384118	0	0	0.04787163	0.03257497	0	0
13.27835	0.03821822	0.384118	0	0	0	0	0	0
13.29486	0.0382445	0.3841001	0.001591561	-0.001083001	0.04803478	-0.03268598	0	0
13.31143	0.0382445	0.3841001	0	0	-0.04811371	0.0327397	0	0
13.32799	0.0382445	0.3841001	0	0	0	0	0	0
13.34456	0.0382445	0.3841001	0	0	0	0	0	0
13.36113	0.0382445	0.3841001	0	0	0	0	0	0
13.37769	0.0382445	0.3841001	0	0	0	0	0	0
13.39443	0.03821822	0.3840822	-0.001570426	-0.00106862	-0.04715936	-0.0320903	0	0
13.41083	0.03821822	0.3840822	0	0	0.04739827	0.03225286	0	0
13.42745	0.03821822	0.3840822	0	0	0	0	0	0
13.44396	0.0382445	0.3840643	0.001591561	-0.001081196	0.04803201	-0.03262963	0	0
13.46053	0.03827078	0.3840465	0.001586155	-0.001079323	-0.0001634127	5.663063E-05	0	0
13.47709	0.0382445	0.3840286	-0.001586246	-0.001079385	-0.09574603	-1.876221E-06	0	0
13.49366	0.0382445	0.3840286	0	0	0.04787852	0.03257966	0	0
13.51023	0.0382445	0.3840286	0	0	0	0	0	0
13.52702	0.03827078	0.3840107	0.001564807	-0.001064796	0.04690601	-0.0319179	0	0
13.54336	0.0382445	0.3839929	-0.001608375	-0.001092619	-0.09577511	-0.0008397591	0	0
13.56004	0.0382445	0.3839571	0	-0.00214347	0.04870488	-0.0318219	0	0
13.57649	0.03829706	0.3839213	0.003194932	-0.002174039	0.09642323	-0.0009225893	0	0
13.60963	0.03827078	0.3839035	-0.0007931004	-0.0005387776	-0.08043074	0.03298	0	0
13.62619	0.03827078	0.3838677	0	-0.002158398	0.0159569	-0.03258619	0	0
13.64276	0.03827078	0.3838677	0	0	0	0.06513869	0	0
13.65933	0.0382445	0.3838141	-0.001586429	-0.003236729	-0.04788404	-0.09769593	0	0
13.67612	0.03819195	0.3837783	-0.003128504	-0.002128988	-0.04622196	0.03320329	0	0
13.69264	0.03792917	0.3833136	-0.01591446	-0.02814558	-0.3838481	-0.7810459	0	0
13.70915	0.03661521	0.3823127	-0.0795674	-0.06061229	-1.927373	-0.9830731	0	0
13.72566	0.03354005	0.3802215	-0.1862603	-0.1266571	-3.230786	-1.999913	0	0
13.74216	0.0284397	0.3768261	-0.3091389	-0.2058002	-3.722626	-2.397654	0	0
13.75873	0.02517889	0.3746104	-0.1968229	-0.1337425	3.396744	2.179222	0	0
13.77529	0.01807698	0.3698936	-0.4286968	-0.284722	-6.998171	-4.556702	0	0
13.79221	0.01249935	0.3661421	-0.3297569	-0.2217946	2.955139	1.879515	0	0
13.80842	0.00449997	0.3607477	-0.4932061	-0.3325947	-4.93305	-3.344047	0	0
13.82523	-0.002157891	0.3562648	-0.3961905	-0.2667662	2.937746	1.993362	0	0
13.84156	-0.009420774	0.3514429	-0.4448154	-0.2953171	-1.467586	-0.8617182	0	0
13.85825	-0.01918186	0.3451034	-0.5846702	-0.3797252	-4.235089	-2.556046	0	0
13.8917	-0.03582677	0.335014	-0.4976464	-0.3016491	1.735538	1.55709	0	0
13.90827	-0.04226429	0.3309603	-0.3885919	-0.2446948	2.180499	1.138777	0	0
13.92483	-0.04898709	0.3266744	-0.4058126	-0.258716	-0.519751	-0.4231856	0	0
13.9414	-0.05872189	0.32062	-0.5876269	-0.3654636	-5.487483	-3.221834	0	0
13.95796	-0.06462043	0.317923	-0.3560572	-0.1628001	6.98919	6.116751	0	0
13.97453	-0.08769555	0.3160297	-1.392898	-0.1142889	-31.29371	1.464154	0	0
13.9911	-0.09792265	0.3159225	-0.617344	-0.006470914	23.4076	3.254141	0	0
14.00766	-0.1188322	0.3154581	-1.262104	-0.02803182	-19.45946	-0.6507281	0	0
14.02437	-0.1335426	0.3144577	-0.8806181	-0.05988275	11.46575	-0.9572954	0	0
14.0408	-0.1464441	0.3129215	-0.785246	-0.09350149	2.878335	-1.014616	0	0
14.0574	-0.1611432	0.3100275	-0.88566	-0.1743719	-3.040388	-2.448637	0	0
14.07393	-0.1696687	0.3073655	-0.5155214	-0.1609661	11.1708	0.4045878	0	0
14.0905	-0.1788066	0.303113	-0.5516255	-0.2567106	-1.090659	-2.892322	0	0
14.10707	-0.1824483	0.3007721	-0.2198267	-0.1413077	10.01457	3.483166	0	0
14.12394	-0.1880413	0.2969474	-0.331472	-0.2266663	-3.338712	-2.552616	0	0
14.2065	-0.1989386	0.2894036	-0.1319931	-0.09137403	2.006166	1.360638	0	0
14.25617	-0.2024511	0.286954	-0.07071132	-0.04931413	0.4634355	0.3180727	0	0
14.27273	-0.2024511	0.286954	0	0	1.067558	0.744516	0	0
14.2893	-0.2024511	0.286954	0	0	0	0	0	0
14.30587	-0.2024764	0.2869719	-0.001524544	0.001079323	-0.0460148	0.03257684	0	0
14.32258	-0.2025016	0.2869898	-0.001510084	0.001069717	0.0004344514	-0.0002886141	0	0
14.33909	-0.2025269	0.2870077	-0.001529916	0.001083126	-0.0005969003	0.0004035899	0	0
14.35561	-0.2029561	0.2873116	-0.02599054	0.01840677	-0.740696	0.5245799	0	0
14.37213	-0.2031328	0.2874368	-0.01069378	0.007574009	0.4629629	-0.3278581	0	0
14.3887	-0.2031581	0.2874547	-0.001523732	0.001079385	0.2771035	-0.1962567	0	0
14.40527	-0.2031833	0.2874726	-0.001523644	0.001079323	2.649196E-06	-1.876221E-06	0	0
14.42183	-0.2032086	0.2874905	-0.001523732	0.001079385	-2.649196E-06	1.876221E-06	0	0
14.4384	-0.2032086	0.2875262	0	0.002158646	0.04598765	0.03257309	0	0
14.45518	-0.2032338	0.2875441	-0.001503906	0.001065341	-0.04509207	-0.03278089	0	0
14.47169	-0.2032591	0.287562	-0.001529632	0.001083564	-0.0007728438	0.0005474663	0	0
14.4881	-0.2033348	0.2876514	-0.004614228	0.005447731	-0.09371638	0.1325924	0	0
14.50466	-0.2034105	0.2877766	-0.004571196	0.007555696	0.00130486	0.06392024	0	0
14.52123	-0.2034357	0.2877944	-0.001523732	0.001079385	0.09197794	-0.1954667	0	0
14.5378	-0.2034862	0.2879375	-0.003047289	0.008634584	-0.04598235	0.2280229	0	0
14.55437	-0.203461	0.2880626	0.001523557	0.007553027	0.1379444	-0.0326405	0	0
14.57093	-0.2034862	0.2885812	-0.00152382	0.03130397	-0.09197265	0.7168255	0	0
14.5875	-0.2034105	0.2887063	0.004571196	0.007553897	0.1839638	-0.7168406	0	0
14.62063	-0.2032338	0.288903	0.005332909	0.005936448	0.01532627	-0.0325444	0	0
14.6373	-0.2031328	0.2889746	0.006056922	0.004290618	0.01453733	-0.03304631	0	0
14.65381	-0.2029056	0.289207	0.01376054	0.0140764	0.2321616	0.294911	0	0
14.67033	-0.2025016	0.2896003	0.02445872	0.02381279	0.3238971	0.2947782	0	0
14.6869	-0.2018703	0.2904406	0.03811129	0.05072571	0.412665	0.8134744	0	0
14.70346	-0.2007587	0.2921211	0.06709998	0.1014406	0.8749307	1.530667	0	0
14.72003	-0.2023754	0.2983058	-0.09758429	0.3733073	-4.970324	8.205188	0	0
14.7366	-0.2025521	0.3029701	-0.01067062	0.2815504	2.623135	-2.769306	0	0
14.75316	-0.203461	0.3100811	-0.05486155	0.4292481	-1.333762	4.457781	0	0
14.76973	-0.2042938	0.3160297	-0.05027236	0.3590773	0.1385099	-2.117882	0	0
14.78641	-0.2059838	0.3226918	-0.1013427	0.3995035	-1.536309	1.216112	0	0
14.80292	-0.2066393	0.3252992	-0.03970102	0.1579232	1.857409	-7.279385	0	0
14.81943	-0.2071434	0.3274423	-0.03052456	0.1297659	0.2778578	-0.8525872	0	0
14.836	-0.2085292	0.3285674	-0.08364876	0.06791312	-1.60588	-1.869735	0	0
14.86946	-0.2180559	0.3394426	-0.284657	0.3249517	-4.017468	5.137323	0	0
14.88598	-0.2181562	0.3486213	-0.006076188	0.5558814	5.573935	4.620515	0	0
14.90249	-0.2161738	0.3564612	0.1200609	0.4748054	3.819577	-2.455075	0	0
14.91883	-0.2138127	0.3609263	0.1444699	0.27321	0.7429313	-6.135907	0	0
14.9354	-0.2109711	0.3629804	0.1715161	0.1239836	0.8218141	-4.53433	0	0
14.95202	-0.2080505	0.3650524	0.1756699	0.1246307	0.125141	0.019495	0	0
14.96854	-0.2071182	0.3657134	0.05646352	0.04002722	-3.597344	-2.553118	0	0
14.9851	-0.2071182	0.3657134	0	0	-1.707168	-1.210218	0	0
15.00167	-0.2071182	0.3657134	0	0	0	0	0	0
15.01823	-0.2071182	0.3657134	0	0	0	0	0	0
15.0348	-0.2071434	0.3657312	-0.001521034	0.001079385	-0.04590753	0.03257778	0	0
15.05136	-0.2071434	0.3657312	0	0	0.04590753	-0.03257778	0	0
15.06793	-0.2071434	0.3657312	0	0	0	0	0	0
15.11764	-0.2071434	0.3657312	0	0	0	0	0	0
15.1342	-0.2071434	0.3657312	0	0	0	0	0	0
15.15076	-0.2071434	0.3657312	0	0	0	0	0	0
15.16733	-0.2071182	0.3657134	0.001521034	-0.001079385	0.04590753	-0.03257778	0	0
15.1839	-0.2071182	0.3657134	0	0	-0.04590753	0.03257778	0	0
15.20046	-0.207093	0.3656955	0.001521034	-0.001077586	0.04590753	-0.03252349	0	0
15.21703	-0.207093	0.3656955	0	0	-0.04590753	0.03252349	0	0
15.2336	-0.207093	0.3656955	0	0	0	0	0	0
15.25016	-0.2070678	0.3656777	0.001521933	-0.001077586	0.04593468	-0.03252349	0	0
15.26673	-0.2070678	0.3656419	0	-0.002156971	-0.04593468	-0.03257779	0	0
15.30027	-0.2069418	0.3655526	0.003757304	-0.002663034	0.07498704	-0.01009983	0	0
15.31675	-0.2066393	0.3653025	0.01835273	-0.01517294	0.291785	-0.2500922	0	0
15.33332	-0.2065637	0.3652132	0.0045649	-0.005391529	-0.4172103	0.2959788	0	0
15.34988	-0.2065133	0.3651775	0.003042967	-0.002156971	-0.04593468	0.09762476	0	0
15.36645	-0.2063872	0.3650882	0.007608766	-0.005391529	0.137804	-0.09762476	0	0
15.38301	-0.2063368	0.3650524	0.003043866	-0.002156971	-0.1377769	0.09762476	0	0
15.39958	-0.2061351	0.3649095	0.01217547	-0.008626087	0.2756081	-0.1952495	0	0
15.41753	-0.2061099	0.3648917	0.001404308	-0.0009943031	-0.3120252	0.221082	0	0
15.4341	-0.2059586	0.3647845	0.009131973	-0.006468743	0.2238534	-0.1585824	0	0
15.45088	-0.2055803	0.3645166	0.02255089	-0.01597503	0.4024814	-0.2851276	0	0
15.4839	-0.2029814	0.362641	0.07870713	-0.05679783	1.127767	-0.8198305	0	0
15.50041	-0.2021228	0.3620337	0.05199669	-0.03678233	-0.5392569	0.4040928	0	0
15.51694	-0.2021481	0.3620516	-0.00152815	0.001080073	-1.620046	1.145988	0	0
15.5335	-0.2021481	0.3620516	0	0	0.04617549	-0.03263613	0	0
15.55007	-0.2020976	0.3620159	0.003049263	-0.002155172	0.09203224	-0.06504697	0	0
15.56663	-0.201946	0.361873	0.009147789	-0.008626087	0.1840645	-0.1953038	0	0
15.5832	-0.2018703	0.3618194	0.004573632	-0.003234371	-0.1380523	0.162727	0	0
15.59998	-0.2018703	0.3618194	0	0	-0.1371718	0.09700487	0	0
15.6329	-0.2018703	0.3618194	0	0	0	0	0	0
15.64947	-0.2018703	0.3618194	0	0	0	0	0	0
15.66603	-0.2018703	0.3618194	0	0	0	0	0	0
15.6826	-0.201845	0.3618015	0.001524632	-0.001077586	0.04601612	-0.03252349	0	0
15.69955	-0.2018703	0.3618194	-0.00149023	0.001053272	-0.08995567	0.06357928	0	0
15.71573	-0.2018703	0.3618194	0	0	0.04497783	-0.03178964	0	0
15.7323	-0.2018703	0.3618194	0	0	0	0	0	0
15.74887	-0.2018703	0.3618194	0	0	0	0	0	0
15.76543	-0.2018955	0.3618015	-0.001524632	-0.001077586	-0.04601612	-0.03252349	0	0
15.782	-0.2018955	0.3618015	0	0	0.04601612	0.03252349	0	0
15.79856	-0.2019208	0.3617837	-0.001524632	-0.001079385	-0.04601612	-0.03257778	0	0
15.81513	-0.201946	0.3617658	-0.001524632	-0.001077586	0	5.429603E-05	0	0
15.8317	-0.2019713	0.361748	-0.001524632	-0.001077586	0	0	0	0
15.84826	-0.2019713	0.361748	0	0	0.04601612	0.03252349	0	0
15.86483	-0.2019713	0.361748	0	0	0	0	0	0
15.88167	-0.2019965	0.3617301	-0.001499766	-0.001061782	-0.04489221	-0.0317821	0	0
15.89796	-0.2019965	0.3617301	0	0	0.04526564	0.03204647	0	0
15.9147	-0.2019965	0.3617301	0	0	0	0	0	0
15.9311	-0.2019965	0.3617301	0	0	0	0	0	0
15.94772	-0.2019965	0.3617301	0	0	0	0	0	0
16.04707	-0.2019965	0.3617301	0	0	0	0	0	0
16.0804	-0.2020471	0.3616944	-0.001515471	-0.001071112	-0.01142225	-0.008073073	0	0
16.09733	-0.2020976	0.3616586	-0.002983483	-0.00211044	-0.02920581	-0.02067724	0	0
16.11353	-0.2020976	0.3616586	0	0	0.09004168	0.0636932	0	0
16.13011	-0.2020976	0.3616586	0	0	0	0	0	0
16.14686	-0.2020976	0.3616586	0	0	0	0	0	0
16.16323	-0.2021228	0.3616408	-0.001543019	-0.001090582	-0.04658717	-0.0329271	0	0
16.1798	-0.2021228	0.3616408	0	0	0.04684887	0.03311206	0	0
16.19637	-0.2021228	0.3616408	0	0	0	0	0	0
16.21293	-0.2021228	0.3616408	0	0	0	0	0	0
16.2295	-0.2021228	0.3616408	0	0	0	0	0	0
16.24607	-0.2021228	0.3616408	0	0	0	0	0	0
16.26263	-0.2021228	0.3616408	0	0	0	0	0	0
16.2792	-0.2021228	0.3616408	0	0	0	0	0	0
16.29577	-0.2021228	0.3616408	0	0	0	0	0	0
16.31248	-0.2021228	0.3616408	0	0	0	0	0	0
16.3289	-0.2021228	0.3616408	0	0	0	0	0	0
16.34551	-0.2021228	0.3616408	0	0	0	0	0	0
16.36204	-0.2021481	0.3616229	-0.001528062	-0.001081814	-0.04611967	-0.03265109	0	0
16.3786	-0.2022491	0.3615157	-0.006097276	-0.006468743	-0.1380581	-0.1627652	0	0
16.39554	-0.2022239	0.3611407	0.001491237	-0.02214422	0.2264924	-0.4678619	0	0
16.4283	-0.1932423	0.3535145	0.2741398	-0.2327722	5.485909	-4.238006	0	0
16.44487	-0.1870761	0.3443176	0.3721956	-0.5551229	1.987762	-6.534608	0	0
16.46159	-0.1820156	0.3317997	0.3026644	-0.7486899	-2.088836	-5.815086	0	0
16.4781	-0.1788321	0.3098846	0.1928251	-1.327381	-3.305444	-17.41482	0	0
16.49461	-0.1774046	0.29112	0.08644829	-1.136425	-3.221398	5.78271	0	0
16.51114	-0.176104	0.2712827	0.0787048	-1.200422	-0.234387	-1.93711	0	0
16.5277	-0.1747518	0.2452873	0.08163141	-1.569265	0.08844215	-11.14649	0	0
16.54427	-0.1743945	0.2270138	0.02156667	-1.102991	-1.812862	14.07301	0	0
16.56084	-0.1747007	0.2045624	-0.0184861	-1.355175	-1.208795	-7.610926	0	0
16.57767	-0.1754662	0.188982	-0.04547378	-0.925513	-0.8079781	12.86355	0	0
16.59397	-0.1762061	0.1791006	-0.04538673	-0.6062157	0.002627027	9.636414	0	0
16.61054	-0.1777106	0.1601453	-0.09081244	-1.144146	-1.382089	-16.36668	0	0
16.62721	-0.1787046	0.1511994	-0.05963837	-0.5366952	0.9379739	18.27715	0	0
16.64372	-0.1809973	0.1301673	-0.1388472	-1.273756	-2.387228	-22.21385	0	0
16.66073	-0.1821938	0.1223774	-0.07032564	-0.457862	2.043865	24.33654	0	0
16.67681	-0.1850429	0.1081895	-0.1772586	-0.882705	-3.231893	-12.84027	0	0
16.69337	-0.1878889	0.09663987	-0.1717886	-0.6971379	0.1675805	5.685186	0	0
16.70994	-0.1907827	0.08888708	-0.1746659	-0.4679594	-0.08683693	6.916621	0	0
16.72678	-0.1936478	0.08117591	-0.1701599	-0.4579605	0.134889	0.2993222	0	0
16.74329	-0.1977751	0.07197429	-0.2499558	-0.5572712	-2.392679	-2.977834	0	0
16.77659	-0.2027289	0.05910572	-0.1487695	-0.3864612	2.031427	3.429203	0	0
16.80972	-0.2060342	0.03836499	-0.09975598	-0.6259564	0.7377899	-3.605067	0	0
16.87599	-0.2110466	0.023533	-0.07563889	-0.2238215	0.2426231	4.045563	0	0
16.89256	-0.2110466	0.023533	0	0	0.9131355	2.702041	0	0
16.90912	-0.2110718	0.0235517	-0.001519147	0.001128342	-0.04584795	0.03405344	0	0
16.92592	-0.2110969	0.02357039	-0.001497388	0.001112951	0.0006521373	-0.0004613034	0	0
16.94226	-0.2110969	0.02357039	0	0	0.04519127	-0.03358892	0	0
16.95895	-0.2110969	0.02360778	0	0.002239778	0	0.06781133	0	0
16.97546	-0.2111221	0.02362648	-0.001523686	0.001132497	-0.04589247	-0.03335064	0	0
16.99198	-0.2111472	0.02368256	-0.001523708	0.003395303	-6.767976E-07	0.06851643	0	0
17.02509	-0.2111976	0.02371995	-0.00151966	0.001129113	8.156864E-05	-0.04566065	0	0
17.04166	-0.2112227	0.02373864	-0.001518248	0.001128342	2.842152E-05	-1.552182E-05	0	0
17.05823	-0.2112227	0.02373864	0	0	0.04582081	-0.03405344	0	0
17.07479	-0.2112227	0.02373864	0	0	0	0	0	0
17.09154	-0.2112227	0.02373864	0	0	0	0	0	0
17.10793	-0.2112227	0.02373864	0	0	0	0	0	0
17.12457	-0.2112227	0.02373864	0	0	0	0	0	0
17.14106	-0.2112227	0.02373864	0	0	0	0	0	0
17.15763	-0.2112227	0.02373864	0	0	0	0	0	0
17.1746	-0.2111976	0.02371995	0.001481908	-0.001101335	0.04418235	-0.03283576	0	0
17.19076	-0.2111976	0.02371995	0	0	-0.04472665	0.03324027	0	0
17.20733	-0.2111976	0.02371995	0	0	0	0	0	0
17.27697	-0.2111976	0.02371995	0	0	0	0	0	0
17.29353	-0.2111976	0.02371995	0	0	0	0	0	0
17.3101	-0.2111976	0.02371995	0	0	0	0	0	0
17.32667	-0.2111976	0.02371995	0	0	0	0	0	0
17.34324	-0.2111976	0.02371995	0	0	0	0	0	0
17.3598	-0.2111976	0.02371995	0	0	0	0	0	0
17.37637	-0.2111976	0.02371995	0	0	0	0	0	0
17.39293	-0.2112227	0.02373864	-0.001518248	0.001128342	-0.04582081	0.03405344	0	0
17.4095	-0.2112227	0.02373864	0	0	0.04582081	-0.03405344	0	0
17.42607	-0.2112227	0.02377603	0	0.002256685	0	0.06810688	0	0
17.44279	-0.211273	0.0238508	-0.003008989	0.00447116	-0.09038482	0.066519	0	0
17.45931	-0.2112982	0.02390688	-0.001522982	0.003395469	0.04470623	-0.03236194	0	0
17.47577	-0.2112982	0.02390688	0	0	0.04618435	-0.1029674	0	0
17.49234	-0.2112982	0.02390688	0	0	0	0	0	0
17.51183	-0.2112982	0.02394427	0	0.001918429	0	0.05320615	0	0
17.52885	-0.2113988	0.02424334	-0.005910791	0.01756467	-0.1618761	0.4284964	0	0
17.54496	-0.2114743	0.02463583	-0.004684725	0.02436711	0.03700273	0.2052982	0	0
17.56153	-0.2114743	0.02493485	0	0.01804842	0.1433743	-0.1933814	0	0
17.57809	-0.2122037	0.02693386	-0.04403336	0.1206746	-1.329006	3.097441	0	0
17.66095	-0.2114491	0.03219699	0.00910721	0.063522	0.5345029	-0.5748567	0	0
17.69406	-0.2061855	0.04606532	0.1589481	0.4187883	1.292059	3.063416	0	0
17.71063	-0.2054542	0.0555485	0.04414072	0.5724059	-2.310815	3.09198	0	0
17.7272	-0.204647	0.06547114	0.04872154	0.5989317	0.1382496	0.8005483	0	0
17.74401	-0.2039658	0.078412	0.04052962	0.7698553	-0.2454385	5.121046	0	0
17.76033	-0.2032843	0.08472953	0.04174913	0.3870305	0.03680715	-11.55434	0	0
17.77703	-0.2015166	0.09689684	0.1058435	0.7285491	1.940852	10.34158	0	0
17.79354	-0.2003038	0.1058086	0.07345302	0.5397163	-0.9752446	-5.685565	0	0
17.81005	-0.1994949	0.1179572	0.04898854	0.7357503	-0.7408131	5.936137	0	0
17.82707	-0.199065	0.1275051	0.02526734	0.5612549	-0.7075979	-5.205159	0	0
17.84316	-0.1994949	0.1415121	-0.02670135	0.8701079	-1.569593	9.328185	0	0
17.85973	-0.2000258	0.1533782	-0.0320433	0.7162361	-0.1635364	-4.710568	0	0
17.8766	-0.200607	0.1713044	-0.03445236	1.062459	-0.07204204	10.35368	0	0
17.89287	-0.2009355	0.1860028	-0.02020016	0.9038465	0.4301324	-4.786945	0	0
17.90943	-0.2011629	0.2015714	-0.01372629	0.9397216	0.197198	1.092777	0	0
17.92614	-0.2011377	0.2230063	0.00151273	1.283031	0.45799	10.31775	0	0
17.94257	-0.2009103	0.2387572	0.01384172	0.9587805	0.3720897	-9.785906	0	0
17.95914	-0.2006323	0.2488558	0.01677808	0.609554	0.0889933	-10.58415	0	0
17.9757	-0.2004554	0.2583006	0.0106781	0.5700904	-0.1840976	-1.191015	0	0
18.00884	-0.1980534	0.2971798	0.07249364	1.173377	1.243731	12.13815	0	0
18.0254	-0.1970413	0.3129394	0.06108968	0.9512488	-0.229448	-4.46923	0	0
18.04197	-0.1965857	0.3165477	0.02749845	0.2177966	-1.013785	-22.13563	0	0
18.05874	-0.1958009	0.3304603	0.0468039	0.8297406	0.5791392	18.35755	0	0
18.07525	-0.1946866	0.3434248	0.06749383	0.7852465	0.6217389	-1.337064	0	0
18.09167	-0.1942813	0.3526751	0.02468151	0.5632803	-1.300011	-6.740078	0	0
18.10827	-0.1946106	0.3613371	-0.01983732	0.521759	-1.348082	-1.257313	0	0
18.1248	-0.1953451	0.3715372	-0.04443309	0.6170297	-0.7423443	2.875441	0	0
18.14137	-0.1952438	0.378077	0.006115265	0.3947426	1.527223	-6.715984	0	0
18.15794	-0.1958516	0.3816513	-0.03668349	0.2157459	-1.291669	-5.402132	0	0
18.17482	-0.1936985	0.3876754	0.1275359	0.3568329	4.909521	4.217953	0	0
18.19107	-0.1940026	0.3905003	-0.01870929	0.1738132	-4.413689	-5.523545	0	0
18.22436	-0.192634	0.3915016	0.04111972	0.03008596	1.207795	-2.901485	0	0
18.24087	-0.192634	0.3915016	0	0	-0.8257775	-0.6041946	0	0
18.25734	-0.1926593	0.3914838	-0.001538798	-0.001085572	-0.04665319	-0.0329123	0	0
18.27391	-0.192634	0.3914659	0.00152994	-0.001079323	0.09288204	0.0001891413	0	0
18.29047	-0.1926086	0.3914122	0.00153084	-0.003237969	2.714469E-05	-0.06514807	0	0
18.30704	-0.1926086	0.3913407	0	-0.004317292	-0.04620084	-0.03257402	0	0
18.32361	-0.1925833	0.3912513	0.00152994	-0.005396615	0.04617369	-0.03257404	0	0
18.34018	-0.1925072	0.3911619	0.004590721	-0.005396615	0.09237454	0	0	0
18.35674	-0.1924565	0.3910546	0.00306078	-0.006475938	-0.0461737	-0.03257404	0	0
18.37331	-0.1924312	0.3910367	0.00152994	-0.001079323	-0.04620084	0.1628702	0	0
18.38988	-0.1924312	0.3910367	0	0	-0.04617369	0.03257403	0	0
18.40644	-0.1924565	0.3910188	-0.00152994	-0.001079323	-0.04617369	-0.03257403	0	0
18.42301	-0.1924312	0.391001	0.00152994	-0.001079323	0.09234738	0	0	0
18.43958	-0.1924312	0.3909652	0	-0.002158646	-0.04617369	-0.03257403	0	0
18.45653	-0.1924058	0.3909115	0.001496048	-0.003164379	0.04463185	-0.03000419	0	0
18.47276	-0.1923297	0.3908579	0.004687316	-0.003306101	0.09618531	-0.004271521	0	0
18.48928	-0.1923297	0.3908221	0	-0.002164377	-0.1431278	0.03486267	0	0
18.50606	-0.1923297	0.3907864	0	-0.002130924	0	0.001004413	0	0
18.55555	-0.1923044	0.3907685	0.0005125222	-0.0003613552	0.007734198	0.02670361	0	0
18.57211	-0.192279	0.3907149	0.00152994	-0.003237969	0.01540341	-0.04355109	0	0
18.58868	-0.1922537	0.3906612	0.00153084	-0.003237969	2.714469E-05	0	0	0
18.60525	-0.1922283	0.3906433	0.001530117	-0.001079447	-2.183014E-05	0.06514807	0	0
18.62215	-0.192203	0.3906254	0.001500099	-0.001057649	-0.0008968019	0.0006512422	0	0
18.63838	-0.192203	0.3905897	0	-0.002203808	-0.04527307	-0.03459115	0	0
18.65495	-0.192203	0.3905897	0	0	0	0.06719962	0	0
18.67152	-0.1921776	0.390536	0.00152994	-0.003237969	0.04617369	-0.09772211	0	0
18.68808	-0.1921269	0.3904645	0.00306168	-0.004317292	0.04622798	-0.03257402	0	0
18.70465	-0.1919241	0.3901784	0.01224543	-0.01726936	0.2771821	-0.3909166	0	0
18.73778	-0.1917973	0.3898745	0.00382665	-0.009173347	-0.1693927	0.1628983	0	0
18.75435	-0.1918226	0.3898566	-0.001531016	-0.001079447	-0.1078006	0.1628558	0	0
18.77092	-0.191848	0.3898387	-0.00152994	-0.001079323	3.246588E-05	3.75255E-06	0	0
18.78748	-0.1918733	0.3898208	-0.00153084	-0.001079323	-2.714469E-05	0	0	0
18.80405	-0.1918733	0.3898208	0	0	0.04620084	0.03257403	0	0
18.82062	-0.1918733	0.3898208	0	0	0	0	0	0
18.83718	-0.1918733	0.3898208	0	0	0	0	0	0
18.85375	-0.1918733	0.3898208	0	0	0	0	0	0
18.87032	-0.1918733	0.3898208	0	0	0	0	0	0
18.88734	-0.1918733	0.3898208	0	0	0	0	0	0
18.92002	-0.1918733	0.3898208	0	0	0	0	0	0
18.93658	-0.1918733	0.3898208	0	0	0	0	0	0
18.95338	-0.1918733	0.3898208	0	0	0	0	0	0
18.96989	-0.1918733	0.3898208	0	0	0	0	0	0
18.98628	-0.1918733	0.3898208	0	0	0	0	0	0
19.01943	-0.1918733	0.3897851	0	-0.00107895	0	-0.02178125	0	0
19.03599	-0.1918733	0.3897851	0	0	0	0.02170852	0	0
19.05255	-0.1918733	0.3897851	0	0	0	0	0	0
19.06948	-0.1918733	0.3897851	0	0	0	0	0	0
19.08569	-0.1918733	0.3897851	0	0	0	0	0	0
19.10225	-0.1918733	0.3897851	0	0	0	0	0	0
19.11882	-0.1918733	0.3897851	0	0	0	0	0	0
19.13539	-0.1918733	0.3897851	0	0	0	0	0	0
19.15195	-0.1918733	0.3897851	0	0	0	0	0	0
19.16852	-0.1918733	0.3897851	0	0	0	0	0	0
19.18509	-0.1918733	0.3897851	0	0	0	0	0	0
19.20165	-0.1918733	0.3897851	0	0	0	0	0	0
19.21822	-0.1918733	0.3897851	0	0	0	0	0	0
19.23479	-0.1918733	0.3897851	0	0	0	0	0	0
19.25136	-0.1918733	0.3897851	0	0	0	0	0	0
19.28462	-0.1918733	0.3897851	0	0	0	0	0	0
19.30114	-0.1918733	0.3897851	0	0	0	0	0	0
19.31762	-0.1918733	0.3897851	0	0	0	0	0	0
19.33419	-0.1918733	0.3897851	0	0	0	0	0	0
19.35076	-0.1918733	0.3897851	0	0	0	0	0	0
19.36732	-0.1918733	0.3897851	0	0	0	0	0	0
19.38389	-0.1918733	0.3897851	0	0	0	0	0	0
19.40046	-0.1918733	0.3897851	0	0	0	0	0	0
19.41722	-0.1918733	0.3897851	0	0	0	0	0	0
19.43359	-0.1918733	0.3897851	0	0	0	0	0	0
19.45025	-0.1918733	0.3897851	0	0	0	0	0	0
19.46676	-0.1918733	0.3897851	0	0	0	0	0	0
19.48329	-0.1918733	0.3897851	0	0	0	0	0	0
19.49986	-0.1918733	0.3897851	0	0	0	0	0	0
19.51643	-0.1918987	0.389803	-0.00153084	0.001079323	-0.04619818	0.03257216	0	0
19.533	-0.1918733	0.3898208	0.001531016	0.001079447	0.09241232	3.75255E-06	0	0
19.54981	-0.1919241	0.3898566	-0.003015848	0.002126333	-0.1361976	0.03135859	0	0
19.58434	-0.1920255	0.3901427	-0.002937942	0.008285971	0.001517342	0.1199682	0	0
19.60085	-0.1921016	0.3903394	-0.004607002	0.01191233	-0.03270304	0.07105366	0	0
19.61738	-0.1922537	0.3905182	-0.009201409	0.01081384	-0.1390357	-0.03324224	0	0
19.63395	-0.1921523	0.390697	0.00612156	0.01079323	0.4629278	-0.0006226894	0	0
19.65052	-0.1920508	0.3907685	0.00612246	0.004317292	2.715172E-05	-0.1954442	0	0
19.66709	-0.1920255	0.3907864	0.00152994	0.001079323	-0.1386025	-0.0977221	0	0
19.70022	-0.191848	0.3908758	0.00535749	0.002698308	0.07701045	0.03257404	0	0
19.71694	-0.191848	0.3908758	0	0	-0.1074712	-0.05412804	0	0
19.73345	-0.1917973	0.3908758	0.003071034	0	0.09242329	0	0	0
19.74996	-0.1915944	0.3907327	0.01228774	-0.008663509	0.2790927	-0.2623411	0	0
19.76649	-0.1913915	0.3905897	0.0122764	-0.008655511	-0.0003433923	0.0002420829	0	0
19.78305	-0.1910617	0.3903215	0.01990362	-0.01618805	0.2304685	-0.2276075	0	0
19.79962	-0.1909856	0.3902678	0.004593419	-0.003237969	-0.4620627	0.3908341	0	0
19.81619	-0.1907827	0.3901248	0.01225032	-0.008634584	0.2310856	-0.1628702	0	0
19.83276	-0.1906305	0.3900175	0.009187737	-0.006475938	-0.09242881	0.06514805	0	0
19.84932	-0.190529	0.3899103	0.006126058	-0.00647414	-0.09240168	5.428939E-05	0	0
19.86589	-0.1904275	0.3897672	0.006126763	-0.008635579	2.129256E-05	-0.06523611	0	0
19.88246	-0.1898946	0.3893202	0.03216473	-0.02697948	0.7858725	-0.5536519	0	0
19.89902	-0.1876604	0.3877111	0.1348587	-0.09712468	3.099311	-2.116987	0	0
19.91559	-0.1831862	0.3845291	0.2700601	-0.1920691	4.080387	-2.865429	0	0
19.93216	-0.1775576	0.3805433	0.339743	-0.2405847	2.103034	-1.464203	0	0
19.94872	-0.175951	0.3792386	0.09697717	-0.07874741	-7.326688	4.884259	0	0
19.96529	-0.176053	0.3791671	-0.006159337	-0.004315493	-3.112666	2.24636	0	0
19.98213	-0.1763591	0.3786668	-0.01818019	-0.0297206	-0.3598693	-0.7605546	0	0
19.99842	-0.1748794	0.3767725	0.09080111	-0.1162365	3.289252	-2.611206	0	0
20.01499	-0.1679042	0.3715015	0.4210232	-0.3181593	10.04826	-6.144263	0	0
20.03166	-0.1612457	0.3654633	0.3993751	-0.3621743	-0.6512802	-1.324184	0	0
20.04818	-0.1581934	0.3494428	0.1848585	-0.9702408	-6.464447	-18.32406	0	0
20.06469	-0.1588349	0.332139	-0.03884235	-1.047716	-6.77314	-2.345764	0	0
20.08126	-0.1595019	0.3123499	-0.04026145	-1.194471	-0.04289499	-4.435961	0	0
20.09783	-0.1599379	0.2913882	-0.02632019	-1.265251	0.4207479	-2.136149	0	0
20.11439	-0.1603739	0.2625995	-0.02631659	-1.737689	0.0001085507	-14.2582	0	0
20.14753	-0.1605791	0.234198	-0.006191267	-0.8571602	0.4049224	17.71627	0	0
20.16409	-0.1611688	0.2064536	-0.03559607	-1.674651	-0.5916259	-16.44794	0	0
20.18066	-0.1626555	0.1656005	-0.08973492	-2.465898	-1.633914	-23.87989	0	0
20.19723	-0.1635522	0.1523071	-0.05412895	-0.8023958	1.07459	50.20459	0	0
20.23081	-0.1664201	0.1082261	-0.08540676	-1.312758	-0.6237336	-10.1775	0	0
20.24736	-0.167853	0.09079897	-0.08656949	-1.052876	-0.02319391	5.184076	0	0
20.26393	-0.1694897	0.06913043	-0.09879404	-1.307916	-0.3691075	-7.700663	0	0
20.28085	-0.1707167	0.0540283	-0.07252325	-0.8926567	0.7845442	12.40119	0	0
20.29708	-0.1723518	0.04005893	-0.1007499	-0.8607327	-0.85154	0.9630805	0	0
20.31363	-0.1744455	0.02274773	-0.1264908	-1.045869	-0.7852242	-5.64757	0	0
20.33019	-0.1754152	0.01477293	-0.05853169	-0.4813598	2.051956	17.04478	0	0
20.34689	-0.1790869	-0.003756406	-0.2198744	-1.109619	-4.850067	-18.88588	0	0
20.39646	-0.1867712	-0.03713356	-0.1550196	-0.6733325	0.97866	6.583569	0	0
20.41303	-0.1876349	-0.04350121	-0.0521358	-0.3843526	1.555609	4.369393	0	0
20.4296	-0.1890062	-0.05531945	-0.08276879	-0.7133502	-0.9245055	-9.92917	0	0
20.44617	-0.1896154	-0.06068983	-0.0367683	-0.3241194	1.388218	11.74634	0	0
20.46298	-0.190326	-0.06718612	-0.04226674	-0.3864222	-0.1647201	-1.866445	0	0
20.4793	-0.1913661	-0.07410248	-0.06373634	-0.4238153	-0.6480284	-1.128656	0	0
20.49586	-0.1900722	-0.07527939	0.07810791	-0.07104697	4.313395	10.72746	0	0
20.51243	-0.1900976	-0.07526009	-0.001531739	0.001165219	-2.403668	2.179494	0	0
20.529	-0.190123	-0.07524079	-0.001531739	0.001164769	0	-1.357235E-05	0	0
20.54556	-0.190123	-0.07524079	0	0	0.04622798	-0.03515281	0	0
20.56213	-0.190123	-0.07524079	0	0	0	0	0	0
20.57906	-0.190123	-0.07524079	0	0	0	0	0	0
20.59526	-0.190123	-0.07524079	0	0	0	0	0	0
20.61183	-0.1901484	-0.07522149	-0.001531739	0.001164769	-0.04673918	0.03554153	0	0
20.6284	-0.1901484	-0.07522149	0	0	0.04622798	-0.03515281	0	0
20.64497	-0.1901484	-0.07522149	0	0	0	0	0	0
20.66153	-0.1901484	-0.07522149	0	0	0	0	0	0
20.6781	-0.1901484	-0.07522149	0	0	0	0	0	0
20.69467	-0.1901484	-0.07522149	0	0	0	0	0	0
20.71123	-0.1901484	-0.07522149	0	0	0	0	0	0
20.7278	-0.1901484	-0.07522149	0	0	0	0	0	0
20.74437	-0.1901484	-0.07522149	0	0	0	0	0	0
20.76093	-0.1901484	-0.07522149	0	0	0	0	0	0
20.7775	-0.1901484	-0.07522149	0	0	0	0	0	0
20.79407	-0.1901484	-0.07522149	0	0	0	0	0	0
20.82724	-0.1901484	-0.07522149	0	0	0	0	0	0
20.84377	-0.1901484	-0.07522149	0	0	0	0	0	0
20.86033	-0.190123	-0.0752022	0.001531916	0.001164904	0.04628659	0.03519738	0	0
20.8769	-0.190123	-0.0752022	0	0	-0.04623597	-0.03515888	0	0
20.91124	-0.1901484	-0.07522149	-0.0007391082	-0.0005620347	-0.01452039	-0.01104163	0	0
20.9278	-0.1901484	-0.07522149	0	0	0.01452039	0.01104163	0	0
20.94437	-0.1901484	-0.07522149	0	0	0	0	0	0
20.96133	-0.1901484	-0.07522149	0	0	0	0	0	0
20.9775	-0.1901484	-0.07522149	0	0	0	0	0	0
20.99407	-0.1901484	-0.07522149	0	0	0	0	0	0
21.01087	-0.1901484	-0.07522149	0	0	0	0	0	0
21.02738	-0.1901484	-0.07522149	0	0	0	0	0	0
21.04377	-0.1901484	-0.07522149	0	0	0	0	0	0
21.06034	-0.1901484	-0.07522149	0	0	0	0	0	0
21.0769	-0.1901484	-0.07522149	0	0	0	0	0	0
21.09347	-0.1901484	-0.07522149	0	0	0	0	0	0
21.11004	-0.190123	-0.0752022	0.001531916	0.001164904	0.04623597	0.03515888	0	0
21.12695	-0.190123	-0.0752022	0	0	-0.04575656	-0.03479433	0	0
21.14317	-0.190123	-0.0752022	0	0	0	0	0	0
21.15974	-0.190123	-0.0752022	0	0	0	0	0	0
21.17631	-0.190123	-0.0752022	0	0	0	0	0	0
21.19287	-0.190123	-0.0752022	0	0	0	0	0	0
21.20951	-0.190123	-0.0752022	0	0	0	0	0	0
21.27571	-0.1939773	-0.06995831	-0.05822648	0.07921927	-0.7029276	0.9563589	0	0
21.29227	-0.2001774	-0.06408988	-0.3742418	0.3542194	-3.818373	3.322792	0	0
21.30884	-0.2101658	-0.0528486	-0.6029018	0.6785252	-6.900972	9.787568	0	0
21.32541	-0.2150186	-0.04605972	-0.2929166	0.4097774	9.355371	-8.110826	0	0
21.34197	-0.2211141	-0.02392603	-0.3679629	1.336146	-2.265032	27.95946	0	0
21.35862	-0.2219906	-0.01398607	-0.05266767	0.5972274	9.494314	-22.25065	0	0
21.37513	-0.2223161	0.001497021	-0.01971309	0.9376916	0.9939418	10.26873	0	0
21.39167	-0.2223912	0.01694627	-0.004539428	0.9338087	0.4590254	-0.1174647	0	0
21.40824	-0.2220407	0.03756429	0.02115743	1.244506	0.7760688	9.383346	0	0
21.42481	-0.2211892	0.05810557	0.05139736	1.239874	0.912643	-0.1397831	0	0
21.44168	-0.219786	0.07850415	0.08317464	1.209127	0.9503419	-0.9195354	0	0
21.45794	-0.2192345	0.08848254	0.03390486	0.6134553	-1.486879	-17.97638	0	0
21.4747	-0.2185073	0.1032982	0.0433929	0.8840947	0.2873088	8.195275	0	0
21.49107	-0.2168766	0.1229616	0.09960119	1.200992	1.696565	9.565084	0	0
21.50772	-0.2159478	0.1382186	0.05578567	0.9163752	-1.326861	-8.619027	0	0
21.52423	-0.2154456	0.1433491	0.03041524	0.3107159	-0.7650647	-18.26412	0	0
21.54125	-0.2139886	0.168933	0.08562924	1.503566	1.646834	35.57839	0	0
21.55734	-0.2125809	0.1944858	0.08748407	1.588078	0.05602724	2.552771	0	0
21.59128	-0.2111724	0.2254146	0.04149633	0.9111962	-0.9191377	-13.52855	0	0
21.60778	-0.2103672	0.2412154	0.04881254	0.9578167	0.1450482	0.924278	0	0
21.62435	-0.2096623	0.2622234	0.04254242	1.268045	-0.1896367	9.382707	0	0
21.64091	-0.2091084	0.2776532	0.03343563	0.9313425	-0.2748434	-10.16171	0	0
21.65748	-0.208504	0.2933546	0.03648382	0.947741	0.09199452	0.4949074	0	0
21.67405	-0.2076474	0.3138683	0.05170227	1.238207	0.4592939	8.766271	0	0
21.69086	-0.207345	0.3281924	0.01798515	0.8519498	-1.010084	-11.57133	0	0
21.70718	-0.2066141	0.3452819	0.04478333	1.04708	0.8087707	5.889028	0	0
21.72388	-0.2065889	0.3564434	0.001510196	0.6685494	-1.310663	-11.46498	0	0
21.74039	-0.2063872	0.3630518	0.01221374	0.4002234	0.3223286	-8.080417	0	0
21.7569	-0.2050002	0.373574	0.08399994	0.6372498	2.173769	7.177434	0	0
21.77345	-0.2034357	0.3786489	0.09454062	0.3066703	0.3188341	-9.999357	0	0
21.79043	-0.2014156	0.3832242	0.1190054	0.2695277	0.72978	-1.107955	0	0
21.80658	-0.2028804	0.3850832	-0.09065857	0.115058	-6.328037	-4.662175	0	0
21.82315	-0.2014156	0.3864418	0.08841455	0.08200517	5.472162	-1.010037	0	0
21.83996	-0.2004807	0.3871033	0.0556111	0.03934614	-0.9827688	-1.278035	0	0
21.85629	-0.2004049	0.3869781	0.004644777	-0.007666438	-1.538167	-1.418842	0	0
21.87285	-0.2004049	0.3869781	0	0	-0.1412202	0.233091	0	0
21.88942	-0.2004049	0.3869781	0	0	0	0	0	0
21.90599	-0.2004049	0.3869781	0	0	0	0	0	0
21.92255	-0.2003796	0.3869603	0.001525443	-0.001079323	0.04603797	-0.03257403	0	0
21.93912	-0.2003796	0.3869245	0	-0.002158646	-0.04603797	-0.03257403	0	0
21.95569	-0.2003291	0.386853	0.003050887	-0.004315493	0.09207594	-0.06509378	0	0
21.98882	-0.2002027	0.3867279	0.003814058	-0.003776731	0.01535504	0.01083991	0	0
22.00558	-0.2002027	0.3867279	0	0	-0.07643978	0.0756917	0	0
22.10516	-0.2001774	0.38671	0.000253812	-0.0001795839	0.002181771	-0.001543706	0	0
22.12136	-0.2001774	0.38671	0	0	-0.002192303	0.001551157	0	0
22.13818	-0.2001774	0.38671	0	0	0	0	0	0
22.15449	-0.2002027	0.3866921	-0.001549164	-0.001096107	-0.04675386	-0.03308056	0	0
22.17106	-0.2001774	0.3866742	0.001525443	-0.001079323	0.09350773	0.0005104379	0	0
22.18763	-0.2001269	0.3866385	0.003051238	-0.002158895	0.04605122	-0.03258341	0	0
22.20419	-0.2001016	0.3866206	0.001525443	-0.001077524	-0.04605122	0.0326377	0	0
22.22076	-0.2001016	0.3866206	0	0	-0.04603797	0.03251974	0	0
22.23733	-0.2001016	0.3866206	0	0	0	0	0	0
22.25389	-0.2001016	0.3866206	0	0	0	0	0	0
22.27046	-0.2001016	0.3865848	0	-0.002158895	0	-0.06516308	0	0
22.30375	-0.1999246	0.3863882	0.005314398	-0.005905582	0.1065823	-0.07514127	0	0
22.32032	-0.1995707	0.3861022	0.02135914	-0.01726358	0.321759	-0.2277717	0	0
22.33689	-0.1989386	0.3856553	0.03816376	-0.02698209	0.5071934	-0.2933221	0	0
22.35345	-0.1989386	0.3856553	0	0	-1.151917	0.814415	0	0
22.37002	-0.1989133	0.3856374	0.001526343	-0.001079323	0.04606511	-0.03257403	0	0
22.38659	-0.1989386	0.3856195	-0.001526518	-0.001077648	-0.09214083	5.054699E-05	0	0
22.40315	-0.198888	0.385548	0.003052685	-0.004317292	0.1382086	-0.09777827	0	0
22.41972	-0.1987869	0.3854407	0.00610627	-0.00647414	0.09215736	-0.06509379	0	0
22.43629	-0.1986857	0.3853335	0.00610627	-0.00647414	0	0	0	0
22.45341	-0.1983822	0.3850475	0.01772104	-0.01670043	0.3447202	-0.3035109	0	0
22.46942	-0.1984075	0.3850296	-0.001579627	-0.001115141	-0.5824952	0.4703648	0	0
22.48599	-0.1984581	0.3849581	-0.003053936	-0.004317789	-0.04526072	-0.09832008	0	0
22.50256	-0.1984581	0.3849224	0	-0.002156847	0.09217329	0.06522112	0	0
22.51912	-0.1984834	0.3848687	-0.001526343	-0.003237969	-0.04606511	-0.03262833	0	0
22.53569	-0.1984834	0.384833	0	-0.002156847	0.04606511	0.03262833	0	0
22.55226	-0.1984581	0.3848151	0.001526167	-0.001079199	0.04605716	0.03252162	0	0
22.56882	-0.1984581	0.3848151	0	0	-0.04605981	0.03257028	0	0
22.5855	-0.1984581	0.3848151	0	0	0	0	0	0
22.60201	-0.1984581	0.3848151	0	0	0	0	0	0
22.61852	-0.1984581	0.3848151	0	0	0	0	0	0
22.63509	-0.1984581	0.3848151	0	0	0	0	0	0
22.65166	-0.1984581	0.3848151	0	0	0	0	0	0
22.82281	-0.1984834	0.384833	-0.0001477457	0.0001044754	-0.0007870483	0.0005565456	0	0
22.83938	-0.1984834	0.384833	0	0	0.0007870403	-0.00055654	0	0
22.85619	-0.1984834	0.384833	0	0	0	0	0	0
22.87251	-0.1984834	0.384833	0	0	0	0	0	0
22.88922	-0.1984834	0.384833	0	0	0	0	0	0
22.90573	-0.1984581	0.3848151	0.001531456	-0.001082939	0.04610531	-0.03260245	0	0
22.92224	-0.1984581	0.3848151	0	0	-0.04637426	0.03279264	0	0
22.93878	-0.1984328	0.3847972	0.001529708	-0.001081066	0.04628123	-0.03270758	0	0
22.95535	-0.1984328	0.3847615	0	-0.002156847	-0.0462039	-0.03249334	0	0
22.97192	-0.1983569	0.3846721	0.004579927	-0.005394816	0.1382225	-0.09772211	0	0
23.00697	-0.198281	0.3845827	0.00216473	-0.002549893	-0.0467893	0.05511434	0	0
23.02382	-0.1982557	0.3845291	0.001501826	-0.003184082	-0.01277299	-0.0122197	0	0
23.0401	-0.1982051	0.3844934	0.003106153	-0.002193978	0.04841869	0.02988142	0	0
23.05684	-0.1981799	0.3844755	0.001510862	-0.001068376	-0.04830726	0.03408452	0	0
23.07323	-0.1981546	0.3844576	0.001543232	-0.001090624	0.0009770017	-0.0006714675	0	0
23.10687	-0.1981546	0.3844576	0	0	-0.03084394	0.02179784	0	0
23.12329	-0.1981546	0.3844576	0	0	0	0	0	0
23.13985	-0.1981799	0.3844397	-0.001527418	-0.001079447	-0.04631619	-0.03273229	0	0
23.15691	-0.1981799	0.384404	0	-0.002095099	0.0454307	-0.030209	0	0
23.17298	-0.1981799	0.384404	0	0	0	0.06323385	0	0
23.18955	-0.1981799	0.384404	0	0	0	0	0	0
23.20612	-0.1981799	0.384404	0	0	0	0	0	0
23.22295	-0.1982051	0.3843861	-0.001501961	-0.001062082	-0.04496433	-0.03179564	0	0
23.23925	-0.1982051	0.3843861	0	0	0.04532928	0.03205371	0	0
23.25598	-0.1982304	0.3843682	-0.001512614	-0.001068985	-0.04580106	-0.03236824	0	0
23.27239	-0.1982304	0.3843682	0	0	0.04565078	0.03226204	0	0
23.28895	-0.1982304	0.3843682	0	0	0	0	0	0
23.30552	-0.1982304	0.3843682	0	0	0	0	0	0
23.32209	-0.1982304	0.3843682	0	0	0	0	0	0
23.33866	-0.1982051	0.3843503	0.001527242	-0.001079323	0.04609226	-0.03257403	0	0
23.35522	-0.1982051	0.3843503	0	0	-0.04609226	0.03257403	0	0
23.37179	-0.1982051	0.3843503	0	0	0	0	0	0
23.38836	-0.1982051	0.3843503	0	0	0	0	0	0
23.40509	-0.1982051	0.3843503	0	0	0	0	0	0
23.42149	-0.1982051	0.3843503	0	0	0	0	0	0
23.43811	-0.1982051	0.3843503	0	0	0	0	0	0
23.45463	-0.1982051	0.3843503	0	0	0	0	0	0
23.47119	-0.1981799	0.3843324	0.001526694	-0.001079572	0.04615543	-0.0326379	0	0
23.48776	-0.1981799	0.3843324	0	0	-0.04608103	0.03258529	0	0
23.50432	-0.1981546	0.3843146	0.001527242	-0.001077524	0.04609226	-0.03251974	0	0
23.52117	-0.1981546	0.3842788	0	-0.002122962	-0.04570811	-0.03128842	0	0
23.53773	-0.1980281	0.3841537	0.007637929	-0.007555143	0.2286442	-0.1626143	0	0
23.55402	-0.1968388	0.3832421	0.07298556	-0.05594676	1.989026	-1.472926	0	0
23.57059	-0.1917719	0.3796675	0.3058397	-0.2157621	7.08588	-4.863269	0	0
23.58722	-0.1872031	0.3763436	0.2747602	-0.1998935	-0.9362566	0.4780331	0	0
23.60373	-0.1775831	0.3695899	0.5825429	-0.4089751	9.286762	-6.308641	0	0
23.62029	-0.1718665	0.3655883	0.3452529	-0.2416736	-7.175055	5.058778	0	0
23.63686	-0.1671366	0.3622838	0.2854296	-0.1994166	-1.805783	1.275541	0	0
23.65377	-0.1650377	0.3608192	0.1241608	-0.08664004	-4.817463	3.36889	0	0
23.66999	-0.1639365	0.3600511	0.06786966	-0.04733418	-1.699067	1.18639	0	0
23.68656	-0.1639621	0.3600333	-0.00154613	-0.001077524	-2.116784	1.410563	0	0
23.70313	-0.1639365	0.3600154	0.00154613	-0.001077524	0.09332461	0	0	0
23.71969	-0.1638853	0.3599797	0.003092261	-0.002156847	0.0466623	-0.03257403	0	0
23.73626	-0.163834	0.359944	0.003092261	-0.002156847	0	0	0	0
23.75283	-0.163834	0.359944	0	0	-0.09332461	0.06509378	0	0
23.78636	-0.1638084	0.3599261	0.0007638751	-0.0005323574	0.01524691	-0.01062583	0	0
23.80288	-0.1638084	0.3598904	0	-0.002163572	-0.0152626	-0.03259247	0	0
23.81939	-0.1637828	0.3598368	0.00155131	-0.003243401	0.04697003	-0.03269469	0	0
23.83593	-0.1637316	0.3596939	0.003096539	-0.008637523	0.04674543	-0.1631801	0	0
23.8525	-0.163834	0.3594439	-0.006184521	-0.01509253	-0.2802966	-0.1949473	0	0
23.86907	-0.1643719	0.3583901	-0.03247067	-0.06361363	-0.7933633	-1.464454	0	0
23.88563	-0.1680065	0.3539252	-0.2193832	-0.2694998	-5.641356	-6.214014	0	0
23.9022	-0.1703078	0.3432819	-0.1389062	-0.6424329	2.428802	-11.25514	0	0
23.91877	-0.1710745	0.3284245	-0.04627778	-0.8967933	2.795531	-7.676613	0	0
23.93547	-0.1711511	0.3040779	-0.004590078	-1.457648	1.253016	-16.85773	0	0
23.95198	-0.1712278	0.283896	-0.004642197	-1.222264	-0.001569165	7.086769	0	0
23.96847	-0.1712022	0.255846	0.001550207	-1.701523	0.1876649	-14.52427	0	0
23.98503	-0.1711511	0.2346827	0.003084166	-1.277421	0.04640984	12.83119	0	0
24.0016	-0.171841	0.207264	-0.04163849	-1.654994	-1.349732	-11.39516	0	0
24.01817	-0.1721986	0.1939987	-0.02158646	-0.8006967	0.6051713	25.78273	0	0
24.03474	-0.1733478	0.1749776	-0.06936629	-1.148119	-1.441998	-10.48523	0	0
24.0513	-0.1747773	0.1569713	-0.08628378	-1.086859	-0.5105708	1.848848	0	0
24.06787	-0.1769202	0.1350505	-0.1293592	-1.323295	-1.300093	-7.136064	0	0
24.08444	-0.1789849	0.1156177	-0.1246303	-1.172967	0.1427249	4.537145	0	0
24.10109	-0.1800804	0.1069992	-0.06578392	-0.5175323	1.7714	19.72996	0	0
24.11763	-0.1817356	0.09252632	-0.1000777	-0.8750964	-1.033203	-10.7727	0	0
24.13414	-0.1839748	0.0810838	-0.1356432	-0.6931452	-1.076221	5.505876	0	0
24.1507	-0.1864663	0.07245424	-0.1503866	-0.5208818	-0.4457504	5.208215	0	0
24.16727	-0.1894885	0.06955529	-0.1824209	-0.1749807	-0.9667974	10.43931	0	0
24.20066	-0.1998994	0.06180855	-0.3118131	-0.2320206	-2.590158	-1.141817	0	0
24.21717	-0.2037639	0.05842046	-0.2340438	-0.2051907	1.558502	0.5376736	0	0
24.23368	-0.2031328	0.05699401	0.0382169	-0.08638918	8.24437	3.597448	0	0
24.25019	-0.2014914	0.0518582	0.09942254	-0.3110724	1.853485	-6.804061	0	0
24.2667	-0.2003543	0.04775582	0.06886227	-0.24845	-0.9254541	1.896387	0	0
24.28324	-0.1991662	0.04658556	0.07187374	-0.07079183	0.09113824	5.376592	0	0
24.2998	-0.1934451	0.04245891	0.3453258	-0.2490848	8.261835	-5.386785	0	0
24.31637	-0.1897169	0.03972392	0.2250317	-0.1650843	-3.630484	2.535142	0	0
24.33294	-0.1895646	0.03961225	0.009192235	-0.006740597	-6.514047	4.778821	0	0
24.3495	-0.18959	0.03963086	-0.001531739	0.001123395	-0.3236502	0.2373358	0	0
24.36607	-0.18959	0.03963086	0	0	0.04622798	-0.03390414	0	0
24.38279	-0.18959	0.03963086	0	0	0	0	0	0
24.3993	-0.18959	0.03963086	0	0	0	0	0	0
24.41577	-0.18959	0.03966809	0	0.002260287	0	0.06853119	0	0
24.44992	-0.18959	0.03970531	0	0.001090015	0	-0.02311917	0	0
24.46649	-0.1896154	0.03972392	-0.001532815	0.001123525	-0.0302244	0.0006607563	0	0
24.48306	-0.1896154	0.03972392	0	0	0.04624714	-0.03389829	0	0
24.49962	-0.1896154	0.03972392	0	0	0	0	0	0
24.51619	-0.1896154	0.03972392	0	0	0	0	0	0
24.53275	-0.1896154	0.03972392	0	0	0	0	0	0
24.54941	-0.1896408	0.03974254	-0.00152367	0.001117701	-0.04586301	0.0336432	0	0
24.56592	-0.1896408	0.03974254	0	0	0.0459395	-0.03369931	0	0
24.58246	-0.1896408	0.03974254	0	0	0	0	0	0
24.59902	-0.1896154	0.03972392	0.001531739	-0.00112362	0.04627327	-0.03394414	0	0
24.61559	-0.1896154	0.03972392	0	0	-0.04622798	0.03391093	0	0
24.63216	-0.1896154	0.03972392	0	0	0	0	0	0
24.64873	-0.1896154	0.03972392	0	0	0	0	0	0
24.71503	-0.18959	0.03970531	0.0003829503	-0.0002806954	0.004620963	-0.003387079	0	0
24.73156	-0.18959	0.03970531	0	0	-0.004623197	0.003388717	0	0
24.74813	-0.18959	0.03970531	0	0	0	0	0	0
24.76469	-0.18959	0.03970531	0	0	0	0	0	0
24.78158	-0.18959	0.03970531	0	0	0	0	0	0
24.79782	-0.18959	0.03970531	0	0	0	0	0	0
24.81439	-0.18959	0.03970531	0	0	0	0	0	0
24.83096	-0.18959	0.03970531	0	0	0	0	0	0
24.84762	-0.1896154	0.03972392	-0.001523692	0.001116838	-0.04585052	0.03360757	0	0
24.86414	-0.1896154	0.03972392	0	0	0.04592697	-0.0336636	0	0
24.88066	-0.1896408	0.03977976	-0.001535983	0.00337975	-0.04649793	0.1023132	0	0
24.89722	-0.1897931	0.04000309	-0.009191335	0.01348052	-0.2313586	0.3052636	0	0
24.91379	-0.1898692	0.04013337	-0.004596117	0.007863319	0.1386839	-0.1695275	0	0
24.93036	-0.1900976	0.04037529	-0.01378565	0.01460257	-0.2773408	0.2033909	0	0
24.94693	-0.1904528	0.04104515	-0.02144255	0.04043279	-0.2310856	0.7795578	0	0
24.96371	-0.1909856	0.04191951	-0.03174905	0.05210479	-0.3090581	0.3500051	0	0
24.98006	-0.1933944	0.04398369	-0.147294	0.1262214	-3.487153	2.236845	0	0
24.99673	-0.1984834	0.04894429	-0.305273	0.2975722	-4.783788	5.1887	0	0
25.0132	-0.2022744	0.05443622	-0.2302552	0.3335674	2.264043	1.086336	0	0
25.02976	-0.2042181	0.05853159	-0.117326	0.2471974	3.418836	-2.61478	0	0
25.04677	-0.2051516	0.07167892	-0.05488991	0.773103	1.859703	15.66447	0	0
25.06289	-0.2042938	0.07924136	0.05318876	0.4689408	3.262008	-9.180162	0	0
25.0968	-0.1977498	0.09665823	0.1929891	0.513638	2.794025	0.8933107	0	0
25.11326	-0.1960035	0.1006764	0.1061162	0.2441646	-1.724853	-5.350362	0	0
25.12983	-0.1938759	0.1057353	0.1284206	0.3053598	0.6754029	1.853062	0	0
25.14639	-0.1884476	0.1098738	0.327651	0.2497967	6.012786	-1.676898	0	0
25.16335	-0.1846106	0.1126002	0.2262883	0.1607943	-3.023625	-2.654923	0	0
25.17986	-0.1837204	0.1132405	0.05391049	0.03877326	-5.150489	-3.645873	0	0
25.19637	-0.1837204	0.1132405	0	0	-1.632472	-1.174099	0	0
25.21266	-0.1837459	0.1132222	-0.001561768	-0.001123064	-0.04761667	-0.03424105	0	0
25.22923	-0.1837459	0.1132222	0	0	0.0475365	0.0341834	0	0
25.24591	-0.1837459	0.1132222	0	0	0	0	0	0
25.26236	-0.1837713	0.1132039	-0.001546016	-0.001111737	-0.04665887	-0.03355229	0	0
25.27893	-0.1837967	0.1131856	-0.001535337	-0.001104058	0.0003234207	0.0002325696	0	0
25.2955	-0.1837967	0.113149	0	-0.002208369	0.04633923	-0.03333011	0	0
25.31206	-0.1838476	0.1131124	-0.003070674	-0.002208115	-0.09267846	7.673754E-06	0	0
25.32863	-0.1838476	0.1130758	0	-0.002208115	0.09267313	0	0	0
25.3452	-0.1838731	0.1130575	-0.001535337	-0.001104058	-0.04633657	0.03332052	0	0
25.37833	-0.1839239	0.1131307	-0.001535337	0.002208115	0	0.06664105	0	0
25.39502	-0.1849157	0.1138806	-0.05943447	0.04493773	-1.162123	0.857648	0	0
25.41153	-0.1894124	0.1171166	-0.2722942	0.1959568	-6.411203	4.5486	0	0
25.42803	-0.1948386	0.1210627	-0.3288529	0.2391532	-1.713157	1.308414	0	0
25.4446	-0.2006576	0.1252612	-0.3511956	0.2533932	-0.6756258	0.4306072	0	0
25.46117	-0.2032591	0.1271403	-0.1570425	0.1134346	5.859552	-4.223958	0	0
25.47773	-0.203562	0.1273592	-0.01828584	0.01321243	4.188166	-3.02506	0	0
25.4943	-0.203562	0.1273227	0	-0.002201819	0.5518994	-0.4652299	0	0
25.56057	-0.2035115	0.1272862	0.0007618441	-0.0005504706	0.009197212	0.01993558	0	0
25.57715	-0.2035115	0.1272862	0	0	-0.009195518	0.006644223	0	0
25.5937	-0.2035367	0.1273045	-0.001525049	0.001101924	-0.04602607	0.03325615	0	0
25.61027	-0.203562	0.1273227	-0.001523644	0.00110091	4.241247E-05	-3.064412E-05	0	0
25.62684	-0.2037134	0.1275416	-0.009140068	0.01321091	-0.2298641	0.3654807	0	0
25.6434	-0.2044957	0.1287634	-0.04721858	0.07375104	-1.149212	1.827105	0	0
25.66021	-0.2060847	0.134577	-0.09455156	0.3459277	-1.418307	8.155624	0	0
25.67672	-0.206841	0.1414575	-0.04580289	0.4167031	1.463152	2.124267	0	0
25.6931	-0.2074206	0.1542676	-0.03538822	0.7820396	0.31663	11.10708	0	0
25.70967	-0.2069922	0.1715759	0.0258576	1.044611	1.858782	7.968925	0	0
25.72626	-0.2063368	0.1865446	0.03950985	0.9023684	0.4117413	-4.289936	0	0
25.7428	-0.2054542	0.1952614	0.05335164	0.5269343	0.417794	-11.33193	0	0
25.75937	-0.2033095	0.2044002	0.129454	0.5516231	2.298494	0.7456669	0	0
25.77594	-0.201744	0.2113509	0.09449743	0.4195419	-1.054991	-3.98622	0	0
25.80907	-0.1999752	0.2314148	0.05338504	0.6055639	-0.8272147	3.742914	0	0
25.82583	-0.1993937	0.2375009	0.03469259	0.3631377	-0.3746552	-4.858978	0	0
25.8422	-0.1979522	0.2525486	0.08803691	0.9189657	1.609935	16.77492	0	0
25.87536	-0.1954717	0.2692064	0.07479931	0.5023295	-0.2672332	-8.410819	0	0
25.90847	-0.1916704	0.2853446	0.1148226	0.4874726	0.6039706	-0.2241967	0	0
25.92504	-0.1897423	0.2965364	0.1163825	0.6755375	0.03140254	3.786053	0	0
25.9416	-0.1895646	0.2991636	0.01072397	0.1585813	-3.188781	-15.60177	0	0
25.95842	-0.1888539	0.3146721	0.04226477	0.9221851	0.9447786	22.87313	0	0
25.97493	-0.1887523	0.3211737	0.006150189	0.3937493	-1.083578	-15.85513	0	0
25.9913	-0.1890824	0.3293353	-0.02016211	0.4986054	-0.8002335	3.188978	0	0
26.00787	-0.1888793	0.3348711	0.01225841	0.3341458	0.9843463	-4.993292	0	0
26.02444	-0.1894631	0.3373533	-0.0352417	0.1498244	-1.433556	-5.56283	0	0
26.041	-0.1868982	0.339764	0.1548163	0.1455107	5.735961	-0.1301875	0	0
26.05757	-0.1861867	0.340264	0.04294626	0.03017967	-3.376244	-3.480698	0	0
26.0745	-0.1861867	0.3402283	0	-0.002108442	-1.281952	-0.963805	0	0
26.0907	-0.1861867	0.3402283	0	0	0	0.06363657	0	0
26.10727	-0.1861867	0.3402283	0	0	0	0	0	0
26.12384	-0.1861867	0.3402283	0	0	0	0	0	0
26.14041	-0.1861867	0.3402283	0	0	0	0	0	0
26.15697	-0.1861359	0.3401926	0.003068329	-0.002155297	0.09260236	-0.06504698	0	0
26.17358	-0.1860343	0.3401212	0.006122559	-0.004302484	0.09208143	-0.06473517	0	0
26.19011	-0.1859834	0.3400855	0.003075958	-0.002160022	-0.0919519	0.06466335	0	0
26.20667	-0.1859326	0.340014	0.003067976	-0.004311895	-0.0002411719	-0.06501852	0	0
26.22324	-0.1859072	0.3399962	0.001534438	-0.001077524	-0.04628228	0.09761352	0	0
26.23981	-0.1858563	0.3399605	0.003067976	-0.002156847	0.04628228	-0.03257403	0	0
26.25637	-0.1858309	0.3399426	0.001534438	-0.001077524	-0.04628228	0.03257403	0	0
26.27294	-0.1858055	0.339889	0.001533538	-0.003234371	-2.714469E-05	-0.06509378	0	0
26.28951	-0.1857547	0.3398533	0.003068875	-0.002155048	0.04633657	0.03257403	0	0
26.32264	-0.1857547	0.3398533	0	0	-0.06174826	0.04336132	0	0
26.33921	-0.1857547	0.3398533	0	0	0	0	0	0
26.35578	-0.1857547	0.3398533	0	0	0	0	0	0
26.37234	-0.1857547	0.3398533	0	0	0	0	0	0
26.38923	-0.1857293	0.3398355	0.001505152	-0.001056959	0.04498794	-0.03159176	0	0
26.40548	-0.1857293	0.3398355	0	0	-0.04542559	0.0318991	0	0
26.42204	-0.1857293	0.3397998	0	-0.002155048	0	-0.06567843	0	0
26.43861	-0.1856784	0.339764	0.003067976	-0.002156847	0.0925917	-5.428939E-05	0	0
26.45518	-0.1856784	0.339764	0	0	-0.09258637	0.06509003	0	0
26.47174	-0.1856784	0.339764	0	0	0	0	0	0
26.53825	-0.1856784	0.3396926	0	-0.00107411	0	-0.01293006	0	0
26.55485	-0.1856276	0.3396212	0.003062881	-0.004301677	0.03685467	-0.0388363	0	0
26.57139	-0.1856022	0.3395319	0.001537447	-0.005399988	-0.04603769	-0.03314709	0	0
26.58795	-0.1855767	0.339514	0.001534438	-0.001077524	-9.090036E-05	0.13058	0	0
26.60452	-0.1855767	0.3394783	0	-0.002156847	-0.04630942	-0.03257403	0	0
26.62109	-0.1855513	0.3394605	0.001534261	-0.0010774	0.04630142	0.0325759	0	0
26.63766	-0.1855259	0.3394069	0.001534614	-0.003234744	1.066323E-05	-0.06510876	0	0
26.65422	-0.1854496	0.3392462	0.004603313	-0.009699516	0.09261884	-0.1951184	0	0
26.67094	-0.1855513	0.3390319	-0.006083818	-0.01282024	-0.321115	-0.09376796	0	0
26.68736	-0.1856022	0.3389605	-0.003096683	-0.004350967	0.09015709	0.2556178	0	0
26.70392	-0.186263	0.3384962	-0.03988728	-0.02802462	-1.11535	-0.7176948	0	0
26.72049	-0.1869491	0.338014	-0.04141659	-0.0291055	-0.04615732	-0.03262273	0	0
26.73705	-0.1869999	0.3379783	-0.003067076	-0.002155048	1.157457	0.813413	0	0
26.75362	-0.1869745	0.3379605	0.001533538	-0.001079323	0.1388468	0.03246545	0	0
26.77051	-0.1869999	0.3379426	-0.00150461	-0.001057198	-0.09081845	0.0006613714	0	0
26.78676	-0.1869999	0.3379426	0	0	0.04540922	0.0319063	0	0
26.80353	-0.1869999	0.3379426	0	0	0	0	0	0
26.81989	-0.1869999	0.3379426	0	0	0	0	0	0
26.83656	-0.1869999	0.3379426	0	0	0	0	0	0
26.85303	-0.1869999	0.3379426	0	0	0	0	0	0
26.86959	-0.1869999	0.3379426	0	0	0	0	0	0
26.88616	-0.1869999	0.3379426	0	0	0	0	0	0
26.90273	-0.1869745	0.3379247	0.001533715	-0.001077648	0.0462876	-0.03252349	0	0
26.91929	-0.1869745	0.3379247	0	0	-0.04629027	0.03252536	0	0
26.93586	-0.1869491	0.3379069	0.001533715	-0.001077648	0.04629027	-0.03252536	0	0
26.95243	-0.1869491	0.3379069	0	0	-0.04629027	0.03252536	0	0
26.96899	-0.1869237	0.337889	0.001533538	-0.001077524	0.04628228	-0.03251974	0	0
26.98556	-0.1868982	0.3378712	0.001533538	-0.001079323	0	-5.428939E-05	0	0
27.00213	-0.1869237	0.3378533	-0.001533538	-0.001077524	-0.09256455	5.428939E-05	0	0
27.01869	-0.1869237	0.3378533	0	0	0.04628228	0.03251974	0	0
27.03526	-0.1869237	0.3378533	0	0	0	0	0	0
27.05183	-0.1869237	0.3378533	0	0	0	0	0	0
27.06839	-0.1869237	0.3378533	0	0	0	0	0	0
27.08496	-0.1869237	0.3378533	0	0	0	0	0	0
27.10153	-0.1869237	0.3378533	0	0	0	0	0	0
27.1181	-0.1869237	0.3378533	0	0	0	0	0	0
27.13477	-0.1869237	0.3378533	0	0	0	0	0	0
27.15128	-0.1869237	0.3378533	0	0	0	0	0	0
27.1678	-0.1869237	0.3378533	0	0	0	0	0	0
27.18436	-0.1869237	0.3378533	0	0	0	0	0	0
27.21833	-0.1869237	0.3378533	0	0	0	0	0	0
27.23449	-0.1869237	0.3378533	0	0	0	0	0	0
27.25106	-0.1869237	0.3378533	0	0	0	0	0	0
27.26762	-0.1869237	0.3378533	0	0	0	0	0	0
27.28419	-0.1869237	0.3378533	0	0	0	0	0	0
27.30075	-0.1869237	0.3378533	0	0	0	0	0	0
27.38359	-0.1869237	0.337889	0	0.0004313794	0	0.004339852	0	0
27.40016	-0.1869237	0.337889	0	0	0	-0.004339769	0	0
27.41697	-0.1869237	0.337889	0	0	0	0	0	0
27.43348	-0.1869237	0.337889	0	0	0	0	0	0
27.45	-0.1868982	0.3378712	0.001538142	-0.001082564	0.04657136	-0.03277749	0	0
27.46642	-0.1868728	0.3378533	0.001546536	-0.001086657	0.000254766	-0.0001242435	0	0
27.48301	-0.1867204	0.3377462	0.009189432	-0.006458022	0.2314759	-0.1626794	0	0
27.49956	-0.1861105	0.3373176	0.03686819	-0.02590655	0.8353946	-0.5869915	0	0
27.51612	-0.1830335	0.3351926	0.1857254	-0.1282668	4.495884	-3.091551	0	0
27.53269	-0.1793162	0.3326568	0.2243805	-0.1530588	1.166612	-0.7482254	0	0
27.54926	-0.1728116	0.3284959	0.3926199	-0.2511513	5.077477	-2.960437	0	0
27.56582	-0.1674437	0.3267101	0.3240065	-0.1077956	-2.070758	4.326483	0	0
27.58241	-0.1617841	0.3296567	0.3412995	0.1776962	0.5216637	8.612192	0	0
27.59896	-0.1562681	0.3335676	0.3332913	0.2363036	-0.2417013	1.768877	0	0
27.61561	-0.1363591	0.3462641	1.195654	0.7625	25.97384	15.84871	0	0
27.63212	-0.1191954	0.3528894	1.039468	0.4012468	-4.709643	-10.89324	0	0
27.64866	-0.09367242	0.3599797	1.543415	0.4287594	15.24865	0.8324869	0	0
27.66564	-0.07671756	0.3646059	0.9982296	0.2723698	-16.26369	-4.66533	0	0
27.68179	-0.06223531	0.3678749	0.8968657	0.2024458	-3.059343	-2.110431	0	0
27.69836	-0.04686041	0.3700901	0.9280312	0.1337119	0.9526404	-2.101	0	0
27.71492	-0.04179144	0.3702152	0.3059633	0.007548066	-18.77405	-3.807633	0	0
27.73149	-0.03514342	0.3665172	0.4012755	-0.2232094	2.876525	-6.964274	0	0
27.74806	-0.02980696	0.3628911	0.3221095	-0.2188741	-2.389235	0.1308387	0	0
27.76472	-0.02204906	0.3576221	0.4657476	-0.3163235	4.323312	-2.933092	0	0
27.78119	-0.01581447	0.3533894	0.3783678	-0.2568747	-2.637127	1.794168	0	0
27.79776	-0.009789161	0.3492999	0.3637302	-0.246875	-0.4429882	0.302628	0	0
27.81433	-0.003631563	0.3451212	0.3716734	-0.2522252	0.2397386	-0.1614783	0	0
27.83089	-0.0003421053	0.342889	0.1985521	-0.1347337	-5.224812	3.5459	0	0
27.84746	0.0002894737	0.3424605	0.03812218	-0.02586957	-4.841784	3.285526	0	0
27.86403	0.0003157895	0.342514	0.001588423	0.003234371	-1.102591	0.8783588	0	0
27.8808	0.000368421	0.3425497	0.00313819	0.002128824	0.04648573	-0.03316123	0	0
27.89731	0.0006315788	0.3428355	0.01593745	0.01730355	0.3845557	0.4559271	0	0
27.91383	0.001499999	0.3434962	0.05257531	0.04000072	1.109245	0.6871775	0	0
27.93033	0.006841999	0.3473713	0.3236735	0.2347921	8.209641	5.89885	0	0
27.96436	0.01320976	0.3523358	0.1871484	0.1459075	-2.701889	-1.759065	0	0
27.98087	0.01326238	0.3528358	0.003186517	0.03028088	-3.639997	-2.287868	0	0
27.99742	0.01320976	0.3528715	-0.00318064	0.00215803	-0.1926047	-0.8507082	0	0
28.01439	0.0130782	0.3529609	-0.007748976	0.005260996	-0.1362802	0.09256604	0	0
28.03055	0.01255197	0.353318	-0.03257326	0.02210744	-0.7492415	0.5084559	0	0
28.14652	0.01102587	0.3834387	-0.01315961	0.2597315	0.1469351	1.798494	0	0
28.16512	0.00726303	0.3875324	-0.2022981	0.2200815	-1.405511	-0.2946445	0	0
28.18168	0.003684194	0.3920738	-0.216019	0.2741247	-0.3901559	1.536729	0	0
28.19825	0.003710509	0.3961693	0.001588404	0.247201	6.567405	-0.8125598	0	0
28.21482	0.005342055	0.4053653	0.09848028	0.5550743	2.924202	9.291635	0	0
28.23155	0.005078904	0.4113082	-0.01572988	0.3552367	-3.430086	-6.001744	0	0
28.24795	0.00639465	0.4136001	0.08021277	0.1397238	2.895722	-6.504566	0	0
28.26457	0.008210341	0.4154447	0.1092557	0.1109926	0.8795058	-0.8700669	0	0
28.28108	0.005157849	0.4180239	-0.1848447	0.1561886	-8.87648	1.364099	0	0
28.29765	0.001815788	0.4206575	-0.2017272	0.1589627	-0.5103386	0.08385645	0	0
28.31422	0.0005263158	0.4252632	-0.07783267	0.2779976	3.739145	3.592482	0	0
28.33112	0.001578946	0.4289921	0.06228207	0.220635	4.186498	-1.713942	0	0
28.34763	0.00347367	0.4344445	0.1147621	0.330246	1.570741	3.280683	0	0
28.36414	0.00228947	0.445017	-0.07171794	0.6402983	-5.64716	9.389286	0	0
28.38049	0.0003947368	0.4514492	-0.1159278	0.3935461	-1.345566	-7.510113	0	0
28.39717	-0.001763156	0.4580661	-0.1293719	0.3967053	-0.4071021	0.09566229	0	0
28.41362	-0.005210479	0.4654989	-0.2095039	0.4517087	-2.418388	1.660006	0	0
28.43019	-0.006815684	0.4699116	-0.0968792	0.2663229	3.410407	-5.613697	0	0
28.44675	-0.007236716	0.4734798	-0.02541646	0.2154019	2.15675	-1.536798	0	0
28.46332	-0.007052515	0.4745074	0.01111969	0.06203044	1.10279	-4.629293	0	0
28.47989	-0.008289284	0.4753908	-0.07466014	0.05333189	-2.589139	-0.2625529	0	0
28.49645	-0.01342025	0.4792686	-0.3097055	0.2340638	-7.094091	5.454813	0	0
28.51302	-0.01734037	0.4826071	-0.236619	0.2015132	2.205755	-0.9823782	0	0
28.52976	-0.02026039	0.4876814	-0.1744253	0.3031076	1.867229	3.050146	0	0
28.54627	-0.0171299	0.4927598	0.1895893	0.3075618	10.94691	0.1339507	0	0
28.56278	-0.01176262	0.4979692	0.325093	0.3155308	4.103446	0.2413243	0	0
28.57928	-0.01121006	0.4986027	0.03348355	0.03838347	-8.833332	-8.395251	0	0
28.59585	-0.01149949	0.4991999	-0.01746841	0.03604704	-1.54066	-0.07064772	0	0
28.61242	-0.01139424	0.4997068	0.006353616	0.03059693	0.71895	-0.1644844	0	0
28.62899	-0.008920816	0.5016259	0.1492964	0.1158383	4.31427	2.572739	0	0
28.64555	-0.007236716	0.503437	0.1016525	0.1093174	-1.437897	-0.1968015	0	0
28.66212	-0.007605116	0.5037268	-0.0222367	0.01749583	-3.738983	-2.771182	0	0
28.69538	-0.01394646	0.5082756	-0.1906688	0.1367692	-3.380429	2.393813	0	0
28.71182	-0.01734037	0.5110139	-0.206401	0.1665338	-0.3165313	0.5988648	0	0
28.72839	-0.020918	0.5139534	-0.2159463	0.1774263	-0.2891618	0.3299731	0	0
28.74496	-0.02110213	0.5145161	-0.0111141	0.0339627	6.181849	-4.329741	0	0
28.76152	-0.02181233	0.5150788	-0.04286768	0.0339663	-0.9583246	0.0001086069	0	0
28.77809	-0.02517889	0.5175483	-0.2032059	0.1490617	-4.839018	3.473587	0	0
28.79466	-0.02872894	0.5212367	-0.2143059	0.222654	-0.3350178	2.221148	0	0
28.87751	-0.02315376	0.5318632	0.06728821	0.1282538	2.832354	-0.9495042	0	0
28.89406	-0.02312746	0.5318086	0.001589334	-0.003299332	-0.660932	-1.323427	0	0
28.91063	-0.02296964	0.5316992	0.009525476	-0.006598262	0.2396512	-0.09961925	0	0
28.92719	-0.02286444	0.5316263	0.006350355	-0.00440004	-0.09582535	0.06634244	0	0
28.94376	-0.02270662	0.5315171	0.0095257	-0.006594664	0.09583212	-0.06623387	0	0
28.96033	-0.0224962	0.5313714	0.01270082	-0.008796483	0.09582534	-0.06645104	0	0
28.97709	-0.02220687	0.531171	0.0172672	-0.01195575	0.1370327	-0.09480652	0	0
28.9936	-0.02175972	0.5308614	0.02708057	-0.01875289	0.2949795	-0.2043148	0	0
29.01011	-0.02115474	0.5304061	0.0366392	-0.02757523	0.2894463	-0.2671507	0	0
29.02662	-0.02010255	0.5296777	0.06372271	-0.0441117	0.82012	-0.5007436	0	0
29.04316	-0.0189188	0.5288584	0.07155896	-0.04952511	0.2370717	-0.1637729	0	0
29.09286	-0.01889249	0.5288038	0.0005293008	-0.001099752	-1.072272	0.7310346	0	0
29.10968	-0.01886618	0.5287856	0.00156425	-0.001081008	0.0155592	0.0002817971	0	0
29.126	-0.01876096	0.52864	0.006449491	-0.008924918	0.1474454	-0.2367433	0	0
29.1427	-0.01818221	0.528021	0.03464227	-0.03704761	0.8537593	-0.8516369	0	0
29.15921	-0.01676159	0.5267471	0.08603598	-0.07715216	1.547147	-1.2073	0	0
29.1757	-0.01071012	0.5220183	0.3671273	-0.2868838	8.519151	-6.356425	0	0
29.19226	0.0001052632	0.5137174	0.6528176	-0.5010433	8.644045	-6.479758	0	0
29.20925	0.009157639	0.5071879	0.5328452	-0.3843431	-3.575291	3.477777	0	0
29.2254	0.02104952	0.497915	0.7366223	-0.574396	6.15036	-5.736137	0	0
29.24196	0.02704603	0.489958	0.3619502	-0.4802826	-11.454	2.877115	0	0
29.25853	0.02799269	0.4814339	0.05714004	-0.5145151	-9.199189	-1.03314	0	0
29.2753	0.0278875	0.4736781	-0.006272951	-0.4625505	-1.90231	1.558873	0	0
29.29181	0.029991	0.4722362	0.1273928	-0.08732817	4.01647	11.27491	0	0
29.30832	0.02993842	0.4722722	-0.003184629	0.002182121	-3.954037	2.710475	0	0
29.3248	0.02993842	0.4722722	0	0	0.09653463	-0.06614593	0	0
29.34137	0.03004359	0.4722001	0.006348724	-0.004351972	0.1921358	-0.1317067	0	0
29.35793	0.03009617	0.4721641	0.003173997	-0.002174836	-0.09581899	0.06570987	0	0
29.3745	0.03014876	0.472128	0.003173997	-0.002176635	0	-5.428939E-05	0	0
29.39107	0.03028022	0.4720379	0.007934824	-0.005437989	0.143682	-0.09842788	0	0
29.40763	0.03035909	0.4719838	0.004760939	-0.003264952	-0.09578802	0.06558239	0	0
29.42441	0.03056942	0.4718397	0.01253962	-0.008594283	0.2333107	-0.1598458	0	0
29.45744	0.03075346	0.4717135	0.00557226	-0.003819625	-0.1399044	0.09587499	0	0
29.47395	0.03075346	0.4717135	0	0	-0.1124853	0.07710548	0	0
29.49047	0.03075346	0.4717135	0	0	0	0	0	0
29.52361	0.03075346	0.4717135	0	0	0	0	0	0
29.54017	0.03075346	0.4717135	0	0	0	0	0	0
29.55674	0.03072717	0.4717315	-0.001586942	0.001086519	-0.04789401	0.03279119	0	0
29.57331	0.03072717	0.4717315	0	0	0.04789401	-0.03279119	0	0
29.59003	0.03072717	0.4717315	0	0	0	0	0	0
29.60644	0.03072717	0.4717315	0	0	0	0	0	0
29.623	0.03072717	0.4717315	0	0	0	0	0	0
29.63957	0.03072717	0.4717315	0	0	0	0	0	0
29.65614	0.03072717	0.4717315	0	0	0	0	0	0
29.67271	0.03072717	0.4717315	0	0	0	0	0	0
29.68927	0.03072717	0.4717315	0	0	0	0	0	0
29.70584	0.03070088	0.4717135	-0.001586942	-0.001086519	-0.04789401	-0.03279119	0	0
29.72241	0.03070088	0.4717135	0	0	0.04789677	0.03279308	0	0
29.73897	0.03070088	0.4717135	0	0	0	0	0	0
29.75565	0.03070088	0.4717135	0	0	0	0	0	0
29.77211	0.03070088	0.4717135	0	0	0	0	0	0
29.78868	0.03070088	0.4717135	0	0	0	0	0	0
29.80524	0.03070088	0.4717135	0	0	0	0	0	0
29.82181	0.03070088	0.4717135	0	0	0	0	0	0
29.83871	0.03070088	0.4717135	0	0	0	0	0	0
29.85522	0.03070088	0.4717135	0	0	0	0	0	0
29.87151	0.03070088	0.4717135	0	0	0	0	0	0
29.88808	0.03070088	0.4717135	0	0	0	0	0	0
29.90464	0.03070088	0.4717135	0	0	0	0	0	0
29.92121	0.03067459	0.4717315	-0.001586942	0.001086519	-0.04789401	0.03279119	0	0
29.95479	0.03067459	0.4716955	0	-0.001072965	0.03164517	-0.0430622	0	0
29.97091	0.03067459	0.4716955	0	0	0	0.02158893	0	0
29.98748	0.03067459	0.4716955	0	0	0	0	0	0
30.02184	0.03067459	0.4716955	0	0	0	0	0	0
30.03837	0.03064829	0.4716775	-0.001590238	-0.001090577	-0.03124621	-0.0214285	0	0
30.05494	0.030622	0.4716595	-0.001586942	-0.001086519	9.956109E-05	0.000122626	0	0
30.07151	0.03054313	0.4716054	-0.004760826	-0.003263153	-0.09578802	-0.06569097	0	0
30.08839	0.0303328	0.4714612	-0.01246039	-0.008541667	-0.2301999	-0.157816	0	0
30.10464	0.02749307	0.4695513	-0.1747254	-0.1175167	-4.897449	-3.289061	0	0
30.12121	0.02591525	0.4684704	-0.09523744	-0.06524148	2.421955	1.592796	0	0
30.13777	0.01989211	0.4643466	-0.3635573	-0.2489153	-8.097909	-5.543286	0	0
30.15444	0.01368336	0.4600991	-0.3726164	-0.2549114	-0.2726196	-0.1804444	0	0
30.17091	0.009578655	0.4572927	-0.2492236	-0.1703948	3.724215	2.550862	0	0
30.18747	0.007289344	0.455728	-0.138183	-0.09444436	3.361079	2.298939	0	0
30.20404	0.002157891	0.4522221	-0.3097351	-0.2116175	-5.177453	-3.536291	0	0
30.22061	-0.008105085	0.4451787	-0.6194745	-0.42514	-9.347952	-6.444122	0	0
30.23717	-0.01313082	0.4417489	-0.3033542	-0.2070249	9.540528	6.582724	0	0
30.25374	-0.0241532	0.4341933	-0.6653118	-0.4560536	-10.9239	-7.515698	0	0
30.27052	-0.03338233	0.4278984	-0.550105	-0.3752096	3.455068	2.424523	0	0
30.28688	-0.04625645	0.4191525	-0.7870508	-0.5346735	-7.151039	-4.812629	0	0
30.30344	-0.05615144	0.4124004	-0.5972625	-0.4075596	5.764323	3.860751	0	0
30.32006	-0.06598302	0.4057233	-0.5918002	-0.4019213	0.1646248	0.1699295	0	0
30.33658	-0.07959464	0.396527	-0.8239707	-0.5566909	-7.007322	-4.671227	0	0
30.35314	-0.08983649	0.3896599	-0.6181989	-0.4144978	6.219153	4.297581	0	0
30.36971	-0.1031067	0.3811688	-0.8009944	-0.5125256	-5.516778	-2.958483	0	0
30.38628	-0.1122888	0.3752894	-0.5542315	-0.3548814	7.44732	4.75771	0	0
30.40285	-0.1209074	0.3696077	-0.5202162	-0.3429441	1.026584	0.3602681	0	0
30.41941	-0.1287056	0.3644451	-0.4707045	-0.3116167	1.494266	0.9454618	0	0
30.43598	-0.1389927	0.3591581	-0.6209282	-0.3191252	-4.533762	-0.2266066	0	0
30.45265	-0.1483494	0.3566755	-0.5611559	-0.1488879	1.798136	5.121264	0	0
30.46911	-0.15845	0.3552289	-0.6136973	-0.08789402	-1.585793	1.840905	0	0
30.48568	-0.1728116	0.3541752	-0.8668664	-0.06360091	-7.665812	0.735581	0	0
30.50269	-0.1832371	0.3527644	-0.6130534	-0.08296181	7.559999	-0.5766781	0	0
30.51881	-0.192279	0.35105	-0.5606843	-0.1063091	1.580594	-0.7046642	0	0
30.5354	-0.2020218	0.348032	-0.5873308	-0.1819359	-0.8145059	-2.311697	0	0
30.55195	-0.2061099	0.3449605	-0.2470695	-0.1856322	10.2691	-0.1115534	0	0
30.56873	-0.2092595	0.3427283	-0.1876269	-0.1329732	1.783305	1.579795	0	0
30.58508	-0.21532	0.338389	-0.3707223	-0.2654336	-5.525829	-3.997663	0	0
30.60165	-0.2179555	0.3364783	-0.1590787	-0.1153311	6.429982	4.560292	0	0
30.61822	-0.22164	0.3338533	-0.2223981	-0.1584482	-1.910983	-1.301278	0	0
30.63478	-0.2260934	0.3306746	-0.2688045	-0.1918641	-1.400548	-1.008492	0	0
30.65135	-0.2300637	0.3277995	-0.2396475	-0.1735443	0.8799608	0.55289	0	0
30.66792	-0.2317096	0.3266208	-0.09935683	-0.07115357	4.234224	3.090338	0	0
30.68448	-0.2346739	0.3244956	-0.1789284	-0.1282775	-2.401612	-1.724104	0	0
30.70105	-0.2361172	0.3234597	-0.08712759	-0.06253058	2.770713	1.984361	0	0
30.78433	-0.2363659	0.3232097	-0.002986764	-0.00300233	0.8426908	0.59619	0	0
30.8009	-0.2363659	0.3232097	0	0	0.0299126	0.03006849	0	0
30.81749	-0.2363908	0.3231919	-0.001498915	-0.001075914	-0.04520352	-0.03244686	0	0
30.83403	-0.2363908	0.3231919	0	0	0.04523735	0.03247115	0	0
30.8506	-0.2363908	0.3231919	0	0	0	0	0	0
30.86716	-0.2363659	0.3232097	0.001501158	0.001077524	0.04530766	0.03252162	0	0
30.88373	-0.2363659	0.3232097	0	0	-0.04530505	-0.03251974	0	0
30.9003	-0.2363659	0.3232097	0	0	0	0	0	0
30.91687	-0.2363659	0.3232097	0	0	0	0	0	0
30.93343	-0.2363659	0.3232097	0	0	0	0	0	0
30.95	-0.2363659	0.3232097	0	0	0	0	0	0
30.96657	-0.2363162	0.3232454	0.003002317	0.002155048	0.0906101	0.06503949	0	0
30.98313	-0.2361918	0.3233347	0.007507591	0.005391219	0.1359694	0.09766781	0	0
30.9997	-0.2361172	0.3233883	0.004504375	0.003234371	-0.09063725	-0.06509379	0	0
31.01627	-0.2360674	0.323424	0.003003562	0.002155297	-0.04529722	-0.03256842	0	0
31.03283	-0.2360177	0.323424	0.003003216	0	-1.043546E-05	-0.06505072	0	0
31.0494	-0.2357689	0.3233883	0.01501608	-0.002155048	0.362549	-0.06503949	0	0
31.06597	-0.2354455	0.3234062	0.01952405	0.001077524	0.1360509	0.09755923	0	0
31.0826	-0.2352464	0.3234419	0.01196824	0.0021464	-0.2275765	0.03219386	0	0
31.09911	-0.234873	0.3235312	0.02261257	0.005409903	0.3211541	0.0984644	0	0
31.11567	-0.2344001	0.3238705	0.02856873	0.02049611	0.1801306	0.4562481	0	0
31.13223	-0.2336281	0.3244241	0.04659348	0.03341764	0.5441759	0.3901073	0	0
31.1488	-0.2306374	0.3264601	0.1805222	0.1228881	4.041976	2.700225	0	0
31.16537	-0.226968	0.3287995	0.2214861	0.1412096	1.236293	0.5529442	0	0
31.18194	-0.2232673	0.330621	0.2233731	0.109947	0.05695048	-0.9435069	0	0
31.1985	-0.2226666	0.3301924	0.03625806	-0.02586957	-5.647143	-4.098954	0	0
31.21507	-0.221089	0.3290317	0.09522417	-0.07006425	1.779601	-1.333798	0	0
31.23171	-0.2207132	0.3287281	0.02258666	-0.01824738	-2.187545	1.560513	0	0
31.2482	-0.2207383	0.3287102	-0.001519499	-0.001082259	-0.7275673	0.5180742	0	0
31.26477	-0.2208385	0.3286388	-0.006048706	-0.004311895	-0.1369914	-0.09768431	0	0
31.28134	-0.2208635	0.3286209	-0.001511952	-0.001077524	0.1369195	0.09761352	0	0
31.2979	-0.2208886	0.3286031	-0.001511952	-0.001077524	0	0	0	0
31.31447	-0.2209637	0.3285495	-0.004536754	-0.003234371	-0.09128873	-0.06509378	0	0
31.33128	-0.221089	0.3284602	-0.007451705	-0.005311755	-0.0873349	-0.06224056	0	0
31.3476	-0.2212393	0.3283531	-0.009207394	-0.006563669	-0.05298986	-0.03778499	0	0
31.36417	-0.2214146	0.3282281	-0.01058276	-0.007546267	-0.04181683	-0.029875	0	0
31.38074	-0.2214397	0.3282102	-0.001511952	-0.001077524	0.2737576	0.1952271	0	0
31.39733	-0.2214647	0.3281924	-0.001510039	-0.001076161	5.767494E-05	4.11056E-05	0	0
31.43044	-0.2214898	0.3281745	-0.0007564984	-0.0005400346	0.01516186	0.01078731	0	0
31.52992	-0.221615	0.3280852	-0.001258819	-0.0008975305	-0.003788439	-0.002696187	0	0
31.5464	-0.221615	0.3280852	0	0	0.01085518	0.007739675	0	0
31.56297	-0.221615	0.3280852	0	0	0	0	0	0
31.57996	-0.221615	0.3280852	0	0	0	0	0	0
31.59647	-0.22159	0.3281031	0.001517017	0.001082939	0.04528832	0.03232956	0	0
31.61267	-0.22159	0.3281031	0	0	-0.04636819	-0.03310043	0	0
31.62924	-0.22159	0.3281031	0	0	0	0	0	0
31.646	-0.22159	0.3281031	0	0	0	0	0	0
31.66252	-0.22159	0.3281031	0	0	0	0	0	0
31.67894	-0.221615	0.3280852	-0.00152512	-0.001088724	-0.04630544	-0.03305564	0	0
31.69551	-0.221615	0.3280852	0	0	0.04622781	0.03300022	0	0
31.71207	-0.221615	0.3280852	0	0	0	0	0	0
31.72864	-0.221615	0.3280852	0	0	0	0	0	0
31.74521	-0.221615	0.3280495	0	-0.002155048	0	-0.06503949	0	0
31.76178	-0.221615	0.3280495	0	0	0	0.06503949	0	0
31.77834	-0.221615	0.3280495	0	0	0	0	0	0
31.79491	-0.221615	0.3280495	0	0	0	0	0	0
31.81148	-0.22164	0.3280316	-0.001511052	-0.001077524	-0.04560365	-0.03251974	0	0
31.82804	-0.22164	0.3280316	0	0	0.04560365	0.03251974	0	0
31.84461	-0.22164	0.3280316	0	0	0	0	0	0
31.86118	-0.22164	0.3279959	0	-0.002156847	0	-0.06509378	0	0
31.87775	-0.22164	0.3279959	0	0	0	0.06509378	0	0
31.89431	-0.22164	0.3279959	0	0	0	0	0	0
31.91088	-0.2216651	0.327978	-0.001511952	-0.001077524	-0.04563079	-0.03251974	0	0
31.92745	-0.22164	0.3279959	0.001511952	0.001077524	0.09126158	0.06503949	0	0
31.94496	-0.22164	0.3279959	0	0	-0.04436909	-0.03162056	0	0
31.96152	-0.2216651	0.327978	-0.001511952	-0.001077524	-0.04436909	-0.03162056	0	0
31.97809	-0.2216651	0.327978	0	0	0.04563079	0.03251974	0	0
31.99466	-0.2216651	0.327978	0	0	0	0	0	0
32.01127	-0.2216651	0.327978	0	0	0	0	0	0
32.02779	-0.2216901	0.3279602	-0.001516141	-0.00108051	-0.04575722	-0.03260985	0	0
32.04436	-0.2216901	0.3279602	0	0	0.04582053	0.03265496	0	0
32.0775	-0.2217152	0.3279066	-0.0007555261	-0.001617186	-0.01520122	-0.03253784	0	0
32.09433	-0.2217402	0.3278888	-0.001487632	-0.001060192	-0.01465016	0.011146	0	0
32.11063	-0.2217652	0.3278709	-0.001536166	-0.001095432	-0.001464759	-0.001063558	0	0
32.12736	-0.2217652	0.3278709	0	0	0.04651688	0.03317096	0	0
32.14388	-0.2217652	0.3278709	0	0	0	0	0	0
32.1769	-0.2214898	0.3277459	0.008340823	-0.003785336	0.1683474	-0.07640153	0	0
32.19347	-0.221089	0.3274959	0.0241959	-0.01509421	0.3197164	-0.2280426	0	0
32.21003	-0.2190339	0.3261386	0.1240448	-0.08192421	3.013793	-2.017166	0	0
32.2266	-0.2137121	0.3224596	0.3212236	-0.2220671	5.950868	-4.229521	0	0
32.24317	-0.2075466	0.3181195	0.3721515	-0.2619697	1.537006	-1.204262	0	0
32.25974	-0.2058073	0.316887	0.1049858	-0.07439055	-8.063078	5.66115	0	0
32.27647	-0.1974462	0.3110101	0.499731	-0.3512561	11.85475	-8.314659	0	0
32.29298	-0.1897931	0.305686	0.4635432	-0.3224732	-1.088642	0.8658794	0	0
32.30943	-0.1849412	0.3022732	0.2948295	-0.2073862	-5.117712	3.491017	0	0
32.326	-0.1815065	0.2998607	0.2073191	-0.1456187	-2.649918	1.870393	0	0
32.34257	-0.1755683	0.2956963	0.3584288	-0.2513618	4.560501	-3.191333	0	0
32.35913	-0.1718665	0.2931044	0.2234406	-0.1564479	-4.073954	2.864507	0	0
32.3757	-0.1702055	0.2919782	0.1002565	-0.06797937	-3.717702	2.669985	0	0
32.39227	-0.16816	0.2905837	0.123471	-0.084171	0.7006133	-0.4886646	0	0
32.40884	-0.1669063	0.2897434	0.07566864	-0.05072099	-1.442677	1.009524	0	0
32.44209	-0.166113	0.2892249	0.02385644	-0.01559095	-1.039909	0.7050861	0	0
32.49167	-0.166113	0.2892249	0	0	-0.2880088	0.188223	0	0
32.50824	-0.166113	0.2892249	0	0	0	0	0	0
32.5248	-0.1661386	0.2892427	-0.001545231	0.001079323	-0.04663516	0.03257403	0	0
32.54166	-0.1661386	0.2892427	0	0	0.04623066	-0.03229149	0	0
32.55794	-0.1661386	0.2892427	0	0	0	0	0	0
32.57468	-0.1661386	0.2892427	0	0	0	0	0	0
32.59107	-0.1661386	0.2892427	0	0	0	0	0	0
32.60764	-0.1661897	0.2892785	-0.003089562	0.002158646	-0.09375046	0.0655025	0	0
32.62421	-0.1661897	0.2892785	0	0	0.09321098	-0.06512557	0	0
32.64077	-0.1661897	0.2892785	0	0	0	0	0	0
32.65773	-0.1661897	0.2892785	0	0	0	0	0	0
32.6739	-0.1662153	0.2892964	-0.001583515	0.001106064	-0.04779058	0.03338108	0	0
32.69047	-0.1662153	0.2892964	0	0	0.04837536	-0.03378955	0	0
32.70704	-0.1662153	0.2892964	0	0	0	0	0	0
32.7236	-0.1662153	0.2892964	0	0	0	0	0	0
32.74017	-0.1662153	0.2892964	0	0	0	0	0	0
32.75674	-0.1662153	0.2892964	0	0	0	0	0	0
32.79304	-0.1662409	0.2892785	-0.0007051526	-0.0004925397	-0.01333705	-0.009315751	0	0
32.80985	-0.1662153	0.2892606	0.001523136	-0.00106389	0.0419545	-0.01075746	0	0
32.82636	-0.1662153	0.2892606	0	0	-0.0457157	0.03193181	0	0
32.84274	-0.1662409	0.2892427	-0.0015625	-0.001091385	-0.04750087	-0.03317872	0	0
32.85931	-0.1662409	0.2892427	0	0	0.04741839	0.03312111	0	0
32.87588	-0.1662409	0.2892427	0	0	0	0	0	0
32.89244	-0.1662409	0.2892427	0	0	0	0	0	0
32.90901	-0.1662409	0.2892427	0	0	0	0	0	0
32.92593	-0.1662409	0.2892427	0	0	0	0	0	0
32.94214	-0.1662409	0.2892427	0	0	0	0	0	0
32.95871	-0.1662409	0.2892427	0	0	0	0	0	0
32.97528	-0.1662409	0.2892427	0	0	0	0	0	0
32.99184	-0.1662409	0.2892427	0	0	0	0	0	0
33.00841	-0.1662409	0.2892427	0	0	0	0	0	0
33.025	-0.1662153	0.2892249	0.001543099	-0.001077834	0.04653867	-0.03250664	0	0
33.04155	-0.1662409	0.289207	-0.001547369	-0.001080816	-0.0932705	-9.000683E-05	0	0
33.05811	-0.1661642	0.2890818	0.004634793	-0.007555261	0.186707	-0.1955342	0	0
33.07504	-0.1657546	0.2886169	0.02419815	-0.02746612	0.584102	-0.5944775	0	0
33.09125	-0.1645512	0.2871686	0.07424449	-0.08935558	1.510402	-1.867828	0	0
33.10806	-0.1605278	0.2827871	0.2392711	-0.2605667	4.997197	-5.184472	0	0
33.12438	-0.1532109	0.272106	0.4483595	-0.6545078	6.310301	-11.88917	0	0
33.14095	-0.1480405	0.261095	0.3120836	-0.6646237	-4.143826	-0.307601	0	0
33.1576	-0.1451818	0.2529429	0.1716826	-0.4895851	-4.226604	5.26933	0	0
33.17411	-0.1423465	0.2354008	0.1716936	-1.062268	0.000332485	-17.2677	0	0
33.19065	-0.1415212	0.223222	0.04990448	-0.7364683	-3.684937	9.857628	0	0
33.20722	-0.141676	0.2097668	-0.009340641	-0.8121591	-1.78967	-2.286461	0	0
33.22379	-0.142888	0.202112	-0.07315472	-0.4620429	-1.925913	10.56653	0	0
33.24035	-0.1457744	0.1939626	-0.1742234	-0.4918979	-3.05026	-0.9010252	0	0
33.25692	-0.149945	0.1895236	-0.2517395	-0.2679428	-2.33944	6.758976	0	0
33.27349	-0.156037	0.1853165	-0.3677119	-0.2539377	-3.500053	0.4226755	0	0
33.2902	-0.1602201	0.1822635	-0.2503023	-0.1826834	3.527995	2.141093	0	0
33.37326	-0.2012135	0.148166	-0.4935326	-0.4105102	-2.437828	-2.283442	0	0
33.38946	-0.201845	0.1368715	-0.03898982	-0.6973135	4.579388	-2.88946	0	0
33.40602	-0.201845	0.1306412	0	-0.3760577	1.190004	9.805014	0	0
33.42259	-0.2002532	0.1182131	0.09607954	-0.7501659	2.899686	-11.29061	0	0
33.43916	-0.1974968	0.1034448	0.1663803	-0.8914143	2.121683	-4.262884	0	0
33.47289	-0.1959781	0.09236096	0.04501839	-0.328572	-2.412734	11.18957	0	0
33.48946	-0.1926086	0.0821889	0.2033849	-0.6139868	3.148403	-5.674183	0	0
