Time	Pos X	Pos Y	Vel X	Vel Y	Acc X	Acc YForce X	Force Y
0.0165695	-0.1728116	0.3651775	0.002616919	-0.005529954	-3.964016E-05	8.376576E-05	0	0
0.04269604	-0.1728116	0.3651775	0	0	3.96442E-05	-8.377431E-05	0	0
0.05926435	-0.1728116	0.3651775	0	0	0	0	0	0
0.0758307	-0.1728116	0.3651775	0	0	0	0	0	0
0.09248191	-0.1728116	0.3651775	0	0	0	0	0	0
0.1089855	-0.1728116	0.3651775	0	0	0	0	0	0
0.1255309	-0.1728116	0.3651775	0	0	0	0	0	0
0.1420976	-0.1728116	0.3651775	0	0	0	0	0	0
0.1586667	-0.1728116	0.3651775	0	0	0	0	0	0
0.1755311	-0.1728116	0.3651775	0	0	0	0	0	0
0.1917982	-0.1728116	0.3651775	0	0	0	0	0	0
0.2083713	-0.1728116	0.3651775	0	0	0	0	0	0
0.225079	-0.1728116	0.3651775	0	0	0	0	0	0
0.2415028	-0.1728116	0.3651775	0	0	0	0	0	0
0.2580695	-0.1728371	0.3651953	-0.00154168	0.001077557	-0.04673095	0.03266259	0	0
0.2746315	-0.1728371	0.3651953	0	0	0.04653608	-0.03252639	0	0
0.2916127	-0.1728371	0.3651953	0	0	0	0	0	0
0.3077654	-0.1728371	0.3651953	0	0	0	0	0	0
0.3243337	-0.1728371	0.3651953	0	0	0	0	0	0
0.3411487	-0.1728371	0.3651953	0	0	0	0	0	0
0.3576621	-0.1728371	0.3651953	0	0	0	0	0	0
0.3740343	-0.1728371	0.3651953	0	0	0	0	0	0
0.3906906	-0.1728371	0.3651953	0	0	0	0	0	0
0.4071657	-0.1728371	0.3651953	0	0	0	0	0	0
0.4237309	-0.1728371	0.3651953	0	0	0	0	0	0
0.440298	-0.1728116	0.3652132	0.001541641	0.001079329	0.04652989	0.03257635	0	0
0.4568647	-0.1728116	0.3652132	0	0	-0.04652767	-0.0325748	0	0
0.4734311	-0.1728116	0.3652132	0	0	0	0	0	0
0.489999	-0.1728116	0.3652132	0	0	0	0	0	0
0.5067651	-0.1728116	0.3652132	0	0	0	0	0	0
0.5231313	-0.1728116	0.3652132	0	0	0	0	0	0
0.5397903	-0.1728116	0.3652132	0	0	0	0	0	0
0.5563049	-0.1728116	0.3652132	0	0	0	0	0	0
0.572831	-0.1728116	0.3652132	0	0	0	0	0	0
0.5893974	-0.1728116	0.3652132	0	0	0	0	0	0
0.6097684	-0.1728116	0.3652132	0	0	0	0	0	0
0.6263489	-0.1728116	0.3652132	0	0	0	0	0	0
0.6429034	-0.1728116	0.3652132	0	0	0	0	0	0
0.6598724	-0.1728116	0.3652132	0	0	0	0	0	0
0.6760368	-0.1728116	0.3652132	0	0	0	0	0	0
0.6926044	-0.1728116	0.3652132	0	0	0	0	0	0
0.7091699	-0.1728116	0.3652132	0	0	0	0	0	0
0.7257358	-0.1728116	0.3652132	0	0	0	0	0	0
0.7424304	-0.1728116	0.3652132	0	0	0	0	0	0
0.7588693	-0.1728116	0.3652132	0	0	0	0	0	0
0.775436	-0.1728116	0.3652132	0	0	0	0	0	0
0.7920028	-0.1728116	0.3652489	0	0.00215511	0	0.06504323	0	0
0.8085691	-0.1728116	0.3652489	0	0	0	-0.06504405	0	0
0.8251371	-0.1728116	0.3652847	0	0.002156754	0	0.06509132	0	0
0.841703	-0.1728116	0.3652847	0	0	0	-0.06509214	0	0
0.8582698	-0.1728116	0.3652847	0	0	0	0	0	0
0.8750275	-0.1728116	0.3652847	0	0	0	0	0	0
0.8915394	-0.172786	0.3653025	0.0015459	0.001082943	0.0464658	0.03255047	0	0
0.9080489	-0.172786	0.3653025	0	0	-0.04681521	-0.03279524	0	0
0.9245592	-0.172786	0.3653025	0	0	0	0	0	0
0.9411034	-0.172786	0.3653025	0	0	0	0	0	0
0.9576697	-0.172786	0.3653025	0	0	0	0	0	0
0.9745949	-0.172786	0.3653025	0	0	0	0	0	0
0.9908032	-0.172786	0.3653025	0	0	0	0	0	0
1.007369	-0.172786	0.3653025	0	0	0	0	0	0
1.023936	-0.172786	0.3653025	0	0	0	0	0	0
1.040641	-0.172786	0.3653025	0	0	0	0	0	0
1.05707	-0.172786	0.3653025	0	0	0	0	0	0
1.123337	-0.172786	0.3653025	0	0	0	0	0	0
1.139904	-0.172786	0.3653025	0	0	0	0	0	0
1.156469	-0.172786	0.3653025	0	0	0	0	0	0
1.173037	-0.172786	0.3653025	0	0	0	0	0	0
1.189604	-0.172786	0.3653025	0	0	0	0	0	0
1.20617	-0.172786	0.3653025	0	0	0	0	0	0
1.225705	-0.172786	0.3653025	0	0	0	0	0	0
1.242272	-0.172786	0.3653025	0	0	0	0	0	0
1.258839	-0.172786	0.3653025	0	0	0	0	0	0
1.275406	-0.172786	0.3653025	0	0	0	0	0	0
1.291973	-0.172786	0.3653025	0	0	0	0	0	0
1.30854	-0.172786	0.3653025	0	0	0	0	0	0
1.325372	-0.172786	0.3653025	0	0	0	0	0	0
1.341674	-0.172786	0.3653025	0	0	0	0	0	0
1.358411	-0.172786	0.3653025	0	0	0	0	0	0
1.374879	-0.172786	0.3653025	0	0	0	0	0	0
1.391374	-0.172786	0.3653025	0	0	0	0	0	0
1.40794	-0.172786	0.3653025	0	0	0	0	0	0
1.424507	-0.172786	0.3653025	0	0	0	0	0	0
1.441075	-0.172786	0.3653025	0	0	0	0	0	0
1.45764	-0.172786	0.3653025	0	0	0	0	0	0
1.474449	-0.172786	0.3653025	0	0	0	0	0	0
1.490774	-0.172786	0.3653025	0	0	0	0	0	0
1.507341	-0.172786	0.3653025	0	0	0	0	0	0
1.523907	-0.172786	0.3653025	0	0	0	0	0	0
1.540496	-0.172786	0.3653025	0	0	0	0	0	0
1.557041	-0.172786	0.3653025	0	0	0	0	0	0
1.573607	-0.172786	0.3653025	0	0	0	0	0	0
1.590174	-0.172786	0.3653025	0	0	0	0	0	0
1.60674	-0.172786	0.3653025	0	0	0	0	0	0
1.623307	-0.172786	0.3653025	0	0	0	0	0	0
1.639874	-0.172786	0.3653025	0	0	0	0	0	0
1.656578	-0.172786	0.3653025	0	0	0	0	0	0
1.673089	-0.172786	0.3653025	0	0	0	0	0	0
1.689605	-0.172786	0.3653025	0	0	0	0	0	0
1.706613	-0.172786	0.3653025	0	0	0	0	0	0
1.722706	-0.172786	0.3653025	0	0	0	0	0	0
1.739273	-0.172786	0.3653025	0	0	0	0	0	0
1.75584	-0.172786	0.3653025	0	0	0	0	0	0
1.772407	-0.172786	0.3653025	0	0	0	0	0	0
1.788973	-0.172786	0.3653025	0	0	0	0	0	0
1.805681	-0.172786	0.3653025	0	0	0	0	0	0
1.822192	-0.172786	0.3653025	0	0	0	0	0	0
1.838705	-0.172786	0.3653025	0	0	0	0	0	0
1.875944	-0.172786	0.3653025	0	0	0	0	0	0
1.89251	-0.172786	0.3653025	0	0	0	0	0	0
1.909256	-0.1727605	0.3653204	0.001525248	0.001066072	0.04578678	0.03200267	0	0
1.925644	-0.1727605	0.3653204	0	0	-0.04603339	-0.03217503	0	0
1.942211	-0.1727605	0.3653204	0	0	0	0	0	0
1.958776	-0.1727605	0.3653204	0	0	0	0	0	0
1.975344	-0.1727605	0.3653204	0	0	0	0	0	0
1.99191	-0.1727605	0.3653204	0	0	0	0	0	0
2.008477	-0.1727605	0.3653204	0	0	0	0	0	0
2.04161	-0.1727605	0.3653204	0	0	0	0	0	0
2.058177	-0.1727605	0.3653204	0	0	0	0	0	0
2.074781	-0.1727605	0.3653204	0	0	0	0	0	0
2.091311	-0.1727605	0.3653204	0	0	0	0	0	0
2.107879	-0.1727605	0.3653204	0	0	0	0	0	0
2.124444	-0.1727605	0.3653204	0	0	0	0	0	0
2.141011	-0.1727605	0.3653204	0	0	0	0	0	0
2.157933	-0.1727605	0.3653204	0	0	0	0	0	0
2.174144	-0.1727605	0.3653204	0	0	0	0	0	0
2.190955	-0.1727605	0.3653204	0	0	0	0	0	0
2.20728	-0.1727605	0.3653204	0	0	0	0	0	0
2.275208	-0.1727605	0.3653204	0	0	0	0	0	0
2.291775	-0.1727605	0.3653204	0	0	0	0	0	0
2.308344	-0.1727605	0.3653204	0	0	0	0	0	0
2.341477	-0.1727605	0.3653204	0	0	0	0	0	0
2.358073	-0.1727605	0.3653204	0	0	0	0	0	0
2.374629	-0.1727605	0.3653204	0	0	0	0	0	0
2.391178	-0.1727605	0.3653204	0	0	0	0	0	0
2.407745	-0.1727605	0.3653204	0	0	0	0	0	0
2.424309	-0.1727605	0.3653204	0	0	0	0	0	0
2.440878	-0.1727605	0.3653204	0	0	0	0	0	0
2.457442	-0.1727605	0.3653204	0	0	0	0	0	0
2.47401	-0.1727605	0.3653204	0	0	0	0	0	0
2.490667	-0.1727605	0.3653204	0	0	0	0	0	0
2.507182	-0.1727605	0.3653204	0	0	0	0	0	0
2.52371	-0.1727349	0.3653382	0.00154528	0.001080073	0.04676452	0.03268605	0	0
2.540277	-0.1727349	0.3653382	0	0	-0.04669343	-0.03263636	0	0
2.559209	-0.1727349	0.3653382	0	0	0	0	0	0
2.575777	-0.1727349	0.3653382	0	0	0	0	0	0
2.609254	-0.1727605	0.3653561	-0.000762917	0.000534131	-0.01524469	0.01067306	0	0
2.625478	-0.1727605	0.3653561	0	0	0.01534992	-0.01074674	0	0
2.642044	-0.1727605	0.3653561	0	0	0	0	0	0
2.658611	-0.1727605	0.3653561	0	0	0	0	0	0
2.675177	-0.1727349	0.365374	0.001541722	0.001077586	0.04653127	0.03252302	0	0
2.691744	-0.1727349	0.365374	0	0	-0.04653127	-0.03252302	0	0
2.708311	-0.1727349	0.365374	0	0	0	0	0	0
2.724877	-0.1727349	0.365374	0	0	0	0	0	0
2.741447	-0.1727349	0.365374	0	0	0	0	0	0
2.75801	-0.1727605	0.3653561	-0.001541966	-0.001077757	-0.0465383	-0.03252794	0	0
2.774605	-0.1727605	0.3653561	0	0	0.04650316	0.03250338	0	0
2.791144	-0.1727605	0.3653561	0	0	0	0	0	0
2.807713	-0.1727605	0.3653561	0	0	0	0	0	0
2.824404	-0.1727605	0.3653561	0	0	0	0	0	0
2.840845	-0.1727605	0.3653561	0	0	0	0	0	0
2.857428	-0.1727605	0.3653561	0	0	0	0	0	0
2.907112	-0.1727605	0.3653561	0	0	0	0	0	0
2.956998	-0.1727605	0.3653561	0	0	0	0	0	0
2.973378	-0.1727605	0.3653561	0	0	0	0	0	0
2.989945	-0.1727605	0.3653561	0	0	0	0	0	0
3.006534	-0.1727605	0.3653561	0	0	0	0	0	0
3.023079	-0.1727605	0.3653561	0	0	0	0	0	0
3.039646	-0.1727605	0.3653561	0	0	0	0	0	0
3.056211	-0.1727605	0.3653561	0	0	0	0	0	0
3.073082	-0.1727605	0.3653561	0	0	0	0	0	0
3.089344	-0.1727605	0.3653561	0	0	0	0	0	0
3.105913	-0.1727605	0.3653561	0	0	0	0	0	0
3.122479	-0.1727605	0.3653561	0	0	0	0	0	0
3.139126	-0.1727605	0.3653561	0	0	0	0	0	0
3.155638	-0.1727349	0.3653382	0.001546797	-0.001082939	0.0466482	-0.03265918	0	0
3.188745	-0.1727094	0.3653204	0.0007714716	-0.0005392199	-0.01562582	0.01095804	0	0
3.205312	-0.1726583	0.3652847	0.003083266	-0.002156847	0.04653974	-0.03256516	0	0
3.221878	-0.1717643	0.3646952	0.05396554	-0.03558245	1.535685	-1.008823	0	0
3.242596	-0.1711	0.3642665	0.0320638	-0.02069212	-0.5874239	0.3993716	0	0
3.259164	-0.170001	0.3635699	0.06633143	-0.04204681	0.9190412	-0.5727223	0	0
3.275731	-0.1613739	0.3590152	0.5207347	-0.274918	13.71362	-7.027914	0	0
3.292298	-0.1464441	0.3539609	0.9012192	-0.3050954	11.48338	-0.9107833	0	0
3.308864	-0.1296373	0.3528001	1.014489	-0.07006987	3.418625	7.09339	0	0
3.325434	-0.1032369	0.353068	1.593299	0.01616773	17.46754	2.602506	0	0
3.341998	-0.08267951	0.3534609	1.241116	0.02371965	-10.62929	0.2279254	0	0
3.358564	-0.06213046	0.3539431	1.240379	0.02910658	-0.02225477	0.162598	0	0
3.375131	-0.05562676	0.354086	0.392575	0.00862404	-25.58751	-0.6181822	0	0
3.391698	-0.03248857	0.3548896	1.396665	0.04850977	30.30436	1.203789	0	0
3.408266	-0.01289402	0.3556575	1.182644	0.04634999	-6.459019	-0.06518093	0	0
3.424838	0.003631563	0.3566934	0.997228	0.06250899	-5.594938	0.487599	0	0
3.441398	0.01663005	0.3588366	0.7849176	0.1294181	-6.408047	2.01948	0	0
3.457965	0.0224173	0.3598011	0.3493293	0.05821676	-13.14901	-2.149339	0	0
3.474531	0.03101637	0.3625338	0.5190707	0.1649588	5.123027	3.221621	0	0
3.491376	0.03787661	0.3636592	0.4072632	0.06680632	-3.346424	-2.937728	0	0
3.507665	0.04192279	0.3628375	0.2484032	-0.0504446	-4.794543	-3.538742	0	0
3.524232	0.0449434	0.3639985	0.1823242	0.07008044	-2.01117	3.668283	0	0
3.540799	0.04741181	0.3656777	0.1489914	0.1013506	-1.005978	0.9437277	0	0
3.557365	0.04822574	0.3662314	0.04913371	0.0334282	-3.013842	-2.04999	0	0
3.573936	0.04822574	0.3662314	0	0	-1.482741	-1.008785	0	0
3.590499	0.04822574	0.3662314	0	0	0	0	0	0
3.607065	0.04822574	0.3662314	0	0	0	0	0	0
3.623631	0.04822574	0.3662314	0	0	0	0	0	0
3.640199	0.04822574	0.3662314	0	0	0	0	0	0
3.656993	0.04822574	0.3662314	0	0	0	0	0	0
3.673332	0.04825199	0.3662493	0.001606756	0.001092603	0.04849513	0.03297696	0	0
3.6899	0.04825199	0.3662493	0	0	-0.04882716	-0.03320275	0	0
3.706527	0.04825199	0.3662493	0	0	0	0	0	0
3.723032	0.04825199	0.3662493	0	0	0	0	0	0
3.739598	0.04825199	0.3662493	0	0	0	0	0	0
3.756165	0.04825199	0.3662493	0	0	0	0	0	0
3.822432	0.04825199	0.3662135	0	-0.0005392234	0	-0.006509705	0	0
3.83912	0.04825199	0.3662135	0	0	0	0.006500126	0	0
3.859319	0.04825199	0.3662135	0	0	0	0	0	0
3.876147	0.04825199	0.3662135	0	0	0	0	0	0
3.892453	0.04825199	0.3662135	0	0	0	0	0	0
3.909169	0.04825199	0.3662135	0	0	0	0	0	0
3.925587	0.04825199	0.3662135	0	0	0	0	0	0
3.942194	0.04825199	0.3662135	0	0	0	0	0	0
3.95872	0.04825199	0.3662135	0	0	0	0	0	0
3.975286	0.04827825	0.3661957	0.001584852	-0.001077555	0.04789122	-0.03256168	0	0
3.991856	0.04827825	0.3661957	0	0	-0.04782885	0.03251928	0	0
4.00874	0.04827825	0.3661957	0	0	0	0	0	0
4.024987	0.04827825	0.3661957	0	0	0	0	0	0
4.041553	0.04827825	0.3661957	0	0	0	0	0	0
4.05812	0.04827825	0.3661957	0	0	0	0	0	0
4.074687	0.04825199	0.3662135	-0.001584897	0.001077586	-0.04783436	0.03252302	0	0
4.091253	0.04825199	0.3662135	0	0	0.04783436	-0.03252302	0	0
4.107821	0.04825199	0.3662135	0	0	0	0	0	0
4.124387	0.04825199	0.3662135	0	0	0	0	0	0
4.141335	0.04825199	0.3662135	0	0	0	0	0	0
4.157519	0.04825199	0.3662135	0	0	0	0	0	0
4.174087	0.04825199	0.3662135	0	0	0	0	0	0
4.190655	0.04825199	0.3662135	0	0	0	0	0	0
4.207221	0.04825199	0.3662135	0	0	0	0	0	0
4.223786	0.04825199	0.3662135	0	0	0	0	0	0
4.240404	0.04825199	0.3662135	0	0	0	0	0	0
4.256919	0.04825199	0.3662135	0	0	0	0	0	0
4.273487	0.04825199	0.3662135	0	0	0	0	0	0
4.290053	0.04822574	0.3661957	-0.001584672	-0.001077586	-0.0478262	-0.03252208	0	0
4.30662	0.04822574	0.3661957	0	0	0.04782826	0.03252349	0	0
4.323191	0.04822574	0.3661957	0	0	0	0	0	0
4.339755	0.04822574	0.3661957	0	0	0	0	0	0
4.35632	0.04822574	0.3661957	0	0	0	0	0	0
4.372886	0.04822574	0.3661957	0	0	0	0	0	0
4.389511	0.04822574	0.3661957	0	0	0	0	0	0
4.406019	0.04819948	0.3662135	-0.001590482	0.001081384	-0.04800293	0.03263763	0	0
4.422587	0.04819948	0.3662135	0	0	0.04808597	-0.03269409	0	0
4.442633	0.04819948	0.3662135	0	0	0	0	0	0
4.4592	0.04819948	0.3662135	0	0	0	0	0	0
4.47607	0.04819948	0.3662135	0	0	0	0	0	0
4.492581	0.04819948	0.3662135	0	0	0	0	0	0
4.5089	0.04819948	0.3662135	0	0	0	0	0	0
4.525467	0.04819948	0.3662135	0	0	0	0	0	0
4.542116	0.04819948	0.3662135	0	0	0	0	0	0
4.5586	0.04817323	0.3661957	-0.001592829	-0.001082979	-0.04807375	-0.03268578	0	0
4.575167	0.04817323	0.3661957	0	0	0.04819374	0.03276737	0	0
4.592152	0.04817323	0.3661957	0	0	0	0	0	0
4.608663	0.04817323	0.3661957	0	0	0	0	0	0
4.624866	0.04814697	0.3661778	-0.001620343	-0.001101686	-0.04952929	-0.03367542	0	0
4.641433	0.04814697	0.3661778	0	0	0.04944569	0.03361858	0	0
4.658	0.04809446	0.3661421	-0.003169478	-0.002156909	-0.09565917	-0.06509846	0	0
4.67471	0.04780566	0.3661242	-0.01728269	-0.001070053	-0.4241066	0.03266039	0	0
4.691133	0.04756935	0.3661421	-0.01438896	0.001088819	0.08733535	0.06515674	0	0
4.7077	0.04707047	0.3660885	-0.03011331	-0.003234464	-0.4766468	-0.1310503	0	0
4.740833	0.0407406	0.3632841	-0.191044	-0.08464237	-3.238057	-1.637993	0	0
4.7574	0.03729848	0.3619801	-0.2077727	-0.0787065	-0.336595	0.1194344	0	0
4.774279	0.02625712	0.3601583	-0.6541261	-0.1079321	-13.34537	-0.8738055	0	0
4.790552	0.01491995	0.3605334	-0.6966854	0.02304993	-1.283741	3.950884	0	0
4.807099	-0.00228947	0.3623552	-1.04002	0.1100999	-10.46105	2.652328	0	0
4.823814	-0.01691944	0.3640343	-0.8752573	0.1004504	4.953431	-0.290105	0	0
4.840233	-0.03753499	0.3657848	-1.255633	0.1066214	-11.48009	0.1862468	0	0
4.856839	-0.05420999	0.3665887	-1.004135	0.04840672	7.615427	-1.762757	0	0
4.873366	-0.06545898	0.3668924	-0.6806552	0.01837546	9.763062	-0.9063844	0	0
4.889933	-0.08712102	0.3672854	-1.307523	0.02372172	-18.94209	0.1615481	0	0
4.906501	-0.1030286	0.3680714	-0.9601579	0.04744208	10.48336	0.7158715	0	0
4.923067	-0.1178981	0.3694648	-0.8975976	0.08411711	1.88813	1.106886	0	0
4.939896	-0.136669	0.371305	-1.11536	0.1093405	-6.520754	0.7552969	0	0
4.9562	-0.1506653	0.3723234	-0.8584834	0.06246344	7.752885	-1.414813	0	0
4.972767	-0.1677763	0.3731274	-1.032819	0.04852996	-5.303656	-0.4238866	0	0
4.989432	-0.1780674	0.3736813	-0.6175337	0.03323772	12.49646	-0.4601632	0	0
5.005946	-0.1911632	0.3728058	-0.7929937	-0.05301483	-5.288237	-2.59959	0	0
5.022467	-0.1995454	0.3712156	-0.5073854	-0.09625209	8.645678	-1.30884	0	0
5.039033	-0.2052272	0.3671246	-0.3429737	-0.2469507	4.969106	-4.554648	0	0
5.055599	-0.2063116	0.3663565	-0.06545482	-0.04636679	8.37602	6.053984	0	0
5.072166	-0.207849	0.3652668	-0.09280017	-0.06577404	-0.82532	-0.5857372	0	0
5.088733	-0.2116755	0.3625517	-0.2309715	-0.1638826	-4.17008	-2.960965	0	0
5.1053	-0.2121786	0.3621587	-0.03036316	-0.02371992	6.054373	4.230118	0	0
5.14154	-0.2121031	0.3622123	0.002081853	0.001478638	0.6144146	0.4771878	0	0
5.158065	-0.212078	0.3621945	0.001522059	-0.001080229	-0.01060921	-0.04849564	0	0
5.174633	-0.2120528	0.3621766	0.001518248	-0.001077524	-0.0001151701	8.173668E-05	0	0
5.191199	-0.2120277	0.3621587	0.001517436	-0.001079385	-2.451033E-05	-5.616717E-05	0	0
5.207766	-0.2120025	0.3621409	0.001518291	-0.001077555	2.582828E-05	5.522986E-05	0	0
5.224332	-0.2119522	0.3621052	0.00303667	-0.002156971	0.04582675	-0.03257825	0	0
5.240898	-0.2119271	0.3620873	0.001518335	-0.001077586	-0.04582608	0.03257779	0	0
5.257465	-0.2119271	0.3620873	0	0	-0.04582477	0.03252255	0	0
5.274032	-0.2119019	0.3620695	0.001518291	-0.001077555	0.04582278	-0.03252115	0	0
5.290599	-0.2119019	0.3620695	0	0	-0.04582344	0.03252162	0	0
5.307166	-0.2118265	0.362123	0.004554874	0.003234464	0.1374703	0.09761914	0	0
5.323739	-0.2117762	0.3621587	0.003034548	0.002154304	-0.04587628	-0.03259414	0	0
5.3403	-0.211751	0.3621766	0.001518816	0.001079727	-0.04574554	-0.03243127	0	0
5.356866	-0.2117258	0.3621945	0.001519235	0.001077586	1.263699E-05	-6.462577E-05	0	0
5.373433	-0.2117007	0.3622123	0.001518248	0.001077524	-2.978413E-05	-1.872707E-06	0	0
5.39	-0.2117007	0.3622123	0	0	-0.04582147	-0.03252021	0	0
5.406728	-0.2117007	0.3622123	0	0	0	0	0	0
5.423132	-0.2117007	0.3622123	0	0	0	0	0	0
5.4397	-0.2117258	0.3621945	-0.001518204	-0.001077493	-0.04604479	-0.0326787	0	0
5.456265	-0.2117258	0.3621945	0	0	0.04582147	0.03252021	0	0
5.472835	-0.2117258	0.3621945	0	0	0	0	0	0
5.489399	-0.2117258	0.3621945	0	0	0	0	0	0
5.505967	-0.2117007	0.3622123	0.001518204	0.001077493	0.04582279	0.03252115	0	0
5.522533	-0.2117007	0.3622123	0	0	-0.04581949	-0.03251881	0	0
5.539099	-0.2117007	0.3622123	0	0	0	0	0	0
5.555665	-0.2117007	0.3622123	0	0	0	0	0	0
5.572233	-0.2117007	0.3622123	0	0	0	0	0	0
5.588856	-0.2117007	0.3622123	0	0	0	0	0	0
5.605367	-0.2117007	0.3622123	0	0	0	0	0	0
5.621933	-0.2117007	0.3622123	0	0	0	0	0	0
5.638499	-0.2117007	0.3622123	0	0	0	0	0	0
5.655065	-0.2117007	0.3622123	0	0	0	0	0	0
5.671632	-0.2117007	0.3622123	0	0	0	0	0	0
5.688427	-0.2117007	0.3622123	0	0	0	0	0	0
5.724609	-0.2117007	0.3621766	0	-0.0009867684	0	-0.01862649	0	0
5.741176	-0.2117007	0.3621766	0	0	0	0.01870698	0	0
5.757742	-0.2117007	0.3621766	0	0	0	0	0	0
5.774309	-0.2117007	0.3621766	0	0	0	0	0	0
5.790876	-0.2117007	0.3621766	0	0	0	0	0	0
5.80751	-0.2116755	0.3621945	0.001512111	0.001073169	0.04554385	0.03232318	0	0
5.824009	-0.2116755	0.3621945	0	0	-0.04563692	-0.03238923	0	0
5.840577	-0.2117007	0.3621766	-0.001518248	-0.001077524	-0.0459153	-0.03258681	0	0
5.857546	-0.2117007	0.3621766	0	0	0.04527159	0.03212995	0	0
5.87371	-0.2117007	0.3621766	0	0	0	0	0	0
5.890276	-0.2116755	0.3621587	0.001518291	-0.001079354	0.04638755	-0.03297693	0	0
5.906843	-0.2116755	0.3621587	0	0	-0.0458241	0.03257638	0	0
5.92341	-0.2116504	0.3621409	0.001518248	-0.001077524	0.04582213	-0.03252068	0	0
5.939977	-0.2116504	0.3621409	0	0	-0.04582147	0.03252021	0	0
5.956616	-0.2116504	0.3621409	0	0	0	0	0	0
5.973132	-0.2116504	0.3621409	0	0	0	0	0	0
5.989676	-0.2116504	0.3621409	0	0	0	0	0	0
6.006652	-0.2116504	0.3621409	0	0	0	0	0	0
6.02281	-0.2116504	0.3621409	0	0	0	0	0	0
6.039377	-0.2116504	0.3621409	0	0	0	0	0	0
6.055943	-0.2116504	0.3621409	0	0	0	0	0	0
6.07251	-0.2116504	0.3621409	0	0	0	0	0	0
6.089208	-0.2116252	0.3621587	0.001506325	0.001069063	0.04528178	0.03213719	0	0
6.105723	-0.2116252	0.3621587	0	0	-0.04535264	-0.03218748	0	0
6.122211	-0.2116252	0.3621587	0	0	0	0	0	0
6.138778	-0.2116252	0.3621587	0	0	0	0	0	0
6.155344	-0.2116252	0.3621587	0	0	0	0	0	0
6.171911	-0.2116252	0.3621587	0	0	0	0	0	0
6.188779	-0.2116252	0.3621587	0	0	0	0	0	0
6.205292	-0.2116252	0.3621587	0	0	0	0	0	0
6.221805	-0.2116252	0.3621587	0	0	0	0	0	0
6.238177	-0.2116252	0.3621587	0	0	0	0	0	0
6.254828	-0.2116252	0.3621587	0	0	0	0	0	0
6.271339	-0.2116252	0.3621587	0	0	0	0	0	0
6.287877	-0.2116252	0.3621587	0	0	0	0	0	0
6.304863	-0.2116252	0.3621587	0	0	0	0	0	0
6.362176	-0.2116001	0.3621409	0.0004388738	-0.0003114756	0.005906796	-0.004192146	0	0
6.378744	-0.2116001	0.3621409	0	0	-0.005940306	0.004215928	0	0
6.395311	-0.2115749	0.362123	0.001518291	-0.001077555	0.04582212	-0.03252068	0	0
6.411936	-0.2115498	0.3621052	0.001512979	-0.001075577	-0.0001600656	5.959363E-05	0	0
6.428446	-0.2115246	0.3620873	0.00152351	-0.001081259	0.0003178265	-0.000171463	0	0
6.445011	-0.2115246	0.3620873	0	0	-0.04606248	0.03269126	0	0
6.461577	-0.2115246	0.3620873	0	0	0	0	0	0
6.478144	-0.2115246	0.3620873	0	0	0	0	0	0
6.49471	-0.2115246	0.3620873	0	0	0	0	0	0
6.527844	-0.2115246	0.3620873	0	0	0	0	0	0
6.544411	-0.2115246	0.3620873	0	0	0	0	0	0
6.561043	-0.2115246	0.3620873	0	0	0	0	0	0
6.577555	-0.2115246	0.3620873	0	0	0	0	0	0
6.594111	-0.2115246	0.3620873	0	0	0	0	0	0
6.611079	-0.2115246	0.3620873	0	0	0	0	0	0
6.627591	-0.2115246	0.3620873	0	0	0	0	0	0
6.643812	-0.2114995	0.3620695	0.001551568	-0.00110052	0.0474001	-0.03362067	0	0
6.660378	-0.2114995	0.3620695	0	0	-0.04732358	0.0335664	0	0
6.676945	-0.2114995	0.3620695	0	0	0	0	0	0
6.693636	-0.2114995	0.3620695	0	0	0	0	0	0
6.710148	-0.2114995	0.3620695	0	0	0	0	0	0
6.726645	-0.2114995	0.3620695	0	0	0	0	0	0
6.743212	-0.2114995	0.3620695	0	0	0	0	0	0
6.759778	-0.2114995	0.3620695	0	0	0	0	0	0
6.776345	-0.2114995	0.3620695	0	0	0	0	0	0
6.792912	-0.2114995	0.3620695	0	0	0	0	0	0
6.809719	-0.2114995	0.3620695	0	0	0	0	0	0
6.82623	-0.2114995	0.3620695	0	0	0	0	0	0
6.842741	-0.2114995	0.3620695	0	0	0	0	0	0
6.859253	-0.2114995	0.3620695	0	0	0	0	0	0
6.875745	-0.2114995	0.3620695	0	0	0	0	0	0
6.892313	-0.2114995	0.3620695	0	0	0	0	0	0
6.908879	-0.2114995	0.3620695	0	0	0	0	0	0
6.925445	-0.2114995	0.3620695	0	0	0	0	0	0
6.942012	-0.2114995	0.3620695	0	0	0	0	0	0
6.958579	-0.2114995	0.3620695	0	0	0	0	0	0
6.993451	-0.2114995	0.3620695	0	0	0	0	0	0
7.010018	-0.2114995	0.3620695	0	0	0	0	0	0
7.026585	-0.2114995	0.3620695	0	0	0	0	0	0
7.043384	-0.2114995	0.3620695	0	0	0	0	0	0
7.059896	-0.2114995	0.3620695	0	0	0	0	0	0
7.076407	-0.2114995	0.3620695	0	0	0	0	0	0
7.092918	-0.2114995	0.3620695	0	0	0	0	0	0
7.109431	-0.2114995	0.3620695	0	0	0	0	0	0
7.125985	-0.2114995	0.3620695	0	0	0	0	0	0
7.142551	-0.2114995	0.3620695	0	0	0	0	0	0
7.159118	-0.2114995	0.3620695	0	0	0	0	0	0
7.175684	-0.2114995	0.3620695	0	0	0	0	0	0
7.192251	-0.2114995	0.3620695	0	0	0	0	0	0
7.209001	-0.2114995	0.3620695	0	0	0	0	0	0
7.225513	-0.2114995	0.3620695	0	0	0	0	0	0
7.242023	-0.2114995	0.3620695	0	0	0	0	0	0
7.258518	-0.2114995	0.3620695	0	0	0	0	0	0
7.275084	-0.2114995	0.3620695	0	0	0	0	0	0
7.29165	-0.2114995	0.3620695	0	0	0	0	0	0
7.308571	-0.2114995	0.3620695	0	0	0	0	0	0
7.324786	-0.2114995	0.3620695	0	0	0	0	0	0
7.341351	-0.2114995	0.3620695	0	0	0	0	0	0
7.357918	-0.2114995	0.3620695	0	0	0	0	0	0
7.374619	-0.2114995	0.3620695	0	0	0	0	0	0
7.391129	-0.2114995	0.3620695	0	0	0	0	0	0
7.473883	-0.2114995	0.3620695	0	0	0	0	0	0
7.49045	-0.2114995	0.3620695	0	0	0	0	0	0
7.507017	-0.2114995	0.3620695	0	0	0	0	0	0
7.523584	-0.2114995	0.3620695	0	0	0	0	0	0
7.540151	-0.2114995	0.3620695	0	0	0	0	0	0
7.556717	-0.2114995	0.3620695	0	0	0	0	0	0
7.573758	-0.2114995	0.3620695	0	0	0	0	0	0
7.589851	-0.2114995	0.3620695	0	0	0	0	0	0
7.606417	-0.2114995	0.3620695	0	0	0	0	0	0
7.622984	-0.2114995	0.3620695	0	0	0	0	0	0
7.639591	-0.2114995	0.3620695	0	0	0	0	0	0
7.656119	-0.2114995	0.3620695	0	0	0	0	0	0
7.680106	-0.2114995	0.3620695	0	0	0	0	0	0
7.696683	-0.2114995	0.3620695	0	0	0	0	0	0
7.71324	-0.2114995	0.3620695	0	0	0	0	0	0
7.729806	-0.2114995	0.3620695	0	0	0	0	0	0
7.746379	-0.2114995	0.3620695	0	0	0	0	0	0
7.76294	-0.2114995	0.3620695	0	0	0	0	0	0
7.779903	-0.2114995	0.3620695	0	0	0	0	0	0
7.796073	-0.2114995	0.3620695	0	0	0	0	0	0
7.812927	-0.2114995	0.3620695	0	0	0	0	0	0
7.829206	-0.2114995	0.3620695	0	0	0	0	0	0
7.845773	-0.2114995	0.3620695	0	0	0	0	0	0
7.86234	-0.2114995	0.3620695	0	0	0	0	0	0
7.878984	-0.2114995	0.3620695	0	0	0	0	0	0
7.895473	-0.2114995	0.3620695	0	0	0	0	0	0
7.91204	-0.2114743	0.3620873	0.001518291	0.001077555	0.04593119	0.03259809	0	0
7.928607	-0.2114743	0.3620873	0	0	-0.04582344	-0.03252162	0	0
7.945174	-0.2114743	0.3620873	0	0	0	0	0	0
7.96174	-0.2114743	0.3620873	0	0	0	0	0	0
7.978307	-0.2114743	0.3620873	0	0	0	0	0	0
7.994874	-0.2114743	0.3620873	0	0	0	0	0	0
8.011567	-0.2114743	0.3620873	0	0	0	0	0	0
8.028079	-0.2114743	0.3620873	0	0	0	0	0	0
8.044591	-0.2114743	0.3620873	0	0	0	0	0	0
8.061141	-0.2114743	0.3620873	0	0	0	0	0	0
8.077707	-0.2114743	0.3620873	0	0	0	0	0	0
8.094274	-0.2114743	0.3620873	0	0	0	0	0	0
8.11084	-0.2114743	0.3620873	0	0	0	0	0	0
8.127407	-0.2114743	0.3620873	0	0	0	0	0	0
8.143974	-0.2114743	0.3620873	0	0	0	0	0	0
8.160673	-0.2114743	0.3620873	0	0	0	0	0	0
8.177107	-0.2114743	0.3620873	0	0	0	0	0	0
8.193695	-0.2114743	0.3620873	0	0	0	0	0	0
8.21024	-0.2114743	0.3620873	0	0	0	0	0	0
8.226807	-0.2114743	0.3620873	0	0	0	0	0	0
8.243373	-0.2114743	0.3620873	0	0	0	0	0	0
8.259939	-0.2114743	0.3620873	0	0	0	0	0	0
8.276505	-0.2114743	0.3620873	0	0	0	0	0	0
8.312278	-0.2114743	0.3620873	0	0	0	0	0	0
8.345223	-0.2114743	0.3620873	0	0	0	0	0	0
8.36179	-0.2114743	0.3620873	0	0	0	0	0	0
8.378357	-0.2114743	0.3620873	0	0	0	0	0	0
8.394923	-0.2114743	0.3620873	0	0	0	0	0	0
8.41149	-0.2114743	0.3620873	0	0	0	0	0	0
8.428057	-0.2114743	0.3620873	0	0	0	0	0	0
8.444623	-0.2114743	0.3620873	0	0	0	0	0	0
8.46119	-0.2114743	0.3620873	0	0	0	0	0	0
8.477757	-0.2114743	0.3620873	0	0	0	0	0	0
8.494323	-0.2114743	0.3620873	0	0	0	0	0	0
8.510889	-0.2114743	0.3620873	0	0	0	0	0	0
8.527455	-0.2114743	0.3620873	0	0	0	0	0	0
8.544022	-0.2114743	0.3620873	0	0	0	0	0	0
8.560588	-0.2114743	0.3620873	0	0	0	0	0	0
8.577154	-0.2114743	0.3620873	0	0	0	0	0	0
8.59372	-0.2114743	0.3620873	0	0	0	0	0	0
8.610288	-0.2114743	0.3620873	0	0	0	0	0	0
8.626854	-0.2114743	0.3620873	0	0	0	0	0	0
8.64342	-0.2114743	0.3620873	0	0	0	0	0	0
8.660021	-0.2114743	0.3620873	0	0	0	0	0	0
8.676554	-0.2114743	0.3620873	0	0	0	0	0	0
8.69312	-0.2114743	0.3620873	0	0	0	0	0	0
8.709686	-0.2114743	0.3620873	0	0	0	0	0	0
8.726254	-0.2114743	0.3620873	0	0	0	0	0	0
8.743078	-0.2114743	0.3620873	0	0	0	0	0	0
8.759386	-0.2114743	0.3620873	0	0	0	0	0	0
8.775953	-0.2114743	0.3620873	0	0	0	0	0	0
8.79252	-0.2114743	0.3620873	0	0	0	0	0	0
8.809086	-0.2114491	0.3620695	0.001518335	-0.001077586	0.04582608	-0.03252349	0	0
8.825652	-0.211424	0.3620516	0.001518335	-0.001079385	0	-5.429603E-05	0	0
8.892183	-0.2112479	0.3619266	0.002646908	-0.00187913	0.01358132	-0.009624179	0	0
8.908484	-0.2112479	0.3619266	0	0	-0.03195501	0.02268595	0	0
8.925052	-0.2112227	0.3619087	0.001519147	-0.001077524	0.0462191	-0.032783	0	0
8.941717	-0.2111472	0.3618551	0.004528791	-0.003215308	0.09056275	-0.06432773	0	0
8.95823	-0.2110718	0.3618015	0.00457064	-0.003245019	0.001261321	-0.0008954958	0	0
8.974751	-0.2109711	0.3617301	0.006092523	-0.004325646	0.04606976	-0.03271227	0	0
8.991318	-0.2107446	0.3615336	0.01367041	-0.01185885	0.2290242	-0.2276735	0	0
9.007885	-0.2100903	0.3610692	0.03949693	-0.02803182	0.7794682	-0.4881154	0	0
9.042755	-0.2053281	0.3575864	0.1365683	-0.09987881	1.887176	-1.396786	0	0
9.059321	-0.2007587	0.3543538	0.2758297	-0.1951295	2.707446	-1.851813	0	0
9.075888	-0.1951425	0.3503892	0.3390106	-0.2393177	1.906914	-1.33368	0	0
9.092477	-0.1909856	0.3474605	0.2505794	-0.1765432	-2.667171	1.893339	0	0
9.109021	-0.1791888	0.339139	0.7130433	-0.5029812	13.95759	-9.852204	0	0
9.125587	-0.1721475	0.3342104	0.4250376	-0.2975091	-8.698288	6.205626	0	0
9.142154	-0.1627067	0.3275852	0.5698794	-0.3999248	4.371586	-3.091089	0	0
9.15872	-0.1576544	0.324067	0.3049758	-0.2123708	-7.995268	5.660717	0	0
9.175287	-0.1478346	0.3172085	0.5927265	-0.4139762	8.684583	-6.084636	0	0
9.224987	-0.1215038	0.2982879	0.5297968	-0.3806978	-0.9496382	0.5021852	0	0
9.241553	-0.1162628	0.2869183	0.3163655	-0.6863145	-3.220823	-4.611963	0	0
9.258121	-0.1157695	0.275524	0.02977582	-0.6877573	-8.649544	-0.04354474	0	0
9.274951	-0.1153021	0.2632442	0.0277705	-0.7296188	-0.06004387	-1.253427	0	0
9.291254	-0.1139256	0.2452694	0.08443167	-1.102541	1.710087	-11.25514	0	0
9.30782	-0.1130683	0.2360291	0.05174842	-0.5577813	-0.9943384	16.57349	0	0
9.324492	-0.1107554	0.2170367	0.1387363	-1.139235	2.617165	-17.49393	0	0
9.340954	-0.1087534	0.2029049	0.1216111	-0.8584327	-0.516857	8.474878	0	0
9.358012	-0.1042522	0.1844134	0.2638692	-1.084012	4.243889	-6.729546	0	0
9.374086	-0.09932993	0.1714492	0.306225	-0.8065216	1.278373	8.375153	0	0
9.390653	-0.09390719	0.1584043	0.3273357	-0.7874358	0.6467652	0.5847291	0	0
9.40722	-0.08573667	0.141312	0.4931737	-1.031694	5.005146	-7.371949	0	0
9.423786	-0.07794701	0.1293287	0.4702117	-0.7233581	-0.6930164	9.305873	0	0
9.440352	-0.06957175	0.1181948	0.5055611	-0.6720805	1.066908	1.54765	0	0
9.456919	-0.05929882	0.1031882	0.620111	-0.9058529	3.457325	-7.055669	0	0
9.473485	-0.05557429	0.09537315	0.2248256	-0.4717439	-11.93043	13.10219	0	0
9.490052	-0.0502209	0.08423256	0.3231318	-0.672447	2.966972	-6.057405	0	0
9.506618	-0.04231683	0.06617368	0.4771454	-1.090162	4.648408	-12.60738	0	0
9.523184	-0.03911162	0.05506655	0.1934778	-0.6704662	-8.561845	12.66753	0	0
9.539751	-0.03798173	0.04357466	0.06820063	-0.6936517	-3.78098	-0.6997597	0	0
9.556317	-0.03677289	0.02881976	0.07296981	-0.8906592	0.1439384	-5.945868	0	0
9.573159	-0.03619471	0.01782646	0.03432966	-0.6527354	-1.156608	7.121726	0	0
9.589451	-0.03569536	0.007080336	0.0306509	-0.6596107	-0.1110282	-0.2075058	0	0
9.606019	-0.03566908	0.0002926667	0.001586289	-0.4096809	-0.8845036	7.605944	0	0
9.622585	-0.03511713	-0.01500703	0.03331725	-0.9235446	0.9576423	-15.50844	0	0
9.639715	-0.03467031	-0.02320552	0.02608436	-0.478607	-0.21465	13.2044	0	0
9.655725	-0.03380291	-0.02967717	0.05417793	-0.4042183	0.8477191	2.244665	0	0
9.672329	-0.03438118	-0.03595302	-0.03482867	-0.377984	-2.729112	0.8043956	0	0
9.691976	-0.03622099	-0.04151702	-0.09364495	-0.2832038	-1.622513	2.614618	0	0
9.708758	-0.0343549	-0.04302412	0.1111912	-0.08980069	5.622824	5.308983	0	0
9.725112	-0.03338233	-0.04373024	0.05947122	-0.04317832	-1.560821	1.406985	0	0
9.741782	-0.03340862	-0.04371116	-0.001576802	0.001145059	-1.848605	1.342163	0	0
9.758294	-0.03340862	-0.04371116	0	0	0.0475196	-0.03450828	0	0
9.774811	-0.03340862	-0.04371116	0	0	0	0	0	0
9.791378	-0.03343491	-0.04369207	-0.00158683	0.001151953	-0.04796378	0.03481911	0	0
9.807944	-0.03343491	-0.04369207	0	0	0.047892	-0.034767	0	0
9.824841	-0.03346119	-0.04367298	-0.001555709	0.001129741	-0.04649109	0.03376139	0	0
9.841078	-0.03346119	-0.04367298	0	0	0.04695275	-0.03409664	0	0
9.857644	-0.03346119	-0.04367298	0	0	0	0	0	0
9.874378	-0.03346119	-0.04367298	0	0	0	0	0	0
9.890776	-0.03346119	-0.04367298	0	0	0	0	0	0
9.9074	-0.03346119	-0.04367298	0	0	0	0	0	0
9.923914	-0.03346119	-0.04367298	0	0	0	0	0	0
9.940477	-0.03346119	-0.04367298	0	0	0	0	0	0
9.957045	-0.03346119	-0.04367298	0	0	0	0	0	0
10.04	-0.03346119	-0.04367298	0	0	0	0	0	0
10.07302	-0.03346119	-0.04367298	0	0	0	0	0	0
10.09003	-0.03346119	-0.04367298	0	0	0	0	0	0
10.10614	-0.03346119	-0.04367298	0	0	0	0	0	0
10.12271	-0.03346119	-0.04367298	0	0	0	0	0	0
10.13928	-0.03346119	-0.04367298	0	0	0	0	0	0
10.15584	-0.03346119	-0.04367298	0	0	0	0	0	0
10.17258	-0.03346119	-0.04367298	0	0	0	0	0	0
10.1891	-0.03346119	-0.04367298	0	0	0	0	0	0
10.20561	-0.03346119	-0.04367298	0	0	0	0	0	0
10.22213	-0.03346119	-0.04367298	0	0	0	0	0	0
10.23868	-0.03346119	-0.04367298	0	0	0	0	0	0
10.25525	-0.03346119	-0.04367298	0	0	0	0	0	0
10.27181	-0.03346119	-0.04367298	0	0	0	0	0	0
10.28838	-0.03346119	-0.04367298	0	0	0	0	0	0
10.30495	-0.03346119	-0.04367298	0	0	0	0	0	0
10.32169	-0.03346119	-0.04367298	0	0	0	0	0	0
10.3382	-0.03346119	-0.04367298	0	0	0	0	0	0
10.35851	-0.03346119	-0.04367298	0	0	0	0	0	0
10.37508	-0.03348748	-0.0436539	-0.001586605	0.001151953	-0.04301905	0.03123393	0	0
10.39165	-0.03348748	-0.0436539	0	0	0.04788383	-0.034766	0	0
10.40825	-0.03354005	-0.04361572	-0.003167011	0.002299629	-0.09548715	0.0693351	0	0
10.42478	-0.03356634	-0.04359664	-0.001590033	0.001154278	0.04759466	-0.03456776	0	0
10.44135	-0.03359262	-0.04357756	-0.001586605	0.001151953	0.0001035746	-7.025488E-05	0	0
10.45792	-0.03361891	-0.04355847	-0.001586696	0.001152244	-2.758115E-06	8.78732E-06	0	0
10.47479	-0.03367148	-0.0435203	-0.003114759	0.002261467	-0.04568963	0.03316617	0	0
10.49105	-0.03375034	-0.04342487	-0.004851414	0.005870605	-0.05241537	0.1089303	0	0
10.50762	-0.03390805	-0.04319587	-0.009519629	0.01382298	-0.1422297	0.2422905	0	0
10.52418	-0.03427605	-0.04277607	-0.02221352	0.02534059	-0.3831135	0.3476122	0	0
10.54075	-0.03611587	-0.0413263	-0.1110584	0.08751318	-2.681498	1.87648	0	0
10.55735	-0.04158128	-0.03705738	-0.3291728	0.2571102	-6.575703	5.113004	0	0
10.57388	-0.04846203	-0.03180571	-0.4162571	0.3177043	-2.628286	1.828787	0	0
10.59045	-0.05961349	-0.02335719	-0.6731426	0.5099831	-7.761755	5.809671	0	0
10.60701	-0.06910034	-0.01627424	-0.5726599	0.4275527	3.032748	-2.487897	0	0
10.62358	-0.07593267	-0.01111398	-0.4124245	0.3114917	4.836192	-3.50293	0	0
10.64015	-0.09007142	-0.000234375	-0.8534654	0.656732	-13.31141	10.41997	0	0
10.65671	-0.1014401	0.009127125	-0.6862542	0.5650938	5.046734	-2.765808	0	0
10.67328	-0.1159772	0.02282253	-0.8774613	0.826656	-5.770808	7.894191	0	0
10.68985	-0.127256	0.0332226	-0.6808267	0.6277857	5.934615	-6.002089	0	0
10.70641	-0.1385281	0.04899999	-0.6803864	0.9523252	0.01329045	9.794901	0	0
10.72298	-0.1460062	0.06067951	-0.4514061	0.7050177	6.910837	-7.463968	0	0
10.73998	-0.1527739	0.07182661	-0.3981403	0.6557777	1.586965	-1.467025	0	0
10.75649	-0.1590914	0.08285181	-0.382604	0.667712	0.4636282	0.3561404	0	0
10.77268	-0.1652426	0.09333463	-0.3799435	0.6475042	0.08135663	-0.617948	0	0
10.82254	-0.1765631	0.1223227	-0.2270516	0.5813997	2.314839	-1.000847	0	0
10.88865	-0.1885238	0.1774011	-0.1809217	0.8331368	0.397779	2.170733	0	0
10.90522	-0.1907319	0.1963435	-0.1332906	1.143431	0.5761182	3.753143	0	0
10.92178	-0.1917973	0.2039138	-0.06429967	0.4569213	2.08215	-20.71892	0	0
10.93835	-0.192634	0.2151658	-0.05051094	0.6792503	0.4161566	6.710095	0	0
10.95492	-0.1937745	0.2297444	-0.06884372	0.8799676	-0.5533164	6.058008	0	0
10.97148	-0.1951425	0.2397621	-0.08258132	0.6047352	-0.4146253	-8.307008	0	0
10.98805	-0.1960794	0.2489634	-0.05655113	0.5553908	0.7856378	-1.489301	0	0
11.00467	-0.1963832	0.2614712	-0.01827788	0.752548	1.15323	5.940639	0	0
11.02118	-0.196611	0.2709785	-0.01379664	0.5757822	0.1352519	-5.335108	0	0
11.03775	-0.1967882	0.2832343	-0.01069491	0.7398052	0.09376965	4.958644	0	0
11.07474	-0.1970919	0.2981807	-0.008209036	0.4040025	0.04641097	-6.269402	0	0
11.09131	-0.198104	0.3150115	-0.06108879	1.015909	-0.9872418	11.42403	0	0
11.10788	-0.1984075	0.3204057	-0.01832151	0.3255922	1.290719	-20.83381	0	0
11.12444	-0.1991915	0.333139	-0.04732294	0.7686284	-0.8752903	13.37124	0	0
11.14101	-0.1991915	0.3387819	0	0.340627	1.428291	-12.91785	0	0
11.15758	-0.1989639	0.3465141	0.01373698	0.4667423	0.4146066	3.806388	0	0
11.17429	-0.1993685	0.3559076	-0.02421064	0.5621397	-1.140371	2.866805	0	0
11.1908	-0.200051	0.3623552	-0.04134474	0.3905519	-0.5157869	-5.1653	0	0
11.20731	-0.2001774	0.3716981	-0.007652785	0.5657575	1.020261	5.305581	0	0
11.22384	-0.1996213	0.3789884	0.03363665	0.440961	1.249426	-3.776364	0	0
11.24041	-0.1987869	0.3860128	0.05036861	0.4240167	0.5055099	-0.5119258	0	0
11.25698	-0.1981546	0.3962229	0.03816886	0.6163217	-0.3682104	5.804112	0	0
11.27354	-0.1976486	0.4046674	0.0305421	0.5097361	-0.2301892	-3.216947	0	0
11.29011	-0.1971931	0.414585	0.02749374	0.5986648	-0.0920051	2.68403	0	0
11.30667	-0.1968641	0.4184001	0.01985889	0.230294	-0.2304335	-11.11809	0	0
11.32324	-0.1956237	0.4222881	0.07486492	0.2346502	1.660038	0.1314659	0	0
11.33981	-0.1918733	0.4249764	0.2263979	0.1622841	4.573274	-2.184013	0	0
11.35641	-0.1909349	0.4256396	0.05652428	0.03994701	-5.121636	-3.688425	0	0
11.37294	-0.1877365	0.4278984	0.1934866	0.1366487	4.133768	2.918629	0	0
11.38951	-0.1870761	0.4283287	0.03986709	0.0259736	-4.64159	-3.34403	0	0
11.40607	-0.1870507	0.4283108	0.001533538	-0.001081122	-1.156942	-0.8165368	0	0
11.42264	-0.1869999	0.428239	0.003067253	-0.004330134	0.04628893	-0.09805819	0	0
11.43921	-0.1869491	0.4282032	0.003067253	-0.002164167	0	0.06537275	0	0
11.45577	-0.1868728	0.4281135	0.004600879	-0.005411318	0.0462876	-0.09800483	0	0
11.47249	-0.1867458	0.4279881	0.007598605	-0.007505918	0.09005941	-0.06292719	0	0
11.489	-0.186695	0.4279522	0.003077528	-0.002171417	-0.1360509	0.1605289	0	0
11.58831	-0.1860851	0.4273068	0.006141748	-0.006499637	0.02645828	-0.03737241	0	0
11.60487	-0.185958	0.4272171	0.00767083	-0.005411318	0.0131967	0.009392709	0	0
11.62144	-0.1859072	0.4271813	0.003068522	-0.002163794	-0.1388939	0.09800764	0	0
11.63801	-0.1857801	0.4270916	0.007671272	-0.005411629	0.1389113	-0.09801987	0	0
11.65462	-0.1857547	0.4270379	0.001530034	-0.003235851	-0.1850872	0.06557451	0	0
11.67114	-0.1853225	0.4267331	0.02616285	-0.01845229	0.7434627	-0.4592596	0	0
11.68771	-0.184814	0.4263387	0.03069412	-0.02380584	0.1369627	-0.1618172	0	0
11.70427	-0.1835424	0.4254066	0.07675786	-0.05626331	1.390246	-0.9795966	0	0
11.72084	-0.1834661	0.425317	0.004605746	-0.005408896	-2.177492	1.534745	0	0
11.73768	-0.1834661	0.425317	0	0	-0.1378629	0.1619034	0	0
11.75397	-0.1834915	0.425299	-0.00156122	-0.001101176	-0.04712041	-0.03323549	0	0
11.77388	-0.1834915	0.425299	0	0	0.04313267	0.03042281	0	0
11.79044	-0.1834915	0.4252632	0	-0.002164043	0	-0.05933694	0	0
11.82374	-0.1835169	0.4252453	-0.0007639744	-0.0005379597	-0.01532181	0.03261173	0	0
11.85671	-0.1835424	0.4252273	-0.0007714431	-0.0005432189	-0.0001127059	-7.936345E-05	0	0
11.87328	-0.1835424	0.4252273	0	0	0.01557256	0.01096557	0	0
11.88984	-0.1835678	0.4252094	-0.001536325	-0.001082983	-0.04636905	-0.03268638	0	0
11.90641	-0.1835678	0.4252094	0	0	0.04636905	0.03268638	0	0
11.92331	-0.1835678	0.4252094	0	0	0	0	0	0
11.93954	-0.1835678	0.4252094	0	0	0	0	0	0
11.95633	-0.1835678	0.4252094	0	0	0	0	0	0
11.97268	-0.1835678	0.4252094	0	0	0	0	0	0
11.98924	-0.1835678	0.4252094	0	0	0	0	0	0
12.00581	-0.1835933	0.4251915	-0.001535337	-0.001081122	-0.0463379	-0.03262927	0	0
12.02238	-0.1836187	0.4251736	-0.00153516	-0.001082796	5.333067E-06	-5.052361E-05	0	0
12.03894	-0.1836187	0.4251736	0	0	0.04633256	0.03267979	0	0
12.05551	-0.1836187	0.4251736	0	0	0	0	0	0
12.07208	-0.1836187	0.4251736	0	0	0	0	0	0
12.08864	-0.1836187	0.4251736	0	0	0	0	0	0
12.10521	-0.1836441	0.4251556	-0.001535425	-0.001081184	-0.0463419	-0.03263208	0	0
12.12178	-0.1836441	0.4251556	0	0	0.0463419	0.03263208	0	0
12.13846	-0.1836696	0.4251377	-0.00152463	-0.001075369	-0.04585373	-0.03234206	0	0
12.15491	-0.1837204	0.4251018	-0.003092571	-0.002179474	-0.04732191	-0.03332293	0	0
12.17148	-0.1837713	0.425066	-0.003069437	-0.002161373	0.0007005048	0.0005481249	0	0
12.18804	-0.1838476	0.4250122	-0.004608133	-0.003248459	-0.04643928	-0.03280928	0	0
12.22502	-0.1839239	0.4249585	-0.002063588	-0.001453901	0.04752755	0.03351915	0	0
12.24148	-0.1839239	0.4249585	0	0	0.03861773	0.02720812	0	0
12.25805	-0.1840002	0.4249047	-0.004606276	-0.003245351	-0.1394834	-0.098273	0	0
12.27461	-0.184102	0.424833	-0.006141348	-0.004328086	-0.0463299	-0.03267792	0	0
12.29118	-0.1842037	0.4247613	-0.006140802	-0.004328335	1.648545E-05	-7.518938E-06	0	0
12.30774	-0.1843309	0.4246358	-0.007676227	-0.007573686	-0.0463419	-0.09795054	0	0
12.32431	-0.1845852	0.4244566	-0.01534977	-0.01081841	-0.2315947	-0.09792891	0	0
12.34088	-0.1847378	0.4243132	-0.009209855	-0.00865487	0.1853084	0.06529777	0	0
12.35744	-0.1849666	0.4240802	-0.01381343	-0.01406439	-0.1389443	-0.163269	0	0
12.39364	-0.1850174	0.4238293	-0.001404587	-0.006931546	0.2351766	0.1351841	0	0
12.41021	-0.1839239	0.422987	0.0659966	-0.05083746	1.277341	-0.8320745	0	0
12.42678	-0.1830081	0.422306	0.05528569	-0.04110895	-0.3232559	0.2936069	0	0
12.44334	-0.1756448	0.416985	0.4444737	-0.3211944	11.74673	-8.453727	0	0
12.45991	-0.1665481	0.4103235	0.5491138	-0.4021124	3.158226	-2.442248	0	0
12.4767	-0.1591941	0.405079	0.4380388	-0.3123882	-3.330111	2.689997	0	0
12.49321	-0.1493274	0.3981369	0.5975448	-0.4204311	4.789913	-3.244493	0	0
12.50972	-0.1429395	0.3936654	0.3868663	-0.2708015	-6.379589	4.530959	0	0
12.52618	-0.1376761	0.3899817	0.3198918	-0.2238795	-2.031643	1.423357	0	0
12.54274	-0.1347573	0.3879614	0.1761621	-0.1219333	-4.352428	3.087141	0	0
12.57588	-0.1275408	0.3828667	0.2178199	-0.1537754	0.8381877	-0.6406887	0	0
12.59244	-0.126997	0.3824914	0.03282141	-0.0226563	-3.722534	2.638374	0	0
12.60929	-0.1247436	0.3809007	0.1337206	-0.09439552	3.019335	-2.146743	0	0
12.62558	-0.1223075	0.379185	0.1496116	-0.1053667	0.4795909	-0.3311113	0	0
12.64214	-0.1220742	0.3789884	0.01408418	-0.01186784	-4.125731	2.846296	0	0
12.65871	-0.1220742	0.3789884	0	0	-0.4250858	0.3581927	0	0
12.67527	-0.1221001	0.3789706	-0.001565109	-0.001077586	-0.04723779	-0.03252349	0	0
12.69185	-0.1221001	0.3789706	0	0	0.04722827	0.03251694	0	0
12.75811	-0.122152	0.3788991	-0.0007824981	-0.001079013	-0.009446662	-0.01302632	0	0
12.77467	-0.122152	0.3788991	0	0	0.009447424	0.01302737	0	0
12.79124	-0.1221779	0.3788812	-0.001564659	-0.001079385	-0.04722421	-0.03257778	0	0
12.80781	-0.1221779	0.3788812	0	0	0.04722421	0.03257778	0	0
12.82437	-0.1221779	0.3788812	0	0	0	0	0	0
12.84094	-0.1221779	0.3788812	0	0	0	0	0	0
12.85751	-0.1221779	0.3788812	0	0	0	0	0	0
12.87407	-0.1222038	0.3788633	-0.001565109	-0.001077586	-0.04723779	-0.03252349	0	0
12.89064	-0.1222297	0.3788455	-0.001565109	-0.001079385	0	-5.429603E-05	0	0
12.90721	-0.1222297	0.3788455	0	0	0.04723643	0.03257685	0	0
12.92377	-0.1222297	0.3788455	0	0	0	0	0	0
12.94034	-0.1222297	0.3788455	0	0	0	0	0	0
12.95691	-0.1222297	0.3788455	0	0	0	0	0	0
12.97355	-0.1222297	0.3788455	0	0	0	0	0	0
12.99004	-0.1222557	0.3788633	-0.001571625	0.001084191	-0.04743448	0.03272283	0	0
13.00661	-0.1222557	0.3788633	0	0	0.04753847	-0.03279457	0	0
13.02317	-0.1222816	0.3788812	-0.001565109	0.001077586	-0.04723643	0.03252255	0	0
13.03974	-0.1223075	0.3788991	-0.001564659	0.001079385	1.357664E-05	5.429603E-05	0	0
13.0563	-0.1223594	0.3789348	-0.003129767	0.002156971	-0.04723779	0.03252349	0	0
13.07287	-0.1224371	0.3789884	-0.004694426	0.003236357	-0.04722421	0.03257778	0	0
13.08944	-0.1225149	0.379042	-0.004694426	0.003236357	0	0	0	0
13.106	-0.1226704	0.3791493	-0.009388852	0.006472713	-0.1416862	0.09767906	0	0
13.12517	-0.1229037	0.3793459	-0.0121694	0.01025602	-0.07780796	0.105868	0	0
13.14174	-0.1230852	0.3794709	-0.01095153	0.007549865	0.03407873	-0.0757241	0	0
13.15831	-0.1236035	0.3798284	-0.03128958	0.02157691	-0.6138211	0.4233492	0	0
13.17518	-0.1251322	0.3808828	-0.09058544	0.06248058	-1.773069	1.223104	0	0
13.19144	-0.1272042	0.3823127	-0.1274538	0.08795502	-1.112754	0.7688645	0	0
13.20801	-0.129275	0.3837783	-0.1249955	0.08846851	0.0748954	0.01564407	0	0
13.22472	-0.1326377	0.3861022	-0.2012133	0.1390504	-2.290239	1.519914	0	0
13.24114	-0.1346281	0.3874787	-0.1212042	0.08382637	2.414749	-1.666712	0	0
13.25774	-0.134809	0.3876038	-0.01089594	0.007537409	3.340263	-2.310118	0	0
13.27427	-0.1349898	0.387729	-0.01094129	0.007571824	-0.001368447	0.001038696	0	0
13.29084	-0.1369014	0.389052	-0.1153841	0.07985731	-3.155543	2.183969	0	0
13.30741	-0.1385281	0.3901784	-0.09819077	0.06799407	0.5189117	-0.3580436	0	0
13.32398	-0.1407732	0.3917341	-0.1354997	0.0938885	-1.125953	0.7814728	0	0
13.34054	-0.140799	0.391752	-0.001557192	0.00107951	4.04251	-2.801062	0	0
13.35711	-0.140799	0.391752	0	0	0.04700022	-0.03258247	0	0
13.37367	-0.140799	0.391752	0	0	0	0	0	0
13.39034	-0.140799	0.391752	0	0	0	0	0	0
13.48964	-0.140799	0.3917162	0	-0.0003601406	0	-0.0031056	0	0
13.5062	-0.140799	0.3917162	0	0	0	0.003108182	0	0
13.52277	-0.1407732	0.3916983	0.001557013	-0.001079385	0.04699345	-0.03257778	0	0
13.53934	-0.1407732	0.3916983	0	0	-0.04699345	0.03257778	0	0
13.5559	-0.1407732	0.3916983	0	0	0	0	0	0
13.57247	-0.1407732	0.3916983	0	0	0	0	0	0
13.58904	-0.1407474	0.3916804	0.001557103	-0.001079447	0.04699481	-0.03257872	0	0
13.6056	-0.1407474	0.3916804	0	0	-0.04699751	0.0325806	0	0
13.62217	-0.1407216	0.3916626	0.001557913	-0.001079385	0.0470206	-0.03257778	0	0
13.63874	-0.1407216	0.3916626	0	0	-0.0470206	0.03257778	0	0
13.6553	-0.1407216	0.3916626	0	0	0	0	0	0
13.67203	-0.1407216	0.3916626	0	0	0	0	0	0
13.68844	-0.1407216	0.3916626	0	0	0	0	0	0
13.705	-0.1407216	0.3916626	0	0	0	0	0	0
13.72157	-0.1407216	0.3916626	0	0	0	0	0	0
13.73813	-0.1407216	0.3916626	0	0	0	0	0	0
13.75471	-0.1407216	0.3916626	0	0	0	0	0	0
13.77127	-0.1407216	0.3916626	0	0	0	0	0	0
13.78811	-0.1407216	0.3916626	0	0	0	0	0	0
13.80462	-0.1407216	0.3916626	0	0	0	0	0	0
13.82113	-0.1407216	0.3916626	0	0	0	0	0	0
13.83753	-0.1407216	0.3916626	0	0	0	0	0	0
13.87287	-0.1407216	0.3916626	0	0	0	0	0	0
13.88944	-0.1407216	0.3916626	0	0	0	0	0	0
13.906	-0.1407216	0.3916626	0	0	0	0	0	0
13.92257	-0.1407216	0.3916626	0	0	0	0	0	0
13.95573	-0.1407216	0.3916626	0	0	0	0	0	0
13.97227	-0.1407216	0.3916626	0	0	0	0	0	0
13.98884	-0.1407216	0.3916626	0	0	0	0	0	0
14.0054	-0.1407216	0.3916626	0	0	0	0	0	0
14.02197	-0.1407216	0.3916626	0	0	0	0	0	0
14.03854	-0.1407216	0.3916626	0	0	0	0	0	0
14.0551	-0.1407216	0.3916626	0	0	0	0	0	0
14.07167	-0.1407216	0.3916626	0	0	0	0	0	0
14.08824	-0.1407216	0.3916626	0	0	0	0	0	0
14.1048	-0.1407216	0.3916626	0	0	0	0	0	0
14.12137	-0.1407216	0.3916626	0	0	0	0	0	0
14.13794	-0.1407216	0.3916626	0	0	0	0	0	0
14.1545	-0.1407216	0.3916626	0	0	0	0	0	0
14.17107	-0.1407216	0.3916626	0	0	0	0	0	0
14.18763	-0.1407216	0.3916626	0	0	0	0	0	0
14.22091	-0.1407216	0.3916626	0	0	0	0	0	0
14.23734	-0.1407216	0.3916626	0	0	0	0	0	0
14.2539	-0.1407216	0.3916626	0	0	0	0	0	0
14.27047	-0.1407216	0.3916626	0	0	0	0	0	0
14.28703	-0.1407216	0.3916626	0	0	0	0	0	0
14.3036	-0.1407216	0.3916626	0	0	0	0	0	0
14.32017	-0.1407216	0.3916626	0	0	0	0	0	0
14.33673	-0.1407216	0.3916626	0	0	0	0	0	0
14.35401	-0.1407216	0.3916626	0	0	0	0	0	0
14.37002	-0.1407216	0.3916626	0	0	0	0	0	0
14.38643	-0.1407216	0.3916626	0	0	0	0	0	0
14.40304	-0.1407216	0.3916626	0	0	0	0	0	0
14.41957	-0.1407474	0.3916804	-0.001561779	0.001082064	-0.04713457	0.03265675	0	0
14.43614	-0.1407732	0.3916983	-0.001556834	0.001079261	0.0001494175	-8.469395E-05	0	0
14.4527	-0.1408248	0.3917699	-0.003114026	0.004317541	-0.04699616	0.09773148	0	0
14.47245	-0.1411601	0.3920381	-0.01698337	0.01358368	-0.3819482	0.2551803	0	0
14.48902	-0.1424496	0.392968	-0.07783538	0.0561284	-1.675761	1.17161	0	0
14.54066	-0.17064	0.4128659	-0.5458867	0.3853099	-6.862048	4.826093	0	0
14.55723	-0.1735265	0.4149611	-0.1742188	0.1264588	5.448905	-3.794934	0	0
14.57379	-0.1856276	0.4236859	-0.7304631	0.5266608	-16.78749	12.07812	0	0
14.59036	-0.1947119	0.4302115	-0.5483646	0.3939054	5.496062	-4.006795	0	0
14.60719	-0.206362	0.4387331	-0.6922807	0.5063789	-4.309534	3.367994	0	0
14.6237	-0.2170774	0.4466695	-0.6489465	0.4806497	1.299748	-0.7717132	0	0
14.64006	-0.2247933	0.452312	-0.4716291	0.3448849	5.394144	-4.13008	0	0
14.65662	-0.2325071	0.4579402	-0.4656306	0.3397419	0.1821779	-0.1561957	0	0
14.67319	-0.239423	0.4631945	-0.4174693	0.3171647	1.453594	-0.6814185	0	0
14.68976	-0.2479733	0.4702719	-0.516126	0.4272225	-2.977637	3.321739	0	0
14.70632	-0.2540476	0.4762924	-0.3666663	0.3634182	4.510965	-1.925727	0	0
14.72289	-0.2591933	0.4826613	-0.3105932	0.3844243	1.692337	0.6339839	0	0
14.73978	-0.2661875	0.4905544	-0.4141362	0.4673648	-3.094914	2.479102	0	0
14.75629	-0.2682439	0.4981864	-0.1245487	0.4622376	8.670391	-0.1535106	0	0
14.7728	-0.2693935	0.5056292	-0.06962615	0.4507812	1.663216	-0.3469322	0	0
14.78916	-0.2692468	0.5147702	0.008970481	0.5588921	2.391392	3.289398	0	0
14.80572	-0.2692957	0.5212003	-0.002951948	0.388121	-0.3621335	-5.187027	0	0
14.82232	-0.2696869	0.5257828	-0.02357444	0.2761371	-0.6218688	-3.37686	0	0
14.83886	-0.2719103	0.5341773	-0.1344429	0.5076012	-3.346211	6.986001	0	0
14.85542	-0.2738626	0.5422038	-0.1178441	0.4844829	0.5014017	-0.6983335	0	0
14.87199	-0.276714	0.5465699	-0.1721224	0.2635499	-1.638169	-6.667964	0	0
14.88888	-0.2796581	0.5514894	-0.1742841	0.2912233	-0.06460834	0.82709	0	0
14.90512	-0.2819418	0.5591455	-0.1406222	0.4714348	1.015974	5.439107	0	0
14.92191	-0.2874443	0.5641538	-0.3278249	0.2983842	-5.66855	-5.24002	0	0
14.93826	-0.2913119	0.5672023	-0.2365845	0.1864755	2.7538	-3.377607	0	0
14.95494	-0.2952429	0.5706026	-0.2355527	0.2037545	0.0312306	0.5230327	0	0
14.97139	-0.2968319	0.5731411	-0.096626	0.1543617	4.192938	-1.490722	0	0
14.98796	-0.2966153	0.5823717	0.0130742	0.557161	3.323001	12.20146	0	0
15.00452	-0.2951225	0.5933105	0.09011427	0.6603031	2.325141	3.112926	0	0
15.02109	-0.2943032	0.6007218	0.04945383	0.4473728	-1.227205	-6.42662	0	0
15.03765	-0.292374	0.6063285	0.1164549	0.3384448	2.022212	-3.287641	0	0
15.05422	-0.2904183	0.6137145	0.1180506	0.4458401	0.04816082	3.241381	0	0
15.07079	-0.2886297	0.618039	0.1079629	0.2610271	-0.3044554	-5.577827	0	0
15.08735	-0.2862822	0.6225752	0.1416999	0.2738256	1.018214	0.3862711	0	0
15.10392	-0.2867423	0.6233039	-0.02776759	0.04398348	-5.114538	-6.936649	0	0
15.14015	-0.2874685	0.623902	-0.02004416	0.01650686	0.1462871	-0.5204265	0	0
15.15672	-0.2874685	0.623902	0	0	0.3796641	-0.3126627	0	0
15.17328	-0.2874927	0.6239207	-0.001460768	0.001129756	-0.0440886	0.03409808	0	0
15.18985	-0.2875411	0.6239581	-0.002921536	0.002255915	-0.0440886	0.03398949	0	0
15.20642	-0.2875169	0.6241636	0.001460768	0.01240933	0.1322658	0.3064484	0	0
15.22312	-0.2885329	0.6254724	-0.06084042	0.07836769	-1.872761	1.982695	0	0
15.23963	-0.2902251	0.6280918	-0.1024844	0.1586416	-1.253895	2.417037	0	0
15.25616	-0.2890407	0.6382365	0.07165034	0.6137527	5.270415	13.77453	0	0
15.27268	-0.285604	0.6488153	0.207969	0.6401561	4.124077	0.7987864	0	0
15.32238	-0.2754717	0.6753412	0.203867	0.5337139	-0.06193929	-1.607257	0	0
15.33895	-0.2722521	0.6811441	0.1943469	0.3502821	-0.1436634	-2.768071	0	0
15.35551	-0.2676321	0.6848741	0.2788932	0.2251655	2.551833	-3.776351	0	0
15.37208	-0.2648643	0.6870766	0.167057	0.1329398	-3.375321	-2.783459	0	0
15.38865	-0.2639571	0.6877857	0.05476081	0.04280482	-3.389105	-2.720278	0	0
15.40524	-0.2636873	0.6880733	0.01625625	0.01732659	-1.161134	-0.7683153	0	0
15.42226	-0.2637854	0.6883801	-0.005766859	0.01803282	-0.6553038	0.02101411	0	0
15.43835	-0.2640797	0.6891855	-0.01828812	0.05005112	-0.3782299	0.967177	0	0
15.47148	-0.2713241	0.6960244	-0.2186493	0.206409	-4.070324	3.176402	0	0
15.48831	-0.2731795	0.7043909	-0.1102829	0.4973074	2.169223	5.823054	0	0
15.50462	-0.2713486	0.7126164	0.1122537	0.5043011	6.716167	0.2110706	0	0
15.52133	-0.2676321	0.7219466	0.2224061	0.5583481	3.335832	1.636745	0	0
15.53784	-0.267118	0.7239934	0.03113268	0.1239604	-5.757399	-13.07522	0	0
15.55436	-0.265477	0.730773	0.09934653	0.410423	2.065177	8.672668	0	0
15.57088	-0.2637609	0.7339464	0.1038397	0.1920192	0.1359706	-6.609324	0	0
15.58745	-0.2631476	0.742494	0.03701931	0.5159677	-2.019199	9.789184	0	0
15.60402	-0.263074	0.7448787	0.004443469	0.1439468	-0.9831975	-11.22826	0	0
15.62058	-0.2629268	0.7500926	0.008886938	0.3147271	0.1341119	5.154457	0	0
15.63715	-0.2639571	0.7515568	-0.06219238	0.08838366	-2.145301	-6.831453	0	0
15.65371	-0.2640552	0.751636	-0.005922227	0.004781676	1.698334	-2.523258	0	0
15.67028	-0.2640552	0.751636	0	0	0.1787332	-0.1443113	0	0
15.68694	-0.2640552	0.751636	0	0	0	0	0	0
15.70346	-0.2640307	0.7516162	0.001485259	-0.001198314	0.04476852	-0.03611943	0	0
15.71998	-0.2640307	0.7516162	0	0	-0.0449559	0.03627061	0	0
15.73655	-0.2640307	0.7516162	0	0	0	0	0	0
15.75311	-0.2640307	0.7516162	0	0	0	0	0	0
15.76968	-0.2640061	0.7515964	0.001480557	-0.00119452	0.04468586	-0.03605275	0	0
15.78625	-0.2640061	0.7515964	0	0	-0.04468457	0.03605171	0	0
15.80281	-0.2639816	0.7515765	0.001480557	-0.001198118	0.04468457	-0.0361603	0	0
15.81938	-0.2639816	0.7515765	0	0	-0.044682	0.03615822	0	0
15.84413	-0.2639816	0.7515765	0	0	0	0	0	0
15.8607	-0.2639571	0.7515568	0.001480301	-0.001194313	0.03582873	-0.02890678	0	0
15.87726	-0.2639326	0.751537	0.001480642	-0.001194588	1.02873E-05	-8.302215E-06	0	0
15.89383	-0.2639326	0.751537	0	0	-0.04468972	0.03605586	0	0
15.9104	-0.2639081	0.7515172	0.001478758	-0.00119452	0.04463157	-0.03605275	0	0
15.92711	-0.2639081	0.7515172	0	0	-0.04443587	0.03589467	0	0
15.94362	-0.2638835	0.7514974	0.001485431	-0.001198452	0.04470943	-0.03607176	0	0
15.96013	-0.2638835	0.7514974	0	0	-0.04498057	0.03629052	0	0
15.97666	-0.2638835	0.7514974	0	0	0	0	0	0
15.99323	-0.2638835	0.7514974	0	0	0	0	0	0
16.0098	-0.2638835	0.7514974	0	0	0	0	0	0
16.02668	-0.2638835	0.7514974	0	0	0	0	0	0
16.04319	-0.2638835	0.7514974	0	0	0	0	0	0
16.0595	-0.2638835	0.7514974	0	0	0	0	0	0
16.1589	-0.263859	0.7514776	0.0002467547	-0.0001990828	0.00213261	-0.001720599	0	0
16.17546	-0.263859	0.7514776	0	0	-0.002127805	0.001716722	0	0
16.19203	-0.2638345	0.7514578	0.001480471	-0.001194451	0.04468072	-0.0360486	0	0
16.2086	-0.2637854	0.7514182	0.002960943	-0.002388902	0.04468072	-0.0360486	0	0
16.22516	-0.2637364	0.7513787	0.002960943	-0.002388902	0	0	0	0
16.24183	-0.2637118	0.7513589	0.001471493	-0.001187207	-0.04481497	0.03615692	0	0
16.25834	-0.2636873	0.751339	0.001485602	-0.001202201	0.0004252706	-0.0004519198	0	0
16.27486	-0.2636873	0.751339	0	0	-0.04497537	0.03639562	0	0
16.29143	-0.2635647	0.7512005	0.007402357	-0.008361156	0.2237127	-0.2526893	0	0
16.308	-0.2630004	0.7507058	0.03405984	-0.02985767	0.8045244	-0.6487662	0	0
16.32457	-0.2614294	0.7494005	0.09482753	-0.07879058	1.833972	-1.476798	0	0
16.34113	-0.2592179	0.7474245	0.1335025	-0.1192825	1.167279	-1.22212	0	0
16.3577	-0.2540722	0.7425925	0.3105896	-0.2916619	5.344809	-5.202718	0	0
16.37427	-0.2516794	0.7393062	0.1444332	-0.1983652	-5.01461	2.815699	0	0
16.39083	-0.2447805	0.7303816	0.4164172	-0.5386865	8.208493	-10.27092	0	0
16.4074	-0.2392492	0.7259838	0.3338724	-0.2654523	-2.491207	8.246225	0	0
16.42397	-0.2358684	0.7229795	0.2040622	-0.1813407	-3.91768	2.538494	0	0
16.44053	-0.2332545	0.7141297	0.1577745	-0.534175	-1.396965	-10.64856	0	0
16.4571	-0.2345992	0.7052217	-0.08116599	-0.5376863	-7.21124	-0.1059733	0	0
16.47367	-0.2369379	0.6932747	-0.1411647	-0.7211209	-1.810763	-5.536066	0	0
16.49024	-0.2375098	0.6843572	-0.03451585	-0.538262	3.218668	5.518692	0	0
16.5068	-0.237112	0.67496	0.02401044	-0.5672202	1.766327	-0.8739603	0	0
16.52354	-0.2365649	0.6615782	0.0326898	-0.799621	0.2606235	-6.97852	0	0
16.53994	-0.2364157	0.6517026	0.009101104	-0.6022632	-0.7119493	5.956616	0	0
16.5565	-0.2358684	0.6389318	0.03303268	-0.7708525	0.7259758	-5.114238	0	0
16.57307	-0.2352713	0.6331502	0.03604074	-0.3489374	0.09077821	12.73269	0	0
16.59284	-0.2353708	0.6201662	-0.005035945	-0.6568893	-1.130499	-8.475355	0	0
16.6096	-0.2361172	0.6154286	-0.0445349	-0.2826726	-1.081401	10.24529	0	0
16.62611	-0.2365898	0.6076296	-0.02862117	-0.4723273	0.4782949	-5.700167	0	0
16.64254	-0.2364157	0.6024102	0.01059562	-0.31764	1.190418	4.695502	0	0
16.65913	-0.2357689	0.5868576	0.03898077	-0.9373563	0.8595355	-18.76573	0	0
16.67567	-0.2365898	0.5815232	-0.04963384	-0.3225406	-2.674702	18.55731	0	0
16.69224	-0.2378578	0.5688377	-0.07653569	-0.7656969	-0.8126013	-13.38604	0	0
16.70881	-0.2378081	0.563805	0.003000518	-0.3037719	2.400408	13.94093	0	0
16.72537	-0.2385287	0.5533014	-0.04350032	-0.6340016	-1.403398	-9.966352	0	0
16.74194	-0.2399942	0.5431169	-0.08845323	-0.6147392	-1.356682	0.5813378	0	0
16.75851	-0.2409623	0.5366384	-0.05843455	-0.3910387	0.9059654	6.751294	0	0
16.77508	-0.2418555	0.5311345	-0.05391489	-0.3322156	0.1364037	1.775285	0	0
16.79164	-0.2428723	0.5260193	-0.06137481	-0.3087583	-0.2251408	0.7079424	0	0
16.80821	-0.2434177	0.5243458	-0.03291935	-0.1010138	0.8587872	6.269742	0	0
16.87448	-0.2577667	0.5097262	-0.2165266	-0.2206091	-2.216511	-1.443757	0	0
16.89104	-0.2591441	0.5039261	-0.08315162	-0.3501367	1.610143	-1.563696	0	0
16.90761	-0.2575944	0.5000688	0.09353953	-0.2328244	5.332856	3.540698	0	0
16.92418	-0.2549842	0.4920005	0.1575524	-0.4870068	1.931912	-7.67124	0	0
16.94075	-0.2507412	0.4872298	0.256109	-0.2879616	2.974444	6.007195	0	0
16.95731	-0.2483195	0.4813076	0.1461727	-0.3574628	-3.317883	-2.09755	0	0
16.97388	-0.245672	0.472921	0.159801	-0.5062133	0.4113017	-4.489299	0	0
17.00702	-0.2426243	0.45821	0.09197991	-0.4439795	-1.364563	1.252146	0	0
17.02358	-0.240441	0.4459151	0.1317844	-0.7421228	0.8008686	-5.998654	0	0
17.04015	-0.2403418	0.4355748	0.005992941	-0.6241437	-3.796395	3.560615	0	0
17.05672	-0.2401431	0.4219835	0.01198858	-0.8203737	0.1809488	-5.922231	0	0
17.07328	-0.2396465	0.4124899	0.0299746	-0.5730306	0.5428191	7.464828	0	0
17.08985	-0.2394975	0.4067255	0.008995394	-0.3479796	-0.6331902	6.792442	0	0
17.10646	-0.2405155	0.3976539	-0.06127655	-0.546057	-2.118007	-5.970082	0	0
17.12298	-0.2413593	0.3932899	-0.05107257	-0.2641422	0.3079567	8.508204	0	0
17.13955	-0.2412849	0.3929501	0.004493582	-0.02050894	1.67931	7.36304	0	0
17.15612	-0.2412104	0.3928964	0.004492682	-0.003239768	-2.713767E-05	0.5211846	0	0
17.17269	-0.2411112	0.3928249	0.005991142	-0.004317292	0.04522361	-0.03251974	0	0
17.18926	-0.2402176	0.3921454	0.05389744	-0.04098776	1.445316	-1.106335	0	0
17.20582	-0.2357938	0.3889626	0.267239	-0.1922655	6.439031	-4.565833	0	0
17.22255	-0.229365	0.3843503	0.3843233	-0.2757322	3.518019	-2.507917	0	0
17.23895	-0.2249434	0.3811509	0.2694976	-0.1950019	-3.465446	2.436447	0	0
17.25552	-0.2143404	0.3736277	0.6399999	-0.4541054	11.23611	-7.857754	0	0
17.27209	-0.2039405	0.3662493	0.6278074	-0.4454123	-0.3679894	0.2623715	0	0
17.29266	-0.2010871	0.3642308	0.1387105	-0.09812529	-13.1704	9.351743	0	0
17.30922	-0.1993179	0.3629804	0.1067918	-0.07547166	-0.8594607	0.6099853	0	0
17.32579	-0.1979016	0.3619444	0.08547974	-0.06252518	-0.6431628	0.390703	0	0
17.34263	-0.1961807	0.3607298	0.1022139	-0.07214016	0.5009437	-0.287828	0	0
17.35892	-0.1924565	0.3580686	0.2285543	-0.1633209	3.813399	-2.752156	0	0
17.37549	-0.1894885	0.3559076	0.1791496	-0.1304398	-1.50341	1.000589	0	0
17.39206	-0.1851954	0.3527108	0.2591311	-0.1929578	2.413844	-1.886797	0	0
17.40862	-0.1802842	0.3467284	0.2964415	-0.3611001	1.12603	-5.074546	0	0
17.42519	-0.180437	0.340264	-0.009223714	-0.3901897	-9.224994	-0.877925	0	0
17.44176	-0.1825246	0.3342997	-0.1260083	-0.3600064	-3.524565	0.9109334	0	0
17.45872	-0.1863646	0.3271387	-0.226465	-0.4223214	-2.9966	-1.858843	0	0
17.47523	-0.1882191	0.3234776	-0.1123098	-0.2217245	3.410851	5.99365	0	0
17.49146	-0.1906558	0.3209058	-0.1501054	-0.1584273	-1.154228	1.933011	0	0
17.50803	-0.1921016	0.3198163	-0.08726507	-0.06576315	1.915824	2.825069	0	0
17.5246	-0.1920762	0.3197984	0.00153084	-0.001077524	2.679866	1.952216	0	0
17.54116	-0.1918987	0.3196734	0.01071408	-0.007546267	0.2771508	-0.1952271	0	0
17.55773	-0.1917973	0.319602	0.00612246	-0.004311895	-0.1385754	0.09761353	0	0
17.62434	-0.1915944	0.3194948	0.003046161	-0.001608989	-0.03698641	0.03249711	0	0
17.64057	-0.1915944	0.3194948	0	0	-0.03677333	0.01942375	0	0
17.65713	-0.1915944	0.3194948	0	0	0	0	0	0
17.67387	-0.1915944	0.3194948	0	0	0	0	0	0
17.69026	-0.191569	0.3195126	0.001547228	0.001089059	0.0467008	0.03287166	0	0
17.70683	-0.1915944	0.3195305	-0.00153084	0.001079323	-0.09339085	-0.0002954059	0	0
17.7234	-0.191569	0.3195484	0.00153084	0.001077524	0.09240168	-5.428939E-05	0	0
17.73997	-0.191569	0.3195484	0	0	-0.04620084	-0.03251974	0	0
17.75653	-0.191569	0.3195484	0	0	0	0	0	0
17.7731	-0.191569	0.3195484	0	0	0	0	0	0
17.80623	-0.191569	0.3195484	0	0	0	0	0	0
17.83937	-0.191569	0.3195484	0	0	0	0	0	0
17.85593	-0.191569	0.3195484	0	0	0	0	0	0
17.8725	-0.191569	0.3195484	0	0	0	0	0	0
17.88907	-0.191569	0.3195484	0	0	0	0	0	0
17.90604	-0.191569	0.3195484	0	0	0	0	0	0
17.92255	-0.191569	0.3195484	0	0	0	0	0	0
17.93877	-0.191569	0.3195484	0	0	0	0	0	0
17.9598	-0.191569	0.3195484	0	0	0	0	0	0
17.97659	-0.191569	0.3195484	0	0	0	0	0	0
17.99311	-0.191569	0.3195484	0	0	0	0	0	0
18.00962	-0.191569	0.3195484	0	0	0	0	0	0
18.02607	-0.1915944	0.3195662	-0.001542024	0.001085397	-0.04678616	0.03293174	0	0
18.04263	-0.1915944	0.3195662	0	0	0.04670507	-0.03287466	0	0
18.06166	-0.1915944	0.3195662	0	0	0	0	0	0
18.07823	-0.1915944	0.3195662	0	0	0	0	0	0
18.09517	-0.1915944	0.3195662	0	0	0	0	0	0
18.11136	-0.1915944	0.3195662	0	0	0	0	0	0
18.12793	-0.1915944	0.3195662	0	0	0	0	0	0
18.14449	-0.1915944	0.3195662	0	0	0	0	0	0
18.16106	-0.1915944	0.3195662	0	0	0	0	0	0
18.17763	-0.1915944	0.3195662	0	0	0	0	0	0
18.19419	-0.1915944	0.3195662	0	0	0	0	0	0
18.21076	-0.1915944	0.3195662	0	0	0	0	0	0
18.22733	-0.1915944	0.3195662	0	0	0	0	0	0
18.2439	-0.1915944	0.3195662	0	0	0	0	0	0
18.26046	-0.1915944	0.3195662	0	0	0	0	0	0
18.27703	-0.1916197	0.3195841	-0.00153084	0.001077524	-0.04620084	0.03251974	0	0
18.2936	-0.1916197	0.3195841	0	0	0.04620084	-0.03251974	0	0
18.31017	-0.1916197	0.3195841	0	0	0	0	0	0
18.32673	-0.1916197	0.3195841	0	0	0	0	0	0
18.3433	-0.1916197	0.3195841	0	0	0	0	0	0
18.35987	-0.1916197	0.3195841	0	0	0	0	0	0
18.37643	-0.1916197	0.3195841	0	0	0	0	0	0
18.393	-0.1916197	0.3195841	0	0	0	0	0	0
18.40957	-0.1916197	0.3195841	0	0	0	0	0	0
18.42613	-0.1916197	0.3195841	0	0	0	0	0	0
18.4427	-0.1916197	0.3195841	0	0	0	0	0	0
18.45927	-0.1916197	0.3195841	0	0	0	0	0	0
18.47595	-0.1916197	0.3195841	0	0	0	0	0	0
18.49246	-0.1916197	0.3195841	0	0	0	0	0	0
18.50897	-0.1916197	0.3195841	0	0	0	0	0	0
18.52554	-0.1916197	0.3195841	0	0	0	0	0	0
18.56144	-0.1916197	0.3195841	0	0	0	0	0	0
18.63622	-0.1916197	0.3195841	0	0	0	0	0	0
18.65279	-0.1916197	0.3195841	0	0	0	0	0	0
18.66959	-0.1916197	0.3195841	0	0	0	0	0	0
18.6861	-0.1916197	0.3195841	0	0	0	0	0	0
18.70249	-0.1916197	0.3195841	0	0	0	0	0	0
18.71906	-0.1916197	0.3195841	0	0	0	0	0	0
18.73563	-0.1916197	0.3195841	0	0	0	0	0	0
18.7522	-0.1916197	0.3195841	0	0	0	0	0	0
18.76876	-0.1916197	0.3195841	0	0	0	0	0	0
18.78533	-0.1916197	0.3195841	0	0	0	0	0	0
18.8019	-0.1916197	0.3195841	0	0	0	0	0	0
18.81846	-0.1916197	0.3195841	0	0	0	0	0	0
18.83503	-0.1916197	0.3195841	0	0	0	0	0	0
18.86823	-0.1916197	0.3195841	0	0	0	0	0	0
18.88473	-0.1916197	0.3195841	0	0	0	0	0	0
18.90129	-0.1916197	0.3195841	0	0	0	0	0	0
18.91786	-0.1916197	0.3195841	0	0	0	0	0	0
18.93443	-0.1916197	0.3195841	0	0	0	0	0	0
18.95099	-0.1916197	0.3195841	0	0	0	0	0	0
18.96756	-0.1916197	0.3195841	0	0	0	0	0	0
18.98413	-0.1916197	0.3195841	0	0	0	0	0	0
19.00069	-0.1916197	0.3195841	0	0	0	0	0	0
19.01726	-0.1916197	0.3195841	0	0	0	0	0	0
19.0339	-0.1916197	0.3195841	0	0	0	0	0	0
19.05086	-0.1916197	0.3195841	0	0	0	0	0	0
19.06696	-0.1916197	0.3195841	0	0	0	0	0	0
19.08353	-0.1916197	0.3195841	0	0	0	0	0	0
19.1004	-0.1916197	0.3195841	0	0	0	0	0	0
19.11666	-0.1916197	0.3195841	0	0	0	0	0	0
19.13323	-0.1916197	0.3195841	0	0	0	0	0	0
19.1498	-0.1916197	0.3195841	0	0	0	0	0	0
19.16636	-0.1916197	0.3195841	0	0	0	0	0	0
19.18295	-0.1916197	0.3195841	0	0	0	0	0	0
19.19949	-0.1916197	0.3195841	0	0	0	0	0	0
19.23599	-0.1916197	0.3195841	0	0	0	0	0	0
19.2525	-0.1916197	0.3195841	0	0	0	0	0	0
19.26901	-0.1916197	0.3195841	0	0	0	0	0	0
19.28555	-0.1916197	0.3195841	0	0	0	0	0	0
19.30211	-0.1916197	0.3195841	0	0	0	0	0	0
19.31869	-0.1916197	0.3195841	0	0	0	0	0	0
19.33525	-0.1916197	0.3195841	0	0	0	0	0	0
19.35182	-0.1916451	0.319602	-0.001530664	0.001079199	-0.04620084	0.03257404	0	0
19.36838	-0.1916451	0.319602	0	0	0.04619818	-0.03257216	0	0
19.38494	-0.1916451	0.319602	0	0	0	0	0	0
19.40151	-0.1916451	0.319602	0	0	0	0	0	0
19.41812	-0.1916451	0.319602	0	0	0	0	0	0
19.43464	-0.1916451	0.319602	0	0	0	0	0	0
19.45121	-0.1916451	0.319602	0	0	0	0	0	0
19.46778	-0.1916451	0.319602	0	0	0	0	0	0
19.48435	-0.1916451	0.319602	0	0	0	0	0	0
19.50118	-0.1916451	0.319602	0	0	0	0	0	0
19.51748	-0.1916451	0.319602	0	0	0	0	0	0
19.53405	-0.1916451	0.319602	0	0	0	0	0	0
19.55062	-0.1916451	0.319602	0	0	0	0	0	0
19.60032	-0.1916451	0.319602	0	0	0	0	0	0
19.61688	-0.1916451	0.319602	0	0	0	0	0	0
19.63345	-0.1916451	0.319602	0	0	0	0	0	0
19.65079	-0.1916451	0.319602	0	0	0	0	0	0
19.66658	-0.1916451	0.319602	0	0	0	0	0	0
19.68331	-0.1916451	0.319602	0	0	0	0	0	0
19.69972	-0.1916451	0.319602	0	0	0	0	0	0
19.71634	-0.1916451	0.319602	0	0	0	0	0	0
19.73285	-0.1916451	0.319602	0	0	0	0	0	0
19.74986	-0.1916451	0.319602	0	0	0	0	0	0
19.76598	-0.1916451	0.319602	0	0	0	0	0	0
19.78255	-0.1916451	0.319602	0	0	0	0	0	0
19.79939	-0.1916451	0.319602	0	0	0	0	0	0
19.81569	-0.1916451	0.319602	0	0	0	0	0	0
19.83225	-0.1916451	0.319602	0	0	0	0	0	0
19.84892	-0.1916451	0.319602	0	0	0	0	0	0
19.86543	-0.1916451	0.319602	0	0	0	0	0	0
19.88195	-0.1916451	0.319602	0	0	0	0	0	0
19.89852	-0.1916451	0.319602	0	0	0	0	0	0
19.91508	-0.1916451	0.319602	0	0	0	0	0	0
19.93198	-0.1916451	0.319602	0	0	0	0	0	0
19.95133	-0.1916451	0.319602	0	0	0	0	0	0
19.96801	-0.1916451	0.319602	0	0	0	0	0	0
19.98446	-0.1916451	0.319602	0	0	0	0	0	0
20.00103	-0.1916451	0.319602	0	0	0	0	0	0
20.0176	-0.1916451	0.319602	0	0	0	0	0	0
20.03416	-0.1916451	0.319602	0	0	0	0	0	0
20.05073	-0.1916451	0.319602	0	0	0	0	0	0
20.06758	-0.1916451	0.319602	0	0	0	0	0	0
20.08386	-0.1916451	0.319602	0	0	0	0	0	0
20.10061	-0.1916451	0.319602	0	0	0	0	0	0
20.11711	-0.1916451	0.319602	0	0	0	0	0	0
20.13357	-0.1916451	0.319602	0	0	0	0	0	0
20.15013	-0.1916451	0.319602	0	0	0	0	0	0
20.1667	-0.1916451	0.319602	0	0	0	0	0	0
20.18366	-0.1916451	0.319602	0	0	0	0	0	0
20.19983	-0.1916451	0.319602	0	0	0	0	0	0
20.2164	-0.1916451	0.319602	0	0	0	0	0	0
20.23297	-0.1916451	0.319602	0	0	0	0	0	0
20.24971	-0.1916451	0.319602	0	0	0	0	0	0
20.2661	-0.1916451	0.319602	0	0	0	0	0	0
20.28266	-0.1916451	0.319602	0	0	0	0	0	0
20.29924	-0.1916451	0.319602	0	0	0	0	0	0
20.3158	-0.1916451	0.319602	0	0	0	0	0	0
20.33236	-0.1916451	0.319602	0	0	0	0	0	0
20.34893	-0.1916451	0.319602	0	0	0	0	0	0
20.36551	-0.1916451	0.319602	0	0	0	0	0	0
20.3823	-0.1916451	0.319602	0	0	0	0	0	0
20.39863	-0.1916451	0.319602	0	0	0	0	0	0
20.48146	-0.1916451	0.319602	0	0	0	0	0	0
20.49803	-0.1916451	0.319602	0	0	0	0	0	0
20.5146	-0.1916451	0.319602	0	0	0	0	0	0
20.53116	-0.1916451	0.319602	0	0	0	0	0	0
20.54773	-0.1916451	0.319602	0	0	0	0	0	0
20.56443	-0.1916451	0.3196377	0	0.002138308	0	0.06428265	0	0
20.58094	-0.1916451	0.3196377	0	0	0	-0.06438971	0	0
20.59745	-0.1915944	0.3196734	0.003071581	0.002163823	0.09300567	0.06551927	0	0
20.614	-0.191569	0.319727	0.001532958	0.003238846	-0.04654292	0.03251915	0	0
20.63056	-0.1915436	0.3197448	0.00153084	0.001077524	-6.396035E-05	-0.06527391	0	0
20.64713	-0.1915183	0.3198341	0.00153084	0.005391219	0	0.1301876	0	0
20.66746	-0.1915183	0.3199413	0	0.005271861	-0.04149095	-0.003234989	0	0
20.68403	-0.1914929	0.3199949	0.00153084	0.003234371	0.04149095	-0.05522289	0	0
20.70059	-0.1915183	0.3200485	-0.00153084	0.003232572	-0.09240168	-5.428939E-05	0	0
20.71716	-0.1915183	0.3202271	0	0.01078064	0.04620084	0.2278011	0	0
20.73373	-0.1913661	0.3205843	0.009185039	0.02156128	0.277205	0.3253603	0	0
20.75029	-0.1908334	0.3213523	0.03215763	0.04636226	0.6933542	0.7485383	0	0
20.76707	-0.190326	0.3221024	0.03023858	0.04470121	-0.05754932	-0.04981234	0	0
20.8001	-0.1792907	0.3312461	0.3341799	0.2768973	6.102899	4.662311	0	0
20.81656	-0.1748028	0.3344247	0.2725534	0.193042	-1.245281	-1.694455	0	0
20.83313	-0.163296	0.3424605	0.6946297	0.4850928	12.77801	8.841596	0	0
20.8497	-0.1557545	0.3477105	0.4551584	0.31686	-7.22726	-5.077278	0	0
20.86664	-0.153288	0.3494249	0.145542	0.1011607	-9.237887	-6.435725	0	0
20.88283	-0.140154	0.3584973	0.8115498	0.5605811	20.10247	13.86693	0	0
20.89939	-0.1313964	0.364588	0.5286065	0.3676372	-8.639203	-5.891223	0	0
20.91596	-0.1189101	0.3731988	0.7536801	0.5197516	6.792732	4.590821	0	0
20.93269	-0.1053194	0.382545	0.8123847	0.5586699	1.763082	1.168838	0	0
20.94909	-0.09528948	0.3894275	0.611531	0.4196291	-6.062475	-4.196743	0	0
20.96572	-0.08874001	0.3939515	0.3940113	0.2721637	-6.586747	-4.465425	0	0
20.98223	-0.0738392	0.4042916	0.9024282	0.6262165	15.34405	10.68534	0	0
20.99879	-0.06839316	0.4082648	0.3287231	0.2398274	-17.3434	-11.68075	0	0
21.01536	-0.05932504	0.4158208	0.5473529	0.4560769	6.598258	6.526425	0	0
21.03194	-0.05386889	0.4212667	0.3290691	0.3284521	-6.585163	-3.850173	0	0
21.04849	-0.04743807	0.4258368	0.3885229	0.2761041	1.794422	-1.579958	0	0
21.06528	-0.04384031	0.4283287	0.2142747	0.1484135	-5.226032	-3.829679	0	0
21.08179	-0.04289472	0.4289742	0.05727354	0.0390968	-4.714692	-3.282745	0	0
21.0982	-0.03950575	0.4312516	0.2066285	0.138857	4.538107	3.031183	0	0
21.11476	-0.0363524	0.433404	0.1903366	0.1299181	-0.4941667	-0.2711338	0	0
21.13133	-0.03196279	0.4364001	0.2649572	0.1808478	2.252053	1.53706	0	0
21.1479	-0.02717752	0.4396305	0.2888399	0.1949869	0.7207818	0.4267198	0	0
21.16446	-0.02633601	0.4401691	0.05079317	0.03250561	-7.184264	-4.903695	0	0
21.18103	-0.02346937	0.4421259	0.1730308	0.1181139	3.689138	2.583664	0	0
21.1976	-0.0198132	0.4446219	0.2206873	0.1506609	1.438276	0.9822699	0	0
21.21417	-0.01697205	0.4465618	0.1714917	0.1170886	-1.484724	-1.013215	0	0
21.23073	-0.007841945	0.4528333	0.5510945	0.3785492	11.45643	7.890898	0	0
21.24742	-0.003736825	0.45571	0.2460575	0.1724305	-9.17382	-6.198906	0	0
21.26393	-0.0001315789	0.458174	0.2183421	0.1492271	-0.8349167	-0.6989925	0	0
21.28044	0.001447367	0.4595773	0.09562466	0.08498361	-3.716025	-1.945369	0	0
21.297	0.001289473	0.4597932	-0.009534919	0.01303703	-3.179763	-2.175485	0	0
21.31357	0.0007105262	0.4610887	-0.03494529	0.07820056	-0.7670633	1.967092	0	0
21.38448	-0.005657834	0.4960875	-0.08980487	0.4935431	-0.627106	4.747827	0	0
21.40105	-0.007289344	0.5024589	-0.0984668	0.3845347	-0.09901338	-1.24606	0	0
21.41762	-0.009552341	0.5078223	-0.1366105	0.323773	-1.151178	-1.833791	0	0
21.45075	-0.0119468	0.5202189	-0.07226908	0.3741509	1.294651	1.013682	0	0
21.46758	-0.0137886	0.5284033	-0.109445	0.486339	-0.7440975	2.245509	0	0
21.48388	-0.01741929	0.5343049	-0.2226608	0.3619283	-3.41686	-3.754722	0	0
21.5006	-0.01839266	0.5389185	-0.0582234	0.2759698	4.979356	-2.602923	0	0
21.51702	-0.02186494	0.5472462	-0.2114368	0.5070993	-4.623191	6.974299	0	0
21.53358	-0.02399539	0.5540337	-0.1286391	0.4098346	2.510253	-2.948866	0	0
21.55015	-0.0292811	0.5624837	-0.319046	0.5100413	-5.747483	3.024767	0	0
21.56715	-0.03151588	0.5697384	-0.1314559	0.4267468	5.588457	-2.48141	0	0
21.58329	-0.03446004	0.576068	-0.1824788	0.3923041	-1.539875	-1.039483	0	0
21.59985	-0.03737732	0.5852693	-0.1761078	0.5554584	0.194834	4.989493	0	0
21.61642	-0.04297353	0.5906094	-0.3377876	0.322329	-4.879788	-7.036264	0	0
21.63299	-0.05064088	0.5960507	-0.4628023	0.3284344	-3.772949	0.1842602	0	0
21.64971	-0.05533818	0.5996275	-0.2808782	0.2138779	5.464684	-3.44108	0	0
21.66612	-0.05914148	0.6032083	-0.2317821	0.2182233	1.481809	0.131152	0	0
21.68274	-0.0607672	0.6098984	-0.09783582	0.4026092	4.055815	5.583097	0	0
21.69925	-0.06365074	0.6135096	-0.1745939	0.2186526	-2.316697	-5.552142	0	0
21.71582	-0.06904795	0.6173488	-0.3257761	0.2317379	-4.569791	0.3955296	0	0
21.73277	-0.07213777	0.6196249	-0.182304	0.1342913	4.280715	-2.90747	0	0
21.74895	-0.07920239	0.6254537	-0.4365231	0.3601613	-7.67279	6.817163	0	0
21.76552	-0.08573667	0.6308447	-0.3944552	0.3254354	1.284547	-1.060361	0	0
21.7823	-0.09213316	0.6362271	-0.3811344	0.3207147	0.3994482	-0.1415571	0	0
21.79865	-0.09448101	0.6447633	-0.1436016	0.5220959	7.169166	6.078047	0	0
21.81522	-0.09385502	0.6493623	0.03778485	0.2775983	5.510416	-7.427696	0	0
21.83183	-0.09362026	0.6583767	0.01412832	0.5424845	-0.7128885	7.982336	0	0
21.84835	-0.09445494	0.6633038	-0.05053855	0.2983276	-1.951762	-7.369095	0	0
21.86492	-0.09768806	0.6668726	-0.195152	0.2154149	-4.371235	-2.506205	0	0
21.88148	-0.1002679	0.668754	-0.1557184	0.1135628	1.190106	-3.073903	0	0
21.89805	-0.1030286	0.6709224	-0.1666389	0.1308823	-0.3295816	0.5227047	0	0
21.91462	-0.1031067	0.6714743	-0.004714843	0.03331151	4.886879	-2.944693	0	0
21.93141	-0.1024558	0.6721405	0.03877448	0.03968558	1.303804	0.191094	0	0
21.96443	-0.1019089	0.6729213	0.01656112	0.02364372	-0.4459582	-0.3220585	0	0
21.98094	-0.1023516	0.6732832	-0.02681176	0.02191507	-0.8756211	-0.0348984	0	0
21.99745	-0.1045906	0.6749219	-0.1356158	0.09925558	-3.294904	2.342095	0	0
22.01402	-0.1062822	0.6761612	-0.102104	0.07480428	1.01314	-0.7392181	0	0
22.05113	-0.1062822	0.6761612	0	0	1.901936	-1.393412	0	0
22.0677	-0.1062822	0.6761612	0	0	0	0	0	0
22.08427	-0.1062562	0.6761421	0.001570865	-0.001151278	0.04740879	-0.03474564	0	0
22.10084	-0.1062302	0.676123	0.001570415	-0.001151278	-1.357235E-05	0	0	0
22.1174	-0.1061781	0.6760849	0.00314128	-0.002302556	0.04740879	-0.03474564	0	0
22.13405	-0.1061001	0.6760277	0.004689022	-0.003437214	0.04659828	-0.03416145	0	0
22.15054	-0.1059179	0.6758561	0.01104895	-0.01040944	0.1919541	-0.2104342	0	0
22.1671	-0.1058138	0.6757798	0.006282286	-0.004604582	-0.1442069	0.1756154	0	0
22.18367	-0.104903	0.6751125	0.05499248	-0.04028602	1.470161	-1.07693	0	0
22.20023	-0.1047989	0.6749981	0.006285082	-0.006904865	-1.470246	1.007619	0	0
22.2168	-0.1047468	0.67496	0.003141729	-0.002302556	-0.09487204	0.138906	0	0
22.23337	-0.1037576	0.6741214	0.0597068	-0.05061306	1.707137	-1.458014	0	0
22.24994	-0.09594138	0.6681077	0.4717897	-0.3629871	12.43669	-9.427468	0	0
22.26664	-0.08531869	0.6595507	0.6357703	-0.5121397	4.927953	-4.482339	0	0
22.28307	-0.08009146	0.6556898	0.3182274	-0.2350463	-9.583463	8.362695	0	0
22.29967	-0.0730278	0.6505134	0.4255797	-0.3118787	3.250753	-2.326576	0	0
22.3162	-0.06527555	0.6448198	0.4687901	-0.3442979	1.304092	-0.9784108	0	0
22.33277	-0.06129156	0.6418836	0.2405297	-0.1772729	-6.896058	5.046053	0	0
22.3497	-0.05948238	0.6401346	0.1068404	-0.103282	-3.991098	2.20889	0	0
22.36621	-0.05662362	0.6378608	0.1731335	-0.1377065	1.98213	-1.029275	0	0
22.38247	-0.05358025	0.6352324	0.1872332	-0.1617065	0.4303124	-0.7324586	0	0
22.39924	-0.05014215	0.6325877	0.2050221	-0.1577109	0.538669	0.1209918	0	0
22.41575	-0.0473593	0.6305261	0.1685552	-0.1248664	-1.095781	0.9869292	0	0
22.43217	-0.04063552	0.6256968	0.4095259	-0.2941377	7.318007	-5.140576	0	0
22.44873	-0.03877003	0.6243319	0.1126006	-0.08238833	-9.001641	6.419433	0	0
22.4653	-0.03438118	0.6210997	0.2649115	-0.1950948	4.596753	-3.401489	0	0
22.48187	-0.03319832	0.6201475	0.07139767	-0.05747395	-5.84026	4.153407	0	0
22.49843	-0.03327718	0.6201662	-0.00476004	0.001126094	-2.298444	1.768553	0	0
22.515	-0.0332509	0.6201475	0.001586788	-0.001126223	0.1915586	-0.06797898	0	0
22.53156	-0.0332509	0.6201475	0	0	-0.04789486	0.0339934	0	0
22.54813	-0.0332509	0.6201475	0	0	0	0	0	0
22.5647	-0.03322461	0.6201289	0.001586605	-0.001126094	0.04788383	-0.03398557	0	0
22.58136	-0.03322461	0.6201289	0	0	-0.04774367	0.03388609	0	0
22.59788	-0.03322461	0.6201289	0	0	0	0	0	0
22.6144	-0.03322461	0.6201289	0	0	0	0	0	0
22.64753	-0.03322461	0.6201289	0	0	0	0	0	0
22.66442	-0.03322461	0.6201289	0	0	0	0	0	0
22.73523	-0.03354005	0.6199049	-0.004455011	-0.003163555	-0.05080168	-0.03607487	0	0
22.80405	-0.03401319	0.6196063	-0.006874639	-0.004338834	-0.01732893	-0.008417134	0	0
22.82062	-0.03401319	0.6196063	0	0	0.08050682	0.05081078	0	0
22.83719	-0.03401319	0.6196063	0	0	0	0	0	0
22.85375	-0.03401319	0.6196063	0	0	0	0	0	0
22.87032	-0.03401319	0.6196063	0	0	0	0	0	0
22.88689	-0.03403948	0.6196249	-0.001586605	0.001126094	-0.04788383	0.03398557	0	0
22.90346	-0.03403948	0.6196249	0	0	0.04788383	-0.03398557	0	0
22.92002	-0.03403948	0.6196249	0	0	0	0	0	0
22.93659	-0.03406576	0.6196063	-0.001586605	-0.001126094	-0.04788383	-0.03398557	0	0
22.95316	-0.03406576	0.6196063	0	0	0.04788383	0.03398557	0	0
22.97014	-0.03406576	0.6196063	0	0	0	0	0	0
22.98629	-0.03406576	0.6196063	0	0	0	0	0	0
23.00317	-0.03409205	0.6195876	-0.001557203	-0.001105226	-0.0471512	-0.03346559	0	0
23.01968	-0.03414462	0.6195503	-0.00318435	-0.002260254	-0.04873427	-0.03459397	0	0
23.03599	-0.03419719	0.6195129	-0.00322293	-0.002291131	-0.001175527	-0.0009407934	0	0
23.08573	-0.03424976	0.6194756	-0.001057006	-0.0007502109	0.03279334	0.02333042	0	0
23.11883	-0.03427605	0.6194943	-0.0007941253	0.0005636308	0.003173508	0.01586073	0	0
23.13539	-0.03430233	0.6194756	-0.00158638	-0.001126094	-0.01595122	-0.03402083	0	0
23.15228	-0.03430233	0.6194756	0	0	0.04742388	0.03366389	0	0
23.16853	-0.03430233	0.6194756	0	0	0	0	0	0
23.1853	-0.0343549	0.6194383	-0.003134239	-0.002224528	-0.0949084	-0.06736129	0	0
23.20166	-0.0343549	0.6194383	0	0	0.09459697	0.06714025	0	0
23.21832	-0.03438118	0.6194196	-0.001577343	-0.00111952	-0.04776379	-0.03390038	0	0
23.23484	-0.03440747	0.619401	-0.001591694	-0.001129866	-0.0004325587	-0.0003118358	0	0
23.25136	-0.03443375	0.6193823	-0.001590634	-0.001128953	3.210151E-05	2.762985E-05	0	0
23.26793	-0.03446004	0.6193637	-0.001586605	-0.001126094	0.0001217431	8.64096E-05	0	0
23.2845	-0.03451261	0.6193263	-0.003172985	-0.002255785	-0.04787704	-0.03409416	0	0
23.30106	-0.03453889	0.6193076	-0.001586605	-0.001126094	0.04787704	0.03409416	0	0
23.3179	-0.03459146	0.6192703	-0.003121947	-0.002215961	-0.04596103	-0.03262556	0	0
23.33422	-0.03464403	0.619233	-0.003221195	-0.002286407	-0.00299325	-0.002124616	0	0
23.35076	-0.03480173	0.6191211	-0.009533448	-0.00676669	-0.1920854	-0.1363375	0	0
23.36743	-0.03506457	0.6189345	-0.01576871	-0.01119622	-0.1877482	-0.1333763	0	0
23.3839	-0.03543253	0.6186359	-0.02234657	-0.01813173	-0.1985204	-0.2093142	0	0
23.40047	-0.0359319	0.6182442	-0.03014167	-0.02364437	-0.2359764	-0.1668809	0	0
23.41703	-0.03882259	0.616081	-0.1744825	-0.1305693	-4.356214	-3.227001	0	0
23.43398	-0.04510098	0.6111823	-0.3704765	-0.2890652	-5.84812	-4.729239	0	0
23.45016	-0.05011589	0.6026515	-0.3098352	-0.5270556	1.830262	-7.18298	0	0
23.46931	-0.05184823	0.5850293	-0.09050725	-0.920687	6.208683	-11.14282	0	0
23.48587	-0.05300294	0.57029	-0.06969886	-0.8896644	0.5827459	0.8687971	0	0
23.50244	-0.05499712	0.557111	-0.1203686	-0.7954863	-1.529215	2.842302	0	0
23.51905	-0.05777773	0.5462043	-0.1673946	-0.6565909	-1.417373	4.186329	0	0
23.53557	-0.06503972	0.5366932	-0.4394985	-0.5756198	-8.21211	2.443713	0	0
23.55214	-0.07496452	0.5300783	-0.5990625	-0.399274	-4.822037	5.329182	0	0
23.56871	-0.07998688	0.526547	-0.3031499	-0.2131519	8.93066	5.617175	0	0
23.58528	-0.09033244	0.5193104	-0.6244594	-0.436802	-9.697141	-6.749774	0	0
23.6021	-0.09891299	0.5133363	-0.5099388	-0.3550357	3.429393	2.448544	0	0
23.61841	-0.1098195	0.5057742	-0.6686352	-0.4636014	-4.788916	-3.276141	0	0
23.63512	-0.1176385	0.5003223	-0.4679153	-0.3262613	6.078382	4.159057	0	0
23.65154	-0.1229037	0.4966484	-0.3206873	-0.2237671	4.444118	3.093814	0	0
23.66811	-0.1355324	0.4877898	-0.762357	-0.5347672	-13.39051	-9.42888	0	0
23.68468	-0.1405926	0.4842499	-0.3053637	-0.2136154	13.79129	9.691822	0	0
23.70124	-0.150974	0.4769777	-0.6267642	-0.4390528	-9.699885	-6.803714	0	0
23.71781	-0.1579881	0.472092	-0.4233717	-0.2949052	6.139105	4.350883	0	0
23.73438	-0.1646024	0.4674437	-0.3992425	-0.2805682	0.7282202	0.4326916	0	0
23.75121	-0.1729137	0.4615566	-0.4938254	-0.34979	-2.832022	-2.072651	0	0
23.76822	-0.1794945	0.456879	-0.3868427	-0.274966	3.161233	2.210974	0	0
23.78423	-0.1888285	0.4499575	-0.5829279	-0.4322644	-5.937687	-4.763176	0	0
23.80065	-0.1963326	0.4442089	-0.4571583	-0.3502135	3.878564	2.530337	0	0
23.81726	-0.2042433	0.4353236	-0.4762342	-0.5348992	-0.5776052	-5.592175	0	0
23.83378	-0.2055551	0.4299066	-0.07938845	-0.3278364	11.97683	6.249168	0	0
23.93318	-0.2079498	0.3803824	-0.02409112	-0.4982337	0.4770181	-1.469919	0	0
23.94985	-0.2086803	0.3719303	-0.04381739	-0.5069607	-0.169949	-0.07518641	0	0
23.96631	-0.2070678	0.3685001	0.09796133	-0.2083883	4.279137	9.011454	0	0
23.98288	-0.2066393	0.3682679	0.02586716	-0.01402022	-2.182969	5.88535	0	0
23.99944	-0.2066393	0.3682679	0	0	-0.7807173	0.4231555	0	0
24.01601	-0.2066141	0.36825	0.001520946	-0.001077524	0.04590224	-0.03251974	0	0
24.03291	-0.2066141	0.36825	0	0	-0.04544963	0.03219909	0	0
24.04915	-0.2066141	0.36825	0	0	0	0	0	0
24.06571	-0.2066141	0.36825	0	0	0	0	0	0
24.08245	-0.2066141	0.36825	0	0	0	0	0	0
24.09885	-0.2066141	0.36825	0	0	0	0	0	0
24.11541	-0.2065889	0.3682679	0.001522021	0.001077648	0.04616588	0.03268719	0	0
24.13198	-0.2065889	0.3682679	0	0	-0.04593996	-0.03252723	0	0
24.14855	-0.2065889	0.3682679	0	0	0	0	0	0
24.16511	-0.2065889	0.3682679	0	0	0	0	0	0
24.18168	-0.2065889	0.3682679	0	0	0	0	0	0
24.21704	-0.2065889	0.3682679	0	0	0	0	0	0
24.23352	-0.2065889	0.3682679	0	0	0	0	0	0
24.25009	-0.2065637	0.3683215	0.00152167	0.003233999	0.04603805	0.09784447	0	0
24.26665	-0.2064881	0.3683751	0.004565163	0.003236543	0.09185278	7.677529E-05	0	0
24.28322	-0.2064628	0.3683929	0.001521845	0.001077524	-0.09185278	-0.06516307	0	0
24.29979	-0.2064376	0.3683751	0.001522021	-0.001077648	5.288004E-06	-0.06504697	0	0
24.31662	-0.2064124	0.3683929	0.001497875	0.001060552	-0.0007229651	0.06402244	0	0
24.33292	-0.2063872	0.3684108	0.001545681	0.001095048	0.001442787	0.001041076	0	0
24.34963	-0.206362	0.3684287	0.001508645	0.001069961	-0.001121818	-0.0007598734	0	0
24.36605	-0.2059082	0.3687502	0.02763914	0.01958343	0.7886652	0.5587698	0	0
24.38266	-0.2055299	0.3690182	0.02278234	0.01613835	-0.1470693	-0.1043209	0	0
24.39919	-0.2052525	0.3692147	0.01677854	0.01188502	-0.1811744	-0.1283511	0	0
24.41576	-0.2052525	0.3692147	0	0	-0.5068733	-0.359042	0	0
24.43232	-0.2052525	0.3692147	0	0	0	0	0	0
24.44889	-0.2052525	0.3692147	0	0	0	0	0	0
24.46546	-0.2052525	0.3692147	0	0	0	0	0	0
24.48223	-0.2052525	0.3692147	0	0	0	0	0	0
24.49874	-0.2052525	0.3692147	0	0	0	0	0	0
24.51525	-0.2052525	0.3692147	0	0	0	0	0	0
24.53172	-0.2052272	0.3691969	0.001531739	-0.001083888	0.04644183	-0.03286315	0	0
24.54829	-0.2052272	0.3691969	0	0	-0.04636675	0.03281002	0	0
24.56486	-0.2052272	0.3691969	0	0	0	0	0	0
24.58142	-0.2052272	0.3691969	0	0	0	0	0	0
24.59799	-0.2052272	0.3691969	0	0	0	0	0	0
24.61482	-0.2052272	0.3691969	0	0	0	0	0	0
24.63112	-0.2052272	0.3691969	0	0	0	0	0	0
24.64784	-0.2052525	0.3692147	-0.001508676	0.001067569	-0.0456871	0.03232909	0	0
24.66426	-0.2052525	0.3692147	0	0	0.04553193	-0.03221929	0	0
24.68082	-0.2052525	0.3692147	0	0	0	0	0	0
24.69739	-0.2052525	0.3692147	0	0	0	0	0	0
24.71396	-0.2052525	0.3692147	0	0	0	0	0	0
24.73053	-0.2052525	0.3692147	0	0	0	0	0	0
24.74709	-0.2052525	0.3692147	0	0	0	0	0	0
24.76393	-0.2052525	0.3692147	0	0	0	0	0	0
24.79679	-0.2052525	0.3692147	0	0	0	0	0	0
24.81336	-0.2052525	0.3692147	0	0	0	0	0	0
24.83553	-0.2052525	0.3692147	0	0	0	0	0	0
24.85209	-0.2052525	0.3692147	0	0	0	0	0	0
24.86866	-0.2052525	0.3692147	0	0	0	0	0	0
24.88523	-0.2052525	0.3692147	0	0	0	0	0	0
24.9018	-0.2052525	0.3692147	0	0	0	0	0	0
24.91836	-0.2052525	0.3692147	0	0	0	0	0	0
24.93493	-0.2052525	0.3692147	0	0	0	0	0	0
24.95156	-0.2052525	0.3692147	0	0	0	0	0	0
24.96808	-0.2052525	0.3692147	0	0	0	0	0	0
24.98463	-0.2052525	0.3692147	0	0	0	0	0	0
25.0012	-0.2052525	0.3692147	0	0	0	0	0	0
25.01777	-0.2052525	0.3692147	0	0	0	0	0	0
25.03433	-0.2052525	0.3692147	0	0	0	0	0	0
25.0509	-0.2052525	0.3692147	0	0	0	0	0	0
25.06747	-0.2052525	0.3692147	0	0	0	0	0	0
25.08404	-0.2052525	0.3692147	0	0	0	0	0	0
25.1006	-0.2052525	0.3692147	0	0	0	0	0	0
25.11717	-0.2052525	0.3692147	0	0	0	0	0	0
25.13374	-0.2052525	0.3692147	0	0	0	0	0	0
25.1503	-0.2052525	0.3692147	0	0	0	0	0	0
25.16687	-0.2052525	0.3692147	0	0	0	0	0	0
25.18344	-0.2052525	0.3692147	0	0	0	0	0	0
25.20496	-0.2052525	0.3692147	0	0	0	0	0	0
25.22176	-0.2052525	0.3692147	0	0	0	0	0	0
25.23828	-0.2052525	0.3692147	0	0	0	0	0	0
25.25466	-0.2052525	0.3692147	0	0	0	0	0	0
25.2713	-0.2052525	0.3692147	0	0	0	0	0	0
25.28781	-0.2052525	0.3692147	0	0	0	0	0	0
25.30436	-0.2052525	0.3692147	0	0	0	0	0	0
25.32093	-0.2052525	0.3692147	0	0	0	0	0	0
25.33749	-0.2052525	0.3692147	0	0	0	0	0	0
25.35406	-0.2052525	0.3692147	0	0	0	0	0	0
25.37063	-0.2052525	0.3692147	0	0	0	0	0	0
25.4866	-0.2052525	0.3692147	0	0	0	0	0	0
25.50316	-0.2052525	0.3692147	0	0	0	0	0	0
25.51973	-0.2052525	0.3692147	0	0	0	0	0	0
25.5363	-0.2052525	0.3692147	0	0	0	0	0	0
25.55301	-0.2052525	0.3692147	0	0	0	0	0	0
25.57273	-0.2052525	0.3692147	0	0	0	0	0	0
25.58929	-0.2052525	0.3692147	0	0	0	0	0	0
25.60586	-0.2052525	0.3692147	0	0	0	0	0	0
25.62255	-0.2052525	0.3692147	0	0	0	0	0	0
25.63906	-0.2052525	0.3692147	0	0	0	0	0	0
25.65557	-0.2052525	0.3692147	0	0	0	0	0	0
25.67213	-0.2052525	0.3692147	0	0	0	0	0	0
25.6891	-0.2052525	0.3692147	0	0	0	0	0	0
25.70526	-0.2052525	0.3692147	0	0	0	0	0	0
25.72183	-0.2052525	0.3692147	0	0	0	0	0	0
25.73863	-0.2052525	0.3692147	0	0	0	0	0	0
25.75514	-0.2052525	0.3692147	0	0	0	0	0	0
25.77153	-0.2052525	0.3692147	0	0	0	0	0	0
25.78817	-0.2052525	0.3692147	0	0	0	0	0	0
25.80468	-0.2052525	0.3692147	0	0	0	0	0	0
25.82123	-0.2052525	0.3692147	0	0	0	0	0	0
25.8378	-0.2052525	0.3692147	0	0	0	0	0	0
25.85436	-0.2052525	0.3692147	0	0	0	0	0	0
25.87093	-0.2052525	0.3692147	0	0	0	0	0	0
25.88774	-0.2052525	0.3692147	0	0	0	0	0	0
25.90406	-0.2052525	0.3692147	0	0	0	0	0	0
25.92063	-0.2052525	0.3692147	0	0	0	0	0	0
25.93728	-0.2052525	0.3692147	0	0	0	0	0	0
25.95379	-0.2052525	0.3692147	0	0	0	0	0	0
25.97033	-0.2052525	0.3692147	0	0	0	0	0	0
25.9869	-0.2052525	0.3692147	0	0	0	0	0	0
26.00347	-0.2052525	0.3692147	0	0	0	0	0	0
26.02003	-0.2052525	0.3692147	0	0	0	0	0	0
26.0366	-0.2052525	0.3692147	0	0	0	0	0	0
26.05317	-0.2052525	0.3692147	0	0	0	0	0	0
26.06987	-0.2052525	0.3692147	0	0	0	0	0	0
26.08639	-0.2052777	0.3692326	-0.001526944	0.001082939	-0.04596682	0.03260058	0	0
26.10287	-0.2052777	0.3692326	0	0	0.04628039	-0.03282297	0	0
26.11943	-0.2052777	0.3692326	0	0	0	0	0	0
26.136	-0.2052777	0.3692326	0	0	0	0	0	0
26.23549	-0.2052777	0.3692326	0	0	0	0	0	0
26.25197	-0.2052777	0.3692326	0	0	0	0	0	0
26.26854	-0.2052777	0.3692326	0	0	0	0	0	0
26.2851	-0.2052777	0.3692326	0	0	0	0	0	0
26.30167	-0.2052777	0.3692326	0	0	0	0	0	0
26.33743	-0.2052525	0.3692504	0.0007050376	0.0004991933	0.0134734	0.009539677	0	0
26.354	-0.2052525	0.3692504	0	0	-0.0134734	-0.009539677	0	0
26.37059	-0.2052525	0.3692504	0	0	0	0	0	0
26.38713	-0.2052525	0.3692504	0	0	0	0	0	0
26.4037	-0.2052525	0.3692504	0	0	0	0	0	0
26.42027	-0.2052525	0.3692504	0	0	0	0	0	0
26.43683	-0.2052525	0.3692504	0	0	0	0	0	0
26.4534	-0.2052777	0.3692326	-0.001521845	-0.001077524	-0.04592939	-0.03251974	0	0
26.46997	-0.2052777	0.3692326	0	0	0.04592939	0.03251974	0	0
26.5031	-0.2052777	0.3692326	0	0	0	0	0	0
26.53623	-0.2052777	0.3692326	0	0	0	0	0	0
26.5528	-0.2052777	0.3692326	0	0	0	0	0	0
26.56937	-0.2052777	0.3692326	0	0	0	0	0	0
26.58593	-0.2052777	0.3692326	0	0	0	0	0	0
26.6025	-0.2052525	0.3692504	0.001521845	0.001077524	0.04592939	0.03251974	0	0
26.61927	-0.2052525	0.3692504	0	0	-0.04565345	-0.03232437	0	0
26.63564	-0.2052525	0.3692504	0	0	0	0	0	0
26.6522	-0.2052777	0.3692326	-0.001521845	-0.001077524	-0.04620868	-0.0327175	0	0
26.68534	-0.2052777	0.3692326	0	0	0.03061959	0.02167983	0	0
26.7019	-0.2052777	0.3692326	0	0	0	0	0	0
26.71847	-0.2052777	0.3692326	0	0	0	0	0	0
26.73504	-0.2052777	0.3692326	0	0	0	0	0	0
26.75161	-0.2052777	0.3692326	0	0	0	0	0	0
26.81192	-0.2052525	0.3692504	0.0004180371	0.000295986	0.005437562	0.00385	0	0
26.82839	-0.2052525	0.3692504	0	0	-0.005444316	-0.003854781	0	0
26.84496	-0.2052525	0.3692504	0	0	0	0	0	0
26.86152	-0.2052525	0.3692504	0	0	0	0	0	0
26.87809	-0.2052525	0.3692504	0	0	0	0	0	0
26.89466	-0.2052525	0.3692504	0	0	0	0	0	0
26.91123	-0.2052525	0.3692504	0	0	0	0	0	0
26.92799	-0.2052525	0.3692504	0	0	0	0	0	0
26.94452	-0.2052525	0.3692504	0	0	0	0	0	0
26.96102	-0.2052525	0.3692504	0	0	0	0	0	0
26.99406	-0.2052525	0.3692504	0	0	0	0	0	0
27.01063	-0.2052525	0.3692504	0	0	0	0	0	0
27.02719	-0.2052525	0.3692504	0	0	0	0	0	0
27.04376	-0.2052525	0.3692504	0	0	0	0	0	0
27.06059	-0.2052525	0.3692504	0	0	0	0	0	0
27.08002	-0.2052525	0.3692504	0	0	0	0	0	0
27.09661	-0.2052525	0.3692504	0	0	0	0	0	0
27.11316	-0.2052525	0.3692504	0	0	0	0	0	0
27.12973	-0.2052525	0.3692504	0	0	0	0	0	0
27.14629	-0.2052525	0.3692504	0	0	0	0	0	0
27.16286	-0.2052525	0.3692504	0	0	0	0	0	0
27.17968	-0.2052525	0.3692504	0	0	0	0	0	0
27.19619	-0.2052525	0.3692504	0	0	0	0	0	0
27.21256	-0.2052525	0.3692504	0	0	0	0	0	0
27.22913	-0.2052525	0.3692504	0	0	0	0	0	0
27.24572	-0.2052525	0.3692504	0	0	0	0	0	0
27.26226	-0.2052525	0.3692504	0	0	0	0	0	0
27.27883	-0.2052525	0.3692504	0	0	0	0	0	0
27.29539	-0.2052525	0.3692504	0	0	0	0	0	0
27.31227	-0.2052525	0.3692504	0	0	0	0	0	0
27.37831	-0.2052525	0.3692504	0	0	0	0	0	0
27.41136	-0.2052525	0.3692504	0	0	0	0	0	0
27.42793	-0.2052525	0.3692504	0	0	0	0	0	0
27.44449	-0.2052525	0.3692504	0	0	0	0	0	0
27.46106	-0.2052525	0.3692504	0	0	0	0	0	0
27.47763	-0.2052525	0.3692504	0	0	0	0	0	0
27.49419	-0.2052525	0.3692504	0	0	0	0	0	0
27.51076	-0.2052525	0.3692504	0	0	0	0	0	0
27.52733	-0.2052525	0.3692504	0	0	0	0	0	0
27.54394	-0.2052525	0.3692504	0	0	0	0	0	0
27.56046	-0.2052525	0.3692504	0	0	0	0	0	0
27.57703	-0.2052525	0.3692504	0	0	0	0	0	0
27.5936	-0.2052525	0.3692504	0	0	0	0	0	0
27.61048	-0.2052525	0.3692504	0	0	0	0	0	0
27.62699	-0.2052525	0.3692504	0	0	0	0	0	0
27.64351	-0.2052525	0.3692504	0	0	0	0	0	0
27.66002	-0.2052525	0.3692504	0	0	0	0	0	0
27.67643	-0.2052525	0.3692504	0	0	0	0	0	0
27.69304	-0.2052525	0.3692504	0	0	0	0	0	0
27.70956	-0.2052525	0.3692504	0	0	0	0	0	0
27.72613	-0.2052525	0.3692504	0	0	0	0	0	0
27.7427	-0.2052525	0.3692504	0	0	0	0	0	0
27.76526	-0.2052525	0.3692504	0	0	0	0	0	0
27.78211	-0.2052525	0.3692504	0	0	0	0	0	0
27.7984	-0.2052525	0.3692504	0	0	0	0	0	0
27.81513	-0.2052777	0.3692683	-0.001506925	0.001068741	-0.04562882	0.03236086	0	0
27.83154	-0.2052777	0.3692683	0	0	0.0454791	-0.03225468	0	0
27.8481	-0.2052777	0.3692683	0	0	0	0	0	0
27.86467	-0.2052777	0.3692683	0	0	0	0	0	0
27.88124	-0.2052777	0.3692683	0	0	0	0	0	0
27.8978	-0.2052777	0.3692683	0	0	0	0	0	0
27.91437	-0.2052777	0.3692683	0	0	0	0	0	0
27.93121	-0.2052777	0.3692683	0	0	0	0	0	0
27.94823	-0.2052525	0.3692504	0.001481757	-0.001050891	0.0437647	-0.03103879	0	0
27.96407	-0.2052525	0.3692504	0	0	-0.04510114	0.03198662	0	0
27.98075	-0.2052525	0.3692504	0	0	0	0	0	0
27.9972	-0.2052525	0.3692504	0	0	0	0	0	0
28.01377	-0.2052777	0.3692326	-0.00152132	-0.001077152	-0.04606467	-0.03261553	0	0
28.03033	-0.2052777	0.3692326	0	0	0.04591353	0.03250851	0	0
28.0469	-0.2052777	0.3692326	0	0	0	0	0	0
28.06381	-0.2052777	0.3692326	0	0	0	0	0	0
28.08032	-0.2052777	0.3692326	0	0	0	0	0	0
28.0966	-0.2052777	0.3692326	0	0	0	0	0	0
28.11334	-0.2052777	0.3692326	0	0	0	0	0	0
28.13035	-0.2052777	0.3692326	0	0	0	0	0	0
28.1463	-0.2052777	0.3692326	0	0	0	0	0	0
28.16287	-0.2052525	0.3692147	0.001521845	-0.001079323	0.04680777	-0.033197	0	0
28.17943	-0.2052525	0.3692147	0	0	-0.04592939	0.03257403	0	0
28.1964	-0.2052777	0.3691969	-0.001486088	-0.001052206	-0.04431704	-0.03137814	0	0
28.21257	-0.2052525	0.369179	0.001559551	-0.001106064	0.09192283	-0.001625529	0	0
28.22942	-0.2052525	0.3691432	0	-0.002119993	-0.04722773	-0.0307047	0	0
28.2457	-0.2052525	0.3691075	0	-0.002193432	0	-0.002216534	0	0
28.26244	-0.2052525	0.3690718	0	-0.002133999	0	0.001799813	0	0
28.27883	-0.2052272	0.3690182	0.001539404	-0.003271575	0.04646199	-0.0343341	0	0
28.2954	-0.2049246	0.3686966	0.01827024	-0.01940983	0.5076848	-0.4897031	0	0
28.31198	-0.2029814	0.3672496	0.1171839	-0.08726025	2.983846	-2.046787	0	0
28.32853	-0.1958769	0.3620516	0.4292221	-0.3140449	9.417331	-6.844373	0	0
28.3451	-0.1916197	0.3589795	0.2569625	-0.1854313	-5.201199	3.883353	0	0
28.36167	-0.1872285	0.3557826	0.2650539	-0.1929668	0.2441968	-0.227421	0	0
28.38195	-0.1737308	0.3460676	0.6653545	-0.4788851	10.86186	-7.758179	0	0
28.39854	-0.1684669	0.342139	0.3173265	-0.2368309	-9.438107	6.56422	0	0
28.41509	-0.1640389	0.337014	0.2676099	-0.3097388	-1.500452	-2.200365	0	0
28.43167	-0.1668808	0.3305317	-0.1714336	-0.3910457	-13.25494	-2.454693	0	0
28.44822	-0.1760275	0.3209236	-0.552416	-0.5802813	-11.49807	-5.711143	0	0
28.46479	-0.1854751	0.3143685	-0.5702558	-0.3956708	-0.5385609	5.57316	0	0
28.4816	-0.1950665	0.3075799	-0.5704712	-0.4037614	-0.006451417	-0.2423728	0	0
28.49792	-0.2051768	0.3003968	-0.6195287	-0.4401626	-1.480645	-1.098655	0	0
28.51463	-0.2154205	0.2930507	-0.6132268	-0.4397622	0.1908282	0.0121244	0	0
28.53114	-0.2293151	0.2828408	-0.8414912	-0.6183381	-6.872021	-5.376124	0	0
28.54765	-0.2394479	0.2748798	-0.6136625	-0.4821333	6.898915	4.124439	0	0
28.56419	-0.2493825	0.2611846	-0.6006904	-0.8280764	0.3924952	-10.46709	0	0
28.58076	-0.2531845	0.2483538	-0.2294673	-0.7743818	11.21257	1.621812	0	0
28.59769	-0.2560189	0.2290259	-0.1674195	-1.141657	1.852242	-10.96383	0	0
28.61389	-0.2579389	0.2140323	-0.118498	-0.925366	1.476539	6.528035	0	0
28.63071	-0.2599307	0.2040399	-0.1184144	-0.5940459	0.002530918	10.03276	0	0
28.64702	-0.2640797	0.1845037	-0.2543575	-1.197684	-4.103007	-18.21889	0	0
28.66359	-0.2663344	0.1752127	-0.1360954	-0.5608063	3.596903	19.37042	0	0
28.68025	-0.2726426	0.1585132	-0.3786692	-1.002447	-7.300718	-13.29203	0	0
28.69672	-0.2761539	0.1508181	-0.2131665	-0.4671651	4.995456	16.15671	0	0
28.71329	-0.286476	0.1340305	-0.6230428	-1.013299	-12.4058	-16.52993	0	0
28.72986	-0.29358	0.1254255	-0.4288025	-0.5194026	5.862186	14.90583	0	0
28.76299	-0.3143747	0.1095626	-0.6276211	-0.4787701	-4.000393	0.8175598	0	0
28.77956	-0.3258266	0.100713	-0.6912345	-0.5341601	-1.279952	-1.114493	0	0
28.79612	-0.331202	0.09656645	-0.3244607	-0.2502883	11.06925	8.567269	0	0
28.81284	-0.3410988	0.0888503	-0.5920581	-0.4616021	-8.040006	-6.348956	0	0
28.82926	-0.3495568	0.08220731	-0.5151513	-0.4046054	2.321052	1.720161	0	0
28.84586	-0.3541253	0.07857788	-0.2751526	-0.2185947	7.267859	5.632946	0	0
28.87896	-0.3579398	0.07557251	-0.115256	-0.0908068	3.217249	2.571197	0	0
28.89552	-0.3579398	0.07557251	0	0	2.320736	1.82844	0	0
28.91241	-0.3579398	0.07557251	0	0	0	0	0	0
28.92866	-0.3579398	0.07557251	0	0	0	0	0	0
28.94522	-0.3579398	0.07557251	0	0	0	0	0	0
28.96194	-0.3579398	0.07557251	0	0	0	0	0	0
28.97836	-0.3579629	0.07559095	-0.001407085	0.001123399	-0.04246836	0.03390619	0	0
28.99492	-0.3581014	0.07570162	-0.008359357	0.00668011	-0.2107907	0.1684777	0	0
29.01149	-0.3582399	0.07584916	-0.008359357	0.008905765	0	0.06717039	0	0
29.02806	-0.3584707	0.07603359	-0.01393046	0.01113232	-0.1681363	0.0671975	0	0
29.04463	-0.358563	0.07610736	-0.005571106	0.004452657	0.2522859	-0.2015925	0	0
29.06119	-0.358563	0.07610736	0	0	0.1681363	-0.1343815	0	0
29.07776	-0.358563	0.07610736	0	0	0	0	0	0
29.09672	-0.358563	0.07610736	0	0	0	0	0	0
29.11329	-0.358563	0.07610736	0	0	0	0	0	0
29.12986	-0.358563	0.07610736	0	0	0	0	0	0
29.14658	-0.358563	0.07610736	0	0	0	0	0	0
29.16299	-0.358563	0.07610736	0	0	0	0	0	0
29.17956	-0.358563	0.07610736	0	0	0	0	0	0
29.19612	-0.358563	0.07610736	0	0	0	0	0	0
29.21269	-0.358563	0.07610736	0	0	0	0	0	0
29.22926	-0.358563	0.07610736	0	0	0	0	0	0
29.24582	-0.358563	0.07610736	0	0	0	0	0	0
29.26239	-0.358563	0.07610736	0	0	0	0	0	0
29.27896	-0.358563	0.07610736	0	0	0	0	0	0
29.29552	-0.358563	0.07610736	0	0	0	0	0	0
29.3122	-0.358563	0.07610736	0	0	0	0	0	0
29.32866	-0.358563	0.07610736	0	0	0	0	0	0
29.34523	-0.358563	0.07610736	0	0	0	0	0	0
29.36179	-0.358563	0.07610736	0	0	0	0	0	0
29.37836	-0.358563	0.07610736	0	0	0	0	0	0
29.39493	-0.358563	0.07610736	0	0	0	0	0	0
29.4115	-0.3585399	0.07608892	0.001392327	-0.001113052	0.04202051	-0.03359197	0	0
29.42828	-0.3585399	0.07608892	0	0	-0.04174178	0.03336915	0	0
29.4448	-0.3585399	0.07608892	0	0	0	0	0	0
29.4613	-0.3585399	0.07608892	0	0	0	0	0	0
29.47782	-0.3585399	0.07608892	0	0	0	0	0	0
29.49433	-0.3585399	0.07608892	0	0	0	0	0	0
29.51089	-0.3585399	0.07608892	0	0	0	0	0	0
29.52746	-0.3585399	0.07608892	0	0	0	0	0	0
29.54436	-0.3585399	0.07608892	0	0	0	0	0	0
29.56059	-0.3585399	0.07608892	0	0	0	0	0	0
29.57716	-0.3585399	0.07608892	0	0	0	0	0	0
29.59373	-0.3585399	0.07608892	0	0	0	0	0	0
29.6103	-0.3585399	0.07608892	0	0	0	0	0	0
29.62692	-0.3585399	0.07608892	0	0	0	0	0	0
29.64343	-0.3585399	0.07608892	0	0	0	0	0	0
29.66	-0.3585399	0.07608892	0	0	0	0	0	0
29.67657	-0.3585399	0.07608892	0	0	0	0	0	0
29.69313	-0.3585399	0.07608892	0	0	0	0	0	0
29.7295	-0.3585399	0.07608892	0	0	0	0	0	0
29.74576	-0.3585399	0.07608892	0	0	0	0	0	0
29.76233	-0.3585399	0.07608892	0	0	0	0	0	0
29.77906	-0.3585399	0.07608892	0	0	0	0	0	0
29.79546	-0.3585399	0.07608892	0	0	0	0	0	0
29.81203	-0.3585399	0.07608892	0	0	0	0	0	0
29.8286	-0.3585399	0.07608892	0	0	0	0	0	0
29.84517	-0.3585399	0.07608892	0	0	0	0	0	0
29.86173	-0.3585169	0.07610736	0.001392327	0.001113052	0.04202051	0.03359197	0	0
29.8783	-0.3585169	0.07614424	0	0.002226104	-0.04202051	0.03359197	0	0
29.89512	-0.3584938	0.07616269	0.001373256	0.001096833	0.04113242	-0.03382444	0	0
29.91143	-0.3584707	0.07618113	0.001413978	0.00113036	0.001229037	0.001011899	0	0
29.92814	-0.3583091	0.07638398	0.009668203	0.0121392	0.2499475	0.3333606	0	0
29.94465	-0.357986	0.0767159	0.01957503	0.02010669	0.2982332	0.2398518	0	0
29.96113	-0.3574781	0.0771953	0.03081964	0.02908735	0.3408542	0.2722276	0	0
29.9777	-0.3575011	0.07725061	-0.001394126	0.003338706	-0.9747383	-0.7791137	0	0
29.99469	-0.3575011	0.07732436	0	0.004340862	0.04154626	0.02986521	0	0
30.01083	-0.3572471	0.07767465	0.01573575	0.02169549	0.4749059	0.5237638	0	0
30.0274	-0.3571316	0.07784056	0.006970628	0.01001432	-0.2679406	-0.3570812	0	0
30.09367	-0.3491154	0.08888708	0.1209651	0.1666923	1.376144	1.891421	0	0
30.11024	-0.3410287	0.09603409	0.4881113	0.4313946	4.432197	3.195493	0	0
30.1268	-0.3355725	0.1003462	0.3293356	0.260281	-4.791858	-5.16422	0	0
30.14337	-0.3272902	0.1067611	0.4999208	0.3872027	5.148272	3.830503	0	0
30.15994	-0.3206449	0.1119416	0.4011142	0.312697	-2.98199	-2.248586	0	0
30.17651	-0.3136844	0.1172628	0.4201373	0.3211872	0.5741171	0.2562358	0	0
30.19307	-0.3088911	0.1209714	0.2893215	0.2238529	-3.948027	-2.937553	0	0
30.20965	-0.2956524	0.1310058	0.7986333	0.6053258	15.36664	11.50956	0	0
30.22621	-0.2875653	0.1371082	0.4884757	0.3685952	-9.361115	-7.144956	0	0
30.24277	-0.2787097	0.1437128	0.5345203	0.3986552	1.390111	0.9075258	0	0
30.25938	-0.2694179	0.1505638	0.5594389	0.4124853	0.7510923	0.4168652	0	0
30.27591	-0.2567822	0.1598007	0.7647195	0.5590217	6.195739	4.422731	0	0
30.29247	-0.2478249	0.1663432	0.5406608	0.3949063	-6.771071	-4.959577	0	0
30.30904	-0.2392243	0.1725894	0.5191328	0.3770165	-0.6497165	-0.5399143	0	0
30.32561	-0.2278422	0.1808539	0.6869469	0.4987922	5.064349	3.674985	0	0
30.34244	-0.2192847	0.1870321	0.5083994	0.367045	-5.345495	-3.944351	0	0
30.35896	-0.2082773	0.1949728	0.6665557	0.4808468	4.742861	3.41274	0	0
30.37531	-0.1993685	0.2013371	0.5448246	0.389217	-3.703915	-2.788021	0	0
30.39198	-0.1934451	0.2055531	0.3553266	0.2529033	-5.73855	-4.127976	0	0
30.40844	-0.1818629	0.2137624	0.703478	0.4986153	10.50723	7.415601	0	0
30.42501	-0.1733478	0.2197703	0.51397	0.3626355	-5.737195	-4.116675	0	0
30.44158	-0.1631423	0.2269779	0.6160039	0.4350544	3.079388	2.185608	0	0
30.45814	-0.1552151	0.2325281	0.4784891	0.3350111	-4.150204	-3.019314	0	0
30.49321	-0.1451818	0.2395647	0.2861358	0.2006738	-3.725472	-2.601826	0	0
30.50978	-0.1304911	0.249806	0.8867341	0.6181661	11.6323	8.085933	0	0
30.52634	-0.1238627	0.2543945	0.4000933	0.2769651	-14.68685	-10.29747	0	0
30.54309	-0.1132502	0.2617219	0.6338565	0.4376477	7.01782	4.823865	0	0
30.55947	-0.1115352	0.262904	0.1046499	0.07212742	-15.97332	-11.03269	0	0
30.57611	-0.1033931	0.268544	0.489426	0.3390313	11.65147	8.082161	0	0
30.59261	-0.09823541	0.2720881	0.312617	0.2148121	-5.336107	-3.748943	0	0
30.60917	-0.09192441	0.2764902	0.3809331	0.2657113	2.066067	1.539331	0	0
30.62574	-0.08962765	0.2781362	0.1386323	0.09935169	-7.312654	-5.020744	0	0
30.64231	-0.08362034	0.2823579	0.3626022	0.2548192	6.759424	4.692019	0	0
30.65888	-0.07826088	0.2861314	0.3234974	0.2277731	-1.180184	-0.8162511	0	0
30.67544	-0.07090724	0.2911558	0.4438667	0.3032682	3.632751	2.278445	0	0
30.69219	-0.06697861	0.293873	0.2345672	0.1622413	-6.282316	-4.233052	0	0
30.70858	-0.06556379	0.2948383	0.08635314	0.0589148	-4.473366	-3.118579	0	0
30.79176	-0.06645463	0.3179944	-0.01070891	0.2783621	-0.9748002	2.203923	0	0
30.80798	-0.07224248	0.3219416	-0.356958	0.2434383	-3.48334	-0.3513411	0	0
30.82479	-0.07849628	0.3262101	-0.3720401	0.2539289	-0.4567023	0.3176674	0	0
30.84111	-0.08142483	0.3282102	-0.1794118	0.1225352	5.813867	-3.965697	0	0
30.89374	-0.08620686	0.3314782	-0.09086876	0.06209905	1.284186	-0.8765373	0	0
30.9103	-0.08691208	0.3319604	-0.04256715	0.02910395	0.6980719	-0.4768569	0	0
30.94344	-0.1002939	0.3410498	-0.4038654	0.274318	-7.269334	4.933717	0	0
30.96	-0.1050071	0.3442462	-0.2844853	0.1929362	2.401932	-1.637406	0	0
30.97657	-0.1092215	0.3471391	-0.2543829	0.1746165	0.9084905	-0.55289	0	0
30.99314	-0.1141594	0.3504606	-0.298051	0.2004897	-1.317905	0.7808538	0	0
31.00971	-0.1199996	0.354336	-0.3525177	0.2339145	-1.643808	1.008764	0	0
31.02644	-0.1223853	0.3559433	-0.1426033	0.09607834	6.304382	-4.139648	0	0
31.04284	-0.1225667	0.3560683	-0.01106158	0.007620844	3.969937	-2.669653	0	0
31.05941	-0.1239922	0.3570506	-0.08604228	0.05929081	-2.274049	1.56707	0	0
31.07598	-0.1265568	0.3588187	-0.1547988	0.1067253	-2.075075	1.431574	0	0
31.09254	-0.1351449	0.3647488	-0.5183755	0.3579377	-10.97277	7.581606	0	0
31.10911	-0.1389411	0.3673747	-0.2291403	0.1585004	8.729135	-6.01903	0	0
31.12568	-0.1450272	0.3715194	-0.3673602	0.2501745	-4.171485	2.76673	0	0
31.14224	-0.1517198	0.3759863	-0.4039636	0.2696221	-1.104693	0.5869296	0	0
31.17844	-0.1574234	0.3799177	-0.1575769	0.1086167	4.66969	-3.051484	0	0
31.21157	-0.158604	0.3807398	-0.03562935	0.02481094	1.758937	-1.208791	0	0
31.22814	-0.1609893	0.382402	-0.1439826	0.1003303	-2.180071	1.519452	0	0
31.24471	-0.1693619	0.3882475	-0.5053687	0.3528307	-10.90665	7.620479	0	0
31.26128	-0.1779655	0.3942735	-0.5193136	0.3637301	-0.4208568	0.3289435	0	0
31.27784	-0.1824228	0.3974034	-0.2690447	0.1889265	7.553131	-5.275582	0	0
31.29441	-0.1854242	0.3994785	-0.1811644	0.1252518	2.652233	-1.921705	0	0
31.31114	-0.1853988	0.3994606	0.001519394	-0.001068741	5.486248	-3.793583	0	0
31.32755	-0.1854242	0.3994428	-0.001549782	-0.001090116	-0.09262792	-0.0006450958	0	0
31.34411	-0.1854242	0.3994428	0	0	0.04700793	0.03306537	0	0
31.36068	-0.1854242	0.3994428	0	0	0	0	0	0
31.37724	-0.1854242	0.3994428	0	0	0	0	0	0
31.39381	-0.1854242	0.3994428	0	0	0	0	0	0
31.41038	-0.1854242	0.3994428	0	0	0	0	0	0
31.42723	-0.1854242	0.3994428	0	0	0	0	0	0
31.44374	-0.1854496	0.3993891	-0.001539578	-0.003250621	-0.04615107	-0.09744205	0	0
31.46008	-0.1855767	0.3992639	-0.007778759	-0.007663855	-0.1899168	-0.1343362	0	0
31.54291	-0.1868982	0.3981905	-0.01595329	-0.01295727	-0.08242421	-0.05337376	0	0
31.55948	-0.1873555	0.397797	-0.02760189	-0.0237541	-0.1171851	-0.1086163	0	0
31.57605	-0.1881175	0.3971173	-0.04599265	-0.04102867	-0.5550344	-0.5213475	0	0
31.59262	-0.1880667	0.3970457	0.003065277	-0.004317292	1.480571	1.107952	0	0
31.60918	-0.1880159	0.3970099	0.003066177	-0.002160445	2.714469E-05	0.06509378	0	0
31.62587	-0.1880159	0.3970099	0	0	-0.09220302	0.06496675	0	0
31.64238	-0.1879905	0.3969921	0.001537773	-0.001082939	0.04631943	-0.03261931	0	0
31.65889	-0.1879905	0.3969921	0	0	-0.04656555	0.03279264	0	0
31.67545	-0.1879651	0.3969742	0.001534421	-0.001079945	0.04639974	-0.03265671	0	0
31.69242	-0.1879143	0.3969384	0.002992918	-0.002109445	0.04350414	-0.03070801	0	0
31.70859	-0.1878381	0.3968847	0.004713677	-0.003318192	0.0519326	-0.03648007	0	0
31.72544	-0.1878381	0.396849	0	-0.002121281	-0.1427274	0.03624178	0	0
31.75829	-0.1878127	0.3968311	0.0007731734	-0.0005453958	0.01555688	0.03170808	0	0
31.77498	-0.1878127	0.3968311	0	0	-0.01560839	0.01101015	0	0
31.79142	-0.1878127	0.3968311	0	0	0	0	0	0
31.81175	-0.1878127	0.3968311	0	0	0	0	0	0
31.82852	-0.1877873	0.3968132	0.001514705	-0.001066068	0.0408257	-0.02873363	0	0
31.84506	-0.1877873	0.3968132	0	0	-0.04547045	0.03200267	0	0
31.86155	-0.1877873	0.3967774	0	-0.002169135	0	-0.06568012	0	0
31.88222	-0.1877619	0.3967595	0.00122809	-0.0008648524	0.03304625	0.03509646	0	0
31.89879	-0.1877619	0.3967595	0	0	-0.03297516	0.02322195	0	0
31.91536	-0.1877619	0.3967595	0	0	0	0	0	0
31.93209	-0.1877619	0.3967595	0	0	0	0	0	0
31.94849	-0.1877619	0.3967595	0	0	0	0	0	0
31.96506	-0.1877365	0.3967416	0.001533538	-0.001081122	0.04652061	-0.03279635	0	0
31.98162	-0.1877365	0.3967416	0	0	-0.04628494	0.03263021	0	0
31.99819	-0.1877365	0.3967416	0	0	0	0	0	0
32.01476	-0.1877365	0.3967416	0	0	0	0	0	0
32.03132	-0.1877365	0.3967416	0	0	0	0	0	0
32.04789	-0.1877365	0.3967416	0	0	0	0	0	0
32.06446	-0.1877365	0.3967416	0	0	0	0	0	0
32.08102	-0.1877365	0.3967416	0	0	0	0	0	0
32.09771	-0.1877365	0.3967416	0	0	0	0	0	0
32.11422	-0.1877111	0.3967237	0.001537951	-0.001083064	0.0463301	-0.03262683	0	0
32.13072	-0.1877111	0.3967237	0	0	-0.04658707	0.0328078	0	0
32.14729	-0.1876857	0.3967059	0.001533538	-0.001079323	0.04637304	-0.03263791	0	0
32.16386	-0.1876857	0.3967059	0	0	-0.04628228	0.03257403	0	0
32.18042	-0.1876604	0.396688	0.001532639	-0.001079323	0.04625513	-0.03257403	0	0
32.19699	-0.1876604	0.396688	0	0	-0.04625513	0.03257403	0	0
32.21379	-0.1876604	0.396688	0	0	0	0	0	0
32.23013	-0.1876604	0.396688	0	0	0	0	0	0
32.24681	-0.1876604	0.396688	0	0	0	0	0	0
32.26333	-0.1876604	0.396688	0	0	0	0	0	0
32.27983	-0.1876604	0.396688	0	0	0	0	0	0
32.29639	-0.1876604	0.396688	0	0	0	0	0	0
32.31296	-0.1876604	0.396688	0	0	0	0	0	0
32.34639	-0.1876604	0.396688	0	0	0	0	0	0
32.3629	-0.1876604	0.396688	0	0	0	0	0	0
32.37942	-0.1876604	0.396688	0	0	0	0	0	0
32.39579	-0.1876604	0.396688	0	0	0	0	0	0
32.41236	-0.1876604	0.396688	0	0	0	0	0	0
32.42892	-0.1876604	0.396688	0	0	0	0	0	0
32.44549	-0.1876604	0.396688	0	0	0	0	0	0
32.4826	-0.1876604	0.396688	0	0	0	0	0	0
32.49949	-0.1876604	0.396688	0	0	0	0	0	0
32.516	-0.1876604	0.396688	0	0	0	0	0	0
32.5323	-0.1876604	0.396688	0	0	0	0	0	0
32.54903	-0.1876349	0.3966701	0.00151885	-0.001068985	0.04599253	-0.03237011	0	0
32.56554	-0.1876349	0.3966701	0	0	-0.04569168	0.03215837	0	0
32.582	-0.1876349	0.3966701	0	0	0	0	0	0
32.59857	-0.1876349	0.3966701	0	0	0	0	0	0
32.61514	-0.1876349	0.3966701	0	0	0	0	0	0
32.6317	-0.1876349	0.3966701	0	0	0	0	0	0
32.64827	-0.1876349	0.3966701	0	0	0	0	0	0
32.66483	-0.1876349	0.3966701	0	0	0	0	0	0
32.6814	-0.1876349	0.3966701	0	0	0	0	0	0
32.73113	-0.1876349	0.3966701	0	0	0	0	0	0
32.74767	-0.1876349	0.3966701	0	0	0	0	0	0
32.76423	-0.1876349	0.3966701	0	0	0	0	0	0
32.7808	-0.1876349	0.3966701	0	0	0	0	0	0
32.79737	-0.1876349	0.3966701	0	0	0	0	0	0
32.81393	-0.1876096	0.3966522	0.001532639	-0.001079323	0.04625513	-0.03257403	0	0
32.8305	-0.1876096	0.3966164	0	-0.002160445	-0.04625513	-0.03262832	0	0
32.84724	-0.1876096	0.3966164	0	0	0	0.0648663	0	0
32.86375	-0.1875841	0.3965985	0.001538853	-0.001083064	0.04628283	-0.03257442	0	0
32.8802	-0.1875587	0.3965807	0.001544563	-0.001087083	0.0001732438	-0.0001219326	0	0
32.89677	-0.1875587	0.3965807	0	0	-0.04677116	0.03291812	0	0
32.91333	-0.1875587	0.3965807	0	0	0	0	0	0
32.9299	-0.1875587	0.3965807	0	0	0	0	0	0
32.94681	-0.1875587	0.3965807	0	0	0	0	0	0
32.96332	-0.1875587	0.3965807	0	0	0	0	0	0
32.9796	-0.1875587	0.3965807	0	0	0	0	0	0
32.99635	-0.1875587	0.3965807	0	0	0	0	0	0
33.01273	-0.1875587	0.3965807	0	0	0	0	0	0
33.0293	-0.1875587	0.3965807	0	0	0	0	0	0
33.04587	-0.1875587	0.3965807	0	0	0	0	0	0
33.06244	-0.1875587	0.3965807	0	0	0	0	0	0
33.079	-0.1875587	0.3965807	0	0	0	0	0	0
33.09557	-0.1875587	0.3965807	0	0	0	0	0	0
33.11214	-0.1875587	0.3965807	0	0	0	0	0	0
33.1287	-0.1875587	0.3965807	0	0	0	0	0	0
33.14883	-0.1875587	0.3965807	0	0	0	0	0	0
33.16547	-0.1875587	0.3965807	0	0	0	0	0	0
33.18196	-0.1875587	0.3965807	0	0	0	0	0	0
33.19853	-0.1875587	0.3965807	0	0	0	0	0	0
33.2151	-0.1875587	0.3965807	0	0	0	0	0	0
33.23166	-0.1875333	0.3965628	0.001532639	-0.001079323	0.04625513	-0.03257403	0	0
33.24823	-0.1875333	0.3965628	0	0	-0.04625513	0.03257403	0	0
33.2648	-0.1875333	0.3965628	0	0	0	0	0	0
33.28136	-0.1875333	0.3965628	0	0	0	0	0	0
33.29793	-0.1875333	0.3965628	0	0	0	0	0	0
33.31458	-0.1875333	0.3965628	0	0	0	0	0	0
33.33106	-0.1875333	0.3965628	0	0	0	0	0	0
33.34763	-0.1875333	0.3965628	0	0	0	0	0	0
33.36423	-0.1875333	0.3965628	0	0	0	0	0	0
33.38076	-0.1875079	0.3965449	0.001537077	-0.001081814	0.04638909	-0.03264921	0	0
33.39733	-0.1875333	0.396527	-0.001533538	-0.001081122	-0.09277818	2.090785E-05	0	0
33.4139	-0.1875333	0.396527	0	0	0.04628228	0.03262833	0	0
33.43047	-0.1875333	0.396527	0	0	0	0	0	0
33.44717	-0.1875333	0.396527	0	0	0	0	0	0
33.46368	-0.1875333	0.396527	0	0	0	0	0	0
33.48019	-0.1875333	0.396527	0	0	0	0	0	0
33.49673	-0.1875333	0.396527	0	0	0	0	0	0
33.5133	-0.1875333	0.396527	0	0	0	0	0	0
33.52986	-0.1875333	0.396527	0	0	0	0	0	0
33.54643	-0.1875333	0.396527	0	0	0	0	0	0
33.56303	-0.1875333	0.396527	0	0	0	0	0	0
33.61413	-0.1875079	0.3965449	0.000497175	0.0003505011	0.007343858	0.005177312	0	0
33.6307	-0.1875079	0.3965449	0	0	-0.007347169	-0.005179646	0	0
33.64727	-0.1875079	0.3965449	0	0	0	0	0	0
33.66383	-0.1875079	0.3965449	0	0	0	0	0	0
33.6804	-0.1875333	0.396527	-0.001533538	-0.001081122	-0.0462876	-0.03263208	0	0
33.69696	-0.1875333	0.396527	0	0	0.04628228	0.03262833	0	0
33.71353	-0.1875333	0.396527	0	0	0	0	0	0
33.7301	-0.1875333	0.396527	0	0	0	0	0	0
33.74667	-0.1875079	0.3965449	0.001533538	0.001081122	0.04628228	0.03262833	0	0
33.76323	-0.1875079	0.3965449	0	0	-0.04628228	-0.03262833	0	0
33.77991	-0.1875079	0.3965449	0	0	0	0	0	0
33.81745	-0.1875079	0.3965449	0	0	0	0	0	0
33.83401	-0.1875079	0.3965449	0	0	0	0	0	0
33.85058	-0.1875079	0.3965449	0	0	0	0	0	0
33.86715	-0.1875079	0.3965449	0	0	0	0	0	0
33.88372	-0.1875079	0.3965449	0	0	0	0	0	0
33.90028	-0.1875079	0.3965449	0	0	0	0	0	0
33.91685	-0.1875079	0.3965449	0	0	0	0	0	0
33.93352	-0.1875079	0.3965449	0	0	0	0	0	0
33.94999	-0.1875079	0.3965449	0	0	0	0	0	0
33.96655	-0.1875079	0.3965449	0	0	0	0	0	0
33.98312	-0.1875079	0.3965449	0	0	0	0	0	0
33.99969	-0.1875079	0.3965449	0	0	0	0	0	0
34.01625	-0.1875079	0.3965449	0	0	0	0	0	0
34.03282	-0.1875079	0.3965449	0	0	0	0	0	0
34.04939	-0.1875079	0.3965449	0	0	0	0	0	0
34.06596	-0.1875079	0.3965449	0	0	0	0	0	0
34.08263	-0.1875079	0.3965449	0	0	0	0	0	0
34.09914	-0.1875079	0.3965449	0	0	0	0	0	0
34.11565	-0.1875079	0.3965449	0	0	0	0	0	0
34.14879	-0.1875079	0.3965449	0	0	0	0	0	0
34.16536	-0.1875079	0.3965449	0	0	0	0	0	0
34.18192	-0.1875079	0.3965449	0	0	0	0	0	0
34.19849	-0.1875079	0.3965449	0	0	0	0	0	0
34.21506	-0.1875079	0.3965449	0	0	0	0	0	0
34.23162	-0.1875079	0.3965449	0	0	0	0	0	0
34.26476	-0.1875079	0.3965449	0	0	0	0	0	0
34.28133	-0.1875079	0.3965449	0	0	0	0	0	0
34.29789	-0.1875333	0.3965628	-0.001533538	0.001079323	-0.04628228	0.03257403	0	0
34.31446	-0.1875333	0.3965628	0	0	0.04628228	-0.03257403	0	0
34.33103	-0.1875333	0.3965628	0	0	0	0	0	0
34.3476	-0.1875587	0.3966164	-0.001532639	0.003237969	-0.04625513	0.09772211	0	0
34.36416	-0.1875333	0.3966343	0.001532639	0.001079323	0.09251025	-0.06514807	0	0
34.38073	-0.1875333	0.3966701	0	0.002160445	-0.04625513	0.03262832	0	0
34.3973	-0.1874826	0.3967059	0.003066177	0.002158646	0.0925374	-5.428939E-05	0	0
34.44699	-0.1872031	0.3969742	0.005622805	0.005398829	0.03858182	0.04889727	0	0
34.48013	-0.1831862	0.3998005	0.1212444	0.08530962	1.395916	0.964774	0	0
34.49692	-0.18283	0.400051	0.02120802	0.01491171	-2.003663	-1.410024	0	0
34.51343	-0.1755428	0.4051685	0.441381	0.309962	12.61549	8.858742	0	0
34.53221	-0.1691829	0.4095895	0.3386551	0.2354144	-2.910924	-2.112442	0	0
34.54878	-0.1618353	0.4147283	0.443501	0.3101794	2.96619	2.115173	0	0
34.56535	-0.1571154	0.4180239	0.284899	0.1989246	-4.786618	-3.357677	0	0
34.58191	-0.1543159	0.4199767	0.1689743	0.1178657	-3.498614	-2.446364	0	0
34.59848	-0.1471909	0.4249406	0.4300671	0.2996219	7.879794	5.485413	0	0
34.61505	-0.1410827	0.4291894	0.3686887	0.256458	-1.852404	-1.30269	0	0
34.63202	-0.1330772	0.4347495	0.471807	0.3276859	3.074947	2.123988	0	0
34.64818	-0.1265568	0.4392716	0.4033245	0.2797181	-2.066808	-1.447671	0	0
34.66475	-0.1197402	0.4439934	0.4114505	0.2850078	0.2482465	0.1615979	0	0
34.68132	-0.1109894	0.4500473	0.5282027	0.3654192	3.523588	2.42682	0	0
34.69807	-0.1044605	0.4545592	0.3897759	0.2693578	-4.15477	-2.883207	0	0
34.71458	-0.09860028	0.4586058	0.3549489	0.2451009	-1.047103	-0.7293017	0	0
34.73109	-0.09174175	0.4632665	0.4153204	0.2822281	1.828119	1.124255	0	0
34.7476	-0.08667701	0.4667594	0.3066966	0.2115132	-3.288875	-2.141083	0	0
34.76415	-0.08001302	0.4713171	0.402703	0.2754203	2.903833	1.93295	0	0
34.79729	-0.07451965	0.474886	0.1657903	0.107711	-4.768524	-3.375613	0	0
34.81385	-0.07090724	0.4759679	0.2180453	0.06530084	1.051372	-0.853295	0	0
34.83066	-0.0670834	0.4744894	0.2275071	-0.08796598	0.2835029	-4.592294	0	0
34.84717	-0.06435836	0.4727228	0.1650539	-0.1070013	-1.874483	-0.5713293	0	0
34.86355	-0.06157994	0.4710648	0.1696196	-0.1012186	0.1388155	0.1758161	0	0
34.8802	-0.0568597	0.4680381	0.2836083	-0.1818524	3.451708	-2.441683	0	0
34.89669	-0.05541689	0.4672276	0.08749124	-0.04914845	-5.918823	4.005012	0	0
34.91325	-0.0540788	0.4664892	0.0807671	-0.04456885	-0.2034033	0.1385317	0	0
34.92982	-0.05360649	0.4662731	0.02850875	-0.01304362	-1.57716	0.9514333	0	0
34.94639	-0.05268803	0.4661831	0.05543808	-0.005434392	0.8127289	0.2296469	0	0
34.96326	-0.05234687	0.4662371	0.02022469	0.00320309	-1.053163	0.2583302	0	0
34.97977	-0.05221565	0.4661471	0.007946047	-0.005451967	-0.3678178	-0.2592699	0	0
34.99609	-0.05221565	0.4661471	0	0	-0.2420133	0.1660509	0	0
35.01266	-0.05218941	0.4661291	0.001584131	-0.001086519	0.04816965	-0.03303843	0	0
35.0293	-0.05211068	0.4661111	0.004729302	-0.00108308	0.09469249	0.0001035151	0	0
35.04579	-0.05208443	0.4660931	0.001592197	-0.00109205	-0.09468891	-0.0002707508	0	0
35.06236	-0.05203194	0.4660571	0.003168263	-0.002173037	0.04768654	-0.03270708	0	0
35.07892	-0.05184823	0.465931	0.01108915	-0.007609228	0.2390527	-0.1640646	0	0
35.09549	-0.05179574	0.465895	0.003168263	-0.002173037	-0.2390527	0.1640646	0	0
35.11206	-0.05179574	0.465895	0	0	-0.09561836	0.06558239	0	0
35.12862	-0.05179574	0.465895	0	0	0	0	0	0
35.14519	-0.05179574	0.465895	0	0	0	0	0	0
35.1619	-0.05176949	0.465877	0.001570749	-0.00107734	0.04720423	-0.03237628	0	0
35.17841	-0.051717	0.465841	0.003178509	-0.002181869	0.04839413	-0.03324672	0	0
35.19489	-0.05145454	0.4656609	0.01593025	-0.01092918	0.3865393	-0.2651543	0	0
35.21414	-0.05037839	0.4649227	0.05590694	-0.0383503	1.119023	-0.7675689	0	0
35.31354	-0.02641491	0.44852	0.2410824	-0.165018	1.560706	-1.067588	0	0
35.34667	-0.02173342	0.4453224	0.1412876	-0.09650407	-0.7529751	0.5169538	0	0
35.36324	-0.02170712	0.4453044	0.001587729	-0.00108472	-2.810766	1.919841	0	0
35.37981	-0.02149669	0.4451607	0.01270138	-0.00867236	0.3354108	-0.2289954	0	0
35.39637	-0.02060235	0.4445501	0.05398257	-0.03685708	1.245869	-0.8506166	0	0
35.41308	-0.01434112	0.4402768	0.3747357	-0.2557595	9.63929	-6.578465	0	0
35.42951	-0.01081537	0.4378716	0.2146436	-0.1464218	-4.83159	3.299819	0	0
35.44608	-0.008052457	0.4359874	0.1667696	-0.1137301	-1.45102	0.9908586	0	0
35.46264	-0.0081314	0.4360413	-0.004764986	0.003248762	-5.176925	3.530428	0	0
35.47963	-0.0081314	0.4360413	0	0	0.1420253	-0.09683269	0	0
35.49577	-0.0081314	0.4360413	0	0	0	0	0	0
35.51265	-0.0081314	0.4360413	0	0	0	0	0	0
35.5289	-0.0081314	0.4360413	0	0	0	0	0	0
35.54547	-0.008157713	0.4360592	-0.001588291	0.001082921	-0.04838594	0.03299026	0	0
35.56204	-0.008184028	0.4360772	-0.001588347	0.00108472	-1.693469E-06	5.428939E-05	0	0
35.57869	-0.008210341	0.4360951	-0.001580286	0.001077463	0.0002426757	-0.0002184593	0	0
35.59517	-0.00826297	0.436131	-0.003193551	0.002177373	-0.04869405	0.03319917	0	0
35.61174	-0.00826297	0.4362745	0	0.008663367	0.09663747	0.1962674	0	0
35.62872	-0.008210341	0.436454	0.003098168	0.01056345	0.09233359	0.05662763	0	0
35.64487	-0.008026144	0.436759	0.01140713	0.01889174	0.2507649	0.2513483	0	0
35.66144	-0.005342055	0.4388408	0.1620119	0.1256566	4.603561	3.263499	0	0
35.67801	0.001052631	0.4433469	0.385984	0.2719876	6.759491	4.416279	0	0
35.69457	0.009631281	0.4498856	0.5178083	0.3946778	3.978466	3.702799	0	0
35.71128	0.01289402	0.4527973	0.1952312	0.1742253	-9.692989	-6.62429	0	0
35.7278	0.01739298	0.4635365	0.2724361	0.6503144	2.323625	14.3288	0	0
35.74431	0.01702467	0.4699837	-0.02230841	0.3905022	-8.925204	-7.867413	0	0
35.76084	0.01528828	0.4804053	-0.1050506	0.6305028	-2.504371	7.264139	0	0
35.7774	0.01186786	0.492796	-0.2064569	0.7479025	-3.063975	3.547214	0	0
35.79397	0.009262893	0.4993266	-0.1572363	0.3941922	1.485478	-10.675	0	0
35.81054	0.005947298	0.5049407	-0.2001297	0.3388643	-1.294524	-1.669799	0	0
35.82711	0.002578942	0.5077317	-0.2033144	0.1684679	-0.09611462	-5.142571	0	0
35.84367	0.001605262	0.5085475	-0.05877143	0.04924231	4.362316	-3.598236	0	0
35.86024	0.000736842	0.5094361	-0.05241793	0.05363156	0.1917492	0.1324678	0	0
35.87681	0.0007631577	0.5094542	0.001588421	0.001093714	1.629915	-1.585595	0	0
35.89338	0.0006315788	0.5096174	-0.007942117	0.009850622	-0.2876322	0.264284	0	0
35.90994	-0.0002105263	0.5102703	-0.05082957	0.03940968	-1.294346	0.8920943	0	0
35.92651	-0.005078904	0.5137356	-0.2938558	0.2091656	-7.334548	5.123244	0	0
35.94629	-0.008920816	0.5165676	-0.19424	0.1431804	2.740733	-1.815451	0	0
35.96286	-0.01257828	0.5201099	-0.2207652	0.2138139	-0.7297906	1.943339	0	0
35.97942	-0.01189418	0.5229092	0.04129288	0.1689644	7.90893	-1.35356	0	0
35.99599	-0.01039436	0.5322822	0.0905289	0.565756	1.485946	11.97519	0	0
36.01256	-0.01147318	0.5407981	-0.06511758	0.514024	-4.69742	-1.561273	0	0
36.04569	-0.01257828	0.5462043	-0.0333521	0.1631595	0.6391228	-7.059409	0	0
36.07883	-0.01376229	0.5486723	-0.03573332	0.07448408	-0.0359328	-1.338114	0	0
36.09557	-0.01328869	0.5498794	0.02828677	0.0720943	1.283555	-0.04791333	0	0
36.11208	-0.01431481	0.5520567	-0.06216575	0.1319079	-2.720466	1.798966	0	0
36.12852	-0.01547245	0.5587605	-0.0703775	0.4075545	-0.2491793	8.364289	0	0
36.14509	-0.01812959	0.5652738	-0.1603855	0.3931398	-2.726176	-0.4365946	0	0
36.17823	-0.02215427	0.5716877	-0.121465	0.193573	0.783082	-4.015292	0	0
36.19479	-0.02215427	0.5716877	0	0	2.443881	-3.894696	0	0
36.21136	-0.02212797	0.5716693	0.001587617	-0.001111703	0.04791437	-0.03355126	0	0
36.22793	-0.02212797	0.5716693	0	0	-0.04791437	0.03355126	0	0
36.2445	-0.02212797	0.5716693	0	0	0	0	0	0
36.26118	-0.02212797	0.5716693	0	0	0	0	0	0
36.27763	-0.02210166	0.5716509	0.001599515	-0.001119955	0.04827345	-0.0338003	0	0
36.2942	-0.02204906	0.5716141	0.003175233	-0.002219808	0.04773113	-0.03331637	0	0
36.31076	-0.02202275	0.5715957	0.001587729	-0.001108105	-0.04791097	0.03355126	0	0
36.32733	-0.02194384	0.5715405	0.004762962	-0.003331511	0.09582873	-0.06710251	0	0
36.34389	-0.02186494	0.5714486	0.00476406	-0.005552597	3.311429E-05	-0.06704023	0	0
36.36046	-0.02170712	0.5713382	0.009526038	-0.006659423	0.1437333	-0.03340793	0	0
36.37727	-0.02162821	0.571283	0.004695924	-0.00328462	-0.14474	0.1011299	0	0
36.39378	-0.0215756	0.5712095	0.003186464	-0.004455002	-0.04531044	-0.03513213	0	0
36.41016	-0.0215493	0.5711911	0.00160536	-0.001124127	-0.04806645	0.1012605	0	0
36.42673	-0.02133887	0.571044	0.01270161	-0.008879231	0.3367463	-0.2353501	0	0
36.44331	-0.02078648	0.5706578	0.03331141	-0.02328833	0.6217187	-0.4346673	0	0
36.45986	-0.01910294	0.5694443	0.1017358	-0.07333089	2.065291	-1.510461	0	0
36.47643	-0.0189188	0.5692421	0.01111489	-0.01220355	-2.736521	1.845889	0	0
36.49299	-0.0189188	0.5692421	0	0	-0.3354481	0.3683037	0	0
36.50956	-0.0189188	0.5692421	0	0	0	0	0	0
36.52637	-0.0189188	0.5692421	0	0	0	0	0	0
36.54269	-0.01889249	0.5692237	0.001611591	-0.00112833	0.0486435	-0.034057	0	0
36.55926	-0.01886618	0.5692053	0.001587842	-0.001108105	-0.0007220653	0.0006149317	0	0
36.5759	-0.01883988	0.5691502	0.001580675	-0.003312658	-0.0002157964	-0.06638069	0	0
36.59241	-0.01881357	0.5690583	0.001593345	-0.005566948	0.0003821562	-0.06799547	0	0
36.60896	-0.01847158	0.5687826	0.02067083	-0.01666619	0.5771552	-0.3357876	0	0
36.62552	-0.01794544	0.5683783	0.03175796	-0.02440349	0.3348413	-0.2336738	0	0
36.66108	-0.005894668	0.5591639	0.3389526	-0.2591738	5.893964	-4.504401	0	0
36.67764	0.002578942	0.5531549	0.5114682	-0.3626993	3.309956	-1.986284	0	0
36.69448	0.006973571	0.5500989	0.2609345	-0.1814553	-7.498961	5.424988	0	0
36.711	0.008526109	0.5490198	0.09401444	-0.0653478	-5.004241	3.480887	0	0
36.72801	0.008894502	0.5487638	0.02165778	-0.01505032	-2.158383	1.500362	0	0
36.74391	0.008894502	0.5487638	0	0	-0.6581032	0.457326	0	0
36.76048	0.008947129	0.5487272	0.003176583	-0.002209014	0.09784069	-0.06803899	0	0
36.77704	0.008973443	0.5487089	0.001588291	-0.001104507	-0.04793473	0.0333341	0	0
36.79361	0.009026071	0.5486723	0.003176639	-0.002205417	0.04793642	-0.03322552	0	0
36.81018	0.009052385	0.548654	0.001588291	-0.001104507	-0.04793642	0.03322552	0	0
36.82674	0.009052385	0.548654	0	0	-0.04793473	0.0333341	0	0
36.84331	0.009105012	0.5486174	0.003176583	-0.002209014	0.09586946	-0.06666819	0	0
36.8601	0.009105012	0.5486174	0	0	-0.09523354	0.06622597	0	0
36.87644	0.009105012	0.5486174	0	0	0	0	0	0
36.89301	0.009131325	0.5485992	0.001588291	-0.00110091	0.04826256	-0.03345275	0	0
36.90958	0.009131325	0.5485992	0	0	-0.04793473	0.03322552	0	0
36.92615	0.009157639	0.5485809	0.001587926	-0.001104253	0.04791818	-0.03332258	0	0
36.94271	0.009210266	0.5485809	0.003178046	0	0.04799545	0.03333026	0	0
36.95927	0.00923658	0.5485626	0.001588291	-0.001104507	-0.04798994	-0.03334177	0	0
37.02572	0.00931552	0.5485078	0.001188059	-0.0008252957	-0.004821407	0.003363523	0	0
37.04223	0.009341833	0.5484895	0.001593796	-0.001108335	0.004891091	-0.003411989	0	0
37.05868	0.00931552	0.5484712	-0.00159971	-0.001112448	-0.09689334	-0.0001247795	0	0
37.07524	0.009341833	0.5484529	0.001588291	-0.001104507	0.09655869	0.0002405053	0	0
37.09181	0.009341833	0.5484529	0	0	-0.04793473	0.0333341	0	0
37.10838	0.009368147	0.5484346	0.001588291	-0.00110091	0.04793473	-0.03322552	0	0
37.12529	0.009368147	0.5484346	0	0	-0.04744315	0.03288478	0	0
37.14151	0.009368147	0.5484346	0	0	0	0	0	0
37.15808	0.009341833	0.5484529	-0.001588291	0.00110091	-0.04844224	0.03357729	0	0
37.17464	0.009341833	0.5484529	0	0	0.04793473	-0.03322552	0	0
37.19134	0.009341833	0.5484529	0	0	0	0	0	0
37.20778	0.009341833	0.5484529	0	0	0	0	0	0
37.22436	0.009341833	0.5484529	0	0	0	0	0	0
37.24092	0.009341833	0.5484529	0	0	0	0	0	0
37.25748	0.009341833	0.5484529	0	0	0	0	0	0
37.27405	0.009341833	0.5484529	0	0	0	0	0	0
37.29062	0.009341833	0.5484529	0	0	0	0	0	0
