Time	Pos X	Pos Y	Vel X	Vel Y	Acc X	Acc YForce X	Force Y
0.01656713	-0.1742413	0.3831527	0.002886686	-0.006347759	-4.783738E-05	0.0001051933	0	0
0.04373623	-0.1742413	0.3831527	0	0	4.784578E-05	-0.0001052118	0	0
0.06030612	-0.1742413	0.3831527	0	0	0	0	0	0
0.07687286	-0.1742413	0.3831527	0	0	0	0	0	0
0.0934388	-0.1742413	0.3831527	0	0	0	0	0	0
0.1100983	-0.1742413	0.3831527	0	0	0	0	0	0
0.1266086	-0.1742413	0.3831527	0	0	0	0	0	0
0.1431378	-0.1742413	0.3831527	0	0	0	0	0	0
0.1597046	-0.1742413	0.3831527	0	0	0	0	0	0
0.1762709	-0.1742413	0.3831527	0	0	0	0	0	0
0.1928376	-0.1742413	0.3831527	0	0	0	0	0	0
0.2094048	-0.1742413	0.3831527	0	0	0	0	0	0
0.2259711	-0.1742413	0.3831527	0	0	0	0	0	0
0.2426874	-0.1742413	0.3831527	0	0	0	0	0	0
0.2591977	-0.1742413	0.3831527	0	0	0	0	0	0
0.2804573	-0.1742413	0.3831527	0	0	0	0	0	0
0.297028	-0.1742413	0.3831527	0	0	0	0	0	0
0.3137357	-0.1742413	0.3831527	0	0	0	0	0	0
0.3302491	-0.1742413	0.3831527	0	0	0	0	0	0
0.3467258	-0.1742413	0.3831527	0	0	0	0	0	0
0.363293	-0.1742413	0.3831527	0	0	0	0	0	0
0.3798589	-0.1742413	0.3831527	0	0	0	0	0	0
0.3964276	-0.1742158	0.3831349	0.001539696	-0.001077427	0.04646782	-0.03251662	0	0
0.4129928	-0.1742158	0.3831349	0	0	-0.04646895	0.03251741	0	0
0.4295607	-0.1742158	0.3831349	0	0	0	0	0	0
0.4461266	-0.1742158	0.3831349	0	0	0	0	0	0
0.4628454	-0.1742158	0.3831349	0	0	0	0	0	0
0.4792597	-0.1742158	0.3831349	0	0	0	0	0	0
0.495826	-0.1742158	0.3831349	0	0	0	0	0	0
0.5123916	-0.1742158	0.3831349	0	0	0	0	0	0
0.5289587	-0.1742158	0.3831349	0	0	0	0	0	0
0.545525	-0.1742158	0.3831349	0	0	0	0	0	0
0.5624123	-0.1742158	0.3831349	0	0	0	0	0	0
0.5789241	-0.1742158	0.3831349	0	0	0	0	0	0
0.5952248	-0.1742158	0.3831349	0	0	0	0	0	0
0.6117916	-0.1742158	0.3831349	0	0	0	0	0	0
0.6283583	-0.1742158	0.3831349	0	0	0	0	0	0
0.6449716	-0.1742158	0.3831349	0	0	0	0	0	0
0.6946248	-0.1742158	0.3831349	0	0	0	0	0	0
0.7280303	-0.1742158	0.3831349	0	0	0	0	0	0
0.7445402	-0.1742413	0.383117	-0.001545182	-0.001083072	-0.03095604	-0.02169816	0	0
0.7608926	-0.1741647	0.3830634	0.004682027	-0.003278695	0.1894943	-0.06681293	0	0
0.7775655	-0.1740371	0.382974	0.007655733	-0.005360622	0.09004338	-0.06304044	0	0
0.7940754	-0.173986	0.3829025	0.003092169	-0.004330481	-0.137528	0.03104441	0	0
0.8105931	-0.1740116	0.3828846	-0.001545348	-0.001082556	-0.1404132	0.09833959	0	0
0.8271587	-0.1740116	0.3828846	0	0	0.0467108	0.0327221	0	0
0.8437258	-0.1740116	0.3828846	0	0	0	0	0	0
0.8602917	-0.1740116	0.3828846	0	0	0	0	0	0
0.8768581	-0.1740116	0.3828846	0	0	0	0	0	0
0.8936462	-0.1740116	0.3828846	0	0	0	0	0	0
0.9101581	-0.1740116	0.3828846	0	0	0	0	0	0
0.9265586	-0.1740116	0.3828846	0	0	0	0	0	0
0.9622753	-0.1740116	0.3828846	0	0	0	0	0	0
0.9788405	-0.1740116	0.3828846	0	0	0	0	0	0
0.9954084	-0.1740116	0.3828846	0	0	0	0	0	0
1.011974	-0.1740116	0.3828846	0	0	0	0	0	0
1.028541	-0.1740116	0.3828846	0	0	0	0	0	0
1.045107	-0.1740116	0.3828846	0	0	0	0	0	0
1.061675	-0.1740116	0.3828846	0	0	0	0	0	0
1.078279	-0.1740371	0.3828667	-0.001537338	-0.001076944	-0.04634475	-0.03246568	0	0
1.094808	-0.1740371	0.3828667	0	0	0.04639995	0.03250434	0	0
1.111376	-0.1740371	0.3828667	0	0	0	0	0	0
1.127942	-0.1740371	0.3828667	0	0	0	0	0	0
1.144509	-0.1740116	0.3828489	0.001540778	-0.001077555	0.04650261	-0.03252197	0	0
1.161342	-0.1740116	0.3828131	0	-0.002124541	-0.04613116	-0.03134692	0	0
1.177852	-0.1740116	0.3828131	0	0	0	0.06371759	0	0
1.194208	-0.173986	0.3827952	0.001560598	-0.001093239	0.04748332	-0.03326327	0	0
1.210874	-0.1739605	0.3827774	0.001531619	-0.00107115	-0.000877556	0.0006689035	0	0
1.227386	-0.1739605	0.3827416	0	-0.002165877	-0.04616408	-0.03299584	0	0
1.260475	-0.1747007	0.3820803	-0.02236979	-0.01998573	-0.450993	-0.3592626	0	0
1.291713	-0.1756959	0.3813833	-0.0318569	-0.02231443	-0.1474831	-0.03620098	0	0
1.308283	-0.181201	0.377523	-0.3322192	-0.2329556	-6.282655	-4.405967	0	0
1.324959	-0.1840257	0.3755395	-0.1693915	-0.1189451	4.897603	3.429261	0	0
1.341467	-0.1882953	0.372502	-0.2586329	-0.1839986	-2.689286	-1.960387	0	0
1.357984	-0.1910364	0.3706082	-0.1659632	-0.1146642	2.806084	2.099481	0	0
1.37455	-0.1937239	0.3687145	-0.1622306	-0.114313	0.1128298	0.01061842	0	0
1.391116	-0.1936732	0.3687502	0.003059069	0.002156909	4.988721	3.515257	0	0
1.407683	-0.1936732	0.3687502	0	0	-0.09232655	-0.06509823	0	0
1.424249	-0.1936732	0.3687502	0	0	0	0	0	0
1.440816	-0.1936478	0.3687324	0.001529984	-0.001079354	0.04617635	-0.03257591	0	0
1.457381	-0.1936478	0.3687324	0	0	-0.04617918	0.0325779	0	0
1.474057	-0.1936478	0.3687324	0	0	0	0	0	0
1.49057	-0.1936478	0.3687324	0	0	0	0	0	0
1.50708	-0.1936478	0.3687324	0	0	0	0	0	0
1.523647	-0.1936732	0.3687502	-0.001529984	0.001079354	-0.04625523	0.03263156	0	0
1.540214	-0.1936732	0.3687502	0	0	0.04617635	-0.03257591	0	0
1.556781	-0.1936732	0.3687502	0	0	0	0	0	0
1.606648	-0.1936732	0.3687502	0	0	0	0	0	0
1.623047	-0.1936732	0.3687502	0	0	0	0	0	0
1.643521	-0.1936732	0.3687502	0	0	0	0	0	0
1.660091	-0.1936732	0.3687502	0	0	0	0	0	0
1.676656	-0.1936732	0.3687502	0	0	0	0	0	0
1.693223	-0.1936732	0.3687502	0	0	0	0	0	0
1.709789	-0.1936732	0.3687502	0	0	0	0	0	0
1.726356	-0.1936732	0.3687502	0	0	0	0	0	0
1.742922	-0.1936732	0.3687502	0	0	0	0	0	0
1.759489	-0.1936732	0.3687502	0	0	0	0	0	0
1.776056	-0.1936732	0.3687502	0	0	0	0	0	0
1.792783	-0.1936732	0.3687502	0	0	0	0	0	0
1.809293	-0.1936478	0.3687324	0.001535221	-0.001083048	0.04618981	-0.0325854	0	0
1.825806	-0.1936478	0.3687324	0	0	-0.0464891	0.03279655	0	0
1.842322	-0.1936478	0.3687324	0	0	0	0	0	0
1.858889	-0.1936478	0.3687324	0	0	0	0	0	0
1.875455	-0.1936478	0.3687324	0	0	0	0	0	0
1.892353	-0.1936478	0.3687324	0	0	0	0	0	0
1.908589	-0.1936478	0.3687324	0	0	0	0	0	0
1.925156	-0.1936478	0.3687324	0	0	0	0	0	0
1.941888	-0.1936478	0.3687324	0	0	0	0	0	0
1.958289	-0.1936478	0.3687324	0	0	0	0	0	0
1.97491	-0.1936478	0.3687324	0	0	0	0	0	0
1.991422	-0.1936478	0.3687324	0	0	0	0	0	0
2.007989	-0.1936478	0.3687324	0	0	0	0	0	0
2.024556	-0.1936478	0.3687324	0	0	0	0	0	0
2.041122	-0.1936478	0.3687324	0	0	0	0	0	0
2.057689	-0.1936478	0.3687324	0	0	0	0	0	0
2.074255	-0.1936478	0.3687324	0	0	0	0	0	0
2.090823	-0.1936478	0.3687324	0	0	0	0	0	0
2.107503	-0.1936478	0.3687324	0	0	0	0	0	0
2.124015	-0.1936478	0.3687324	0	0	0	0	0	0
2.140527	-0.1936478	0.3687324	0	0	0	0	0	0
2.157089	-0.1936478	0.3687324	0	0	0	0	0	0
2.173656	-0.1936478	0.3687324	0	0	0	0	0	0
2.190223	-0.1936478	0.3687324	0	0	0	0	0	0
2.206791	-0.1936478	0.3687324	0	0	0	0	0	0
2.223586	-0.1936478	0.3687324	0	0	0	0	0	0
2.240098	-0.1936478	0.3687324	0	0	0	0	0	0
2.256609	-0.1936478	0.3687324	0	0	0	0	0	0
2.27312	-0.1936478	0.3687324	0	0	0	0	0	0
2.308649	-0.1936478	0.3687324	0	0	0	0	0	0
2.324919	-0.1936478	0.3687324	0	0	0	0	0	0
2.341485	-0.1936478	0.3687324	0	0	0	0	0	0
2.358181	-0.1936478	0.3687324	0	0	0	0	0	0
2.374692	-0.1936478	0.3687324	0	0	0	0	0	0
2.391204	-0.1936478	0.3687324	0	0	0	0	0	0
2.407752	-0.1936478	0.3687324	0	0	0	0	0	0
2.424319	-0.1936478	0.3687324	0	0	0	0	0	0
2.440887	-0.1936478	0.3687324	0	0	0	0	0	0
2.457454	-0.1936478	0.3687324	0	0	0	0	0	0
2.474021	-0.1936478	0.3687324	0	0	0	0	0	0
2.490779	-0.1936478	0.3687324	0	0	0	0	0	0
2.50729	-0.1936478	0.3687324	0	0	0	0	0	0
2.523801	-0.1936478	0.3687324	0	0	0	0	0	0
2.540287	-0.1936225	0.3687145	0.001537419	-0.001082791	0.04659182	-0.03281423	0	0
2.556854	-0.1936225	0.3687145	0	0	-0.04651251	0.03275837	0	0
2.573845	-0.1936225	0.3687145	0	0	0	0	0	0
2.590351	-0.1936225	0.3687145	0	0	0	0	0	0
2.606555	-0.1936225	0.3687145	0	0	0	0	0	0
2.623121	-0.1936225	0.3687145	0	0	0	0	0	0
2.639688	-0.1936225	0.3687145	0	0	0	0	0	0
2.656255	-0.1936225	0.3687145	0	0	0	0	0	0
2.67291	-0.1936225	0.3687145	0	0	0	0	0	0
2.689389	-0.1936225	0.3687145	0	0	0	0	0	0
2.70596	-0.1936225	0.3687145	0	0	0	0	0	0
2.722525	-0.1936225	0.3687145	0	0	0	0	0	0
2.739093	-0.1936478	0.3687324	-0.001529808	0.001077431	-0.04617104	0.03251787	0	0
2.755659	-0.1936478	0.3687324	0	0	0.04617004	-0.03251717	0	0
2.772226	-0.1936478	0.3687324	0	0	0	0	0	0
2.789011	-0.1936478	0.3687324	0	0	0	0	0	0
2.805519	-0.1936478	0.3687324	0	0	0	0	0	0
2.822022	-0.1936478	0.3687324	0	0	0	0	0	0
2.838492	-0.1936478	0.3687324	0	0	0	0	0	0
2.85506	-0.1936478	0.3687324	0	0	0	0	0	0
2.871626	-0.1936478	0.3687324	0	0	0	0	0	0
2.888191	-0.1936478	0.3687324	0	0	0	0	0	0
2.904759	-0.1936225	0.3687145	0.001529918	-0.001077509	0.04617502	-0.03252068	0	0
2.921591	-0.1936225	0.3687145	0	0	-0.04580651	0.03226114	0	0
2.957266	-0.1936225	0.3687145	0	0	0	0	0	0
2.973833	-0.1936225	0.3687145	0	0	0	0	0	0
2.990628	-0.1935972	0.3686966	0.001508312	-0.001064691	0.04521091	-0.03191359	0	0
3.006967	-0.1935972	0.3686966	0	0	-0.04552159	0.03213289	0	0
3.023533	-0.1935972	0.3686966	0	0	0	0	0	0
3.040099	-0.1935972	0.3686966	0	0	0	0	0	0
3.056666	-0.1935972	0.3686966	0	0	0	0	0	0
3.073233	-0.1935972	0.3686966	0	0	0	0	0	0
3.0898	-0.1935972	0.3686966	0	0	0	0	0	0
3.106366	-0.1935972	0.3686966	0	0	0	0	0	0
3.122933	-0.1935972	0.3686966	0	0	0	0	0	0
3.139499	-0.1935972	0.3686966	0	0	0	0	0	0
3.156066	-0.1935972	0.3686966	0	0	0	0	0	0
3.172633	-0.1935972	0.3686966	0	0	0	0	0	0
3.1892	-0.1935972	0.3686966	0	0	0	0	0	0
3.20578	-0.1935972	0.3686966	0	0	0	0	0	0
3.222334	-0.1935972	0.3686966	0	0	0	0	0	0
3.2389	-0.1935972	0.3686966	0	0	0	0	0	0
3.255468	-0.1935972	0.3686966	0	0	0	0	0	0
3.272034	-0.1935972	0.3686966	0	0	0	0	0	0
3.28884	-0.1935972	0.3686966	0	0	0	0	0	0
3.305168	-0.1935972	0.3686966	0	0	0	0	0	0
3.321733	-0.1935972	0.3686966	0	0	0	0	0	0
3.338301	-0.1935972	0.3686966	0	0	0	0	0	0
3.354885	-0.1935972	0.3686966	0	0	0	0	0	0
3.371435	-0.1935972	0.3686966	0	0	0	0	0	0
3.388	-0.1935972	0.3686966	0	0	0	0	0	0
3.404567	-0.1935972	0.3686966	0	0	0	0	0	0
3.421136	-0.1935972	0.3686966	0	0	0	0	0	0
3.4377	-0.1935972	0.3686966	0	0	0	0	0	0
3.538017	-0.1935972	0.3686966	0	0	0	0	0	0
3.553667	-0.1935972	0.3686966	0	0	0	0	0	0
3.570538	-0.1935972	0.3686966	0	0	0	0	0	0
3.5868	-0.1935972	0.3686966	0	0	0	0	0	0
3.603367	-0.1935972	0.3686966	0	0	0	0	0	0
3.620074	-0.1935972	0.3686966	0	0	0	0	0	0
3.636586	-0.1935718	0.3686788	0.001535043	-0.001081118	0.04621033	-0.03254554	0	0
3.653109	-0.1934704	0.3686073	0.006135285	-0.004325272	0.1392534	-0.09820342	0	0
3.673562	-0.1933437	0.3684823	0.006195577	-0.00611398	0.001630578	-0.04837471	0	0
3.690129	-0.1931156	0.3683215	0.01376856	-0.009704913	0.2045623	-0.09699865	0	0
3.706697	-0.1927354	0.3680535	0.02295001	-0.01617366	0.2770965	-0.195227	0	0
3.723264	-0.1908334	0.3667137	0.114804	-0.08087008	2.772159	-1.952542	0	0
3.739832	-0.1882445	0.3648559	0.1562612	-0.1121314	1.251155	-0.943449	0	0
3.756397	-0.1844835	0.3622123	0.2270387	-0.159585	2.136129	-1.432193	0	0
3.772963	-0.1802078	0.3590331	0.2580982	-0.1919138	0.9374595	-0.9757707	0	0
3.78953	-0.1735521	0.3539431	0.4017527	-0.3072417	4.335719	-3.480778	0	0
3.806097	-0.1679809	0.3499785	0.3362845	-0.239309	-1.975892	2.050273	0	0
3.822717	-0.1661642	0.3487106	0.1093116	-0.07629036	-6.839278	4.912172	0	0
3.83923	-0.1612457	0.3452462	0.2978455	-0.2097922	5.69017	-4.029237	0	0
3.855798	-0.1553949	0.341139	0.353142	-0.2478972	1.671532	-1.151861	0	0
3.872363	-0.1553949	0.3411033	0	-0.002157127	-10.65831	7.416771	0	0
3.88893	-0.155472	0.3410498	-0.004651117	-0.003232666	-0.1403821	-0.0324624	0	0
3.905497	-0.1556261	0.3409069	-0.009302233	-0.00862404	-0.140375	-0.1627167	0	0
3.922063	-0.1577571	0.3394248	-0.128632	-0.08946407	-3.601484	-2.439827	0	0
3.93863	-0.1674948	0.3326032	-0.5877892	-0.4117592	-13.85779	-9.727166	0	0
3.955197	-0.1762571	0.3264779	-0.528889	-0.3697257	1.777638	1.268592	0	0
3.971764	-0.1875079	0.3185481	-0.6791438	-0.4786696	-4.534829	-3.288027	0	0
3.988344	-0.1979522	0.3111887	-0.6299078	-0.4438575	1.485388	1.050237	0	0
4.004898	-0.2050507	0.306097	-0.4288116	-0.3075869	6.069096	4.112654	0	0
4.021464	-0.2119019	0.3011652	-0.4135655	-0.2976998	0.4603267	0.2985212	0	0
4.03803	-0.2201118	0.2952137	-0.4955942	-0.3592639	-2.475807	-1.858141	0	0
4.054597	-0.2220657	0.2937837	-0.1179419	-0.08631954	11.39822	8.237951	0	0
4.071164	-0.2307122	0.2875262	-0.5219012	-0.3777001	-12.19169	-8.79401	0	0
4.08773	-0.2344996	0.2847723	-0.2286237	-0.1662343	8.851389	6.382235	0	0
4.104297	-0.2384045	0.2819644	-0.2357107	-0.1694995	-0.2139004	-0.09854787	0	0
4.120927	-0.2416322	0.279639	-0.1940885	-0.1398293	1.253815	0.8937743	0	0
4.137438	-0.245152	0.2770986	-0.2131736	-0.1538575	-0.575865	-0.4232812	0	0
4.153997	-0.2466869	0.2759534	-0.09269352	-0.06915568	3.643174	2.561283	0	0
4.170563	-0.2504695	0.2732156	-0.2283313	-0.1652647	-4.094736	-2.90141	0	0
4.18713	-0.2517534	0.2721776	-0.07749899	-0.0626547	4.55226	3.096864	0	0
4.203697	-0.2517041	0.2721418	0.002980816	-0.002160507	2.42892	1.825745	0	0
4.220499	-0.2511116	0.2717123	0.03526323	-0.02556584	0.9674631	-0.7014282	0	0
4.236831	-0.2492836	0.2703878	0.1119232	-0.0810938	2.313636	-1.675861	0	0
4.253521	-0.2434425	0.266163	0.349972	-0.253132	7.208601	-5.209665	0	0
4.273568	-0.2276424	0.2547888	0.7881809	-0.5673971	11.92844	-8.554578	0	0
4.290135	-0.2221909	0.2508816	0.329042	-0.2358325	-12.54	9.055693	0	0
4.306702	-0.2115498	0.2432426	0.6423209	-0.4611028	9.454778	-6.798671	0	0
4.323269	-0.203991	0.2378598	0.456261	-0.3249135	-5.615462	4.11032	0	0
4.339919	-0.1972184	0.2330489	0.4067566	-0.2889448	-1.490336	1.08284	0	0
4.356429	-0.1892347	0.2273912	0.4835848	-0.3426931	2.316914	-1.62089	0	0
4.372969	-0.1855513	0.2247138	0.2226933	-0.1618717	-7.893942	5.471215	0	0
4.389617	-0.1765631	0.2180439	0.5398864	-0.4006362	9.557365	-7.194228	0	0
4.406102	-0.1727349	0.2139063	0.2322192	-0.2509844	-9.285684	4.516631	0	0
4.422669	-0.1730669	0.2078043	-0.02003911	-0.3683332	-7.632171	-3.550434	0	0
4.439653	-0.1758999	0.1985252	-0.1668047	-0.5463415	-4.374437	-5.305646	0	0
4.455802	-0.1768692	0.1963615	-0.06001517	-0.1339806	3.223007	12.44544	0	0
4.472368	-0.1841274	0.188621	-0.4381477	-0.4672586	-11.55827	-10.18721	0	0
4.489188	-0.1898438	0.1808358	-0.3398687	-0.4628638	2.943783	0.1316397	0	0
4.5057	-0.1948892	0.175466	-0.305562	-0.3252128	1.029261	4.129769	0	0
4.522069	-0.2028299	0.1691321	-0.4850919	-0.3869323	-5.459946	-1.877043	0	0
4.538636	-0.2083277	0.1651476	-0.3318555	-0.2405116	4.652535	4.445601	0	0
4.555236	-0.2134357	0.1614687	-0.3077092	-0.221618	0.728024	0.5696521	0	0
4.571769	-0.2203123	0.1564996	-0.4159252	-0.3005518	-3.266059	-2.382295	0	0
4.588336	-0.22159	0.1556105	-0.07712297	-0.05366703	10.23582	7.458832	0	0
4.604903	-0.2242181	0.1536686	-0.1586289	-0.117212	-2.45989	-1.917819	0	0
4.621469	-0.224143	0.1537231	0.004530081	0.003287817	4.924362	3.636849	0	0
4.638035	-0.224118	0.1537049	0.00151024	-0.001095576	-0.09114685	-0.1323025	0	0
4.654604	-0.224068	0.1536686	0.003018972	-0.00219161	0.04553166	-0.03307694	0	0
4.671168	-0.2239179	0.1535597	0.009062743	-0.006575302	0.1824066	-0.1323039	0	0
4.687829	-0.2237928	0.1534689	0.007508622	-0.005447888	-0.0467769	0.03393361	0	0
4.704302	-0.2237678	0.1534508	0.001518764	-0.00110176	-0.1807795	0.1311702	0	0
4.720869	-0.2237678	0.1534508	0	0	-0.04596671	0.03334572	0	0
4.737435	-0.2237678	0.1534508	0	0	0	0	0	0
4.754002	-0.2237678	0.1534508	0	0	0	0	0	0
4.770569	-0.2237427	0.1534326	0.001510196	-0.001095544	0.04557847	-0.03306407	0	0
4.787138	-0.2236927	0.1533963	0.003019958	-0.002190774	0.04556273	-0.03305266	0	0
4.803703	-0.2236427	0.15336	0.00302074	-0.002192241	2.361053E-05	-4.427677E-05	0	0
4.820271	-0.2235676	0.1533056	0.004530967	-0.003286255	0.04558003	-0.03301836	0	0
4.836933	-0.2234925	0.1532148	0.004505681	-0.005448314	-0.0007609281	-0.06506289	0	0
4.85346	-0.2232923	0.1530696	0.01211265	-0.0087874	0.2292062	-0.1006102	0	0
4.86997	-0.2231171	0.1529425	0.01061101	-0.007696751	-0.04545315	0.03301277	0	0
4.886536	-0.2230421	0.152888	0.004532649	-0.003287722	-0.183768	0.1332988	0	0
4.906353	-0.2228418	0.1527428	0.01010362	-0.00732826	0.1531194	-0.1110552	0	0
4.922993	-0.2216651	0.1518895	0.07071906	-0.05128274	1.662653	-1.205651	0	0
4.939506	-0.217253	0.1486929	0.2671897	-0.1935821	5.926256	-4.292258	0	0
4.956055	-0.2096372	0.1431491	0.4602102	-0.3350013	5.838223	-4.277455	0	0
4.972621	-0.2034862	0.13871	0.3712923	-0.2679574	-2.68513	2.024584	0	0
4.989188	-0.1974209	0.1343038	0.3661169	-0.265969	-0.156201	0.06001025	0	0
5.005754	-0.1914676	0.129985	0.3593633	-0.2606958	-0.2038327	0.1591531	0	0
5.022321	-0.1838476	0.1245131	0.4599533	-0.3302959	3.035942	-2.100624	0	0
5.038888	-0.1766651	0.1193641	0.4335478	-0.3108023	-0.7969429	0.5883352	0	0
5.055588	-0.1736031	0.1171714	0.1833466	-0.1312912	-7.520889	5.395988	0	0
5.072098	-0.1694897	0.1142281	0.2491444	-0.1782773	1.981219	-1.414783	0	0
5.088587	-0.165345	0.111228	0.2513655	-0.1819409	0.06730825	-0.1110223	0	0
5.105154	-0.1634498	0.1098738	0.1144013	-0.08174948	-4.143485	3.031023	0	0
5.121721	-0.1608355	0.1080064	0.157797	-0.1127133	1.309722	-0.9345154	0	0
5.138308	-0.1605791	0.1078233	0.01545881	-0.01103937	-4.293181	3.06667	0	0
5.154854	-0.1606047	0.1078416	-0.001549892	0.001106808	-0.5133383	0.366583	0	0
5.171421	-0.1606047	0.1078416	0	0	0.04680614	-0.03342519	0	0
5.187989	-0.1606047	0.1078416	0	0	0	0	0	0
5.204555	-0.1606047	0.1078416	0	0	0	0	0	0
5.221122	-0.1606047	0.1078416	0	0	0	0	0	0
5.237689	-0.1606047	0.1078416	0	0	0	0	0	0
5.25473	-0.1606047	0.1078416	0	0	0	0	0	0
5.270822	-0.1606047	0.1078416	0	0	0	0	0	0
5.287388	-0.1606047	0.1078416	0	0	0	0	0	0
5.320521	-0.1606047	0.1078416	0	0	0	0	0	0
5.337089	-0.1606047	0.1078416	0	0	0	0	0	0
5.353654	-0.1606047	0.1078416	0	0	0	0	0	0
5.370312	-0.1606047	0.1078416	0	0	0	0	0	0
5.386788	-0.1606047	0.1078416	0	0	0	0	0	0
5.403355	-0.1606047	0.1078416	0	0	0	0	0	0
5.419921	-0.1606047	0.1078416	0	0	0	0	0	0
5.43649	-0.1606047	0.1078416	0	0	0	0	0	0
5.453054	-0.1606047	0.1078416	0	0	0	0	0	0
5.469621	-0.1606047	0.1078416	0	0	0	0	0	0
5.486188	-0.1606047	0.1078416	0	0	0	0	0	0
5.502754	-0.1606047	0.1078416	0	0	0	0	0	0
5.519321	-0.1606047	0.1078416	0	0	0	0	0	0
5.538595	-0.1606047	0.1078416	0	0	0	0	0	0
5.555163	-0.1606047	0.1078416	0	0	0	0	0	0
5.571729	-0.1606047	0.1078416	0	0	0	0	0	0
5.588462	-0.1606047	0.1078416	0	0	0	0	0	0
5.604862	-0.1606047	0.1078416	0	0	0	0	0	0
5.621429	-0.1606047	0.1078416	0	0	0	0	0	0
5.638052	-0.1606047	0.1078416	0	0	0	0	0	0
5.654566	-0.1606047	0.1078416	0	0	0	0	0	0
5.67113	-0.1606047	0.1078416	0	0	0	0	0	0
5.687697	-0.1606047	0.1078416	0	0	0	0	0	0
5.704263	-0.1606047	0.1078416	0	0	0	0	0	0
5.72083	-0.1606047	0.1078416	0	0	0	0	0	0
5.737397	-0.1606047	0.1078416	0	0	0	0	0	0
5.753964	-0.1606047	0.1078416	0	0	0	0	0	0
5.77053	-0.1606047	0.1078416	0	0	0	0	0	0
5.787104	-0.1606047	0.1078416	0	0	0	0	0	0
5.803663	-0.1606047	0.1078416	0	0	0	0	0	0
5.820629	-0.1606047	0.1078416	0	0	0	0	0	0
5.83714	-0.1606047	0.1078416	0	0	0	0	0	0
5.853652	-0.1606047	0.1078416	0	0	0	0	0	0
5.870163	-0.1606047	0.1078416	0	0	0	0	0	0
5.886497	-0.1606047	0.1078416	0	0	0	0	0	0
5.903064	-0.1606047	0.1078416	0	0	0	0	0	0
5.9197	-0.1606047	0.1078416	0	0	0	0	0	0
5.936196	-0.1606047	0.1078416	0	0	0	0	0	0
5.952763	-0.1606047	0.1078416	0	0	0	0	0	0
5.969737	-0.1606047	0.1078416	0	0	0	0	0	0
5.985897	-0.1606047	0.1078416	0	0	0	0	0	0
6.002464	-0.1606047	0.1078416	0	0	0	0	0	0
6.019029	-0.1606047	0.1078416	0	0	0	0	0	0
6.035596	-0.1606304	0.1078965	-0.001547929	0.00331577	-0.04671996	0.1000773	0	0
6.052293	-0.1608355	0.1081163	-0.01228581	0.01316043	-0.3228108	0.2959582	0	0
6.06873	-0.1610406	0.1084459	-0.01247969	0.02005082	-0.005851673	0.2079584	0	0
6.085315	-0.1614252	0.1089036	-0.02318638	0.02759689	-0.324225	0.2285136	0	0
6.101863	-0.161861	0.1093612	-0.02633432	0.02765667	-0.09500773	0.001804095	0	0
6.11843	-0.1625273	0.1100202	-0.04022303	0.039776	-0.4194096	0.3659781	0	0
6.135349	-0.1657034	0.1125819	-0.1877193	0.1514122	-4.404729	3.333827	0	0
6.151563	-0.1665481	0.1132587	-0.05209712	0.04174341	4.093321	-3.31	0	0
6.168129	-0.1721475	0.117409	-0.3379925	0.2505176	-8.721597	6.368918	0	0
6.184697	-0.1785262	0.1223044	-0.3850215	0.2954863	-1.419357	1.357176	0	0
6.221488	-0.1892601	0.130623	-0.2917447	0.2260996	1.748098	-1.300374	0	0
6.238054	-0.1937239	0.1341945	-0.2694669	0.215598	0.417522	-0.1968162	0	0
6.254621	-0.2009355	0.1406571	-0.4352982	0.3900844	-5.005085	5.266314	0	0
6.271219	-0.2021733	0.1420578	-0.07457606	0.08439332	10.8766	-9.217287	0	0
6.287755	-0.2068914	0.1486929	-0.2853067	0.4012318	-6.359864	9.562204	0	0
6.304321	-0.2092847	0.1505275	-0.1444768	0.1107513	4.254418	-8.775306	0	0
6.320888	-0.213687	0.1549028	-0.2657325	0.2641018	-3.659767	4.628459	0	0
6.337455	-0.2140388	0.1587489	-0.02123658	0.2321516	7.379007	-0.9642721	0	0
6.354021	-0.2130586	0.1682992	0.0591718	0.5765063	2.426835	10.3931	0	0
6.370588	-0.2116252	0.1754479	0.08651605	0.4314812	0.8252747	-4.376994	0	0
6.387155	-0.208504	0.1843411	0.1884103	0.5368295	3.075218	3.179466	0	0
6.404041	-0.2068158	0.1931688	0.09997565	0.5227759	-2.643587	-0.4201073	0	0
6.420288	-0.2058577	0.1997691	0.05896704	0.4062473	-1.237696	-3.516993	0	0
6.437064	-0.203991	0.2089206	0.11127	0.5454969	1.583817	4.216703	0	0
6.453576	-0.2034357	0.2113329	0.03362795	0.1460911	-2.3324	-11.99832	0	0
6.470087	-0.199242	0.2210109	0.2539954	0.5861573	6.673173	13.3261	0	0
6.486555	-0.1980281	0.2246059	0.07371656	0.2183048	-5.466471	-11.15414	0	0
6.503122	-0.1943066	0.2317021	0.2246343	0.4283363	4.568446	6.357885	0	0
6.520123	-0.1898946	0.235329	0.2595133	0.2133316	1.039059	-6.405067	0	0
6.536254	-0.1876349	0.2390443	0.1400814	0.230322	-3.604723	0.5128075	0	0
6.552822	-0.1867966	0.2482103	0.0506008	0.5532477	-2.736523	9.875818	0	0
6.569658	-0.1863901	0.2523693	0.02414732	0.2470288	-0.7919285	-9.167168	0	0
6.586169	-0.1864409	0.2562761	-0.003077439	0.2366073	-0.8163934	-0.312513	0	0
6.660722	-0.1712278	0.2798894	0.2040586	0.3167341	2.274621	0.8798964	0	0
6.677234	-0.1739095	0.2853088	-0.1624092	0.3282135	-4.024269	0.1260571	0	0
6.693611	-0.1745221	0.2887421	-0.03740519	0.2096332	3.800743	-3.605428	0	0
6.710254	-0.1776341	0.2968938	-0.1869852	0.4897985	-4.529913	8.484589	0	0
6.726767	-0.1786537	0.3018622	-0.06174469	0.3008753	3.777319	-5.698023	0	0
6.743311	-0.1778635	0.3065258	0.04775994	0.2818958	3.312627	-0.5741498	0	0
6.759878	-0.1765121	0.3128322	0.08157308	0.3806666	1.021217	2.983055	0	0
6.776445	-0.1750325	0.3160475	0.08931218	0.1940767	0.2335698	-5.631377	0	0
6.793012	-0.1744965	0.3212451	0.03234914	0.3137359	-1.719173	3.611374	0	0
6.809826	-0.1753132	0.3264601	-0.0485668	0.3101515	-2.424013	-0.1073771	0	0
6.826145	-0.1763591	0.3338712	-0.06409341	0.4541445	-0.4686143	4.345905	0	0
6.861949	-0.1815574	0.3400497	-0.1451847	0.1725634	-1.555751	-5.402187	0	0
6.878516	-0.1789595	0.342014	0.1568203	0.1185723	5.766642	-1.030934	0	0
6.895083	-0.178042	0.3426926	0.05538006	0.04095851	-3.06156	-2.342455	0	0
6.911898	-0.1780165	0.3427105	0.001516242	0.001061635	-1.613539	-1.195146	0	0
6.928216	-0.177991	0.3427283	0.001562454	0.001093992	0.001394758	0.0009765766	0	0
6.944783	-0.1779655	0.3427819	0.00153808	0.003234464	-0.0007412226	0.06509043	0	0
6.961433	-0.1780165	0.342889	-0.003061637	0.006434719	-0.138475	0.096344	0	0
6.977917	-0.1786282	0.343389	-0.03710966	0.03033245	-1.027586	0.7212454	0	0
6.994957	-0.1800804	0.3444069	-0.08522569	0.05973318	-1.43527	0.8770045	0	0
7.011049	-0.1818883	0.3456748	-0.1123446	0.078788	-0.8184983	0.5751088	0	0
7.027616	-0.1822956	0.3459605	-0.02458139	0.01724628	2.687256	-1.884369	0	0
7.044493	-0.1822956	0.3459605	0	0	0.7350136	-0.5156848	0	0
7.093883	-0.1822447	0.3458891	0.001030614	-0.00144636	0.01555245	-0.02182624	0	0
7.12705	-0.1821174	0.3457284	0.003836781	-0.004844947	0.03399038	-0.04116622	0	0
7.143584	-0.1818629	0.3454426	0.01539562	-0.0172829	0.2325689	-0.2502569	0	0
7.16015	-0.1810737	0.3447462	0.04763956	-0.04203846	0.9741473	-0.7479099	0	0
7.176717	-0.17952	0.3432997	0.09377788	-0.08730824	1.392497	-1.366284	0	0
7.193284	-0.1799276	0.341764	-0.02460369	-0.0927012	-3.572866	-0.1627644	0	0
7.210109	-0.178042	0.3384426	0.1120691	-0.197403	4.092984	-3.13554	0	0
7.226417	-0.1752621	0.3365319	0.1704655	-0.117169	1.762485	2.421572	0	0
7.243132	-0.1754662	0.3366747	-0.01221117	0.008547283	-5.531822	3.806944	0	0
7.259645	-0.1754407	0.3366569	0.001544903	-0.001081071	0.4139854	-0.2897628	0	0
7.276117	-0.1754407	0.3366569	0	0	-0.04683692	0.0327749	0	0
7.292684	-0.1754407	0.3366212	0	-0.002156847	0	-0.06528167	0	0
7.30925	-0.1754152	0.3366033	0.001539923	-0.001077586	0.0464763	0.0325731	0	0
7.325817	-0.1753897	0.3365855	0.001540778	-0.001077555	2.580719E-05	9.346105E-07	0	0
7.342383	-0.1753387	0.3365497	0.003079846	-0.002156971	0.04645117	-0.03257825	0	0
7.359215	-0.1752876	0.3364783	0.003032218	-0.00424245	-0.001426068	-0.06244382	0	0
7.375517	-0.1752111	0.3364247	0.004695544	-0.003286972	0.0502007	0.02883722	0	0
7.392238	-0.1751601	0.3363533	0.003051302	-0.004272179	-0.04979027	-0.02983364	0	0
7.40875	-0.1750325	0.3362283	0.00772767	-0.007569741	0.1407139	-0.09922505	0	0
7.425263	-0.175007	0.3362105	0.001544859	-0.00108104	-0.1872146	0.1964769	0	0
7.441783	-0.1746752	0.3359426	0.02008226	-0.01621446	0.561172	-0.4581252	0	0
7.45835	-0.1713044	0.3335854	0.2034654	-0.1422841	5.542491	-3.810271	0	0
7.474917	-0.1680576	0.3313175	0.1959828	-0.1368945	-0.2258324	0.1626623	0	0
7.491484	-0.1616815	0.3268708	0.3848623	-0.2684025	5.700476	-3.968976	0	0
7.50805	-0.157218	0.3237633	0.2694325	-0.1875792	-3.483777	2.439322	0	0
7.524617	-0.1554976	0.3225667	0.1038503	-0.07223066	-4.997568	3.481425	0	0
7.541344	-0.1543159	0.3217452	0.07064679	-0.04911592	-0.997306	0.694277	0	0
7.575153	-0.1543416	0.3217631	-0.0007598409	0.0005288916	-1.412981	0.9823623	0	0
7.591879	-0.1543416	0.3217631	0	0	0.01503573	-0.01046571	0	0
7.608287	-0.1543416	0.3217631	0	0	0	0	0	0
7.624902	-0.1543416	0.3217631	0	0	0	0	0	0
7.641419	-0.1543416	0.3217273	0	-0.002163323	0	-0.06529296	0	0
7.657988	-0.1543416	0.3217273	0	0	0	0.06538424	0	0
7.674552	-0.1543416	0.3217273	0	0	0	0	0	0
7.691122	-0.1543416	0.3217273	0	0	0	0	0	0
7.707687	-0.1543416	0.3217273	0	0	0	0	0	0
7.724255	-0.1543416	0.3217273	0	0	0	0	0	0
7.740984	-0.1543416	0.3217273	0	0	0	0	0	0
7.757386	-0.1543416	0.3217273	0	0	0	0	0	0
7.774009	-0.1543416	0.3217273	0	0	0	0	0	0
7.790519	-0.1543416	0.3217273	0	0	0	0	0	0
7.807086	-0.1543416	0.3217273	0	0	0	0	0	0
7.823653	-0.1543673	0.3217452	-0.001551572	0.001077555	-0.04682787	0.03252162	0	0
7.840555	-0.1543673	0.3217452	0	0	0.04635885	-0.03219589	0	0
7.856786	-0.1543673	0.3217452	0	0	0	0	0	0
7.873353	-0.1543673	0.3217452	0	0	0	0	0	0
7.89009	-0.1543673	0.3217452	0	0	0	0	0	0
7.906601	-0.1543673	0.3217452	0	0	0	0	0	0
7.923114	-0.1543673	0.3217452	0	0	0	0	0	0
7.939621	-0.1543673	0.3217452	0	0	0	0	0	0
7.956186	-0.1543416	0.3217273	0.001551706	-0.001077648	0.04691834	-0.03258445	0	0
7.98932	-0.1543416	0.3217273	0	0	-0.03122217	0.02168357	0	0
8.005886	-0.1543416	0.3217273	0	0	0	0	0	0
8.022452	-0.1543416	0.3217273	0	0	0	0	0	0
8.039194	-0.1543673	0.3217095	-0.001535353	-0.001066292	-0.04609559	-0.03201305	0	0
8.055706	-0.1543673	0.3217095	0	0	0.04617094	0.03206538	0	0
8.072151	-0.1543673	0.3217095	0	0	0	0	0	0
8.088718	-0.1543673	0.3217095	0	0	0	0	0	0
8.105285	-0.1543673	0.3217095	0	0	0	0	0	0
8.121851	-0.1543673	0.3217095	0	0	0	0	0	0
8.138417	-0.1543673	0.3217095	0	0	0	0	0	0
8.17155	-0.1543673	0.3217095	0	0	0	0	0	0
8.204683	-0.1543416	0.3217273	0.0007757858	0.0005387776	0.01170714	0.008130522	0	0
8.221321	-0.1543416	0.3217273	0	0	-0.01558701	-0.01082506	0	0
8.237833	-0.1543416	0.3217273	0	0	0	0	0	0
8.254383	-0.1543673	0.3217095	-0.001553136	-0.001078642	-0.0469765	-0.03262484	0	0
8.270949	-0.1543673	0.3217095	0	0	0.04689939	0.03257129	0	0
8.287868	-0.1543673	0.3217095	0	0	0	0	0	0
8.304083	-0.1543673	0.3217095	0	0	0	0	0	0
8.320649	-0.1543673	0.3217095	0	0	0	0	0	0
8.337402	-0.1543673	0.3217095	0	0	0	0	0	0
8.353913	-0.1543673	0.3217095	0	0	0	0	0	0
8.370472	-0.1543673	0.3217095	0	0	0	0	0	0
8.386918	-0.1543673	0.3217095	0	0	0	0	0	0
8.403483	-0.1543673	0.3217095	0	0	0	0	0	0
8.42005	-0.1543673	0.3217095	0	0	0	0	0	0
8.436617	-0.1543673	0.3217095	0	0	0	0	0	0
8.453184	-0.1543673	0.3217095	0	0	0	0	0	0
8.46975	-0.1543673	0.3217095	0	0	0	0	0	0
8.486317	-0.1543673	0.3217095	0	0	0	0	0	0
8.502883	-0.1543673	0.3217095	0	0	0	0	0	0
8.519449	-0.1543673	0.3217095	0	0	0	0	0	0
8.536044	-0.1543673	0.3217095	0	0	0	0	0	0
8.552584	-0.1543673	0.3217095	0	0	0	0	0	0
8.569149	-0.1543673	0.3217095	0	0	0	0	0	0
8.585715	-0.1543673	0.3217095	0	0	0	0	0	0
8.602283	-0.1543673	0.3217095	0	0	0	0	0	0
8.618849	-0.1543673	0.3217095	0	0	0	0	0	0
8.635415	-0.1543673	0.3217095	0	0	0	0	0	0
8.651985	-0.1543673	0.3217095	0	0	0	0	0	0
8.668549	-0.1543673	0.3217095	0	0	0	0	0	0
8.68515	-0.1543673	0.3217095	0	0	0	0	0	0
8.701682	-0.1543673	0.3217095	0	0	0	0	0	0
8.718248	-0.1543673	0.3217095	0	0	0	0	0	0
8.752061	-0.1543673	0.3217095	0	0	0	0	0	0
8.768707	-0.1543673	0.3217095	0	0	0	0	0	0
8.785194	-0.1543673	0.3217095	0	0	0	0	0	0
8.801762	-0.1543673	0.3217095	0	0	0	0	0	0
8.818329	-0.154393	0.3217273	-0.001550627	0.001077524	-0.04679803	0.03251974	0	0
8.834895	-0.154393	0.3217273	0	0	0.04679938	-0.03252068	0	0
8.851461	-0.1544187	0.3217452	-0.001550717	0.001077586	-0.04680342	0.03252349	0	0
8.868277	-0.1544187	0.3217452	0	0	0.04645443	-0.03228098	0	0
8.884595	-0.1544187	0.3217452	0	0	0	0	0	0
8.901161	-0.1544444	0.3217631	-0.001550717	0.001079385	-0.04715632	0.03282342	0	0
8.917727	-0.1544444	0.3217631	0	0	0.04680476	-0.03257872	0	0
8.934293	-0.1544444	0.3217631	0	0	0	0	0	0
8.95086	-0.1544444	0.3217631	0	0	0	0	0	0
8.967426	-0.1544444	0.3217631	0	0	0	0	0	0
8.983994	-0.1544187	0.3217452	0.001550627	-0.001079323	0.04679938	-0.03257497	0	0
9.00056	-0.1544187	0.3217452	0	0	-0.04679938	0.03257497	0	0
9.017126	-0.1544187	0.3217452	0	0	0	0	0	0
9.033692	-0.1544187	0.3217452	0	0	0	0	0	0
9.050259	-0.1544187	0.3217452	0	0	0	0	0	0
9.066826	-0.1544187	0.3217452	0	0	0	0	0	0
9.083392	-0.1544187	0.3217452	0	0	0	0	0	0
9.099959	-0.1544187	0.3217452	0	0	0	0	0	0
9.116526	-0.1544187	0.3217452	0	0	0	0	0	0
9.133092	-0.1544187	0.3217452	0	0	0	0	0	0
9.149658	-0.1544187	0.3217452	0	0	0	0	0	0
9.166224	-0.1544187	0.3217452	0	0	0	0	0	0
9.182791	-0.1544187	0.3217452	0	0	0	0	0	0
9.199358	-0.1544187	0.3217452	0	0	0	0	0	0
9.215924	-0.1544187	0.3217452	0	0	0	0	0	0
9.232491	-0.1544187	0.3217452	0	0	0	0	0	0
9.249057	-0.1544187	0.3217452	0	0	0	0	0	0
9.266052	-0.1544187	0.3217452	0	0	0	0	0	0
9.28219	-0.1544187	0.3217452	0	0	0	0	0	0
9.298758	-0.1544187	0.3217452	0	0	0	0	0	0
9.315324	-0.1544187	0.3217452	0	0	0	0	0	0
9.365123	-0.1544187	0.3217452	0	0	0	0	0	0
9.38159	-0.1544187	0.3217452	0	0	0	0	0	0
9.398157	-0.1544187	0.3217452	0	0	0	0	0	0
9.414723	-0.1544187	0.3217452	0	0	0	0	0	0
9.43129	-0.1544187	0.3217452	0	0	0	0	0	0
9.447857	-0.1544187	0.3217452	0	0	0	0	0	0
9.464423	-0.1544187	0.3217452	0	0	0	0	0	0
9.48099	-0.1544187	0.3217452	0	0	0	0	0	0
9.497557	-0.1544187	0.3217452	0	0	0	0	0	0
9.514123	-0.1544187	0.3217452	0	0	0	0	0	0
9.530689	-0.1544187	0.3217452	0	0	0	0	0	0
9.547256	-0.1544187	0.3217452	0	0	0	0	0	0
9.563823	-0.1544187	0.3217452	0	0	0	0	0	0
9.580389	-0.1544187	0.3217452	0	0	0	0	0	0
9.596955	-0.1544187	0.3217452	0	0	0	0	0	0
9.613522	-0.1544187	0.3217452	0	0	0	0	0	0
9.630088	-0.1544187	0.3217452	0	0	0	0	0	0
9.646656	-0.1544187	0.3217452	0	0	0	0	0	0
9.663332	-0.1544187	0.3217452	0	0	0	0	0	0
9.746391	-0.1544187	0.3217452	0	0	0	0	0	0
9.762621	-0.1544444	0.3217631	-0.001582883	0.001101775	-0.01594219	0.01109665	0	0
9.779188	-0.1544187	0.3217809	0.001550627	0.001077524	0.095543	-0.0007394145	0	0
9.795754	-0.1544187	0.3217809	0	0	-0.04679938	-0.03252068	0	0
9.812321	-0.1544187	0.3217809	0	0	0	0	0	0
9.828947	-0.1544444	0.3217631	-0.001545113	-0.001073692	-0.04654988	-0.0323473	0	0
9.845456	-0.1544444	0.3217631	0	0	0.04663026	0.03240316	0	0
9.86202	-0.154393	0.3217273	0.003101791	-0.00215722	0.09378498	-0.06522517	0	0
9.878588	-0.154393	0.3216916	0	-0.002156847	-0.09362031	1.124392E-05	0	0
9.895154	-0.1544958	0.3215845	-0.006203766	-0.006467316	-0.1872354	-0.130094	0	0
9.91172	-0.1552665	0.32087	-0.0465215	-0.04312504	-1.216862	-1.106396	0	0
9.928287	-0.1599636	0.3175301	-0.2835356	-0.201613	-7.153512	-4.783451	0	0
9.944853	-0.1671878	0.3123856	-0.4360797	-0.3105373	-4.604055	-3.287533	0	0
9.961419	-0.1771751	0.3054001	-0.6028717	-0.421669	-5.034082	-3.354154	0	0
9.978056	-0.1857801	0.2993245	-0.517222	-0.3651906	2.579568	1.700997	0	0
9.994563	-0.1897931	0.2965364	-0.2431051	-0.1689042	8.270483	5.922231	0	0
10.01112	-0.1968894	0.2915312	-0.4286335	-0.3023221	-5.611372	-4.035273	0	0
10.02769	-0.2015419	0.2882414	-0.2808228	-0.1985703	4.46248	3.13232	0	0
10.07739	-0.2158223	0.27785	-0.2873328	-0.2090849	-0.09824011	-0.1586709	0	0
10.11052	-0.2205378	0.2645335	-0.1423241	-0.4019136	1.750629	-2.32794	0	0
10.12716	-0.2193599	0.2555593	0.07080061	-0.5393876	4.282163	-2.762166	0	0
10.14365	-0.2182816	0.2464351	0.06536538	-0.553127	-0.1640402	-0.4146681	0	0
10.16068	-0.2166507	0.2380573	0.0957785	-0.4920085	0.9072161	1.823149	0	0
10.17679	-0.2130838	0.2293672	0.2214589	-0.5395311	3.793041	-1.434234	0	0
10.19335	-0.2116252	0.2231142	0.08804185	-0.3774574	-4.083417	4.960496	0	0
10.21022	-0.2096875	0.2156875	0.1149103	-0.4404143	0.8037429	-1.883295	0	0
10.22649	-0.2082521	0.2106669	0.08822296	-0.308572	-0.8054485	3.979124	0	0
10.24324	-0.2049498	0.2061835	0.1971253	-0.2676291	3.297785	1.239835	0	0
10.25962	-0.2039405	0.1994446	0.06161037	-0.4113768	-4.089966	-4.338439	0	0
10.27626	-0.2033348	0.1981106	0.03639954	-0.08016386	-0.7634352	10.0298	0	0
10.29277	-0.200228	0.1958926	0.1881561	-0.1343241	4.577387	-1.633619	0	0
10.30932	-0.1951172	0.1923209	0.308877	-0.2158646	3.651773	-2.466575	0	0
10.32589	-0.1928368	0.1907328	0.1376549	-0.0958584	-5.170917	3.624192	0	0
10.34245	-0.1896154	0.1884404	0.1944418	-0.1383692	1.713883	-1.283016	0	0
10.35902	-0.1889808	0.1879891	0.03830738	-0.02724458	-4.712283	3.353845	0	0
10.37583	-0.1889808	0.1879891	0	0	-1.147663	0.816229	0	0
10.39215	-0.1889808	0.1879891	0	0	0	0	0	0
10.40885	-0.1889808	0.1879891	0	0	0	0	0	0
10.42537	-0.1889554	0.187971	0.00153687	-0.001093768	0.0462723	-0.03293132	0	0
10.44188	-0.1889808	0.187953	-0.00153687	-0.001093768	-0.09307645	0	0	0
10.45842	-0.1889554	0.1879349	0.001534212	-0.001090975	0.09291545	8.449613E-05	0	0
10.4754	-0.1889046	0.1878988	0.002990229	-0.002126853	0.04343265	-0.0309	0	0
10.49155	-0.1888285	0.1878446	0.004715641	-0.003353816	0.05207452	-0.03703088	0	0
10.50812	-0.1888031	0.1877905	0.001532727	-0.003268738	-0.09728697	0.00260044	0	0
10.57438	-0.17442	0.1773287	0.2170509	-0.1578753	2.60186	-1.866501	0	0
10.59098	-0.1696943	0.1739464	0.2847363	-0.2037939	0.8168362	-0.5541511	0	0
10.60752	-0.1603739	0.1672126	0.5636472	-0.4072241	8.418032	-6.139891	0	0
10.62408	-0.1541361	0.1624476	0.3765408	-0.2876355	-5.652412	3.612729	0	0
10.64102	-0.1511283	0.1564452	0.1776231	-0.35447	-5.937893	-1.995076	0	0
10.65722	-0.1539048	0.1453309	-0.1713783	-0.6860247	-10.53288	-10.00634	0	0
10.67378	-0.1576287	0.1370535	-0.2247901	-0.499651	-1.630032	5.687796	0	0
10.69035	-0.1609637	0.1288181	-0.2013116	-0.4971181	0.7086213	0.07644836	0	0
10.70692	-0.1639877	0.1240386	-0.1825288	-0.2884959	0.5668826	6.296412	0	0
10.72348	-0.1715344	0.1127283	-0.4555446	-0.6827286	-8.23987	-11.89831	0	0
10.74005	-0.1777361	0.1054972	-0.3743335	-0.4364724	2.451026	7.432243	0	0
10.75662	-0.1829318	0.1018316	-0.3136316	-0.2212659	1.832042	6.495132	0	0
10.77318	-0.1860088	0.09961253	-0.185754	-0.1339585	3.859686	2.635169	0	0
10.80764	-0.1888031	0.09759427	-0.08110234	-0.05857959	2.051241	1.477476	0	0
10.82403	-0.1888031	0.09759427	0	0	1.595085	1.152118	0	0
10.84066	-0.1888031	0.09759427	0	0	0	0	0	0
10.85713	-0.1888031	0.09759427	0	0	0	0	0	0
10.8737	-0.1888031	0.09759427	0	0	0	0	0	0
10.89026	-0.1887777	0.09761262	0.001532727	0.001107719	0.04626045	0.03343295	0	0
10.90683	-0.1887523	0.09763098	0.001531827	0.001108169	-2.714626E-05	1.357313E-05	0	0
10.9234	-0.1887523	0.09766768	0	0.00221531	-0.04623198	0.03341457	0	0
10.93996	-0.1887269	0.09768603	0.001532727	0.001107719	0.04625912	-0.03342814	0	0
10.95653	-0.1887015	0.09770438	0.001532727	0.001107719	0	0	0	0
10.97309	-0.1887015	0.09774108	0	0.002215438	-0.04626045	0.03343295	0	0
10.98966	-0.1886508	0.09777778	0.003065454	0.002215438	0.09252091	0	0	0
11.00627	-0.1886508	0.09777778	0	0	-0.09239591	-0.06677557	0	0
11.02279	-0.1886254	0.09779613	0.001536797	0.00111066	0.04638195	0.03352075	0	0
11.03936	-0.1886254	0.09779613	0	0	-0.04644478	-0.03356616	0	0
11.05593	-0.1886254	0.09779613	0	0	0	0	0	0
11.0725	-0.1886254	0.09779613	0	0	0	0	0	0
11.08906	-0.1886254	0.09779613	0	0	0	0	0	0
11.10584	-0.1886254	0.09779613	0	0	0	0	0	0
11.1222	-0.1886254	0.09779613	0	0	0	0	0	0
11.13876	-0.1886254	0.09779613	0	0	0	0	0	0
11.15533	-0.1886254	0.09779613	0	0	0	0	0	0
11.1719	-0.1886254	0.09779613	0	0	0	0	0	0
11.18846	-0.1886254	0.09779613	0	0	0	0	0	0
11.20503	-0.1886254	0.09779613	0	0	0	0	0	0
11.22159	-0.1886254	0.09779613	0	0	0	0	0	0
11.25473	-0.1886254	0.09779613	0	0	0	0	0	0
11.2713	-0.1886254	0.09779613	0	0	0	0	0	0
11.28786	-0.1886254	0.09779613	0	0	0	0	0	0
11.30443	-0.1886254	0.09779613	0	0	0	0	0	0
11.32099	-0.1886254	0.09779613	0	0	0	0	0	0
11.33802	-0.1886254	0.09779613	0	0	0	0	0	0
11.37069	-0.1886254	0.09779613	0	0	0	0	0	0
11.38726	-0.1886254	0.09779613	0	0	0	0	0	0
11.40405	-0.1886254	0.09779613	0	0	0	0	0	0
11.42039	-0.1886254	0.09779613	0	0	0	0	0	0
11.43696	-0.1886254	0.09779613	0	0	0	0	0	0
11.4701	-0.1886254	0.09779613	0	0	0	0	0	0
11.48666	-0.1886254	0.09779613	0	0	0	0	0	0
11.50362	-0.1886254	0.09779613	0	0	0	0	0	0
11.5198	-0.1886254	0.09779613	0	0	0	0	0	0
11.56967	-0.1886	0.09785119	0.0005091017	0.001103801	0.007708095	0.01671218	0	0
11.58606	-0.1885238	0.09797964	0.004647408	0.007837046	0.06244987	0.1016093	0	0
11.60263	-0.1883968	0.0980714	0.007663194	0.005538276	0.09150381	-0.06974839	0	0
11.61921	-0.1882953	0.09818149	0.006126675	0.006641277	-0.04635754	0.03327808	0	0
11.63576	-0.1883207	0.09819984	-0.001533698	0.001108421	-0.2311972	-0.1669867	0	0
11.65233	-0.1882953	0.0982182	0.001532286	0.0011074	0.0925529	-3.080926E-05	0	0
11.6689	-0.1883207	0.09823654	-0.001532903	0.001107397	-0.09250493	-1.053996E-07	0	0
11.68546	-0.1882699	0.09834664	0.003066883	0.006647013	0.1388498	0.1672196	0	0
11.70226	-0.1882191	0.09853012	0.003022134	0.01091932	-0.001341113	0.1280393	0	0
11.71859	-0.1881937	0.09873194	0.001555017	0.01235983	-0.04428022	0.04347713	0	0
11.73516	-0.1881937	0.0989888	0	0.01550492	-0.04727201	0.09560966	0	0
11.75173	-0.1881937	0.09906219	0	0.004429722	0	-0.3342597	0	0
11.76829	-0.1881683	0.09911723	0.001532815	0.003322449	0.04626312	-0.03341949	0	0
11.78486	-0.1881683	0.09915391	0	0.002214411	-0.04626312	-0.03344257	0	0
11.80143	-0.1881683	0.09930068	0	0.008858544	0	0.2005203	0	0
11.81799	-0.1882953	0.09950247	-0.007664976	0.01218156	-0.2313427	0.1002947	0	0
11.83456	-0.1884476	0.09975928	-0.009195303	0.01550044	-0.04618669	0.1001666	0	0
11.85113	-0.1889554	0.1002362	-0.0306545	0.02878886	-0.6476587	0.401057	0	0
11.86769	-0.1901484	0.1011715	-0.07200938	0.05645904	-1.248201	0.8351598	0	0
11.88426	-0.1912646	0.1020149	-0.06737168	0.05090491	0.1399621	-0.1676192	0	0
11.90083	-0.1914929	0.1024	-0.01377846	0.02323917	1.617354	-0.8349054	0	0
11.91741	-0.1913661	0.1024916	0.007645397	0.005526068	0.6462013	-0.5342751	0	0
11.93396	-0.1913154	0.1025649	0.003065385	0.004431481	-0.138229	-0.03303566	0	0
11.96709	-0.1914422	0.1028766	-0.00382743	0.009405988	-0.1387476	0.1001334	0	0
11.98366	-0.1916958	0.1032798	-0.01530928	0.02434238	-0.231033	0.300544	0	0
12.00023	-0.1954464	0.1063581	-0.2264001	0.185818	-6.371102	4.873623	0	0
12.01679	-0.2000763	0.1101117	-0.2794762	0.2265778	-1.601931	1.230205	0	0
12.03336	-0.2042686	0.1142464	-0.253061	0.2495831	0.7972591	0.6943411	0	0
12.04992	-0.2085543	0.1199852	-0.2587043	0.3464152	-0.170327	2.922567	0	0
12.06649	-0.2098134	0.1209349	-0.07600131	0.05732974	5.514306	-8.725119	0	0
12.11619	-0.2259934	0.1327006	-0.3255612	0.2367393	-3.766082	2.707452	0	0
12.13306	-0.2288659	0.134832	-0.1702263	0.1263096	2.333296	-1.658773	0	0
12.14932	-0.2302632	0.1359247	-0.08594941	0.06720913	2.543628	-1.783758	0	0
12.1826	-0.2327314	0.1395472	-0.07416961	0.10886	0.2378087	0.8408412	0	0
12.19915	-0.2304129	0.1461852	0.1400794	0.401066	4.299808	5.864342	0	0
12.21572	-0.2283416	0.1502369	0.1250306	0.2445752	-0.45441	-4.725349	0	0
12.23228	-0.2273677	0.1536686	0.05879051	0.2071502	-1.999244	-1.129553	0	0
12.24885	-0.228017	0.1541405	-0.03919697	0.02848767	-2.957438	-5.392356	0	0
12.26542	-0.2292153	0.1550117	-0.0723323	0.05258585	-1.000084	0.7273262	0	0
12.28198	-0.2295647	0.1552658	-0.02108939	0.01533626	1.546603	-1.124259	0	0
12.29868	-0.2295647	0.1552658	0	0	0.6340155	-0.4610579	0	0
12.31511	-0.2295647	0.155302	0	0.002207536	0	0.06662548	0	0
12.33168	-0.2295397	0.1553565	0.001506642	0.003286728	0.04565187	0.03269997	0	0
12.34825	-0.2292403	0.1558646	0.0180761	0.03066983	0.5000961	0.8264712	0	0
12.36481	-0.2254185	0.1587127	0.230697	0.17192	6.41728	4.263183	0	0
12.41476	-0.2100148	0.1699106	0.3084196	0.2242108	1.168582	0.7862083	0	0
12.43108	-0.2007839	0.1766416	0.565541	0.4123804	3.880137	2.839607	0	0
12.44765	-0.1976992	0.1788837	0.1862065	0.1353414	-11.53399	-8.423605	0	0
12.46421	-0.1949652	0.1809081	0.1650317	0.1222044	-0.6390945	-0.3964987	0	0
12.48078	-0.1942306	0.1814322	0.04434384	0.03163678	-3.642576	-2.733494	0	0
12.49735	-0.1925072	0.182661	0.1040243	0.07416838	1.80121	1.283643	0	0
12.51433	-0.1911885	0.1836005	0.07765553	0.05532545	-0.7859915	-0.5616649	0	0
12.53048	-0.1905797	0.1839979	0.03769522	0.02460642	-1.206074	-0.9271555	0	0
12.54704	-0.1905797	0.1839979	0	0	-1.152135	-0.7520828	0	0
12.56386	-0.1905797	0.1839979	0	0	0	0	0	0
12.58037	-0.1905797	0.1839979	0	0	0	0	0	0
12.59674	-0.1905797	0.1839979	0	0	0	0	0	0
12.61331	-0.1905797	0.1839979	0	0	0	0	0	0
12.62988	-0.1905797	0.1839979	0	0	0	0	0	0
12.64645	-0.1905797	0.1839979	0	0	0	0	0	0
12.66301	-0.1905797	0.1839979	0	0	0	0	0	0
12.67958	-0.1905797	0.1839979	0	0	0	0	0	0
12.69614	-0.1905797	0.1839979	0	0	0	0	0	0
12.71271	-0.1905797	0.1839979	0	0	0	0	0	0
12.72928	-0.1905797	0.1839979	0	0	0	0	0	0
12.74585	-0.1905797	0.1839979	0	0	0	0	0	0
12.76241	-0.1905797	0.1839979	0	0	0	0	0	0
12.77898	-0.1905797	0.1839979	0	0	0	0	0	0
12.79555	-0.1905797	0.1839979	0	0	0	0	0	0
12.82868	-0.1905797	0.1839979	0	0	0	0	0	0
12.84525	-0.1905797	0.1839979	0	0	0	0	0	0
12.86181	-0.1905797	0.1839979	0	0	0	0	0	0
12.87838	-0.1905797	0.1839979	0	0	0	0	0	0
12.89494	-0.1905797	0.1839979	0	0	0	0	0	0
12.91151	-0.1905543	0.184016	0.001531739	0.001090116	0.04622931	0.03290072	0	0
12.92808	-0.1905543	0.184016	0	0	-0.04622931	-0.03290072	0	0
12.94464	-0.1905543	0.184016	0	0	0	0	0	0
12.96121	-0.1905543	0.184016	0	0	0	0	0	0
12.97778	-0.1905543	0.184016	0	0	0	0	0	0
12.99434	-0.1905543	0.184016	0	0	0	0	0	0
13.01091	-0.1905543	0.184016	0	0	0	0	0	0
13.02748	-0.1905797	0.184034	-0.001531827	0.001091079	-0.04623331	0.03293071	0	0
13.0442	-0.1905797	0.184034	0	0	0.0460095	-0.0327713	0	0
13.06071	-0.1905797	0.184034	0	0	0	0	0	0
13.07722	-0.1905797	0.184034	0	0	0	0	0	0
13.09374	-0.1906051	0.1841244	-0.00153517	0.005466901	-0.04647465	0.1655011	0	0
13.11075	-0.1906305	0.1841786	-0.001492393	0.00318722	0.001275979	-0.06800043	0	0
13.12688	-0.1907827	0.1843231	-0.009437082	0.008959454	-0.2397781	0.1742114	0	0
13.14377	-0.1913915	0.1847566	-0.03603788	0.02566208	-0.8055263	0.5057896	0	0
13.16001	-0.1944586	0.1869419	-0.1888626	0.13456	-4.612391	3.28664	0	0
13.1768	-0.1979016	0.1893972	-0.2051252	0.1462846	-0.4924368	0.3550258	0	0
13.20971	-0.1979269	0.1894153	-0.0007686875	0.0005486745	4.11174	-2.932269	0	0
13.22633	-0.1979269	0.1894153	0	0	0.01551843	-0.01107676	0	0
13.24284	-0.1979269	0.1894153	0	0	0	0	0	0
13.25941	-0.1979016	0.1893972	0.00152733	-0.001090179	0.04616933	-0.03295479	0	0
13.27636	-0.1979016	0.1893972	0	0	-0.04556379	0.03252256	0	0
13.29254	-0.1979016	0.1893972	0	0	0	0	0	0
13.30911	-0.1978763	0.1893792	0.001526431	-0.00108928	0.04661517	-0.03326515	0	0
13.32568	-0.1979016	0.1893611	-0.001526431	-0.001090179	-0.09214084	-2.714977E-05	0	0
13.34224	-0.197851	0.189325	0.003053761	-0.002178559	0.1382384	-0.03284926	0	0
13.35892	-0.1978257	0.1893069	0.001517025	-0.001082823	-0.04622445	0.03295932	0	0
13.37543	-0.1978004	0.1892889	0.001532447	-0.001092929	0.0004646543	-0.0003044672	0	0
13.39194	-0.1978004	0.1892889	0	0	-0.04640426	0.03309515	0	0
13.40851	-0.1978004	0.1892889	0	0	0	0	0	0
13.42508	-0.1978257	0.1893069	-0.00152733	0.00108928	-0.04610022	0.03287831	0	0
13.44198	-0.1978257	0.1893069	0	0	0.0456326	-0.0325448	0	0
13.45821	-0.1978004	0.1892889	0.001559103	-0.00111194	0.04705652	-0.03356034	0	0
13.49152	-0.1978004	0.1892889	0	0	-0.03147429	0.02244721	0	0
13.50802	-0.1978257	0.1893069	-0.001532624	0.001093055	-0.03076561	0.02194179	0	0
13.52457	-0.1978257	0.1893069	0	0	0.04637079	-0.03307128	0	0
13.54113	-0.197851	0.189325	-0.001527242	0.001090116	-0.04612678	0.03292441	0	0
13.55806	-0.197851	0.189325	0	0	0.0455936	-0.03254384	0	0
13.57427	-0.197851	0.189325	0	0	0	0	0	0
13.59108	-0.1978763	0.1893431	-0.001504551	0.001073034	-0.04556481	0.03249646	0	0
13.6074	-0.1978763	0.1893431	0	0	0.04540874	-0.03238515	0	0
13.62411	-0.1978763	0.1893792	0	0.002160923	0	0.06543338	0	0
13.64053	-0.1979016	0.1893972	-0.001539547	0.00109864	-0.04646497	-0.0320607	0	0
13.6571	-0.1980028	0.1894694	-0.006107366	0.004358165	-0.1384428	0.09879063	0	0
13.67367	-0.1983063	0.1897221	-0.01832557	0.01525527	-0.3687568	0.3288847	0	0
13.69023	-0.2014156	0.191978	-0.1876862	0.1361752	-5.111902	3.649792	0	0
13.7068	-0.2035872	0.1935297	-0.1310859	0.09366275	1.708297	-1.283103	0	0
13.72368	-0.2047984	0.1943956	-0.071759	0.05129968	1.773847	-1.266635	0	0
13.73993	-0.2047984	0.1943956	0	0	2.165753	-1.548272	0	0
13.7565	-0.2047984	0.1943956	0	0	0	0	0	0
13.77321	-0.2047984	0.1943956	0	0	0	0	0	0
13.78963	-0.2047984	0.1943956	0	0	0	0	0	0
13.8062	-0.2047984	0.1943956	0	0	0	0	0	0
13.82277	-0.2047984	0.1943956	0	0	0	0	0	0
13.83933	-0.2047984	0.1943956	0	0	0	0	0	0
13.8559	-0.2047984	0.1943956	0	0	0	0	0	0
13.87279	-0.2047984	0.1943956	0	0	0	0	0	0
13.88903	-0.2047984	0.1943956	0	0	0	0	0	0
13.9056	-0.2047984	0.1943956	0	0	0	0	0	0
13.97187	-0.2047984	0.1943956	0	0	0	0	0	0
13.98843	-0.2047984	0.1944316	0	0.00217766	0	0.02628997	0	0
14.005	-0.2051011	0.1951171	-0.01827219	0.04137553	-0.5514876	1.183062	0	0
14.02156	-0.2077734	0.1980384	-0.1613087	0.1763436	-4.3171	4.07358	0	0
14.0384	-0.2133854	0.2028868	-0.3332734	0.2879276	-5.147827	3.340306	0	0
14.0547	-0.2162491	0.2049406	-0.1757451	0.1260425	4.754351	-4.885842	0	0
14.07126	-0.2187581	0.2067778	-0.1514539	0.1108969	0.7392162	-0.4609019	0	0
14.08783	-0.2214898	0.2088846	-0.1648932	0.127175	-0.4056208	0.4913002	0	0
14.1044	-0.2228418	0.2102889	-0.08161501	0.08476502	2.513485	-1.280008	0	0
14.12096	-0.2206381	0.2125927	0.1330279	0.1390698	6.47831	1.639015	0	0
14.17066	-0.1954464	0.2306066	0.5068859	0.3624603	5.641853	3.371163	0	0
14.18723	-0.1917973	0.2331925	0.2202764	0.1560962	-4.325194	-3.114219	0	0
14.2038	-0.1886508	0.2353828	0.1899231	0.1322081	-0.9160923	-0.7209654	0	0
14.22036	-0.1886508	0.2353828	0	0	-5.732055	-3.990163	0	0
14.25349	-0.1886508	0.2353828	0	0	0	0	0	0
14.27006	-0.1886508	0.2353828	0	0	0	0	0	0
14.28663	-0.1886254	0.2353649	0.001532727	-0.001082983	0.04625912	-0.03268544	0	0
14.30319	-0.1886254	0.235329	0	-0.002167765	-0.04626045	-0.03274067	0	0
14.31976	-0.1886	0.235311	0.001532727	-0.001083883	0.04626045	0.03271352	0	0
14.33633	-0.1886	0.235311	0	0	-0.04626045	0.03271352	0	0
14.35289	-0.1886	0.235311	0	0	0	0	0	0
14.36946	-0.1886	0.235311	0	0	0	0	0	0
14.38603	-0.1886	0.235311	0	0	0	0	0	0
14.40259	-0.1886	0.235311	0	0	0	0	0	0
14.41916	-0.1886	0.235311	0	0	0	0	0	0
14.43573	-0.1886	0.235311	0	0	0	0	0	0
14.45229	-0.1886	0.235311	0	0	0	0	0	0
14.4692	-0.1886254	0.235329	-0.001502031	0.001062176	-0.04487545	0.03173411	0	0
14.48571	-0.1886254	0.235329	0	0	0.04494844	-0.03178573	0	0
14.50222	-0.1886254	0.235329	0	0	0	0	0	0
14.51856	-0.1886254	0.235329	0	0	0	0	0	0
14.53513	-0.1886254	0.235329	0	0	0	0	0	0
14.55169	-0.1886	0.235311	0.001532727	-0.001083883	0.04626045	-0.03271352	0	0
14.56826	-0.1886	0.235311	0	0	-0.04626045	0.03271352	0	0
14.58483	-0.1886	0.235311	0	0	0	0	0	0
14.60139	-0.1886	0.235311	0	0	0	0	0	0
14.61796	-0.1886	0.235311	0	0	0	0	0	0
14.63453	-0.1886	0.235311	0	0	0	0	0	0
14.6511	-0.1886	0.235311	0	0	0	0	0	0
14.66766	-0.1886	0.235311	0	0	0	0	0	0
14.68423	-0.1886	0.235311	0	0	0	0	0	0
14.70079	-0.1886	0.235311	0	0	0	0	0	0
14.73393	-0.1886	0.235311	0	0	0	0	0	0
14.76741	-0.1886	0.235311	0	0	0	0	0	0
14.78362	-0.1886254	0.2352931	-0.001565992	-0.001106487	-0.03150964	-0.02226385	0	0
14.80019	-0.1886254	0.2352931	0	0	0.04777046	0.03375331	0	0
14.81676	-0.1886254	0.2352931	0	0	0	0	0	0
14.83333	-0.1886254	0.2352931	0	0	0	0	0	0
14.84989	-0.1886254	0.2352572	0	-0.002167765	0	-0.06542517	0	0
14.86646	-0.1886254	0.2352572	0	0	0	0.06542517	0	0
14.88303	-0.1886	0.2352392	0.001532727	-0.001082983	0.04625912	-0.03268544	0	0
14.91655	-0.1886	0.2352392	0	0	-0.03059723	0.02161917	0	0
14.93302	-0.1886	0.2352392	0	0	0	0	0	0
14.9495	-0.1886254	0.2352213	-0.001541423	-0.001090032	-0.04678822	-0.03308674	0	0
14.96606	-0.1886254	0.2352213	0	0	0.04665587	0.03299315	0	0
14.98263	-0.1886254	0.2352213	0	0	0	0	0	0
14.9992	-0.1886	0.2352033	0.001532815	-0.001083945	0.04626178	-0.03271447	0	0
15.01576	-0.1886	0.2352033	0	0	-0.04626445	0.03271635	0	0
15.0326	-0.1886	0.2352033	0	0	0	0	0	0
15.06546	-0.1886	0.2352033	0	0	0	0	0	0
15.08203	-0.1886	0.2352033	0	0	0	0	0	0
15.09864	-0.1886254	0.2351854	-0.001528591	-0.001080958	-0.0460733	-0.03258118	0	0
15.11516	-0.1886	0.2351674	0.001536885	-0.001085921	0.09252159	-0.0001498033	0	0
15.13173	-0.1886	0.2351315	0	-0.002167765	-0.0464488	-0.03269623	0	0
15.14829	-0.1886254	0.2351135	-0.001532727	-0.001083883	-0.04626045	0.03271352	0	0
15.16518	-0.1886254	0.2351135	0	0	0.0458095	0.03239463	0	0
15.18143	-0.1886	0.2350956	0.001563417	-0.001104668	0.04718539	-0.03333991	0	0
15.19799	-0.1886	0.2350956	0	0	-0.04765449	0.03367136	0	0
15.21456	-0.1886	0.2350956	0	0	0	0	0	0
15.23112	-0.1886254	0.2350776	-0.001532727	-0.001083883	-0.04626045	-0.03271352	0	0
15.24769	-0.1886254	0.2350776	0	0	0.04626045	0.03271352	0	0
15.26426	-0.1886	0.2350597	0.001532639	-0.00108382	0.04625646	-0.0327107	0	0
15.29778	-0.1886	0.2350597	0	0	-0.03060013	0.02163918	0	0
15.31396	-0.1886254	0.2350418	-0.001569315	-0.001108835	-0.0315765	-0.0223111	0	0
15.33052	-0.1886254	0.2350418	0	0	0.04792341	0.03386138	0	0
15.34709	-0.1886254	0.2350418	0	0	0	0	0	0
15.36383	-0.1886254	0.2350418	0	0	0	0	0	0
15.38034	-0.1886254	0.2350418	0	0	0	0	0	0
15.39679	-0.1886508	0.2350238	-0.001543568	-0.001091549	-0.04682757	-0.03311457	0	0
15.41336	-0.1886508	0.2350238	0	0	0.04674237	0.03305432	0	0
15.42992	-0.1886508	0.2350238	0	0	0	0	0	0
15.44649	-0.1886508	0.2350238	0	0	0	0	0	0
15.46306	-0.1886508	0.2350238	0	0	0	0	0	0
15.47962	-0.1886508	0.2350238	0	0	0	0	0	0
15.49619	-0.1886761	0.2350418	-0.001532727	0.001083883	-0.04626045	0.03271352	0	0
15.51293	-0.1886761	0.2350418	0	0	0.04601542	-0.03254025	0	0
15.52932	-0.1886761	0.2350418	0	0	0	0	0	0
15.54589	-0.1886761	0.2350418	0	0	0	0	0	0
15.56247	-0.1886761	0.2350418	0	0	0	0	0	0
15.59849	-0.1886761	0.2350418	0	0	0	0	0	0
15.61505	-0.1887015	0.2350597	-0.001533256	0.001083357	-0.02915734	0.02060179	0	0
15.63162	-0.1887015	0.2350597	0	0	0.04628443	-0.03270332	0	0
15.64819	-0.1887015	0.2350597	0	0	0	0	0	0
15.66504	-0.1887015	0.2350597	0	0	0	0	0	0
15.68132	-0.1887015	0.2350597	0	0	0	0	0	0
15.69789	-0.1886761	0.2350418	0.001532727	-0.001082983	0.04666746	-0.03297396	0	0
15.71445	-0.1886761	0.2350418	0	0	-0.04625912	0.03268544	0	0
15.73102	-0.1886761	0.2350418	0	0	0	0	0	0
15.7476	-0.1886761	0.2350418	0	0	0	0	0	0
15.76415	-0.1886761	0.2350418	0	0	0	0	0	0
15.78072	-0.1886761	0.2350418	0	0	0	0	0	0
15.79728	-0.1886761	0.2350418	0	0	0	0	0	0
15.81385	-0.1886508	0.2350238	0.001532551	-0.001083758	0.04625247	-0.03270788	0	0
15.83066	-0.1886508	0.2350238	0	0	-0.04592335	0.03247514	0	0
15.84717	-0.1886254	0.2350058	0.001537951	-0.001087577	0.04616564	-0.03264647	0	0
15.86355	-0.1886508	0.2350238	-0.001549677	0.001095869	-0.09386288	0.06637603	0	0
15.88012	-0.1886508	0.2350238	0	0	0.04702923	-0.03325718	0	0
15.92982	-0.1886508	0.2350238	0	0	0	0	0	0
15.94638	-0.1886254	0.2350058	0.001532727	-0.001083883	0.02312956	-0.01635629	0	0
15.96295	-0.1886	0.2349879	0.001532727	-0.001083883	0	0	0	0
15.97952	-0.1885746	0.2349699	0.001532727	-0.001082983	0	2.714977E-05	0	0
15.99608	-0.1885238	0.2348981	0.003065454	-0.004335531	0.04626045	-0.09816772	0	0
16.01278	-0.1884476	0.2348084	0.00456194	-0.005374915	0.04498794	-0.03124636	0	0
16.02929	-0.1883714	0.234575	0.004613318	-0.01413506	0.001547096	-0.2637819	0	0
16.0458	-0.1884984	0.2338389	-0.007688865	-0.04457917	-0.3725244	-0.921883	0	0
16.06235	-0.1883461	0.2335516	0.009207493	-0.01736221	0.5111099	0.8233052	0	0
16.07892	-0.1882699	0.2332464	0.004598815	-0.01842405	-0.1391783	-0.03206653	0	0
16.09549	-0.1882953	0.2322588	-0.001533538	-0.05961191	-0.1850748	-1.243052	0	0
16.11205	-0.1877619	0.2278942	0.03219171	-0.2634466	1.01783	-6.151742	0	0
16.12887	-0.1844072	0.2234377	0.1995312	-0.2650569	5.013089	-0.04824189	0	0
16.14538	-0.1803606	0.214716	0.245069	-0.5282052	1.366469	-7.896375	0	0
16.16189	-0.1791123	0.2070299	0.07559814	-0.4654886	-5.131775	1.899132	0	0
16.17832	-0.1791888	0.2016435	-0.004652673	-0.327843	-2.436138	4.178446	0	0
16.19491	-0.179469	0.1914186	-0.01688937	-0.6161817	-0.3705413	-8.731233	0	0
16.21145	-0.1796474	0.1850817	-0.01078307	-0.3831576	0.184299	7.033088	0	0
16.22802	-0.1825246	0.1814142	-0.1736703	-0.2213746	-4.920194	4.886841	0	0
16.24459	-0.1857293	0.1793537	-0.1934541	-0.1243847	-0.59711	2.927328	0	0
16.26115	-0.1883968	0.1774191	-0.1610161	-0.1167693	0.9790356	0.2298481	0	0
16.27772	-0.1882953	0.1774915	0.006130555	0.004365862	5.044497	3.655865	0	0
16.29429	-0.1882953	0.1774915	0	0	-0.1850205	-0.131762	0	0
16.32742	-0.1882445	0.1774191	0.001533177	-0.002183056	0.03084876	-0.04392487	0	0
16.34399	-0.1881683	0.1773649	0.004597916	-0.003274846	0.06166505	-0.0219677	0	0
16.36055	-0.186695	0.1762798	0.08894017	-0.06550086	2.545601	-1.878093	0	0
16.37712	-0.1840765	0.1744168	0.1580489	-0.1124547	2.085825	-1.41715	0	0
16.39405	-0.1773791	0.169621	0.3955142	-0.2832159	7.088375	-5.097248	0	0
16.41025	-0.1696431	0.163988	0.477556	-0.3477312	2.476168	-1.947189	0	0
16.42682	-0.1659594	0.1612331	0.2223531	-0.1662886	-7.788566	5.53747	0	0
16.44339	-0.1623479	0.1531603	0.2179864	-0.4872712	-0.1317894	-9.687273	0	0
16.45995	-0.1645256	0.1411119	-0.1314418	-0.7272452	-10.54576	-7.242429	0	0
16.47652	-0.1663177	0.131425	-0.1081742	-0.5847044	0.7022148	4.301888	0	0
16.49313	-0.1682623	0.1213914	-0.1170906	-0.6041646	-0.268771	-0.586601	0	0
16.59249	-0.1848649	0.06319629	-0.16709	-0.5856805	-0.4311388	0.1593862	0	0
16.60921	-0.1889046	0.05525193	-0.2415869	-0.4750921	-0.6417437	0.9526493	0	0
16.62563	-0.1924058	0.05150568	-0.2133198	-0.2282523	0.853101	7.44964	0	0
16.64223	-0.1960794	0.0425333	-0.2212049	-0.5402675	-0.2387971	-9.449273	0	0
16.65876	-0.1979775	0.03577606	-0.1148584	-0.408904	3.20973	3.964788	0	0
16.67532	-0.199065	0.02811033	-0.06566045	-0.4628109	1.48685	-1.629165	0	0
16.69189	-0.2011124	0.01810733	-0.1235798	-0.6037822	-1.748211	-4.255012	0	0
16.70846	-0.2025521	0.01235443	-0.08690169	-0.3472454	1.106947	7.742294	0	0
16.72529	-0.2038648	0.00612224	-0.07797718	-0.3702089	0.2671891	-0.6875	0	0
16.74159	-0.2065133	0.0004620552	-0.1624982	-0.347287	-2.550996	0.6918265	0	0
16.75831	-0.2089321	-0.004020238	-0.1446208	-0.2679909	0.541348	2.401175	0	0
16.77472	-0.2099644	-0.007999136	-0.06291869	-0.242512	2.465916	0.7689999	0	0
16.79134	-0.2092847	-0.00847089	0.04091271	-0.02839341	3.144317	6.484135	0	0
16.80785	-0.2091588	-0.00856525	0.007622149	-0.005712665	-1.004769	0.6845455	0	0
16.82442	-0.2091336	-0.008584121	0.001520047	-0.001139079	-0.1844379	0.138238	0	0
16.84099	-0.2091336	-0.008584121	0	0	-0.0458751	0.03437748	0	0
16.85755	-0.2091336	-0.008584121	0	0	0	0	0	0
16.87412	-0.2091336	-0.008584121	0	0	0	0	0	0
16.89069	-0.2091084	-0.008602994	0.001519872	-0.001139004	0.04586718	-0.03437324	0	0
16.90742	-0.2091084	-0.008602994	0	0	-0.04564647	0.03420784	0	0
16.92382	-0.2091084	-0.008602994	0	0	0	0	0	0
16.94039	-0.2090832	-0.008621866	0.001520047	-0.001139136	0.04610333	-0.03455022	0	0
16.95695	-0.209058	-0.008640739	0.001520047	-0.001139192	0	-1.696983E-06	0	0
16.97352	-0.209058	-0.008640739	0	0	-0.0458751	0.03438088	0	0
16.99009	-0.209058	-0.008640739	0	0	0	0	0	0
17.00666	-0.209058	-0.008640739	0	0	0	0	0	0
17.02322	-0.209058	-0.008640739	0	0	0	0	0	0
17.0568	-0.209058	-0.008640739	0	0	0	0	0	0
17.07336	-0.209058	-0.008640739	0	0	0	0	0	0
17.08993	-0.209058	-0.008640739	0	0	0	0	0	0
17.10656	-0.209058	-0.008640739	0	0	0	0	0	0
17.12306	-0.209058	-0.008640739	0	0	0	0	0	0
17.13963	-0.209058	-0.008640739	0	0	0	0	0	0
17.1562	-0.209058	-0.008640739	0	0	0	0	0	0
17.17276	-0.209058	-0.008640739	0	0	0	0	0	0
17.18933	-0.209058	-0.008640739	0	0	0	0	0	0
17.2059	-0.209058	-0.008640739	0	0	0	0	0	0
17.22265	-0.209058	-0.008640739	0	0	0	0	0	0
17.2556	-0.209058	-0.008640739	0	0	0	0	0	0
17.27217	-0.2090329	-0.008621866	0.001520047	0.001139192	0.03069767	0.02300623	0	0
17.28873	-0.2090329	-0.008621866	0	0	-0.0458751	-0.03438088	0	0
17.3053	0	0	12.6187	0.5204768	380.8551	15.70892	0	0
17.32222	-0.2090329	-0.008621866	-12.35412	-0.5095639	-745.7822	-30.76088	0	0
17.33843	-0.2090329	-0.008621866	0	0	372.8481	15.37867	0	0
17.35524	-0.2090329	-0.008621866	0	0	0	0	0	0
17.37156	-0.2090329	-0.008621866	0	0	0	0	0	0
17.38826	-0.2090329	-0.008621866	0	0	0	0	0	0
17.40477	-0.2090329	-0.008621866	0	0	0	0	0	0
17.42129	-0.2090329	-0.008621866	0	0	0	0	0	0
17.43783	-0.2090329	-0.008621866	0	0	0	0	0	0
17.4544	-0.2090329	-0.008621866	0	0	0	0	0	0
17.47132	-0.2090329	-0.008621866	0	0	0	0	0	0
17.48753	-0.2090329	-0.008621866	0	0	0	0	0	0
17.5041	-0.2090329	-0.008621866	0	0	0	0	0	0
17.52066	-0.2090329	-0.008621866	0	0	0	0	0	0
17.53737	-0.2090329	-0.008621866	0	0	0	0	0	0
17.5538	-0.2090329	-0.008621866	0	0	0	0	0	0
17.57036	-0.2090329	-0.008621866	0	0	0	0	0	0
17.58693	-0.2090077	-0.008640739	0.001520047	-0.001139192	0.0458751	-0.03438088	0	0
17.6035	-0.2090077	-0.008640739	0	0	-0.0458751	0.03438088	0	0
17.62007	-0.2090077	-0.008640739	0	0	0	0	0	0
17.63663	-0.2090077	-0.008640739	0	0	0	0	0	0
17.6532	-0.2090077	-0.008640739	0	0	0	0	0	0
17.66976	-0.2090077	-0.008640739	0	0	0	0	0	0
17.7029	-0.2090077	-0.008640739	0	0	0	0	0	0
17.7195	-0.2090077	-0.008640739	0	0	0	0	0	0
17.73603	-0.2090077	-0.008640739	0	0	0	0	0	0
17.7526	-0.2089825	-0.008621866	0.001519872	0.001139061	0.0459174	0.03441257	0	0
17.76917	-0.2089321	-0.008546378	0.003040093	0.004556486	0.04587774	0.1031322	0	0
17.78573	-0.208781	-0.008319922	0.009122229	0.01367047	0.1835698	0.2750764	0	0
17.85371	-0.2118013	-0.003944856	-0.04443188	0.06436192	-0.6334667	0.5996056	0	0
17.87028	-0.2161738	0.002757365	-0.2639206	0.4045469	-2.596171	4.023798	0	0
17.90341	-0.2196105	0.02336475	-0.1037225	0.621932	3.223192	4.373797	0	0
17.92014	-0.2181562	0.03478843	0.0869144	0.682697	3.822859	1.218526	0	0
17.93654	-0.2170021	0.04290525	0.07038338	0.4950044	-0.4989644	-5.665226	0	0
17.95316	-0.2136367	0.05886497	0.2024563	0.9601247	3.999782	14.08601	0	0
17.96968	-0.2099141	0.07036793	0.2254525	0.6966463	0.6940277	-7.951792	0	0
17.98624	-0.2036629	0.08412212	0.3773215	0.8302045	4.591079	4.037533	0	0
18.0032	-0.1981799	0.09373873	0.3233637	0.56714	-1.609547	-7.847151	0	0
18.01937	-0.1931916	0.1030782	0.3083667	0.5773581	-0.4526366	0.3084001	0	0
18.03622	-0.1886254	0.113588	0.2710344	0.6238135	-1.130465	1.406723	0	0
18.05251	-0.1847886	0.1243853	0.2355745	0.662949	-1.070183	1.181112	0	0
18.06925	-0.1804115	0.1398747	0.2614006	0.925036	0.7818653	7.934463	0	0
18.08564	-0.177991	0.1516716	0.1477046	0.7198511	-3.43155	-6.192847	0	0
18.10227	-0.1748538	0.1671402	0.1886839	0.9303678	1.241259	6.376529	0	0
18.11878	-0.172173	0.1775095	0.1623372	0.6279191	-0.7950081	-9.126344	0	0
18.13534	-0.1706145	0.180637	0.0941072	0.1888406	-2.062867	-13.2751	0	0
18.15191	-0.1654474	0.192808	0.3118866	0.7346421	6.57373	16.47517	0	0
18.16848	-0.1587322	0.2073001	0.4053272	0.874741	2.820043	4.22819	0	0
18.18505	-0.1537506	0.2172705	0.3006922	0.601817	-3.15789	-8.236861	0	0
18.20184	-0.1492245	0.22324	0.2694727	0.3554102	-0.935743	-7.385556	0	0
18.21818	-0.1426301	0.2278762	0.4036604	0.2837967	4.050027	-2.161424	0	0
18.23486	-0.1367465	0.2319715	0.3526217	0.2454365	-1.545602	-1.16166	0	0
18.25131	-0.1290421	0.2373214	0.4684347	0.3252828	3.495446	2.409907	0	0
18.26788	-0.1240181	0.2408028	0.3032461	0.2101352	-5.003547	-3.487811	0	0
18.28444	-0.1200515	0.2435475	0.2394271	0.1656752	-1.926061	-1.341806	0	0
18.30101	-0.1185727	0.2446058	0.08925777	0.06387704	-4.532121	-3.072274	0	0
18.31758	-0.1185727	0.2446058	0	0	-2.693805	-1.927813	0	0
18.33415	-0.1186506	0.2446955	-0.004698653	0.005412805	-0.1418056	0.1633588	0	0
18.35071	-0.1189101	0.2448748	-0.01566143	0.01082651	-0.3308572	0.1633859	0	0
18.36728	-0.1227741	0.2475469	-0.2332354	0.161285	-6.566396	4.540847	0	0
18.40072	-0.133982	0.255416	-0.3351281	0.2352951	-2.037419	1.479885	0	0
18.41729	-0.1407474	0.2602174	-0.4083628	0.2898126	-1.46438	1.090118	0	0
18.51669	-0.1547784	0.2945523	-0.1411546	0.345417	2.30414	0.4794774	0	0
18.53326	-0.1497391	0.3025233	0.3041685	0.4811298	3.840029	1.170254	0	0
18.55009	-0.1464698	0.3048641	0.1942069	0.1390494	-3.292117	-10.24147	0	0
18.56639	-0.1435325	0.306901	0.1802251	0.1249744	-0.4219969	-0.4248087	0	0
18.58296	-0.1399476	0.3093486	0.2163845	0.1477413	1.100223	0.6927299	0	0
18.59963	-0.1399476	0.3093486	0	0	-6.510633	-4.44528	0	0
18.61614	-0.1399476	0.3093486	0	0	0	0	0	0
18.63266	-0.1399476	0.3093486	0	0	0	0	0	0
18.64923	-0.1399734	0.3093308	-0.001557464	-0.001079075	-0.04706397	-0.03260783	0	0
18.6658	-0.1399734	0.309295	0	-0.002157344	0.04700437	-0.03254224	0	0
18.68236	-0.1399734	0.3092236	0	-0.004313694	0	-0.06508628	0	0
18.69893	-0.1399218	0.3090807	0.003114388	-0.008624597	0.093987	-0.1300958	0	0
18.71571	-0.1398702	0.3089735	0.003076333	-0.006388897	-0.001141145	0.06704136	0	0
18.73206	-0.1395605	0.3086162	0.01893754	-0.02185094	0.4787474	-0.4666992	0	0
18.74863	-0.1395089	0.308366	0.003115646	-0.01509793	-0.4806322	0.2051407	0	0
18.7652	-0.1395347	0.3083481	-0.001557823	-0.001079323	-0.1410456	0.4230824	0	0
18.78176	-0.1395089	0.3082946	0.001557823	-0.003234371	0.09403038	-0.06503949	0	0
18.79833	-0.1394315	0.3082052	0.004672569	-0.005393018	0.09400323	-0.06514807	0	0
18.8149	-0.1394057	0.3081516	0.001557644	-0.003233999	-0.09400323	0.06515556	0	0
18.83147	-0.1393282	0.3080623	0.004674007	-0.005391839	0.09405202	-0.06512375	0	0
18.84803	-0.1393282	0.3080266	0	-0.002156847	-0.1410699	0.09763788	0	0
18.8646	-0.1393024	0.307973	0.001557823	-0.00323617	0.04701519	-0.03257403	0	0
18.88117	-0.1392766	0.3079194	0.001558002	-0.003234744	5.414494E-06	4.304892E-05	0	0
18.89773	-0.1392766	0.3079194	0	0	-0.04702331	0.09763038	0	0
18.91436	-0.1392766	0.3078837	0	-0.002149177	0	-0.06474674	0	0
18.93087	-0.1392766	0.3078837	0	0	0	0.06486602	0	0
18.94743	-0.1392766	0.3078837	0	0	0	0	0	0
18.964	-0.1392766	0.3078479	0	-0.002156847	0	-0.06509378	0	0
18.98057	-0.1392766	0.3078479	0	0	0	0.06509378	0	0
18.99713	-0.1392508	0.3077943	0.001558002	-0.003236543	0.04702331	-0.09768468	0	0
19.0137	-0.1392766	0.3077765	-0.001557823	-0.001077524	-0.09404121	0.06516307	0	0
19.03027	-0.1393024	0.3077228	-0.001557823	-0.00323617	0	-0.06514806	0	0
19.04683	-0.139354	0.3076871	-0.003115646	-0.002156847	-0.04701519	0.03257403	0	0
19.0634	-0.139354	0.3076514	0	-0.002156847	0.09403038	0	0	0
19.07997	-0.1395347	0.3075263	-0.01090386	-0.007548066	-0.3290792	-0.1627073	0	0
19.1131	-0.1396637	0.3074012	-0.003894332	-0.00377515	0.1410374	0.07591414	0	0
19.12967	-0.1396637	0.3074012	0	0	0.07835712	0.07595908	0	0
19.14624	-0.1396895	0.3073834	-0.001557823	-0.001077524	-0.04701519	-0.03251974	0	0
19.1628	-0.1396637	0.3073655	0.001557823	-0.001079323	0.09403038	-5.428939E-05	0	0
19.17937	-0.1396895	0.3073477	-0.001557823	-0.001077524	-0.09403038	5.428939E-05	0	0
19.19594	-0.1397153	0.3073298	-0.001557823	-0.001079323	0	-5.428939E-05	0	0
19.21251	-0.1396895	0.3073119	0.001557823	-0.001077524	0.09403038	5.428939E-05	0	0
19.22907	-0.1397153	0.307294	-0.001557823	-0.001079323	-0.09403038	-5.428939E-05	0	0
19.27877	-0.1397411	0.3072762	-0.0005192942	-0.0003591885	0.01567188	0.01086716	0	0
19.32847	-0.1397411	0.3072762	0	0	0.005224211	0.003613513	0	0
19.34504	-0.1397411	0.3072762	0	0	0	0	0	0
19.36168	-0.1397411	0.3072762	0	0	0	0	0	0
19.37819	-0.1397411	0.3072762	0	0	0	0	0	0
19.39474	-0.1397411	0.3072762	0	0	0	0	0	0
19.41131	-0.1397411	0.3072762	0	0	0	0	0	0
19.42788	-0.1397411	0.3072762	0	0	0	0	0	0
19.44444	-0.1397411	0.3072762	0	0	0	0	0	0
19.46125	-0.1397411	0.3072762	0	0	0	0	0	0
19.47758	-0.1397411	0.3072762	0	0	0	0	0	0
19.49414	-0.1397411	0.3072762	0	0	0	0	0	0
19.51071	-0.1397669	0.307294	-0.001556923	0.001077524	-0.04698804	0.03251974	0	0
19.5273	-0.1397927	0.3073119	-0.001555674	0.001077834	3.769406E-05	9.342761E-06	0	0
19.54384	-0.1397927	0.3073119	0	0	0.04695033	-0.03252909	0	0
19.56041	-0.1397927	0.3073119	0	0	0	0	0	0
19.57698	-0.1398185	0.3073298	-0.001557823	0.001077524	-0.04701519	0.03251974	0	0
19.59355	-0.1398443	0.3073477	-0.001556923	0.001079323	2.714469E-05	5.428939E-05	0	0
19.61011	-0.1399218	0.307437	-0.004673469	0.005391219	-0.09405752	0.1301333	0	0
19.62668	-0.1400766	0.3075799	-0.00934424	0.008627389	-0.1409642	0.09766781	0	0
19.64325	-0.1402572	0.3077407	-0.01090206	0.009706712	-0.04701517	0.03257405	0	0
19.65982	-0.1404378	0.3078658	-0.01089991	0.007547197	6.500861E-05	-0.06517055	0	0
19.67641	-0.1404378	0.3078658	0	0	0.328695	-0.2275914	0	0
19.69295	-0.1404378	0.3078658	0	0	0	0	0	0
19.70951	-0.1404636	0.3079194	-0.001557823	0.00323617	-0.04705582	0.09775221	0	0
19.72608	-0.1404894	0.307973	-0.001556923	0.003234371	2.714469E-05	-5.428939E-05	0	0
19.74265	-0.1405926	0.3080802	-0.006229493	0.006470541	-0.1410184	0.09766781	0	0
19.77661	-0.1413923	0.3086697	-0.02354852	0.01736179	-0.3427767	0.2155588	0	0
19.79317	-0.143584	0.3101883	-0.1322935	0.09165971	-2.152273	1.470499	0	0
19.81001	-0.1471909	0.3126893	-0.2143072	0.1486004	-2.455671	1.70493	0	0
19.82631	-0.149276	0.3141362	-0.1278872	0.088747	2.608162	-1.80638	0	0
19.84288	-0.1503823	0.3149043	-0.06678042	0.04636232	1.858973	-1.289415	0	0
19.85954	-0.1514112	0.3156188	-0.06173905	0.04287441	0.1517034	-0.1049571	0	0
19.87605	-0.1513855	0.315601	0.001557627	-0.001081134	1.907881	-1.324903	0	0
19.89258	-0.1513855	0.315601	0	0	-0.04714768	0.03272475	0	0
19.90914	-0.1513855	0.315601	0	0	0	0	0	0
19.92571	-0.1514112	0.3155831	-0.001552426	-0.001077524	-0.04685502	-0.03252162	0	0
19.94228	-0.1514112	0.3155831	0	0	0.04685232	0.03251974	0	0
19.95911	-0.1514112	0.3155831	0	0	0	0	0	0
19.97541	-0.1513855	0.3155652	0.001578043	-0.001097133	0.04762817	-0.03311344	0	0
20.04168	-0.1513598	0.3155116	0.0003881177	-0.0008086161	-0.01441192	0.003494406	0	0
20.05824	-0.1513598	0.3155116	0	0	-0.004685583	0.009762082	0	0
20.07481	-0.151334	0.3154581	0.001552426	-0.003234371	0.04685502	-0.09761914	0	0
20.09138	-0.1513083	0.3154402	0.001552426	-0.001077524	0	0.06509378	0	0
20.10794	-0.1512569	0.3153687	0.003104853	-0.004313694	0.04685232	-0.09766781	0	0
20.12451	-0.1512569	0.315333	0	-0.002155048	-0.09370464	0.06514806	0	0
20.14108	-0.151154	0.3152616	0.006208806	-0.004313694	0.1873821	-0.06514806	0	0
20.15777	-0.1511283	0.3152437	0.001541248	-0.001069765	-0.1403582	0.09754822	0	0
20.17427	-0.1511283	0.3152437	0	0	-0.04644009	0.03223362	0	0
20.19078	-0.1511283	0.3152437	0	0	0	0	0	0
20.20735	-0.1511283	0.315208	0	-0.002156847	0	-0.06519886	0	0
20.2243	-0.1511283	0.315208	0	0	0	0.06433825	0	0
20.24048	-0.1511026	0.3151544	0.001589764	-0.003312161	0.04797916	-0.09996121	0	0
20.25733	-0.1511026	0.3151544	0	0	-0.04813989	0.1002961	0	0
20.27361	-0.1510769	0.3151366	0.001579151	-0.001096074	0.04766163	-0.03308148	0	0
20.29035	-0.1510769	0.3151008	0	-0.002134972	-0.04781854	-0.03145903	0	0
20.30675	-0.1511026	0.3150829	-0.001568498	-0.001090497	-0.04733736	0.03152231	0	0
20.32338	-0.1511283	0.3150294	-0.001546905	-0.003222869	0.0006538383	-0.06457071	0	0
20.33988	-0.1512312	0.3149579	-0.006231044	-0.00432734	-0.1413676	-0.03333299	0	0
20.35645	-0.1513855	0.3148507	-0.00931563	-0.006469488	-0.09326479	-0.06476947	0	0
20.37302	-0.1518226	0.3145114	-0.02638675	-0.02048555	-0.5152371	-0.42303	0	0
20.40643	-0.1536221	0.3132609	-0.05384962	-0.03741974	-0.5494334	-0.3387922	0	0
20.42298	-0.1537763	0.313118	-0.009317016	-0.008634537	0.8912436	0.5760863	0	0
20.43955	-0.1537506	0.3131002	0.001551527	-0.001077524	0.3281833	0.2281893	0	0
20.45612	-0.1537506	0.3131002	0	0	-0.04682517	0.03251974	0	0
20.47298	-0.1537249	0.3130823	0.00152327	-0.001058513	0.04556321	-0.03166167	0	0
20.48925	-0.1537249	0.3130823	0	0	-0.04597237	0.031946	0	0
20.50601	-0.1536992	0.3130644	0.001534217	-0.001067281	0.04645787	-0.03231852	0	0
20.52252	-0.1536735	0.3130466	0.001556724	-0.001081134	0.0006765835	-0.0004164081	0	0
20.53903	-0.1535964	0.3129573	0.00466927	-0.005409278	0.09425151	-0.1310612	0	0
20.55552	-0.1532366	0.3127072	0.02182168	-0.01516773	0.5197551	-0.2957021	0	0
20.57209	-0.1530567	0.3125107	0.01085979	-0.01185996	-0.3316132	0.1000647	0	0
20.58907	-0.1530567	0.3124749	0	-0.002104513	-0.3237239	0.2908042	0	0
20.60522	-0.1530567	0.3123677	0	-0.006636336	0	-0.1367785	0	0
20.62179	-0.1529796	0.3122427	0.004654581	-0.007548066	0.1422524	-0.02786414	0	0
20.63835	-0.152851	0.3121177	0.007757634	-0.007546267	0.09365035	5.428939E-05	0	0
20.65492	-0.1527996	0.3120462	0.003102697	-0.004313198	-0.1404782	0.0975686	0	0
20.67149	-0.1523626	0.3115639	0.02637956	-0.02911294	0.7024565	-0.7484146	0	0
20.68814	-0.1496877	0.3096345	0.1606799	-0.1158985	4.043417	-2.612877	0	0
20.70465	-0.1444346	0.3058826	0.3181421	-0.227224	4.748666	-3.357296	0	0
20.72119	-0.1363849	0.3002359	0.4867203	-0.3414218	5.100618	-3.45525	0	0
20.73775	-0.1308015	0.296304	0.3370114	-0.2373305	-4.522127	3.144197	0	0
20.75432	-0.1275149	0.2939624	0.1983832	-0.1413392	-4.183809	2.897026	0	0
20.7712	-0.1234739	0.2910664	0.2394459	-0.1716048	1.227825	-0.9049801	0	0
20.78746	-0.1211408	0.2894215	0.143507	-0.1011702	-2.89544	2.12572	0	0
20.80402	-0.1188582	0.2875262	0.1377778	-0.114401	-0.1745352	-0.4030658	0	0
20.82073	-0.1185208	0.2869361	0.02018578	-0.03531275	-3.533679	2.376629	0	0
20.83716	-0.1262719	0.2815887	-0.4719323	-0.325581	-14.85215	-8.760314	0	0
20.85376	-0.1369789	0.2741462	-0.644937	-0.448305	-5.238481	-3.71601	0	0
20.87029	-0.1419855	0.2706742	-0.3028595	-0.2100298	10.32451	7.191575	0	0
20.88686	-0.1493017	0.26559	-0.4416086	-0.3068803	-4.192043	-2.926156	0	0
20.90343	-0.1578341	0.2596084	-0.5150143	-0.3610533	-2.215387	-1.634945	0	0
20.91999	-0.162553	0.2563119	-0.2848333	-0.198975	6.946875	4.891534	0	0
20.93656	-0.1667016	0.2534089	-0.2504129	-0.1752263	1.038812	0.7167371	0	0
20.95313	-0.1682111	0.2523514	-0.09111375	-0.06382937	4.807657	3.361966	0	0
20.96984	-0.1682111	0.2523514	0	0	2.737527	1.917763	0	0
20.98635	-0.1682111	0.2523514	0	0	0	0	0	0
21.00283	-0.1682111	0.2523514	0	0	0	0	0	0
21.03628	-0.1682111	0.2523514	0	0	0	0	0	0
21.05285	-0.1682111	0.2523514	0	0	0	0	0	0
21.06942	-0.1681855	0.2523693	0.001544331	0.001082921	0.04660802	0.03268262	0	0
21.08598	-0.1681855	0.2523693	0	0	-0.04660802	-0.03268262	0	0
21.10255	-0.1681855	0.2523693	0	0	0	0	0	0
21.11912	-0.1681855	0.2523693	0	0	0	0	0	0
21.16899	-0.1681855	0.2523693	0	0	0	0	0	0
21.18538	-0.1681855	0.2523693	0	0	0	0	0	0
21.20201	-0.1681855	0.2523693	0	0	0	0	0	0
21.21852	-0.1681855	0.2523693	0	0	0	0	0	0
21.23508	-0.16816	0.2523156	0.001543787	-0.003245912	0.04667489	-0.09813694	0	0
21.25165	-0.1681088	0.2522797	0.003088119	-0.002164292	0.04661607	0.032649	0	0
21.26822	-0.1680321	0.2522259	0.004632095	-0.003246963	0.04659997	-0.03267697	0	0
21.28507	-0.1680065	0.2521722	0.001518458	-0.003190797	-0.09317592	0.001680794	0	0
21.30135	-0.1679297	0.2520826	0.004712389	-0.005502972	0.096393	-0.06978158	0	0
21.31809	-0.1678786	0.2517599	0.003055749	-0.01927267	-0.05016207	-0.4169384	0	0
21.3346	-0.1690806	0.2499135	-0.07280806	-0.1118336	-2.281563	-2.783718	0	0
21.35112	-0.1687994	0.2423636	0.01703356	-0.4571892	2.720508	-10.45777	0	0
21.36763	-0.1669831	0.238147	0.1099959	-0.2553678	2.814844	6.111033	0	0
21.38419	-0.1636291	0.2301216	0.2025428	-0.4846351	2.798387	-6.93247	0	0
21.40075	-0.1590914	0.2267982	0.2738935	-0.2006003	2.153865	8.574162	0	0
21.41732	-0.1535707	0.2229344	0.3332311	-0.2332201	1.790812	-0.984469	0	0
21.43418	-0.1507425	0.220957	0.1678149	-0.1173343	-4.949533	3.467502	0	0
21.45045	-0.1476029	0.2187632	0.1928594	-0.1347549	0.7558867	-0.5257849	0	0
21.46702	-0.1457486	0.2174684	0.1119369	-0.07816908	-2.463803	1.722837	0	0
21.48371	-0.1457744	0.2174863	-0.00154375	0.001077679	-3.412477	2.38303	0	0
21.50022	-0.1457744	0.2174863	0	0	0.04649679	-0.03245901	0	0
21.51673	-0.1457744	0.2174863	0	0	0	0	0	0
21.53374	-0.1457744	0.2174863	0	0	0	0	0	0
21.54985	-0.1457744	0.2174863	0	0	0	0	0	0
21.56642	-0.1457744	0.2174863	0	0	0	0	0	0
21.58328	-0.1457744	0.2174863	0	0	0	0	0	0
21.59955	-0.1457744	0.2174863	0	0	0	0	0	0
21.6163	-0.1457744	0.2174863	0	0	0	0	0	0
21.63269	-0.1458001	0.2175043	-0.001571595	0.001097752	-0.04743083	0.03313021	0	0
21.64926	-0.1458259	0.2175223	-0.001554946	0.001085494	0.0005052384	-0.0003719693	0	0
21.66584	-0.1458259	0.2175583	0	0.002168492	0.04689596	0.03266238	0	0
21.68239	-0.1458516	0.2175763	-0.001557276	0.001087121	-0.04700139	-0.03263772	0	0
21.71581	-0.1458516	0.2175763	0	0	0.03116859	-0.02175852	0	0
21.7324	-0.1458516	0.2175763	0	0	0	0	0	0
21.74894	-0.1458516	0.2175763	0	0	0	0	0	0
21.76551	-0.1458516	0.2175763	0	0	0	0	0	0
21.78208	-0.1458516	0.2175763	0	0	0	0	0	0
21.79864	-0.1458516	0.2175763	0	0	0	0	0	0
21.81546	-0.1458516	0.2175763	0	0	0	0	0	0
21.83196	-0.1458516	0.2175763	0	0	0	0	0	0
21.84834	-0.1460062	0.2178281	-0.009433207	0.01536852	-0.2868746	0.4673743	0	0
21.86491	-0.1462123	0.2182597	-0.0124383	0.02605306	-0.09119783	0.3242518	0	0
21.88148	-0.1465213	0.2194106	-0.0186552	0.06947063	-0.1876264	1.310345	0	0
21.89804	-0.1471394	0.2201299	-0.0373068	0.04341487	-0.5629064	-0.7863644	0	0
21.91461	-0.1492245	0.2218379	-0.1258572	0.1030942	-2.672455	1.801127	0	0
21.93118	-0.151334	0.2240308	-0.1273313	0.1323673	-0.04449059	0.8834621	0	0
21.94804	-0.1570383	0.2283074	-0.3382374	0.2535785	-6.308508	3.625603	0	0
21.96431	-0.1600149	0.2305347	-0.1829723	0.136918	4.686182	-3.521023	0	0
21.98088	-0.1651658	0.2342159	-0.3109071	0.2221966	-3.896294	2.597187	0	0
21.99744	-0.1660106	0.2348084	-0.05099939	0.03576479	7.844482	-5.626848	0	0
22.0306	-0.1663945	0.234934	-0.01157898	0.003789854	0.7928054	-0.6430655	0	0
22.04715	-0.1662665	0.2347006	0.007735041	-0.01410645	0.388599	-0.3600744	0	0
22.06371	-0.1660618	0.2342698	0.01236057	-0.02601108	0.1397033	-0.3595515	0	0
22.08028	-0.1652682	0.2320972	0.04790216	-0.1311387	1.072709	-3.172939	0	0
22.09685	-0.1595019	0.227984	0.3480529	-0.2482704	9.058567	-3.535043	0	0
22.11341	-0.1542902	0.2242285	0.3145768	-0.2266812	-1.01031	0.6515617	0	0
22.12998	-0.1397669	0.2140503	0.876628	-0.6143597	16.96274	-11.70016	0	0
22.14655	-0.1347573	0.2105589	0.302384	-0.2107432	-17.33072	12.18117	0	0
22.16311	-0.1285503	0.2062375	0.374651	-0.2608373	2.181021	-1.511843	0	0
22.17968	-0.1217112	0.2014092	0.4128105	-0.291437	1.151655	-0.9235003	0	0
22.19625	-0.1171194	0.1981106	0.2771603	-0.1991072	-4.093932	2.786518	0	0
22.21282	-0.1132242	0.195081	0.2351166	-0.1828643	-1.26888	0.4902119	0	0
22.22939	-0.1108594	0.1932591	0.1427067	-0.1099469	-2.788614	2.200398	0	0
22.24595	-0.1105995	0.1927178	0.01569427	-0.03267863	-3.833243	2.331961	0	0
22.26252	-0.1106774	0.1926637	-0.004707198	-0.003266751	-0.6157885	0.8877546	0	0
22.27909	-0.1110673	0.192393	-0.02353509	-0.01633645	-0.5682269	-0.3944444	0	0
22.29565	-0.1169896	0.1883141	-0.3574709	-0.2462062	-10.0782	-6.937482	0	0
22.32932	-0.1360491	0.1750137	-0.5660905	-0.3950376	-4.152811	-2.962659	0	0
22.34563	-0.1409022	0.1716121	-0.2975584	-0.2085639	5.372978	3.731096	0	0
22.3622	-0.151154	0.1643323	-0.618802	-0.4394104	-9.771084	-7.021527	0	0
22.37877	-0.1591684	0.1586764	-0.483749	-0.3413917	4.075908	2.95821	0	0
22.39533	-0.167546	0.1527065	-0.5056736	-0.3603437	-0.6616871	-0.5719728	0	0
22.4119	-0.173118	0.148711	-0.3363261	-0.2411657	5.11092	3.596798	0	0
22.42847	-0.1866696	0.1390012	-0.8179749	-0.5860868	-14.53619	-10.40974	0	0
22.44503	-0.1943826	0.1334294	-0.4655606	-0.3363171	10.63588	7.538066	0	0
22.4616	-0.2016935	0.1281617	-0.441283	-0.3179587	0.7326993	0.554057	0	0
22.47817	-0.2103672	0.121921	-0.5235454	-0.3766887	-2.482685	-1.772475	0	0
22.49474	-0.214265	0.1190901	-0.2352726	-0.1708744	8.70009	6.211488	0	0
22.5113	-0.2192847	0.1155446	-0.3030233	-0.214031	-2.044838	-1.302545	0	0
22.52797	-0.2219155	0.1136977	-0.1578721	-0.1108258	4.368102	3.1058	0	0
22.54448	-0.2219155	0.1138074	0	0.006645633	4.758562	3.540811	0	0
22.561	-0.2219656	0.113844	-0.003029778	0.002213271	-0.09170812	-0.1341628	0	0
22.57757	-0.2219656	0.113844	0	0	0.09155484	-0.06688135	0	0
22.66057	-0.2219656	0.113844	0	0	0	0	0	0
22.67697	-0.2219405	0.1138257	0.001525808	-0.001114385	0.01534966	-0.01121073	0	0
22.69359	-0.2219656	0.113844	-0.001506716	0.001100441	-0.09183364	0.06707135	0	0
22.71011	-0.2219656	0.113844	0	0	0.04547539	-0.03321327	0	0
22.72668	-0.2219656	0.113844	0	0	0	0	0	0
22.74324	-0.2219656	0.113844	0	0	0	0	0	0
22.75981	-0.2219656	0.113844	0	0	0	0	0	0
22.77637	-0.2219656	0.113844	0	0	0	0	0	0
22.79316	-0.2219656	0.113844	0	0	0	0	0	0
22.80951	-0.2219656	0.113844	0	0	0	0	0	0
22.82619	-0.2219656	0.113844	0	0	0	0	0	0
22.85921	-0.2219656	0.113844	0	0	0	0	0	0
22.87578	-0.2219405	0.1138257	0.001511052	-0.001103608	0.03047142	-0.02225502	0	0
22.89234	-0.2219405	0.1138257	0	0	-0.04560627	0.03330887	0	0
22.90891	-0.2219405	0.1138257	0	0	0	0	0	0
22.92547	-0.2219405	0.1138257	0	0	0	0	0	0
22.94204	-0.2219405	0.1138257	0	0	0	0	0	0
22.95861	-0.2219405	0.1138257	0	0	0	0	0	0
22.97518	-0.2219405	0.1138257	0	0	0	0	0	0
23.00831	-0.2219405	0.1138257	0	0	0	0	0	0
23.02488	-0.2219405	0.1138257	0	0	0	0	0	0
23.04144	-0.2219405	0.1138257	0	0	0	0	0	0
23.05835	-0.2219155	0.1138074	0.001480876	-0.001082009	0.04424214	-0.03232573	0	0
23.07458	-0.2219155	0.1138074	0	0	-0.04469291	0.03265509	0	0
23.09137	-0.2218905	0.1137892	0.001491348	-0.001089012	0.04515715	-0.03297466	0	0
23.10771	-0.2218654	0.1137709	0.001532399	-0.001119199	0.001238995	-0.0009110756	0	0
23.1244	-0.2218404	0.113716	0.001501236	-0.003288698	-0.0009437164	-0.06569875	0	0
23.14084	-0.2217903	0.1136794	0.003044737	-0.002223537	0.04658295	0.03214663	0	0
23.15741	-0.2216901	0.1135697	0.006046008	-0.006623895	0.09090296	-0.1332788	0	0
23.17398	-0.2213645	0.1133319	0.01965267	-0.01435185	0.41065	-0.2332301	0	0
23.19094	-0.2189086	0.1115025	0.14476	-0.1078283	3.730862	-2.787588	0	0
23.20711	-0.2135362	0.1075852	0.3323105	-0.242305	5.660611	-4.058749	0	0
23.22368	-0.2071686	0.1029866	0.3843478	-0.2775772	1.589706	-1.077541	0	0
23.24048	-0.2012135	0.09865855	0.3544745	-0.2576205	-0.8952927	0.5980935	0	0
23.25681	-0.1949399	0.09410607	0.3841126	-0.2787355	0.8945324	-0.6372906	0	0
23.2735	-0.1921016	0.09204861	0.1700511	-0.1232663	-6.48203	4.70779	0	0
23.29001	-0.1892347	0.08997181	0.1736449	-0.1257902	0.1082431	-0.07601849	0	0
23.30651	-0.1873555	0.08861126	0.1138972	-0.08246478	-1.810065	1.31255	0	0
23.32308	-0.1872031	0.08850092	0.00920033	-0.006659873	-3.16632	2.292547	0	0
23.40591	-0.1871777	0.08848254	0.0003067147	-0.0002219859	-0.08947167	0.06476651	0	0
23.42248	-0.1871777	0.08848254	0	0	-0.003085615	0.002233225	0	0
23.43904	-0.1871777	0.08848254	0	0	0	0	0	0
23.45561	-0.1871777	0.08848254	0	0	0	0	0	0
23.47218	-0.1871777	0.08848254	0	0	0	0	0	0
23.48875	-0.1871777	0.08848254	0	0	0	0	0	0
23.50531	-0.1872031	0.08850092	-0.001533715	0.001110032	-0.04629027	0.03350275	0	0
23.52188	-0.1872031	0.08850092	0	0	0.04629027	-0.03350275	0	0
23.53869	-0.1872031	0.08850092	0	0	0	0	0	0
23.55501	-0.1872031	0.08850092	0	0	0	0	0	0
23.57171	-0.1872031	0.08850092	0	0	0	0	0	0
23.58815	-0.1872031	0.08850092	0	0	0	0	0	0
23.62128	-0.1872031	0.08850092	0	0	0	0	0	0
23.65442	-0.1872031	0.08850092	0	0	0	0	0	0
23.67098	-0.1872031	0.08850092	0	0	0	0	0	0
23.68755	-0.1872031	0.08850092	0	0	0	0	0	0
23.70411	-0.1872031	0.08850092	0	0	0	0	0	0
23.72068	-0.1872031	0.08850092	0	0	0	0	0	0
23.75381	-0.1871777	0.08848254	0.0007668132	-0.0005549839	0.01542891	-0.01116673	0	0
23.77038	-0.1871777	0.08848254	0	0	-0.01542891	0.01116673	0	0
23.78695	-0.1871777	0.08848254	0	0	0	0	0	0
23.80388	-0.1871777	0.08848254	0	0	0	0	0	0
23.82008	-0.1871777	0.08848254	0	0	0	0	0	0
23.83665	-0.1871777	0.08848254	0	0	0	0	0	0
23.85322	-0.1872031	0.08850092	-0.001533538	0.001109904	-0.04628228	0.03349696	0	0
23.86978	-0.1872285	0.08851931	-0.001533538	0.001109904	0	0	0	0
23.88644	-0.1872539	0.08857448	-0.00152511	0.003311412	0.0002536568	0.06625858	0	0
23.90295	-0.1873047	0.08864804	-0.003076804	0.004455454	-0.04678173	0.0344915	0	0
23.91948	-0.1873555	0.08886869	-0.0030738	0.01334804	9.090267E-05	0.269138	0	0
23.93605	-0.1873555	0.08894224	0	0.004439166	0.09286904	-0.2691649	0	0
23.95262	-0.1875587	0.08949383	-0.01226561	0.03329397	-0.3701767	0.8708396	0	0
23.96918	-0.1877873	0.09013725	-0.01379825	0.03883719	-0.04625515	0.1672948	0	0
23.98575	-0.1902752	0.09237933	-0.1501698	0.1353323	-4.115702	2.912227	0	0
24.00253	-0.1910364	0.0931142	-0.04537718	0.04381183	3.143108	-2.745027	0	0
24.01889	-0.1918226	0.09423463	-0.04805626	0.06848096	-0.08085479	0.7445158	0	0
24.03555	-0.1945093	0.09735569	-0.1612577	0.1873305	-3.428069	3.59911	0	0
24.05206	-0.1974715	0.1042329	-0.1793762	0.4164497	-0.5461568	6.906481	0	0
24.06859	-0.1967629	0.1144841	0.04287858	0.6203363	6.727024	6.171072	0	0
24.08515	-0.1950919	0.1224505	0.1008627	0.4808515	1.752185	-4.214998	0	0
24.10172	-0.1932423	0.1322815	0.111638	0.5934015	0.3251973	3.396766	0	0
24.11861	-0.1914168	0.1393834	0.1080973	0.4205373	-0.1058335	-5.167081	0	0
24.13485	-0.1902499	0.1442583	0.07183611	0.3000873	-1.094429	-3.635397	0	0
24.15163	-0.1879397	0.1561549	0.1376801	0.709021	1.993832	12.38299	0	0
24.16814	-0.1869999	0.1608886	0.05692673	0.2867195	-2.425831	-12.68594	0	0
24.18465	-0.18517	0.1703089	0.1108216	0.5705119	1.632094	8.594061	0	0
24.20112	-0.1844835	0.1779978	0.04169412	0.466951	-2.096167	-3.1403	0	0
24.21769	-0.1841528	0.1832211	0.01995578	0.3152811	-0.6580719	-4.591414	0	0
24.23425	-0.1838731	0.1939987	0.01688781	0.6505386	-0.0925917	10.11809	0	0
24.25082	-0.1826773	0.2051928	0.07217613	0.6756787	1.668605	0.7587317	0	0
24.26739	-0.1819138	0.2168208	0.0460862	0.7018667	-0.7873957	0.7903541	0	0
24.28396	-0.1818374	0.2289541	0.004609609	0.7323657	-1.251766	0.9204611	0	0
24.30052	-0.1815319	0.237465	0.01843844	0.5137191	0.4173548	-6.598767	0	0
24.33476	-0.1800804	0.2517241	0.04239318	0.4164592	0.471494	-1.914337	0	0
24.35111	-0.177991	0.2600741	0.1278427	0.5108895	1.689298	1.866843	0	0
24.36779	-0.1754152	0.2653572	0.1544063	0.3167037	0.8043288	-5.879832	0	0
24.38424	-0.1735521	0.2707458	0.1132432	0.3275164	-1.242304	0.326327	0	0
24.40081	-0.1725051	0.2762397	0.06319436	0.3316148	-1.515712	0.12412	0	0
24.41782	-0.1711767	0.282644	0.07807945	0.3764241	0.4432622	1.334373	0	0
24.43394	-0.1737308	0.2847545	-0.1584699	0.130943	-7.139894	-7.409486	0	0
24.45051	-0.1738074	0.2848081	-0.0046231	0.003237969	4.70705	-3.907227	0	0
24.46707	-0.1737308	0.2847187	0.0046231	-0.005398414	0.2790509	-0.2606466	0	0
24.48364	-0.1737052	0.2847008	0.001540734	-0.001079323	-0.09302601	0.1303504	0	0
24.50021	-0.1737308	0.2846471	-0.001540734	-0.003237969	-0.09299886	-0.06514807	0	0
24.53334	-0.1737052	0.2845935	0.0007703668	-0.001618985	0.04649943	0.03257404	0	0
24.54991	-0.1737563	0.2845577	-0.003082367	-0.002158646	-0.07751715	-0.01085801	0	0
24.56648	-0.1740371	0.2841822	-0.01694897	-0.02266938	-0.4184949	-0.6190153	0	0
24.58304	-0.1741647	0.2839496	-0.007705455	-0.01403641	0.2789859	0.2605585	0	0
24.59995	-0.1741137	0.2838066	0.003018907	-0.008459283	0.3203609	0.1666015	0	0
24.61617	-0.1740626	0.2836635	0.003147964	-0.008820179	0.003895196	-0.01089249	0	0
24.63274	-0.1740882	0.2836098	-0.001541633	-0.003239768	-0.1430225	0.1701904	0	0
24.64932	-0.1740626	0.2835562	0.001540569	-0.003235734	0.09298892	0.000121705	0	0
24.66588	-0.1740882	0.2835383	-0.001542699	-0.001080069	-0.09305321	0.0650581	0	0
24.68244	-0.1740882	0.2835383	0	0	0.04657483	0.03260781	0	0
24.69901	-0.1740882	0.2835383	0	0	0	0	0	0
24.71558	-0.1740882	0.2835383	0	0	0	0	0	0
24.73215	-0.1740882	0.2835383	0	0	0	0	0	0
24.74871	-0.1740882	0.2835383	0	0	0	0	0	0
24.76528	-0.1740882	0.2835383	0	0	0	0	0	0
24.78185	-0.1740882	0.2835383	0	0	0	0	0	0
24.79841	-0.1740882	0.2835383	0	0	0	0	0	0
24.81511	-0.1740882	0.2835383	0	0	0	0	0	0
24.83155	-0.1741137	0.2835204	-0.001553071	-0.001087966	-0.04687447	-0.03283676	0	0
24.84813	-0.1741137	0.2835204	0	0	0.04702879	0.03294486	0	0
24.86468	-0.1741137	0.2834846	0	-0.002163434	0	-0.06529632	0	0
24.88125	-0.1741137	0.2833773	0	-0.006475938	0	-0.1302416	0	0
24.89824	-0.1741392	0.2833595	-0.001502505	-0.001052543	-0.04477607	0.1616223	0	0
24.91438	-0.1741392	0.2833237	0	-0.002217111	0.0453483	-0.03514875	0	0
24.93095	-0.1741392	0.2832879	0	-0.002158646	0	0.001787309	0	0
24.94751	-0.1741392	0.2832879	0	0	0	0.06515182	0	0
24.96408	-0.1741392	0.2832879	0	0	0	0	0	0
24.98073	-0.1741392	0.2832879	0	0	0	0	0	0
24.99721	-0.1741392	0.2832879	0	0	0	0	0	0
25.01378	-0.1741392	0.2832879	0	0	0	0	0	0
25.03034	-0.1741392	0.2832879	0	0	0	0	0	0
25.04727	-0.1741392	0.2832879	0	0	0	0	0	0
25.06348	-0.1741392	0.2832879	0	0	0	0	0	0
25.08005	-0.1741392	0.2832879	0	0	0	0	0	0
25.09681	-0.1741647	0.28327	-0.001522504	-0.001066553	-0.04567583	-0.03199708	0	0
25.11332	-0.1741647	0.28327	0	0	0.04575437	0.0320521	0	0
25.12983	-0.1741647	0.2832343	0	-0.002166128	0	-0.06560043	0	0
25.14631	-0.1741903	0.2832164	-0.001548937	-0.001085069	-0.04695241	0.03276976	0	0
25.16288	-0.1741647	0.2831985	0.001540734	-0.001081122	0.093494	0.0001194529	0	0
25.17945	-0.1741903	0.2831806	-0.001540734	-0.001079323	-0.09299886	5.42929E-05	0	0
25.19601	-0.1741903	0.2831806	0	0	0.04650211	0.03257591	0	0
25.21258	-0.1741903	0.2831448	0	-0.002158895	0	-0.06516308	0	0
25.31198	-0.1741903	0.2831091	0	-0.0003597813	0	0.01551404	0	0
25.32854	-0.1741903	0.2831091	0	0	0	0.0031024	0	0
25.34511	-0.1741903	0.2831091	0	0	0	0	0	0
25.3617	-0.1741903	0.2831091	0	0	0	0	0	0
25.37824	-0.1741903	0.2831091	0	0	0	0	0	0
25.39481	-0.1741903	0.2831091	0	0	0	0	0	0
25.41138	-0.1741903	0.2831091	0	0	0	0	0	0
25.42794	-0.1742158	0.2830912	-0.001540734	-0.001079323	-0.04649943	-0.03257403	0	0
25.44455	-0.1742158	0.2830912	0	0	0.04644062	0.03253283	0	0
25.46108	-0.1742158	0.2830554	0	-0.002165931	0	-0.06536792	0	0
25.47765	-0.1742158	0.2830196	0	-0.002158646	0	0.0002201346	0	0
25.49421	-0.1742158	0.2829839	0	-0.002158646	0	0	0	0
25.51078	-0.1741903	0.2829302	0.001540734	-0.003239768	0.04649943	-0.03262833	0	0
25.52735	-0.1741903	0.2828944	0	-0.002158646	-0.04649943	0.03262833	0	0
25.54391	-0.1741647	0.2828766	0.001540734	-0.001079323	0.04649943	0.03257403	0	0
25.56048	-0.1741392	0.2828587	0.001540734	-0.001079323	0	0	0	0
25.57705	-0.1741392	0.2828587	0	0	-0.04650211	0.03257591	0	0
25.59361	-0.1741647	0.2828408	-0.001540734	-0.001079323	-0.04650211	-0.03257591	0	0
25.61018	-0.1741647	0.2828408	0	0	0.04649943	0.03257403	0	0
25.62675	-0.1741647	0.2828408	0	0	0	0	0	0
25.64332	-0.1741647	0.2828408	0	0	0	0	0	0
25.65989	-0.1741647	0.2828408	0	0	0	0	0	0
25.69373	-0.1741647	0.282805	0	-0.001057457	0	-0.02097502	0	0
25.71019	-0.1741647	0.282805	0	0	0	0.02102274	0	0
25.72675	-0.1741647	0.2827692	0	-0.002158646	0	-0.06537385	0	0
25.74332	-0.1741647	0.2827692	0	0	0	0.06514806	0	0
25.76028	-0.1741392	0.2827514	0.00150504	-0.001054319	0.04488987	-0.0314465	0	0
25.77645	-0.1741392	0.2827156	0	-0.002211346	-0.0454248	-0.03492116	0	0
25.79302	-0.1741137	0.2826977	0.001540734	-0.001079323	0.04706019	0.03457651	0	0
25.80959	-0.1741137	0.2826977	0	0	-0.04649943	0.03257403	0	0
25.82615	-0.1741137	0.2826977	0	0	0	0	0	0
25.84272	-0.1741137	0.2826977	0	0	0	0	0	0
25.85929	-0.1741137	0.2826977	0	0	0	0	0	0
25.87586	-0.1741137	0.2826977	0	0	0	0	0	0
25.89242	-0.1741137	0.2826977	0	0	0	0	0	0
25.90899	-0.1741137	0.2826977	0	0	0	0	0	0
25.92556	-0.1741137	0.2826977	0	0	0	0	0	0
25.94213	-0.1741137	0.2826977	0	0	0	0	0	0
25.95869	-0.1740882	0.2826798	0.001540734	-0.001081122	0.04649943	-0.03262833	0	0
26.00839	-0.1713811	0.2808196	0.05446863	-0.03742876	0.7987065	-0.5485028	0	0
26.02496	-0.1662153	0.2772417	0.3118047	-0.2159635	3.883321	-2.694173	0	0
26.04153	-0.1643975	0.2760071	0.109724	-0.07451646	-6.098809	4.268881	0	0
26.05809	-0.1546756	0.2692601	0.5868154	-0.407252	14.39865	-10.04198	0	0
26.07466	-0.1481435	0.2648201	0.3942794	-0.2680013	-5.810746	4.202593	0	0
26.09154	-0.1415728	0.2604323	0.3893447	-0.2599952	-0.1475544	0.2393929	0	0
26.1078	-0.1358166	0.2567598	0.3540094	-0.2258596	-1.066361	1.030155	0	0
26.12436	-0.1306981	0.2537494	0.3089909	-0.1817321	-1.371449	1.344305	0	0
26.14106	-0.1283692	0.2524948	0.139449	-0.07511992	-5.096541	3.204834	0	0
26.19063	-0.114497	0.2596442	0.2798702	0.1442386	2.119021	3.310222	0	0
26.20761	-0.1033411	0.2660734	0.6571835	0.3787395	5.670331	3.524121	0	0
26.22376	-0.09168956	0.2683471	0.7211368	0.1407246	1.930225	-7.183717	0	0
26.24063	-0.08207835	0.2685262	0.5698341	0.01061397	-4.581621	-3.9399	0	0
26.2569	-0.06391283	0.2666643	1.116787	-0.1144667	16.50803	-3.775159	0	0
26.27346	-0.0548397	0.2641933	0.5476555	-0.1491463	-17.33409	-1.056238	0	0
26.29003	-0.04620393	0.260307	0.5212557	-0.2345819	-0.7967473	-2.578452	0	0
26.30667	-0.04221175	0.257584	0.2398365	-0.1635853	-8.473251	2.137634	0	0
26.32319	-0.0377715	0.2545558	0.268912	-0.1833939	0.8768947	-0.5974091	0	0
26.33973	-0.03622099	0.2534985	0.09372906	-0.06391783	-5.299844	3.614532	0	0
26.35671	-0.0363524	0.2535522	-0.00773835	0.003166068	-3.026749	2.001097	0	0
26.37286	-0.03632612	0.2535343	0.00162722	-0.001108954	0.2826697	-0.1290278	0	0
26.38943	-0.03632612	0.2535343	0	0	-0.04973369	0.03389364	0	0
26.406	-0.03632612	0.2535343	0	0	0	0	0	0
26.42256	-0.03632612	0.2535343	0	0	0	0	0	0
26.4557	-0.03632612	0.2535343	0	0	0	0	0	0
26.48883	-0.0363524	0.2535522	-0.0007931443	0.0005405298	-0.01196857	0.008156612	0	0
26.5054	-0.0363524	0.2535522	0	0	0.01595809	-0.01087548	0	0
26.52233	-0.0363524	0.2535881	0	0.002117481	0	0.06321431	0	0
26.53853	-0.03637868	0.253606	-0.001622239	0.00110556	-0.04896209	-0.03054159	0	0
26.5551	-0.03637868	0.253606	0	0	0.04950931	-0.03374071	0	0
26.57166	-0.03632612	0.2536418	0.00317276	0.002164043	0.0957596	0.0653147	0	0
26.58838	-0.03603702	0.253839	0.01729837	0.01179632	0.424455	0.2894365	0	0
26.6048	-0.03545881	0.2542332	0.03520888	0.02400733	0.54054	0.368529	0	0
26.6214	-0.03354005	0.2555414	0.1155775	0.07879818	2.433654	1.65913	0	0
26.63793	-0.03198908	0.2565986	0.09382166	0.06394947	-0.6566296	-0.4481609	0	0
26.6545	-0.027309	0.2597516	0.2824904	0.1903206	5.700269	3.818065	0	0
26.67106	-0.02320636	0.2625458	0.2476643	0.1686726	-1.051114	-0.6533752	0	0
26.72076	0.003157884	0.2804797	0.5304496	0.3608321	4.267362	2.899776	0	0
26.73733	0.01121006	0.2859526	0.4860301	0.3303448	-0.6702924	-0.4600542	0	0
26.75399	0.01686682	0.289797	0.3394888	0.2307191	-4.409933	-2.998079	0	0
26.7705	0.02183863	0.2931759	0.3011392	0.2046557	-1.15606	-0.7856908	0	0
26.78703	0.02583635	0.2958929	0.2418877	0.1643988	-1.79348	-1.218534	0	0
26.8036	0.03012246	0.2988062	0.2587101	0.1758469	0.5083163	0.3459225	0	0
26.82016	0.03101637	0.2994139	0.05396225	0.03668142	-6.17966	-4.200264	0	0
26.83673	0.03106895	0.2994496	0.003173772	0.002156847	-1.532887	-1.042014	0	0
26.8533	0.03125298	0.2995747	0.01110826	0.007551664	0.2394633	0.1628159	0	0
26.86987	0.03138443	0.2996641	0.007934148	0.005393018	-0.09579481	-0.06514806	0	0
26.88659	0.03156846	0.2997892	0.01100289	0.007480186	0.09217452	0.06269134	0	0
26.903	0.03204166	0.3000751	0.02883828	0.01742488	0.5382729	0.3001315	0	0
26.91961	0.03238341	0.3003432	0.02057127	0.01613627	-0.2503489	-0.03902302	0	0
26.93613	0.03259372	0.3004861	0.01272913	0.008653097	-0.2366762	-0.2258425	0	0
26.9527	0.03272516	0.3005397	0.007933699	0.00323617	-0.1449268	-0.1637093	0	0
26.96927	0.03275144	0.3005576	0.001586605	0.001079323	-0.1915557	-0.06509378	0	0
26.98584	0.03277773	0.3005397	0.00158683	-0.001079323	6.78793E-06	-0.06514806	0	0
27.01897	0.03280402	0.3005219	0.0007933024	-0.0005387621	-0.0159658	0.01087611	0	0
27.06872	0.03280402	0.3005219	0	0	-0.009570816	0.006499908	0	0
27.08524	0.03283031	0.300504	0.001591778	-0.001082689	0.02401997	-0.0163378	0	0
27.10225	0.03285659	0.3004861	0.001545503	-0.001051363	-0.001380365	0.0009344463	0	0
27.11876	0.03290917	0.3004504	0.003184065	-0.002164072	0.04888349	-0.03319565	0	0
27.13494	0.03306689	0.3003432	0.009748126	-0.006627225	0.2007852	-0.1365214	0	0
27.1688	0.03601074	0.2983415	0.08694866	-0.05911903	1.542857	-1.049052	0	0
27.18526	0.04076688	0.2951422	0.2889437	-0.1943674	4.014388	-2.687885	0	0
27.21883	0.04809446	0.2902618	0.2182573	-0.1453643	-1.412778	0.9794034	0	0
27.23496	0.04806821	0.2902797	-0.001627912	0.00110868	-4.4241	2.947043	0	0
27.25153	0.04812072	0.2902797	0.003169612	0	0.1467323	-0.03390898	0	0
27.26837	0.04812072	0.2902797	0	0	-0.09487266	0	0	0
27.28488	0.04812072	0.2902797	0	0	0	0	0	0
27.30139	0.04812072	0.2902797	0	0	0	0	0	0
27.31779	0.04814697	0.2902618	0.001600427	-0.001090116	0.04862286	-0.03311902	0	0
27.33442	0.04814697	0.2902618	0	0	-0.04845998	0.03300808	0	0
27.35093	0.04814697	0.2902618	0	0	0	0	0	0
27.36749	0.04814697	0.2902618	0	0	0	0	0	0
27.38406	0.04814697	0.2902618	0	0	0	0	0	0
27.40063	0.04817323	0.290244	0.001584806	-0.001077524	0.04782954	-0.03251974	0	0
27.41748	0.04817323	0.290244	0	0	-0.04742821	0.03224687	0	0
27.43399	0.04817323	0.290244	0	0	0	0	0	0
27.45033	0.04817323	0.290244	0	0	0	0	0	0
27.46701	0.04817323	0.290244	0	0	0	0	0	0
27.48352	0.04817323	0.290244	0	0	0	0	0	0
27.50004	0.04814697	0.2902618	-0.001590115	0.001081134	-0.04815052	0.03273798	0	0
27.5166	0.04814697	0.2902618	0	0	0.0480811	-0.03269078	0	0
27.53316	0.04814697	0.2902618	0	0	0	0	0	0
27.54973	0.04814697	0.2902618	0	0	0	0	0	0
27.5663	0.04817323	0.2902797	0.001584806	0.001079323	0.04782954	0.03257403	0	0
27.58286	0.04819948	0.2902976	0.001584806	0.001079323	0	0	0	0
27.59943	0.04825199	0.2903334	0.003169387	0.002158646	0.04782275	0.03257403	0	0
27.61612	0.04888208	0.290834	0.03775856	0.02999807	1.040131	0.8371596	0	0
27.63263	0.05116583	0.2924608	0.1383091	0.09852757	3.028693	2.064184	0	0
27.64914	0.05504959	0.2956427	0.2352093	0.1926999	2.934251	2.851648	0	0
27.6657	0.06058366	0.3008078	0.3342298	0.3119474	2.994305	3.605955	0	0
27.68267	0.0649873	0.304203	0.2595296	0.2000969	-2.228163	-3.336284	0	0
27.69883	0.06771211	0.306633	0.1685846	0.1503441	-2.745042	-1.501718	0	0
27.7154	0.07012168	0.311671	0.1454419	0.3040975	-0.7070759	4.697614	0	0
27.73197	0.07001694	0.3135289	-0.006322585	0.1121381	-4.580262	-5.793346	0	0
27.74853	0.06844555	0.3156367	-0.09486003	0.1272434	-2.672219	0.4559073	0	0
27.78235	0.06687382	0.3295317	-0.04647711	0.4108846	0.96031	5.629743	0	0
27.79892	0.06902176	0.3364605	0.1296501	0.4182215	3.495661	0.1456178	0	0
27.81548	0.07069777	0.3406033	0.1011641	0.250063	-0.8597103	-5.075035	0	0
27.83205	0.07095961	0.342389	0.01580444	0.1077866	-2.576158	-4.29391	0	0
27.84879	0.07095961	0.342389	0	0	-0.4745749	-3.23661	0	0
27.86518	0.07095961	0.342389	0	0	0	0	0	0
27.88175	0.07103816	0.3424426	0.004741376	0.003232572	0.1438236	0.09805594	0	0
27.89832	0.07124762	0.342764	0.01264191	0.0194004	0.238425	0.4879178	0	0
27.95337	0.08270565	0.3515857	0.2081245	0.160238	2.729332	1.966378	0	0
27.96994	0.08380327	0.3523715	0.06625245	0.04742905	-1.980873	-1.575083	0	0
27.98688	0.08388166	0.3524251	0.004627512	0.003161239	-1.839095	-1.3211	0	0
28.00307	0.08388166	0.3524251	0	0	-0.1396666	-0.09541187	0	0
28.01964	0.08372487	0.3525322	-0.009463864	0.006468743	-0.2888961	0.1974663	0	0
28.03621	0.08281019	0.353193	-0.05521052	0.03988459	-1.380637	1.008492	0	0
28.05293	0.07700533	0.3572292	-0.3471448	0.2413739	-8.769702	6.052738	0	0
28.06934	0.07263515	0.3602476	-0.2662983	0.1839279	2.440091	-1.733824	0	0
28.08591	0.07056684	0.3616586	-0.1248435	0.08516938	4.289361	-2.994673	0	0
28.10248	0.07061921	0.3616229	0.003161067	-0.002156847	3.863185	-2.635511	0	0
28.11904	0.07061921	0.3616229	0	0	-0.09540121	0.06509378	0	0
28.13561	0.07061921	0.3616229	0	0	0	0	0	0
28.15218	0.07061921	0.3616229	0	0	0	0	0	0
28.16875	0.07061921	0.3616229	0	0	0	0	0	0
28.18531	0.07061921	0.3616229	0	0	0	0	0	0
28.20204	0.07061921	0.3616229	0	0	0	0	0	0
28.21855	0.0706454	0.361605	0.001585871	-0.001081009	0.04771062	-0.03252195	0	0
28.23501	0.07067158	0.3615872	0.001590563	-0.001084516	0.0001423142	-0.0001063631	0	0
28.25158	0.07067158	0.3615872	0	0	-0.04815854	0.03283662	0	0
28.26815	0.07069777	0.3615693	0.001580759	-0.001079323	0.04770739	-0.03257403	0	0
28.28471	0.07069777	0.3615693	0	0	-0.04770739	0.03257403	0	0
28.30128	0.07072395	0.3615515	0.001580309	-0.001077524	0.04769382	-0.03251974	0	0
28.31812	0.07072395	0.3615515	0	0	-0.04730172	0.0322524	0	0
28.33464	0.07072395	0.3615515	0	0	0	0	0	0
28.35098	0.07072395	0.3615515	0	0	0	0	0	0
28.36766	0.07072395	0.3615515	0	0	0	0	0	0
28.40083	0.07075013	0.3615336	0.0007892912	-0.0005381735	0.01583439	-0.01079658	0	0
28.41739	0.07075013	0.3615336	0	0	-0.015869	0.01082018	0	0
28.43396	0.07075013	0.3615336	0	0	0	0	0	0
28.45053	0.07075013	0.3615336	0	0	0	0	0	0
28.49501	0.07075013	0.3615336	0	0	0	0	0	0
28.51176	0.07075013	0.3615336	0	0	0	0	0	0
28.52814	0.07072395	0.3615157	-0.00159797	-0.001091385	-0.04822961	-0.03293997	0	0
28.54478	0.07072395	0.3615157	0	0	0.04838838	0.03304841	0	0
28.56128	0.07072395	0.3615157	0	0	0	0	0	0
28.57784	0.07072395	0.3615157	0	0	0	0	0	0
28.59441	0.07072395	0.3615157	0	0	0	0	0	0
28.61098	0.07069777	0.3614979	-0.001580309	-0.001077524	-0.04769382	-0.03251974	0	0
28.62755	0.07069777	0.3614621	0	-0.002156847	0.04769382	-0.03257403	0	0
28.64436	0.0706454	0.3614264	-0.003115515	-0.002123993	-0.09334402	0.0009843475	0	0
28.66087	0.07043592	0.3612835	-0.01268809	-0.008655485	-0.2872968	-0.1960263	0	0
28.67725	0.069886	0.3609084	-0.0335681	-0.02289629	-0.6348006	-0.4329536	0	0
28.69382	0.06805264	0.3596582	-0.1106616	-0.07546627	-2.339752	-1.595474	0	0
28.71038	0.06582581	0.3581401	-0.1344272	-0.09164508	-0.7172865	-0.4883055	0	0
28.72695	0.06582581	0.3581401	0	0	4.057254	2.766013	0	0
28.74393	0.0656686	0.3580686	-0.009260283	-0.004207743	-0.2760593	-0.1254375	0	0
28.76008	0.06441078	0.3572471	-0.07785843	-0.05085412	-2.070415	-1.407871	0	0
28.77665	0.05748921	0.3526394	-0.4177864	-0.27812	-10.38821	-6.945252	0	0
28.79321	0.05163826	0.3487999	-0.353164	-0.231754	1.950309	1.399326	0	0
28.80978	0.04893459	0.3469962	-0.1631943	-0.1088659	5.733295	3.708771	0	0
28.82635	0.04339379	0.3433355	-0.3344429	-0.2209644	-5.168291	-3.383139	0	0
28.84292	0.03989987	0.3411033	-0.2108939	-0.1347337	3.728715	2.602448	0	0
28.85948	0.03519599	0.3380497	-0.2839267	-0.1843142	-2.204135	-1.496342	0	0
28.87605	0.03251485	0.3364426	-0.1618337	-0.09700776	3.684775	2.634913	0	0
28.94232	0.007289344	0.3261029	-0.3806646	-0.156031	-2.641793	-0.7125462	0	0
28.95889	-0.006999886	0.3275137	-0.8624997	0.08515859	-5.816858	2.911713	0	0
28.97545	-0.01747191	0.3283352	-0.6320924	0.0495841	6.953704	-1.07364	0	0
28.99202	-0.02709863	0.3287281	-0.581137	0.02371726	1.537926	-0.7807079	0	0
29.00858	-0.03401319	0.3283531	-0.417364	-0.0226352	4.942964	-1.399001	0	0
29.02515	-0.04875081	0.3212987	-0.8895646	-0.4258038	-14.25104	-12.16765	0	0
29.06046	-0.05895791	0.3143863	-0.2890648	-0.1957586	11.57523	4.434352	0	0
29.07702	-0.06511833	0.310224	-0.3719721	-0.2513226	-1.598297	-1.071171	0	0
29.09367	-0.07219012	0.3054716	-0.4247515	-0.2854422	-1.589227	-1.027365	0	0
29.11016	-0.07658675	0.3024697	-0.2667011	-0.1820982	4.769972	3.118927	0	0
29.12673	-0.0805621	0.2998249	-0.2399528	-0.1596409	0.809267	0.6794459	0	0
29.14329	-0.08351582	0.2978411	-0.1782866	-0.1197419	1.86109	1.204154	0	0
29.15986	-0.08701655	0.2954461	-0.2113045	-0.1445645	-0.9964805	-0.7491485	0	0
29.17643	-0.08701655	0.2954818	0	0.002156847	6.377182	4.42806	0	0
29.19325	-0.08699043	0.2954639	0.00155249	-0.001063046	0.04649824	-0.09643822	0	0
29.20956	-0.08699043	0.2954639	0	0	-0.04685423	0.03208278	0	0
29.22613	-0.08699043	0.2954639	0	0	0	0	0	0
29.2427	-0.08701655	0.2954461	-0.001576261	-0.001077524	-0.04757166	-0.03251974	0	0
29.2593	-0.08699043	0.2954282	0.001573182	-0.001077215	0.09495748	9.329544E-06	0	0
29.27583	-0.08701655	0.2954103	-0.001579535	-0.001081564	-0.09515467	-0.0001312795	0	0
29.2924	-0.08701655	0.2954103	0	0	0.0477199	0.03267553	0	0
29.30896	-0.08701655	0.2954103	0	0	0	0	0	0
29.32553	-0.08701655	0.2954103	0	0	0	0	0	0
29.3421	-0.08704267	0.2953924	-0.001576711	-0.001079323	-0.04758523	-0.03257403	0	0
29.35867	-0.0870949	0.2953567	-0.003152523	-0.002156847	-0.04755809	-0.03251974	0	0
29.37523	-0.08735606	0.2951779	-0.01576396	-0.01078963	-0.380614	-0.260538	0	0
29.3918	-0.0890011	0.2940876	-0.09929457	-0.06581532	-2.520959	-1.660679	0	0
29.40837	-0.09768806	0.2881699	-0.5244067	-0.3572305	-12.83065	-8.795433	0	0
29.4415	-0.1130683	0.2779216	-0.464177	-0.3092962	1.21187	0.9644763	0	0
29.45807	-0.1211926	0.2737525	-0.4903837	-0.251646	-0.5272787	1.159925	0	0
29.47495	-0.1415986	0.2726966	-1.208475	-0.06253	-21.46567	5.653186	0	0
29.4912	-0.1504595	0.2727682	-0.5453288	0.004405593	20.01378	2.02012	0	0
29.50777	-0.1593993	0.2729472	-0.5396057	0.01080223	0.1743988	0.1949246	0	0
29.52449	-0.1723263	0.2726071	-0.773155	-0.02033603	-7.01622	-0.9354465	0	0
29.541	-0.1935718	0.271587	-1.286677	-0.06178346	-15.45277	-1.247224	0	0
29.55751	-0.1983822	0.2714438	-0.2913294	-0.008670729	30.14029	1.608315	0	0
29.57404	-0.2057569	0.2706563	-0.4463162	-0.04766139	-4.691554	-1.180273	0	0
29.5906	-0.2087307	0.2701909	-0.1794986	-0.02809118	8.063248	0.5914131	0	0
29.60717	-0.210795	0.2686873	-0.1246033	-0.09075847	1.656742	-1.891303	0	0
29.62374	-0.2130083	0.2671119	-0.1335977	-0.09509196	-0.2714502	-0.1307849	0	0
29.6403	-0.2132597	0.2669328	-0.01517348	-0.01080762	3.57405	2.543706	0	0
29.65709	-0.2132597	0.2669328	0	0	0.4549772	0.3240667	0	0
29.6736	-0.2132597	0.2669328	0	0	0	0	0	0
29.69	-0.2132346	0.2669507	0.001532165	0.001091679	0.0465463	0.03316458	0	0
29.72332	-0.2132346	0.2669507	0	0	-0.03081659	-0.02195705	0	0
29.73988	-0.2132346	0.2669507	0	0	0	0	0	0
29.75645	-0.2132346	0.2669507	0	0	0	0	0	0
29.77302	-0.2132346	0.2669507	0	0	0	0	0	0
29.78959	-0.2132346	0.2669865	0	0.002162244	0	0.06525666	0	0
29.80615	-0.2132346	0.2669865	0	0	0	-0.06526041	0	0
29.85585	-0.2134859	0.2672014	-0.005057528	0.004322689	-0.07632045	0.06523138	0	0
29.87242	-0.2137624	0.2674341	-0.01668723	0.01404739	-0.1754926	0.146746	0	0
29.88925	-0.2179053	0.2703878	-0.2461575	0.1754962	-6.870846	4.834132	0	0
29.90576	-0.2251934	0.2755956	-0.4413332	0.3153604	-5.85335	4.194552	0	0
29.92212	-0.2285913	0.2780289	-0.2077487	0.1487737	7.106454	-5.06815	0	0
29.93869	-0.2352464	0.2828408	-0.4017025	0.2904476	-5.891178	4.303224	0	0
29.95525	-0.2399693	0.2862745	-0.2850789	0.2072588	3.519706	-2.510643	0	0
29.97182	-0.2453997	0.2902976	-0.3277751	0.2428351	-1.288574	1.073694	0	0
29.98839	-0.2487398	0.2928541	-0.2016113	0.1543108	3.807633	-2.671668	0	0
30.00495	-0.2532832	0.2962504	-0.2742696	0.2050248	-2.192959	1.53064	0	0
30.02152	-0.2551813	0.2977339	-0.1145719	0.08954244	4.819962	-3.485466	0	0
30.03809	-0.2577421	0.2996283	-0.1545681	0.1143489	-1.207085	0.7486598	0	0
30.05466	-0.2612574	0.3022195	-0.2121877	0.1564065	-1.738965	1.269302	0	0
30.07138	-0.2639326	0.304203	-0.1599055	0.1185619	1.570197	-1.136592	0	0
30.08789	-0.2660895	0.3058468	-0.1306446	0.09956605	0.8803096	-0.5714859	0	0
30.10435	-0.2685864	0.3078122	-0.151691	0.1193982	-0.638344	0.6015126	0	0
30.12092	-0.2721788	0.3105813	-0.2168396	0.1671458	-1.972546	1.445685	0	0
30.13749	-0.2737894	0.3118318	-0.09721462	0.07548065	3.610289	-2.766458	0	0
30.15406	-0.2734235	0.3120998	0.02208655	0.01617366	3.600517	-1.789889	0	0
30.17095	-0.2722521	0.3129573	0.06932745	0.05074641	1.411675	1.03312	0	0
30.18747	-0.2693446	0.3150829	0.176084	0.1287361	3.195432	2.334384	0	0
30.20376	-0.2648152	0.3183874	0.2780321	0.2028433	3.107927	2.259186	0	0
30.22049	-0.2596604	0.3221381	0.3080634	0.2241483	0.9093851	0.6451413	0	0
30.23689	-0.2578651	0.3234419	0.1094586	0.07949144	-5.993906	-4.365753	0	0
30.25346	-0.249506	0.329496	0.5045556	0.3654282	11.98407	8.673024	0	0
30.27003	-0.2456968	0.3321747	0.2299246	0.1616844	-8.288382	-6.149001	0	0
30.28659	-0.2438638	0.3334961	0.1106523	0.07977296	-3.599851	-2.472234	0	0
30.30316	-0.243839	0.3334783	0.001495762	-0.001077524	-3.294542	-2.440213	0	0
30.31973	-0.243839	0.3334783	0	0	-0.04514218	0.03251974	0	0
30.35359	-0.243839	0.3334783	0	0	0	0	0	0
30.37009	-0.243839	0.3334783	0	0	0	0	0	0
30.38666	-0.243839	0.3334783	0	0	0	0	0	0
30.40322	-0.243839	0.3334783	0	0	0	0	0	0
30.41979	-0.243839	0.333514	0	0.002156847	0	0.06509378	0	0
30.43636	-0.243839	0.333514	0	0	0	-0.06509753	0	0
30.45316	-0.243839	0.3335497	0	0.00212544	0	0.06370585	0	0
30.46949	-0.2437894	0.3335854	0.003034698	0.002185493	0.09158736	0.001812413	0	0
30.48606	-0.2437647	0.3336033	0.001495762	0.001079323	-0.04677095	-0.03361844	0	0
30.50269	-0.2437399	0.3336211	0.001489759	0.0010732	-0.0001808053	-0.0001844274	0	0
30.5192	-0.2437399	0.3336211	0	0	-0.04494808	-0.03237991	0	0
30.53576	-0.2437399	0.3336211	0	0	0	0	0	0
30.55273	-0.2437399	0.3336211	0	0	0	0	0	0
30.56889	-0.2437151	0.3336033	0.001533001	-0.001104351	0.04626608	-0.03332938	0	0
30.58546	-0.2436903	0.3335854	0.001495762	-0.001079323	-0.001137709	0.0007646342	0	0
30.60203	-0.2436655	0.3335676	0.001495762	-0.001077524	0	5.428939E-05	0	0
30.6186	-0.2436655	0.3335676	0	0	-0.04514218	0.03251974	0	0
30.63516	-0.2436655	0.3335676	0	0	0	0	0	0
30.6518	-0.2436408	0.3335497	0.001489971	-0.001072708	0.0448667	-0.03230187	0	0
30.66831	-0.2435168	0.3334604	0.007507367	-0.005409348	0.1815322	-0.1308274	0	0
30.68486	-0.2430458	0.3331211	0.02845886	-0.0205014	0.6338131	-0.4565565	0	0
30.70143	-0.2426739	0.3328533	0.02244812	-0.01616826	-0.1814984	0.1308422	0	0
30.71799	-0.2426243	0.3328176	0.002993323	-0.002155048	-0.5871469	0.4229195	0	0
30.73456	-0.242426	0.3326747	0.01197557	-0.008624784	0.2711003	-0.1952682	0	0
30.75137	-0.2424012	0.3326568	0.001476148	-0.001062117	-0.3146094	0.2266112	0	0
30.76769	-0.2422276	0.3325318	0.01063391	-0.007656415	0.2763977	-0.1990277	0	0
30.78439	-0.2420787	0.3324247	0.008911871	-0.006417761	-0.0521453	0.03750786	0	0
30.80083	-0.2419051	0.3322997	0.01056415	-0.00760488	0.04986576	-0.03582731	0	0
30.81739	-0.2418555	0.3322997	0.002995122	0	-0.2293446	0.230431	0	0
30.83396	-0.2418555	0.3322997	0	0	-0.09039295	0	0	0
30.85053	-0.2418307	0.3323175	0.001496834	0.001077648	0.04517713	0.03252536	0	0
30.86709	-0.2418059	0.3323354	0.001497561	0.001077524	2.194609E-05	-3.745523E-06	0	0
30.88366	-0.2418059	0.3323354	0	0	-0.04519647	-0.03251974	0	0
30.90023	-0.2417811	0.3323533	0.001497561	0.001079323	0.04519647	0.03257403	0	0
30.9168	-0.2417067	0.3324068	0.004491783	0.003232572	0.0903658	0.0649852	0	0
30.93336	-0.2414834	0.3324247	0.01347805	0.001077524	0.271206	-0.06503949	0	0
30.94993	-0.2407637	0.3323711	0.04343735	-0.003232572	0.9041737	-0.130079	0	0
30.98354	-0.2275425	0.3367462	0.3934234	0.1301888	6.975612	2.659237	0	0
30.99998	-0.2204376	0.3389962	0.4319359	0.1367858	0.7694117	0.1317956	0	0
31.01655	-0.2061099	0.342889	0.8648229	0.234974	13.11135	2.973941	0	0
31.03312	-0.1940279	0.3459248	0.7292689	0.1832385	-4.091026	-1.561382	0	0
31.04969	-0.1867966	0.3469427	0.4364827	0.06143866	-8.836305	-3.675925	0	0
31.06625	-0.1810737	0.3476748	0.3454382	0.04419288	-2.747728	-0.5204788	0	0
31.08282	-0.1746242	0.3441212	0.389292	-0.2144975	1.32351	-7.807291	0	0
31.09939	-0.1707678	0.3414248	0.2327695	-0.1627565	-4.723859	1.561545	0	0
31.11596	-0.1687482	0.3399783	0.1219032	-0.08730824	-3.34595	2.277033	0	0
31.13252	-0.1680321	0.3394783	0.04322689	-0.03017967	-2.374457	1.724144	0	0
31.14909	-0.1679809	0.3394069	0.003087763	-0.004311895	-1.211401	0.780691	0	0
31.16567	-0.1679809	0.3393712	0	-0.002153561	-0.09315671	0.06511618	0	0
31.18222	-0.1678018	0.3392105	0.01081724	-0.00970914	0.3264837	-0.228041	0	0
31.19879	-0.167546	0.3389962	0.01544241	-0.01293389	0.1396444	-0.09736229	0	0
31.21536	-0.1655242	0.3374783	0.1220373	-0.09161834	3.217039	-2.374701	0	0
31.23192	-0.1654986	0.337389	0.001545231	-0.00538942	-3.636457	2.602394	0	0
31.24849	-0.1655498	0.3373533	-0.003090462	-0.002155048	-0.1399055	0.09761353	0	0
31.26506	-0.165601	0.3373176	-0.003090817	-0.002155297	-1.073763E-05	-7.491045E-06	0	0
31.28162	-0.1656266	0.3372997	-0.001545231	-0.001079323	0.04664858	0.03247482	0	0
31.29819	-0.1656522	0.3372819	-0.001545231	-0.001077524	0	5.428939E-05	0	0
31.31478	-0.1656778	0.3372997	-0.001543631	0.001076409	4.82459E-05	0.06497217	0	0
31.33132	-0.1657034	0.3372819	-0.001547012	-0.001078766	-0.0001020286	-0.06504706	0	0
31.34789	-0.1657034	0.3372819	0	0	0.0467158	0.03257598	0	0
31.36446	-0.1657034	0.3372819	0	0	0	0	0	0
31.38103	-0.165729	0.3372997	-0.001545231	0.001077524	-0.04663516	0.03251974	0	0
31.41416	-0.165729	0.3372997	0	0	0.03109011	-0.02167983	0	0
31.43073	-0.1657546	0.3372819	-0.001545231	-0.001077524	-0.03109011	-0.02167983	0	0
31.44729	-0.1657546	0.3372819	0	0	0.04663516	0.03251974	0	0
31.46386	-0.1657546	0.3372819	0	0	0	0	0	0
31.48043	-0.1657802	0.337264	-0.001545231	-0.001077524	-0.04663516	-0.03251974	0	0
31.497	-0.1658314	0.3372283	-0.003090462	-0.002155048	-0.04663516	-0.03251974	0	0
31.51356	-0.1659338	0.3371569	-0.006181635	-0.004312392	-0.09329716	-0.06511251	0	0
31.53043	-0.165985	0.3371212	-0.00303368	-0.002117836	0.09414379	0.06563114	0	0
31.5467	-0.1660362	0.3370855	-0.003148458	-0.00219549	-0.003463987	-0.002343621	0	0
31.56326	-0.1660618	0.3370676	-0.001545231	-0.001077524	0.04883527	0.03405393	0	0
31.57983	-0.1660874	0.3370498	-0.001544331	-0.001077524	2.714469E-05	0	0	0
31.5964	-0.1660874	0.3370498	0	0	0.04660802	0.03251974	0	0
31.68172	-0.1661642	0.3369962	-0.0009001325	-0.0006280319	-0.008834472	-0.006163904	0	0
31.69829	-0.1661642	0.3369962	0	0	0.008834472	0.006163904	0	0
31.71485	-0.1661642	0.3369962	0	0	0	0	0	0
31.73142	-0.1661642	0.3369605	0	-0.002155297	0	-0.06505072	0	0
31.74799	-0.1661897	0.3369426	-0.001544331	-0.001077524	-0.0466107	0.03252911	0	0
31.76455	-0.1662153	0.336889	-0.001545409	-0.003234744	-3.251507E-05	-0.06510877	0	0
31.78112	-0.1662409	0.3368354	-0.001545231	-0.003234371	5.368817E-06	1.12436E-05	0	0
31.79769	-0.1663433	0.3365497	-0.006178413	-0.0172438	-0.1398217	-0.422781	0	0
31.81425	-0.1664201	0.3358533	-0.004635327	-0.04204087	0.04657044	-0.7483772	0	0
31.83082	-0.1663689	0.3319604	0.003090274	-0.2350317	0.2331993	-5.825482	0	0
31.84766	-0.1657546	0.3301746	0.03647633	-0.1060323	0.9994237	3.861644	0	0
31.86395	-0.1624761	0.327853	0.2012263	-0.1424926	4.972164	-1.100373	0	0
31.88052	-0.1525168	0.3209236	0.6011425	-0.4182593	12.17038	-8.39222	0	0
31.89709	-0.1463668	0.3165834	0.3711734	-0.2619485	-6.940082	4.717196	0	0
31.91365	-0.1394057	0.3116532	0.4202243	-0.2976198	1.480362	-1.076562	0	0
31.93022	-0.1370306	0.3095094	0.1433611	-0.1293982	-8.356232	5.077229	0	0
31.94679	-0.1373921	0.3026484	-0.02182211	-0.4141327	-4.985239	-8.593302	0	0
31.96374	-0.1433778	0.29743	-0.3530072	-0.3077527	-9.879175	3.173289	0	0
31.97992	-0.1529538	0.2899937	-0.5919134	-0.4596554	-7.210203	-4.584431	0	0
31.99677	-0.1576287	0.2825188	-0.2774804	-0.4436736	9.520846	0.4839193	0	0
32.01305	-0.1618097	0.2745219	-0.2567392	-0.4910602	0.6260074	-1.430213	0	0
32.02962	-0.1663433	0.2635486	-0.2736489	-0.66235	-0.5147206	-5.213956	0	0
32.04631	-0.1680832	0.258641	-0.1042765	-0.2941262	5.093489	11.0735	0	0
32.06282	-0.1697198	0.2484613	-0.09912921	-0.6165756	0.1550602	-9.713651	0	0
32.07933	-0.1696431	0.2410181	0.004645441	-0.4508343	3.14278	5.019418	0	0
32.09589	-0.1690551	0.2319894	0.03551259	-0.5452211	0.9333992	-2.854184	0	0
32.11245	-0.169413	0.2256303	-0.02160715	-0.3838378	-1.724274	4.871677	0	0
32.12902	-0.1702567	0.2180619	-0.05092066	-0.4568307	-0.8846836	-2.202928	0	0
32.14587	-0.1706656	0.2120528	-0.0242642	-0.3565501	0.7976067	3.000565	0	0
32.16216	-0.172122	0.2060934	-0.08945111	-0.3660306	-1.967345	-0.2861232	0	0
32.17872	-0.1724029	0.1996249	-0.01695976	-0.3904424	2.206848	-0.7431656	0	0
32.19529	-0.173986	0.1913645	-0.09555697	-0.4985978	-2.372068	-3.264136	0	0
32.21185	-0.1751345	0.1858583	-0.06933909	-0.332428	0.7913482	5.015592	0	0
32.22842	-0.1769457	0.1802032	-0.1093192	-0.3413422	-1.206742	-0.269063	0	0
32.24499	-0.1790869	0.173476	-0.1292435	-0.4060575	-0.6013168	-1.953112	0	0
32.26155	-0.1829063	0.170508	-0.2305425	-0.1791487	-3.057209	6.84812	0	0
32.27812	-0.1870761	0.1675386	-0.2516882	-0.1792315	-0.6381794	-0.002497284	0	0
32.39409	-0.1934198	0.1630094	-0.05470061	-0.03905466	1.486275	1.057636	0	0
32.41066	-0.1934198	0.1630094	0	0	0.4127169	0.294668	0	0
32.44418	-0.1934198	0.1630094	0	0	0	0	0	0
32.46074	-0.1934198	0.1630094	0	0	0	0	0	0
32.47731	-0.1934198	0.1630094	0	0	0	0	0	0
32.49413	-0.1934198	0.1630094	0	0	0	0	0	0
32.52715	-0.1934198	0.1630094	0	0	0	0	0	0
32.54358	-0.1934198	0.1629732	0	-0.002207131	0	-0.04463711	0	0
32.56014	-0.1934198	0.1629732	0	0	0	0.06689631	0	0
32.57671	-0.1934198	0.1629732	0	0	0	0	0	0
32.59328	-0.1933944	0.1629551	0.00152994	-0.001093714	0.04617369	-0.03300836	0	0
32.60984	-0.1931156	0.1627557	0.01682845	-0.01203355	0.4617098	-0.330165	0	0
32.62641	-0.1896916	0.1603084	0.2067236	-0.1477511	5.731706	-4.096435	0	0
32.64297	-0.1869237	0.1583318	0.1670711	-0.1193111	-1.196851	0.8584201	0	0
32.65974	-0.1826773	0.155302	0.2532203	-0.1806703	2.584218	-1.840594	0	0
32.67626	-0.177787	0.1518168	0.2961315	-0.2110485	1.289274	-0.9127181	0	0
32.69277	-0.1741903	0.1492197	0.2178538	-0.157306	-2.370339	1.627385	0	0
32.70928	-0.1712278	0.1471121	0.1794357	-0.1276571	-1.163478	0.8979059	0	0
32.72581	-0.1679042	0.1447491	0.2010304	-0.1429233	0.6535348	-0.4620117	0	0
32.74238	-0.1667272	0.1439128	0.07104104	-0.05048264	-3.927155	2.792759	0	0
32.75895	-0.1626298	0.1410028	0.2473179	-0.1756499	5.320045	-3.777556	0	0
32.77552	-0.1585783	0.1381276	0.2444396	-0.1734672	-0.08684797	0.06586042	0	0
32.79208	-0.158142	0.1378181	0.02634402	-0.01868629	-6.582137	4.671296	0	0
32.80865	-0.158142	0.1378181	0	0	-0.7952471	0.5640833	0	0
32.82586	-0.158142	0.1378181	0	0	0	0	0	0
32.84178	-0.158142	0.1378181	0	0	0	0	0	0
32.85835	-0.158142	0.1378181	0	0	0	0	0	0
32.87492	-0.158142	0.1378181	0	0	0	0	0	0
32.89148	-0.158142	0.1378181	0	0	0	0	0	0
32.90805	-0.1581677	0.1377999	-0.001548829	-0.001099111	-0.04674374	-0.03317122	0	0
32.92462	-0.158142	0.1377817	0.001548829	-0.001098211	0.09348748	2.714469E-05	0	0
32.94118	-0.158142	0.1377817	0	0	-0.04674374	0.03314408	0	0
32.95796	-0.1581164	0.1377271	0.001529459	-0.003255208	0.04586873	-0.09762422	0	0
32.97432	-0.1580651	0.1376543	0.0031383	-0.004451923	0.04855492	-0.03611691	0	0
32.99099	-0.1577057	0.1373994	0.02155903	-0.01529151	0.5578011	-0.3282352	0	0
33.0075	-0.1556774	0.1359975	0.1228537	-0.08491401	3.053213	-2.098554	0	0
33.02402	-0.153288	0.1342673	0.1446259	-0.1047229	0.6591358	-0.5996965	0	0
33.04058	-0.1519512	0.13332	0.08068929	-0.05717804	-1.932282	1.436891	0	0
33.05715	-0.1519769	0.1333383	-0.001552426	0.00110001	-2.48206	1.758835	0	0
33.07372	-0.1519769	0.1333383	0	0	0.04685232	-0.03319837	0	0
33.09055	-0.1519769	0.1333383	0	0	0	0	0	0
33.14209	-0.1519512	0.13332	0.0004990885	-0.0003536415	0.007300138	-0.005172693	0	0
33.15826	-0.1520026	0.1332836	-0.003180277	-0.002252543	-0.05434242	-0.02804583	0	0
33.17483	-0.1521312	0.1331561	-0.007759433	-0.007698271	-0.1398577	-0.1663247	0	0
33.19139	-0.152414	0.1328828	-0.01707039	-0.01649565	-0.2810054	-0.2655056	0	0
33.20813	-0.1595275	0.127724	-0.4249712	-0.3081931	-12.24702	-8.758075	0	0
33.22453	-0.164628	0.1239473	-0.31116	-0.2304006	3.435222	2.348055	0	0
33.24115	-0.178883	0.1136428	-0.8572763	-0.6196958	-16.53894	-11.78967	0	0
33.25767	-0.1845597	0.109526	-0.3437563	-0.2492984	15.4945	11.17604	0	0
33.27422	-0.1955984	0.1014832	-0.6667528	-0.4857971	-9.767168	-7.15154	0	0
33.29079	-0.2031581	0.09596066	-0.4563054	-0.3333422	6.353508	4.602688	0	0
33.30736	-0.2100903	0.09090924	-0.4184293	-0.3049043	1.143105	0.8582579	0	0
33.32393	-0.2146167	0.08759976	-0.2732154	-0.1997607	4.382564	3.17324	0	0
33.35706	-0.241533	0.0677632	-0.8123345	-0.5986686	-10.8471	-8.026043	0	0
33.41116	-0.2416818	0.06765232	-0.002751423	-0.002049383	9.280132	6.838958	0	0
33.42773	-0.2416322	0.06768928	0.002995122	0.002231051	0.08131395	0.0605684	0	0
33.44431	-0.2416322	0.06768928	0	0	-0.09037214	-0.06731775	0	0
33.46087	-0.2416322	0.06768928	0	0	0	0	0	0
33.47743	-0.2415826	0.06772624	0.002995811	0.002231115	0.09043458	0.06735069	0	0
33.494	-0.2415826	0.06772624	0	0	-0.09042417	-0.06734293	0	0
33.51056	-0.2415826	0.06772624	0	0	0	0	0	0
33.52713	-0.2415826	0.06772624	0	0	0	0	0	0
33.54387	-0.2415826	0.06772624	0	0	0	0	0	0
33.56038	-0.2415826	0.06772624	0	0	0	0	0	0
33.57689	-0.2415826	0.06772624	0	0	0	0	0	0
33.5934	-0.2415826	0.06772624	0	0	0	0	0	0
33.60997	-0.2415826	0.06772624	0	0	0	0	0	0
33.62653	-0.2415826	0.06772624	0	0	0	0	0	0
33.6431	-0.2415826	0.06772624	0	0	0	0	0	0
33.65967	-0.2415826	0.06772624	0	0	0	0	0	0
33.67623	-0.2415826	0.06772624	0	0	0	0	0	0
33.70949	-0.2415826	0.06772624	0	0	0	0	0	0
33.74249	-0.2415826	0.06772624	0	0	0	0	0	0
33.75906	-0.2415826	0.06772624	0	0	0	0	0	0
33.77603	-0.2415826	0.06772624	0	0	0	0	0	0
33.79219	-0.2415826	0.06772624	0	0	0	0	0	0
33.82799	-0.2415826	0.06772624	0	0	0	0	0	0
33.84458	-0.2415826	0.06772624	0	0	0	0	0	0
33.86159	-0.2415826	0.06772624	0	0	0	0	0	0
33.87769	-0.2415826	0.06772624	0	0	0	0	0	0
33.89426	-0.2415826	0.06772624	0	0	0	0	0	0
33.91113	-0.2415826	0.06772624	0	0	0	0	0	0
33.92739	-0.2415826	0.06772624	0	0	0	0	0	0
33.94396	-0.2415826	0.06772624	0	0	0	0	0	0
33.96053	-0.2415826	0.06772624	0	0	0	0	0	0
33.97709	-0.2415826	0.06772624	0	0	0	0	0	0
33.99366	-0.2415826	0.06772624	0	0	0	0	0	0
34.01023	-0.2415826	0.06772624	0	0	0	0	0	0
34.02679	-0.2415826	0.06772624	0	0	0	0	0	0
34.04336	-0.2415826	0.06772624	0	0	0	0	0	0
34.05993	-0.2415578	0.06778168	0.001497561	0.003346351	0.04519647	0.1009931	0	0
34.07649	-0.2413841	0.06809581	0.01048292	0.01896101	0.2711788	0.4712512	0	0
34.09306	-0.2407885	0.06964764	0.03594865	0.0936686	0.7685571	2.25468	0	0
34.10977	-0.2405652	0.07055261	0.01336649	0.05415029	-0.6785624	-1.18747	0	0
34.12619	-0.239125	0.07262035	0.08771818	0.1259403	2.244197	2.166875	0	0
34.14279	-0.2333044	0.08047588	0.3506066	0.47318	7.961485	10.51604	0	0
34.15932	-0.2294399	0.08520803	0.2337971	0.2862922	-3.525722	-5.640935	0	0
34.24236	-0.2108705	0.1514174	0.2236247	0.7973346	-0.1021659	5.132627	0	0
34.25887	-0.206841	0.1654918	0.2440084	0.8522853	0.204754	0.5519792	0	0
34.27529	-0.2028804	0.1790464	0.2412842	0.8257574	-0.08273087	-0.8056197	0	0
34.29189	-0.2009103	0.1855874	0.1186412	0.393913	-3.714201	-13.07826	0	0
34.30842	-0.1973196	0.1944677	0.217282	0.5373763	2.977327	4.33023	0	0
34.32499	-0.1923551	0.2059673	0.2996606	0.694118	2.489343	4.736474	0	0
34.34155	-0.1891839	0.21477	0.1914134	0.53133	-3.266904	-4.912951	0	0
34.35812	-0.1864155	0.223923	0.1671035	0.5524758	-0.7336757	0.6381803	0	0
34.37495	-0.1840765	0.2327616	0.1389379	0.5250344	-0.8432446	-0.8215634	0	0
34.39147	-0.1818883	0.2412692	0.1325084	0.5151855	-0.1927986	-0.2953343	0	0
34.40782	-0.1786791	0.2529967	0.1962374	0.7171144	1.938969	6.143739	0	0
34.42439	-0.1762061	0.2620085	0.1492758	0.5439554	-1.4265	-5.25986	0	0
34.44096	-0.1726072	0.2734125	0.2172246	0.6883455	2.050698	4.3577	0	0
34.45752	-0.1718921	0.2758819	0.04316843	0.1490545	-5.253025	-16.27583	0	0
34.47409	-0.1662665	0.2874011	0.3395577	0.6952981	8.945047	16.48566	0	0
34.49066	-0.1648073	0.2903155	0.08808175	0.1759153	-7.589561	-15.675	0	0
34.52472	-0.1577057	0.2953388	0.2085149	0.1474951	2.378934	-0.5613886	0	0
34.54128	-0.1515141	0.3000036	0.3737309	0.2815684	3.263535	2.648371	0	0
34.55785	-0.1493532	0.3016835	0.1304308	0.1013952	-7.342812	-5.437638	0	0
34.5746	-0.1458259	0.3045246	0.2105808	0.169619	2.405637	2.047681	0	0
34.59111	-0.1448984	0.3110637	0.05616464	0.3959741	-4.642117	6.804775	0	0
34.60762	-0.1479633	0.3184053	-0.1856398	0.4446753	-7.32212	1.474729	0	0
34.62413	-0.1524397	0.3284424	-0.2711333	0.60794	-2.589139	4.944415	0	0
34.64068	-0.1578084	0.3329604	-0.3244286	0.2730233	-1.612167	-10.13113	0	0
34.65766	-0.162963	0.3365497	-0.30358	0.2113956	0.6218382	-1.83813	0	0
34.67382	-0.1641926	0.3374069	-0.07611515	0.05305859	6.864902	-4.778621	0	0
34.69068	-0.164628	0.3376747	-0.02581606	0.01588123	1.523291	-1.125903	0	0
34.70695	-0.164628	0.3376747	0	0	0.77922	-0.4793518	0	0
