Time	Pos X	Pos Y	Vel X	Vel Y	Acc X	Acc YForce X	Force Y
0.01667174	-0.1931916	0.3447998	0.003164191	-0.005647305	-5.184328E-05	9.252755E-05	0	0
0.08717954	-0.1931916	0.3447998	0	0	5.188464E-05	-9.260137E-05	0	0
0.1037475	-0.1931916	0.3447998	0	0	0	0	0	0
0.120315	-0.193217	0.3448176	-0.001529913	0.001079304	-0.04617149	0.03257248	0	0
0.1368813	-0.1932423	0.3448355	-0.001530023	0.001077582	-3.320243E-06	-5.195038E-05	0	0
0.1534481	-0.1932423	0.3448355	0	0	0.04617811	-0.03252286	0	0
0.1700152	-0.1932423	0.3448355	0	0	0	0	0	0
0.1865807	-0.1932423	0.3448355	0	0	0	0	0	0
0.2031475	-0.1932677	0.3448533	-0.001529986	0.001077556	-0.0461781	0.03252285	0	0
0.2198161	-0.193293	0.3448355	-0.001520637	-0.001070972	0.0002812855	-0.06464592	0	0
0.2362813	-0.193293	0.3448355	0	0	0.04589375	0.03232258	0	0
0.2528477	-0.193293	0.3448355	0	0	0	0	0	0
0.269414	-0.193293	0.3448355	0	0	0	0	0	0
0.2859807	-0.193293	0.3448355	0	0	0	0	0	0
0.3025483	-0.193293	0.3448355	0	0	0	0	0	0
0.3191142	-0.193293	0.3448355	0	0	0	0	0	0
0.3356805	-0.1933184	0.3448176	-0.001529124	-0.001077582	-0.04615207	-0.03252364	0	0
0.3524139	-0.1933437	0.3447998	-0.001514755	-0.00106861	0.0004314963	0.0002694396	0	0
0.3689206	-0.1933691	0.3447819	-0.001535548	-0.001081473	-0.0006255388	-0.0003869823	0	0
0.3853807	-0.1936225	0.3446033	-0.01539622	-0.01084896	-0.4204422	-0.2962818	0	0
0.4019475	-0.1936985	0.3445498	-0.004589062	-0.003232671	0.3272231	0.2306088	0	0
0.4185138	-0.1943573	0.3440855	-0.03976621	-0.02802614	-1.061693	-0.7482999	0	0
0.4350805	-0.1951679	0.3435141	-0.04892721	-0.03449262	-0.2764913	-0.1951672	0	0
0.4516477	-0.1952438	0.3434605	-0.004585349	-0.003234389	1.338264	0.9433923	0	0
0.4682144	-0.1952438	0.3434605	0	0	0.1383886	0.0976158	0	0
0.4847807	-0.1952438	0.3434605	0	0	0	0	0	0
0.5015141	-0.1952438	0.3434605	0	0	0	0	0	0
0.5740671	-0.1952438	0.3434605	0	0	0	0	0	0
0.5910771	-0.1952438	0.3434605	0	0	0	0	0	0
0.6109717	-0.1952438	0.3434605	0	0	0	0	0	0
0.6276032	-0.1952438	0.3434605	0	0	0	0	0	0
0.6441067	-0.1952438	0.3434605	0	0	0	0	0	0
0.660675	-0.1952438	0.3434605	0	0	0	0	0	0
0.677644	-0.1952438	0.3434605	0	0	0	0	0	0
0.6938093	-0.1952438	0.3434605	0	0	0	0	0	0
0.7103756	-0.1952438	0.3434605	0	0	0	0	0	0
0.7269419	-0.1952438	0.3434605	0	0	0	0	0	0
0.7435087	-0.1952438	0.3434605	0	0	0	0	0	0
0.7600754	-0.1952438	0.3434605	0	0	0	0	0	0
0.7766422	-0.1952438	0.3434605	0	0	0	0	0	0
0.7932267	-0.1952438	0.3434605	0	0	0	0	0	0
0.8097757	-0.1952438	0.3434605	0	0	0	0	0	0
0.8267451	-0.1952438	0.3434605	0	0	0	0	0	0
0.8429084	-0.1952438	0.3434605	0	0	0	0	0	0
0.8597736	-0.1952438	0.3434605	0	0	0	0	0	0
0.8760422	-0.1952438	0.3434605	0	0	0	0	0	0
0.892609	-0.1952438	0.3434605	0	0	0	0	0	0
0.9093072	-0.1952438	0.3434605	0	0	0	0	0	0
0.9258249	-0.1952438	0.3434605	0	0	0	0	0	0
0.9423091	-0.1952438	0.3434605	0	0	0	0	0	0
0.9588763	-0.1952438	0.3434605	0	0	0	0	0	0
0.976356	-0.1952438	0.3434605	0	0	0	0	0	0
0.9920089	-0.1952438	0.3434605	0	0	0	0	0	0
1.008873	-0.1952438	0.3434605	0	0	0	0	0	0
1.025142	-0.1952438	0.3434605	0	0	0	0	0	0
1.041708	-0.1952438	0.3434605	0	0	0	0	0	0
1.058276	-0.1952438	0.3434605	0	0	0	0	0	0
1.074843	-0.1952438	0.3434605	0	0	0	0	0	0
1.091432	-0.1952438	0.3434605	0	0	0	0	0	0
1.107975	-0.1952438	0.3434605	0	0	0	0	0	0
1.12454	-0.1952438	0.3434605	0	0	0	0	0	0
1.141107	-0.1952692	0.3434783	-0.001529052	0.001077532	-0.04614937	0.03252173	0	0
1.157675	-0.1952692	0.3434783	0	0	0.04614605	-0.03251939	0	0
1.174242	-0.1952692	0.3434783	0	0	0	0	0	0
1.190808	-0.1952692	0.3434783	0	0	0	0	0	0
1.211363	-0.1952692	0.3434783	0	0	0	0	0	0
1.228031	-0.1952692	0.3434783	0	0	0	0	0	0
1.245042	-0.1952692	0.3434783	0	0	0	0	0	0
1.261063	-0.1952692	0.3434783	0	0	0	0	0	0
1.27763	-0.1952692	0.3434783	0	0	0	0	0	0
1.294197	-0.1952692	0.3434783	0	0	0	0	0	0
1.310763	-0.1952692	0.3434783	0	0	0	0	0	0
1.327597	-0.1952692	0.3434783	0	0	0	0	0	0
1.343897	-0.1952692	0.3434783	0	0	0	0	0	0
1.360621	-0.1952945	0.3434962	-0.001514655	0.001067386	-0.04586517	0.03232146	0	0
1.377135	-0.1952945	0.3434962	0	0	0.0455699	-0.03211338	0	0
1.393597	-0.1952945	0.3434962	0	0	0	0	0	0
1.410163	-0.1952692	0.3435141	0.001529162	0.001079408	0.04629828	0.03268114	0	0
1.42673	-0.1952692	0.3435141	0	0	-0.04615269	-0.03257837	0	0
1.443297	-0.1952692	0.3435141	0	0	0	0	0	0
1.459864	-0.1952692	0.3435141	0	0	0	0	0	0
1.476702	-0.1952692	0.3435141	0	0	0	0	0	0
1.492997	-0.1952692	0.3435141	0	0	0	0	0	0
1.526247	-0.1952945	0.3434962	-0.0007618563	-0.0005377809	-0.01537704	-0.01085438	0	0
1.542749	-0.1952692	0.3435141	0.001535127	0.001083619	0.04616878	0.03258973	0	0
1.559263	-0.1952692	0.3435141	0	0	-0.04649685	-0.03282131	0	0
1.57583	-0.1952945	0.3434962	-0.001529085	-0.001079354	-0.04622255	-0.03262768	0	0
1.592397	-0.1952692	0.3434783	0.001529052	-0.001077532	0.09229641	5.499306E-05	0	0
1.609296	-0.1952692	0.3434783	0	0	-0.0456899	0.03219794	0	0
1.642097	-0.1952945	0.3434962	-0.0007722976	0.0005442427	-0.01553933	0.01095066	0	0
1.658664	-0.1952945	0.3434962	0	0	0.01564361	-0.01102414	0	0
1.675231	-0.1952945	0.3434962	0	0	0	0	0	0
1.691901	-0.1952945	0.3434962	0	0	0	0	0	0
1.708363	-0.1952945	0.3434962	0	0	0	0	0	0
1.72493	-0.1952945	0.3434962	0	0	0	0	0	0
1.741497	-0.1952945	0.3434962	0	0	0	0	0	0
1.758064	-0.1952945	0.3434962	0	0	0	0	0	0
1.774913	-0.1952945	0.3434962	0	0	0	0	0	0
1.791425	-0.1952945	0.3434962	0	0	0	0	0	0
1.807763	-0.1952945	0.3434962	0	0	0	0	0	0
1.824449	-0.1952945	0.3434962	0	0	0	0	0	0
1.87403	-0.1952945	0.3434962	0	0	0	0	0	0
1.890596	-0.1952945	0.3434962	0	0	0	0	0	0
1.907164	-0.1952945	0.3434962	0	0	0	0	0	0
1.92402	-0.1952945	0.3434962	0	0	0	0	0	0
1.944228	-0.1952692	0.3434783	0.001253562	-0.0008833922	0.03382147	-0.02383419	0	0
1.960795	-0.1952692	0.3434783	0	0	-0.03408723	0.02402147	0	0
1.977364	-0.1952692	0.3434783	0	0	0	0	0	0
1.994069	-0.1952692	0.3434783	0	0	0	0	0	0
2.010495	-0.1952692	0.3434783	0	0	0	0	0	0
2.044104	-0.1952692	0.3434783	0	0	0	0	0	0
2.060195	-0.1952692	0.3434783	0	0	0	0	0	0
2.077128	-0.1952692	0.3434783	0	0	0	0	0	0
2.093328	-0.1952692	0.3434783	0	0	0	0	0	0
2.109895	-0.1952692	0.3434783	0	0	0	0	0	0
2.126462	-0.1952692	0.3434783	0	0	0	0	0	0
2.143174	-0.1952692	0.3434783	0	0	0	0	0	0
2.159687	-0.1952692	0.3434783	0	0	0	0	0	0
2.176198	-0.1952692	0.3434783	0	0	0	0	0	0
2.192729	-0.1952692	0.3434783	0	0	0	0	0	0
2.209295	-0.1952692	0.3434783	0	0	0	0	0	0
2.225862	-0.1952692	0.3434783	0	0	0	0	0	0
2.24275	-0.1952692	0.3434783	0	0	0	0	0	0
2.258995	-0.1952692	0.3434783	0	0	0	0	0	0
2.275561	-0.1952692	0.3434783	0	0	0	0	0	0
2.292278	-0.1952692	0.3434783	0	0	0	0	0	0
2.308695	-0.1952692	0.3434783	0	0	0	0	0	0
2.325261	-0.1952692	0.3434783	0	0	0	0	0	0
2.341827	-0.1952692	0.3434783	0	0	0	0	0	0
2.358825	-0.1952438	0.3434605	0.00149035	-0.001050258	0.04440404	-0.03129179	0	0
2.374961	-0.1952185	0.3434426	0.001568941	-0.001106293	0.002371948	-0.001691166	0	0
2.391528	-0.1952185	0.3434426	0	0	-0.04797521	0.03382831	0	0
2.408095	-0.1951932	0.3434248	0.001529085	-0.001077555	0.04614921	-0.03252162	0	0
2.424874	-0.1951425	0.343389	0.003018564	-0.002129602	0.04466749	-0.03154947	0	0
2.441227	-0.1950919	0.3433533	0.003097118	-0.002183199	0.002370864	-0.001617647	0	0
2.457795	-0.1950159	0.3432997	0.004586224	-0.003234371	0.04523293	-0.0319303	0	0
2.474407	-0.1946106	0.343014	0.02439615	-0.01719876	0.5970486	-0.4208706	0	0
2.490928	-0.1935718	0.3423176	0.06287792	-0.04215372	1.161415	-0.7531641	0	0
2.507495	-0.1899453	0.339764	0.2189002	-0.154139	4.715412	-3.384495	0	0
2.524076	-0.1867204	0.3376033	0.1945019	-0.130315	-0.7360574	0.7187302	0	0
2.540628	-0.1781439	0.3317282	0.5181464	-0.3549442	9.768103	-6.779664	0	0
2.573762	-0.1577057	0.3190661	0.6168343	-0.3821488	1.986225	-0.5475296	0	0
2.590329	-0.1447438	0.3132073	0.7823851	-0.3536366	3.33092	0.5736729	0	0
2.610466	-0.1141853	0.3040064	1.517539	-0.456919	20.02923	-2.813922	0	0
2.627036	-0.09815722	0.3010044	0.9673066	-0.1811753	-14.98999	7.512084	0	0
2.644027	-0.06207803	0.2957857	2.123323	-0.3071304	34.4445	-3.752941	0	0
2.660167	-0.03495944	0.2919782	1.680261	-0.2359127	-13.37287	2.149554	0	0
2.676734	-0.0001578947	0.2876693	2.100686	-0.260092	12.85455	-0.7392851	0	0
2.693561	0.02286444	0.2849333	1.36815	-0.1625926	-21.93608	2.919658	0	0
2.709867	0.04252698	0.2828229	1.20587	-0.1294249	-4.897827	1.001046	0	0
2.809267	0.0983136	0.2810879	0.5612348	-0.01745478	-5.571346	0.9677168	0	0
2.826155	0.09833966	0.28107	0.001543221	-0.001058814	-4.81298	0.1409946	0	0
2.8424	0.09839179	0.2810342	0.003208562	-0.002203249	0.05026155	-0.03454014	0	0
2.858966	0.09844391	0.2809985	0.003146408	-0.00215877	-0.001894271	0.001355587	0	0
2.875534	0.09844391	0.2809985	0	0	-0.09496151	0.0651537	0	0
2.892203	0.09844391	0.2809985	0	0	0	0	0	0
2.908715	0.09841785	0.2810163	-0.001578429	0.00108297	-0.04756998	0.03263807	0	0
2.925234	0.09839179	0.2810342	-0.0015777	0.00108247	2.207028E-05	-1.514468E-05	0	0
2.942237	0.09839179	0.2810342	0	0	0.04706409	-0.03229097	0	0
2.958367	0.09839179	0.2810342	0	0	0	0	0	0
2.974934	0.09836572	0.2810521	-0.001573159	0.001081153	-0.048114	0.03306634	0	0
2.9915	0.0983136	0.2810879	-0.003146317	0.002158708	-0.04747939	0.03252161	0	0
3.008066	0.09820934	0.2811237	-0.006293356	0.002158802	-0.0949826	2.817906E-06	0	0
3.024634	0.09818328	0.2811416	-0.001573113	0.001081122	0.1424623	-0.0325256	0	0
3.0412	0.09818328	0.2811416	0	0	0.04747734	-0.0326288	0	0
3.057767	0.09813116	0.2811416	-0.003146317	0	-0.09495877	0	0	0
3.074334	0.09813116	0.2811416	0	0	0.09495877	0	0	0
3.090901	0.09815722	0.2811237	0.001573159	-0.001081153	0.04747939	-0.0326302	0	0
3.107857	0.09815722	0.2811237	0	0	-0.04692829	0.03225146	0	0
3.124034	0.09815722	0.2811237	0	0	0	0	0	0
3.1406	0.09813116	0.2811058	-0.001573204	-0.001079385	-0.04804637	-0.03296492	0	0
3.157167	0.0981051	0.2810879	-0.001573113	-0.001079323	2.73352E-06	1.876221E-06	0	0
3.173734	0.09805297	0.2810521	-0.003146317	-0.002158708	-0.04748007	-0.03257638	0	0
3.190301	0.0980269	0.2809985	-0.001573608	-0.003239861	0.04746582	-0.0326302	0	0
3.206867	0.09800084	0.2809806	-0.001573227	-0.001079401	1.15246E-05	0.06520611	0	0
3.223434	0.09794872	0.2809448	-0.003146227	-0.002160445	-0.04747495	-0.03262715	0	0
3.240001	0.09792265	0.2809269	-0.001573608	-0.001079354	0.0474624	0.03262785	0	0
3.256568	0.09787052	0.2808912	-0.003146227	-0.002158646	-0.0474624	-0.03257356	0	0
3.273472	0.09779233	0.2808375	-0.004625663	-0.003175157	-0.04419976	-0.03036938	0	0
3.300538	0.09771413	0.2807838	-0.002889007	-0.001983078	0.03949606	0.02711097	0	0
3.317106	0.09768806	0.2808017	-0.00157354	0.001081106	0.03014812	0.07022557	0	0
3.333672	0.09768806	0.2808017	0	0	0.04749057	-0.03262856	0	0
3.350239	0.09763593	0.2808375	-0.003146767	0.002158708	-0.09497371	0.06515276	0	0
3.367039	0.0975838	0.2808732	-0.003103004	0.002128686	0.001311569	-0.0008997435	0	0
3.383373	0.09753167	0.280909	-0.003191736	0.002191382	-0.002678002	0.001892201	0	0
3.399939	0.09747954	0.2809448	-0.003146903	0.002158802	0.001362729	-0.0009903061	0	0
3.416574	0.09745347	0.2809627	-0.001567068	0.00107666	0.04758261	-0.03259274	0	0
3.433072	0.09742741	0.2809806	-0.001579752	0.001083878	-0.0003828018	0.0002178454	0	0
3.449639	0.09742741	0.2809806	0	0	0.04777807	-0.03278084	0	0
3.466206	0.09742741	0.2809806	0	0	0	0	0	0
3.482773	0.09740134	0.2809985	-0.001573608	0.001079354	-0.04749228	0.03257544	0	0
3.499339	0.09737527	0.2809806	-0.001573654	-0.001079385	-1.36678E-06	-0.06515369	0	0
3.515905	0.09737527	0.2809806	0	0	0.0474957	0.03257778	0	0
3.532472	0.0973492	0.2809627	-0.001573159	-0.001079354	-0.04748007	-0.03257638	0	0
3.549039	0.09732313	0.2809448	-0.001573608	-0.001081153	-1.357274E-05	-5.429446E-05	0	0
3.582189	0.09690604	0.2806944	-0.01258176	-0.007554318	-0.2214155	-0.1301997	0	0
3.598739	0.09672355	0.2806765	-0.01102729	-0.001080489	0.03127723	0.1302587	0	0
3.615306	0.0964107	0.280748	-0.01888366	0.004319091	-0.2372335	0.1630476	0	0
3.631872	0.0961239	0.280909	-0.01731244	0.009718064	0.0474208	0.162946	0	0
3.648448	0.09560241	0.2812668	-0.03145991	0.02158185	-0.4268669	0.3579623	0	0
3.665006	0.09432452	0.2821432	-0.07718002	0.05293502	-1.379876	0.9462675	0	0
3.681573	0.08952323	0.285434	-0.2898063	0.1986314	-6.419014	4.398456	0	0
3.698272	0.08283632	0.2900116	-0.4004474	0.2741276	-3.325968	2.269482	0	0
3.714706	0.07737155	0.2937479	-0.3325196	0.2273487	2.050156	-1.411851	0	0
3.731272	0.06912652	0.2993781	-0.4976996	0.3398606	-5.005347	3.409378	0	0
3.747839	0.05801377	0.3069546	-0.6707669	0.4573164	-5.223333	3.544924	0	0
3.764406	0.04649279	0.3147614	-0.6954481	0.4712488	-0.7449018	0.420493	0	0
3.781331	0.0353274	0.3222453	-0.6596756	0.4421617	1.068096	-0.8684828	0	0
3.797843	0.02983325	0.3259065	-0.3327481	0.2217363	9.777414	-6.592257	0	0
3.814106	0.0164985	0.3348533	-0.8199556	0.5501422	-14.86558	10.02025	0	0
3.830865	0.01110481	0.338514	-0.3218312	0.218429	15.08455	-10.04517	0	0
3.847239	0.002894729	0.3440498	-0.501406	0.3380777	-5.419735	3.611108	0	0
3.863806	-0.008683993	0.3518715	-0.6989131	0.4721329	-5.995808	4.069571	0	0
3.880373	-0.0171036	0.3575864	-0.5082229	0.3449652	5.755208	-3.838039	0	0
3.896939	-0.02775603	0.3648202	-0.6430191	0.4366581	-4.068333	2.767417	0	0
3.913506	-0.03524855	0.3699115	-0.4522496	0.3073085	5.757599	-3.903892	0	0
3.950951	-0.04696544	0.3778805	-0.3129107	0.2128195	2.579775	-1.749404	0	0
3.967462	-0.05725315	0.3848866	-0.6230655	0.4243203	-5.748263	3.919854	0	0
3.983869	-0.06420112	0.3896241	-0.4234821	0.2887561	6.063008	-4.118212	0	0
4.000486	-0.06910034	0.392968	-0.2948344	0.2012311	3.895629	-2.650378	0	0
4.017001	-0.07475517	0.3968311	-0.3424007	0.2339108	-1.435655	0.9863469	0	0
4.033567	-0.07713612	0.3984588	-0.143727	0.09826106	6.005664	-4.100526	0	0
4.050134	-0.07962079	0.4001583	-0.1499751	0.1025825	-0.1885767	0.1304259	0	0
4.066701	-0.07993458	0.400373	-0.01894087	0.01295944	3.954678	-2.704867	0	0
4.083267	-0.07985613	0.4003194	0.004735353	-0.003239955	0.7145805	-0.4889199	0	0
4.099834	-0.07985613	0.4003194	0	0	-0.1429194	0.09778625	0	0
4.116401	-0.07982998	0.4003015	0.00157851	-0.001079323	0.04764021	-0.0325745	0	0
4.132967	-0.07982998	0.4003015	0	0	-0.04764158	0.03257544	0	0
4.149534	-0.07982998	0.4003015	0	0	0	0	0	0
4.166101	-0.07982998	0.4003015	0	0	0	0	0	0
4.182667	-0.07982998	0.4003015	0	0	0	0	0	0
4.199234	-0.07985613	0.4003194	-0.001578555	0.001079354	-0.04764227	0.03257591	0	0
4.215801	-0.07985613	0.4003194	0	0	0.04764227	-0.03257591	0	0
4.282186	-0.08286246	0.4024127	-0.04528601	0.03153327	-0.5459302	0.3801387	0	0
4.298635	-0.082967	0.4024843	-0.006355541	0.004350268	0.4699832	-0.3281634	0	0
4.315201	-0.082967	0.4024843	0	0	0.1925032	-0.1317654	0	0
4.331768	-0.08301927	0.4025201	-0.003155312	0.002160507	-0.09523024	0.06520612	0	0
4.348732	-0.08304541	0.4025379	-0.001540672	0.001054052	0.04815336	-0.0329978	0	0
4.364901	-0.08304541	0.4025379	0	0	0.04649959	-0.03181272	0	0
4.381468	-0.08307154	0.4025201	-0.001577206	-0.001079354	-0.04818052	-0.03297213	0	0
4.398267	-0.08322834	0.4024127	-0.009333932	-0.006389969	-0.2324725	-0.1591615	0	0
4.414779	-0.08348968	0.4022338	-0.01582715	-0.01083661	-0.194925	-0.1334871	0	0
4.431168	-0.08398618	0.401858	-0.03029486	-0.02292697	-0.4397373	-0.3674793	0	0
4.447801	-0.08602402	0.4004983	-0.1225175	-0.08175062	-2.79277	-1.781351	0	0
4.464314	-0.09192441	0.3964555	-0.357331	-0.2448345	-7.08434	-4.920254	0	0
4.480868	-0.09401153	0.3950246	-0.126077	-0.0864346	6.993551	4.790308	0	0
4.497435	-0.1059439	0.3869781	-0.7202625	-0.4856986	-17.93978	-12.05467	0	0
4.514002	-0.1108334	0.3839035	-0.2951287	-0.1855878	12.83075	9.057491	0	0
4.530568	-0.115354	0.3834745	-0.272889	-0.02589699	0.6712249	4.819686	0	0
4.547377	-0.1209074	0.3872999	-0.3303789	0.227584	-1.722555	7.594984	0	0
4.563701	-0.1276961	0.3916268	-0.415861	0.265054	-2.579927	1.130882	0	0
4.580267	-0.1326636	0.3937012	-0.299855	0.1252159	3.527004	-4.25159	0	0
4.646356	-0.156114	0.3912692	-0.3548326	-0.03679887	-0.6651465	-1.960134	0	0
4.662924	-0.1583473	0.3897493	-0.1348009	-0.09173622	2.662006	-0.6646473	0	0
4.67949	-0.1608868	0.3880151	-0.1532907	-0.104686	-0.558032	-0.3908299	0	0
4.696057	-0.1609893	0.3879435	-0.006190096	-0.004317416	4.439696	3.02926	0	0
4.712624	-0.1609893	0.3879435	0	0	0.1868228	0.1303036	0	0
4.72919	-0.1609637	0.3879257	0.001547074	-0.001079354	0.04669214	-0.03257591	0	0
4.746512	-0.1609637	0.3878899	0	-0.002062859	-0.04565147	-0.02902153	0	0
4.762323	-0.1609381	0.387872	0.001621969	-0.001130949	0.04895324	0.02812633	0	0
4.77889	-0.1609381	0.387872	0	0	-0.05009522	0.03492985	0	0
4.795457	-0.1609381	0.387872	0	0	0	0	0	0
4.812058	-0.1609381	0.387872	0	0	0	0	0	0
4.82859	-0.1609381	0.387872	0	0	0	0	0	0
4.845157	-0.1609637	0.3878899	-0.001548018	0.001079385	-0.04677044	0.03261157	0	0
4.861723	-0.1609637	0.3878899	0	0	0.0467213	-0.03257732	0	0
4.87829	-0.1609637	0.3878899	0	0	0	0	0	0
4.894857	-0.1609637	0.3878899	0	0	0	0	0	0
4.911424	-0.1609637	0.3878899	0	0	0	0	0	0
4.927991	-0.1609637	0.3878899	0	0	0	0	0	0
4.944557	-0.1609637	0.3878899	0	0	0	0	0	0
4.961164	-0.1609637	0.3878899	0	0	0	0	0	0
4.977715	-0.1609637	0.3878899	0	0	0	0	0	0
4.994257	-0.1609637	0.3878899	0	0	0	0	0	0
5.010825	-0.1609637	0.3878899	0	0	0	0	0	0
5.02739	-0.1609637	0.3878899	0	0	0	0	0	0
5.044224	-0.1609637	0.3878899	0	0	0	0	0	0
5.060734	-0.1609893	0.3879078	-0.001552391	0.001081259	-0.0465578	0.03242805	0	0
5.077091	-0.1609893	0.3879078	0	0	0.04723259	-0.03289805	0	0
5.093657	-0.1609893	0.3879078	0	0	0	0	0	0
5.110271	-0.1609893	0.3879078	0	0	0	0	0	0
5.126791	-0.1609893	0.3879078	0	0	0	0	0	0
5.143357	-0.161015	0.3879257	-0.001548063	0.001079416	-0.04678796	0.0326238	0	0
5.159924	-0.1610663	0.3879614	-0.003095048	0.002158708	-0.0466908	0.03257497	0	0
5.176491	-0.1611432	0.3880151	-0.004643022	0.003238062	-0.04671928	0.03257591	0	0
5.193058	-0.1611945	0.3880508	-0.003095048	0.002158708	0.04671928	-0.03257591	0	0
5.209624	-0.1615277	0.3882832	-0.02011736	0.01402801	-0.5137492	0.3582264	0	0
5.226191	-0.1651145	0.3907864	-0.2165058	0.1510952	-5.927187	4.136815	0	0
5.248151	-0.1704867	0.3945417	-0.2446359	0.1710095	-0.7301487	0.5168986	0	0
5.26488	-0.17794	0.3997648	-0.4455354	0.3122185	-5.192723	3.649881	0	0
5.285739	-0.1829827	0.4033074	-0.2417469	0.1698337	5.42162	-3.788028	0	0
5.302308	-0.1832116	0.4034684	-0.01382044	0.009720264	6.089747	-4.277916	0	0
5.318918	-0.1831608	0.4034326	0.00306274	-0.002154863	0.5088543	-0.357913	0	0
5.335449	-0.1831608	0.4034326	0	0	-0.09241507	0.06502079	0	0
5.352007	-0.1831608	0.4034326	0	0	0	0	0	0
5.368575	-0.1831608	0.4034326	0	0	0	0	0	0
5.38514	-0.1831862	0.4034147	-0.00153547	-0.001081215	-0.04634257	-0.03263255	0	0
5.401707	-0.1831608	0.4033968	0.001535425	-0.001079385	0.09268647	5.523847E-05	0	0
5.418273	-0.1831608	0.4033968	0	0	-0.0463419	0.03257778	0	0
5.434842	-0.1831353	0.403379	0.001536104	-0.00107923	0.04635904	-0.03257075	0	0
5.451407	-0.1831608	0.4033611	-0.001536369	-0.001081215	-0.09272742	-5.99214E-05	0	0
5.467973	-0.1831608	0.4033611	0	0	0.04637238	0.03263443	0	0
5.484539	-0.1831608	0.4033611	0	0	0	0	0	0
5.501106	-0.1831608	0.4033253	0	-0.002160507	0	-0.06520706	0	0
5.517672	-0.1831099	0.4032537	0.00307175	-0.00431934	0.09270961	-0.0651565	0	0
5.534239	-0.1831099	0.4032179	0	-0.002160445	-0.09270827	0.06515744	0	0
5.55108	-0.1830335	0.4031284	0.004533051	-0.005312597	0.1356888	-0.09435411	0	0
5.567372	-0.1830081	0.403039	0.00156122	-0.005491249	-0.08969391	-0.005391957	0	0
5.583939	-0.1829572	0.4029674	0.00307175	-0.004321139	0.04597029	0.03561021	0	0
5.600505	-0.1829318	0.4029137	0.001536281	-0.003239861	-0.04634256	0.03263443	0	0
5.617072	-0.1828809	0.4028779	0.003071662	-0.002160507	0.04633923	0.03257591	0	0
5.633639	-0.1828554	0.4028243	0.001536281	-0.003239861	-0.04633923	-0.03257591	0	0
5.650206	-0.1828045	0.4027885	0.003071574	-0.002160445	0.04633589	0.03257732	0	0
5.666772	-0.1827791	0.4027705	0.001536325	-0.001081184	-0.04633523	0.03257309	0	0
5.683339	-0.1827791	0.4027705	0	0	-0.04636838	0.03263161	0	0
5.699905	-0.1827791	0.4027705	0	0	0	0	0	0
5.716472	-0.1827537	0.4027527	0.001535381	-0.001079354	0.0463399	-0.03257638	0	0
5.733039	-0.1827537	0.4027527	0	0	-0.04633856	0.03257544	0	0
5.749721	-0.1827537	0.4027527	0	0	0	0	0	0
5.766172	-0.1827537	0.4027527	0	0	0	0	0	0
5.78274	-0.1827537	0.4027527	0	0	0	0	0	0
5.799305	-0.1827282	0.4027348	0.001536413	-0.001079447	0.04637105	-0.03257919	0	0
5.815872	-0.1827282	0.4027348	0	0	-0.04637238	0.03258013	0	0
5.840134	-0.1827282	0.4027348	0	0	0	0	0	0
5.856796	-0.1827282	0.4027348	0	0	0	0	0	0
5.873268	-0.1827282	0.4027348	0	0	0	0	0	0
5.889835	-0.1827282	0.4027348	0	0	0	0	0	0
5.906402	-0.1827282	0.4027348	0	0	0	0	0	0
5.922969	-0.1827282	0.4027348	0	0	0	0	0	0
5.939534	-0.1827282	0.4027348	0	0	0	0	0	0
5.956102	-0.1827282	0.4027348	0	0	0	0	0	0
5.972668	-0.1827282	0.4027348	0	0	0	0	0	0
5.989237	-0.1827282	0.4027348	0	0	0	0	0	0
6.005802	-0.1827282	0.4027348	0	0	0	0	0	0
6.022415	-0.1827282	0.4027348	0	0	0	0	0	0
6.038934	-0.1827282	0.4027348	0	0	0	0	0	0
6.055501	-0.1827282	0.4027348	0	0	0	0	0	0
6.072068	-0.1827282	0.4027348	0	0	0	0	0	0
6.088634	-0.1827282	0.4027348	0	0	0	0	0	0
6.105473	-0.1827282	0.4027348	0	0	0	0	0	0
6.121768	-0.1827282	0.4027348	0	0	0	0	0	0
6.138335	-0.1827027	0.4027169	0.001536325	-0.001081184	0.04675054	-0.03290055	0	0
6.254302	-0.182601	0.4026453	0.0008777498	-0.0006170333	-0.004969137	0.003502151	0	0
6.270868	-0.182601	0.4026453	0	0	-0.006622874	0.004655693	0	0
6.287436	-0.182601	0.4026453	0	0	0	0	0	0
6.304002	-0.182601	0.4026453	0	0	0	0	0	0
6.320569	-0.182601	0.4026453	0	0	0	0	0	0
6.337135	-0.182601	0.4026453	0	0	0	0	0	0
6.353702	-0.1826264	0.4026632	-0.001536281	0.001079354	-0.04636705	0.03257638	0	0
6.370268	-0.1826264	0.4026632	0	0	0.04636638	-0.03257591	0	0
6.386836	-0.1826264	0.4026632	0	0	0	0	0	0
6.403685	-0.1826264	0.4026632	0	0	0	0	0	0
6.419971	-0.1826264	0.4026632	0	0	0	0	0	0
6.436709	-0.1826264	0.4026632	0	0	0	0	0	0
6.453103	-0.1826264	0.4026632	0	0	0	0	0	0
6.469669	-0.182601	0.4026453	0.001536325	-0.001079385	0.04661256	-0.03274887	0	0
6.486243	-0.182601	0.4026453	0	0	-0.0463577	0.03256981	0	0
6.502803	-0.182601	0.4026453	0	0	0	0	0	0
6.51937	-0.182601	0.4026453	0	0	0	0	0	0
6.535938	-0.182601	0.4026453	0	0	0	0	0	0
6.552502	-0.1825755	0.4026274	0.001536502	-0.001081309	0.04637505	-0.03263631	0	0
6.569069	-0.1825755	0.4026274	0	0	-0.04637572	0.03263678	0	0
6.585637	-0.1825755	0.4026274	0	0	0	0	0	0
6.605826	-0.1825501	0.4026095	0.00125986	-0.0008856663	0.0342754	-0.02409518	0	0
6.622841	-0.1825501	0.4026095	0	0	-0.0338629	0.0238052	0	0
6.638961	-0.1825501	0.4026095	0	0	0	0	0	0
6.655862	-0.1825501	0.4026095	0	0	0	0	0	0
6.672094	-0.1825501	0.4026095	0	0	0	0	0	0
6.688662	-0.1825501	0.4026095	0	0	0	0	0	0
6.705229	-0.1825501	0.4026095	0	0	0	0	0	0
6.721795	-0.1825501	0.4026095	0	0	0	0	0	0
6.738361	-0.1825501	0.4026095	0	0	0	0	0	0
6.75493	-0.1825501	0.4026095	0	0	0	0	0	0
6.771495	-0.1825501	0.4026095	0	0	0	0	0	0
6.788062	-0.1825501	0.4026095	0	0	0	0	0	0
6.804628	-0.1825501	0.4026095	0	0	0	0	0	0
6.821194	-0.1825501	0.4026095	0	0	0	0	0	0
6.837762	-0.1825501	0.4026095	0	0	0	0	0	0
6.854328	-0.1825501	0.4026095	0	0	0	0	0	0
6.870894	-0.1825246	0.4025916	0.001536281	-0.001081153	0.04636771	-0.03263114	0	0
6.887526	-0.1825246	0.4025916	0	0	-0.04627581	0.03256646	0	0
6.986864	-0.1824483	0.4025379	0.0007686234	-0.0005403165	0.006627797	-0.004659119	0	0
7.003428	-0.1824483	0.4025379	0	0	-0.006631642	0.004661822	0	0
7.019995	-0.1824737	0.4025201	-0.001536281	-0.001079354	-0.04636972	-0.03257825	0	0
7.036563	-0.1824737	0.4025201	0	0	0.04636505	0.03257497	0	0
7.053129	-0.1824737	0.4025201	0	0	0	0	0	0
7.070154	-0.1824992	0.4025379	-0.001494931	0.001050303	-0.04450354	0.03126713	0	0
7.086263	-0.1824992	0.4025379	0	0	0.04511774	-0.03169865	0	0
7.102829	-0.1824992	0.4025379	0	0	0	0	0	0
7.135962	-0.1824992	0.4025379	0	0	0	0	0	0
7.152714	-0.1824992	0.4025379	0	0	0	0	0	0
7.169096	-0.1824992	0.4025379	0	0	0	0	0	0
7.185766	-0.1824992	0.4025379	0	0	0	0	0	0
7.202229	-0.1824992	0.4025379	0	0	0	0	0	0
7.218796	-0.1824992	0.4025379	0	0	0	0	0	0
7.235363	-0.1824992	0.4025379	0	0	0	0	0	0
7.251929	-0.1824737	0.4025559	0.001536369	0.001081215	0.04637038	0.03263302	0	0
7.268797	-0.1824737	0.4025559	0	0	-0.04595241	-0.03233888	0	0
7.285061	-0.1824737	0.4025559	0	0	0	0	0	0
7.301629	-0.1824737	0.4025559	0	0	0	0	0	0
7.32156	-0.1824737	0.4025559	0	0	0	0	0	0
7.338344	-0.1824992	0.4025737	-0.001516421	0.001065401	-0.04130247	0.02901813	0	0
7.354696	-0.1824992	0.4025737	0	0	0.04576437	-0.03215295	0	0
7.371262	-0.1824992	0.4025737	0	0	0	0	0	0
7.387828	-0.1824992	0.4025737	0	0	0	0	0	0
7.404395	-0.1824992	0.4025737	0	0	0	0	0	0
7.420961	-0.1824992	0.4025737	0	0	0	0	0	0
7.437914	-0.1824992	0.4025737	0	0	0	0	0	0
7.454427	-0.1824992	0.4025737	0	0	0	0	0	0
7.47094	-0.1824992	0.4025737	0	0	0	0	0	0
7.487228	-0.1824992	0.4025737	0	0	0	0	0	0
7.503962	-0.1824992	0.4025737	0	0	0	0	0	0
7.520473	-0.1824992	0.4025737	0	0	0	0	0	0
7.536929	-0.1824992	0.4025737	0	0	0	0	0	0
7.553496	-0.1824737	0.4025559	0.001536192	-0.001079292	0.04651903	-0.03268316	0	0
7.570062	-0.1824228	0.4025559	0.003072827	0	0.04637772	0.0325745	0	0
7.586628	-0.182092	0.4025379	0.01997165	-0.001081153	0.5100442	-0.03263161	0	0
7.603195	-0.1818883	0.4025022	0.01229114	-0.002158708	-0.2318047	-0.03252161	0	0
7.619763	-0.1803861	0.4023411	0.09067051	-0.009720543	2.36546	-0.2282134	0	0
7.636556	-0.1777106	0.4022875	0.1593301	-0.003196345	2.058111	0.1955667	0	0
7.652895	-0.1761805	0.4022875	0.09363783	0	-1.982739	0.09647284	0	0
7.669462	-0.1580907	0.4059559	1.091936	0.2214349	30.33738	6.729208	0	0
7.686092	-0.1398443	0.411344	1.097185	0.3239943	0.1581106	3.089425	0	0
7.702595	-0.1186765	0.4182568	1.282675	0.4188867	5.598363	2.863981	0	0
7.719163	-0.0890011	0.4286515	1.791162	0.6274032	15.3758	6.3052	0	0
7.735731	-0.0686027	0.4361848	1.231214	0.4547021	-16.89876	-5.211979	0	0
7.752296	-0.04982714	0.4468851	1.133426	0.6459449	-2.951389	5.771968	0	0
7.768863	-0.03884887	0.4543974	0.6626692	0.4534546	-14.20848	-5.809785	0	0
7.785429	-0.02628342	0.4624205	0.7584737	0.48429	2.891467	0.9306398	0	0
7.801997	-0.01628803	0.4673537	0.6033053	0.2977587	-4.68299	-5.629527	0	0
7.818563	-0.007341973	0.4715693	0.5400319	0.2544796	-1.909653	-1.306203	0	0
7.835197	0.001342105	0.4774106	0.5220683	0.3511657	-0.5410736	2.91225	0	0
7.851696	0.006947257	0.4812896	0.3397259	0.2351016	-5.503344	-3.502972	0	0
7.868263	0.01010492	0.4834555	0.1906024	0.1307422	-4.509902	-3.156114	0	0
7.88483	0.01310451	0.48555	0.1810559	0.1264247	-0.2881177	-0.1303031	0	0
7.901396	0.01602494	0.4876633	0.1762927	0.127569	-0.1437581	0.03453668	0	0
7.917962	0.01663005	0.488115	0.03652617	0.02726167	-4.218467	-3.027499	0	0
7.934767	0.01663005	0.488115	0	0	-1.094549	-0.8169277	0	0
7.951097	0.01660374	0.4881692	-0.001610952	0.003319537	-0.04861722	0.1001809	0	0
7.972442	0.01647219	0.4882595	-0.006162839	0.004232011	-0.1208186	0.02421937	0	0
7.98901	0.01623541	0.4884221	-0.01429162	0.009814362	-0.2144098	0.1472435	0	0
8.005816	0.01613018	0.4884944	-0.00626157	0.004300133	0.2406058	-0.1652237	0	0
8.022329	0.01613018	0.4884944	0	0	0.1879252	-0.1290577	0	0
8.038711	0.01613018	0.4884944	0	0	0	0	0	0
8.055354	0.01610387	0.4884763	-0.001580675	-0.001085119	-0.04786329	-0.03285772	0	0
8.071864	0.01613018	0.4884582	0.001593458	-0.001093894	0.09574039	-0.0002646823	0	0
8.088409	0.01613018	0.4884582	0	0	-0.0482058	0.03309285	0	0
8.105388	0.01615649	0.488404	0.00154962	-0.003192931	0.04622481	-0.09524439	0	0
8.121898	0.0161828	0.4883498	0.001593458	-0.003283488	0.001309032	-0.002704152	0	0
8.138109	0.01623541	0.4883137	0.00324571	-0.002228072	0.05049437	0.0322545	0	0
8.154675	0.01623541	0.4882776	0	-0.002182157	-0.09902164	0.0014008	0	0
8.171434	0.01620911	0.4882595	-0.001569791	-0.001077648	-0.04710523	0.03314338	0	0
8.187809	0.01620911	0.4882234	0	-0.002205882	0.04737775	-0.03405118	0	0
8.204456	0.01623541	0.4882053	0.001580313	-0.001086661	0.04785646	0.03389329	0	0
8.220942	0.01620911	0.4881872	-0.001595762	-0.001095476	-0.09585688	-0.0002660615	0	0
8.23751	0.01620911	0.4881872	0	0	0.0482783	0.03314262	0	0
8.254076	0.0161828	0.4881692	-0.001588158	-0.001090179	-0.04793208	-0.03290262	0	0
8.270642	0.01615649	0.4881511	-0.001588046	-0.001090179	3.390647E-06	0	0	0
8.287209	0.01615649	0.4881511	0	0	0.04793007	0.03290356	0	0
8.304028	0.0161828	0.4881692	0.001564183	0.001073798	0.04685249	0.03216382	0	0
8.320343	0.0161828	0.4881692	0	0	-0.04720715	-0.03240729	0	0
8.336909	0.0161828	0.4881692	0	0	0	0	0	0
8.353562	0.0161828	0.4881692	0	0	0	0	0	0
8.370074	0.01620911	0.4881872	0.001593386	0.001093768	0.04804424	0.03297961	0	0
8.386609	0.01620911	0.4881872	0	0	-0.04821617	-0.03309762	0	0
8.403176	0.01641958	0.488115	0.01270397	-0.004362264	0.3837821	-0.1317824	0	0
8.419743	0.01670897	0.4879162	0.01746895	-0.01199557	0.1438115	-0.2303802	0	0
8.436621	0.01728775	0.4876633	0.0342917	-0.01498404	0.5030065	-0.08935637	0	0
8.452909	0.0185505	0.4869407	0.07752748	-0.04436369	1.30362	-0.8858384	0	0
8.469443	0.02086539	0.4856042	0.1400009	-0.0808304	1.903366	-1.111024	0	0
8.48601	0.0224699	0.4847555	0.09685402	-0.05123122	-1.303489	0.8942059	0	0
8.502576	0.02799269	0.4812896	0.3333751	-0.2092172	7.138631	-4.768302	0	0
8.519142	0.03177877	0.4787635	0.2285417	-0.1524847	-3.16406	1.712288	0	0
8.535709	0.03606331	0.4759318	0.258615	-0.1709198	0.9076401	-0.5563872	0	0
8.552276	0.03627356	0.4757515	0.01269155	-0.0108856	-7.422199	4.829981	0	0
8.57561	0.03919045	0.4737502	0.1250034	-0.0857638	2.814777	-1.87661	0	0
8.592177	0.04208041	0.4717676	0.1744382	-0.1196717	1.238914	-0.849786	0	0
8.608745	0.04378778	0.4705602	0.1030574	-0.07287589	-2.154277	1.412301	0	0
8.625311	0.04788442	0.4676419	0.2472878	-0.1761629	4.353009	-3.117296	0	0
8.641877	0.04924962	0.4667053	0.08240814	-0.0565328	-4.976365	3.61065	0	0
8.658444	0.04945963	0.4664532	0.01267642	-0.01521666	-2.104568	1.24696	0	0
8.675288	0.04943338	0.4664352	-0.001558342	-0.001068679	-0.4260499	0.4234523	0	0
8.691578	0.04940713	0.4664172	-0.001611577	-0.001106858	-0.001606678	-0.001152305	0	0
8.742222	0.04938088	0.4663632	-0.0005183667	-0.001066304	0.01633275	0.0006058938	0	0
8.758789	0.04940713	0.4663812	0.001584581	0.001086519	0.03128867	0.03203073	0	0
8.775356	0.04940713	0.4663812	0	0	-0.04782275	-0.03279119	0	0
8.791923	0.04940713	0.4663812	0	0	0	0	0	0
8.808489	0.04943338	0.4663632	0.001584672	-0.001086581	0.04782826	-0.03279497	0	0
8.825395	0.04945963	0.4663452	0.001552628	-0.001066523	-0.0009573466	0.0005992533	0	0
8.841621	0.04961714	0.4662371	0.009706738	-0.006657728	0.2461057	-0.1687526	0	0
8.858188	0.04964339	0.4662191	0.001584672	-0.001086581	-0.2476765	0.1698881	0	0
8.907888	0.04982714	0.4660571	0.003697202	-0.003260817	0.03187905	-0.03281024	0	0
8.924455	0.04987964	0.465985	0.00316912	-0.004348123	-0.007969006	-0.01640795	0	0
8.941021	0.0499059	0.465967	0.001584672	-0.001086581	-0.04782147	0.09843921	0	0
8.957588	0.0499059	0.465895	0	-0.004347873	-0.04782688	-0.09842882	0	0
8.974499	0.0499059	0.465823	0	-0.004259601	0	0.002636724	0	0
8.991011	0.04993214	0.4657689	0.001589664	-0.00327228	0.04756272	0.02954065	0	0
9.007288	0.04998465	0.4656249	0.00322538	-0.008848796	0.04988577	-0.1700716	0	0
9.024035	0.05029964	0.4653368	0.01880855	-0.01720254	0.4718627	-0.2529537	0	0
9.040421	0.05289797	0.4635545	0.1585793	-0.1087775	4.218533	-2.763897	0	0
9.057056	0.05746298	0.460387	0.2744071	-0.1904022	3.507705	-2.471903	0	0
9.073554	0.05927259	0.4590735	0.1096893	-0.07961262	-4.971336	3.343731	0	0
9.09012	0.06040013	0.4581921	0.06806199	-0.05321009	-1.258997	0.7985307	0	0
9.107092	0.06045257	0.4580841	0.003089704	-0.006360278	-1.937281	1.396923	0	0
9.123255	0.06037391	0.4579582	-0.004866679	-0.007790374	-0.2401241	-0.04316039	0	0
9.139821	0.06040013	0.4578323	0.001582873	-0.007600671	0.1970583	0.005796147	0	0
9.156387	0.06068854	0.4574905	0.01740958	-0.02062885	0.4776785	-0.3932138	0	0
9.18952	0.06053123	0.456915	-0.004748058	-0.01737181	-0.4458383	0.06553562	0	0
9.206087	0.06013792	0.4565373	-0.02373971	-0.0227971	-0.3821275	-0.1091614	0	0
9.222653	0.05893168	0.4553144	-0.07281308	-0.07381735	-1.48108	-1.539839	0	0
9.259631	0.05877433	0.4540558	-0.004255227	-0.03403779	1.280401	0.7429315	0	0
9.27621	0.05874811	0.4540737	-0.00158169	0.001083971	0.04992	0.6557897	0	0
9.292765	0.05872189	0.4540558	-0.001584193	-0.001085532	-7.554073E-05	-0.06547761	0	0
9.309331	0.05864321	0.4540018	-0.004749295	-0.003256145	-0.09556147	-0.06553565	0	0
9.325897	0.05853831	0.4539299	-0.006332168	-0.004340928	-0.04777397	-0.03274067	0	0
9.342463	0.05848585	0.4538939	-0.003166197	-0.002171363	0.09555472	0.06548135	0	0
9.359268	0.05845963	0.453876	-0.001560638	-0.001069392	0.04811244	0.03302186	0	0
9.375778	0.0584334	0.453858	-0.001588494	-0.001088479	-0.0008361395	-0.0005729439	0	0
9.39229	0.0584334	0.453858	0	0	0.04810421	0.03296231	0	0
9.408731	0.0584334	0.453858	0	0	0	0	0	0
9.425298	0.0584334	0.453858	0	0	0	0	0	0
9.441864	0.0584334	0.453858	0	0	0	0	0	0
9.45843	0.0584334	0.453858	0	0	0	0	0	0
9.474997	0.0584334	0.453858	0	0	0	0	0	0
9.491563	0.0584334	0.453858	0	0	0	0	0	0
9.508129	0.0584334	0.453858	0	0	0	0	0	0
9.590962	0.0584334	0.453858	0	0	0	0	0	0
9.607529	0.05822359	0.4537861	-0.01266501	-0.004340928	-0.1274152	-0.04367149	0	0
9.624095	0.05748921	0.4534984	-0.04432967	-0.01736371	-0.9556964	-0.393051	0	0
9.640661	0	0	-3.470256	-27.37479	-103.4006	-825.6964	0	0
9.657228	0.04712299	0.4470827	2.844513	26.98752	190.5911	1640.752	0	0
9.673794	0.03398691	0.4403665	-0.7929409	-0.4054135	-109.7849	-826.7679	0	0
9.690498	0.02562597	0.4373871	-0.5005184	-0.1783584	8.789153	6.824449	0	0
9.706927	0.01139424	0.4334937	-0.866259	-0.2369845	-11.03839	-1.76939	0	0
9.723521	-0.01176262	0.4294763	-1.395501	-0.2421031	-16.02654	-0.1550023	0	0
9.740061	-0.03750871	0.4267331	-1.556636	-0.1658558	-4.863195	2.301213	0	0
9.757047	-0.05607274	0.4249585	-1.092908	-0.1044755	13.83211	1.830858	0	0
9.773559	-0.07370833	0.4232558	-1.068053	-0.1031174	0.7420107	0.04054115	0	0
9.789761	-0.09067175	0.4217326	-1.046997	-0.09401304	0.6436318	0.2783034	0	0
9.806328	-0.1162109	0.4193854	-1.541544	-0.1416755	-15.09183	-1.454491	0	0
9.823092	-0.1287833	0.4169671	-0.7499369	-0.1442524	23.74926	-0.07730823	0	0
9.83946	-0.1415986	0.4120244	-0.7829552	-0.3019759	-0.9965513	-4.76038	0	0
9.856117	-0.1484781	0.4072088	-0.4130131	-0.2891063	11.20195	0.3896942	0	0
9.872594	-0.1504595	0.4058307	-0.1202538	-0.08364082	8.835749	6.20114	0	0
9.88916	-0.1578341	0.4007308	-0.4451546	-0.3078425	-9.832695	-6.785167	0	0
9.905726	-0.1646024	0.3960083	-0.4085608	-0.2850692	1.104468	0.6873372	0	0
9.922294	-0.1700522	0.392199	-0.3289489	-0.22993	2.402761	1.664154	0	0
9.93886	-0.1770477	0.3872999	-0.4222726	-0.2957264	-2.816595	-1.985796	0	0
9.955426	-0.1840765	0.3823663	-0.4242892	-0.2978114	-0.06086653	-0.06292906	0	0
9.971994	-0.1896154	0.3784344	-0.3343074	-0.2373151	2.715658	1.825781	0	0
10.0096	-0.1960288	0.3739493	-0.1705444	-0.1192686	3.022937	2.179046	0	0
10.02617	-0.2004301	0.3708047	-0.2656511	-0.1897952	-1.755595	-1.301866	0	0
10.04275	-0.2027541	0.3691254	-0.1401631	-0.101283	3.785601	2.670151	0	0
10.0593	-0.2030823	0.3688574	-0.01983038	-0.0161913	3.631961	2.568294	0	0
10.07587	-0.2030319	0.3688217	0.003047464	-0.002156971	0.6908126	0.4237764	0	0
10.09243	-0.2029561	0.3687681	0.004572096	-0.003234558	0.04601612	-0.03252348	0	0
10.109	-0.2028804	0.3687145	0.004571833	-0.003234371	-7.940561E-06	5.621636E-06	0	0
10.1258	-0.2028299	0.3687145	0.003004228	0	-0.04697376	0.09691893	0	0
10.14213	-0.2027541	0.3686609	0.004639499	-0.003281597	0.04935399	-0.09904164	0	0
10.1587	-0.2027036	0.3686609	0.003047464	0	-0.04839734	0.09975947	0	0
10.17534	-0.2026784	0.3686788	0.001517816	0.001072769	-0.0460641	0.03230557	0	0
10.19183	-0.2026784	0.3686788	0	0	-0.0458091	-0.03237717	0	0
10.2084	-0.2026784	0.3686788	0	0	0	0	0	0
10.22497	-0.2026784	0.3686788	0	0	0	0	0	0
10.24189	-0.2026784	0.3686788	0	0	0	0	0	0
10.2584	-0.2026531	0.3686609	0.001528837	-0.001081196	0.04572843	-0.03233923	0	0
10.27467	-0.2026531	0.3686609	0	0	-0.0466411	0.03298468	0	0
10.29142	-0.2026531	0.3686609	0	0	0	0	0	0
10.3078	-0.2026531	0.3686609	0	0	0	0	0	0
10.32437	-0.2026784	0.3686788	-0.001523732	0.001077586	-0.04625123	0.03270896	0	0
10.34093	-0.2026784	0.3686788	0	0	0.04598897	-0.03252349	0	0
10.3575	-0.2026784	0.3686788	0	0	0	0	0	0
10.37448	-0.2026531	0.3686609	0.001486674	-0.001051379	0.04431815	-0.03134188	0	0
10.39063	-0.2026531	0.3686609	0	0	-0.0448705	0.0317325	0	0
10.4075	-0.2026531	0.3686609	0	0	0	0	0	0
10.42401	-0.2026531	0.3686609	0	0	0	0	0	0
10.44033	-0.2026279	0.368643	0.001547889	-0.00109585	0.04714963	-0.03338027	0	0
10.4569	-0.2026026	0.3686252	0.001523732	-0.001077586	-0.0007346062	0.000555418	0	0
10.47355	-0.2026026	0.3686252	0	0	-0.04587146	0.03244038	0	0
10.49003	-0.2025774	0.3686073	0.001532306	-0.001084818	0.04624508	-0.03273988	0	0
10.5066	-0.2025774	0.3686073	0	0	-0.04636385	0.03282396	0	0
10.52316	-0.2025774	0.3686073	0	0	0	0	0	0
10.53973	-0.2025774	0.3686073	0	0	0	0	0	0
10.55661	-0.2025774	0.3686073	0	0	0	0	0	0
10.57286	-0.2025521	0.3685895	0.001552692	-0.001098067	0.0468617	-0.03314069	0	0
10.59221	-0.2025521	0.3685895	0	0	-0.04361648	0.03084566	0	0
10.60914	-0.2025269	0.3685716	0.001491321	-0.001055803	0.0411084	-0.0291033	0	0
10.62534	-0.2025269	0.3685716	0	0	-0.04500946	0.03186511	0	0
10.64217	-0.2025269	0.3685716	0	0	0	0	0	0
10.65847	-0.2025269	0.3685716	0	0	0	0	0	0
10.6916	-0.2024764	0.3685716	0.001524182	0	0.03082987	0	0	0
10.70817	-0.2024764	0.3685716	0	0	-0.03066836	0	0	0
10.72474	-0.2024511	0.3685537	0.001524632	-0.001077586	0.04601612	-0.03252349	0	0
10.7413	-0.2024511	0.3685537	0	0	-0.04601479	0.03252255	0	0
10.75787	-0.2024259	0.3685001	0.001523732	-0.003234558	0.04598765	-0.09762195	0	0
10.77444	-0.2024006	0.3684823	0.001524632	-0.001079385	2.714626E-05	0.06504697	0	0
10.791	-0.2023754	0.3684644	0.001524632	-0.001077586	0	5.429603E-05	0	0
10.80757	-0.2023501	0.3684465	0.001523644	-0.001079323	-2.979467E-05	-5.241824E-05	0	0
10.82414	-0.2023501	0.3684465	0	0	-0.045985	0.03257497	0	0
10.8407	-0.2023501	0.3684465	0	0	0	0	0	0
10.85732	-0.2023501	0.3684465	0	0	0	0	0	0
10.87384	-0.2023501	0.3684465	0	0	0	0	0	0
10.8904	-0.2023501	0.3684465	0	0	0	0	0	0
10.90735	-0.2023501	0.3684465	0	0	0	0	0	0
10.92354	-0.2023501	0.3684465	0	0	0	0	0	0
10.9401	-0.2023501	0.3684465	0	0	0	0	0	0
10.95667	-0.2023501	0.3684465	0	0	0	0	0	0
10.97324	-0.2023501	0.3684465	0	0	0	0	0	0
10.98991	-0.2023501	0.3684465	0	0	0	0	0	0
11.00637	-0.2023501	0.3684465	0	0	0	0	0	0
11.02293	-0.2023501	0.3684465	0	0	0	0	0	0
11.0395	-0.2023501	0.3684465	0	0	0	0	0	0
11.05607	-0.2023501	0.3684465	0	0	0	0	0	0
11.07263	-0.2023501	0.3684465	0	0	0	0	0	0
11.0892	-0.2023501	0.3684465	0	0	0	0	0	0
11.10577	-0.2023501	0.3684465	0	0	0	0	0	0
11.12233	-0.2023249	0.3684287	0.001524719	-0.001077648	0.04601612	-0.03252349	0	0
11.1389	-0.2023249	0.3684287	0	0	-0.04602009	0.0325263	0	0
11.15547	-0.2023249	0.3684287	0	0	0	0	0	0
11.17696	-0.2023249	0.3684287	0	0	0	0	0	0
11.19353	-0.2023249	0.3684287	0	0	0	0	0	0
11.2101	-0.2023249	0.3684287	0	0	0	0	0	0
11.22666	-0.2022996	0.3684108	0.001524632	-0.001079385	0.04601612	-0.03257778	0	0
11.2478	-0.2022996	0.3684108	0	0	-0.04043841	0.02862896	0	0
11.2646	-0.2022491	0.3683751	0.003005626	-0.002124958	0.07922444	-0.05601115	0	0
11.28093	-0.2022491	0.3683394	0	-0.002187956	-0.09071259	-0.001901357	0	0
11.2975	-0.2022239	0.3683572	0.001524632	0.001077586	0.04634427	0.0992628	0	0
11.31413	-0.2022239	0.3683572	0	0	-0.04591963	-0.03245529	0	0
11.33063	-0.2022491	0.3683751	-0.001530977	0.001083878	-0.04620631	0.03271243	0	0
11.3472	-0.2022744	0.3683572	-0.001523732	-0.001079385	0.0002191245	-0.06542675	0	0
11.36376	-0.2022744	0.3683572	0	0	0.04598897	0.03257778	0	0
11.38033	-0.2022744	0.3683572	0	0	0	0	0	0
11.3969	-0.2022744	0.3683572	0	0	0	0	0	0
11.41346	-0.2022744	0.3683572	0	0	0	0	0	0
11.43003	-0.2022744	0.3683572	0	0	0	0	0	0
11.4466	-0.2022744	0.3683572	0	0	0	0	0	0
11.51286	-0.2022744	0.3683572	0	0	0	0	0	0
11.56256	-0.2022491	0.3683394	0.0005079107	-0.0003591954	0.004379902	-0.003097475	0	0
11.57913	-0.2022491	0.3683394	0	0	-0.007664829	0.005420581	0	0
11.59569	-0.2022239	0.3683215	0.001524632	-0.001079385	0.04601612	-0.03257778	0	0
11.61234	-0.2022239	0.3683215	0	0	-0.04590513	0.03249921	0	0
11.62883	-0.2021986	0.3683036	0.001531951	-0.00108276	0.04623571	-0.03267869	0	0
11.64539	-0.2021986	0.3683036	0	0	-0.04634777	0.03275789	0	0
11.66196	-0.2021986	0.3683036	0	0	0	0	0	0
11.67852	-0.2021986	0.3683036	0	0	0	0	0	0
11.69509	-0.2021986	0.3683036	0	0	0	0	0	0
11.71166	-0.2021986	0.3683036	0	0	0	0	0	0
11.72822	-0.2021986	0.3683036	0	0	0	0	0	0
11.74479	-0.2021986	0.3683036	0	0	0	0	0	0
11.76144	-0.2021986	0.3683036	0	0	0	0	0	0
11.77792	-0.2021986	0.3683036	0	0	0	0	0	0
11.79449	-0.2021986	0.3683036	0	0	0	0	0	0
11.81106	-0.2021986	0.3683036	0	0	0	0	0	0
11.82762	-0.2021986	0.3683036	0	0	0	0	0	0
11.84419	-0.2021986	0.3683036	0	0	0	0	0	0
11.86101	-0.2021986	0.3683036	0	0	0	0	0	0
11.87732	-0.2022239	0.3683215	-0.001548432	0.001094408	-0.04673445	0.03303119	0	0
11.89389	-0.2022239	0.3683215	0	0	0.0470964	-0.03328701	0	0
11.91046	-0.2022239	0.3683215	0	0	0	0	0	0
11.92706	-0.2022239	0.3683215	0	0	0	0	0	0
11.94657	-0.2022239	0.3683215	0	0	0	0	0	0
11.96313	-0.2022239	0.3683215	0	0	0	0	0	0
11.9797	-0.2022239	0.3683215	0	0	0	0	0	0
11.99627	-0.2021986	0.3683036	0.001524632	-0.001077586	0.04601479	-0.03252255	0	0
12.01312	-0.2021986	0.3683036	0	0	-0.04562087	0.03224413	0	0
12.0294	-0.2021986	0.3683036	0	0	0	0	0	0
12.04597	-0.2021986	0.3683036	0	0	0	0	0	0
12.06253	-0.2021733	0.3682857	0.001524544	-0.001079323	0.04601215	-0.03257497	0	0
12.07916	-0.2021733	0.3682857	0	0	-0.04592359	0.03251227	0	0
12.09567	-0.2021481	0.3682679	0.001529632	-0.001081759	0.04616704	-0.03264942	0	0
12.11223	-0.2021228	0.36825	0.001524632	-0.001077586	-0.0001512123	0.0001261716	0	0
12.1288	-0.2021228	0.36825	0	0	-0.04601612	0.03252349	0	0
12.14537	-0.2020976	0.3682322	0.001524632	-0.001079385	0.04601612	-0.03257778	0	0
12.16193	-0.2020976	0.3682322	0	0	-0.04601612	0.03257778	0	0
12.1785	-0.2020976	0.3682322	0	0	0	0	0	0
12.19506	-0.2020976	0.3682322	0	0	0	0	0	0
12.21163	-0.2020976	0.3682322	0	0	0	0	0	0
12.22827	-0.2020976	0.3682322	0	0	0	0	0	0
12.24476	-0.2020976	0.3682322	0	0	0	0	0	0
12.26133	-0.2020976	0.3682322	0	0	0	0	0	0
12.2779	-0.2020976	0.3682322	0	0	0	0	0	0
12.29446	-0.2020976	0.3682322	0	0	0	0	0	0
12.31103	-0.2020976	0.3682322	0	0	0	0	0	0
12.3276	-0.2020976	0.3682322	0	0	0	0	0	0
12.34435	-0.2020976	0.3682322	0	0	0	0	0	0
12.36086	-0.2020976	0.3682322	0	0	0	0	0	0
12.37737	-0.2020976	0.3682322	0	0	0	0	0	0
12.39386	-0.2020976	0.3682322	0	0	0	0	0	0
12.41043	-0.2020976	0.3682322	0	0	0	0	0	0
12.46013	-0.2020976	0.3682322	0	0	0	0	0	0
12.4767	-0.2020976	0.3682322	0	0	0	0	0	0
12.49345	-0.2020976	0.3682322	0	0	0	0	0	0
12.50983	-0.2020976	0.3682322	0	0	0	0	0	0
12.5264	-0.2020976	0.3682322	0	0	0	0	0	0
12.54296	-0.2020976	0.3682322	0	0	0	0	0	0
12.55953	-0.2020976	0.3682322	0	0	0	0	0	0
12.57609	-0.2020976	0.3682322	0	0	0	0	0	0
12.59602	-0.2020976	0.3682322	0	0	0	0	0	0
12.61259	-0.2020976	0.3682322	0	0	0	0	0	0
12.62915	-0.2020976	0.3682322	0	0	0	0	0	0
12.64572	-0.2020976	0.3682322	0	0	0	0	0	0
12.66228	-0.2020976	0.3682322	0	0	0	0	0	0
12.67885	-0.2020976	0.3682322	0	0	0	0	0	0
12.69559	-0.2020976	0.3682322	0	0	0	0	0	0
12.7121	-0.2020976	0.3682322	0	0	0	0	0	0
12.72862	-0.2020976	0.3682322	0	0	0	0	0	0
12.74513	-0.2020976	0.3682322	0	0	0	0	0	0
12.76168	-0.2020976	0.3682322	0	0	0	0	0	0
12.77825	-0.2020976	0.3682322	0	0	0	0	0	0
12.82601	-0.2020976	0.3682322	0	0	0	0	0	0
12.84258	-0.2020976	0.3682322	0	0	0	0	0	0
12.85914	-0.2020976	0.3682322	0	0	0	0	0	0
12.87571	-0.2020976	0.3682322	0	0	0	0	0	0
12.89227	-0.2020976	0.3682322	0	0	0	0	0	0
12.90884	-0.2020976	0.3682322	0	0	0	0	0	0
12.92541	-0.2020976	0.3682322	0	0	0	0	0	0
12.94198	-0.2021228	0.36825	-0.001524544	0.001079323	-0.04601215	0.03257497	0	0
12.95854	-0.2021228	0.36825	0	0	0.04601347	-0.03257591	0	0
12.97511	-0.2021228	0.36825	0	0	0	0	0	0
12.99168	-0.2021228	0.36825	0	0	0	0	0	0
13.00824	-0.2021228	0.36825	0	0	0	0	0	0
13.02483	-0.2021228	0.36825	0	0	0	0	0	0
13.04137	-0.2021228	0.36825	0	0	0	0	0	0
13.05794	-0.2021228	0.36825	0	0	0	0	0	0
13.07451	-0.2021228	0.36825	0	0	0	0	0	0
13.09107	-0.2020976	0.3682322	0.001524632	-0.001079385	0.04601612	-0.03257778	0	0
13.10764	-0.2020976	0.3682322	0	0	-0.04601612	0.03257778	0	0
13.12421	-0.2020976	0.3682322	0	0	0	0	0	0
13.14077	-0.2020723	0.3682143	0.001524632	-0.001077586	0.04601612	-0.03252349	0	0
13.15734	-0.2020723	0.3682143	0	0	-0.04601612	0.03252349	0	0
13.1739	-0.2020471	0.3681964	0.001524632	-0.001079385	0.04601612	-0.03257778	0	0
13.19047	-0.2020218	0.3681786	0.001524632	-0.001077586	0	5.429603E-05	0	0
13.20704	-0.2020218	0.3681786	0	0	-0.04601612	0.03252349	0	0
13.23133	-0.2020218	0.3681428	0	-0.001470805	0	-0.0359952	0	0
13.2479	-0.2019965	0.3681607	0.001524544	0.001077524	0.0373095	0.06236414	0	0
13.26447	-0.2019965	0.3681607	0	0	-0.04601215	-0.03252068	0	0
13.28103	-0.2019965	0.3681607	0	0	0	0	0	0
13.36386	-0.2019965	0.3681607	0	0	0	0	0	0
13.38057	-0.2019965	0.3681607	0	0	0	0	0	0
13.397	-0.2019965	0.3681607	0	0	0	0	0	0
13.41359	-0.2019965	0.3681607	0	0	0	0	0	0
13.43013	-0.2020218	0.3681428	-0.001527181	-0.001079388	-0.04609174	-0.03257694	0	0
13.4467	-0.2020218	0.3681428	0	0	0.04613158	0.03260509	0	0
13.46326	-0.2020218	0.3681428	0	0	0	0	0	0
13.47983	-0.2019965	0.368125	0.001524544	-0.001077524	0.04601215	-0.03252068	0	0
13.4964	-0.2019965	0.368125	0	0	-0.04601215	0.03252068	0	0
13.51296	-0.2019965	0.368125	0	0	0	0	0	0
13.52953	-0.2019965	0.368125	0	0	0	0	0	0
13.54618	-0.2019965	0.368125	0	0	0	0	0	0
13.56266	-0.2019965	0.368125	0	0	0	0	0	0
13.57923	-0.2019965	0.368125	0	0	0	0	0	0
13.5958	-0.2019965	0.368125	0	0	0	0	0	0
13.61236	-0.2019965	0.368125	0	0	0	0	0	0
13.62893	-0.2019965	0.368125	0	0	0	0	0	0
13.6455	-0.2019965	0.368125	0	0	0	0	0	0
13.66206	-0.2019965	0.368125	0	0	0	0	0	0
13.67863	-0.2020218	0.3681428	-0.001524632	0.001077586	-0.04602407	0.0325291	0	0
13.6952	-0.2020218	0.3681428	0	0	0.04601612	-0.03252349	0	0
13.7118	-0.2020218	0.3681428	0	0	0	0	0	0
13.72833	-0.2020218	0.3681428	0	0	0	0	0	0
13.74489	-0.2020218	0.3681428	0	0	0	0	0	0
13.76184	-0.2020218	0.3681428	0	0	0	0	0	0
13.77803	-0.2020218	0.3681428	0	0	0	0	0	0
13.7946	-0.2020218	0.3681428	0	0	0	0	0	0
13.81116	-0.2019965	0.368125	0.001524632	-0.001077586	0.04601479	-0.03252255	0	0
13.82788	-0.2019965	0.368125	0	0	-0.04580123	0.03237161	0	0
13.84429	-0.2019965	0.368125	0	0	0	0	0	0
13.86086	-0.2019965	0.368125	0	0	0	0	0	0
13.87743	-0.2019965	0.368125	0	0	0	0	0	0
13.89399	-0.2019965	0.368125	0	0	0	0	0	0
13.91094	-0.2019965	0.368125	0	0	0	0	0	0
13.92713	-0.2019965	0.368125	0	0	0	0	0	0
13.94369	-0.2019965	0.368125	0	0	0	0	0	0
14.0631	-0.1971172	0.3643558	0.04086288	-0.03156573	0.30052	-0.2321454	0	0
14.07967	-0.1946106	0.3625875	0.1513073	-0.106744	0.8122471	-0.5528874	0	0
14.09623	-0.1920255	0.3607656	0.1560476	-0.109975	0.1430707	-0.09751616	0	0
14.1128	-0.1913915	0.360319	0.0382692	-0.0269525	-3.554662	2.505695	0	0
14.12937	-0.1913915	0.360319	0	0	-1.155	0.8134513	0	0
14.14593	-0.1913915	0.3602833	0	-0.002156971	0	-0.06510127	0	0
14.16262	-0.1913661	0.3602655	0.001520251	-0.001070071	0.04572334	0.03268982	0	0
14.17907	-0.1914168	0.3600511	-0.003083333	-0.01302899	-0.1389405	-0.3609312	0	0
14.19563	-0.1913154	0.3598011	0.006123712	-0.0150934	0.2788564	-0.06252559	0	0
14.2122	-0.1892093	0.3577114	0.1271318	-0.1261405	3.652241	-3.351603	0	0
14.22877	-0.1841274	0.3522822	0.3067418	-0.3277059	5.420797	-6.083428	0	0
14.24533	-0.18283	0.3366212	0.07831749	-0.9453579	-6.894058	-18.64131	0	0
14.2619	-0.1830335	0.3202271	-0.012287	-0.9896073	-2.734607	-1.335527	0	0
14.27847	-0.1833897	0.2944987	-0.02150135	-1.553057	-0.2781057	-17.00593	0	0
14.29503	-0.1831608	0.2737704	0.01382073	-1.251162	1.066053	9.111476	0	0
14.3116	-0.1828554	0.2450363	0.0184314	-1.734496	0.1391543	-14.58745	0	0
14.32823	-0.1829827	0.2305527	-0.007648564	-0.8707215	-0.7855349	26.01708	0	0
14.34474	-0.1838985	0.1942332	-0.05546862	-2.199719	-1.442755	-40.09653	0	0
14.3613	-0.1843309	0.179914	-0.02611848	-0.8649539	0.8876284	40.36694	0	0
14.37786	-0.1850683	0.1591479	-0.04451295	-1.253518	-0.55537	-11.73161	0	0
14.39443	-0.1860851	0.1330468	-0.06137744	-1.57556	-0.5090007	-9.719799	0	0
14.411	-0.1867966	0.1149046	-0.04294964	-1.095123	0.5561842	14.50044	0	0
14.42756	-0.1875587	0.09258144	-0.04600255	-1.347432	-0.09213974	-7.614915	0	0
14.44413	-0.1881175	0.08205998	-0.03372899	-0.6351129	0.3704275	21.49845	0	0
14.4607	-0.1887777	0.06689458	-0.0398518	-0.9154378	-0.1847975	-8.460709	0	0
14.47726	-0.1897931	0.04751436	-0.06129109	-1.16986	-0.6470762	-7.678908	0	0
14.49385	-0.1909349	0.02827836	-0.0688528	-1.159952	-0.2281078	0.2988672	0	0
14.5104	-0.1923044	0.00884553	-0.08274452	-1.174117	-0.4192531	-0.4274911	0	0
14.54388	-0.1936732	-0.01935924	-0.04087723	-0.8423003	0.8367363	6.631502	0	0
14.5601	-0.1945093	-0.03201484	-0.05156866	-0.7805634	-0.2151244	1.242221	0	0
14.57666	-0.1954211	-0.04726337	-0.05504055	-0.9204556	-0.1059159	-4.267651	0	0
14.59323	-0.195573	-0.05698703	-0.009171176	-0.5869555	1.38442	10.06563	0	0
14.6098	-0.1956996	-0.05969172	-0.007642507	-0.163255	0.04613665	12.78767	0	0
14.62636	-0.1959781	-0.07097933	-0.01681142	-0.6813608	-0.2767265	-15.63691	0	0
14.64295	-0.1953451	-0.0780983	0.0381628	-0.4291831	1.658171	7.60636	0	0
14.6595	-0.1945853	-0.08053339	0.04592574	-0.1471771	0.2342993	8.511448	0	0
14.67606	-0.1923297	-0.08225472	0.1361519	-0.1039057	2.724912	1.306836	0	0
14.69263	-0.1905797	-0.08358997	0.1056385	-0.08060084	-0.920947	0.7033814	0	0
14.7095	-0.1902245	-0.08386098	0.02105859	-0.0160658	-2.529693	1.930172	0	0
14.7299	-0.1901991	-0.08388034	0.001243777	-0.0009487181	-0.5316344	0.4055936	0	0
14.74647	-0.1901737	-0.08389969	0.001531739	-0.001168367	0.007789038	-0.005941257	0	0
14.79617	-0.1901484	-0.08391906	0.0005105993	-0.0003896206	-0.01540948	0.01175165	0	0
14.81308	-0.1901484	-0.08391906	0	0	-0.007665467	0.005849252	0	0
14.8293	-0.190123	-0.08393841	0.001564337	-0.001193232	0.04721451	-0.03601388	0	0
14.84609	-0.190123	-0.08393841	0	0	-0.04738226	0.03614184	0	0
14.86243	-0.190123	-0.08393841	0	0	0	0	0	0
14.879	-0.1900976	-0.08395777	0.001531739	-0.001168367	0.04654683	-0.0355046	0	0
14.89557	-0.1900976	-0.08395777	0	0	-0.04622931	0.03526241	0	0
14.91214	-0.1900976	-0.08395777	0	0	0	0	0	0
14.9287	-0.1900976	-0.08395777	0	0	0	0	0	0
14.94527	-0.1900976	-0.08395777	0	0	0	0	0	0
14.96183	-0.1900976	-0.08395777	0	0	0	0	0	0
14.9784	-0.1900976	-0.08395777	0	0	0	0	0	0
14.99497	-0.1900976	-0.08395777	0	0	0	0	0	0
15.04473	-0.1900976	-0.08395777	0	0	0	0	0	0
15.06124	-0.1900976	-0.08395777	0	0	0	0	0	0
15.0778	-0.1900976	-0.08395777	0	0	0	0	0	0
15.09436	-0.1900976	-0.08395777	0	0	0	0	0	0
15.11093	-0.1900976	-0.08395777	0	0	0	0	0	0
15.1275	-0.1900722	-0.08397713	0.001531827	-0.001168884	0.04623331	-0.03527903	0	0
15.1443	-0.1900722	-0.08397713	0	0	-0.04590562	0.03502898	0	0
15.16063	-0.1900722	-0.08397713	0	0	0	0	0	0
15.1772	-0.1900722	-0.08397713	0	0	0	0	0	0
15.19376	-0.1900722	-0.08397713	0	0	0	0	0	0
15.21035	-0.1900722	-0.08397713	0	0	0	0	0	0
15.2269	-0.1900722	-0.08397713	0	0	0	0	0	0
15.24346	-0.1900722	-0.08397713	0	0	0	0	0	0
15.26003	-0.1900976	-0.08395777	-0.001531827	0.001168884	-0.04623331	0.03527903	0	0
15.2766	-0.1901484	-0.08388034	-0.003063479	0.004673919	-0.04622665	0.1057852	0	0
15.29316	-0.1903514	-0.08360933	-0.01225302	0.01635804	-0.2773408	0.3526275	0	0
15.30973	-0.1918226	-0.08221602	-0.08881091	0.08410525	-2.310588	2.044674	0	0
15.32629	-0.1974968	-0.07649542	-0.3425123	0.345316	-7.657164	7.883811	0	0
15.34286	-0.2020723	-0.07142252	-0.2761967	0.306218	2.001525	-1.18005	0	0
15.35943	-0.2068914	-0.06428209	-0.2908952	0.4310223	-0.4436273	3.76682	0	0
15.39666	-0.2156214	-0.02515888	-0.2345035	1.050919	1.048292	11.52354	0	0
15.42979	-0.2174538	0.03814156	-0.05530296	1.910466	2.546868	12.21622	0	0
15.44651	-0.2175792	0.06132736	-0.00750196	1.386489	0.9587776	-10.50977	0	0
15.46292	-0.2174538	0.0941979	0.007644519	2.002979	0.4571348	18.60625	0	0
15.47954	-0.2170272	0.1198208	0.0256781	1.542338	0.5460777	-13.94873	0	0
15.49606	-0.2154707	0.1550661	0.09421362	2.133432	2.068466	17.83975	0	0
15.51262	-0.2144157	0.1731141	0.06368282	1.089441	-0.9227492	-31.55312	0	0
15.52919	-0.2127821	0.2002197	0.09861353	1.636191	1.054271	16.5019	0	0
15.54575	-0.2106188	0.237124	0.1305813	2.227676	0.9648453	17.85209	0	0
15.56232	-0.2089069	0.2654468	0.103329	1.709566	-0.8225005	-15.63703	0	0
15.57889	-0.2066393	0.3033274	0.1368831	2.286615	1.012695	17.41587	0	0
15.59545	-0.2050002	0.3318175	0.09894095	1.719763	-1.145163	-17.10861	0	0
15.61202	-0.2039658	0.3601583	0.06244333	1.710752	-1.101564	-0.2719691	0	0
15.62864	-0.2032086	0.3970457	0.0455632	2.21963	-0.5086673	15.3346	0	0
15.64515	-0.2031833	0.4230587	0.001528484	1.575132	-1.329009	-19.45156	0	0
15.66172	-0.2032591	0.4536962	-0.004571196	1.84939	-0.1843859	8.290475	0	0
15.67829	-0.2034357	0.4666333	-0.01066612	0.7809298	-0.1839559	-32.24804	0	0
15.69485	-0.2032843	0.4827515	0.009142392	0.9729542	0.5978566	5.795642	0	0
15.7117	-0.2032843	0.4976435	0	0.8841245	-0.2736418	-2.658772	0	0
15.72799	-0.2025016	0.5037812	0.0480468	0.3767819	1.450097	-15.31207	0	0
15.74455	-0.2033853	0.5051762	-0.05333655	0.08420519	-3.085599	-8.904565	0	0
15.76123	-0.2033348	0.504995	0.003027076	-0.01086459	1.695397	-2.859664	0	0
15.77769	-0.2033853	0.5044877	-0.003067951	-0.03083164	-0.1839536	-0.6026241	0	0
15.79425	-0.2032086	0.5032015	0.01066612	-0.07763658	0.4159078	-1.41739	0	0
15.81082	-0.2015166	0.5011189	0.1021314	-0.125716	2.760587	-1.451123	0	0
15.84395	-0.1993179	0.4990732	0.0663615	-0.06174173	-0.7197337	1.287239	0	0
15.95992	-0.1762826	0.4777353	0.1986373	-0.1840008	0.8871655	-0.819984	0	0
15.97649	-0.1742158	0.4762744	0.1247437	-0.08817202	-0.5575406	0.7230453	0	0
15.99339	-0.1703589	0.4733356	0.2281278	-0.1738228	3.088406	-2.558656	0	0
16.00962	-0.1654986	0.4696594	0.2995595	-0.2265822	2.155999	-1.59242	0	0
16.02619	-0.1649097	0.4662551	0.03554571	-0.2054797	-8.051144	0.6435246	0	0
16.04275	-0.1686971	0.4614306	-0.228606	-0.2912067	-7.972115	-2.587247	0	0
16.05944	-0.171841	0.4555482	-0.1883786	-0.3524697	1.20961	-1.842132	0	0
16.07589	-0.1741392	0.4483224	-0.1397524	-0.4393883	1.46754	-2.623211	0	0
16.11357	-0.1703078	0.4321305	0.1016796	-0.4297033	4.460494	0.1789321	0	0
16.13014	-0.1697454	0.4249226	0.03394471	-0.4350661	-1.248596	-0.09885579	0	0
16.14751	-0.1683646	0.4179702	0.07948455	-0.4002045	1.3418	1.027175	0	0
16.16352	-0.1681344	0.4135822	0.01437876	-0.2740741	-1.950302	3.778348	0	0
16.18003	-0.1650377	0.4107353	0.1875406	-0.1724165	5.324419	3.125792	0	0
16.1964	-0.1626042	0.4089988	0.1486323	-0.1060622	-1.183178	2.017793	0	0
16.21305	-0.1622711	0.4087661	0.02000734	-0.0139748	-3.894912	2.788512	0	0
16.22954	-0.1621685	0.4086944	0.006219625	-0.004344698	-0.416114	0.2906371	0	0
16.24611	-0.1612714	0.4080679	0.05415414	-0.03781588	1.45034	-1.012727	0	0
16.26267	-0.1579881	0.4057769	0.1981808	-0.1382847	4.346734	-3.032154	0	0
16.2796	-0.1567302	0.4049	0.07429621	-0.05179874	-3.698395	2.581912	0	0
16.2958	-0.1567559	0.4049179	-0.001584572	0.00110543	-2.290218	1.596743	0	0
16.31237	-0.1567302	0.4049	0.001549728	-0.001081122	0.09564494	-0.06672387	0	0
16.32894	-0.1567302	0.4049	0	0	-0.04677088	0.03262833	0	0
16.34565	-0.1567302	0.4049	0	0	0	0	0	0
16.36207	-0.1567302	0.4049	0	0	0	0	0	0
16.37864	-0.1567302	0.4049	0	0	0	0	0	0
16.39521	-0.1567302	0.4049	0	0	0	0	0	0
16.41178	-0.1567302	0.4049	0	0	0	0	0	0
16.42834	-0.1567046	0.4048821	0.001549728	-0.001079323	0.04677088	-0.03257403	0	0
16.44526	-0.1567046	0.4048821	0	0	-0.04628596	0.0322363	0	0
16.46148	-0.1567046	0.4048821	0	0	0	0	0	0
16.49461	-0.1566789	0.4048284	0.0007749086	-0.001620877	0.01570207	-0.03284402	0	0
16.51118	-0.1566532	0.4048105	0.001549728	-0.001079323	0.01558999	0.0108965	0	0
16.52779	-0.1566019	0.4047748	0.003090916	-0.002154492	0.04644896	-0.0324039	0	0
16.54431	-0.1566019	0.4047748	0	0	-0.09328938	0.06502644	0	0
16.56087	-0.1565762	0.4047568	0.001549728	-0.001081122	0.04683829	-0.03267535	0	0
16.57782	-0.1565505	0.404739	0.00151553	-0.001055505	-0.001020581	0.000764482	0	0
16.59433	-0.1565762	0.4047211	-0.001554919	-0.001082939	-0.09178402	-0.0008200509	0	0
16.61057	-0.1565762	0.4047211	0	0	0.04746583	0.03305803	0	0
16.62735	-0.1565762	0.4047211	0	0	0	0	0	0
16.67689	-0.1565762	0.4047211	0	0	0	0	0	0
16.69341	-0.1565762	0.4047211	0	0	0	0	0	0
16.70997	-0.1565762	0.4047211	0	0	0	0	0	0
16.72654	-0.1565762	0.4047211	0	0	0	0	0	0
16.74311	-0.1565762	0.4047211	0	0	0	0	0	0
16.75968	-0.1565762	0.4047211	0	0	0	0	0	0
16.77624	-0.1565762	0.4047211	0	0	0	0	0	0
16.79297	-0.1565762	0.4047211	0	0	0	0	0	0
16.81254	-0.1565762	0.4047211	0	0	0	0	0	0
16.82911	-0.1565762	0.4047211	0	0	0	0	0	0
16.84568	-0.1565762	0.4047211	0	0	0	0	0	0
16.86224	-0.1566019	0.4046674	-0.001549728	-0.003241567	-0.04677088	-0.09783068	0	0
16.92425	-0.1565762	0.4046495	0.0004140935	-0.0002883994	0.02499473	0.03758673	0	0
16.94081	-0.1565762	0.4046137	0	-0.002160445	-0.005270416	-0.02382664	0	0
16.95738	-0.1565762	0.4046137	0	0	0	0.06520236	0	0
16.9741	-0.1565762	0.4046137	0	0	0	0	0	0
16.99051	-0.1565762	0.4046137	0	0	0	0	0	0
17.00712	-0.1565762	0.4046137	0	0	0	0	0	0
17.02365	-0.1565762	0.4046137	0	0	0	0	0	0
17.04021	-0.1565762	0.4046137	0	0	0	0	0	0
17.05716	-0.1565762	0.4046137	0	0	0	0	0	0
17.07367	-0.1565762	0.4046137	0	0	0	0	0	0
17.08991	-0.1565762	0.4046137	0	0	0	0	0	0
17.10648	-0.1565505	0.4045958	0.001549728	-0.001081122	0.04722761	-0.03294695	0	0
17.12305	-0.1565505	0.4045958	0	0	-0.04677088	0.03262833	0	0
17.13961	-0.1565505	0.40456	0	-0.002160445	0	-0.06520236	0	0
17.15618	-0.1565505	0.40456	0	0	0	0.06520611	0	0
17.17275	-0.1565505	0.40456	0	0	0	0	0	0
17.18931	-0.1565762	0.4045421	-0.001549728	-0.001079323	-0.04677088	-0.03257403	0	0
17.20626	-0.1566019	0.4045242	-0.001514677	-0.00105667	0.001045732	0.0006758533	0	0
17.22605	-0.1566276	0.4045063	-0.00129794	-0.000903963	0.005900545	0.004157357	0	0
17.24279	-0.1566532	0.4044884	-0.001533486	-0.001069791	-0.006449095	-0.004540268	0	0
17.25918	-0.1566532	0.4044884	0	0	0.04628069	0.03228635	0	0
17.27575	-0.1566532	0.4044884	0	0	0	0	0	0
17.29232	-0.1566789	0.4044705	-0.001549193	-0.00107895	-0.04674666	-0.03255716	0	0
17.30888	-0.1566789	0.4044705	0	0	0.04675743	0.03256466	0	0
17.39171	-0.1566789	0.4044705	0	0	0	0	0	0
17.40828	-0.1566532	0.4044526	0.001549728	-0.001081122	0.01559089	-0.01087653	0	0
17.42484	-0.1566532	0.4043811	0	-0.004319588	-0.04677358	-0.09774273	0	0
17.44143	-0.1566532	0.4043811	0	0	0	0.1303204	0	0
17.45798	-0.1566532	0.4043811	0	0	0	0	0	0
17.47455	-0.1566532	0.4043811	0	0	0	0	0	0
17.49111	-0.1566532	0.4043811	0	0	0	0	0	0
17.50768	-0.1566789	0.4043632	-0.001549728	-0.001081122	-0.04677088	-0.03262833	0	0
17.52449	-0.1566532	0.4043453	0.001527742	-0.001064011	0.0922147	0.0005127239	0	0
17.54419	-0.1566532	0.4043453	0	0	-0.04184395	0.02914263	0	0
17.56076	-0.1566532	0.4043453	0	0	0	0	0	0
17.57753	-0.1566532	0.4043453	0	0	0	0	0	0
17.59403	-0.1566532	0.4043453	0	0	0	0	0	0
17.61046	-0.1566532	0.4043453	0	0	0	0	0	0
17.62702	-0.1566532	0.4043453	0	0	0	0	0	0
17.64359	-0.1566532	0.4043453	0	0	0	0	0	0
17.67672	-0.1566532	0.4043453	0	0	0	0	0	0
17.70986	-0.1566532	0.4043453	0	0	0	0	0	0
17.72643	-0.1566532	0.4043095	0	-0.002160445	0	-0.04346824	0	0
17.74299	-0.1566789	0.4042916	-0.001549728	-0.001081122	-0.04677088	0.03257403	0	0
17.75965	-0.1566789	0.4042916	0	0	0.04664201	0.03253842	0	0
17.77612	-0.1567046	0.4042737	-0.00155852	-0.001085446	-0.04703894	-0.03276072	0	0
17.79269	-0.1567046	0.4042379	0	-0.002160445	0.04716928	-0.03253529	0	0
17.80926	-0.1567046	0.4042379	0	0	0	0.06520236	0	0
17.82583	-0.1567302	0.40422	-0.001549728	-0.001081122	-0.04677088	-0.03262833	0	0
17.84271	-0.1567302	0.40422	0	0	0.04632555	0.03231765	0	0
17.85922	-0.1567302	0.40422	0	0	0	0	0	0
17.87573	-0.1567559	0.4042021	-0.001555099	-0.001083064	-0.04709292	-0.03279832	0	0
17.89209	-0.1567816	0.4041842	-0.001569423	-0.001094861	-0.0004357711	-0.000358922	0	0
17.90866	-0.1568073	0.4041663	-0.001549728	-0.001079323	0.000598136	0.0004719079	0	0
17.92527	-0.1567816	0.4041484	0.001545635	-0.001076473	0.09329473	8.591238E-05	0	0
17.9418	-0.1567816	0.4041484	0	0	-0.04664737	0.03248801	0	0
17.95836	-0.1568073	0.4041305	-0.001549728	-0.001081122	-0.04683289	-0.03267158	0	0
17.97493	-0.1568073	0.4041305	0	0	0.04677088	0.03262833	0	0
17.9915	-0.1568073	0.4041305	0	0	0	0	0	0
18.00806	-0.1568073	0.4041305	0	0	0	0	0	0
18.02484	-0.1568073	0.4041305	0	0	0	0	0	0
18.04119	-0.1568073	0.4041305	0	0	0	0	0	0
18.05776	-0.1567816	0.4041126	0.001549728	-0.001079323	0.04707711	-0.0327873	0	0
18.07433	-0.1567816	0.4041126	0	0	-0.04677088	0.03257403	0	0
18.0909	-0.1567816	0.4041126	0	0	0	0	0	0
18.10746	-0.1567816	0.4041126	0	0	0	0	0	0
18.12403	-0.1567816	0.4041126	0	0	0	0	0	0
18.14465	-0.1567559	0.4040947	0.001245115	-0.0008686176	0.03348202	-0.02335774	0	0
18.16123	-0.1567816	0.4040768	-0.00154848	-0.001078454	-0.07509477	-0.005640621	0	0
18.17779	-0.1567816	0.4040768	0	0	0.04673322	0.03254781	0	0
18.19435	-0.1567816	0.4040768	0	0	0	0	0	0
18.21098	-0.1568329	0.4040411	-0.003088788	-0.002153009	-0.0930591	-0.06486592	0	0
18.22749	-0.1568586	0.4040231	-0.001555099	-0.001084869	0.04628682	0.03223653	0	0
18.24405	-0.1569613	0.4039158	-0.006199626	-0.006480282	-0.1404227	-0.163125	0	0
18.26101	-0.1586809	0.4027527	-0.1014017	-0.06858762	-2.839856	-1.852647	0	0
18.27719	-0.1638084	0.3991744	-0.3170143	-0.2212301	-6.507576	-4.607025	0	0
18.29403	-0.1708445	0.3942556	-0.4175832	-0.2919278	-3.045342	-2.14081	0	0
18.31032	-0.1759765	0.3906612	-0.3151371	-0.2207173	3.091828	2.149138	0	0
18.32706	-0.1771497	0.389803	-0.07007131	-0.05126096	7.42002	5.130742	0	0
18.34357	-0.1770477	0.389946	0.00617869	0.008665511	2.293177	1.802256	0	0
18.36002	-0.1770222	0.3898924	0.001550178	-0.003261626	-0.1404487	-0.3619201	0	0
18.37659	-0.1770222	0.3898924	0	0	-0.04695475	0.09879435	0	0
18.39315	-0.1770222	0.3898924	0	0	0	0	0	0
18.40972	-0.1770222	0.3898924	0	0	0	0	0	0
18.42629	-0.1770222	0.3898924	0	0	0	0	0	0
18.44314	-0.1770222	0.3898924	0	0	0	0	0	0
18.45942	-0.1770222	0.3898924	0	0	0	0	0	0
18.47599	-0.1770222	0.3898924	0	0	0	0	0	0
18.49255	-0.1770222	0.3898924	0	0	0	0	0	0
18.52569	-0.1770222	0.3898924	0	0	0	0	0	0
18.54226	-0.1770222	0.3898924	0	0	0	0	0	0
18.55883	-0.1770222	0.3898924	0	0	0	0	0	0
18.57539	-0.1770222	0.3898924	0	0	0	0	0	0
18.59196	-0.1770222	0.3898924	0	0	0	0	0	0
18.60852	-0.1770477	0.3899103	-0.001538935	0.001079323	-0.04644514	0.03257403	0	0
18.62528	-0.1770477	0.3899103	0	0	0.04618725	-0.03239316	0	0
18.64166	-0.1770477	0.3899103	0	0	0	0	0	0
18.6583	-0.1770477	0.3899103	0	0	0	0	0	0
18.67479	-0.1770477	0.3899103	0	0	0	0	0	0
18.69136	-0.1770477	0.3899103	0	0	0	0	0	0
18.70792	-0.1770477	0.3899103	0	0	0	0	0	0
18.72484	-0.1770477	0.3899103	0	0	0	0	0	0
18.74136	-0.1770477	0.3899103	0	0	0	0	0	0
18.75762	-0.1770477	0.3899103	0	0	0	0	0	0
18.77419	-0.1770477	0.3899103	0	0	0	0	0	0
18.79076	-0.1770477	0.3899103	0	0	0	0	0	0
18.8074	-0.1770477	0.3899103	0	0	0	0	0	0
18.8271	-0.1770477	0.3899103	0	0	0	0	0	0
18.84367	-0.1770477	0.3899103	0	0	0	0	0	0
18.86024	-0.1770477	0.3899103	0	0	0	0	0	0
18.8768	-0.1770477	0.3899103	0	0	0	0	0	0
18.89337	-0.1770477	0.3899103	0	0	0	0	0	0
18.90994	-0.1770222	0.3899281	0.001538935	0.001079323	0.04644514	0.03257403	0	0
18.9265	-0.1770477	0.389946	-0.001538935	0.001079323	-0.09289028	0	0	0
18.94307	-0.1770477	0.389946	0	0	0.04644514	-0.03257403	0	0
18.95964	-0.1770477	0.389946	0	0	0	0	0	0
18.97621	-0.1770477	0.389946	0	0	0	0	0	0
18.99277	-0.1770477	0.389946	0	0	0	0	0	0
19.00934	-0.1770732	0.3899281	-0.001539112	-0.001079447	-0.04645584	-0.03258154	0	0
19.02606	-0.1770732	0.3899281	0	0	0.04623226	0.03242473	0	0
19.04247	-0.1770732	0.3899639	0	0.002177656	0	0.06572179	0	0
19.05909	-0.1770732	0.3899639	0	0	0	-0.06594576	0	0
19.07561	-0.1770732	0.3899639	0	0	0	0	0	0
19.09217	-0.1770732	0.3899639	0	0	0	0	0	0
19.10874	-0.1770732	0.3899639	0	0	0	0	0	0
19.12531	-0.1770732	0.3899639	0	0	0	0	0	0
19.14187	-0.1770732	0.3899639	0	0	0	0	0	0
19.15844	-0.1770732	0.3899639	0	0	0	0	0	0
19.17517	-0.1770732	0.3899639	0	0	0	0	0	0
19.19168	-0.1770732	0.3899639	0	0	0	0	0	0
19.20819	-0.1770732	0.3899639	0	0	0	0	0	0
19.22471	-0.1770732	0.3899639	0	0	0	0	0	0
19.24128	-0.1770732	0.3899639	0	0	0	0	0	0
19.25823	-0.1770732	0.3899639	0	0	0	0	0	0
19.27441	-0.1770732	0.3899639	0	0	0	0	0	0
19.29098	-0.1770732	0.3899639	0	0	0	0	0	0
19.30754	-0.1770732	0.3899639	0	0	0	0	0	0
19.32411	-0.1770732	0.3899639	0	0	0	0	0	0
19.34068	-0.1770986	0.3899817	-0.001538935	0.001079323	-0.04644514	0.03257403	0	0
19.35724	-0.1770986	0.3899817	0	0	0.04644514	-0.03257403	0	0
19.37381	-0.1770986	0.3899817	0	0	0	0	0	0
19.39038	-0.1770986	0.3899817	0	0	0	0	0	0
19.41506	-0.1771242	0.3899996	-0.001033457	0.0007243857	-0.0250522	0.01755996	0	0
19.43163	-0.1771242	0.3899996	0	0	0.0250522	-0.01755996	0	0
19.44837	-0.1771242	0.3899996	0	0	0	0	0	0
19.46477	-0.1771242	0.3899996	0	0	0	0	0	0
19.48133	-0.1770986	0.3900175	0.001540011	0.001079447	0.04671968	0.03274744	0	0
19.4979	-0.1770986	0.3900175	0	0	-0.04647496	-0.03257591	0	0
19.51446	-0.1770986	0.3900175	0	0	0	0	0	0
19.53103	-0.1770986	0.3900175	0	0	0	0	0	0
19.5476	-0.1770986	0.3900175	0	0	0	0	0	0
19.56445	-0.1771242	0.3899996	-0.001513694	-0.001061	-0.0452923	-0.03174694	0	0
19.58096	-0.1771242	0.3899996	0	0	0.04536997	0.03180138	0	0
19.5973	-0.1771242	0.3899996	0	0	0	0	0	0
19.61386	-0.1771242	0.3899996	0	0	0	0	0	0
19.63043	-0.1771242	0.3899996	0	0	0	0	0	0
19.64701	-0.1771242	0.3899996	0	0	0	0	0	0
19.66356	-0.1771242	0.3899996	0	0	0	0	0	0
19.68013	-0.1771242	0.3899996	0	0	0	0	0	0
19.6967	-0.1771242	0.3899996	0	0	0	0	0	0
19.71326	-0.1771242	0.3899996	0	0	0	0	0	0
19.72983	-0.1771242	0.3899996	0	0	0	0	0	0
19.7464	-0.1771751	0.3899639	-0.00307787	-0.002158646	-0.09289563	-0.06515182	0	0
19.76296	-0.1772771	0.3899281	-0.006156639	-0.002156847	-0.09291743	5.428939E-05	0	0
19.77953	-0.1774301	0.3898566	-0.009233609	-0.004317292	-0.09286314	-0.06520236	0	0
19.7961	-0.1776596	0.3898745	-0.01384951	0.001079323	-0.1393083	0.1628702	0	0
19.81313	-0.178042	0.3897493	-0.02245569	-0.00735047	-0.2561663	-0.2509163	0	0
19.82923	-0.1805644	0.3885872	-0.1566155	-0.07215738	-4.04895	-1.955876	0	0
19.84615	-0.1992926	0.3807577	-1.107115	-0.4628358	-28.78388	-11.83088	0	0
19.86237	-0.2129078	0.3790063	-0.8394997	-0.1079913	8.076637	10.70923	0	0
19.87893	-0.2233174	0.3792029	-0.6283234	0.01186536	6.441164	3.655792	0	0
19.89569	-0.2403418	0.3803288	-1.016246	0.06721081	-11.64251	1.661054	0	0
19.91207	-0.2640061	0.3824556	-1.444517	0.1298263	-12.92524	1.88974	0	0
19.92871	-0.281019	0.383975	-1.022308	0.09129656	12.78496	-1.166725	0	0
19.94522	-0.3020695	0.3863703	-1.274868	0.1450687	-7.617877	1.621912	0	0
19.96177	-0.3151361	0.3879257	-0.789701	0.09399856	14.67616	-1.544856	0	0
19.97834	-0.3262044	0.3886944	-0.6680848	0.04640369	3.672709	-1.437326	0	0
19.9949	-0.338432	0.3894454	-0.7381459	0.04533139	-2.114569	-0.03236413	0	0
20.01147	-0.3451362	0.390393	-0.4046616	0.05720052	10.06516	0.3582319	0	0
20.02804	-0.3497194	0.3901248	-0.2766431	-0.01618985	3.863606	-2.214926	0	0
20.04883	-0.3619967	0.3877826	-0.5903224	-0.1126164	-8.395012	-2.580667	0	0
20.0654	-0.3681046	0.3869603	-0.3686698	-0.04963807	5.932098	1.68549	0	0
20.08197	-0.3770989	0.3874608	-0.5427709	0.03020689	-5.253778	2.409448	0	0
20.09854	-0.3814588	0.3873178	-0.2632284	-0.008634774	8.436611	-1.172244	0	0
20.11535	-0.3905607	0.3864418	-0.5414132	-0.05210638	-8.335179	-1.302528	0	0
20.13186	-0.3940659	0.3844397	-0.2123058	-0.121267	9.876763	-2.075564	0	0
20.14824	-0.3994386	0.3800786	-0.328034	-0.2662728	-3.518815	-4.409022	0	0
20.1648	-0.4007779	0.3790063	-0.08083559	-0.06471595	7.502789	6.117508	0	0
20.18139	-0.400711	0.3790599	0.004035156	0.003232077	2.559636	2.04926	0	0
20.19794	-0.400711	0.3790599	0	0	-0.1217883	-0.0975499	0	0
20.2145	-0.400711	0.3790599	0	0	0	0	0	0
20.23143	-0.400711	0.3790599	0	0	0	0	0	0
20.24763	-0.400711	0.3790599	0	0	0	0	0	0
20.2642	-0.400711	0.3790599	0	0	0	0	0	0
20.28096	-0.4007333	0.379042	-0.001331868	-0.001066917	-0.03996351	-0.0320135	0	0
20.29734	-0.4007333	0.3790063	0	-0.002182222	0.04019586	-0.03365997	0	0
20.3139	-0.4007333	0.3789706	0	-0.002156847	0	0.0007702919	0	0
20.33047	-0.4007556	0.3788812	-0.001347355	-0.005394816	-0.04066325	-0.09772211	0	0
20.34704	-0.4007779	0.3788276	-0.001345711	-0.003234744	4.961939E-05	0.06519488	0	0
20.38017	-0.4019375	0.3778268	-0.03499615	-0.03020306	-0.6770741	-0.5426244	0	0
20.39705	-0.4084499	0.3725914	-0.3858888	-0.3102272	-7.016353	-5.599288	0	0
20.4133	-0.4145951	0.3675533	-0.3780194	-0.3099132	0.2375115	0.009477002	0	0
20.42987	-0.4205318	0.3626946	-0.3583407	-0.2932719	0.5995309	0.5069949	0	0
20.44644	-0.4260662	0.3580686	-0.3340613	-0.2792263	0.7327533	0.4238969	0	0
20.46309	-0.4297695	0.3549968	-0.2223521	-0.1844401	3.362487	2.853096	0	0
20.47957	-0.4380237	0.3481927	-0.5008753	-0.4128816	-8.405848	-6.894377	0	0
20.49614	-0.4426106	0.3443891	-0.276868	-0.2295882	6.778504	5.546492	0	0
20.51271	-0.4480973	0.3398176	-0.3311759	-0.2759325	-1.639017	-1.398674	0	0
20.52927	-0.4520443	0.336514	-0.2382444	-0.1994049	2.804679	2.309607	0	0
20.54584	-0.4546178	0.3343176	-0.1553344	-0.1325786	2.502229	2.016822	0	0
20.56241	-0.4583283	0.3312282	-0.2239649	-0.1864728	-2.071275	-1.62653	0	0
20.57898	-0.4637529	0.3266744	-0.3273911	-0.2748396	-3.12123	-2.666759	0	0
20.59569	-0.4656876	0.3250313	-0.1157698	-0.09831338	6.358561	5.30406	0	0
20.61211	-0.4662757	0.3246027	-0.03581879	-0.0261058	2.413204	2.17948	0	0
20.62871	-0.4662967	0.3246206	-0.001265437	0.001076967	1.046376	0.8231733	0	0
20.64524	-0.4663177	0.3246385	-0.001269328	0.001080011	-0.000117464	9.18672E-05	0	0
20.66224	-0.4663177	0.3246385	0	0	0.03786377	-0.03221648	0	0
20.67837	-0.4663177	0.3246385	0	0	0	0	0	0
20.69494	-0.4663177	0.3246385	0	0	0	0	0	0
20.7335	-0.4663177	0.3246385	0	0	0	0	0	0
20.75006	-0.4663177	0.3246385	0	0	0	0	0	0
20.76663	-0.4663177	0.3246385	0	0	0	0	0	0
20.7832	-0.4662967	0.3246206	0.001266406	-0.001077524	0.0382202	-0.03251974	0	0
20.79984	-0.4662967	0.3246206	0	0	-0.03813897	0.03245063	0	0
20.81633	-0.4662547	0.3245849	0.002545453	-0.002166074	0.07682193	-0.06537224	0	0
20.8329	-0.4662547	0.3245849	0	0	-0.0769859	0.06551177	0	0
20.84947	-0.4662127	0.3245492	0.002536409	-0.002155048	0.07654898	-0.06503949	0	0
20.86603	-0.4661917	0.3245313	0.001266552	-0.001079447	-0.03832658	0.03246357	0	0
20.8826	-0.4661707	0.3245134	0.001268205	-0.001077524	4.988994E-05	5.804506E-05	0	0
20.8994	-0.4661497	0.3244956	0.001248439	-0.001062238	-0.0005922507	0.0004580549	0	0
20.91591	-0.4661497	0.3244956	0	0	-0.03747305	0.03188403	0	0
20.9323	-0.4661497	0.3244956	0	0	0	0	0	0
20.94887	-0.4661497	0.3244956	0	0	0	0	0	0
21.00922	-0.4661497	0.3244956	0	0	0	0	0	0
21.02579	-0.4661497	0.3244956	0	0	0	0	0	0
21.04236	-0.4661497	0.3244956	0	0	0	0	0	0
21.05893	-0.4661497	0.3244956	0	0	0	0	0	0
21.15833	-0.4661707	0.3245134	-0.0002110676	0.0001795874	-0.00182001	0.001548559	0	0
21.1749	-0.4661707	0.3245134	0	0	0.00182001	-0.001548559	0	0
21.19146	-0.4661707	0.3245134	0	0	0	0	0	0
21.20803	-0.4661707	0.3245134	0	0	0	0	0	0
21.2246	-0.4661497	0.3244956	0.001266406	-0.001077524	0.0382202	-0.03251974	0	0
21.24117	-0.4661497	0.3244956	0	0	-0.0382202	0.03251974	0	0
21.25773	-0.4661497	0.3244956	0	0	0	0	0	0
21.2743	-0.4661497	0.3244956	0	0	0	0	0	0
21.29087	-0.4661497	0.3244956	0	0	0	0	0	0
21.30743	-0.4661497	0.3244956	0	0	0	0	0	0
21.324	-0.4661497	0.3244956	0	0	0	0	0	0
21.34072	-0.4661497	0.3244956	0	0	0	0	0	0
21.35724	-0.4661497	0.3244956	0	0	0	0	0	0
21.37375	-0.4661287	0.3245134	0.001272453	0.001081134	0.03853135	0.03273798	0	0
21.39027	-0.4661287	0.3245134	0	0	-0.03852022	-0.03272853	0	0
21.40684	-0.4661287	0.3245134	0	0	0	0	0	0
21.4234	-0.4661497	0.3245313	-0.001268205	0.001077524	-0.03827669	0.03252162	0	0
21.43997	-0.4661497	0.3245313	0	0	0.03827449	-0.03251974	0	0
21.45681	-0.4661497	0.3245313	0	0	0	0	0	0
21.47332	-0.4661497	0.3245313	0	0	0	0	0	0
21.48967	-0.4661497	0.3245313	0	0	0	0	0	0
21.52644	-0.4661497	0.3245313	0	0	0	0	0	0
21.54301	-0.4661077	0.324567	0.002536117	0.002156599	0.04754714	0.04043193	0	0
21.55957	-0.4659397	0.3246742	0.01014437	0.006468433	0.2296309	0.1301389	0	0
21.57614	-0.4653724	0.3250135	0.03423972	0.02048195	0.7272828	0.4229776	0	0
21.59271	-0.4644052	0.3252635	0.05838238	0.01509253	0.7286268	-0.162653	0	0
21.60928	-0.4637739	0.3247277	0.0381055	-0.03234012	-0.6119575	-1.43152	0	0
21.62593	-0.463058	0.3242277	0.04298172	-0.03002083	0.1467676	0.06980748	0	0
21.64245	-0.4601679	0.3225667	0.1750097	-0.1005789	3.98026	-2.127122	0	0
21.65898	-0.457206	0.3201378	0.1791746	-0.1469349	0.1260367	-1.40282	0	0
21.67554	-0.4508725	0.3156367	0.382333	-0.2717167	6.138401	-3.770264	0	0
21.69211	-0.4416647	0.3107064	0.555783	-0.2975945	5.235033	-0.7810404	0	0
21.70868	-0.4364687	0.3081159	0.3136315	-0.1563615	-7.308147	4.262421	0	0
21.72524	-0.4259135	0.3029701	0.6371136	-0.310604	9.76271	-4.655046	0	0
21.74201	-0.415873	0.3011473	0.5987386	-0.1086926	-1.151138	6.056742	0	0
21.75852	-0.4020044	0.3001108	0.8400116	-0.06277979	7.249918	1.379615	0	0
21.77494	-0.398746	0.2998607	0.1984388	-0.0152366	-19.48271	1.443749	0	0
21.87434	-0.3419399	0.2841106	0.5714917	-0.1584519	3.220974	-1.236534	0	0
21.89112	-0.3338823	0.2837529	0.4803333	-0.02132249	-0.7846667	1.180372	0	0
21.90763	-0.3226818	0.2848081	0.6783239	0.06390421	5.947978	2.560356	0	0
21.92404	-0.3182491	0.2862924	0.2700792	0.09043434	-12.39936	0.8057832	0	0
21.94065	-0.3091299	0.2889567	0.5490444	0.160411	8.447878	2.119098	0	0
21.95718	-0.3024293	0.2897076	0.4055249	0.04544651	-4.331675	-3.469836	0	0
21.97374	-0.2992126	0.2890997	0.1941612	-0.03669339	-6.387426	-2.482273	0	0
21.99031	-0.2952188	0.2860957	0.241091	-0.1813436	1.416424	-4.365802	0	0
22.0072	-0.2941345	0.285291	0.06419377	-0.04764072	-5.287331	3.996282	0	0
22.02344	-0.2942309	0.2853625	-0.005935519	0.004403476	-2.116506	1.570697	0	0
22.07314	-0.294255	0.2853446	-0.0004851144	-0.0003597882	0.08265356	-0.0722333	0	0
22.08976	-0.294255	0.2853446	0	0	0.007315337	0.005425466	0	0
22.10628	-0.2942791	0.2853625	-0.001459657	0.001082564	-0.04405506	0.03267371	0	0
22.12284	-0.2943273	0.2853982	-0.002908776	0.002158646	-0.04380005	0.03252491	0	0
22.13941	-0.2943755	0.285434	-0.002908776	0.002158646	0	0	0	0
22.15631	-0.2945683	0.2855771	-0.01141094	0.008468687	-0.2540803	0.1885704	0	0
22.17282	-0.2947611	0.2857201	-0.01167588	0.008663509	-0.007930675	0.005831748	0	0
22.18911	-0.2948575	0.2857917	-0.00591493	0.004389559	0.1756046	-0.1302779	0	0
22.20568	-0.2948816	0.2858095	-0.001453488	0.001079323	0.1357642	-0.1007323	0	0
22.22225	-0.2949056	0.2858274	-0.001453488	0.001079323	0	0	0	0
22.23887	-0.2949297	0.2858453	-0.001450611	0.001075855	8.669798E-05	-0.0001044964	0	0
22.25538	-0.2949297	0.2858453	0	0	0.04377953	-0.03246937	0	0
22.27195	-0.2949538	0.2858632	-0.001453488	0.001079323	-0.04393718	0.03262662	0	0
22.28852	-0.2949538	0.2858632	0	0	0.04385374	-0.03256466	0	0
22.32485	-0.2949538	0.2858632	0	0	0	0	0	0
22.34142	-0.2949538	0.2858632	0	0	0	0	0	0
22.35798	-0.2949538	0.2858632	0	0	0	0	0	0
22.37455	-0.2949297	0.2858811	0.001453488	0.001079323	0.04386637	0.03257403	0	0
22.39112	-0.2949056	0.2859705	0.001455287	0.005398414	5.428939E-05	0.1303504	0	0
22.40799	-0.2942791	0.2865427	0.0371277	0.03391157	1.06671	0.8526267	0	0
22.42425	-0.2901042	0.2896718	0.256786	0.1924621	6.629682	4.785339	0	0
22.44082	-0.2842953	0.2940339	0.3506307	0.2632955	2.858898	2.157879	0	0
22.45753	-0.2761051	0.3000572	0.4901809	0.3604969	4.193769	2.921103	0	0
22.47404	-0.2695157	0.304882	0.399024	0.2921648	-2.743853	-2.056823	0	0
22.49055	-0.2672649	0.3065258	0.1363288	0.09956425	-7.954714	-5.832167	0	0
22.50708	-0.2618468	0.3104741	0.3276816	0.2387891	5.790704	4.213212	0	0
22.52365	-0.2567822	0.3141541	0.3057003	0.2221229	-0.6640477	-0.5034797	0	0
22.54022	-0.2540229	0.3161547	0.1665485	0.1207565	-4.199608	-3.059244	0	0
22.55679	-0.2506918	0.318566	0.2010671	0.1455485	1.041772	0.7482254	0	0
22.57335	-0.2482206	0.3203164	0.1491615	0.1056513	-1.566512	-1.204099	0	0
22.63962	-0.2298641	0.3334783	0.2770084	0.1986191	1.543405	1.122335	0	0
22.65619	-0.2237177	0.3378712	0.3709957	0.2651555	1.134644	0.8032469	0	0
22.67275	-0.2180308	0.341889	0.3432643	0.2425185	-0.836935	-0.6831859	0	0
22.68969	-0.2130335	0.3453712	0.2950153	0.2055705	-1.439993	-1.102714	0	0
22.70589	-0.2061855	0.3501928	0.4228356	0.2977141	3.857623	2.780899	0	0
22.72246	-0.2038396	0.3518179	0.1416009	0.09809247	-8.584035	-6.092987	0	0
22.73902	-0.200607	0.3541038	0.1951164	0.1379771	1.615102	1.203719	0	0
22.75574	-0.1997477	0.354711	0.05139798	0.03631752	-4.317548	-3.054027	0	0
22.77225	-0.1997224	0.3547289	0.001530553	0.001081134	-1.500597	-1.060323	0	0
22.78877	-0.1995707	0.3548003	0.009186028	0.00432634	0.2318166	0.09826861	0	0
22.80529	-0.1995202	0.354836	0.00306079	0.00216077	-0.185415	-0.06555326	0	0
22.82186	-0.1994443	0.3547825	0.004578128	-0.003232572	0.04585407	-0.1629872	0	0
22.83842	-0.1993937	0.3547467	0.003051786	-0.002156847	-0.04606511	0.03246545	0	0
22.85499	-0.1993432	0.354711	0.003052685	-0.002155048	2.714469E-05	5.428939E-05	0	0
22.90469	-0.1992926	0.3546753	0.001017262	-0.0007189491	-0.0307146	0.02167078	0	0
22.92126	-0.1993179	0.3546931	-0.001526343	0.001077524	-0.03838307	0.02710884	0	0
22.93788	-0.1993179	0.3546931	0	0	0.04599892	-0.03247301	0	0
22.9544	-0.1993432	0.3546753	-0.001529846	-0.001080634	-0.04617086	-0.03261361	0	0
22.97096	-0.1993432	0.3546753	0	0	0.0462374	0.03266061	0	0
22.98753	-0.1993432	0.3546753	0	0	0	0	0	0
23.0041	-0.1993685	0.3546931	-0.001526343	0.001077524	-0.04606777	0.03252162	0	0
23.02066	-0.1993685	0.3546931	0	0	0.04606511	-0.03251974	0	0
23.03745	-0.1993937	0.3546753	-0.001506398	-0.001063445	-0.04516422	-0.03188375	0	0
23.05767	-0.199419	0.3546931	-0.001250619	0.0008828766	0.006911764	0.05259421	0	0
23.07424	-0.199419	0.3546931	0	0	0.03399619	-0.02399967	0	0
23.09098	-0.1994696	0.3546931	-0.003018769	0	-0.09061112	0	0	0
23.10737	-0.1994696	0.3546931	0	0	0.09111188	0	0	0
23.12401	-0.1994949	0.354711	-0.001519694	0.001074622	-0.04601811	0.03254079	0	0
23.14052	-0.1994949	0.354711	0	0	0.04584335	-0.03241722	0	0
23.16207	-0.1995202	0.3547289	-0.001172566	0.0008282633	-0.0308059	0.0217603	0	0
23.17864	-0.1995454	0.3547467	-0.001526167	0.0010774	-0.009275457	0.006535222	0	0
23.19521	-0.1995454	0.3547467	0	0	0.04605716	-0.03251413	0	0
23.21177	-0.1995454	0.3547467	0	0	0	0	0	0
23.22858	-0.1995707	0.3547289	-0.001504347	-0.001061996	-0.04507437	-0.03182032	0	0
23.24509	-0.1995707	0.3547289	0	0	0.04514661	0.03187132	0	0
23.2616	-0.199596	0.354711	-0.00153073	-0.001081259	-0.04635496	-0.03274366	0	0
23.27812	-0.1996213	0.3546931	-0.001531456	-0.001082939	-2.197378E-05	-5.087497E-05	0	0
23.29463	-0.1996718	0.3546574	-0.003062009	-0.002162267	-0.04634693	-0.03268333	0	0
23.36087	-0.2003291	0.3541574	-0.009920892	-0.007548642	-0.08288076	-0.06508739	0	0
23.37744	-0.2003291	0.3541574	0	0	0.1198011	0.09115467	0	0
23.39401	-0.2003543	0.3541395	-0.001525443	-0.001077524	-0.04603797	-0.03251974	0	0
23.41057	-0.2003543	0.3541395	0	0	0.04603797	0.03251974	0	0
23.42714	-0.2003543	0.3541395	0	0	0	0	0	0
23.44374	-0.2003543	0.3541395	0	0	0	0	0	0
23.46027	-0.2003543	0.3541395	0	0	0	0	0	0
23.47684	-0.2003796	0.3541574	-0.001525443	0.001077524	-0.04607775	0.03254785	0	0
23.49341	-0.2003796	0.3541574	0	0	0.04603797	-0.03251974	0	0
23.50998	-0.2004049	0.3541752	-0.001525443	0.001077524	-0.04603797	0.03251974	0	0
23.52654	-0.2004049	0.3541752	0	0	0.04603797	-0.03251974	0	0
23.54331	-0.2004301	0.3541931	-0.001507223	0.001064654	-0.0452148	0.03193828	0	0
23.55968	-0.2004301	0.3541931	0	0	0.04548809	-0.03213133	0	0
23.57633	-0.2004301	0.3541931	0	0	0	0	0	0
23.59281	-0.2004301	0.3541931	0	0	0	0	0	0
23.60938	-0.2004554	0.354211	-0.001525443	0.001079323	-0.04616553	0.03266429	0	0
23.62594	-0.2004554	0.354211	0	0	0.04603797	-0.03257403	0	0
23.64251	-0.2004807	0.3542288	-0.001525443	0.001077524	-0.04603797	0.03251974	0	0
23.65908	-0.2004807	0.3542288	0	0	0.04603797	-0.03251974	0	0
23.67565	-0.2004807	0.3542288	0	0	0	0	0	0
23.74758	-0.2004807	0.3542288	0	0	0	0	0	0
23.76415	-0.2004554	0.354211	0.001525443	-0.001077524	0.01723646	-0.01217528	0	0
23.78071	-0.2004554	0.354211	0	0	-0.04603797	0.03251974	0	0
23.79728	-0.2004554	0.354211	0	0	0	0	0	0
23.81385	-0.2004554	0.354211	0	0	0	0	0	0
23.83051	-0.2004301	0.3541931	0.001516192	-0.001072777	0.0456222	-0.03227986	0	0
23.84698	-0.2004301	0.3541931	0	0	-0.04576139	0.03237835	0	0
23.86355	-0.2004049	0.3541752	0.001525443	-0.001077524	0.04618152	-0.03262115	0	0
23.88011	-0.2004049	0.3541752	0	0	-0.04603797	0.03251974	0	0
23.89706	-0.2004301	0.3541574	-0.00149111	-0.001053272	-0.04448958	-0.03142601	0	0
23.91325	-0.2004301	0.3541574	0	0	0.04500178	0.03178781	0	0
23.92981	-0.2004301	0.3541574	0	0	0	0	0	0
23.94638	-0.2004301	0.3541574	0	0	0	0	0	0
23.96295	-0.2004554	0.3541395	-0.001525443	-0.001077524	-0.04603797	-0.03251974	0	0
23.97952	-0.2004554	0.3541395	0	0	0.04603532	0.03251787	0	0
23.99608	-0.2004554	0.3541395	0	0	0	0	0	0
24.01265	-0.2004807	0.3541217	-0.001525443	-0.001079323	-0.04604062	-0.03257591	0	0
24.02922	-0.200506	0.3541038	-0.001525443	-0.001077524	0	5.428939E-05	0	0
24.04578	-0.2005312	0.354086	-0.001525619	-0.001077648	-5.298544E-06	-3.745523E-06	0	0
24.06235	-0.2005312	0.354086	0	0	0.04604857	0.03252723	0	0
24.07891	-0.2005565	0.3540681	-0.001525443	-0.001077524	-0.04604062	-0.03252162	0	0
24.09548	-0.2005565	0.3540681	0	0	0.04603797	0.03251974	0	0
24.12873	-0.2005565	0.3540681	0	0	0	0	0	0
24.14524	-0.2005565	0.3540681	0	0	0	0	0	0
24.16175	-0.2005565	0.3540681	0	0	0	0	0	0
24.17832	-0.2005565	0.3540681	0	0	0	0	0	0
24.19489	-0.2005565	0.3540681	0	0	0	0	0	0
24.21145	-0.2005565	0.3540681	0	0	0	0	0	0
24.22802	-0.2005565	0.3540681	0	0	0	0	0	0
24.24458	-0.2005565	0.3540681	0	0	0	0	0	0
24.26115	-0.2005565	0.3540681	0	0	0	0	0	0
24.27772	-0.2005565	0.3540681	0	0	0	0	0	0
24.29428	-0.2005818	0.3540502	-0.001525443	-0.001079323	-0.04604062	-0.03257591	0	0
24.31085	-0.2005818	0.3540502	0	0	0.04603797	0.03257403	0	0
24.32742	-0.2005818	0.3540502	0	0	0	0	0	0
24.34398	-0.200607	0.3540324	-0.001525443	-0.001077524	-0.04603797	-0.03251974	0	0
24.36055	-0.2006323	0.3540502	-0.001525443	0.001077524	0	0.06503949	0	0
24.37712	-0.200607	0.3540324	0.001525443	-0.001077524	0.09207594	-0.06503949	0	0
24.39369	-0.2006323	0.3540502	-0.001525443	0.001077524	-0.09207594	0.06503949	0	0
24.41523	-0.2006576	0.3540324	-0.001172982	-0.0008285565	0.009247895	-0.05001177	0	0
24.4318	-0.2006829	0.3540145	-0.001525443	-0.001077524	-0.009247895	-0.006532416	0	0
24.44846	-0.2007587	0.3539609	-0.004550806	-0.003216964	-0.09105926	-0.06439421	0	0
24.46497	-0.2007587	0.3539609	0	0	0.1372014	0.09698769	0	0
24.4815	-0.2007587	0.3539609	0	0	0	0	0	0
24.49807	-0.2007334	0.3539431	0.001525443	-0.001077524	0.04608838	-0.03255535	0	0
24.51463	-0.2007334	0.3539431	0	0	-0.04603797	0.03251974	0	0
24.56454	-0.2007334	0.3539431	0	0	0	0	0	0
24.5809	-0.2007334	0.3539431	0	0	0	0	0	0
24.59747	-0.2007334	0.3539431	0	0	0	0	0	0
24.61408	-0.2007587	0.3539252	-0.001521764	-0.001074925	-0.04587148	-0.03240214	0	0
24.6306	-0.2007587	0.3539252	0	0	0.04592693	0.03244131	0	0
24.64717	-0.2007587	0.3539252	0	0	0	0	0	0
24.66374	-0.2007587	0.3539252	0	0	0	0	0	0
24.68063	-0.2007587	0.3539252	0	0	0	0	0	0
24.69714	-0.2007587	0.3539252	0	0	0	0	0	0
24.71365	-0.2007587	0.3539252	0	0	0	0	0	0
24.73001	-0.2007587	0.3539252	0	0	0	0	0	0
24.74657	-0.2007839	0.3539073	-0.001525443	-0.001079323	-0.04633402	-0.0327835	0	0
24.76314	-0.2007839	0.3539073	0	0	0.04604062	0.03257591	0	0
24.77971	-0.2007839	0.3539073	0	0	0	0	0	0
24.79627	-0.2007839	0.3539073	0	0	0	0	0	0
24.81284	-0.2008092	0.3539252	-0.001525443	0.001079323	-0.04603797	0.03257403	0	0
24.82941	-0.2008092	0.3539252	0	0	0.04603532	-0.03257216	0	0
24.84597	-0.2007839	0.3539073	0.001525619	-0.001079447	0.04604327	-0.03257779	0	0
24.86277	-0.2007839	0.3539073	0	0	-0.04573263	0.03235799	0	0
24.87927	-0.2007839	0.3539073	0	0	0	0	0	0
24.89568	-0.2007839	0.3539073	0	0	0	0	0	0
24.91224	-0.2007839	0.3539073	0	0	0	0	0	0
24.92881	-0.2007839	0.3539073	0	0	0	0	0	0
24.94582	-0.2007839	0.3538716	0	-0.002099456	0	-0.06253023	0	0
24.96194	-0.2007839	0.3538716	0	0	0	0.06336536	0	0
24.97851	-0.2008092	0.3538538	-0.001525092	-0.001077276	-0.04664221	-0.03294656	0	0
25.01614	-0.2008345	0.3538359	-0.0006713403	-0.0004752852	0.01575377	0.01110818	0	0
25.03288	-0.200885	0.3538002	-0.003019255	-0.002132705	-0.04318937	-0.03048787	0	0
25.04927	-0.2009103	0.3537824	-0.001541773	-0.001089059	0.04459305	0.0314991	0	0
25.09255	-0.2009355	0.3537645	-0.0005835877	-0.0004131594	0.0160577	0.01132703	0	0
25.10912	-0.2009355	0.3537645	0	0	0.009751347	0.006903608	0	0
25.12568	-0.2009355	0.3537645	0	0	0	0	0	0
25.14245	-0.2009355	0.3537645	0	0	0	0	0	0
25.15882	-0.2009355	0.3537645	0	0	0	0	0	0
25.17548	-0.2009355	0.3537645	0	0	0	0	0	0
25.19199	-0.2009355	0.3537645	0	0	0	0	0	0
25.20852	-0.2009355	0.3537645	0	0	0	0	0	0
25.22508	-0.2009355	0.3537645	0	0	0	0	0	0
25.24165	-0.2009355	0.3537645	0	0	0	0	0	0
25.25822	-0.2009355	0.3537645	0	0	0	0	0	0
25.27478	-0.2009355	0.3537645	0	0	0	0	0	0
25.29135	-0.2009355	0.3537645	0	0	0	0	0	0
25.32449	-0.2009355	0.3537645	0	0	0	0	0	0
25.34105	-0.2009355	0.3537645	0	0	0	0	0	0
25.35762	-0.2009355	0.3537645	0	0	0	0	0	0
25.37419	-0.2009355	0.3537645	0	0	0	0	0	0
25.39075	-0.2009355	0.3537645	0	0	0	0	0	0
25.44046	-0.2009608	0.3537824	-0.0005084811	0.0003597744	-0.007672994	0.005429006	0	0
25.45702	-0.2009608	0.3537824	0	0	0.007672994	-0.005429006	0	0
25.4737	-0.2009608	0.3537824	0	0	0	0	0	0
25.49016	-0.2009861	0.3538002	-0.001535342	0.001084516	-0.04633938	0.03273265	0	0
25.50672	-0.2009861	0.3538002	0	0	0.04648656	-0.03283662	0	0
25.52373	-0.2009861	0.3538359	0	0.002099221	0	0.06252322	0	0
25.54024	-0.2009861	0.3538359	0	0	0	-0.06262639	0	0
25.55642	-0.2010113	0.3538538	-0.001561026	0.001105151	-0.04774956	0.033805	0	0
25.57327	-0.2010113	0.3538538	0	0	0.04727242	-0.0334672	0	0
25.58978	-0.2010113	0.3538538	0	0	0	0	0	0
25.60612	-0.2010113	0.3538538	0	0	0	0	0	0
25.62269	-0.2010619	0.3538895	-0.003049987	0.002155048	-0.09267294	0.06548049	0	0
25.63926	-0.2011377	0.3539431	-0.00457543	0.003234371	-0.04603797	0.03257403	0	0
25.65582	-0.2012387	0.3540502	-0.006099974	0.006466944	-0.04601083	0.09755923	0	0
25.67239	-0.2014408	0.3541931	-0.01219905	0.008623791	-0.1840704	0.06509378	0	0
25.68896	-0.2016935	0.3543717	-0.01524989	0.01078188	-0.09207993	0.06513499	0	0
25.70853	-0.2021228	0.3546753	-0.02193911	0.01551232	-0.185109	0.1309042	0	0
25.72509	-0.2021986	0.3547289	-0.004572732	0.003234371	0.4805501	-0.3397466	0	0
25.74189	-0.2023501	0.354836	-0.009023774	0.006380267	-0.1334264	0.09430278	0	0
25.75823	-0.2023501	0.354836	0	0	0.2723537	-0.1925679	0	0
25.77479	-0.2023501	0.354836	0	0	0	0	0	0
25.79136	-0.2023501	0.354836	0	0	0	0	0	0
25.80793	-0.2023501	0.354836	0	0	0	0	0	0
25.82449	-0.2023501	0.354836	0	0	0	0	0	0
25.84106	-0.2023501	0.354836	0	0	0	0	0	0
25.85763	-0.2023249	0.3548182	0.001524544	-0.001077524	0.04601083	-0.03251974	0	0
25.8742	-0.2023249	0.3548182	0	0	-0.04601083	0.03251974	0	0
25.89076	-0.2023249	0.3548182	0	0	0	0	0	0
25.90733	-0.2023249	0.3548182	0	0	0	0	0	0
25.9239	-0.2023249	0.3548182	0	0	0	0	0	0
25.94053	-0.2023249	0.3548182	0	0	0	0	0	0
25.95704	-0.2022996	0.3548003	0.001529651	-0.001081134	0.04615433	-0.03262117	0	0
25.9736	-0.2022996	0.3548003	0	0	-0.04625548	0.03269267	0	0
25.99016	-0.2022744	0.3547825	0.001524719	-0.001077648	0.04603202	-0.03253473	0	0
26.00673	-0.2022744	0.3547825	0	0	-0.04601877	0.03252536	0	0
26.0233	-0.2022744	0.3547825	0	0	0	0	0	0
26.03986	-0.2022491	0.3547646	0.001523644	-0.001079323	0.04598368	-0.03257403	0	0
26.05643	-0.2021986	0.3548003	0.003049088	0.002156847	0.04603797	0.09766781	0	0
26.073	-0.2020723	0.3549253	0.00762182	0.007546267	0.1380053	0.162653	0	0
26.08957	-0.2017187	0.3553182	0.02134361	0.02371453	0.4141245	0.487959	0	0
26.10613	-0.2014156	0.355604	0.01829933	0.01724957	-0.09188193	-0.1951241	0	0
26.15583	-0.1918987	0.3920917	0.1914877	0.7341633	2.613568	10.81887	0	0
26.17269	-0.1895139	0.4127048	0.141423	1.222392	-0.752144	7.33488	0	0
26.18921	-0.1878381	0.4229153	0.1014876	0.6183742	-1.196573	-18.09804	0	0
26.20553	-0.1833643	0.4429698	0.2740481	1.228453	5.255078	18.57905	0	0
26.22223	-0.1771751	0.4624385	0.3706761	1.166004	2.926174	-1.891122	0	0
26.23874	-0.1745731	0.4727408	0.1575856	0.6239315	-6.416677	-16.32315	0	0
26.25525	-0.171841	0.4893617	0.165484	1.006715	0.2391867	11.59179	0	0
26.2718	-0.1694897	0.5126105	0.1420838	1.404919	-0.7078512	12.04556	0	0
26.28877	-0.1682367	0.5298598	0.07380755	1.01602	-2.036548	-11.60011	0	0
26.30493	-0.1673157	0.5508856	0.05700634	1.301483	-0.5070904	8.615793	0	0
26.35463	-0.1603739	0.5930328	0.1396799	0.84807	1.255424	-6.885219	0	0
26.3746	-0.1578854	0.6065144	0.1245904	0.6749636	-0.2165802	-2.484604	0	0
26.39134	-0.156987	0.6124108	0.05366043	0.3521802	-1.931831	-8.791246	0	0
26.40774	-0.156191	0.6204089	0.04855768	0.4879313	-0.1540013	4.096976	0	0
26.4243	-0.1562681	0.6302639	-0.004650619	0.5949158	-1.614473	3.246179	0	0
26.44087	-0.1580651	0.6362647	-0.1084657	0.36221	-3.133325	-7.023479	0	0
26.45744	-0.1592967	0.6443114	-0.07434107	0.485699	1.029882	3.726903	0	0
26.474	-0.1607329	0.6462703	-0.08670301	0.1182535	-0.3731055	-11.09017	0	0
26.49057	-0.1631679	0.6480986	-0.1469768	0.1103608	-1.819172	-0.2382151	0	0
26.50714	-0.1637572	0.6485701	-0.03556639	0.02845815	3.362373	-2.471826	0	0
26.5237	-0.1637572	0.6485701	0	0	1.073396	-0.8588687	0	0
26.54027	-0.1637572	0.6485701	0	0	0	0	0	0
26.55684	-0.1637572	0.6485701	0	0	0	0	0	0
26.57347	-0.1637572	0.6485701	0	0	0	0	0	0
26.58997	-0.1637572	0.6485324	0	-0.002287379	0	-0.06903719	0	0
26.607	-0.1637316	0.6485136	0.001504221	-0.001106071	0.04487057	0.03523814	0	0
26.6231	-0.1637059	0.6484569	0.001590441	-0.00351581	0.002602131	-0.07272607	0	0
26.63967	-0.1636803	0.6484381	0.00154613	-0.001136887	-0.001356206	0.07281032	0	0
26.65624	-0.1636035	0.6483438	0.00463929	-0.00569163	0.09335175	-0.1374624	0	0
26.67281	-0.1634754	0.6482495	0.007731551	-0.00569163	0.09332461	0	0	0
26.68956	-0.1634498	0.6481929	0.001529055	-0.003376551	-0.1861523	0.06948126	0	0
26.70607	-0.1633729	0.6481364	0.004654831	-0.003425696	0.0939683	-0.001477408	0	0
26.72251	-0.1633217	0.6480986	0.003117928	-0.002295607	-0.04664697	0.03429963	0	0
26.7391	-0.163296	0.6480798	0.001543642	-0.001135057	-0.04766295	0.03513671	0	0
26.75564	-0.1632704	0.648061	0.001548626	-0.001138722	0.0001504201	-0.000110606	0	0
26.77221	-0.1632448	0.6480421	0.00154703	-0.001140485	-4.822544E-05	-5.323259E-05	0	0
26.78877	-0.1632192	0.6480232	0.00154613	-0.001136887	-2.714469E-05	0.0001085823	0	0
26.80534	-0.1631936	0.6480044	0.00154613	-0.001136887	0	0	0	0
26.82215	-0.1631423	0.6480044	0.003047894	0	0.04498925	0.03405841	0	0
26.83867	-0.1631423	0.6480044	0	0	-0.09145916	0	0	0
26.85504	-0.1631167	0.6479855	0.00156523	-0.001153902	0.0475949	-0.03508741	0	0
26.87161	-0.1630398	0.6479667	0.00463929	-0.001136887	0.09331787	0.0005165247	0	0
26.8882	-0.162758	0.6478347	0.01698545	-0.007952586	0.3723079	-0.2055326	0	0
26.90474	-0.1625273	0.6477782	0.01394394	-0.003419771	-0.09179291	0.1368006	0	0
26.92173	-0.1616559	0.6475519	0.05131209	-0.01332266	1.114683	-0.295401	0	0
26.93788	-0.1566532	0.6476462	0.3097359	0.005838155	7.799247	0.5782747	0	0
26.95444	-0.1507425	0.649834	0.3567738	0.1320552	1.437648	3.857647	0	0
26.97101	-0.1446922	0.6523447	0.3651926	0.1515477	0.254078	0.5882868	0	0
26.99276	-0.1392766	0.6512117	0.2490222	-0.05209612	-3.031994	-5.315016	0	0
27.00933	-0.1381408	0.650419	0.068555	-0.04784999	-4.710116	0.1108223	0	0
27.02589	-0.137831	0.6501925	0.01870017	-0.01367143	-1.504622	1.031511	0	0
27.04246	-0.1375212	0.650419	0.01870197	0.01367143	5.430344E-05	0.8252088	0	0
27.05903	-0.1370564	0.6507965	0.02805933	0.02278713	0.282422	0.2751285	0	0
27.07559	-0.1341887	0.6528547	0.1730919	0.1242337	4.377345	3.061839	0	0
27.09235	-0.1300772	0.6558979	0.2454062	0.1816371	2.170208	1.722719	0	0
27.10873	-0.1270229	0.6581306	0.1864575	0.1363057	-1.779077	-1.368102	0	0
27.1253	-0.126013	0.658869	0.06096197	0.04456885	-3.80895	-2.784332	0	0
27.14189	-0.126013	0.658869	0	0	-1.838566	-1.344162	0	0
27.15843	-0.126013	0.658869	0	0	0	0	0	0
27.175	-0.126013	0.658869	0	0	0	0	0	0
27.19156	-0.126013	0.658869	0	0	0	0	0	0
27.20844	-0.126013	0.658869	0	0	0	0	0	0
27.2247	-0.126013	0.658869	0	0	0	0	0	0
27.24127	-0.126013	0.658869	0	0	0	0	0	0
27.25783	-0.126013	0.658869	0	0	0	0	0	0
27.2744	-0.126013	0.658869	0	0	0	0	0	0
27.29097	-0.1259871	0.6588501	0.00156322	-0.001140485	0.04717806	-0.0344199	0	0
27.30754	-0.1259871	0.6588501	0	0	-0.04717806	0.0344199	0	0
27.3241	-0.1259871	0.6588501	0	0	0	0	0	0
27.34103	-0.1259612	0.6588311	0.001529585	-0.001119466	0.04566094	-0.03341813	0	0
27.35724	-0.1259612	0.6588311	0	0	-0.04616296	0.03378555	0	0
27.3738	-0.1259612	0.6587932	0	-0.002288165	0	-0.06982465	0	0
27.39037	-0.1259352	0.6587743	0.001564119	-0.001140485	0.04720521	0.03463705	0	0
27.40694	-0.1259093	0.6587554	0.00156322	-0.001144082	-2.714469E-05	-0.0001085788	0	0
27.42351	-0.1258834	0.6587364	0.00156322	-0.001144082	0	0	0	0
27.44011	-0.1258834	0.6587364	0	0	-0.04712923	0.03449273	0	0
27.45664	-0.1258834	0.6587364	0	0	0	0	0	0
27.47363	-0.1259093	0.6587175	-0.001524091	-0.001111937	-0.04546069	-0.03316694	0	0
27.50325	-0.1259352	0.6586986	-0.0008744284	-0.000639973	0.0139383	0.01012584	0	0
27.51982	-0.1259352	0.6586986	0	0	0.01893336	0.01385687	0	0
27.53638	-0.1259612	0.6586796	-0.001564119	-0.001144082	-0.04720521	-0.03452848	0	0
27.55319	-0.1259612	0.6586796	0	0	0.04687332	0.03428572	0	0
27.56952	-0.1259612	0.6586796	0	0	0	0	0	0
27.58608	-0.1259352	0.6586229	0.001564119	-0.003425052	0.04754458	-0.1041114	0	0
27.60272	-0.1259352	0.6585471	0	-0.004553858	-0.04710758	-0.03399699	0	0
27.61923	-0.1259093	0.6584903	0.001568456	-0.003440135	0.04731704	0.03359869	0	0
27.63578	-0.1258575	0.6584145	0.003129682	-0.004577475	0.04722118	-0.03440024	0	0
27.65235	-0.1258057	0.6583388	0.003127339	-0.004569134	-7.07548E-05	0.0002518601	0	0
27.66892	-0.1257539	0.6582631	0.003126439	-0.004569134	-2.714469E-05	0	0	0
27.68548	-0.1255208	0.6580927	0.01407167	-0.01028595	0.3303278	-0.1725338	0	0
27.70205	-0.1246659	0.6574681	0.05160154	-0.03770075	1.132653	-0.8273805	0	0
27.71881	-0.1214519	0.6551226	0.1918327	-0.1399989	4.208445	-3.070044	0	0
27.73518	-0.1187544	0.6530436	0.1647016	-0.1269324	-0.8188648	0.3943687	0	0
27.75175	-0.1188841	0.6530625	-0.007830488	0.001140485	-5.236874	3.887402	0	0
27.76832	-0.1188582	0.6530436	0.001565918	-0.001140485	0.2835841	-0.0688398	0	0
27.78489	-0.1189101	0.6530058	-0.003132285	-0.002280969	-0.141792	-0.0344199	0	0
27.80145	-0.1189101	0.6530058	0	0	0.09453256	0.0688398	0	0
27.81802	-0.118936	0.6529492	-0.001565918	-0.003421454	-0.04725949	-0.1032597	0	0
27.83459	-0.1189619	0.6527792	-0.001565918	-0.01026076	0	-0.2064108	0	0
27.85115	-0.118936	0.6526091	0.001565918	-0.01026436	0.09451899	-0.0001085788	0	0
27.86772	-0.1181576	0.6515138	0.04698608	-0.06611213	1.370783	-1.685489	0	0
27.88429	-0.1130683	0.647288	0.3071875	-0.2550728	7.852894	-5.702845	0	0
27.90094	-0.1087794	0.6435395	0.2576326	-0.2251697	-1.491962	0.9003011	0	0
27.91742	-0.1028984	0.6385747	0.3567424	-0.301165	2.991311	-2.293673	0	0
27.93399	-0.09599353	0.6317254	0.4167815	-0.4134275	1.816481	-3.396497	0	0
27.95056	-0.09401153	0.6176659	0.119634	-0.8486322	-8.96793	-13.1345	0	0
27.96712	-0.09437669	0.6053439	-0.02204113	-0.7437579	-4.275763	3.165111	0	0
27.98369	-0.09437669	0.6011855	0	-0.2510002	0.6652025	14.87146	0	0
28.00026	-0.09455926	0.578942	-0.01101989	-1.34262	-0.3325809	-32.94516	0	0
28.01682	-0.0945071	0.5720188	0.003148838	-0.4179332	0.4276376	27.90872	0	0
28.03353	-0.09382894	0.5589072	0.04058799	-0.7847317	1.125188	-11.02368	0	0
28.04996	-0.09419411	0.5491661	-0.02223401	-0.5930968	-1.896081	5.783887	0	0
28.07153	-0.09482007	0.5353621	-0.02900908	-0.6397286	-0.1782819	-1.227088	0	0
28.0881	-0.09654105	0.5288766	-0.103879	-0.3914669	-1.962768	6.508358	0	0
28.10467	-0.1017266	0.5221637	-0.3129996	-0.4051887	-6.311273	-0.4141245	0	0
28.12123	-0.1071148	0.5184383	-0.3252306	-0.2248662	-0.3691321	5.442144	0	0
28.1378	-0.112029	0.5148972	-0.2966218	-0.2137419	0.8634162	0.3357297	0	0
28.15437	-0.1172233	0.5106875	-0.3135281	-0.2541014	-0.510232	-1.218052	0	0
28.17094	-0.1202331	0.507061	-0.1816721	-0.2188939	3.97942	1.062565	0	0
28.18764	-0.1197143	0.495979	0.03105598	-0.6634131	6.393648	-13.36024	0	0
28.20415	-0.1169637	0.4828959	0.1665821	-0.7923393	4.080088	-3.881392	0	0
28.22066	-0.1150943	0.4735159	0.1132118	-0.5680789	-1.616117	6.790863	0	0
28.2372	-0.1133281	0.4633565	0.1067946	-0.6142836	-0.1941633	-1.398001	0	0
28.25377	-0.1116911	0.4578323	0.09880932	-0.3334407	-0.2412031	8.483182	0	0
28.27034	-0.1098975	0.4511616	0.108261	-0.4026433	0.2852536	-2.088539	0	0
28.28691	-0.1070627	0.4475139	0.1711087	-0.2201765	1.896745	5.506858	0	0
28.30373	-0.1071668	0.4462564	-0.006186483	-0.07475869	-5.310124	4.355373	0	0
28.32004	-0.1065944	0.4380332	0.03508911	-0.504131	1.245771	-12.95923	0	0
28.33675	-0.1064383	0.4330452	0.009340141	-0.2984263	-0.7796635	6.228617	0	0
28.35326	-0.1042783	0.4268586	0.1308479	-0.3747653	3.657426	-2.297832	0	0
28.36974	-0.101987	0.422091	0.1390524	-0.2893383	0.2487292	2.58982	0	0
28.3863	-0.1018047	0.4174507	0.0110037	-0.2800861	-3.875	0.2799892	0	0
28.4033	-0.0990954	0.4134389	0.1594595	-0.2361168	4.42387	1.310254	0	0
28.41944	-0.09951232	0.4118632	-0.02582796	-0.09761609	-5.592307	4.180199	0	0
28.436	-0.100841	0.4057949	-0.08019955	-0.3662881	-1.662276	-8.213978	0	0
28.45257	-0.09943415	0.4046853	0.08491754	-0.06697379	4.983243	9.033322	0	0
28.46914	-0.09914752	0.4044884	0.01730309	-0.01188472	-2.040726	1.662687	0	0
28.4857	-0.09914752	0.4044884	0	0	-0.5222384	0.3587021	0	0
28.50227	-0.09917358	0.4044705	-0.001572664	-0.001079323	-0.04746308	-0.03257403	0	0
28.51884	-0.09917358	0.4044705	0	0	0.04746308	0.03257403	0	0
28.53541	-0.09919964	0.4044168	-0.001573113	-0.003241567	-0.04747666	-0.09783068	0	0
28.5524	-0.0996426	0.4041126	-0.02605905	-0.01789546	-0.7294968	-0.4365759	0	0
28.56854	-0.1041481	0.4010171	-0.2792184	-0.1918384	-7.640363	-5.249609	0	0
28.58511	-0.1057618	0.3999079	-0.09740171	-0.06695221	5.559565	3.818753	0	0
28.60168	-0.1133801	0.3947027	-0.4598406	-0.3141873	-10.93843	-7.461572	0	0
28.61824	-0.1191176	0.3907506	-0.3463183	-0.2385466	3.42611	2.282843	0	0
28.63481	-0.1212963	0.3892487	-0.1315088	-0.09065594	6.482965	4.463348	0	0
28.65148	-0.123137	0.3880151	-0.1104407	-0.07401937	0.6339366	0.5005941	0	0
28.66794	-0.124355	0.3871391	-0.07396989	-0.05320065	1.100756	0.6283463	0	0
28.68451	-0.1259352	0.3860843	-0.09538382	-0.06366567	-0.6482517	-0.3168012	0	0
28.705	-0.1259612	0.3860664	-0.001264396	-0.0008724988	2.539534	1.694288	0	0
28.72157	-0.1259871	0.3860843	-0.00156322	0.001079323	-0.008062863	0.05266413	0	0
28.73814	-0.126013	0.3861022	-0.00156322	0.001079323	0	0	0	0
28.75471	-0.1260647	0.3861379	-0.003126439	0.002158646	-0.04717806	0.03257403	0	0
28.77156	-0.1260647	0.3861737	0	0.002119993	0.09354303	-0.001156509	0	0
28.78784	-0.1260906	0.3861915	-0.001591062	0.001098547	-0.04802112	-0.03082906	0	0
28.80458	-0.1261942	0.3862631	-0.006186638	0.004271557	-0.1391674	0.09608797	0	0
28.82109	-0.1262202	0.3863167	-0.001569359	0.003247011	0.1388383	-0.03080736	0	0
28.83761	-0.1262461	0.3863703	-0.001568456	0.003248816	2.732728E-05	5.465456E-05	0	0
28.85412	-0.1262202	0.3863882	0.001568456	0.001082939	0.09498934	-0.06558528	0	0
28.87067	-0.1262202	0.3864239	0	0.002158836	-0.04743714	0.03253994	0	0
28.88724	-0.1261683	0.3864239	0.003127339	0	0.09442675	-0.0651838	0	0
28.9038	-0.1261683	0.3864239	0	0	-0.09438327	0	0	0
28.92037	-0.1261942	0.3864061	-0.00156322	-0.001079323	-0.04717806	-0.03257403	0	0
28.93694	-0.1261942	0.3864061	0	0	0.04717806	0.03257403	0	0
28.95351	-0.1261942	0.3863703	0	-0.002156847	0	-0.06509378	0	0
28.97007	-0.1262202	0.3863167	-0.001564119	-0.003237969	-0.04720521	-0.03262833	0	0
28.98664	-0.1262719	0.3862809	-0.003126439	-0.002158646	-0.04715092	0.03257404	0	0
29.00323	-0.1263496	0.3862273	-0.004684804	-0.003232821	-0.0470072	-0.03240187	0	0
29.01977	-0.1264014	0.3862273	-0.003129503	0	0.0469445	0.09757795	0	0
29.03634	-0.1264791	0.3862094	-0.004689659	-0.001079323	-0.04711542	-0.03259467	0	0
29.05291	-0.126505	0.3861915	-0.00156322	-0.001079323	0.09435611	0	0	0
29.13582	-0.126764	0.3863346	-0.003123311	0.001724929	-0.01568221	0.02818865	0	0
29.20051	-0.1267899	0.3863167	-0.0004003339	-0.00027641	0.01844762	-0.01355867	0	0
29.21708	-0.1267899	0.3863167	0	0	0.004926655	0.003401603	0	0
29.23365	-0.1267899	0.3863167	0	0	0	0	0	0
29.25021	-0.1267899	0.3863167	0	0	0	0	0	0
29.26678	-0.1267899	0.3863167	0	0	0	0	0	0
29.28343	-0.1267899	0.3863167	0	0	0	0	0	0
29.29992	-0.126764	0.3862988	0.001570633	-0.001084442	0.0474018	-0.03272852	0	0
29.31648	-0.126764	0.3862988	0	0	-0.04751394	0.03280595	0	0
29.33305	-0.126764	0.3862988	0	0	0	0	0	0
29.34997	-0.1267899	0.3862809	-0.001530274	-0.001056576	-0.04569193	-0.03154793	0	0
29.36618	-0.1267899	0.3862809	0	0	0.04618643	0.03188937	0	0
29.38275	-0.126764	0.3862631	0.00156322	-0.001077524	0.04769421	-0.03287552	0	0
29.39932	-0.126764	0.3862631	0	0	-0.04717806	0.03251974	0	0
29.41588	-0.1267381	0.3862094	0.00156322	-0.003237969	0.04717806	-0.09772211	0	0
29.43245	-0.1267381	0.3862094	0	0	-0.04717806	0.09772211	0	0
29.47056	-0.126764	0.3862273	-0.0006795518	0.0004691957	-0.01242826	0.008581076	0	0
29.48708	-0.1267899	0.3862452	-0.001567551	0.001082314	-0.01625414	0.01122265	0	0
29.50365	-0.1267899	0.3862452	0	0	0.04737423	-0.03270948	0	0
29.52022	-0.1267899	0.3862452	0	0	0	0	0	0
29.53679	-0.1267899	0.3862452	0	0	0	0	0	0
29.55335	-0.1267899	0.3862452	0	0	0	0	0	0
29.56992	-0.1267899	0.3862452	0	0	0	0	0	0
29.58649	-0.1267899	0.3862452	0	0	0	0	0	0
29.60305	-0.1267899	0.3862452	0	0	0	0	0	0
29.61962	-0.1267899	0.3862452	0	0	0	0	0	0
29.63619	-0.1267899	0.3862452	0	0	0	0	0	0
29.65275	-0.1267899	0.3862452	0	0	0	0	0	0
29.66932	-0.1267899	0.3862452	0	0	0	0	0	0
29.68622	-0.1267899	0.3862452	0	0	0	0	0	0
29.70273	-0.1267899	0.3862452	0	0	0	0	0	0
29.71924	-0.1267899	0.3862452	0	0	0	0	0	0
29.73575	-0.1267899	0.3862452	0	0	0	0	0	0
29.75652	-0.1267899	0.3862452	0	0	0	0	0	0
29.77309	-0.1267899	0.3862452	0	0	0	0	0	0
29.78979	-0.1267899	0.3862452	0	0	0	0	0	0
29.8063	-0.1267899	0.3862452	0	0	0	0	0	0
29.82278	-0.1267899	0.3862452	0	0	0	0	0	0
29.83935	-0.1267899	0.3862452	0	0	0	0	0	0
29.85592	-0.1268158	0.3862631	-0.00156232	0.001079323	-0.04715092	0.03257403	0	0
29.90587	-0.1268158	0.3862631	0	0	0.02348623	-0.01622537	0	0
29.92219	-0.1267899	0.3862809	0.001586614	0.00109428	0.02394275	0.01651319	0	0
29.93875	-0.1267899	0.3862809	0	0	-0.04825354	-0.03328022	0	0
29.95532	-0.1268158	0.3862631	-0.0015625	-0.001077648	-0.04715906	-0.03252536	0	0
29.97192	-0.1268158	0.3862631	0	0	0.04711024	0.03249169	0	0
29.98845	-0.1268158	0.3862631	0	0	0	0	0	0
30.00502	-0.1268158	0.3862631	0	0	0	0	0	0
30.02159	-0.1268158	0.3862631	0	0	0	0	0	0
30.03815	-0.1268158	0.3862631	0	0	0	0	0	0
30.07486	-0.1269452	0.3862094	-0.003527113	-0.001461343	-0.06620446	-0.02742963	0	0
30.09143	-0.1269711	0.3862273	-0.00156322	0.001079323	0.03686258	0.04768869	0	0
30.10802	-0.1273077	0.3864597	-0.02029166	0.01400986	-0.5648678	0.3899974	0	0
30.12457	-0.1315516	0.3893917	-0.2564859	0.177201	-7.128357	4.925118	0	0
30.14154	-0.1370564	0.3932004	-0.3242784	0.2243662	-2.02235	1.407007	0	0
30.1577	-0.1411343	0.3960262	-0.2523933	0.1748926	2.169624	-1.493201	0	0
30.17426	-0.1491216	0.401536	-0.4821657	0.3326083	-7.021854	4.819797	0	0
30.19107	-0.1539819	0.4049179	-0.2891414	0.2011943	5.783538	-3.937525	0	0
30.2074	-0.1590658	0.4084617	-0.3114547	0.217105	-0.6734572	0.480214	0	0
30.2241	-0.1595788	0.4088198	-0.0307209	0.02143709	8.500947	-5.925051	0	0
30.24061	-0.1595788	0.4087839	0	-0.002169487	0.9249755	-0.7107702	0	0
30.2571	-0.1595788	0.4087839	0	0	0	0.06574395	0	0
30.27366	-0.1595788	0.4087839	0	0	0	0	0	0
30.29023	-0.1595788	0.4087839	0	0	0	0	0	0
30.3068	-0.1596045	0.4087661	-0.001548829	-0.001079323	-0.04674374	-0.03257403	0	0
30.32336	-0.1596045	0.4086944	0	-0.004322689	0.04674374	-0.09788498	0	0
30.34018	-0.1596558	0.4086229	-0.003050207	-0.004257175	-0.09137166	0.001962541	0	0
30.35669	-0.1596301	0.4085692	0.001553115	-0.003252426	0.1381255	0.0301481	0	0
30.3732	-0.1596045	0.4084797	0.001553115	-0.005420108	0	-0.06563993	0	0
30.38963	-0.1595788	0.4083543	0.001562137	-0.007629253	0.0002739284	-0.06706979	0	0
30.40623	-0.1595275	0.4081753	0.003091419	-0.0107854	0.04631111	-0.09557725	0	0
30.42276	-0.1594249	0.4079605	0.006204945	-0.0129902	0.09397181	-0.06654477	0	0
30.43933	-0.1594506	0.4077278	-0.001548829	-0.01404559	-0.2342251	-0.03188123	0	0
30.45626	-0.1595275	0.4076383	-0.004545263	-0.005286376	-0.08945418	0.2614936	0	0
30.47246	-0.1599379	0.4072804	-0.02532924	-0.02209204	-0.6272978	-0.5072252	0	0
30.48903	-0.1610663	0.406457	-0.06810529	-0.04969743	-1.305336	-0.8423942	0	0
30.5056	-0.1713811	0.3991744	-0.6226039	-0.4395795	-16.7348	-11.76666	0	0
30.52216	-0.1783478	0.3943629	-0.4205132	-0.290426	6.099108	4.50146	0	0
30.53873	-0.1842292	0.3902321	-0.3549975	-0.2493344	1.97727	1.240148	0	0
30.55533	-0.1892854	0.38671	-0.3045672	-0.2121546	1.520412	1.120928	0	0
30.57186	-0.1954971	0.3823305	-0.3757563	-0.2649237	-2.148614	-1.592666	0	0
30.58843	-0.1991662	0.379739	-0.2214681	-0.1564245	4.661526	3.278098	0	0
30.605	-0.2013903	0.3781664	-0.1342498	-0.09492467	2.632253	1.856068	0	0
30.62156	-0.2013651	0.3781842	0.001525443	0.001077524	4.097705	2.897352	0	0
30.63813	-0.2013651	0.3781842	0	0	-0.04603797	-0.03251974	0	0
30.6547	-0.2013651	0.3781842	0	0	0	0	0	0
30.67142	-0.2013651	0.3781842	0	0	0	0	0	0
30.68793	-0.2013651	0.3781842	0	0	0	0	0	0
30.70444	-0.2013651	0.3781842	0	0	0	0	0	0
30.72464	-0.2013651	0.3781842	0	0	0	0	0	0
30.74121	-0.2013651	0.3781842	0	0	0	0	0	0
30.75777	-0.2013651	0.3781842	0	0	0	0	0	0
30.77434	-0.2013651	0.3781842	0	0	0	0	0	0
30.7909	-0.2013651	0.3781842	0	0	0	0	0	0
30.87374	-0.2013145	0.3782915	0.0006100115	0.001294498	0.006136845	0.01302292	0	0
30.89031	-0.2012893	0.3783093	0.001524544	0.001079323	0.00920039	-0.002164705	0	0
30.90709	-0.2012893	0.3783093	0	0	-0.0457187	-0.03236722	0	0
30.9236	-0.2012893	0.3783093	0	0	0	0	0	0
30.94001	-0.201264	0.3783272	0.001539252	0.001089736	0.04675346	0.0330998	0	0
30.95662	-0.201264	0.3783272	0	0	-0.04661304	-0.03300038	0	0
30.97314	-0.201264	0.3783272	0	0	0	0	0	0
30.98971	-0.201264	0.3783272	0	0	0	0	0	0
31.00628	-0.201264	0.3783272	0	0	0	0	0	0
31.02284	-0.201264	0.3783272	0	0	0	0	0	0
31.03941	-0.2012387	0.3783451	0.001525443	0.001077524	0.04604062	0.03252162	0	0
31.05597	-0.2012135	0.378363	0.001524544	0.001079323	-2.714469E-05	5.428939E-05	0	0
31.07254	-0.2012135	0.378363	0	0	-0.04601083	-0.03257403	0	0
31.08911	-0.2011882	0.3783451	0.001525443	-0.001079323	0.04603797	-0.03257403	0	0
31.10573	-0.2011882	0.3783451	0	0	-0.04596917	0.03252535	0	0
31.12224	-0.2011882	0.3783451	0	0	0	0	0	0
31.13881	-0.2011882	0.3783451	0	0	0	0	0	0
31.15538	-0.2011882	0.3783451	0	0	0	0	0	0
31.17194	-0.2011882	0.3783451	0	0	0	0	0	0
31.18851	-0.2011882	0.3783451	0	0	0	0	0	0
31.20508	-0.2011882	0.3783451	0	0	0	0	0	0
31.22181	-0.2012135	0.378363	-0.001510144	0.001068498	-0.04534652	0.0320848	0	0
31.23821	-0.2012135	0.378363	0	0	0.04557623	-0.03224733	0	0
31.25478	-0.2012135	0.378363	0	0	0	0	0	0
31.27135	-0.2012135	0.378363	0	0	0	0	0	0
31.28791	-0.2012387	0.3783808	-0.001524544	0.001077524	-0.04601083	0.03251974	0	0
31.30448	-0.2012387	0.3783808	0	0	0.04601083	-0.03251974	0	0
31.32104	-0.2012135	0.378363	0.001524719	-0.001077648	0.04601877	-0.03252536	0	0
31.33761	-0.2012135	0.378363	0	0	-0.04601877	0.03252536	0	0
31.35418	-0.2012135	0.378363	0	0	0	0	0	0
31.37075	-0.2012135	0.378363	0	0	0	0	0	0
31.38731	-0.2011882	0.3783451	0.001525443	-0.001079323	0.04603797	-0.03257403	0	0
31.40759	-0.2011882	0.3783451	0	0	-0.04140462	0.02929572	0	0
31.42416	-0.2011629	0.3783272	0.001524544	-0.001077524	0.0413802	-0.02924689	0	0
31.44072	-0.2011124	0.3782915	0.003049987	-0.002158646	0.04603797	-0.03262832	0	0
31.45729	-0.2010871	0.3782736	0.001525443	-0.001077524	-0.04601083	0.03262832	0	0
31.47386	-0.2010871	0.3782736	0	0	-0.04603797	0.03251974	0	0
31.49051	-0.2010871	0.3782736	0	0	0	0	0	0
31.50702	-0.2010366	0.3782378	0.003058791	-0.002164877	0.09222424	-0.06527224	0	0
31.52356	-0.2009355	0.3781664	0.006112837	-0.004322154	0.09239468	-0.06526452	0	0
31.54013	-0.2008597	0.3781128	0.00457543	-0.00323617	-0.04644448	0.03280715	0	0
31.55669	-0.2008345	0.3780949	0.001525443	-0.001079323	-0.09204879	0.06509378	0	0
31.57326	-0.2008345	0.3780949	0	0	-0.04603797	0.03257403	0	0
31.58983	-0.2008092	0.378077	0.001524544	-0.001077524	0.04601083	-0.03251974	0	0
31.6064	-0.2008092	0.378077	0	0	-0.04601083	0.03251974	0	0
31.62296	-0.2008092	0.378077	0	0	0	0	0	0
31.63953	-0.2008092	0.378077	0	0	0	0	0	0
31.65613	-0.2008092	0.378077	0	0	0	0	0	0
31.72237	-0.2008092	0.378077	0	0	0	0	0	0
31.77207	-0.2008092	0.378077	0	0	0	0	0	0
31.78873	-0.2008092	0.378077	0	0	0	0	0	0
31.80521	-0.2008092	0.378077	0	0	0	0	0	0
31.82177	-0.2008092	0.378077	0	0	0	0	0	0
31.83834	-0.2008092	0.378077	0	0	0	0	0	0
31.8549	-0.2008092	0.378077	0	0	0	0	0	0
31.87179	-0.2008092	0.378077	0	0	0	0	0	0
31.88804	-0.2008092	0.378077	0	0	0	0	0	0
31.90481	-0.2008092	0.378077	0	0	0	0	0	0
31.92117	-0.2008092	0.378077	0	0	0	0	0	0
31.93784	-0.2008092	0.378077	0	0	0	0	0	0
31.95431	-0.2008345	0.3780949	-0.00153337	0.001083763	-0.04627721	0.03270802	0	0
31.97087	-0.2008345	0.3780949	0	0	0.04641079	-0.03280244	0	0
31.98744	-0.2008345	0.3780949	0	0	0	0	0	0
32.00439	-0.2008597	0.3781128	-0.00149111	0.00105503	-0.04448958	0.03147848	0	0
32.02058	-0.2008597	0.3781128	0	0	0.04500178	-0.03184088	0	0
32.03714	-0.200885	0.3780949	-0.001525443	-0.001079323	-0.04657417	-0.03295342	0	0
32.05371	-0.200885	0.3780949	0	0	0.04603797	0.03257403	0	0
32.07043	-0.200885	0.3780949	0	0	0	0	0	0
32.08684	-0.200885	0.3780949	0	0	0	0	0	0
32.10729	-0.200885	0.3780949	0	0	0	0	0	0
32.12386	-0.200885	0.3780949	0	0	0	0	0	0
32.14042	-0.2008597	0.3781128	0.001525443	0.001079323	0.04603797	0.03257403	0	0
32.15699	-0.2008597	0.3781128	0	0	-0.04603267	-0.03257028	0	0
32.17401	-0.2008597	0.3781128	0	0	0	0	0	0
32.19012	-0.2008597	0.378077	0	-0.002217086	0	-0.06691948	0	0
32.20669	-0.2008345	0.3780591	0.001525443	-0.001079323	0.04667201	0.03481065	0	0
32.22326	-0.2008345	0.3780591	0	0	-0.04603797	0.03257403	0	0
32.24006	-0.2008345	0.3780591	0	0	0	0	0	0
32.25639	-0.2007839	0.3780234	0.003092714	-0.002187062	0.09333829	-0.06600567	0	0
32.27309	-0.2007587	0.3780055	0.00151394	-0.001071184	-0.04779607	0.03378229	0	0
32.28959	-0.2006829	0.3779519	0.004592349	-0.003248137	0.09272509	-0.06557224	0	0
32.3061	-0.2004807	0.3777732	0.01224584	-0.01082342	0.2318102	-0.2294413	0	0
32.32266	-0.199773	0.3772371	0.04274734	-0.03238227	0.9224486	-0.6519986	0	0
32.33923	-0.1971678	0.3753251	0.1572475	-0.1154084	3.456815	-2.5066	0	0
32.35579	-0.1900722	0.3698221	0.4282907	-0.3321599	8.180099	-6.541572	0	0
32.37236	-0.1820156	0.3584437	0.4862989	-0.6868056	1.750692	-10.70323	0	0
32.38893	-0.180437	0.3442998	0.09528354	-0.8537284	-11.80087	-5.037738	0	0
32.40549	-0.1786791	0.3203164	0.1061056	-1.44764	0.326609	-17.9243	0	0
32.42206	-0.1766906	0.300093	0.1200261	-1.220687	0.4201236	6.849449	0	0
32.43863	-0.1740116	0.2792275	0.1617087	-1.25944	1.257982	-1.169569	0	0
32.4552	-0.1692085	0.2517241	0.2899143	-1.660112	3.869253	-12.0923	0	0
32.47176	-0.165217	0.2317739	0.2409301	-1.204193	-1.478346	13.75965	0	0
32.48833	-0.1607586	0.2127907	0.2691076	-1.145831	0.8503991	1.761383	0	0
32.50525	-0.1532109	0.1892889	0.446129	-1.389143	5.286522	-7.266198	0	0
32.52176	-0.1486841	0.1784136	0.2741875	-0.6587095	-5.143606	21.85081	0	0
32.53803	-0.1386313	0.1578421	0.6178808	-1.26441	10.48495	-18.47791	0	0
32.55478	-0.129068	0.1438219	0.5708053	-0.836818	-1.425503	12.94797	0	0
32.57116	-0.1141594	0.1268667	0.9101535	-1.035094	10.24155	-5.983994	0	0
32.58781	-0.103263	0.1142829	0.6546935	-0.7560765	-7.735626	8.448984	0	0
32.60432	-0.09215925	0.1025283	0.6723893	-0.7118074	0.533693	1.335123	0	0
32.62086	-0.08526644	0.09449174	0.4166263	-0.4857571	-7.736759	6.837956	0	0
32.654	-0.06407008	0.06267826	0.6397073	-0.960133	4.490468	-9.548859	0	0
32.7204	-0.04496966	0.007512329	0.2876464	-0.8307816	-3.536989	1.299531	0	0
32.73683	-0.04318366	-0.003021556	0.1087043	-0.6411411	-2.160293	2.28945	0	0
32.75343	-0.0417389	-0.01296543	0.0870656	-0.5992473	-0.6552451	1.268592	0	0
32.76997	-0.04042533	-0.02557626	0.07941507	-0.7624204	-0.2308935	-4.924573	0	0
32.78653	-0.0394532	-0.03410696	0.05867807	-0.5149139	-0.6263486	7.475788	0	0
32.82347	-0.03256743	-0.05016942	0.1863966	-0.4348077	2.386871	1.497066	0	0
32.83998	-0.02680936	-0.05516616	0.3487619	-0.3026491	3.037617	2.472494	0	0
32.8563	-0.01723514	-0.06207241	0.5869567	-0.423394	7.257245	-3.678818	0	0
32.87286	-0.008920816	-0.06810988	0.5018533	-0.3644222	-2.588389	1.793607	0	0
32.88952	-0.0006315788	-0.07417963	0.4977035	-0.3644412	-0.1249112	-0.0005732217	0	0
32.90599	0.009789161	-0.08182912	0.6324924	-0.4642893	4.068404	-3.013769	0	0
32.92256	0.01731406	-0.0873671	0.4542038	-0.3342735	-5.395669	3.934756	0	0
32.93913	0.02197015	-0.09080017	0.2810421	-0.2072201	-5.226028	3.83448	0	0
32.9557	0.029991	-0.0967263	0.4841398	-0.357702	6.1295	-4.541553	0	0
32.97226	0.03233084	-0.09845807	0.1412326	-0.1045297	-10.34896	7.640756	0	0
32.98883	0.03364519	-0.09943147	0.07933474	-0.05875475	-1.86808	1.381492	0	0
33.0054	0.03364519	-0.09943147	0	0	-2.394327	1.773222	0	0
33.02197	0.03364519	-0.09943147	0	0	0	0	0	0
33.03853	0.03364519	-0.09943147	0	0	0	0	0	0
33.0551	0.03364519	-0.09943147	0	0	0	0	0	0
33.07167	0.03364519	-0.09943147	0	0	0	0	0	0
33.08823	0.03364519	-0.09943147	0	0	0	0	0	0
33.1048	0.03361891	-0.09945094	-0.001586605	-0.001175113	-0.04788383	-0.03546498	0	0
33.12137	0.03361891	-0.09945094	0	0	0.04788383	0.03546498	0	0
33.13794	0.03361891	-0.09945094	0	0	0	0	0	0
33.1545	0.03361891	-0.09945094	0	0	0	0	0	0
33.17123	0.03361891	-0.09945094	0	0	0	0	0	0
33.18774	0.03361891	-0.09945094	0	0	0	0	0	0
33.20425	0.03359262	-0.09943147	-0.001592104	0.001179186	-0.04821632	0.03571124	0	0
33.26356	0.03359262	-0.09943147	0	0	0.02099821	-0.01555225	0	0
33.28012	0.03359262	-0.09943147	0	0	0	0	0	0
33.29669	0.03359262	-0.09943147	0	0	0	0	0	0
33.31332	0.03359262	-0.09943147	0	0	0	0	0	0
33.32984	0.03359262	-0.09943147	0	0	0	0	0	0
33.36296	0.03359262	-0.09943147	0	0	0	0	0	0
33.37953	0.03359262	-0.09943147	0	0	0	0	0	0
33.3961	0.03359262	-0.09943147	0	0	0	0	0	0
33.4129	0.03359262	-0.09943147	0	0	0	0	0	0
33.42941	0.03359262	-0.09943147	0	0	0	0	0	0
33.44579	0.03359262	-0.09943147	0	0	0	0	0	0
33.4642	0.03359262	-0.09943147	0	0	0	0	0	0
33.48095	0.03359262	-0.09943147	0	0	0	0	0	0
33.49746	0.03359262	-0.09943147	0	0	0	0	0	0
33.51397	0.03359262	-0.09943147	0	0	0	0	0	0
33.59674	0.03356634	-0.09941199	-0.0003175842	0.0002353076	-0.003198832	0.00237011	0	0
33.61331	0.03356634	-0.09941199	0	0	0.003197112	-0.002368835	0	0
33.63005	0.03356634	-0.09941199	0	0	0	0	0	0
33.64644	0.03356634	-0.09941199	0	0	0	0	0	0
33.66308	0.03356634	-0.09941199	0	0	0	0	0	0
33.67959	0.03356634	-0.09941199	0	0	0	0	0	0
33.69614	0.03354005	-0.09939253	-0.001588293	0.001176196	-0.04803985	0.03557549	0	0
33.71271	0.03348748	-0.09935358	-0.00317321	0.002350676	-0.04785493	0.03546219	0	0
33.72963	0.0332509	-0.09917835	-0.01398367	0.01035751	-0.3228409	0.239114	0	0
33.74584	0.0316999	-0.09783527	-0.09564432	0.08282288	-2.464523	2.187009	0	0
33.76241	0.03080604	-0.09697918	-0.05395367	0.05167394	1.271696	-0.9501405	0	0
33.77898	0.02333787	-0.09033441	-0.4507798	0.4010791	-11.97624	10.54507	0	0
33.79554	0.008762933	-0.07875517	-0.8797448	0.6989242	-12.94619	8.988981	0	0
33.81211	-0.004263132	-0.0668975	-0.7862549	0.7157301	2.82153	0.5072045	0	0
33.8287	-0.02012886	-0.04544853	-0.956556	1.293174	-5.136742	17.41725	0	0
33.84525	-0.02883411	-0.02513991	-0.5260558	1.227244	12.99252	-1.989761	0	0
33.86222	-0.03674661	0.005577321	-0.4660107	1.809107	1.790925	17.35488	0	0
33.87838	-0.04236937	0.03912828	-0.3480453	2.076785	3.560205	8.078521	0	0
33.89495	-0.04672911	0.06502736	-0.2631549	1.563272	2.594252	-15.69299	0	0
33.91151	-0.04969589	0.08228097	-0.179075	1.04143	2.537538	-15.74922	0	0
33.92827	-0.05722692	0.1243853	-0.4494002	2.512498	-8.111736	44.14283	0	0
33.94465	-0.06024281	0.140839	-0.1841593	1.004714	8.004987	-45.50501	0	0
33.96122	-0.06503972	0.1653288	-0.2895421	1.478206	-3.198875	14.37274	0	0
33.97781	-0.069886	0.1902636	-0.2920515	1.502645	-0.07567062	0.7369974	0	0
33.99435	-0.076953	0.2253787	-0.4272538	2.122974	-4.080413	18.72155	0	0
34.01097	-0.08529257	0.2635666	-0.5018751	2.298144	-2.250522	5.28299	0	0
34.02748	-0.09017583	0.2838066	-0.2956391	1.225359	6.224216	-32.37671	0	0
34.04405	-0.1036535	0.3361033	-0.8135132	3.156637	-15.6529	58.37344	0	0
34.06062	-0.1095855	0.356497	-0.3580587	1.230963	13.74565	-58.11696	0	0
34.07738	-0.1191176	0.3850296	-0.5685501	1.701858	-6.314838	14.12707	0	0
34.09375	-0.1335167	0.4167342	-0.8796632	1.936886	-9.389413	7.093185	0	0
34.11041	-0.1537763	0.4438856	-1.21643	1.630227	-10.19769	-9.286008	0	0
34.13263	-0.1641926	0.4549548	-0.4688486	0.4982333	19.23199	-29.12123	0	0
34.14919	-0.1736797	0.4624925	-0.572642	0.4549778	-2.67619	-1.115292	0	0
34.16576	-0.1815319	0.4680381	-0.4739613	0.3347341	2.978189	-3.628965	0	0
34.18233	-0.1872539	0.472092	-0.3453798	0.2446915	3.880599	-2.717489	0	0
34.19889	-0.1880921	0.4726507	-0.05059327	0.03372345	8.896674	-6.36703	0	0
34.21548	-0.1879905	0.4724704	0.006124403	-0.01086707	1.710758	-1.34497	0	0
34.23203	-0.1880159	0.4724164	-0.001534405	-0.003266915	-0.2311433	0.229373	0	0
34.2486	-0.1879651	0.4721641	0.003066177	-0.01522925	0.1389258	-0.3612319	0	0
34.26552	-0.1880413	0.4719658	-0.004502402	-0.01171523	-0.2260004	0.1049299	0	0
34.28203	-0.1881683	0.4718757	-0.007689781	-0.00545738	-0.09532826	0.18716	0	0
34.2983	-0.1882445	0.4717856	-0.004683103	-0.00553874	0.0917238	-0.002482021	0	0
34.31487	-0.1885492	0.4713891	-0.01839256	-0.02393219	-0.41755	-0.5602106	0	0
34.33143	-0.1892854	0.4705783	-0.04444023	-0.0489437	-0.7861201	-0.7548489	0	0
34.348	-0.1882699	0.4693891	0.06130015	-0.07177498	3.191251	-0.6890494	0	0
34.36459	-0.1821174	0.4650307	0.370766	-0.2626508	9.332176	-5.756006	0	0
34.38113	-0.1772771	0.4616106	0.29263	-0.2067718	-2.358148	1.686433	0	0
34.3977	-0.1715088	0.4575445	0.3481761	-0.2454327	1.677737	-1.167728	0	0
34.41427	-0.1706656	0.4569509	0.05089818	-0.03582633	-8.971867	6.325932	0	0
34.43084	-0.1689017	0.4556741	0.1064716	-0.07707266	1.67721	-1.244817	0	0
34.4474	-0.1689272	0.4556561	-0.001543432	-0.00108472	-3.259901	2.29332	0	0
34.46397	-0.1690551	0.4554583	-0.00771716	-0.01194091	-0.1863235	-0.3276405	0	0
34.48054	-0.1692596	0.4552784	-0.01234746	-0.01085439	-0.1397426	0.03279118	0	0
34.4971	-0.1692596	0.4552425	0	-0.002169439	0.372647	0.2621124	0	0
34.51367	-0.1692341	0.4551885	0.001543432	-0.003255958	0.04658087	-0.0327912	0	0
34.53024	-0.1691318	0.4549368	0.006173728	-0.01519687	0.1397426	-0.3603774	0	0
34.54681	-0.1689528	0.4546311	0.01080402	-0.01844923	0.1397426	-0.09815642	0	0
34.56337	-0.1628605	0.4501731	0.3677334	-0.2690842	10.77215	-7.56418	0	0
34.57994	-0.1593223	0.4475498	0.213563	-0.1583457	-4.652875	3.342096	0	0
34.59651	-0.1531595	0.4431314	0.3719896	-0.2666935	4.781325	-3.269944	0	0
34.61308	-0.149945	0.4407435	0.1940272	-0.1441346	-5.370915	3.698836	0	0
34.62964	-0.1492245	0.4398459	0.04348863	-0.05417662	-4.543263	2.714937	0	0
34.64621	-0.153031	0.4372974	-0.2297582	-0.1538323	-8.246606	-3.007615	0	0
34.66281	-0.1586809	0.4332426	-0.3403266	-0.244243	-3.333508	-2.725774	0	0
34.67934	-0.1671622	0.4271633	-0.5131143	-0.3677897	-5.215342	-3.729078	0	0
34.69591	-0.1712533	0.4242236	-0.2469401	-0.1774425	8.042411	5.751311	0	0
34.71247	-0.1778125	0.4188659	-0.3959137	-0.3233922	-4.496031	-4.40477	0	0
34.74949	-0.1825755	0.4090704	-0.1286804	-0.2646435	4.987442	1.096441	0	0
34.76606	-0.1791888	0.3987451	0.2044229	-0.6232371	6.21679	-6.692522	0	0
34.78289	-0.1780165	0.3933793	0.06962311	-0.31867	-4.035281	9.117329	0	0
34.79921	-0.1757469	0.3906076	0.1391396	-0.1699219	2.097046	4.487161	0	0
34.81592	-0.1758234	0.390697	-0.004578389	0.005348585	-4.351445	5.306779	0	0
34.83243	-0.1757979	0.3906791	0.001544268	-0.001083064	0.184273	-0.1935727	0	0
34.84889	-0.1757979	0.3906791	0	0	-0.04683799	0.03284955	0	0
