Time	Pos X	Pos Y	Vel X	Vel Y	Acc X	Acc YForce X	Force Y
0.01656752	-0.2055299	0.3901784	0.003126512	-0.005935377	-4.757234E-05	9.031144E-05	0	0
0.04749233	-0.2055299	0.3901784	0	0	4.758274E-05	-9.033118E-05	0	0
0.06406143	-0.2055299	0.3901784	0	0	0	0	0	0
0.08062698	-0.2055299	0.3901784	0	0	0	0	0	0
0.09742978	-0.2055299	0.3901784	0	0	0	0	0	0
0.113942	-0.2055299	0.3901784	0	0	0	0	0	0
0.1304523	-0.2055299	0.3901784	0	0	0	0	0	0
0.1468943	-0.2055299	0.3901784	0	0	0	0	0	0
0.1634776	-0.2055299	0.3901784	0	0	0	0	0	0
0.180027	-0.2055047	0.3901606	0.001523488	-0.001080488	0.04598145	-0.03261096	0	0
0.1965953	-0.2055047	0.3901606	0	0	-0.04600227	0.03262572	0	0
0.2135102	-0.2055299	0.3901427	-0.001490565	-0.001057138	-0.04451677	-0.03157218	0	0
0.2297268	-0.2055299	0.3901427	0	0	0.04498937	0.03190735	0	0
0.2462931	-0.2055299	0.3901427	0	0	0	0	0	0
0.2628603	-0.2055299	0.3901427	0	0	0	0	0	0
0.2794266	-0.2055047	0.3901248	0.001521928	-0.001079381	0.04593323	-0.03257676	0	0
0.2959929	-0.2055047	0.3901248	0	0	-0.04593435	0.03257755	0	0
0.3125601	-0.2055047	0.3901248	0	0	0	0	0	0
0.3456931	-0.2054795	0.3901069	0.0007614046	-0.0005396843	0.01531995	-0.0108588	0	0
0.3622595	-0.2054795	0.3901069	0	0	-0.0153202	0.01085897	0	0
0.3788262	-0.2054542	0.390089	0.001522791	-0.001079356	0.04595988	-0.03257641	0	0
0.3953933	-0.2054542	0.390089	0	0	-0.04595876	0.03257562	0	0
0.4121495	-0.2054542	0.390089	0	0	0	0	0	0
0.4285264	-0.2054542	0.390089	0	0	0	0	0	0
0.4451737	-0.2054542	0.390089	0	0	0	0	0	0
0.4616599	-0.2054542	0.390089	0	0	0	0	0	0
0.4818272	-0.2054542	0.390089	0	0	0	0	0	0
0.4987117	-0.2054542	0.390089	0	0	0	0	0	0
0.5152236	-0.2054542	0.390089	0	0	0	0	0	0
0.5315286	-0.2054542	0.390089	0	0	0	0	0	0
0.5480949	-0.2054542	0.390089	0	0	0	0	0	0
0.5647635	-0.2054542	0.390089	0	0	0	0	0	0
0.5812734	-0.2054542	0.390089	0	0	0	0	0	0
0.5977947	-0.2054542	0.390089	0	0	0	0	0	0
0.6143627	-0.2054542	0.390089	0	0	0	0	0	0
0.6313135	-0.2054542	0.390089	0	0	0	0	0	0
0.6474946	-0.2054542	0.390089	0	0	0	0	0	0
0.6640609	-0.2054542	0.390089	0	0	0	0	0	0
0.6808412	-0.205429	0.3900712	0.00150252	-0.001065617	0.0450576	-0.03195575	0	0
0.6971948	-0.205429	0.3900712	0	0	-0.04534696	0.03216097	0	0
0.7137615	-0.205429	0.3900712	0	0	0	0	0	0
0.7303768	-0.205429	0.3900712	0	0	0	0	0	0
0.746895	-0.205429	0.3900712	0	0	0	0	0	0
0.7634621	-0.205429	0.3900712	0	0	0	0	0	0
0.7800284	-0.205429	0.3900712	0	0	0	0	0	0
0.7969236	-0.205429	0.3900712	0	0	0	0	0	0
0.8131615	-0.205429	0.3900712	0	0	0	0	0	0
0.8297278	-0.205429	0.3900712	0	0	0	0	0	0
0.8462958	-0.205429	0.3900712	0	0	0	0	0	0
0.8628617	-0.205429	0.3900712	0	0	0	0	0	0
0.8794276	-0.205429	0.3900712	0	0	0	0	0	0
0.9125611	-0.205429	0.3900712	0	0	0	0	0	0
0.9291274	-0.205429	0.3900712	0	0	0	0	0	0
0.9456941	-0.205429	0.3900712	0	0	0	0	0	0
0.9622609	-0.205429	0.3900712	0	0	0	0	0	0
0.9788272	-0.205429	0.3900712	0	0	0	0	0	0
0.995394	-0.205429	0.3900712	0	0	0	0	0	0
1.012073	-0.205429	0.3900712	0	0	0	0	0	0
1.028586	-0.205429	0.3900712	0	0	0	0	0	0
1.045097	-0.205429	0.3900712	0	0	0	0	0	0
1.061661	-0.205429	0.3900712	0	0	0	0	0	0
1.097955	-0.205429	0.3900712	0	0	0	0	0	0
1.11465	-0.205429	0.3900712	0	0	0	0	0	0
1.131161	-0.205429	0.3900712	0	0	0	0	0	0
1.147672	-0.205429	0.3900712	0	0	0	0	0	0
1.164222	-0.205429	0.3900712	0	0	0	0	0	0
1.180789	-0.205429	0.3900712	0	0	0	0	0	0
1.197355	-0.205429	0.3900712	0	0	0	0	0	0
1.213922	-0.205429	0.3900712	0	0	0	0	0	0
1.230731	-0.205429	0.3900712	0	0	0	0	0	0
1.247242	-0.205429	0.3900712	0	0	0	0	0	0
1.263623	-0.205429	0.3900712	0	0	0	0	0	0
1.280273	-0.205429	0.3900712	0	0	0	0	0	0
1.296779	-0.205429	0.3900712	0	0	0	0	0	0
1.313322	-0.205429	0.3900712	0	0	0	0	0	0
1.329889	-0.205429	0.3900712	0	0	0	0	0	0
1.346456	-0.205429	0.3900712	0	0	0	0	0	0
1.363025	-0.205429	0.3900712	0	0	0	0	0	0
1.379838	-0.205429	0.3900712	0	0	0	0	0	0
1.396156	-0.205429	0.3900712	0	0	0	0	0	0
1.412722	-0.205429	0.3900712	0	0	0	0	0	0
1.429289	-0.205429	0.3900712	0	0	0	0	0	0
1.445881	-0.205429	0.3900712	0	0	0	0	0	0
1.462422	-0.205429	0.3900712	0	0	0	0	0	0
1.478989	-0.205429	0.3900712	0	0	0	0	0	0
1.495555	-0.2054038	0.3900533	0.001522822	-0.001079377	0.04596116	-0.03257731	0	0
1.528689	-0.2053786	0.3900354	0.0007609364	-0.0005396712	-0.0153296	0.01085922	0	0
1.545255	-0.2052272	0.3899281	0.009135131	-0.006474466	0.168494	-0.1194117	0	0
1.561966	-0.204975	0.3897493	0.01509477	-0.01070045	0.1790904	-0.1269931	0	0
1.578478	-0.2045966	0.3894454	0.02291679	-0.01840815	0.2354413	-0.2320004	0	0
1.594956	-0.20442	0.3893202	0.01071909	-0.007594611	-0.3697461	0.3277885	0	0
1.611522	-0.2042686	0.3891772	0.009138531	-0.008634833	-0.04783168	-0.03147967	0	0
1.628089	-0.2038396	0.3888375	0.02589516	-0.02050637	0.5057362	-0.358298	0	0
1.644656	-0.2024259	0.3878363	0.08533373	-0.06043304	1.793931	-1.205037	0	0
1.661223	-0.1975474	0.3843861	0.294463	-0.2082506	6.311579	-4.461174	0	0
1.677789	-0.1897423	0.3788812	0.4711621	-0.3323103	5.33302	-3.74429	0	0
1.69846	-0.1813537	0.3729844	0.405798	-0.285255	-1.755333	1.263655	0	0
1.715073	-0.1782714	0.3708226	0.1855477	-0.1301353	-5.907366	4.160487	0	0
1.731596	-0.1747262	0.3683394	0.214552	-0.1502871	0.8753242	-0.6081626	0	0
1.748167	-0.1701289	0.3651239	0.2774355	-0.194041	1.900124	-1.322092	0	0
1.764731	-0.1687482	0.3641593	0.08335163	-0.0582336	-5.857357	4.098602	0	0
1.781299	-0.1687738	0.3641772	-0.001543332	0.001077454	-2.562301	1.790127	0	0
1.798143	-0.1687738	0.3641772	0	0	0.04619081	-0.03224743	0	0
1.814435	-0.1687738	0.3641772	0	0	0	0	0	0
1.831155	-0.1687738	0.3641772	0	0	0	0	0	0
1.847668	-0.1687738	0.3641772	0	0	0	0	0	0
1.86418	-0.1687738	0.3641772	0	0	0	0	0	0
1.880695	-0.1687994	0.364195	-0.001548312	0.001080931	-0.04688028	0.03272877	0	0
1.897705	-0.1687994	0.364195	0	0	0.04618479	-0.03224323	0	0
1.91383	-0.1687994	0.364195	0	0	0	0	0	0
1.930395	-0.1687994	0.364195	0	0	0	0	0	0
1.946966	-0.1687994	0.364195	0	0	0	0	0	0
1.963529	-0.1687994	0.364195	0	0	0	0	0	0
1.980262	-0.1688249	0.3642129	-0.001528115	0.001068612	-0.04589372	0.03209351	0	0
1.996774	-0.1688249	0.3642129	0	0	0.04596498	-0.03214334	0	0
2.06293	-0.1688249	0.3642129	0	0	0	0	0	0
2.112628	-0.1688505	0.3642308	-0.0005145143	0.0003592006	-0.004441053	0.003100455	0	0
2.129196	-0.1688505	0.3642308	0	0	0.007764456	-0.00542064	0	0
2.145762	-0.1688505	0.3642308	0	0	0	0	0	0
2.162391	-0.1688505	0.3642308	0	0	0	0	0	0
2.178896	-0.1688505	0.3642308	0	0	0	0	0	0
2.195462	-0.1688505	0.3642308	0	0	0	0	0	0
2.212028	-0.1688761	0.3642486	-0.001543521	0.001077586	-0.04658724	0.03252419	0	0
2.228595	-0.1688761	0.3642486	0	0	0.04658556	-0.03252302	0	0
2.245162	-0.1689017	0.3642665	-0.001544331	0.001079323	-0.04660869	0.0325745	0	0
2.261728	-0.1689017	0.3642665	0	0	0.04660936	-0.03257497	0	0
2.27847	-0.1689017	0.3642665	0	0	0	0	0	0
2.294982	-0.1689272	0.3642843	-0.00154858	0.001081118	-0.04656869	0.03251124	0	0
2.311493	-0.1689528	0.3643022	-0.001548692	0.001083001	-3.387782E-06	5.702472E-05	0	0
2.328004	-0.1689784	0.3643201	-0.001548692	0.001081196	0	-5.466124E-05	0	0
2.344561	-0.1690039	0.3643379	-0.001544365	0.001078176	0.000130831	-9.133843E-05	0	0
2.361128	-0.1690295	0.3643558	-0.00154341	0.001079308	2.885019E-05	3.416405E-05	0	0
2.377694	-0.1690295	0.3643558	0	0	0.04658154	-0.0325745	0	0
2.396865	-0.1690551	0.3643737	-0.001333839	0.0009312	-0.03732422	0.02605735	0	0
2.413432	-0.1690551	0.3643737	0	0	0.03732297	-0.02605648	0	0
2.446567	-0.1691062	0.3644094	-0.001543421	0.001078416	-0.03105354	0.02169767	0	0
2.463134	-0.1691062	0.3644094	0	0	0.03105339	-0.02169756	0	0
2.4797	-0.1691062	0.3644094	0	0	0	0	0	0
2.496268	-0.1691062	0.3644094	0	0	0	0	0	0
2.512834	-0.1691062	0.3644094	0	0	0	0	0	0
2.529649	-0.1691062	0.3644094	0	0	0	0	0	0
2.545968	-0.1691062	0.3644094	0	0	0	0	0	0
2.562677	-0.1691062	0.3644094	0	0	0	0	0	0
2.579184	-0.1691318	0.3644272	-0.00154905	0.001081446	-0.04663498	0.03255752	0	0
2.595698	-0.1691318	0.3644272	0	0	0.04691176	-0.03275075	0	0
2.612233	-0.1691318	0.3644272	0	0	0	0	0	0
2.628799	-0.1691318	0.3644272	0	0	0	0	0	0
2.645366	-0.1691318	0.3644272	0	0	0	0	0	0
2.662243	-0.1691318	0.3644272	0	0	0	0	0	0
2.678499	-0.1691318	0.3644272	0	0	0	0	0	0
2.69507	-0.1691318	0.3644272	0	0	0	0	0	0
2.711778	-0.1691318	0.3644272	0	0	0	0	0	0
2.728288	-0.1691318	0.3644272	0	0	0	0	0	0
2.744766	-0.1691318	0.3644272	0	0	0	0	0	0
2.761333	-0.1691318	0.3644272	0	0	0	0	0	0
2.777899	-0.1691318	0.3644272	0	0	0	0	0	0
2.794466	-0.1691318	0.3644272	0	0	0	0	0	0
2.811346	-0.1691318	0.3644272	0	0	0	0	0	0
2.827599	-0.1691318	0.3644272	0	0	0	0	0	0
2.926999	-0.1693875	0.3644272	-0.002572317	0	-0.02224163	0	0	0
2.943566	-0.1694386	0.364463	-0.003086953	0.002156909	-0.004437777	0.01859933	0	0
2.960133	-0.1695153	0.3644808	-0.00462953	0.001077555	-0.0465564	-0.03257591	0	0
2.9767	-0.169592	0.3644987	-0.00462953	0.001079354	0	5.429095E-05	0	0
2.993267	-0.1696687	0.3644808	-0.004629396	-0.001079323	4.019412E-06	-0.06514995	0	0
3.009987	-0.1698477	0.3643915	-0.01070334	-0.005341865	-0.182469	-0.1280522	0	0
3.026499	-0.1708956	0.363802	-0.06346472	-0.03569907	-1.587658	-0.9134874	0	0
3.042967	-0.1766396	0.3603905	-0.3488092	-0.2071684	-8.652181	-5.199274	0	0
3.059533	-0.1847123	0.3551575	-0.4872825	-0.315873	-4.191802	-3.290654	0	0
3.079536	-0.2006323	0.3454784	-0.7959058	-0.4838997	-8.43945	-4.594771	0	0
3.096106	-0.2076726	0.3418533	-0.4248734	-0.2187666	10.14507	7.249482	0	0
3.113564	-0.22164	0.3358533	-0.8000495	-0.3436787	-11.02534	-3.670805	0	0
3.129239	-0.2329805	0.3328176	-0.7234938	-0.1936736	2.310573	4.527393	0	0
3.146085	-0.2447557	0.3307818	-0.6989858	-0.1208462	0.7536107	2.239411	0	0
3.162372	-0.2571514	0.3294246	-0.7610629	-0.08332846	-1.873545	1.13232	0	0
3.178937	-0.2729111	0.3272994	-0.9514202	-0.1282961	-5.794446	-1.368808	0	0
3.195504	-0.284077	0.324817	-0.6739761	-0.149837	8.374005	-0.6501621	0	0
3.212131	-0.2970244	0.3202806	-0.7786945	-0.2728316	-3.154711	-3.705291	0	0
3.228637	-0.3056156	0.3163512	-0.5204912	-0.2380635	7.792928	1.049347	0	0
3.245203	-0.3157307	0.3129215	-0.6105812	-0.2070261	-2.724039	0.9384741	0	0
3.261771	-0.3279744	0.309295	-0.7389986	-0.2188863	-3.875672	-0.3579434	0	0
3.278336	-0.3389471	0.3079194	-0.662398	-0.08304488	2.311911	4.099878	0	0
3.29519	-0.3544494	0.3064901	-0.9198361	-0.0848093	-7.703481	-0.05279796	0	0
3.31147	-0.3616515	0.3060612	-0.4423859	-0.02634036	14.40989	1.764647	0	0
3.328037	-0.37546	0.3041137	-0.833506	-0.1175596	-11.90736	-2.777103	0	0
3.344724	-0.3856003	0.3020945	-0.6076554	-0.1209996	6.791605	-0.1034434	0	0
3.361236	-0.3976951	0.3001287	-0.7324783	-0.1190493	-3.75975	0.05874304	0	0
3.377736	-0.404787	0.2992709	-0.429811	-0.05198791	9.168361	2.031417	0	0
3.394303	-0.4096461	0.2987526	-0.2933055	-0.03128508	4.128181	0.626092	0	0
3.410902	-0.4155867	0.2973764	-0.3578946	-0.082909	-1.947482	-1.556557	0	0
3.427437	-0.4168855	0.2962861	-0.07855037	-0.06593898	8.430869	0.5121711	0	0
3.444003	-0.4176113	0.2956963	-0.04381098	-0.03560429	1.049479	0.9164126	0	0
3.46057	-0.4175673	0.2956963	0.002653412	0	1.402339	1.074571	0	0
3.477136	-0.4175673	0.2956963	0	0	-0.0800836	0	0	0
3.493703	-0.4175234	0.2956606	0.002655211	-0.002156909	0.08013789	-0.06509846	0	0
3.51027	-0.4174574	0.2956069	0.003982817	-0.003238062	0.04006837	-0.0326302	0	0
3.526837	-0.4173254	0.2954997	0.007963605	-0.00647234	0.1201422	-0.09761211	0	0
3.543403	-0.4171275	0.2953388	0.01194879	-0.009710869	0.1202767	-0.0977418	0	0
3.559972	-0.4168855	0.2951422	0.01460579	-0.0118681	0.08018764	-0.06510495	0	0
3.576539	-0.4164894	0.2948204	0.02390769	-0.01942118	0.280726	-0.2279474	0	0
3.692503	-0.4161592	0.2945881	0.002847498	-0.002003785	-0.1589069	0.1314206	0	0
3.709482	-0.4161592	0.2945881	0	0	-0.02141887	0.01507247	0	0
3.725637	-0.4161592	0.2945881	0	0	0	0	0	0
3.742207	-0.4161592	0.2946238	0	0.002158335	0	0.06595448	0	0
3.759018	-0.4161592	0.2946238	0	0	0	-0.0646567	0	0
3.775337	-0.4161592	0.2946238	0	0	0	0	0	0
3.791903	-0.4161592	0.2946238	0	0	0	0	0	0
3.80847	-0.4161812	0.2946417	-0.001329405	0.001077555	-0.04012266	0.03252162	0	0
3.825037	-0.4161812	0.2946417	0	0	0.04012266	-0.03252162	0	0
3.841604	-0.4161812	0.2946417	0	0	0	0	0	0
3.861044	-0.4161812	0.2946417	0	0	0	0	0	0
3.877612	-0.4162033	0.2946596	-0.001329366	0.001079323	-0.03691876	0.02997463	0	0
3.894178	-0.4162033	0.2946596	0	0	0.04012093	-0.0325745	0	0
3.910746	-0.4162033	0.2946596	0	0	0	0	0	0
3.927312	-0.4162033	0.2946596	0	0	0	0	0	0
3.943879	-0.4162033	0.2946596	0	0	0	0	0	0
3.960446	-0.4162033	0.2946596	0	0	0	0	0	0
3.977012	-0.4162033	0.2946596	0	0	0	0	0	0
3.993579	-0.4162033	0.2946596	0	0	0	0	0	0
4.010196	-0.4162033	0.2946596	0	0	0	0	0	0
4.026712	-0.4162033	0.2946596	0	0	0	0	0	0
4.043279	-0.4162033	0.2946596	0	0	0	0	0	0
4.059845	-0.4162033	0.2946596	0	0	0	0	0	0
4.076412	-0.4162033	0.2946596	0	0	0	0	0	0
4.092979	-0.4162033	0.2946596	0	0	0	0	0	0
4.109545	-0.4162033	0.2946596	0	0	0	0	0	0
4.126119	-0.4162033	0.2946596	0	0	0	0	0	0
4.142679	-0.4162033	0.2946596	0	0	0	0	0	0
4.159245	-0.4162033	0.2946596	0	0	0	0	0	0
4.17582	-0.4162033	0.2946596	0	0	0	0	0	0
4.192379	-0.4162033	0.2946596	0	0	0	0	0	0
4.208945	-0.4162033	0.2946596	0	0	0	0	0	0
4.225512	-0.4162033	0.2946596	0	0	0	0	0	0
4.242079	-0.4162033	0.2946596	0	0	0	0	0	0
4.258646	-0.4162033	0.2946596	0	0	0	0	0	0
4.275383	-0.4162033	0.2946596	0	0	0	0	0	0
4.291894	-0.4162033	0.2946596	0	0	0	0	0	0
4.308345	-0.4162033	0.2946596	0	0	0	0	0	0
4.440879	-0.4161592	0.2946596	0.0003323523	0	0.002230786	0	0	0
4.457512	-0.4161372	0.2946774	0.001322315	0.001075053	0.006636626	0.007207063	0	0
4.474012	-0.4161152	0.2946953	0.001334783	0.001083721	0.0003763002	0.0002616136	0	0
4.490579	-0.4159831	0.2948026	0.007974628	0.006474326	0.2008013	0.1630219	0	0
4.507145	-0.415851	0.2949098	0.007974628	0.006472527	0	-5.429095E-05	0	0
4.523713	-0.4154766	0.2952137	0.02259858	0.01834257	0.4413516	0.3582385	0	0
4.540278	-0.4150359	0.2955712	0.02660118	0.02157995	0.1208041	0.09770864	0	0
4.556845	-0.4123884	0.2977518	0.159811	0.1316236	4.020569	3.321364	0	0
4.573412	-0.4086715	0.3007185	0.2243517	0.1790705	1.947871	1.431969	0	0
4.589978	-0.4036747	0.3047748	0.3016303	0.2448602	2.332373	1.985622	0	0
4.606545	-0.3958819	0.3109743	0.470378	0.3742067	5.093035	3.903854	0	0
4.642329	-0.3862553	0.3186553	0.2690197	0.2146499	-3.846313	-3.047827	0	0
4.659156	-0.3759837	0.3267101	0.6104377	0.4786914	6.489554	5.018808	0	0
4.675463	-0.3672567	0.3335319	0.5351582	0.4183255	-2.271972	-1.821874	0	0
4.692199	-0.3608916	0.3384783	0.380337	0.2955666	-4.68546	-3.715136	0	0
4.708597	-0.3563229	0.342014	0.2786138	0.2156195	-3.070101	-2.412878	0	0
4.725163	-0.3472552	0.3489963	0.5473562	0.4214747	8.152547	6.244807	0	0
4.741729	-0.3429906	0.3522286	0.2574262	0.1951151	-8.75061	-6.831942	0	0
4.758296	-0.3290825	0.3627839	0.8395216	0.6371356	17.56844	13.34078	0	0
4.774863	-0.3241959	0.3664815	0.2949605	0.2231924	-16.43536	-12.49319	0	0
4.79143	-0.3172042	0.3716444	0.422031	0.3116455	3.835107	2.669596	0	0
4.80826	-0.30827	0.3780234	0.5308374	0.3790143	3.257949	2.017198	0	0
4.824563	-0.3015897	0.3820803	0.4097681	0.2488501	-3.654036	-3.92853	0	0
4.841282	-0.2909739	0.3856731	0.6349265	0.2148838	6.818352	-1.028583	0	0
4.857794	-0.2832524	0.3870496	0.4676445	0.08336703	-5.033875	-3.957624	0	0
4.874305	-0.2723009	0.387729	0.6632667	0.04114564	5.923839	-1.27855	0	0
4.89083	-0.2667508	0.3878542	0.3358679	0.007572861	-9.910296	-1.016241	0	0
4.907396	-0.2599061	0.3876217	0.4131772	-0.01403061	2.336293	-0.6528584	0	0
4.923962	-0.2519509	0.3863167	0.4802077	-0.07877713	2.023131	-1.954194	0	0
4.940868	-0.2478991	0.3857089	0.2396612	-0.0359505	-7.186384	1.279456	0	0
4.957096	-0.2410863	0.3831885	0.419835	-0.1553198	5.437814	-3.602676	0	0
4.973876	-0.2394727	0.3820267	0.09616273	-0.06923468	-9.805986	2.608037	0	0
4.99023	-0.2371866	0.3803824	0.1397931	-0.1005456	1.316786	-0.9449796	0	0
5.006796	-0.2355699	0.3792208	0.09759081	-0.07012226	-1.281969	0.9241636	0	0
5.023411	-0.2344499	0.3784166	0.06740938	-0.04840145	-0.9095945	0.6546122	0	0
5.039929	-0.2343503	0.3783451	0.006028628	-0.0043282	-1.852528	1.330171	0	0
5.056496	-0.2343005	0.3783093	0.003006001	-0.002156909	-0.09135849	0.06562695	0	0
5.073062	-0.2342756	0.3782915	0.001503044	-0.001079385	-0.0453613	0.03252115	0	0
5.156505	-0.2133603	0.3636056	0.2506563	-0.1760008	2.491321	-1.749066	0	0
5.172462	-0.2086299	0.3602833	0.2964287	-0.2081889	0.4604864	-0.3238235	0	0
5.189029	-0.2051768	0.3578364	0.2084359	-0.1476988	-2.705423	1.859827	0	0
5.205597	-0.2011882	0.3550146	0.2407381	-0.1703146	0.9748701	-0.6825348	0	0
5.222162	-0.1975727	0.3524251	0.2182651	-0.1563283	-0.678266	0.4221257	0	0
5.239078	-0.1930396	0.3492285	0.267981	-0.1889711	1.484913	-0.9749765	0	0
5.255296	-0.1872539	0.3451212	0.3567486	-0.2532581	2.679088	-1.940242	0	0
5.272086	-0.1840257	0.3428533	0.192273	-0.1350732	-4.982956	3.580535	0	0
5.288603	-0.1829318	0.3420855	0.06622864	-0.04649023	-3.784312	2.659584	0	0
5.304996	-0.1809973	0.3406926	0.1180097	-0.08496713	1.573421	-1.16916	0	0
5.357519	-0.1809463	0.3406212	0.0009697092	-0.00136009	-1.698303	1.213176	0	0
5.374085	-0.1809463	0.3406212	0	0	-0.01403557	0.01968593	0	0
5.390653	-0.1809463	0.3406212	0	0	0	0	0	0
5.407218	-0.1809463	0.3406212	0	0	0	0	0	0
5.424193	-0.1809463	0.3406212	0	0	0	0	0	0
5.440351	-0.1809463	0.3406212	0	0	0	0	0	0
5.457216	-0.1809463	0.3406212	0	0	0	0	0	0
5.474228	-0.1809463	0.3406212	0	0	0	0	0	0
5.490051	-0.1809463	0.3406212	0	0	0	0	0	0
5.50675	-0.1809463	0.3406212	0	0	0	0	0	0
5.523184	-0.1809463	0.3406212	0	0	0	0	0	0
5.539775	-0.1809463	0.3406212	0	0	0	0	0	0
5.556318	-0.1809463	0.3406212	0	0	0	0	0	0
5.572887	-0.1809718	0.3406033	-0.001536915	-0.001077369	-0.04641557	-0.03253707	0	0
5.589452	-0.1809973	0.3405855	-0.001537401	-0.00107771	-1.468983E-05	-1.029799E-05	0	0
5.606019	-0.1809973	0.3405855	0	0	0.04640354	0.03252864	0	0
5.622585	-0.1810482	0.3405497	-0.003073549	-0.002156971	-0.09276391	-0.06510034	0	0
5.639151	-0.1810991	0.340514	-0.003074449	-0.002155172	-2.714626E-05	5.429954E-05	0	0
5.655718	-0.1811246	0.3404962	-0.001536281	-0.001077555	0.04642401	0.03252396	0	0
5.672369	-0.18115	0.3404783	-0.001529432	-0.001072124	0.0002061678	0.0001635022	0	0
5.688851	-0.18115	0.3404783	0	0	0.04615969	0.0323577	0	0
5.705418	-0.1811755	0.3404604	-0.00153718	-0.001079354	-0.04651133	-0.03265863	0	0
5.721984	-0.1811755	0.3404604	0	0	0.04639419	0.03257638	0	0
5.738551	-0.181201	0.3404783	-0.001536281	0.001079354	-0.04636705	0.03257638	0	0
5.755428	-0.181201	0.3404783	0	0	0.04593601	-0.03227355	0	0
5.771684	-0.181201	0.3404783	0	0	0	0	0	0
5.788251	-0.181201	0.3404783	0	0	0	0	0	0
5.804961	-0.181201	0.3404783	0	0	0	0	0	0
5.821474	-0.181201	0.3404783	0	0	0	0	0	0
5.837985	-0.181201	0.3404783	0	0	0	0	0	0
5.854517	-0.181201	0.3404783	0	0	0	0	0	0
5.904219	-0.1812264	0.3404962	-0.0005123786	0.0003591747	-0.007735873	0.005422806	0	0
5.921043	-0.1812264	0.3404962	0	0	0.007701938	-0.005399018	0	0
5.937555	-0.1812264	0.3404962	0	0	0	0	0	0
5.953918	-0.1812264	0.3404962	0	0	0	0	0	0
5.970484	-0.1812264	0.3404962	0	0	0	0	0	0
5.98709	-0.1812519	0.3404783	-0.001533605	-0.001075049	-0.04623172	-0.03240819	0	0
6.003617	-0.1812519	0.3404783	0	0	0.04628628	0.03244644	0	0
6.022794	-0.1812519	0.3404783	0	0	0	0	0	0
6.039362	-0.1812519	0.3404783	0	0	0	0	0	0
6.055929	-0.1812519	0.3404783	0	0	0	0	0	0
6.072651	-0.1812519	0.3404783	0	0	0	0	0	0
6.089062	-0.1812519	0.3404783	0	0	0	0	0	0
6.105675	-0.1812519	0.3404783	0	0	0	0	0	0
6.122195	-0.1812519	0.3404783	0	0	0	0	0	0
6.138762	-0.1812519	0.3404783	0	0	0	0	0	0
6.188463	-0.1812519	0.3404783	0	0	0	0	0	0
6.205246	-0.1812519	0.3404783	0	0	0	0	0	0
6.221756	-0.1812519	0.3404783	0	0	0	0	0	0
6.238272	-0.1812519	0.3404783	0	0	0	0	0	0
6.254729	-0.1812773	0.3404962	-0.001546519	0.001084736	-0.04690352	0.03289837	0	0
6.277043	-0.1812773	0.3404962	0	0	0.0398879	-0.02797758	0	0
6.293806	-0.1812773	0.3404962	0	0	0	0	0	0
6.310177	-0.1812773	0.3404962	0	0	0	0	0	0
6.326887	-0.1813028	0.340514	-0.001523977	0.0010683	-0.04606797	0.03229341	0	0
6.343341	-0.1813028	0.340514	0	0	0.04595272	-0.03221261	0	0
6.359878	-0.1813028	0.340514	0	0	0	0	0	0
6.376443	-0.1813028	0.340514	0	0	0	0	0	0
6.393378	-0.1813028	0.340514	0	0	0	0	0	0
6.409577	-0.1813028	0.340514	0	0	0	0	0	0
6.426401	-0.1813028	0.340514	0	0	0	0	0	0
6.44271	-0.1813028	0.340514	0	0	0	0	0	0
6.459278	-0.1813028	0.340514	0	0	0	0	0	0
6.475936	-0.1813028	0.340514	0	0	0	0	0	0
6.49241	-0.1813028	0.340514	0	0	0	0	0	0
6.508977	-0.1813028	0.340514	0	0	0	0	0	0
6.525544	-0.1813028	0.340514	0	0	0	0	0	0
6.54211	-0.1813283	0.3405319	-0.00153718	0.001077555	-0.04639352	0.03252162	0	0
6.558678	-0.1813283	0.3405319	0	0	0.04639286	-0.03252115	0	0
6.575509	-0.1813283	0.3405319	0	0	0	0	0	0
6.591811	-0.1813283	0.3405319	0	0	0	0	0	0
6.608528	-0.1813537	0.3405497	-0.001522434	0.001067843	-0.04610771	0.03234019	0	0
6.624944	-0.1813537	0.3405497	0	0	0.04594912	-0.03222895	0	0
6.662431	-0.1813537	0.3405497	0	0	0	0	0	0
6.679582	-0.1813792	0.3405676	-0.001484868	0.001042622	-0.02717652	0.0190824	0	0
6.695594	-0.1813792	0.3405676	0	0	0.04477539	-0.03143971	0	0
6.712131	-0.1813792	0.3405676	0	0	0	0	0	0
6.7287	-0.1813792	0.3405676	0	0	0	0	0	0
6.745265	-0.1813792	0.3405676	0	0	0	0	0	0
6.76183	-0.1813792	0.3405676	0	0	0	0	0	0
6.778649	-0.1813792	0.3405676	0	0	0	0	0	0
6.794963	-0.1813792	0.3405676	0	0	0	0	0	0
6.811531	-0.1813792	0.3405676	0	0	0	0	0	0
6.828098	-0.1813792	0.3405676	0	0	0	0	0	0
6.844712	-0.1813792	0.3405676	0	0	0	0	0	0
6.862257	-0.1813792	0.3405676	0	0	0	0	0	0
6.877799	-0.1813792	0.3405676	0	0	0	0	0	0
6.894364	-0.1813792	0.3405676	0	0	0	0	0	0
6.910932	-0.1813792	0.3405676	0	0	0	0	0	0
6.927763	-0.1813792	0.3405676	0	0	0	0	0	0
6.944063	-0.1813792	0.3405676	0	0	0	0	0	0
6.960779	-0.1813792	0.3405676	0	0	0	0	0	0
6.977197	-0.1813792	0.3405676	0	0	0	0	0	0
6.993801	-0.1813792	0.3405676	0	0	0	0	0	0
7.076596	-0.1813792	0.3405676	0	0	0	0	0	0
7.093373	-0.1813792	0.3405676	0	0	0	0	0	0
7.10973	-0.1813792	0.3405676	0	0	0	0	0	0
7.126394	-0.1813792	0.3405676	0	0	0	0	0	0
7.142907	-0.1813792	0.3405676	0	0	0	0	0	0
7.15943	-0.1813792	0.3405676	0	0	0	0	0	0
7.175996	-0.1813792	0.3405676	0	0	0	0	0	0
7.192563	-0.1813792	0.3405676	0	0	0	0	0	0
7.20913	-0.1813792	0.3405676	0	0	0	0	0	0
7.225697	-0.1813792	0.3405676	0	0	0	0	0	0
7.24298	-0.1813792	0.3405676	0	0	0	0	0	0
7.258989	-0.1813792	0.3405676	0	0	0	0	0	0
7.298547	-0.1813792	0.3405676	0	0	0	0	0	0
7.347583	-0.1813792	0.3405676	0	0	0	0	0	0
7.364152	-0.1813792	0.3405676	0	0	0	0	0	0
7.380718	-0.1813792	0.3405676	0	0	0	0	0	0
7.397285	-0.1813792	0.3405676	0	0	0	0	0	0
7.413851	-0.1813792	0.3405676	0	0	0	0	0	0
7.430418	-0.1813792	0.3405676	0	0	0	0	0	0
7.446984	-0.1813792	0.3405676	0	0	0	0	0	0
7.463551	-0.1813792	0.3405676	0	0	0	0	0	0
7.480144	-0.1813792	0.3405676	0	0	0	0	0	0
7.496684	-0.1813792	0.3405676	0	0	0	0	0	0
7.513251	-0.1813792	0.3405676	0	0	0	0	0	0
7.546383	-0.1813792	0.3405676	0	0	0	0	0	0
7.562957	-0.1813792	0.3405676	0	0	0	0	0	0
7.579518	-0.1813792	0.3405676	0	0	0	0	0	0
7.596226	-0.1813792	0.3405676	0	0	0	0	0	0
7.612741	-0.1813792	0.3405676	0	0	0	0	0	0
7.629221	-0.1813792	0.3405676	0	0	0	0	0	0
7.646264	-0.1813792	0.3405676	0	0	0	0	0	0
7.662351	-0.1813792	0.3405676	0	0	0	0	0	0
7.679299	-0.1813792	0.3405676	0	0	0	0	0	0
7.695484	-0.1813792	0.3405676	0	0	0	0	0	0
7.712308	-0.1813792	0.3405676	0	0	0	0	0	0
7.728827	-0.1813792	0.3405676	0	0	0	0	0	0
7.745333	-0.1813792	0.3405676	0	0	0	0	0	0
7.761751	-0.1813792	0.3405676	0	0	0	0	0	0
7.811451	-0.1813792	0.3405676	0	0	0	0	0	0
7.828017	-0.1813792	0.3405676	0	0	0	0	0	0
7.844584	-0.1813792	0.3405676	0	0	0	0	0	0
7.861414	-0.1813792	0.3405676	0	0	0	0	0	0
7.877717	-0.1813792	0.3405676	0	0	0	0	0	0
7.89444	-0.1813792	0.3405676	0	0	0	0	0	0
7.910851	-0.1813792	0.3405676	0	0	0	0	0	0
7.943984	-0.1814046	0.3405855	-0.0007681514	0.0005387854	-0.01550432	0.01087481	0	0
7.96055	-0.1814046	0.3405855	0	0	0.01545598	-0.0108409	0	0
7.980383	-0.1814046	0.3405855	0	0	0	0	0	0
7.997009	-0.1814046	0.3405855	0	0	0	0	0	0
8.013522	-0.1814046	0.3405855	0	0	0	0	0	0
8.030085	-0.1814046	0.3405855	0	0	0	0	0	0
8.046651	-0.1814046	0.3405855	0	0	0	0	0	0
8.063217	-0.1814046	0.3405855	0	0	0	0	0	0
8.079783	-0.1814046	0.3405855	0	0	0	0	0	0
8.09635	-0.1814046	0.3405855	0	0	0	0	0	0
8.112927	-0.1814046	0.3405855	0	0	0	0	0	0
8.129484	-0.1814046	0.3405855	0	0	0	0	0	0
8.146117	-0.1814046	0.3405855	0	0	0	0	0	0
8.162618	-0.1814046	0.3405855	0	0	0	0	0	0
8.179184	-0.1814046	0.3405855	0	0	0	0	0	0
8.19575	-0.1814046	0.3405855	0	0	0	0	0	0
8.212317	-0.1814046	0.3405855	0	0	0	0	0	0
8.228883	-0.1814046	0.3405855	0	0	0	0	0	0
8.245452	-0.1814046	0.3405855	0	0	0	0	0	0
8.262197	-0.1814046	0.3405855	0	0	0	0	0	0
8.278584	-0.1814046	0.3405855	0	0	0	0	0	0
8.29515	-0.1814046	0.3405855	0	0	0	0	0	0
8.311716	-0.1814046	0.3405855	0	0	0	0	0	0
8.328283	-0.1814046	0.3405855	0	0	0	0	0	0
8.34485	-0.1814046	0.3405855	0	0	0	0	0	0
8.361418	-0.1814046	0.3405855	0	0	0	0	0	0
8.377984	-0.1814046	0.3405855	0	0	0	0	0	0
8.394548	-0.1814046	0.3405855	0	0	0	0	0	0
8.4113	-0.1814046	0.3405855	0	0	0	0	0	0
8.44425	-0.1814046	0.3405855	0	0	0	0	0	0
8.460837	-0.1814046	0.3405855	0	0	0	0	0	0
8.477384	-0.1814046	0.3405855	0	0	0	0	0	0
8.49436	-0.1814046	0.3405855	0	0	0	0	0	0
8.510517	-0.1814046	0.3405855	0	0	0	0	0	0
8.527083	-0.1814046	0.3405855	0	0	0	0	0	0
8.543651	-0.1814046	0.3405855	0	0	0	0	0	0
8.560416	-0.1814046	0.3405855	0	0	0	0	0	0
8.576783	-0.1814046	0.3405855	0	0	0	0	0	0
8.59335	-0.1814046	0.3405855	0	0	0	0	0	0
8.613914	-0.1814046	0.3405855	0	0	0	0	0	0
8.630481	-0.1814046	0.3405855	0	0	0	0	0	0
8.647048	-0.1814046	0.3405855	0	0	0	0	0	0
8.663615	-0.1814046	0.3405855	0	0	0	0	0	0
8.680492	-0.1814046	0.3405855	0	0	0	0	0	0
8.696748	-0.1814046	0.3405855	0	0	0	0	0	0
8.713314	-0.1814046	0.3405855	0	0	0	0	0	0
8.729881	-0.1814046	0.3405855	0	0	0	0	0	0
8.746448	-0.1814046	0.3405855	0	0	0	0	0	0
8.829282	-0.1814301	0.3406033	-0.0003074343	0.0002155098	-0.003092884	0.002168095	0	0
8.846108	-0.1814301	0.3406033	0	0	0.003084804	-0.002162431	0	0
8.862416	-0.1814301	0.3406033	0	0	0	0	0	0
8.878983	-0.1814556	0.3406212	-0.001536236	0.001077524	-0.04672954	0.03277634	0	0
8.89555	-0.1814556	0.3406212	0	0	0.04636505	-0.03252068	0	0
8.912156	-0.1814556	0.3406212	0	0	0	0	0	0
8.928683	-0.1814556	0.3406212	0	0	0	0	0	0
8.94525	-0.1814556	0.3406212	0	0	0	0	0	0
8.962193	-0.1814556	0.3406212	0	0	0	0	0	0
8.978705	-0.1814556	0.3406212	0	0	0	0	0	0
8.994949	-0.1814556	0.3406212	0	0	0	0	0	0
9.011727	-0.1814556	0.3406212	0	0	0	0	0	0
9.028082	-0.1814556	0.3406212	0	0	0	0	0	0
9.044648	-0.1814556	0.3406212	0	0	0	0	0	0
9.061265	-0.1814301	0.3406033	0.001531652	-0.001074308	0.04615759	-0.03237517	0	0
9.077782	-0.1814301	0.3406033	0	0	-0.04622667	0.03242363	0	0
9.094349	-0.1814301	0.3406033	0	0	0	0	0	0
9.110915	-0.1814301	0.3406033	0	0	0	0	0	0
9.12781	-0.1814301	0.3406033	0	0	0	0	0	0
9.144049	-0.1814301	0.3406033	0	0	0	0	0	0
9.177181	-0.1814301	0.3406033	0	0	0	0	0	0
9.193748	-0.1814301	0.3406033	0	0	0	0	0	0
9.210366	-0.1814556	0.3405855	-0.001531476	-0.001074185	-0.04614964	-0.0323696	0	0
9.22688	-0.1814556	0.3405855	0	0	0.04622269	0.03242084	0	0
9.260013	-0.181481	0.3405676	-0.0007686122	-0.0005387931	-0.01548174	-0.01085262	0	0
9.276579	-0.181481	0.3405676	0	0	0.0154654	0.01084116	0	0
9.293145	-0.181481	0.3405676	0	0	0	0	0	0
9.309937	-0.1815065	0.3405497	-0.001515732	-0.001064917	-0.04543886	-0.03192426	0	0
9.346206	-0.1815065	0.3405497	0	0	0.0285661	0.02006986	0	0
9.362773	-0.1815065	0.3405497	0	0	0	0	0	0
9.379483	-0.1815065	0.3405497	0	0	0	0	0	0
9.395995	-0.1815065	0.3405497	0	0	0	0	0	0
9.412507	-0.1815065	0.3405497	0	0	0	0	0	0
9.42904	-0.1815065	0.3405497	0	0	0	0	0	0
9.445606	-0.1815065	0.3405497	0	0	0	0	0	0
9.462173	-0.1815065	0.3405497	0	0	0	0	0	0
9.478739	-0.1815065	0.3405497	0	0	0	0	0	0
9.495568	-0.1815065	0.3405497	0	0	0	0	0	0
9.511873	-0.1815065	0.3405497	0	0	0	0	0	0
9.528591	-0.1815065	0.3405497	0	0	0	0	0	0
9.545007	-0.1815065	0.3405497	0	0	0	0	0	0
9.561618	-0.1815065	0.3405497	0	0	0	0	0	0
9.578143	-0.1815065	0.3405497	0	0	0	0	0	0
9.594706	-0.1815065	0.3405497	0	0	0	0	0	0
9.611272	-0.1815065	0.3405497	0	0	0	0	0	0
9.644406	-0.1815319	0.3405319	-0.000768568	-0.0005387621	-0.01546391	-0.01084012	0	0
9.660973	-0.1815319	0.3405319	0	0	0.01546391	0.01084012	0	0
9.677539	-0.1815319	0.3405319	0	0	0	0	0	0
9.694105	-0.1815574	0.340514	-0.001536325	-0.001077586	-0.04636905	-0.03252349	0	0
9.710717	-0.1815574	0.340514	0	0	0.04630507	0.03247862	0	0
9.727238	-0.1815829	0.3404962	-0.001541484	-0.001080572	-0.04652476	-0.03261361	0	0
9.743807	-0.1816083	0.3404783	-0.00153606	-0.0010774	0.0001639261	9.585635E-05	0	0
9.76037	-0.1816083	0.3404783	0	0	0.04636104	0.03251787	0	0
9.776938	-0.1816338	0.3404604	-0.001537047	-0.001079261	-0.04639219	-0.03257497	0	0
9.794274	-0.1816592	0.3404069	-0.001468121	-0.003089242	0.002032989	-0.05928436	0	0
9.810287	-0.1816847	0.340389	-0.001589393	-0.001114808	-0.003636455	0.05920513	0	0
9.826637	-0.1817101	0.3403712	-0.001557578	-0.001091854	0.0009830591	0.000709274	0	0
9.84331	-0.1817356	0.3403533	-0.001526483	-0.00107247	0.0009416374	0.0005869824	0	0
9.859819	-0.1817356	0.3402819	0	-0.004325285	0.04600314	-0.09802905	0	0
9.876336	-0.181812	0.3402283	-0.004623715	-0.003244269	-0.1400034	0.03273251	0	0
9.892903	-0.1818629	0.3401569	-0.003072473	-0.004311895	0.04688811	-0.03227025	0	0
9.909857	-0.182041	0.3399962	-0.01051042	-0.009478539	-0.2218912	-0.1541329	0	0
9.926037	-0.1822192	0.3398712	-0.01101099	-0.007726851	-0.01510772	0.05286758	0	0
9.942603	-0.1822701	0.3398355	-0.00307265	-0.002155172	0.2424194	0.1701467	0	0
9.959169	-0.1822701	0.3397998	0	-0.002155172	0.09273809	0	0	0
9.975736	-0.1822956	0.3397819	-0.001536325	-0.001079385	-0.04636905	0.03246919	0	0
9.992413	-0.1822956	0.3397462	0	-0.002140876	0.04621474	-0.03193109	0	0
10.01289	-0.1822701	0.3396212	0.001243014	-0.006104448	0.03345725	-0.1066845	0	0
10.02946	-0.1821938	0.3394605	0.004608709	-0.009701315	0.0908601	-0.09710079	0	0
10.04602	-0.1814556	0.3386926	0.04455805	-0.04634793	1.205674	-1.105997	0	0
10.06259	-0.1800804	0.3370855	0.08300174	-0.09700776	1.160233	-1.528917	0	0
10.07916	-0.1797748	0.3360497	0.01845209	-0.06251979	-1.948169	1.040879	0	0
10.09572	-0.1790869	0.3329961	0.04152156	-0.184316	0.6962579	-3.675923	0	0
10.1125	-0.1705378	0.3262993	0.5095983	-0.3991867	14.0381	-6.444192	0	0
10.12886	-0.1641158	0.3218166	0.3925139	-0.273984	-3.533309	3.778301	0	0
10.14542	-0.1576287	0.3172621	0.3916497	-0.2749723	-0.02624895	-0.03001807	0	0
10.16203	-0.1533394	0.3143148	0.2582355	-0.1774398	-4.021703	2.940068	0	0
10.17856	-0.145053	0.3085268	0.5014681	-0.3502734	7.340774	-5.21613	0	0
10.19512	-0.139354	0.3045782	0.3440289	-0.2383654	-4.757961	3.381968	0	0
10.21169	-0.1318361	0.2993781	0.4537825	-0.3138779	3.312562	-2.279106	0	0
10.22826	-0.1276443	0.2964827	0.2530322	-0.1747759	-6.058831	4.19823	0	0
10.24483	-0.1224112	0.2928362	0.3157984	-0.2200539	1.894124	-1.366376	0	0
10.26139	-0.1196105	0.2909055	0.1690985	-0.1165735	-4.427537	3.123135	0	0
10.27812	-0.1147567	0.2874905	0.2901685	-0.2041566	3.636836	-2.630921	0	0
10.29463	-0.1113273	0.2850227	0.2076973	-0.1494528	-2.481131	1.645754	0	0
10.31109	-0.1084934	0.282966	0.1721851	-0.1249638	-1.077091	0.7427558	0	0
10.32766	-0.1042783	0.2797821	0.2544079	-0.1921696	2.489586	-2.034894	0	0
10.34422	-0.1021693	0.2771522	0.1273109	-0.1587561	-3.835904	1.00845	0	0
10.36079	-0.1051112	0.2690811	-0.1775605	-0.4871478	-9.201302	-9.911165	0	0
10.37736	-0.1089875	0.2613637	-0.2339864	-0.4658483	-1.702939	0.6428214	0	0
10.3942	-0.1137957	0.2499853	-0.285413	-0.6754131	-1.539121	-6.271966	0	0
10.42706	-0.118469	0.2305706	-0.1422463	-0.5909519	2.88063	1.699427	0	0
10.44373	-0.1200256	0.216551	-0.0933332	-0.8406139	0.9875249	-5.040522	0	0
10.46019	-0.1204665	0.2092987	-0.02679522	-0.4407183	2.008178	12.06922	0	0
10.47676	-0.122126	0.1954958	-0.1001764	-0.8331909	-2.222195	-11.88521	0	0
10.49377	-0.1231629	0.1853888	-0.06093084	-0.593926	1.168591	7.124448	0	0
10.50989	-0.1238108	0.1784678	-0.04020017	-0.4294157	0.6256531	4.964932	0	0
10.52646	-0.1263755	0.1628101	-0.1548153	-0.9451591	-3.506834	-15.78	0	0
10.54302	-0.1279291	0.1543583	-0.09377789	-0.5101768	1.842219	13.12855	0	0
10.55982	-0.1299219	0.149147	-0.1186209	-0.3101974	-0.7445549	5.993471	0	0
10.59272	-0.1355582	0.1314979	-0.1713179	-0.5364514	-1.060307	-4.552414	0	0
10.60935	-0.1388636	0.1255897	-0.1987928	-0.3553305	-0.5547448	3.657	0	0
10.62586	-0.1427848	0.1202226	-0.2375453	-0.3251357	-1.169552	0.9112824	0	0
10.64242	-0.1452333	0.1123807	-0.1478096	-0.473393	2.713305	-4.4828	0	0
10.65902	-0.1474226	0.1070542	-0.1319401	-0.321013	0.4786003	4.595531	0	0
10.6759	-0.1483237	0.1004013	-0.0533771	-0.394106	2.346986	-2.183578	0	0
10.71242	-0.1507682	0.08576009	-0.06693782	-0.4009186	-0.2539458	-0.1275762	0	0
10.72895	-0.1521055	0.07570162	-0.08086794	-0.6082509	-0.2625562	-3.907818	0	0
10.74552	-0.1538534	0.06617368	-0.1055108	-0.5751405	-0.7444301	1.000223	0	0
10.76208	-0.155472	0.05986492	-0.09770145	-0.3808197	0.2357002	5.864951	0	0
10.77865	-0.1558572	0.05565972	-0.02325178	-0.2538118	2.246896	3.833105	0	0
10.79522	-0.1576544	0.04816439	-0.108505	-0.4525227	-2.573171	-5.997624	0	0
10.81178	-0.1575261	0.04197532	0.007746395	-0.373552	3.508779	2.383546	0	0
10.82835	-0.1596815	0.03903521	-0.1301073	-0.1774754	-4.160432	5.917602	0	0
10.84492	-0.1595019	0.03894213	0.0108382	-0.005618101	4.253865	5.186814	0	0
10.86153	-0.1556774	0.0361673	0.230236	-0.1670466	6.612683	-4.865479	0	0
10.87805	-0.1539819	0.03493752	0.1026209	-0.07443114	-3.851542	2.79522	0	0
10.91119	-0.1539562	0.03491889	0.0007753137	-0.0005624847	-2.050986	1.487582	0	0
10.92808	-0.1539305	0.03490025	0.00152183	-0.001103216	0.01492286	-0.01080923	0	0
10.94432	-0.1539305	0.03490025	0	0	-0.04593287	0.033298	0	0
10.96089	-0.1539305	0.03490025	0	0	0	0	0	0
10.97745	-0.1538791	0.03490025	0.00310269	0	0.09364207	0	0	0
10.99412	-0.1537506	0.03480707	0.007707475	-0.005589551	0.13855	-0.1681799	0	0
11.01064	-0.1535193	0.03467661	0.01400619	-0.007900028	0.1898062	-0.06962412	0	0
11.02715	-0.1527996	0.03415472	0.04357802	-0.03160122	0.89534	-0.7175959	0	0
11.04372	-0.1477316	0.03063004	0.3059238	-0.2127621	7.930395	-5.476274	0	0
11.06067	-0.1412375	0.02596251	0.3830753	-0.2753296	2.301738	-1.86664	0	0
11.07685	-0.133646	0.02050314	0.4691653	-0.3373946	2.598276	-1.873178	0	0
11.09342	-0.1257539	0.01479167	0.4763628	-0.3447444	0.2197829	-0.224435	0	0
11.10998	-0.1151982	0.007155469	0.6371809	-0.4609489	4.853638	-3.507157	0	0
11.12655	-0.1070367	0.001252422	0.4926579	-0.3563291	-4.361962	3.157611	0	0
11.14323	-0.09901723	-0.004547967	0.4807912	-0.34775	-0.3569354	0.2580489	0	0
11.15974	-0.09082835	-0.01047189	0.4959376	-0.3587664	0.4563304	-0.3319015	0	0
11.17625	-0.07982998	-0.01843153	0.6661636	-0.4821103	5.154939	-3.735211	0	0
11.19282	-0.06946699	-0.02593677	0.6256194	-0.4530954	-1.225851	0.8772599	0	0
11.20938	-0.06223531	-0.0311784	0.436505	-0.3163851	-5.707976	4.126282	0	0
11.22595	-0.05347528	-0.03757161	0.528787	-0.3859174	2.785156	-2.09855	0	0
11.2428	-0.04798944	-0.04155517	0.3255785	-0.2364194	-6.081211	4.473872	0	0
11.25908	-0.04368272	-0.04468473	0.2644759	-0.1921864	-1.844132	1.334996	0	0
11.27565	-0.03976849	-0.04753091	0.2362767	-0.1718057	-0.8584142	0.6204095	0	0
11.29222	-0.03766639	-0.04906019	0.1268907	-0.09231307	-3.301467	2.399232	0	0
11.30884	-0.03769267	-0.04904107	-0.001580333	0.001149965	-3.870246	2.815614	0	0
11.32898	-0.03766639	-0.04902195	0.001304982	0.0009495989	0.07847972	-0.005449886	0	0
11.34555	-0.03769267	-0.04900283	-0.001586064	0.001154135	-0.07876431	0.005572419	0	0
11.36238	-0.03769267	-0.04900283	0	0	0.04748483	-0.03455339	0	0
11.37868	-0.03769267	-0.04900283	0	0	0	0	0	0
11.39525	-0.03771894	-0.04898371	-0.001586246	0.001154043	-0.04826335	0.03511306	0	0
11.41192	-0.03771894	-0.04898371	0	0	0.04773014	-0.03472513	0	0
11.42843	-0.03771894	-0.04898371	0	0	0	0	0	0
11.44495	-0.03771894	-0.04898371	0	0	0	0	0	0
11.46152	-0.03771894	-0.04898371	0	0	0	0	0	0
11.47808	-0.03771894	-0.04898371	0	0	0	0	0	0
11.49465	-0.03774522	-0.04896459	-0.001586246	0.001154268	-0.04787301	0.03483586	0	0
11.52778	-0.03774522	-0.04896459	0	0	0.03191779	-0.02322569	0	0
11.54435	-0.03774522	-0.04896459	0	0	0	0	0	0
11.56092	-0.03774522	-0.04896459	0	0	0	0	0	0
11.57754	-0.03774522	-0.04896459	0	0	0	0	0	0
11.59405	-0.03774522	-0.04896459	0	0	0	0	0	0
11.61062	-0.03774522	-0.04896459	0	0	0	0	0	0
11.62757	-0.03774522	-0.04896459	0	0	0	0	0	0
11.64545	-0.03774522	-0.04896459	0	0	0	0	0	0
11.66202	-0.03774522	-0.04896459	0	0	0	0	0	0
11.67859	-0.03774522	-0.04896459	0	0	0	0	0	0
11.69515	-0.03774522	-0.04896459	0	0	0	0	0	0
11.71172	-0.03774522	-0.04896459	0	0	0	0	0	0
11.72828	-0.03774522	-0.04896459	0	0	0	0	0	0
11.74485	-0.03774522	-0.04896459	0	0	0	0	0	0
11.76142	-0.0377715	-0.04894547	-0.001586246	0.001154043	-0.04787577	0.03483108	0	0
11.77818	-0.0377715	-0.04894547	0	0	0.04759765	-0.03462875	0	0
11.79469	-0.0377715	-0.04894547	0	0	0	0	0	0
11.8112	-0.03779778	-0.04896459	-0.001591285	-0.001157708	-0.04818595	-0.03505675	0	0
11.82771	-0.03779778	-0.04896459	0	0	0.04818456	0.03505573	0	0
11.84425	-0.03779778	-0.04896459	0	0	0	0	0	0
11.87738	-0.03782406	-0.04894547	-0.0007931232	0.0005770213	-0.01596717	0.0116166	0	0
11.89395	-0.03782406	-0.04894547	0	0	0.01595828	-0.01161014	0	0
11.91052	-0.03782406	-0.04894547	0	0	0	0	0	0
11.92729	-0.03782406	-0.04894547	0	0	0	0	0	0
11.94365	-0.03785034	-0.04892635	-0.0016065	0.001169005	-0.04848706	0.03528268	0	0
11.9603	-0.03785034	-0.04892635	0	0	0.04866495	-0.03541213	0	0
11.97678	-0.03785034	-0.04892635	0	0	0	0	0	0
11.99335	-0.03785034	-0.04892635	0	0	0	0	0	0
12.01034	-0.03785034	-0.04892635	0	0	0	0	0	0
12.03007	-0.03785034	-0.04892635	0	0	0	0	0	0
12.04664	-0.03785034	-0.04892635	0	0	0	0	0	0
12.06338	0	0	2.261221	2.922914	67.89206	87.75907	0	0
12.07989	-0.03785034	-0.04892635	-2.292304	-2.963093	-136.9448	-177.0185	0	0
12.0964	-0.03785034	-0.04892635	0	0	69.41363	89.72589	0	0
12.11291	-0.03785034	-0.04892635	0	0	0	0	0	0
12.12947	-0.03785034	-0.04892635	0	0	0	0	0	0
12.14644	-0.03787661	-0.04890723	-0.00154906	0.001126989	-0.04619892	0.03361112	0	0
12.16261	-0.03792917	-0.04886899	-0.003250332	0.002364946	-0.05134595	0.03736269	0	0
12.17917	-0.038008	-0.04881163	-0.004758739	0.003462353	-0.04607819	0.03352312	0	0
12.19574	-0.03821822	-0.04865868	-0.01268952	0.009232791	-0.2393653	0.1741622	0	0
12.21248	-0.03848099	-0.0484675	-0.01569375	0.01141794	-0.09019008	0.06560063	0	0
12.22887	-0.03890142	-0.04812341	-0.02565305	0.0209951	-0.3005896	0.2890558	0	0
12.24544	-0.04021515	-0.0471296	-0.07930153	0.05998998	-1.627923	1.183271	0	0
12.262	-0.04342006	-0.04457017	-0.1934489	0.1544876	-3.445073	2.852024	0	0
12.34484	-0.08377713	-0.01323001	-0.4872083	0.3783523	-2.955311	2.252149	0	0
12.37797	-0.09969471	-0.001006265	-0.4804072	0.3689238	0.05864669	-0.08130345	0	0
12.39454	-0.1061781	0.004543611	-0.39134	0.3349912	1.79207	-0.6827389	0	0
12.41112	-0.1112233	0.01085374	-0.3041767	0.380442	2.62908	1.370918	0	0
12.42767	-0.1144711	0.01743321	-0.1962725	0.3976187	3.256651	0.5184084	0	0
12.44424	-0.1149645	0.02519646	-0.02978608	0.4686176	5.027752	2.144109	0	0
12.4608	-0.1154579	0.03570153	-0.02978294	0.6341236	9.500838E-05	4.995271	0	0
12.47737	-0.1155098	0.04548927	-0.003134803	0.5907553	0.8042422	-1.308859	0	0
12.49418	-0.1161589	0.05211794	-0.03861308	0.3943189	-1.062905	-5.885098	0	0
12.5107	-0.1177423	0.06103121	-0.09588958	0.5397774	-1.718813	4.365069	0	0
12.52721	-0.1183652	0.06609973	-0.03772356	0.3069969	1.761385	-7.049067	0	0
12.54372	-0.1191176	0.07295258	-0.04557269	0.415048	-0.2377013	3.272197	0	0
12.5602	-0.1198959	0.08205998	-0.0472008	0.552363	-0.04933817	4.161182	0	0
12.57677	-0.1203887	0.0889974	-0.02974659	0.4187436	0.5280305	-4.042299	0	0
12.59334	-0.1224371	0.09853012	-0.1236588	0.5754623	-2.834439	4.730053	0	0
12.6099	-0.123448	0.1067245	-0.06102034	0.4946409	1.890595	-2.439408	0	0
12.62677	-0.1243032	0.1181948	-0.05068697	0.6798655	0.3090335	5.53939	0	0
12.64329	-0.1256244	0.1260276	-0.08001879	0.47437	-0.8786358	-6.155624	0	0
12.6596	-0.1265827	0.1317713	-0.05873097	0.3520196	0.6484588	-3.726977	0	0
12.67617	-0.127722	0.1432036	-0.06877033	0.6900986	-0.3053083	10.28137	0	0
12.69282	-0.1280326	0.1521437	-0.018658	0.5369329	1.508659	-4.611136	0	0
12.7093	-0.1288092	0.1634625	-0.04711277	0.6867252	-0.8588161	4.520999	0	0
12.72587	-0.1296114	0.1721008	-0.04842572	0.5214357	-0.03972767	-5.001403	0	0
12.74586	-0.1296114	0.1837089	0	0.5805036	1.324449	1.615516	0	0
12.76243	-0.13031	0.1917073	-0.04216493	0.4827606	-1.153155	-2.673144	0	0
12.779	-0.1315775	0.2021841	-0.07650602	0.6323781	-1.036386	4.515335	0	0
12.79557	-0.131862	0.2104509	-0.01717212	0.4990115	1.790752	-4.025129	0	0
12.81213	-0.1311895	0.2213884	0.04059118	0.660232	1.7434	4.865926	0	0
12.8287	-0.1307757	0.2295828	0.02498237	0.49464	-0.4711019	-4.997866	0	0
12.84527	-0.1301806	0.2352033	0.03591744	0.3392751	0.3300401	-4.689192	0	0
12.86183	-0.1306981	0.2487303	-0.03123111	0.8164899	-2.026606	14.40279	0	0
12.8784	-0.1302841	0.2537852	0.02498597	0.3051341	1.696684	-15.43319	0	0
12.89497	-0.1302841	0.2636024	0	0.5925987	-0.7541214	8.676198	0	0
12.91153	-0.1314223	0.2734483	-0.06870466	0.5943329	-2.07363	0.05234119	0	0
12.9281	-0.132586	0.2782615	-0.07024459	0.2905417	-0.04647765	-9.168963	0	0
12.94466	-0.1341629	0.2879375	-0.09518648	0.5840805	-0.7527911	8.859529	0	0
12.96123	-0.1349898	0.2973049	-0.04991419	0.5654196	1.36636	-0.5632052	0	0
12.9778	-0.1352482	0.2994496	-0.01559712	0.1294597	1.035721	-13.15767	0	0
13.09382	-0.1516426	0.347532	-0.1413089	0.4144379	-0.9481632	2.149407	0	0
13.11033	-0.154727	0.3516036	-0.1867637	0.2465442	-0.3429695	-1.266806	0	0
13.12712	-0.1594249	0.3548717	-0.2797513	0.1946111	-2.791746	-1.559178	0	0
13.14346	-0.1617328	0.3564791	-0.141247	0.09837193	4.180309	-2.90467	0	0
13.16003	-0.1640389	0.3580865	-0.1392065	0.09702773	0.06200957	-0.04085011	0	0
13.17666	-0.1682623	0.3610692	-0.2539997	0.1793877	-3.458293	2.481202	0	0
13.19317	-0.1702055	0.3624267	-0.1176748	0.08220179	4.113465	-2.932486	0	0
13.20973	-0.1743689	0.3653382	-0.2514191	0.1758235	-4.04386	2.830724	0	0
13.2263	-0.1767161	0.3669817	-0.1416864	0.0992045	3.312597	-2.312967	0	0
13.24286	-0.177991	0.3678749	-0.07695296	0.05391709	1.953771	-1.366855	0	0
13.25943	-0.1786282	0.3683215	-0.03846611	0.0269592	1.161636	-0.813661	0	0
13.29256	-0.1798002	0.3691075	-0.03537403	0.0237242	0.06221629	-0.06509195	0	0
13.30913	-0.1798002	0.3691075	0	0	0.7117542	-0.4773502	0	0
13.3257	-0.1798002	0.3691075	0	0	0	0	0	0
13.34227	-0.1798257	0.3690897	-0.001536075	-0.001078578	-0.04634282	-0.03254031	0	0
13.35883	-0.1798257	0.3690539	0	-0.002158587	0.0463615	-0.03259661	0	0
13.3754	-0.1798257	0.3690539	0	0	0	0.06516879	0	0
13.39196	-0.1798257	0.3690182	0	-0.002157096	0	-0.06510127	0	0
13.40853	-0.1798512	0.3690003	-0.001538212	-0.001077648	-0.04642869	0.03258154	0	0
13.42533	-0.1798767	0.3689825	-0.001515501	-0.001064132	0.0006806179	0.0004050648	0	0
13.44166	-0.1798767	0.3689825	0	0	0.04574054	0.0321174	0	0
13.45835	-0.1798767	0.3689825	0	0	0	0	0	0
13.47479	-0.1798767	0.3689825	0	0	0	0	0	0
13.49136	-0.1799021	0.3689646	-0.001538124	-0.001077586	-0.0466004	-0.03264753	0	0
13.50793	-0.1799021	0.3689646	0	0	0.04642335	0.03252349	0	0
13.52839	-0.1799021	0.3689646	0	0	0	0	0	0
13.54496	-0.1799021	0.3689646	0	0	0	0	0	0
13.56193	-0.1799021	0.3689646	0	0	0	0	0	0
13.57812	-0.1799021	0.3689646	0	0	0	0	0	0
13.59466	-0.1799021	0.3689646	0	0	0	0	0	0
13.61146	-0.1799021	0.3689646	0	0	0	0	0	0
13.62797	-0.1799276	0.3689468	-0.001542552	-0.001081321	-0.04630775	-0.03246149	0	0
13.64448	-0.1799531	0.3689289	-0.001543188	-0.001082939	-1.923511E-05	-4.898325E-05	0	0
13.66093	-0.1799531	0.3689289	0	0	0.04682416	0.03285906	0	0
13.67751	-0.1799531	0.3689289	0	0	0	0	0	0
13.69406	-0.1799531	0.3689289	0	0	0	0	0	0
13.71063	-0.1799531	0.3689289	0	0	0	0	0	0
13.7272	-0.1799531	0.3689289	0	0	0	0	0	0
13.76033	-0.1799531	0.3689289	0	0	0	0	0	0
13.77708	-0.1799531	0.3689289	0	0	0	0	0	0
13.79346	-0.1799531	0.3689289	0	0	0	0	0	0
13.8101	-0.1799531	0.3689289	0	0	0	0	0	0
13.82661	-0.1799531	0.3689289	0	0	0	0	0	0
13.84316	-0.1799531	0.3689289	0	0	0	0	0	0
13.85973	-0.1799531	0.3689289	0	0	0	0	0	0
13.87629	-0.1799531	0.3689289	0	0	0	0	0	0
13.89286	-0.1799785	0.368911	-0.001537136	-0.001077524	-0.04639085	-0.03251974	0	0
13.90943	-0.1799785	0.368911	0	0	0.04639219	0.03252068	0	0
13.92618	-0.1799785	0.368911	0	0	0	0	0	0
13.94256	-0.180004	0.3688931	-0.001554858	-0.001091767	-0.04692705	-0.03295053	0	0
13.95921	-0.1799785	0.3688753	0.001529827	-0.0010724	0.09340512	0.0005864127	0	0
13.97572	-0.1800295	0.3688396	-0.003085473	-0.002164072	-0.1391899	-0.03292303	0	0
13.99226	-0.180055	0.368786	-0.001539529	-0.003239406	0.04677111	-0.03253323	0	0
14.00883	-0.180055	0.3687502	0	-0.002156847	0.0464992	0.03269711	0	0
14.02539	-0.1801059	0.3686788	-0.003075525	-0.004314191	-0.09282488	-0.06511252	0	0
14.04196	-0.1801059	0.3686788	0	0	0.09282756	0.1302138	0	0
14.10831	-0.1801314	0.3686252	-0.000383809	-0.0008075933	-0.004628821	-0.009739755	0	0
14.12479	-0.1801569	0.3685716	-0.001545956	-0.003252835	-0.01402995	-0.02952004	0	0
14.14136	-0.1801823	0.3685537	-0.001537136	-0.001077524	0.0002668604	0.06581962	0	0
14.15793	-0.1801569	0.3685358	0.001537136	-0.001079323	0.09278171	-5.428939E-05	0	0
14.17486	-0.1801823	0.368518	-0.001504147	-0.001054399	-0.09079051	0.0007440398	0	0
14.19106	-0.1802078	0.3685001	-0.001571697	-0.001101751	-0.002038704	-0.001429118	0	0
14.20763	-0.1802078	0.3685001	0	0	0.04796261	0.03362154	0	0
14.22776	-0.1801823	0.3684823	0.001265071	-0.0008882888	0.03447396	-0.02420641	0	0
14.24432	-0.1801823	0.3684823	0	0	-0.03447306	0.02420578	0	0
14.2609	-0.1801569	0.3684644	0.001535898	-0.001076657	0.04633483	-0.03248047	0	0
14.27746	-0.1801569	0.3684644	0	0	-0.04635483	0.03249449	0	0
14.29403	-0.1801569	0.3684644	0	0	0	0	0	0
14.31059	-0.1801823	0.3684465	-0.001537224	-0.001079385	-0.04639352	-0.03257591	0	0
14.32716	-0.1801569	0.3684287	0.001537313	-0.001077648	0.09279773	5.242477E-05	0	0
14.34988	-0.1801569	0.3684287	0	0	-0.03912786	0.02742842	0	0
14.36645	-0.1801569	0.3684287	0	0	0	0	0	0
14.3835	-0.1801569	0.3684287	0	0	0	0	0	0
14.39958	-0.1801569	0.3684287	0	0	0	0	0	0
14.41615	-0.1801569	0.3684287	0	0	0	0	0	0
14.43272	-0.1801569	0.3684287	0	0	0	0	0	0
14.46585	-0.1801569	0.3683929	0	-0.001078486	0	-0.02170043	0	0
14.48241	-0.1801569	0.3683572	0	-0.002156971	0	-0.02170043	0	0
14.49898	-0.1801569	0.3683572	0	0	0	0.06510127	0	0
14.5156	-0.1801569	0.3683572	0	0	0	0	0	0
14.53211	-0.1801569	0.3683572	0	0	0	0	0	0
14.54912	-0.1801569	0.3683572	0	0	0	0	0	0
14.56525	-0.1801569	0.3683572	0	0	0	0	0	0
14.58181	-0.1801569	0.3683572	0	0	0	0	0	0
14.59866	-0.1801569	0.3683572	0	0	0	0	0	0
14.61495	-0.1801314	0.3683394	0.001564146	-0.001095817	0.04720739	-0.03307278	0	0
14.63168	-0.1801569	0.3683215	-0.001522957	-0.001068741	-0.09348646	0.0008199327	0	0
14.64819	-0.1801569	0.3683215	0	0	0.04580997	0.03214735	0	0
14.6647	-0.1801314	0.3683036	0.001543366	-0.001081259	0.04673491	-0.03274177	0	0
14.68122	-0.1801569	0.3682857	-0.001543098	-0.001082876	-0.09346443	-4.898042E-05	0	0
14.69778	-0.1801569	0.3682857	0	0	0.04665002	0.03273686	0	0
14.71474	-0.1801569	0.3682857	0	0	0	0	0	0
14.73091	-0.1801569	0.3682857	0	0	0	0	0	0
14.74748	-0.1801569	0.3682857	0	0	0	0	0	0
14.76405	-0.1801569	0.3682857	0	0	0	0	0	0
14.78079	-0.1801569	0.3682857	0	0	0	0	0	0
14.79718	-0.1801569	0.3682857	0	0	0	0	0	0
14.81381	-0.1801569	0.3682857	0	0	0	0	0	0
14.83032	-0.1801569	0.3682857	0	0	0	0	0	0
14.89658	-0.1801314	0.3682679	0.0003845365	-0.0002694004	0.004645717	-0.003254719	0	0
14.95288	-0.1801314	0.3682679	0	0	-0.003137329	0.002197965	0	0
14.96945	-0.1801314	0.3682679	0	0	0	0	0	0
14.98602	-0.1801314	0.3682679	0	0	0	0	0	0
15.00258	-0.1801314	0.3682679	0	0	0	0	0	0
15.01915	-0.1801314	0.3682679	0	0	0	0	0	0
15.03572	-0.1801314	0.3682679	0	0	0	0	0	0
15.05228	-0.1801314	0.3682679	0	0	0	0	0	0
15.06885	-0.1801314	0.3682679	0	0	0	0	0	0
15.0855	-0.1801314	0.3682679	0	0	0	0	0	0
15.10198	-0.1801314	0.3682679	0	0	0	0	0	0
15.11855	-0.1801314	0.3682679	0	0	0	0	0	0
15.13512	-0.1801314	0.3682679	0	0	0	0	0	0
15.15168	-0.1801314	0.3682679	0	0	0	0	0	0
15.16825	-0.1801314	0.3682679	0	0	0	0	0	0
15.18507	-0.1801314	0.3682679	0	0	0	0	0	0
15.20138	-0.1801314	0.3682679	0	0	0	0	0	0
15.21809	-0.1801314	0.3682679	0	0	0	0	0	0
15.2346	-0.1801314	0.3682679	0	0	0	0	0	0
15.25112	-0.1801569	0.36825	-0.001542386	-0.001080572	-0.0466931	-0.03271247	0	0
15.26765	-0.1801569	0.36825	0	0	0.04667154	0.03269737	0	0
15.30078	-0.1801569	0.36825	0	0	0	0	0	0
15.31735	-0.1801569	0.36825	0	0	0	0	0	0
15.33417	-0.1801569	0.36825	0	0	0	0	0	0
15.35068	-0.1801569	0.36825	0	0	0	0	0	0
15.3672	-0.1801569	0.36825	0	0	0	0	0	0
15.38361	-0.1801569	0.36825	0	0	0	0	0	0
15.40018	-0.1801569	0.36825	0	0	0	0	0	0
15.41675	-0.1801569	0.36825	0	0	0	0	0	0
15.43331	-0.1801569	0.36825	0	0	0	0	0	0
15.44988	-0.1801569	0.36825	0	0	0	0	0	0
15.46645	-0.1801314	0.3682322	0.001538124	-0.001079385	0.04642335	-0.03257778	0	0
15.48328	-0.1801314	0.3682322	0	0	-0.04605745	0.03232102	0	0
15.49958	-0.1801314	0.3682322	0	0	0	0	0	0
15.51615	-0.1801314	0.3682322	0	0	0	0	0	0
15.53271	-0.1801314	0.3682322	0	0	0	0	0	0
15.54932	-0.1801314	0.3682322	0	0	0	0	0	0
15.56585	-0.1801314	0.3682322	0	0	0	0	0	0
15.58241	-0.1801314	0.3682322	0	0	0	0	0	0
15.59898	-0.1801314	0.3682322	0	0	0	0	0	0
15.63513	-0.1801314	0.3682322	0	0	0	0	0	0
15.65189	-0.1801314	0.3682322	0	0	0	0	0	0
15.66826	-0.1801314	0.3682322	0	0	0	0	0	0
15.76766	-0.1801314	0.3682322	0	0	0	0	0	0
15.78423	-0.1801314	0.3682322	0	0	0	0	0	0
15.80079	-0.1801314	0.3682322	0	0	0	0	0	0
15.81736	-0.1801314	0.3682322	0	0	0	0	0	0
15.83393	-0.1801314	0.3682322	0	0	0	0	0	0
15.85049	-0.1801314	0.3682322	0	0	0	0	0	0
15.86706	-0.1801314	0.3682322	0	0	0	0	0	0
15.88363	-0.1801314	0.3682322	0	0	0	0	0	0
15.90019	-0.1801314	0.3682322	0	0	0	0	0	0
15.91676	-0.1801314	0.3682322	0	0	0	0	0	0
15.93333	-0.1801314	0.3682322	0	0	0	0	0	0
15.94989	-0.1801314	0.3682322	0	0	0	0	0	0
15.96646	-0.1801314	0.3682322	0	0	0	0	0	0
15.98303	-0.1801314	0.3682322	0	0	0	0	0	0
15.99959	-0.1801314	0.3682322	0	0	0	0	0	0
16.01618	-0.1801314	0.3682322	0	0	0	0	0	0
16.03273	-0.1801314	0.3682322	0	0	0	0	0	0
16.04968	-0.1801314	0.3682322	0	0	0	0	0	0
16.06586	-0.1801314	0.3682322	0	0	0	0	0	0
16.0827	-0.1801314	0.3682322	0	0	0	0	0	0
16.099	-0.1801314	0.3682322	0	0	0	0	0	0
16.11556	-0.1801314	0.3682322	0	0	0	0	0	0
16.13224	-0.1801314	0.3682322	0	0	0	0	0	0
16.14869	-0.1801314	0.3682322	0	0	0	0	0	0
16.16526	-0.1801314	0.3682322	0	0	0	0	0	0
16.18183	-0.1801314	0.3682322	0	0	0	0	0	0
16.1984	-0.1801314	0.3682322	0	0	0	0	0	0
16.21496	-0.1801314	0.3682322	0	0	0	0	0	0
16.23153	-0.1801314	0.3682322	0	0	0	0	0	0
16.2481	-0.1801314	0.3682322	0	0	0	0	0	0
16.26483	-0.1801314	0.3682322	0	0	0	0	0	0
16.28123	-0.1801314	0.3682322	0	0	0	0	0	0
16.2978	-0.1801314	0.3682322	0	0	0	0	0	0
16.31437	-0.1801314	0.3682322	0	0	0	0	0	0
16.33093	-0.1801314	0.3682322	0	0	0	0	0	0
16.3475	-0.1801314	0.3682322	0	0	0	0	0	0
16.36685	-0.1801314	0.3682322	0	0	0	0	0	0
16.38342	-0.1801314	0.3682322	0	0	0	0	0	0
16.39999	-0.1801314	0.3682322	0	0	0	0	0	0
16.41655	-0.1801314	0.3682322	0	0	0	0	0	0
16.43312	-0.1801314	0.3682322	0	0	0	0	0	0
16.44969	-0.1801314	0.3682322	0	0	0	0	0	0
16.46647	-0.1801314	0.3682322	0	0	0	0	0	0
16.48282	-0.1801314	0.3682322	0	0	0	0	0	0
16.4995	-0.1801314	0.3682322	0	0	0	0	0	0
16.51601	-0.1801314	0.3682322	0	0	0	0	0	0
16.53252	-0.1801314	0.3682322	0	0	0	0	0	0
16.54909	-0.1801314	0.3682322	0	0	0	0	0	0
16.56566	-0.1801314	0.3682322	0	0	0	0	0	0
16.58222	-0.1801314	0.3682322	0	0	0	0	0	0
16.61536	-0.1801314	0.3682322	0	0	0	0	0	0
16.63209	-0.1801314	0.3682322	0	0	0	0	0	0
16.64849	-0.1801314	0.3682322	0	0	0	0	0	0
16.66506	-0.1801314	0.3682322	0	0	0	0	0	0
16.68163	-0.1801314	0.3682322	0	0	0	0	0	0
16.69819	-0.1801314	0.3682322	0	0	0	0	0	0
16.71476	-0.1801314	0.3682322	0	0	0	0	0	0
16.73132	-0.1801314	0.3682322	0	0	0	0	0	0
16.74789	-0.1801314	0.3682322	0	0	0	0	0	0
16.76446	-0.1801314	0.3682322	0	0	0	0	0	0
16.78102	-0.1801314	0.3682322	0	0	0	0	0	0
16.79759	-0.1801314	0.3682322	0	0	0	0	0	0
16.81422	-0.1801314	0.3682322	0	0	0	0	0	0
16.83072	-0.1801314	0.3682322	0	0	0	0	0	0
16.84729	-0.1801314	0.3682322	0	0	0	0	0	0
16.86386	-0.1801314	0.3682322	0	0	0	0	0	0
16.88077	-0.1801314	0.3682322	0	0	0	0	0	0
16.93483	-0.1801314	0.3682322	0	0	0	0	0	0
16.9514	-0.1801314	0.3682322	0	0	0	0	0	0
16.96833	-0.1801059	0.3682143	0.001504401	-0.001054577	0.04491428	-0.03148467	0	0
16.98453	-0.1801059	0.3682143	0	0	-0.04540554	0.03182904	0	0
17.0011	-0.1801059	0.3682143	0	0	0	0	0	0
17.01767	-0.1801059	0.3682143	0	0	0	0	0	0
17.03438	-0.1801059	0.3682143	0	0	0	0	0	0
17.0508	-0.1801059	0.3682143	0	0	0	0	0	0
17.08699	-0.1801059	0.3682143	0	0	0	0	0	0
17.10356	-0.1801314	0.3681964	-0.001537136	-0.001079323	-0.02913495	-0.02045754	0	0
17.12044	-0.1801314	0.3681964	0	0	0.04596224	0.03227308	0	0
17.13669	-0.1801314	0.3681964	0	0	0	0	0	0
17.15346	-0.1801314	0.3681964	0	0	0	0	0	0
17.16982	-0.1801314	0.3681964	0	0	0	0	0	0
17.21953	-0.1801569	0.3681428	-0.0005126785	-0.001078124	-0.007759784	-0.01631824	0	0
17.23609	-0.1801823	0.368125	-0.001537136	-0.001077524	-0.01545909	9.048817E-06	0	0
17.25266	-0.1802078	0.3681071	-0.001537136	-0.001079323	0	-5.428939E-05	0	0
17.26923	-0.1802333	0.3680893	-0.001538035	-0.001077524	-2.714469E-05	5.428939E-05	0	0
17.2858	-0.1802078	0.3680714	0.001538035	-0.001079323	0.092836	-5.428939E-05	0	0
17.30257	-0.1802078	0.3680714	0	0	-0.0461312	0.03237277	0	0
17.31893	-0.1802333	0.3680535	-0.0015574	-0.001091091	-0.04700242	-0.03292918	0	0
17.3355	-0.1802333	0.3680535	0	0	0.04729645	0.03313518	0	0
17.35206	-0.1802333	0.3680535	0	0	0	0	0	0
17.36863	-0.1802333	0.3680535	0	0	0	0	0	0
17.3852	-0.1802333	0.3680535	0	0	0	0	0	0
17.43517	-0.1802333	0.3680535	0	0	0	0	0	0
17.45147	-0.1802333	0.3680535	0	0	0	0	0	0
17.46803	-0.1802587	0.3680356	-0.001537313	-0.001079447	-0.04677314	-0.03284246	0	0
17.4846	-0.1802587	0.3680356	0	0	0.04639887	0.03257966	0	0
17.50117	-0.1802587	0.3680356	0	0	0	0	0	0
17.51773	-0.1802587	0.3680356	0	0	0	0	0	0
17.5343	-0.1802587	0.3680356	0	0	0	0	0	0
17.55087	-0.1802587	0.3680356	0	0	0	0	0	0
17.56744	-0.1802587	0.3680356	0	0	0	0	0	0
17.584	-0.1802587	0.3680356	0	0	0	0	0	0
17.60078	-0.1802587	0.3680356	0	0	0	0	0	0
17.61714	-0.1802587	0.3680356	0	0	0	0	0	0
17.63381	-0.1802587	0.3680356	0	0	0	0	0	0
17.65027	-0.1802587	0.3680356	0	0	0	0	0	0
17.66684	-0.1802587	0.3680356	0	0	0	0	0	0
17.6834	-0.1802587	0.3680356	0	0	0	0	0	0
17.69997	-0.1802587	0.3680356	0	0	0	0	0	0
17.7195	-0.1802587	0.3680356	0	0	0	0	0	0
17.73638	-0.1802587	0.3680356	0	0	0	0	0	0
17.75263	-0.1802587	0.3680356	0	0	0	0	0	0
17.78576	-0.1802587	0.3680714	0	0.001078486	0	0.02183998	0	0
17.80243	-0.1802587	0.3680714	0	0	0	-0.02165762	0	0
17.8189	-0.1802587	0.3680714	0	0	0	0	0	0
17.83546	-0.1802842	0.3680893	-0.001537313	0.001079447	-0.04653549	0.03267559	0	0
17.85203	-0.1803097	0.3681071	-0.001537136	0.001077524	5.340708E-06	-5.804506E-05	0	0
17.8686	-0.1803606	0.3681428	-0.003075171	0.002156847	-0.046418	0.03257403	0	0
17.88517	-0.1804115	0.3681786	-0.003074272	0.002156847	2.714469E-05	0	0	0
17.90173	-0.1804879	0.3682679	-0.004611408	0.005391219	-0.04639086	0.09761353	0	0
17.9183	-0.1806662	0.3683929	-0.01076085	0.007548066	-0.1855906	0.06509378	0	0
17.93487	-0.1814046	0.3689468	-0.04457064	0.03342843	-1.020382	0.7810711	0	0
17.95144	-0.1841528	0.3708762	-0.1658821	0.1164608	-3.661186	2.505921	0	0
17.968	-0.1858309	0.3720911	-0.1012891	0.07333281	1.94942	-1.301604	0	0
17.98506	-0.1921523	0.3765759	-0.370509	0.2628668	-8.005716	5.636118	0	0
18.00114	-0.1976486	0.3804539	-0.3419552	0.2412669	0.8617558	-0.6518868	0	0
18.0177	-0.2047984	0.3855838	-0.4315646	0.3096398	-2.745349	2.094728	0	0
18.03427	-0.2084284	0.3881938	-0.2191062	0.1575452	6.412009	-4.590224	0	0
18.05084	-0.216475	0.3939515	-0.4856936	0.3475348	-8.045623	5.733899	0	0
18.06741	-0.2226165	0.3983336	-0.3707043	0.2645043	3.470383	-2.505866	0	0
18.08414	-0.2304877	0.4039695	-0.4704484	0.3368441	-2.995454	2.172466	0	0
18.10054	-0.236167	0.4080859	-0.3462667	0.2509794	3.748028	-2.591552	0	0
18.11711	-0.2440621	0.4137434	-0.476549	0.3414888	-3.951719	2.745328	0	0
18.13367	-0.2497778	0.4178806	-0.3450038	0.2497248	3.970042	-2.769444	0	0
18.15024	-0.2553538	0.4219297	-0.3365662	0.2444037	0.2546474	-0.1605902	0	0
18.16681	-0.2632948	0.4277191	-0.479322	0.3494488	-4.308377	3.170268	0	0
18.18371	-0.2673139	0.4306598	-0.2378012	0.1739945	7.216416	-5.242411	0	0
18.19994	-0.2731551	0.4349468	-0.3598689	0.2641158	-3.684224	2.72002	0	0
18.21651	-0.2803144	0.4402229	-0.432134	0.3184669	-2.203286	1.657109	0	0
18.23324	-0.2838103	0.4428082	-0.2088729	0.1544658	6.703689	-4.924334	0	0
18.31591	-0.313732	0.4652288	-0.3619654	0.2712235	-1.540143	1.174608	0	0
18.33248	-0.3190798	0.469281	-0.3227932	0.2445962	0.3947549	-0.2683352	0	0
18.34904	-0.3212136	0.4709026	-0.1287992	0.09787661	5.854749	-4.428006	0	0
18.36561	-0.325803	0.4744713	-0.2770137	0.2154095	-4.473121	3.54715	0	0
18.38235	-0.3279744	0.4761662	-0.1297087	0.101243	4.422507	-3.427598	0	0
18.4013	-0.3323076	0.4794851	-0.2286493	0.1751255	-2.77205	2.06999	0	0
18.41787	-0.3332479	0.4802429	-0.056758	0.04574171	4.839466	-3.6427	0	0
18.43444	-0.3332244	0.4802249	0.00141931	-0.001088317	1.755795	-1.413333	0	0
18.4514	-0.3332479	0.4802429	-0.001386273	0.001062985	-0.0836756	0.0641619	0	0
18.46791	-0.3332244	0.480261	0.001424064	0.001093768	0.08395591	0.0009196138	0	0
18.48442	-0.3332479	0.480279	-0.001424064	0.001091963	-0.08624464	-5.465456E-05	0	0
18.5007	-0.3332949	0.4803873	-0.002887009	0.006650923	-0.04461404	0.1695263	0	0
18.51744	-0.3336004	0.4806579	-0.01824341	0.01616613	-0.4650364	0.288148	0	0
18.53383	-0.3356664	0.4823183	-0.1260546	0.1013052	-3.253937	2.56965	0	0
18.5504	-0.3403274	0.4859474	-0.2813382	0.2190504	-4.711689	3.572684	0	0
18.56698	-0.346813	0.4910786	-0.3912039	0.309507	-3.314608	2.729041	0	0
18.58353	-0.3513211	0.4946947	-0.2723258	0.2184457	3.587953	-2.748391	0	0
18.67771	-0.3666606	0.514026	-0.1628856	0.2052732	0.9883762	-0.1189643	0	0
18.69427	-0.3634229	0.5192013	0.195424	0.3123849	3.235574	0.9672303	0	0
18.71084	-0.3613291	0.5248187	0.1263815	0.3390622	-2.083707	0.8051219	0	0
18.72744	-0.3590244	0.5305336	0.1388723	0.344357	0.3766477	0.1596604	0	0
18.74398	-0.3590014	0.5305518	0.001394735	0.001102814	-4.149082	-10.35943	0	0
18.76054	-0.3590244	0.5305336	-0.001392327	-0.00110091	-0.08418639	-0.06656598	0	0
18.77711	-0.3590244	0.5305336	0	0	0.04202051	0.03322552	0	0
18.79368	-0.3590244	0.5305336	0	0	0	0	0	0
18.81065	-0.3590475	0.5305518	-0.001358848	0.001074438	-0.04051108	0.03203202	0	0
18.82681	-0.3590475	0.5305518	0	0	0.04101248	-0.03242848	0	0
18.84368	-0.3590244	0.5305336	0.001367607	-0.001081364	0.04141273	-0.03274495	0	0
18.86019	-0.3590244	0.5305336	0	0	-0.04097257	0.03239692	0	0
18.87651	-0.3590014	0.5305154	0.001413317	-0.001113854	0.04304548	-0.03392473	0	0
18.89309	-0.3590014	0.5305154	0	0	-0.04295814	0.0338559	0	0
18.90972	-0.3589783	0.5304607	0.001386739	-0.00328589	0.04175332	-0.09893487	0	0
18.92624	-0.3589552	0.5304061	0.001396991	-0.003310183	0.0003092991	-0.0007328855	0	0
18.94278	-0.3589552	0.5304061	0	0	-0.04226588	0.1001494	0	0
18.95934	-0.3589552	0.5303696	0	-0.002198221	0	-0.06639595	0	0
18.97591	-0.3589322	0.5303515	0.001392327	-0.001097312	0.04202051	0.03322551	0	0
18.99248	-0.3589552	0.5303332	-0.001392327	-0.00110091	-0.08404101	-0.0001085823	0	0
19.00904	-0.3589322	0.530315	0.001392327	-0.001097312	0.08404101	0.0001085823	0	0
19.02561	-0.3589322	0.5302786	0	-0.002198221	-0.04202051	-0.03322551	0	0
19.04232	-0.358886	0.5302058	0.002761445	-0.004359801	0.08299185	-0.06496363	0	0
19.05883	-0.358863	0.5301511	0.001396829	-0.0033098	-0.04107779	0.03160722	0	0
19.07534	-0.358863	0.5300783	0	-0.00441117	-0.04229517	-0.03334883	0	0
19.09188	-0.3588399	0.5300601	0.00139686	-0.001099464	0.04226923	0.1002129	0	0
19.19128	-0.3591167	0.5295867	-0.00278506	-0.004762996	-0.03607144	-0.03160005	0	0
19.20794	-0.3592781	0.5294592	-0.009692045	-0.007654157	-0.05951402	-0.02491168	0	0
19.22441	-0.359601	0.5292043	-0.01959546	-0.01546944	-0.298903	-0.2358792	0	0
19.24098	-0.3606151	0.5284033	-0.06120496	-0.04834451	-1.259184	-0.9948632	0	0
19.26073	-0.3618356	0.5274386	-0.06179087	-0.04883642	-0.01613105	-0.01354336	0	0
19.27748	-0.3619967	0.5273476	-0.009618396	-0.0054337	1.429272	1.189023	0	0
19.294	-0.3619967	0.5273476	0	0	0.2891022	0.1633219	0	0
19.31051	-0.3619967	0.5273476	0	0	0	0	0	0
19.327	-0.3619967	0.5273476	0	0	0	0	0	0
19.34357	-0.3620197	0.5273659	-0.001388729	0.00110091	-0.0420038	0.03329835	0	0
19.36055	-0.3620197	0.5273659	0	0	0.04139955	-0.03281933	0	0
19.3767	-0.3620428	0.5273476	-0.001425989	-0.001128985	-0.0430389	-0.03407478	0	0
19.39327	-0.3620428	0.5273476	0	0	0.04357827	0.03450181	0	0
19.40984	-0.3620428	0.5273476	0	0	0	0	0	0
19.4264	-0.3620658	0.5273294	-0.001388729	-0.001097312	-0.04191192	-0.03311693	0	0
19.44297	-0.3620658	0.5273294	0	0	0.04191192	0.03311693	0	0
19.45961	-0.3620658	0.5273294	0	0	0	0	0	0
19.47613	-0.3621118	0.527293	-0.002786762	-0.002205585	-0.08405142	-0.06652257	0	0
19.49267	-0.3621809	0.5272021	-0.004173752	-0.005497752	-0.04195846	-0.09959283	0	0
19.50924	-0.3622269	0.5271657	-0.002777458	-0.002198221	0.04216937	0.09964886	0	0
19.52666	-0.3622499	0.5271475	-0.001320326	-0.001043263	0.04286593	0.03397659	0	0
19.54237	-0.3622499	0.5271475	0	0	0.03984982	0.03148755	0	0
19.55894	-0.3622729	0.5271292	-0.001388569	-0.001100783	-0.04302152	-0.03410514	0	0
19.57551	-0.3622729	0.5271292	0	0	0.04190469	0.03321978	0	0
19.59207	-0.3622729	0.5271292	0	0	0	0	0	0
19.60872	-0.3622959	0.5271111	-0.00138173	-0.001091781	-0.0416025	-0.03287244	0	0
19.62523	-0.3622959	0.5271111	0	0	0.04166471	0.03292159	0	0
19.64177	-0.3622959	0.5271111	0	0	0	0	0	0
19.65833	-0.3622959	0.5271111	0	0	0	0	0	0
19.6749	-0.3622959	0.5271111	0	0	0	0	0	0
19.69178	-0.3623189	0.5270929	-0.001365068	-0.001077221	-0.04081721	-0.03221022	0	0
19.70803	-0.3623649	0.5270565	-0.002830576	-0.002240262	-0.04423166	-0.03510266	0	0
19.7248	-0.362434	0.5270019	-0.004116426	-0.003256171	-0.03893702	-0.03076292	0	0
19.74131	-0.362503	0.5269473	-0.004180143	-0.003306573	-0.001914618	-0.001514503	0	0
19.75773	-0.362526	0.5269291	-0.00140115	-0.001107126	0.08438507	0.06678694	0	0
19.77434	-0.362572	0.5268927	-0.002771077	-0.002193171	-0.0414806	-0.03288481	0	0
19.79087	-0.362618	0.5268563	-0.002782065	-0.002199688	-0.0003316037	-0.0001966884	0	0
19.80743	-0.362641	0.5268745	-0.001389049	0.001097564	0.04209462	0.09963748	0	0
19.82437	-0.362664	0.5268563	-0.00135839	-0.001073339	0.0009151833	-0.06480179	0	0
19.84088	-0.362664	0.5268563	0	0	0.04061056	0.03208865	0	0
19.85713	-0.362664	0.5268563	0	0	0	0	0	0
19.8737	-0.362664	0.5268563	0	0	0	0	0	0
19.89042	-0.362664	0.5268563	0	0	0	0	0	0
19.91026	-0.362687	0.5268381	-0.00115941	-0.000916114	-0.03171082	-0.02505648	0	0
19.92683	-0.362664	0.5268199	0.001388729	-0.00110091	0.06998212	-0.005075227	0	0
19.9434	-0.362687	0.5268017	-0.001388729	-0.001097312	-0.08382384	0.0001085823	0	0
19.95996	-0.362825	0.5266925	-0.008330575	-0.006591066	-0.2095053	-0.1658018	0	0
19.97653	-0.363009	0.526547	-0.01110623	-0.008785689	-0.08376955	-0.06623385	0	0
19.9931	-0.3657199	0.5244003	-0.1636308	-0.1295727	-4.603199	-3.64536	0	0
20.01	-0.3727922	0.5187835	-0.4184069	-0.3322966	-7.612039	-6.056855	0	0
20.02623	-0.3785311	0.5141712	-0.3536054	-0.2841917	1.955827	1.451892	0	0
20.0428	-0.3853969	0.5087107	-0.4144682	-0.3296308	-1.85586	-1.385551	0	0
20.05936	-0.3888494	0.505901	-0.2083903	-0.169594	6.219801	4.830198	0	0
20.07593	-0.3918426	0.5035276	-0.1806733	-0.1432621	0.836501	0.7946979	0	0
20.12563	-0.4007333	0.4963046	-0.178881	-0.1453266	0.02704559	-0.03115331	0	0
20.1422	-0.4049871	0.4928502	-0.2567566	-0.2085072	-1.175145	-0.9533969	0	0
20.15911	-0.4060981	0.4919463	-0.06570607	-0.05346165	5.70711	4.631561	0	0
20.17533	-0.4060536	0.4919824	0.002738554	0.002227945	2.065663	1.680715	0	0
20.1919	-0.4060536	0.4919824	0	0	-0.0835102	-0.06793954	0	0
20.20847	-0.4060314	0.4919643	0.001340159	-0.001090116	0.04044609	-0.03289977	0	0
20.22516	-0.4060314	0.4919643	0	0	-0.04029763	0.03277902	0	0
20.2416	-0.4060314	0.4919643	0	0	0	0	0	0
20.25818	-0.4060314	0.4919643	0	0	0	0	0	0
20.2913	-0.4060092	0.4919824	0.0006703499	0.0005452778	0.01348747	0.01097101	0	0
20.30787	-0.4060092	0.4919824	0	0	-0.01349161	-0.01097438	0	0
20.32444	-0.4060092	0.4919824	0	0	0	0	0	0
20.34124	-0.4060092	0.4919824	0	0	0	0	0	0
20.35757	-0.4060092	0.4919824	0	0	0	0	0	0
20.37414	-0.4060092	0.4919824	0	0	0	0	0	0
20.39078	-0.405987	0.4919643	0.001336113	-0.001085368	0.04023596	-0.03268497	0	0
20.40727	-0.405987	0.4919643	0	0	-0.04032629	0.03275836	0	0
20.42384	-0.405987	0.4919643	0	0	0	0	0	0
20.4404	-0.405987	0.4919643	0	0	0	0	0	0
20.45697	-0.405987	0.4919643	0	0	0	0	0	0
20.47354	-0.405987	0.4919643	0	0	0	0	0	0
20.4901	-0.405987	0.4919643	0	0	0	0	0	0
20.50667	-0.405987	0.4919643	0	0	0	0	0	0
20.52387	-0.405987	0.4919643	0	0	0	0	0	0
20.53989	-0.405987	0.4919643	0	0	0	0	0	0
20.55638	-0.4059648	0.4919824	0.001346515	0.001095286	0.04142725	0.03369787	0	0
20.57294	-0.4059648	0.4919824	0	0	-0.0407317	-0.03313209	0	0
20.58951	-0.4059648	0.4919824	0	0	0	0	0	0
20.60607	-0.4059648	0.4919824	0	0	0	0	0	0
20.62627	-0.4059648	0.4919824	0	0	0	0	0	0
20.64283	-0.4059648	0.4919824	0	0	0	0	0	0
20.6594	-0.4059648	0.4919824	0	0	0	0	0	0
20.67598	-0.4059648	0.4919824	0	0	0	0	0	0
20.69254	-0.4059648	0.4919824	0	0	0	0	0	0
20.7091	-0.4059648	0.4919824	0	0	0	0	0	0
20.72567	-0.4059648	0.4919824	0	0	0	0	0	0
20.74224	-0.4059648	0.4919824	0	0	0	0	0	0
20.7588	-0.4059648	0.4919824	0	0	0	0	0	0
20.77537	-0.4059648	0.4919824	0	0	0	0	0	0
20.79197	-0.4059648	0.4919824	0	0	0	0	0	0
20.80908	-0.4059648	0.4919824	0	0	0	0	0	0
20.82509	-0.4059648	0.4919824	0	0	0	0	0	0
20.84164	-0.4059648	0.4919824	0	0	0	0	0	0
20.85821	-0.4059648	0.4919824	0	0	0	0	0	0
20.87477	-0.4059648	0.4919824	0	0	0	0	0	0
20.89134	-0.4059648	0.4919824	0	0	0	0	0	0
20.90815	-0.4059648	0.4919824	0	0	0	0	0	0
20.92467	-0.4059648	0.4919824	0	0	0	0	0	0
20.94118	-0.4059648	0.4919824	0	0	0	0	0	0
20.95769	-0.4059648	0.4919824	0	0	0	0	0	0
20.9742	-0.4059648	0.4919824	0	0	0	0	0	0
20.99121	-0.4059648	0.4919824	0	0	0	0	0	0
21.00731	-0.4059648	0.4919824	0	0	0	0	0	0
21.02387	-0.4059648	0.4919824	0	0	0	0	0	0
21.04075	-0.4059648	0.4919824	0	0	0	0	0	0
21.05701	-0.4059648	0.4919824	0	0	0	0	0	0
21.07357	-0.4059648	0.4919824	0	0	0	0	0	0
21.09014	-0.4059648	0.4919824	0	0	0	0	0	0
21.10671	-0.4059648	0.4919824	0	0	0	0	0	0
21.12331	-0.4059648	0.4919824	0	0	0	0	0	0
21.14032	-0.4059648	0.4919824	0	0	0	0	0	0
21.15641	-0.4059648	0.4919824	0	0	0	0	0	0
21.17298	-0.4059648	0.4919824	0	0	0	0	0	0
21.18954	-0.4059648	0.4919824	0	0	0	0	0	0
21.20611	-0.4059648	0.4919824	0	0	0	0	0	0
21.22268	-0.4059648	0.4919824	0	0	0	0	0	0
21.23939	-0.4059648	0.4919824	0	0	0	0	0	0
21.25581	-0.4059648	0.4919824	0	0	0	0	0	0
21.293	-0.4058982	0.4919282	0.001791575	-0.001458259	0.03341638	-0.02719938	0	0
21.30957	-0.4058093	0.4918559	0.005362437	-0.004364063	0.06641927	-0.05404897	0	0
21.32614	-0.4054094	0.4915305	0.02414086	-0.01964008	0.5667339	-0.4610312	0	0
21.34271	-0.4045424	0.4908255	0.05233278	-0.04255051	0.8508338	-0.6914381	0	0
21.35927	-0.4028732	0.4894701	0.1007476	-0.08181448	1.461162	-1.184989	0	0
21.37584	-0.4016477	0.4884763	0.0739732	-0.05998518	-0.8080532	0.6588098	0	0
21.39241	-0.3971358	0.4848277	0.272342	-0.2202287	5.986782	-4.836158	0	0
21.40898	-0.3930109	0.4815422	0.2489764	-0.198313	-0.7051739	0.6614159	0	0
21.42554	-0.3901556	0.4792506	0.1723463	-0.138326	-2.312702	1.81041	0	0
21.44211	-0.3856229	0.4756613	0.2736273	-0.2166721	3.056843	-2.364624	0	0
21.45868	-0.3831578	0.4736961	0.1487919	-0.1186176	-3.767758	2.95946	0	0
21.47556	-0.3827729	0.4733897	0.02279418	-0.01814886	-3.766411	3.003282	0	0
21.49207	-0.3826823	0.4733176	0.005487523	-0.004366552	-0.518229	0.4126963	0	0
21.50838	-0.3803249	0.4714792	0.1445765	-0.1127416	4.238459	-3.302514	0	0
21.5251	-0.3758926	0.4680021	0.2650885	-0.2079661	3.649032	-2.883343	0	0
21.54151	-0.3708278	0.4640765	0.3085565	-0.23915	1.311869	-0.941131	0	0
21.55813	-0.3646868	0.4593974	0.3695657	-0.2815908	1.847002	-1.284858	0	0
21.57465	-0.362503	0.4576884	0.1321946	-0.1034523	-7.163461	5.375921	0	0
21.59168	-0.3578013	0.4540558	0.2760393	-0.2132751	4.287196	-3.273197	0	0
21.60815	-0.3548891	0.4518266	0.1767812	-0.1353136	-2.962363	2.326767	0	0
21.62467	-0.3510427	0.4488075	0.2329473	-0.182847	1.702742	-1.441032	0	0
21.64118	-0.345043	0.4441729	0.3633128	-0.2806454	3.947391	-2.961279	0	0
21.65748	-0.3396725	0.4400434	0.3295129	-0.2533719	-1.030107	0.8312041	0	0
21.67405	-0.3318137	0.4340319	0.4743553	-0.3628576	4.407123	-3.331325	0	0
21.69061	-0.3254959	0.4291894	0.3813903	-0.2923287	-2.805849	2.128689	0	0
21.70724	-0.3189137	0.4242057	0.3959349	-0.2997791	0.4382246	-0.2244797	0	0
21.72375	-0.3112538	0.418436	0.463952	-0.3494686	2.052761	-1.49963	0	0
21.74031	-0.3078399	0.4159103	0.2060662	-0.1524472	-7.796475	5.956404	0	0
21.75688	-0.3020456	0.4115767	0.3497456	-0.2615757	4.336255	-3.293506	0	0
21.77345	-0.2991886	0.4094463	0.1724687	-0.128609	-5.350537	4.013176	0	0
21.85628	-0.2712753	0.3889447	0.3369697	-0.2474952	1.654915	-1.196021	0	0
21.87285	-0.265379	0.3847793	0.3559424	-0.2514537	0.190869	-0.03982254	0	0
21.88941	-0.2615276	0.3820088	0.23247	-0.1672285	-3.726618	2.542066	0	0
21.90598	-0.2585047	0.379882	0.1824422	-0.1283599	-1.509756	1.17299	0	0
21.92255	-0.2508399	0.374396	0.4627512	-0.3312144	8.46023	-6.122512	0	0
21.93911	-0.2477507	0.3721626	0.1864657	-0.1348075	-8.339273	5.928255	0	0
21.95568	-0.2435416	0.3691969	0.254092	-0.1790317	2.041085	-1.334768	0	0
21.97574	-0.23746	0.3649631	0.3032039	-0.2110787	1.341012	-0.8750492	0	0
21.9923	-0.2352464	0.3634091	0.1336175	-0.09380037	-4.630358	3.202146	0	0
22.00887	-0.2311611	0.3606227	0.2465893	-0.1681891	3.409497	-2.245057	0	0
22.02544	-0.2293151	0.359301	0.1114221	-0.07977816	-4.079355	2.668247	0	0
22.04201	-0.2273926	0.3579614	0.1160407	-0.08085389	0.1393898	-0.03246536	0	0
22.05857	-0.2218153	0.3539788	0.3366463	-0.240394	6.657888	-4.814931	0	0
22.07514	-0.2182314	0.3514964	0.2163251	-0.1498352	-3.631299	2.73307	0	0
22.09171	-0.2162491	0.3500856	0.1196555	-0.08515499	-2.917493	1.952054	0	0
22.10827	-0.2162491	0.3501213	0	0.002155048	-3.611212	2.635022	0	0
22.12484	-0.2162491	0.3501213	0	0	0	-0.06503949	0	0
22.14154	-0.2162491	0.3501213	0	0	0	0	0	0
22.15805	-0.2162491	0.3501213	0	0	0	0	0	0
22.17454	-0.2161236	0.3501035	0.007611901	-0.001082509	0.2306304	-0.03279858	0	0
22.19111	-0.215546	0.3498356	0.03486255	-0.01617012	0.8243719	-0.4564222	0	0
22.20767	-0.2122289	0.347907	0.2002252	-0.116414	4.990942	-3.02554	0	0
22.22424	-0.203991	0.343389	0.4972378	-0.2727036	8.963859	-4.716829	0	0
22.24081	-0.1972437	0.340264	0.4073133	-0.1886478	-2.714085	2.536954	0	0
22.25762	-0.1924058	0.3384247	0.2877446	-0.1093945	-3.582195	2.374375	0	0
22.27394	-0.1857801	0.3353354	0.4059578	-0.1892822	3.567683	-2.411015	0	0
22.29064	-0.1813537	0.3350497	0.2650406	-0.01710791	-4.267385	5.213937	0	0
22.30716	-0.177889	0.3375497	0.2098069	0.15139	-1.662936	5.073011	0	0
22.32367	-0.1774301	0.3378355	0.02779412	0.01730555	-5.511557	-4.060232	0	0
22.34021	-0.1774301	0.3378355	0	0	-0.8409584	-0.5236089	0	0
22.40822	-0.1774556	0.3378533	-0.000374851	0.0002624614	-0.004433138	0.003103974	0	0
22.42476	-0.1774811	0.3378712	-0.00154213	0.001079762	-0.01380596	0.009666594	0	0
22.44132	-0.1775066	0.337889	-0.001538935	0.001079323	9.654697E-05	-1.325582E-05	0	0
22.45789	-0.1775321	0.3379069	-0.001538935	0.001077524	0	-5.428939E-05	0	0
22.47446	-0.1775576	0.3379247	-0.001538935	0.001077524	0	0	0	0
22.49102	-0.1776851	0.338014	-0.00769466	0.00539004	-0.1857909	0.1301595	0	0
22.50759	-0.1778125	0.3381033	-0.007693775	0.00538942	2.673165E-05	-1.872059E-05	0	0
22.52431	-0.1780929	0.3382998	-0.01676538	0.01174414	-0.2724797	0.1908739	0	0
22.54134	-0.1783223	0.3384605	-0.01347602	0.009441527	0.09746664	-0.06822841	0	0
22.55729	-0.1786791	0.3387105	-0.02235985	0.01566609	-0.2693706	0.1887377	0	0
22.57386	-0.1788575	0.3388354	-0.01077053	0.007546206	0.356372	-0.2496866	0	0
22.59043	-0.1791633	0.3390498	-0.01845642	0.01293569	-0.2319875	0.1626736	0	0
22.60699	-0.1793417	0.3392105	-0.01076535	0.009699516	0.2321171	-0.09766783	0	0
22.62356	-0.1799276	0.3396212	-0.03536762	0.02479205	-0.742498	0.4554936	0	0
22.64013	-0.18115	0.3404783	-0.07376914	0.05172544	-1.158827	0.8127577	0	0
22.65691	-0.183059	0.341889	-0.1137969	0.0840943	-1.200371	0.9706919	0	0
22.67651	-0.1830844	0.3419783	-0.001297649	0.004555074	3.092597	-2.186528	0	0
22.69308	-0.1830844	0.3420855	0	0.006466944	0.03587732	0.05285926	0	0
22.70964	-0.1832371	0.3423355	-0.009214721	0.01509073	-0.2781008	0.2602665	0	0
22.72621	-0.1861359	0.3444783	-0.1749736	0.1293443	-5.002612	3.448179	0	0
22.74278	-0.1898185	0.3471034	-0.2222785	0.1584482	-1.427666	0.878359	0	0
22.75934	-0.1931916	0.3494785	-0.2036062	0.1433611	0.5635307	-0.4553309	0	0
22.77599	-0.1951679	0.3509071	-0.1187373	0.08583722	2.555465	-1.732085	0	0
22.82561	-0.1959022	0.3514607	-0.01479832	0.01115617	1.568487	-1.126972	0	0
22.84218	-0.1958769	0.3514429	0.001528142	-0.001077524	0.2466578	-0.1848249	0	0
22.85875	-0.1958769	0.3514429	0	0	-0.0461194	0.03251974	0	0
22.87556	-0.1959022	0.3514607	-0.001505608	0.001061635	-0.04510182	0.03180223	0	0
22.89207	-0.1959022	0.3514607	0	0	0.04517668	-0.03185501	0	0
22.90859	-0.1959022	0.3514607	0	0	0	0	0	0
22.92501	-0.1959022	0.3514607	0	0	0	0	0	0
22.94158	-0.1959022	0.3514607	0	0	0	0	0	0
22.95815	-0.1959275	0.3514786	-0.001528142	0.001077524	-0.0461194	0.03251974	0	0
22.97471	-0.1959275	0.3514786	0	0	0.0461194	-0.03251974	0	0
22.99128	-0.1959528	0.3514964	-0.001528142	0.001077524	-0.0461194	0.03251974	0	0
23.00785	-0.1959528	0.3514964	0	0	0.0461194	-0.03251974	0	0
23.02467	-0.1959528	0.3514964	0	0	0	0	0	0
23.04098	-0.1959781	0.3515143	-0.001551904	0.001096107	-0.04683656	0.03308056	0	0
23.05755	-0.1960035	0.3515322	-0.001527966	0.0010774	0.000728	-0.0005688838	0	0
23.07412	-0.1960288	0.35155	-0.001528317	0.001077648	-1.061756E-05	7.487101E-06	0	0
23.09072	-0.1960541	0.3516036	-0.001524981	0.003227683	0.0001005857	0.06482474	0	0
23.10725	-0.1960794	0.3516214	-0.001531668	0.001080011	-0.0002018377	-0.06482433	0	0
23.12381	-0.1961301	0.3516929	-0.003056283	0.004311895	-0.046066	0.09765089	0	0
23.14038	-0.1961301	0.3517643	0	0.004311399	0.0922335	-1.498037E-05	0	0
23.15726	-0.1961047	0.3517822	0.001499993	0.001057676	0.0448465	-0.09727919	0	0
23.17377	-0.1960794	0.3518715	0.001533261	0.005407474	0.0009963381	0.1302723	0	0
23.19008	-0.1959781	0.3519786	0.006208343	0.006570101	0.1424307	0.03542051	0	0
23.20665	-0.1926847	0.3543003	0.19884	0.1401662	5.859508	4.063752	0	0
23.22322	-0.1893616	0.3566398	0.2005823	0.1412168	0.05258843	0.03171236	0	0
23.23982	-0.1839748	0.3603905	0.3244	0.2258697	3.732529	2.551892	0	0
23.25635	-0.177889	0.3646595	0.3682298	0.2583003	1.322861	0.9788121	0	0
23.27291	-0.1754918	0.3663743	0.1446985	0.1035089	-6.754351	-4.677268	0	0
23.28986	-0.1754918	0.3663743	0	0	-4.318044	-3.088876	0	0
23.30605	-0.1755173	0.3663922	-0.001576489	0.00110253	-0.04757852	0.03327441	0	0
23.32288	-0.1755173	0.3663922	0	0	0.04773791	-0.03338588	0	0
23.33918	-0.1755173	0.3663922	0	0	0	0	0	0
23.35854	-0.1754918	0.3663743	0.001318894	-0.0009223786	0.03699139	-0.02587022	0	0
23.3751	-0.1754918	0.3663743	0	0	-0.03671641	0.02567791	0	0
23.39167	-0.1754662	0.3663565	0.001539834	-0.001077524	0.04647229	-0.03251974	0	0
23.40824	-0.1754662	0.3663207	0	-0.002156847	-0.04647229	-0.03257403	0	0
23.4248	-0.1754152	0.366285	0.003079668	-0.002156847	0.09294458	0	0	0
23.44137	-0.1754407	0.3662671	-0.001539834	-0.001077524	-0.1394169	0.03257403	0	0
23.45794	-0.1754152	0.3662493	0.001540011	-0.001079447	0.09295528	-5.804506E-05	0	0
23.4745	-0.1754152	0.3662135	0	-0.002156847	-0.04648031	-0.03251786	0	0
23.49107	-0.1754152	0.3661778	0	-0.002155048	0	5.428939E-05	0	0
23.50764	-0.1753642	0.3661064	0.003080568	-0.004313694	0.09297172	-0.06514806	0	0
23.52421	-0.1753642	0.3660706	0	-0.002156847	-0.09297172	0.06509378	0	0
23.54077	-0.1753642	0.3660349	0	-0.002156847	0	0	0	0
23.55756	-0.1753387	0.366017	0.001520059	-0.001063686	0.04557899	0.03277845	0	0
23.57407	-0.1753387	0.366017	0	0	-0.04565733	0.03194946	0	0
23.59057	-0.1753132	0.3659992	0.001545707	-0.001081633	0.04681931	-0.03276258	0	0
23.67331	-0.1753132	0.3659635	0	-0.0004318965	-0.01557554	0.006547171	0	0
23.70665	-0.1753132	0.3659277	0	-0.001071577	0	-0.005510625	0	0
23.72301	-0.1753132	0.365892	0	-0.002185022	0	-0.02240341	0	0
23.74658	-0.1753387	0.3658741	-0.001082032	-0.0007571697	-0.02709799	0.03575857	0	0
23.76315	-0.1753132	0.3658563	0.001539834	-0.001077524	0.06531159	-0.007980139	0	0
23.77972	-0.1753132	0.3658563	0	0	-0.04647229	0.03251974	0	0
23.79628	-0.1753132	0.3658563	0	0	0	0	0	0
23.81285	-0.1753132	0.3658563	0	0	0	0	0	0
23.82942	-0.1753132	0.3658563	0	0	0	0	0	0
23.84599	-0.1753132	0.3658563	0	0	0	0	0	0
23.86255	-0.1753132	0.3658563	0	0	0	0	0	0
23.87927	-0.1753132	0.3658563	0	0	0	0	0	0
23.89579	-0.1753132	0.3658563	0	0	0	0	0	0
23.9123	-0.1753132	0.3658563	0	0	0	0	0	0
23.92882	-0.1753132	0.3658563	0	0	0	0	0	0
23.94539	-0.1753132	0.3658563	0	0	0	0	0	0
23.96195	-0.1753132	0.3658563	0	0	0	0	0	0
23.97852	-0.1753132	0.3658563	0	0	0	0	0	0
23.99509	-0.1753132	0.3658563	0	0	0	0	0	0
24.01166	-0.1753132	0.3658563	0	0	0	0	0	0
24.02822	-0.1753132	0.3658563	0	0	0	0	0	0
24.04479	-0.1753132	0.3658563	0	0	0	0	0	0
24.08088	-0.1753387	0.3658384	-0.0007068118	-0.0004954289	-0.01342218	-0.00940807	0	0
24.09745	-0.1753387	0.3658384	0	0	0.01342218	0.00940807	0	0
24.11402	-0.1753387	0.3658384	0	0	0	0	0	0
24.13058	-0.1753132	0.3658206	0.001539834	-0.001077524	0.04647496	-0.03252162	0	0
24.14715	-0.1753387	0.3658027	-0.001539834	-0.001079323	-0.09294458	-5.428939E-05	0	0
24.16372	-0.1753387	0.3658027	0	0	0.04647229	0.03257403	0	0
24.18028	-0.1753387	0.3658027	0	0	0	0	0	0
24.197	-0.1753387	0.3658027	0	0	0	0	0	0
24.21342	-0.1753387	0.3658027	0	0	0	0	0	0
24.23003	-0.1753387	0.3658027	0	0	0	0	0	0
24.24655	-0.1753387	0.3658027	0	0	0	0	0	0
24.26312	-0.1753387	0.3658027	0	0	0	0	0	0
24.27969	-0.1753387	0.3658027	0	0	0	0	0	0
24.29658	-0.1753642	0.3658206	-0.001510446	0.001058724	-0.04514616	0.0316445	0	0
24.31282	-0.1753642	0.3658206	0	0	0.04558535	-0.03195235	0	0
24.32939	-0.1753642	0.3658206	0	0	0	0	0	0
24.34596	-0.1753642	0.3658206	0	0	0	0	0	0
24.36263	-0.1753642	0.3658206	0	0	0	0	0	0
24.37914	-0.1753642	0.3658206	0	0	0	0	0	0
24.39566	-0.1753642	0.3658206	0	0	0	0	0	0
24.47849	-0.1753642	0.3658206	0	0	0	0	0	0
24.49522	-0.1753642	0.3658206	0	0	0	0	0	0
24.51163	-0.1753642	0.3658206	0	0	0	0	0	0
24.52819	-0.1753642	0.3658206	0	0	0	0	0	0
24.54476	-0.1753642	0.3658206	0	0	0	0	0	0
24.56133	-0.1753642	0.3658206	0	0	0	0	0	0
24.57789	-0.1753642	0.3658206	0	0	0	0	0	0
24.59446	-0.1753642	0.3658206	0	0	0	0	0	0
24.61103	-0.1753642	0.3658206	0	0	0	0	0	0
24.62782	-0.1753642	0.3658206	0	0	0	0	0	0
24.64433	-0.1753642	0.3658206	0	0	0	0	0	0
24.66084	-0.1753642	0.3658206	0	0	0	0	0	0
24.67729	-0.1753642	0.3658206	0	0	0	0	0	0
24.69386	-0.1753642	0.3658206	0	0	0	0	0	0
24.71043	-0.1753642	0.3658206	0	0	0	0	0	0
24.72699	-0.1753642	0.3658206	0	0	0	0	0	0
24.74356	-0.1753642	0.3658206	0	0	0	0	0	0
24.77942	-0.1753642	0.3658206	0	0	0	0	0	0
24.79597	-0.1753642	0.3658206	0	0	0	0	0	0
24.81254	-0.1753642	0.3658206	0	0	0	0	0	0
24.8291	-0.1753642	0.3658206	0	0	0	0	0	0
24.84567	-0.1753642	0.3658206	0	0	0	0	0	0
24.8625	-0.1753642	0.3658206	0	0	0	0	0	0
24.8788	-0.1753642	0.3658206	0	0	0	0	0	0
24.89551	-0.1753642	0.3658206	0	0	0	0	0	0
24.91202	-0.1753642	0.3658206	0	0	0	0	0	0
24.92853	-0.1753642	0.3658206	0	0	0	0	0	0
24.94507	-0.1753642	0.3658206	0	0	0	0	0	0
24.96163	-0.1753642	0.3658206	0	0	0	0	0	0
24.97856	-0.1753642	0.3658206	0	0	0	0	0	0
24.99477	-0.1753642	0.3658206	0	0	0	0	0	0
25.01134	-0.1753642	0.3658206	0	0	0	0	0	0
25.0279	-0.1753642	0.3658206	0	0	0	0	0	0
25.04461	-0.1753642	0.3658206	0	0	0	0	0	0
25.06104	-0.1753642	0.3658206	0	0	0	0	0	0
25.0776	-0.1753642	0.3658206	0	0	0	0	0	0
25.09417	-0.1753642	0.3658206	0	0	0	0	0	0
25.11074	-0.1753642	0.3658206	0	0	0	0	0	0
25.1273	-0.1753642	0.3658206	0	0	0	0	0	0
25.14387	-0.1753642	0.3658206	0	0	0	0	0	0
25.16044	-0.1753642	0.3658206	0	0	0	0	0	0
25.17721	-0.1753642	0.3658206	0	0	0	0	0	0
25.19357	-0.1753897	0.3658027	-0.001559039	-0.001092785	-0.0470519	-0.03298031	0	0
25.21023	-0.1753897	0.3658027	0	0	0.04721225	0.0330927	0	0
25.2267	-0.1753897	0.3658027	0	0	0	0	0	0
25.24327	-0.1753642	0.3658206	0.001539834	0.001079323	0.04660374	0.03266617	0	0
25.25984	-0.1753642	0.3658206	0	0	-0.04647229	-0.03257403	0	0
25.27641	-0.1753642	0.3658206	0	0	0	0	0	0
25.29297	-0.1753642	0.3658206	0	0	0	0	0	0
25.3098	-0.1753642	0.3658206	0	0	0	0	0	0
25.32611	-0.1753642	0.3658206	0	0	0	0	0	0
25.34462	-0.1753897	0.3658027	-0.001377872	-0.0009657979	-0.03957281	-0.02773795	0	0
25.36119	-0.1753897	0.3658027	0	0	0.0392759	0.02752983	0	0
25.37775	-0.1753897	0.3658027	0	0	0	0	0	0
25.39436	-0.1753897	0.3658027	0	0	0	0	0	0
25.41138	-0.1753897	0.3658027	0	0	0	0	0	0
25.42746	-0.1753897	0.3658027	0	0	0	0	0	0
25.44402	-0.1753897	0.3658027	0	0	0	0	0	0
25.46091	-0.1753897	0.3658027	0	0	0	0	0	0
25.47716	-0.1753897	0.3658027	0	0	0	0	0	0
25.49372	-0.1753897	0.3658027	0	0	0	0	0	0
25.51029	-0.1753642	0.3657848	0.001539834	-0.001077524	0.04647229	-0.03251974	0	0
25.52686	-0.1753642	0.3657848	0	0	-0.04647229	0.03251974	0	0
25.54342	-0.1753642	0.3657848	0	0	0	0	0	0
25.55999	-0.1753642	0.3657848	0	0	0	0	0	0
25.57656	-0.1753642	0.3657848	0	0	0	0	0	0
25.59312	-0.1753642	0.3657848	0	0	0	0	0	0
25.60969	-0.1753642	0.3657848	0	0	0	0	0	0
25.62626	-0.1753642	0.3657848	0	0	0	0	0	0
25.64282	-0.1753897	0.3658027	-0.001540011	0.001077648	-0.04648031	0.03252536	0	0
25.65955	-0.1753897	0.3658027	0	0	0.04625398	-0.03236698	0	0
25.67596	-0.1753897	0.3658027	0	0	0	0	0	0
25.69253	-0.1753897	0.3658027	0	0	0	0	0	0
25.70909	-0.1753897	0.3658027	0	0	0	0	0	0
25.72566	-0.1753897	0.3658027	0	0	0	0	0	0
25.74223	-0.1753897	0.3658027	0	0	0	0	0	0
25.75912	-0.1753897	0.3658027	0	0	0	0	0	0
25.77536	-0.1753897	0.3658027	0	0	0	0	0	0
25.79193	-0.1753897	0.3658027	0	0	0	0	0	0
25.80849	-0.1753897	0.3658027	0	0	0	0	0	0
25.82506	-0.1753897	0.3658027	0	0	0	0	0	0
25.84168	-0.1753897	0.3658027	0	0	0	0	0	0
25.85819	-0.1753897	0.3658027	0	0	0	0	0	0
25.87476	-0.1753897	0.3658027	0	0	0	0	0	0
25.89133	-0.1753897	0.3658027	0	0	0	0	0	0
25.9079	-0.1753897	0.3658027	0	0	0	0	0	0
25.92446	-0.1753897	0.3658027	0	0	0	0	0	0
25.94411	-0.1753897	0.3658027	0	0	0	0	0	0
25.96077	-0.1753897	0.3658027	0	0	0	0	0	0
25.97728	-0.1753897	0.3658027	0	0	0	0	0	0
25.9938	-0.1753897	0.3658027	0	0	0	0	0	0
26.01037	-0.1753897	0.3658027	0	0	0	0	0	0
26.02694	-0.1753897	0.3658027	0	0	0	0	0	0
26.04351	-0.1753897	0.3658027	0	0	0	0	0	0
26.06007	-0.1753897	0.3658027	0	0	0	0	0	0
26.07664	-0.1753897	0.3658027	0	0	0	0	0	0
26.09321	-0.1753897	0.3658027	0	0	0	0	0	0
26.10988	-0.1753897	0.3658027	0	0	0	0	0	0
26.12634	-0.1753897	0.3658027	0	0	0	0	0	0
26.14291	-0.1753897	0.3658027	0	0	0	0	0	0
26.15948	-0.1753897	0.3658027	0	0	0	0	0	0
26.17604	-0.1753897	0.3658027	0	0	0	0	0	0
26.19261	-0.1753897	0.3658027	0	0	0	0	0	0
26.20918	-0.1753897	0.3658027	0	0	0	0	0	0
26.22596	-0.1753897	0.3658027	0	0	0	0	0	0
26.24231	-0.1753897	0.3658027	0	0	0	0	0	0
26.25899	-0.1753897	0.3658027	0	0	0	0	0	0
26.35828	-0.1753897	0.3658027	0	0	0	0	0	0
26.37485	-0.1753897	0.3658027	0	0	0	0	0	0
26.39141	-0.1753897	0.3658027	0	0	0	0	0	0
26.40798	-0.1753897	0.3658027	0	0	0	0	0	0
26.42455	-0.1753897	0.3658027	0	0	0	0	0	0
26.44112	-0.1753897	0.3658027	0	0	0	0	0	0
26.45768	-0.1753897	0.3658027	0	0	0	0	0	0
26.47425	-0.1753897	0.3658027	0	0	0	0	0	0
26.49081	-0.1753897	0.3658027	0	0	0	0	0	0
26.50738	-0.1753897	0.3658027	0	0	0	0	0	0
26.52418	-0.1753897	0.3658027	0	0	0	0	0	0
26.54069	-0.1753897	0.3658027	0	0	0	0	0	0
26.5572	-0.1753897	0.3658027	0	0	0	0	0	0
26.57365	-0.1753897	0.3658027	0	0	0	0	0	0
26.59021	-0.1753897	0.3658027	0	0	0	0	0	0
26.60678	-0.1753897	0.3658027	0	0	0	0	0	0
26.62335	-0.1753897	0.3658027	0	0	0	0	0	0
26.64026	-0.1753897	0.3658027	0	0	0	0	0	0
26.65727	-0.1753642	0.3657848	0.001499608	-0.001049375	0.04420727	-0.03093476	0	0
26.67609	-0.1753642	0.3657848	0	0	-0.04185171	0.02928642	0	0
26.69266	-0.1753642	0.3657848	0	0	0	0	0	0
26.70922	-0.1753642	0.3657848	0	0	0	0	0	0
26.72582	-0.1753897	0.365767	-0.001537356	-0.00107579	-0.04636014	-0.03244127	0	0
26.74236	-0.1753897	0.365767	0	0	0.04640017	0.03246928	0	0
26.75892	-0.1753897	0.365767	0	0	0	0	0	0
26.77549	-0.1753897	0.365767	0	0	0	0	0	0
26.79206	-0.1753897	0.365767	0	0	0	0	0	0
26.80863	-0.1753897	0.365767	0	0	0	0	0	0
26.82519	-0.1753897	0.365767	0	0	0	0	0	0
26.8419	-0.1753897	0.365767	0	0	0	0	0	0
26.85841	-0.1753897	0.365767	0	0	0	0	0	0
26.87489	-0.1753897	0.365767	0	0	0	0	0	0
26.89146	-0.1753897	0.365767	0	0	0	0	0	0
26.90803	-0.1754152	0.3657848	-0.001540911	0.001077648	-0.04650746	0.03252536	0	0
26.92459	-0.1754152	0.3657848	0	0	0.04650746	-0.03252536	0	0
26.94116	-0.1754152	0.3657848	0	0	0	0	0	0
26.95798	-0.1753897	0.365767	0.001517326	-0.001061154	0.04544245	-0.03178054	0	0
26.9745	-0.1753897	0.365767	0	0	-0.04551525	0.03183145	0	0
26.99101	-0.1753897	0.365767	0	0	0	0	0	0
27.00743	-0.1753897	0.365767	0	0	0	0	0	0
27.02399	-0.1753897	0.365767	0	0	0	0	0	0
27.04056	-0.1753642	0.3657491	0.001539834	-0.001079323	0.04647229	-0.03257403	0	0
27.05713	-0.1752876	0.3656598	0.004620402	-0.005391219	0.09297172	-0.1301333	0	0
27.0737	-0.1752621	0.3656419	0.001539834	-0.001077524	-0.09297172	0.1301876	0	0
27.10683	-0.1750325	0.3654811	0.006931053	-0.004852457	0.1084715	-0.07595179	0	0
27.1234	-0.1749304	0.3654097	0.006161136	-0.004311895	-0.01549077	0.01087611	0	0
27.14012	-0.1748538	0.3653561	0.004578236	-0.003204854	-0.04755303	0.03325742	0	0
27.15653	-0.1748538	0.3653561	0	0	-0.1381794	0.09672825	0	0
27.1731	-0.1748794	0.3653382	-0.001539834	-0.001079323	-0.04668999	-0.03272663	0	0
27.18966	-0.1748794	0.3653382	0	0	0.04647496	0.03257591	0	0
27.20623	-0.1748794	0.3653382	0	0	0	0	0	0
27.2228	-0.1748794	0.3653382	0	0	0	0	0	0
27.23937	-0.1748538	0.3653204	0.001539834	-0.001077524	0.04646961	-0.03251787	0	0
27.25593	-0.1748538	0.3653204	0	0	-0.04647229	0.03251974	0	0
27.2725	-0.1748538	0.3652847	0	-0.002157096	0	-0.06510502	0	0
27.28923	-0.1748538	0.3652489	0	-0.002136189	0	0.000627968	0	0
27.30917	-0.1748028	0.3651775	0.002558842	-0.003581632	0.06977533	-0.03941481	0	0
27.32574	-0.1746497	0.3650703	0.009242603	-0.006468743	0.1830547	-0.07907212	0	0
27.34231	-0.1743689	0.3648738	0.01694627	-0.01186176	0.2324972	-0.1627616	0	0
27.35887	-0.1729903	0.3639092	0.08321311	-0.05822048	1.999937	-1.399109	0	0
27.37544	-0.168518	0.3607834	0.2699477	-0.1886747	5.635661	-3.937115	0	0
27.39201	-0.1609124	0.355479	0.4590757	-0.3201776	5.707894	-3.968766	0	0
27.40881	-0.1547527	0.3511929	0.3665694	-0.2550688	-2.772057	1.95106	0	0
27.42514	-0.1502794	0.3480856	0.2739486	-0.1902961	-2.795465	1.954956	0	0
27.44183	-0.1390443	0.3402998	0.673039	-0.4664077	12.08562	-8.361462	0	0
27.45827	-0.1344213	0.3371033	0.2811811	-0.1944152	-11.82629	8.208748	0	0
27.49141	-0.1204146	0.3274423	0.4227232	-0.2915701	2.855063	-1.959724	0	0
27.52454	-0.1012057	0.3142434	0.5797269	-0.3983431	2.36919	-1.611207	0	0
27.54111	-0.09427236	0.3094915	0.4184958	-0.2868229	-3.243975	2.24379	0	0
27.55792	-0.08740829	0.3047926	0.408253	-0.2794757	-0.3068512	0.2201053	0	0
27.57425	-0.07875781	0.2988777	0.5300156	-0.362408	3.674804	-2.502902	0	0
27.59081	-0.07501686	0.2963219	0.2258303	-0.1542872	-9.249551	6.328455	0	0
27.60738	-0.06745016	0.2911915	0.4567268	-0.3096704	6.968872	-4.689744	0	0
27.62395	-0.06192074	0.2874189	0.3337564	-0.2277138	-3.711255	2.473455	0	0
27.64051	-0.05502335	0.2827156	0.4163273	-0.2838943	2.491995	-1.695532	0	0
27.65708	-0.05011589	0.2794064	0.2962146	-0.1997431	-3.625008	2.539689	0	0
27.67365	-0.04557369	0.2763113	0.2741683	-0.18682	-0.6653586	0.3900197	0	0
27.69021	-0.04218549	0.274003	0.2045121	-0.139328	-2.102226	1.433312	0	0
27.70678	-0.03566908	0.2696002	0.3932859	-0.2657239	5.696875	-3.814416	0	0
27.72335	-0.02943886	0.2653214	0.3760999	-0.2582974	-0.5186741	0.224134	0	0
27.73992	-0.02404799	0.2616503	0.3253933	-0.2215904	-1.530417	1.107881	0	0
27.75657	-0.01994472	0.258856	0.2464539	-0.167835	-2.376514	1.618337	0	0
27.77305	-0.01723514	0.2570107	0.1643647	-0.1119367	-2.477455	1.687013	0	0
27.78962	-0.01360442	0.2545737	0.2191502	-0.1470937	1.657531	-1.063675	0	0
27.85028	-0.004052609	0.2481027	0.1574564	-0.1066708	-0.7988268	0.5234071	0	0
27.86685	-0.002026313	0.2467579	0.1223075	-0.08117498	-0.4551177	0.3301261	0	0
27.88366	0.002236838	0.243996	0.2536449	-0.1643258	3.93523	-2.491427	0	0
27.89998	0.003499986	0.2431709	0.07736599	-0.05053756	-5.320109	3.434136	0	0
27.91668	0.008026144	0.2401568	0.2711082	-0.1805345	5.867078	-3.936686	0	0
27.93319	0.01147318	0.2378419	0.2087606	-0.1401981	-1.877548	1.214697	0	0
27.9497	0.01668266	0.2343954	0.3154983	-0.2087247	3.232141	-2.075063	0	0
27.96625	0.01828744	0.2333002	0.09698712	-0.06619056	-6.609899	4.311616	0	0
27.98281	0.02065496	0.2317919	0.1429039	-0.09104539	1.38665	-0.7505956	0	0
28.00278	0.0247844	0.229008	0.206842	-0.1394442	1.750221	-1.324853	0	0
28.01935	0.02491589	0.2289182	0.007937185	-0.0054209	-5.444757	3.66871	0	0
28.03591	0.02515259	0.2287565	0.01428686	-0.009758879	0.1916337	-0.1309205	0	0
28.10231	0.04024142	0.2187273	0.2272462	-0.1510453	2.566831	-1.702946	0	0
28.11875	0.04573125	0.2149319	0.3339814	-0.2308966	1.288511	-0.9639677	0	0
28.13534	0.04822574	0.2132226	0.1503944	-0.1030583	-5.559227	3.871092	0	0
28.15188	0.0524256	0.2103429	0.2538256	-0.17404	3.121739	-2.142354	0	0
28.16845	0.0546298	0.2088306	0.1330457	-0.09128015	-3.647456	2.499279	0	0
28.18502	0.05617767	0.2077682	0.09342957	-0.06412348	-1.195616	0.8195898	0	0
28.20158	0.05961349	0.205409	0.2073867	-0.1424059	3.439234	-2.362568	0	0
28.21815	0.06037391	0.2048866	0.04589866	-0.03153062	-4.87372	3.346222	0	0
28.23472	0.06095073	0.2044903	0.03481694	-0.0239214	-0.334447	0.2296469	0	0
28.25129	0.06097694	0.2044723	0.001582557	-0.001087418	-1.003016	0.6891308	0	0
28.26793	0.06097694	0.2044723	0	0	-0.04764649	0.03273918	0	0
28.28442	0.06095073	0.2044903	-0.001590247	0.001092702	-0.04799374	0.0329778	0	0
28.30099	0.06092451	0.2044723	-0.001582557	-0.001087418	0.0002326274	-0.06595559	0	0
28.31755	0.06092451	0.2044723	0	0	0.04776168	0.03281834	0	0
28.33412	0.06092451	0.2044723	0	0	0	0	0	0
28.35069	0.06089829	0.2044903	-0.001582557	0.001087418	-0.04776168	0.03281834	0	0
28.36751	0.06087207	0.2044723	-0.001559044	-0.001071261	0.0007043157	-0.06466147	0	0
28.38382	0.06081963	0.2044723	-0.003213581	0	-0.04993402	0.03233074	0	0
28.40053	0.06081963	0.2044723	0	0	0.09730534	0	0	0
28.41696	0.06079341	0.2044543	-0.001596156	-0.001095855	-0.04817208	-0.03307296	0	0
28.43353	0.0607672	0.2044723	-0.001582557	0.001086519	0.0004121549	0.06614592	0	0
28.45009	0.06074098	0.2044543	-0.001582557	-0.001086519	0	-0.06558239	0	0
28.46708	0.06074098	0.2044543	0	0	0.04715902	0.03237744	0	0
28.48322	0.06074098	0.2044543	0	0	0	0	0	0
28.49979	0.06074098	0.2044543	0	0	0	0	0	0
28.51636	0.06074098	0.2044543	0	0	0	0	0	0
28.53313	0.06071476	0.2044363	-0.001563655	-0.00107443	-0.04690769	-0.03223154	0	0
28.54949	0.06068854	0.2044182	-0.001601922	-0.001100724	-0.001154893	-0.0007935589	0	0
28.56615	0.06066232	0.2044002	-0.00157386	-0.001081442	0.0008497018	0.0005838542	0	0
28.58266	0.06066232	0.2044002	0	0	0.0474473	0.03260232	0	0
28.60351	0.0606361	0.2043822	-0.001257878	-0.0008643222	-0.03367325	-0.0231378	0	0
28.62008	0.06060988	0.2043642	-0.001582375	-0.001087293	-0.008673458	-0.005959766	0	0
28.63664	0.06060988	0.2043642	0	0	0.04775618	0.03281456	0	0
28.65321	0.06058366	0.2043462	-0.0015826	-0.001087293	-0.04776296	-0.03281456	0	0
28.66978	0.06055744	0.2043282	-0.00158274	-0.001087543	-4.212592E-06	-7.557369E-06	0	0
28.68634	0.06055744	0.2043282	0	0	0.04776993	0.03282401	0	0
28.70291	0.06055744	0.2043282	0	0	0	0	0	0
28.71948	0.06050501	0.2043282	-0.003165115	0	-0.09552886	0	0	0
28.73604	0.06047879	0.2043101	-0.001582557	-0.001087418	0.04776168	-0.03281834	0	0
28.75261	0.06047879	0.2043101	0	0	0.04776168	0.03281834	0	0
28.76918	0.06047879	0.2043101	0	0	0	0	0	0
28.78575	0.06045257	0.2042921	-0.001582782	-0.001087418	-0.04776846	-0.03281834	0	0
28.80232	0.06045257	0.2042921	0	0	0.04775197	0.03280701	0	0
28.81896	0.06042635	0.2042741	-0.001575845	-0.001082806	-0.04744166	-0.03259845	0	0
28.83553	0.06042635	0.2042741	0	0	0.04745801	0.03260968	0	0
28.8521	0.06040013	0.2042561	-0.001582557	-0.001087418	-0.04776168	-0.03281834	0	0
28.86887	0.06037391	0.2042381	-0.001563344	-0.001074063	0.0005762829	0.0004005554	0	0
28.88538	0.06037391	0.2042381	0	0	0.04696822	0.03226855	0	0
28.90189	0.06034769	0.2042201	-0.001587859	-0.001091061	-0.04808221	-0.03303858	0	0
28.91841	0.06034769	0.2042201	0	0	0.04808221	0.03303858	0	0
28.93493	0.06034769	0.2042201	0	0	0	0	0	0
28.9515	0.06034769	0.2042201	0	0	0	0	0	0
28.96807	0.06034769	0.2042201	0	0	0	0	0	0
28.98463	0.06034769	0.2042201	0	0	0	0	0	0
29.0012	0.06034769	0.2042201	0	0	0	0	0	0
29.0509	0.06032147	0.2042021	-0.0005275941	-0.0003624727	-0.00796141	-0.005469724	0	0
29.06752	0.06032147	0.2042021	0	0	0.007955685	0.005465791	0	0
29.08404	0.06032147	0.2042021	0	0	0	0	0	0
29.1006	0.06032147	0.2042021	0	0	0	0	0	0
29.11717	0.06032147	0.2042021	0	0	0	0	0	0
29.13374	0.06032147	0.2042021	0	0	0	0	0	0
29.15058	0.06032147	0.2042021	0	0	0	0	0	0
29.16687	0.06032147	0.2042021	0	0	0	0	0	0
29.18344	0.06029525	0.204184	-0.001582557	-0.001087418	-0.0481581	-0.03309073	0	0
29.20001	0.06029525	0.204184	0	0	0.04776168	0.03281834	0	0
29.21663	0.06029525	0.204184	0	0	0	0	0	0
29.25257	0.06026903	0.204166	-0.000729468	-0.0005012371	-0.01387855	-0.009536329	0	0
29.26916	0.06026903	0.204166	0	0	0.0138846	0.009540483	0	0
29.2857	0.06024281	0.204148	-0.00158552	-0.001089299	-0.0478511	-0.03287511	0	0
29.30227	0.06024281	0.204148	0	0	0.04789245	0.03290352	0	0
29.31884	0.06021659	0.20413	-0.001582557	-0.001087418	-0.04776168	-0.03281834	0	0
29.3354	0.06013792	0.2040759	-0.004748122	-0.003262254	-0.09553692	-0.06563669	0	0
29.35197	0.06005926	0.2040579	-0.004748122	-0.001087418	0	0.06563669	0	0
29.36854	0.05987571	0.2040759	-0.01107903	0.001087418	-0.1910671	0.06563668	0	0
29.38525	0.05966594	0.204184	-0.01255364	0.006468654	-0.04431255	0.1617079	0	0
29.40167	0.05935127	0.2043642	-0.01916127	0.01097017	-0.1994301	0.1358637	0	0
29.41827	0.05874811	0.2047425	-0.03633535	0.02278938	-0.5200813	0.3579201	0	0
29.43484	0.05289797	0.2085425	-0.352993	0.2292913	-9.545757	6.225075	0	0
29.45137	0.04898709	0.2111889	-0.2366606	0.1601391	3.514762	-2.089304	0	0
29.46794	0.04236937	0.2156875	-0.3994469	0.2715397	-4.919129	3.366339	0	0
29.4845	0.03262001	0.2223592	-0.5884725	0.4027035	-5.704805	3.958532	0	0
29.50133	0.0248633	0.2276606	-0.4610304	0.3150977	3.816553	-2.623562	0	0
29.51764	0.0135518	0.2353828	-0.6936235	0.4735261	-7.020077	4.781656	0	0
29.5342	0.0045526	0.2415204	-0.5431929	0.3704659	4.575826	-3.134905	0	0
29.55077	0.001578946	0.2435475	-0.1794901	0.1223575	10.97657	-7.487929	0	0
29.56738	-0.01757714	0.2565269	-1.153342	0.7814572	-29.35374	19.86651	0	0
29.58391	-0.02678307	0.2627249	-0.5570177	0.3750162	17.99607	-12.26571	0	0
29.60047	-0.0330406	0.2669149	-0.377749	0.2529415	5.417202	-3.688895	0	0
29.61704	-0.04491714	0.2749335	-0.7168691	0.4840026	-10.23525	6.97384	0	0
29.63361	-0.05347528	0.2806944	-0.5165707	0.3477255	6.045015	-4.112851	0	0
29.65017	-0.06839316	0.2907625	-0.900445	0.607711	-11.58535	7.846378	0	0
29.66674	-0.07742387	0.2968581	-0.5450945	0.367934	10.7245	-7.236484	0	0
29.68331	-0.08672925	0.3030773	-0.5616739	0.3753886	-0.5003652	0.2249786	0	0
29.69987	-0.09614997	0.3093129	-0.5686359	0.3763851	-0.2101154	0.03007624	0	0
29.75431	-0.1286798	0.3297817	-0.5975814	0.3760177	-0.4076653	-0.005174055	0	0
29.77088	-0.1402572	0.3361747	-0.6988158	0.3858832	-1.425778	0.138944	0	0
29.78754	-0.148298	0.341639	-0.4824527	0.3278639	6.510364	-1.745799	0	0
29.80405	-0.158604	0.3487999	-0.6244438	0.4338759	-4.280618	3.195952	0	0
29.82058	-0.1659594	0.3539252	-0.4449988	0.3100821	5.432236	-3.747536	0	0
29.83714	-0.173118	0.3589259	-0.4320953	0.3018417	0.3898767	-0.2489843	0	0
29.85408	-0.1821429	0.3652489	-0.5328407	0.3733196	-3.006922	2.133384	0	0
29.87028	-0.186822	0.3685358	-0.2889217	0.2029557	7.361912	-5.141888	0	0
29.88685	-0.1934704	0.3732167	-0.4012524	0.2825055	-3.428434	2.427931	0	0
29.96968	-0.2201118	0.3921096	-0.3216378	0.2280911	0.8009553	-0.5474307	0	0
29.98671	-0.2257934	0.3961693	-0.3335345	0.2383202	-0.1191282	0.102429	0	0
30.00594	-0.2297144	0.3989776	-0.2039186	0.146056	3.574379	-2.54434	0	0
30.02251	-0.2310613	0.3999437	-0.08130181	0.05831043	3.425508	-2.451322	0	0
30.03907	-0.2327064	0.4010887	-0.09929952	0.06911265	-0.543172	0.3260118	0	0
30.05573	-0.2328808	0.4012139	-0.01047394	0.007520762	2.673989	-1.854151	0	0
30.07224	-0.2329307	0.4012497	-0.003016744	0.002166931	0.2248257	-0.1614117	0	0
30.08877	-0.2331549	0.4014107	-0.01356348	0.009740611	-0.3191278	0.2291677	0	0
30.10534	-0.2338523	0.4019117	-0.0420945	0.03023903	-0.8620107	0.619321	0	0
30.12191	-0.2352713	0.4028958	-0.08564968	0.05940054	-1.314498	0.8800961	0	0
30.13848	-0.235321	0.4028958	-0.003003079	0	2.493849	-1.792402	0	0
30.15504	-0.2353957	0.4028063	-0.004507212	-0.005401457	-0.04539221	-0.1630069	0	0
30.17161	-0.2354455	0.4027705	-0.003004808	-0.002160943	0.04535308	0.09782143	0	0
30.18818	-0.2354455	0.4027705	0	0	0.09069572	0.06522489	0	0
30.20483	-0.2354206	0.4027527	0.001494145	-0.001073637	0.0449743	-0.03231686	0	0
30.22135	-0.2354206	0.4027527	0	0	-0.04504412	0.03236703	0	0
30.25444	-0.2353708	0.4026811	0.001503702	-0.00216281	0.03030806	-0.04359278	0	0
30.27101	-0.2353708	0.4026095	0	-0.004319588	-0.03027779	-0.04342779	0	0
30.28759	-0.2353459	0.4025559	0.001501194	-0.003237904	0.04529569	0.03263778	0	0
30.3044	-0.2353459	0.4024843	0	-0.004257175	-0.04495675	-0.03052444	0	0
30.32071	-0.2352961	0.4024127	0.003051901	-0.004387792	0.09213836	-0.003943407	0	0
30.33728	-0.2351966	0.4022695	0.006009131	-0.008641779	0.08995362	-0.1293986	0	0
30.35394	-0.2351717	0.4022159	0.001493632	-0.003221594	-0.1358947	0.1631214	0	0
30.37045	-0.2347984	0.4018759	0.02260734	-0.02058609	0.6364437	-0.5234288	0	0
30.38698	-0.2338025	0.4010887	0.06025768	-0.04763236	1.139504	-0.8185669	0	0
30.40354	-0.2320834	0.3998542	0.1037736	-0.07452144	1.314978	-0.8125432	0	0
30.42011	-0.2302383	0.3984946	0.1113726	-0.08206453	0.2293538	-0.2276639	0	0
30.43668	-0.2274676	0.3965091	0.1672411	-0.1198462	1.686113	-1.140254	0	0
30.45325	-0.2213896	0.392199	0.3668682	-0.2601582	6.024757	-4.234625	0	0
30.47002	-0.2181311	0.3898745	0.1942227	-0.1385537	-5.177667	3.646939	0	0
30.48654	-0.2148177	0.3875145	0.2006454	-0.1429115	0.1929259	-0.1309008	0	0
30.50305	-0.2121031	0.3855838	0.164362	-0.1169015	-1.098511	0.7874781	0	0
30.51956	-0.2116001	0.3852262	0.03047281	-0.02165656	-4.054321	2.884127	0	0
30.53608	-0.2115498	0.3851905	0.00304526	-0.002164877	-0.8304421	0.5901625	0	0
30.55265	-0.2113737	0.3850653	0.01062953	-0.007553462	0.2292237	-0.1628622	0	0
30.56921	-0.2109711	0.3847793	0.02429826	-0.01726377	0.412523	-0.2930577	0	0
30.58578	-0.2106188	0.3845291	0.02126691	-0.01510687	-0.09149156	0.06509932	0	0
30.60235	-0.2106188	0.3845648	0	0.002158646	-0.6418736	0.5211042	0	0
30.61891	-0.2105937	0.3845827	0.001518248	0.001079323	0.04582081	-0.03257403	0	0
30.63548	-0.2105937	0.3845827	0	0	-0.04582081	-0.03257403	0	0
30.65205	-0.2105685	0.3846006	0.001518972	0.0010774	0.04584004	0.03251413	0	0
30.66861	-0.2105685	0.3846006	0	0	-0.04584531	-0.03251787	0	0
30.68518	-0.2105685	0.3846006	0	0	0	0	0	0
30.76801	-0.2103168	0.3844934	0.003038364	-0.001294498	0.03056659	-0.01302292	0	0
30.78937	-0.2099393	0.3842252	0.01768228	-0.01255722	0.1405541	-0.1081011	0	0
30.80593	-0.2092091	0.3837068	0.04407056	-0.03128957	0.6958935	-0.4939966	0	0
30.8225	-0.2060342	0.3815262	0.1916365	-0.1316216	4.453549	-3.028028	0	0
30.83907	-0.2018703	0.3785774	0.2513384	-0.177993	1.801806	-1.399489	0	0
30.8558	-0.1967123	0.3750035	0.308355	-0.2136545	1.712485	-1.071088	0	0
30.87231	-0.1959275	0.3744496	0.04752657	-0.03354583	-7.846974	5.418535	0	0
30.88882	-0.1960288	0.374521	-0.006133043	0.004328145	-1.624875	1.146868	0	0
30.90534	-0.1960288	0.374521	0	0	0.1856942	-0.1310461	0	0
30.9219	-0.1960288	0.374521	0	0	0	0	0	0
30.93847	-0.1960288	0.374521	0	0	0	0	0	0
30.95504	-0.1960288	0.374521	0	0	0	0	0	0
30.97161	-0.1960288	0.374521	0	0	0	0	0	0
30.98817	-0.1960288	0.374521	0	0	0	0	0	0
31.00474	-0.1960035	0.3745032	0.001528142	-0.001077524	0.04612206	-0.03252162	0	0
31.02131	-0.1960035	0.3745032	0	0	-0.0461194	0.03251974	0	0
31.07101	-0.1959781	0.3744853	0.0005093805	-0.0003597744	0.007686567	-0.005429006	0	0
31.08758	-0.1959781	0.3744853	0	0	-0.007686346	0.00542885	0	0
31.10415	-0.1959781	0.3744853	0	0	0	0	0	0
31.12071	-0.1959528	0.3744675	0.001528493	-0.001077772	0.04613268	-0.03252911	0	0
31.13728	-0.1959275	0.3744496	0.001528142	-0.001079323	-1.06223E-05	-4.680416E-05	0	0
31.15401	-0.1959275	0.3744496	0	0	-0.0458817	0.03240614	0	0
31.17053	-0.1959275	0.3744496	0	0	0	0	0	0
31.18704	-0.1959275	0.3744496	0	0	0	0	0	0
31.20354	-0.1959275	0.3744496	0	0	0	0	0	0
31.22011	-0.1959275	0.3744496	0	0	0	0	0	0
31.23668	-0.1959275	0.3744496	0	0	0	0	0	0
31.25324	-0.1959275	0.3744496	0	0	0	0	0	0
31.26981	-0.1959275	0.3744496	0	0	0	0	0	0
31.28638	-0.1959275	0.3744496	0	0	0	0	0	0
31.30295	-0.1959275	0.3744496	0	0	0	0	0	0
31.31963	-0.1959275	0.3744496	0	0	0	0	0	0
31.33608	-0.1959275	0.3744496	0	0	0	0	0	0
31.35266	-0.1959275	0.3744496	0	0	0	0	0	0
31.36921	-0.1959275	0.3744496	0	0	0	0	0	0
31.38578	-0.1959528	0.3744317	-0.001528317	-0.001079447	-0.0461433	-0.03259092	0	0
31.40269	-0.1959528	0.3744317	0	0	0.04564909	0.03224185	0	0
31.41891	-0.1959528	0.3744317	0	0	0	0	0	0
31.43572	-0.1959528	0.3744317	0	0	0	0	0	0
31.45223	-0.1959528	0.3744317	0	0	0	0	0	0
31.46874	-0.1959528	0.3744317	0	0	0	0	0	0
31.48518	-0.1959528	0.3744317	0	0	0	0	0	0
31.55438	-0.1959528	0.3744317	0	0	0	0	0	0
31.63736	-0.1959528	0.3744317	0	0	0	0	0	0
31.65378	-0.1959528	0.3744317	0	0	0	0	0	0
31.67035	-0.1959528	0.3744317	0	0	0	0	0	0
31.68692	-0.1959528	0.3744317	0	0	0	0	0	0
31.70391	-0.1959528	0.3744317	0	0	0	0	0	0
31.72005	-0.1959781	0.3744496	-0.001568593	0.001107894	-0.04734297	0.03343824	0	0
31.74162	-0.1959781	0.3744496	0	0	0.0415897	-0.02937471	0	0
31.75819	-0.1959781	0.3744496	0	0	0	0	0	0
31.77476	-0.1959781	0.3744496	0	0	0	0	0	0
31.79133	-0.1959781	0.3744496	0	0	0	0	0	0
31.80798	-0.1959781	0.3744496	0	0	0	0	0	0
31.82449	-0.1959781	0.3744496	0	0	0	0	0	0
31.84103	-0.1959781	0.3744496	0	0	0	0	0	0
31.85759	-0.1959781	0.3744496	0	0	0	0	0	0
31.87416	-0.1959781	0.3744496	0	0	0	0	0	0
31.89073	-0.1959781	0.3744496	0	0	0	0	0	0
31.90755	-0.1959781	0.3744496	0	0	0	0	0	0
31.92406	-0.1959781	0.3744496	0	0	0	0	0	0
31.94043	-0.1959781	0.3744496	0	0	0	0	0	0
31.95708	-0.1959781	0.3744496	0	0	0	0	0	0
31.97356	-0.1959781	0.3744496	0	0	0	0	0	0
31.99013	-0.1959781	0.3744496	0	0	0	0	0	0
32.00669	-0.1959781	0.3744496	0	0	0	0	0	0
32.02326	-0.1959781	0.3744496	0	0	0	0	0	0
32.04015	-0.1959781	0.3744496	0	0	0	0	0	0
32.0564	-0.1959781	0.3744496	0	0	0	0	0	0
32.07296	-0.1959781	0.3744496	0	0	0	0	0	0
32.08953	-0.1959781	0.3744496	0	0	0	0	0	0
32.1061	-0.1959781	0.3744496	0	0	0	0	0	0
32.12267	-0.1959781	0.3744496	0	0	0	0	0	0
32.13923	-0.1959781	0.3744496	0	0	0	0	0	0
32.17527	-0.1959781	0.3744496	0	0	0	0	0	0
32.19183	-0.1959781	0.3744496	0	0	0	0	0	0
32.2084	-0.1959781	0.3744496	0	0	0	0	0	0
32.22497	-0.1959781	0.3744496	0	0	0	0	0	0
32.24179	-0.1959781	0.3744496	0	0	0	0	0	0
32.2581	-0.1959781	0.3744496	0	0	0	0	0	0
32.27481	-0.1959781	0.3744496	0	0	0	0	0	0
32.29133	-0.1959781	0.3744496	0	0	0	0	0	0
32.30783	-0.1959781	0.3744496	0	0	0	0	0	0
32.32437	-0.1959781	0.3744496	0	0	0	0	0	0
32.34093	-0.1959781	0.3744496	0	0	0	0	0	0
32.3575	-0.1959781	0.3744496	0	0	0	0	0	0
32.37439	-0.1959781	0.3744496	0	0	0	0	0	0
32.3909	-0.1959781	0.3744496	0	0	0	0	0	0
32.4072	-0.1959781	0.3744496	0	0	0	0	0	0
32.42377	-0.1959781	0.3744496	0	0	0	0	0	0
32.44034	-0.1959781	0.3744496	0	0	0	0	0	0
32.45695	-0.1959781	0.3744496	0	0	0	0	0	0
32.47347	-0.1959781	0.3744496	0	0	0	0	0	0
32.49004	-0.1959781	0.3744496	0	0	0	0	0	0
32.50698	-0.1959781	0.3744496	0	0	0	0	0	0
32.52349	-0.1959781	0.3744496	0	0	0	0	0	0
32.53974	-0.1959781	0.3744496	0	0	0	0	0	0
32.55631	-0.1959781	0.3744496	0	0	0	0	0	0
32.57288	-0.1959781	0.3744496	0	0	0	0	0	0
32.58954	-0.1959781	0.3744496	0	0	0	0	0	0
32.60605	-0.1959781	0.3744496	0	0	0	0	0	0
32.62257	-0.1959781	0.3744496	0	0	0	0	0	0
32.63914	-0.1959781	0.3744496	0	0	0	0	0	0
32.65571	-0.1959781	0.3744496	0	0	0	0	0	0
32.67228	-0.1959781	0.3744496	0	0	0	0	0	0
32.68884	-0.1959781	0.3744496	0	0	0	0	0	0
32.70541	-0.1960035	0.3744675	-0.001528142	0.001079323	-0.0461194	0.03257403	0	0
32.72198	-0.1960035	0.3744675	0	0	0.0461194	-0.03257403	0	0
32.73854	-0.1960035	0.3744675	0	0	0	0	0	0
32.75511	-0.1960035	0.3744675	0	0	0	0	0	0
32.79069	-0.1960035	0.3744675	0	0	0	0	0	0
32.80725	-0.1960035	0.3744675	0	0	0	0	0	0
32.82421	-0.1960035	0.3744675	0	0	0	0	0	0
32.84072	-0.1960035	0.3744675	0	0	0	0	0	0
32.85695	-0.1960035	0.3744675	0	0	0	0	0	0
32.87352	-0.1960035	0.3744675	0	0	0	0	0	0
32.89025	-0.1960035	0.3744675	0	0	0	0	0	0
32.90676	-0.1960035	0.3744675	0	0	0	0	0	0
32.92322	-0.1960035	0.3744675	0	0	0	0	0	0
32.93979	-0.1960035	0.3744675	0	0	0	0	0	0
32.95635	-0.1960035	0.3744675	0	0	0	0	0	0
32.97292	-0.1960035	0.3744675	0	0	0	0	0	0
32.98949	-0.1960035	0.3744675	0	0	0	0	0	0
33.02285	-0.1959781	0.3744853	0.0007587423	0.0005350048	0.01519478	0.01071416	0	0
33.03919	-0.1959781	0.3744853	0	0	-0.01526475	-0.01076349	0	0
33.05588	-0.1959781	0.3744853	0	0	0	0	0	0
33.07239	-0.1959781	0.3744853	0	0	0	0	0	0
33.0889	-0.1959781	0.3744853	0	0	0	0	0	0
33.10545	-0.1959781	0.3744853	0	0	0	0	0	0
33.12202	-0.1960035	0.3744675	-0.001528142	-0.001077524	-0.04613534	-0.03253098	0	0
33.13859	-0.1960035	0.3744675	0	0	0.0461194	0.03251974	0	0
33.15516	-0.1960035	0.3744675	0	0	0	0	0	0
33.17172	-0.1960035	0.3744675	0	0	0	0	0	0
33.18829	-0.1960035	0.3744675	0	0	0	0	0	0
33.20486	-0.1960035	0.3744675	0	0	0	0	0	0
33.22142	-0.1960035	0.3744675	0	0	0	0	0	0
33.23801	-0.1959781	0.3744853	0.001526735	0.001076533	0.04605576	0.03247486	0	0
33.34058	-0.1959781	0.3744853	0	0	-0.01281334	-0.009034947	0	0
33.35709	-0.1959781	0.3744853	0	0	0	0	0	0
33.37362	-0.1959781	0.3744853	0	0	0	0	0	0
33.39018	-0.1959781	0.3744853	0	0	0	0	0	0
33.40675	-0.1959781	0.3744853	0	0	0	0	0	0
33.42332	-0.1959781	0.3744853	0	0	0	0	0	0
33.43988	-0.1959781	0.3744853	0	0	0	0	0	0
33.45645	-0.1959781	0.3744853	0	0	0	0	0	0
33.47302	-0.1959781	0.3744853	0	0	0	0	0	0
33.48969	-0.1959781	0.3744853	0	0	0	0	0	0
33.50615	-0.1959781	0.3744853	0	0	0	0	0	0
33.52272	-0.1959781	0.3744853	0	0	0	0	0	0
33.53929	-0.1959781	0.3744853	0	0	0	0	0	0
33.55772	-0.1959781	0.3744853	0	0	0	0	0	0
33.57429	-0.1959781	0.3744853	0	0	0	0	0	0
33.59126	-0.1960035	0.3744675	-0.001491733	-0.001051852	-0.04447274	-0.03135864	0	0
33.60742	-0.1960035	0.3744675	0	0	0.04502577	0.0317486	0	0
33.62428	-0.1960035	0.3744675	0	0	0	0	0	0
33.64056	-0.1960035	0.3744675	0	0	0	0	0	0
33.65712	-0.1960035	0.3744675	0	0	0	0	0	0
33.67369	-0.1960035	0.3744675	0	0	0	0	0	0
33.69026	-0.1960035	0.3744675	0	0	0	0	0	0
33.70683	-0.1960035	0.3744675	0	0	0	0	0	0
33.72339	-0.1960035	0.3744675	0	0	0	0	0	0
33.74037	-0.1960035	0.3744675	0	0	0	0	0	0
33.75653	-0.1960035	0.3744675	0	0	0	0	0	0
33.77309	-0.1960035	0.3744675	0	0	0	0	0	0
33.78966	-0.1960035	0.3744675	0	0	0	0	0	0
33.80623	-0.1960035	0.3744675	0	0	0	0	0	0
33.8228	-0.1960035	0.3744675	0	0	0	0	0	0
33.83936	-0.1960035	0.3744675	0	0	0	0	0	0
33.85595	-0.1960035	0.3744675	0	0	0	0	0	0
33.87249	-0.1960035	0.3744675	0	0	0	0	0	0
33.88906	-0.1960035	0.3744675	0	0	0	0	0	0
33.90563	-0.1960035	0.3744675	0	0	0	0	0	0
33.9222	-0.1960035	0.3744675	0	0	0	0	0	0
33.93876	-0.1960035	0.3744675	0	0	0	0	0	0
33.95533	-0.1960035	0.3744675	0	0	0	0	0	0
33.97204	-0.1960035	0.3744675	0	0	0	0	0	0
33.98855	-0.1960035	0.3744675	0	0	0	0	0	0
34.00503	-0.1960035	0.3744675	0	0	0	0	0	0
34.0216	-0.1960035	0.3744675	0	0	0	0	0	0
34.03858	-0.1960035	0.3744675	0	0	0	0	0	0
34.05473	-0.1960035	0.3744675	0	0	0	0	0	0
34.0713	-0.1960035	0.3744675	0	0	0	0	0	0
34.08812	-0.1960035	0.3744675	0	0	0	0	0	0
34.10443	-0.1960035	0.3744675	0	0	0	0	0	0
34.121	-0.1960035	0.3744675	0	0	0	0	0	0
34.13757	-0.1960035	0.3744675	0	0	0	0	0	0
34.23723	-0.1960035	0.3744675	0	0	0	0	0	0
34.27327	-0.1960035	0.3744675	0	0	0	0	0	0
34.28951	-0.1960035	0.3744675	0	0	0	0	0	0
34.30608	-0.1960035	0.3744675	0	0	0	0	0	0
34.32264	-0.1960035	0.3744675	0	0	0	0	0	0
34.33921	-0.1960035	0.3744675	0	0	0	0	0	0
34.35578	-0.1960035	0.3744675	0	0	0	0	0	0
34.37234	-0.1960035	0.3744675	0	0	0	0	0	0
34.38891	-0.1960035	0.3744675	0	0	0	0	0	0
34.40548	-0.1960035	0.3744675	0	0	0	0	0	0
34.42205	-0.1960035	0.3744675	0	0	0	0	0	0
34.43861	-0.1960035	0.3744675	0	0	0	0	0	0
34.45518	-0.1960035	0.3744675	0	0	0	0	0	0
34.4719	-0.1960035	0.3744675	0	0	0	0	0	0
34.48832	-0.1960035	0.3744675	0	0	0	0	0	0
34.50492	-0.1960035	0.3744675	0	0	0	0	0	0
34.52145	-0.1960035	0.3744675	0	0	0	0	0	0
34.53801	-0.1960035	0.3744675	0	0	0	0	0	0
34.55458	-0.1960035	0.3744675	0	0	0	0	0	0
34.57147	-0.1960035	0.3744675	0	0	0	0	0	0
34.58798	-0.1960035	0.3744675	0	0	0	0	0	0
34.60428	-0.1960035	0.3744675	0	0	0	0	0	0
34.62085	-0.1960035	0.3744675	0	0	0	0	0	0
34.63741	-0.1960035	0.3744675	0	0	0	0	0	0
34.65398	-0.1960035	0.3744675	0	0	0	0	0	0
34.67055	-0.1960035	0.3744675	0	0	0	0	0	0
34.68711	-0.1960035	0.3744675	0	0	0	0	0	0
34.70368	-0.1960035	0.3744675	0	0	0	0	0	0
34.72025	-0.1960035	0.3744675	0	0	0	0	0	0
34.73682	-0.1960035	0.3744675	0	0	0	0	0	0
34.75338	-0.1960035	0.3744675	0	0	0	0	0	0
34.76995	-0.1960035	0.3744675	0	0	0	0	0	0
34.78652	-0.1960035	0.3744675	0	0	0	0	0	0
34.80309	-0.1960035	0.3744675	0	0	0	0	0	0
34.81965	-0.1960035	0.3744675	0	0	0	0	0	0
34.83622	-0.1960035	0.3744675	0	0	0	0	0	0
34.85279	-0.1960035	0.3744675	0	0	0	0	0	0
34.86935	-0.1960035	0.3744675	0	0	0	0	0	0
34.96876	-0.1960035	0.3744675	0	0	0	0	0	0
34.98532	-0.1960035	0.3744675	0	0	0	0	0	0
35.00531	-0.1960035	0.3744675	0	0	0	0	0	0
35.02188	-0.1960035	0.3744675	0	0	0	0	0	0
35.03845	-0.1960035	0.3744675	0	0	0	0	0	0
35.05502	-0.1960035	0.3744675	0	0	0	0	0	0
35.07158	-0.1960035	0.3744675	0	0	0	0	0	0
35.08815	-0.1960035	0.3744675	0	0	0	0	0	0
35.10486	-0.1960035	0.3744675	0	0	0	0	0	0
35.12137	-0.1960035	0.3744675	0	0	0	0	0	0
35.13785	-0.1960035	0.3744675	0	0	0	0	0	0
35.15442	-0.1960035	0.3744675	0	0	0	0	0	0
35.17099	-0.1960035	0.3744675	0	0	0	0	0	0
35.18792	-0.1960035	0.3744675	0	0	0	0	0	0
35.20412	-0.1960035	0.3744317	0	-0.002207441	0	-0.06662069	0	0
35.22094	-0.1960035	0.3744317	0	0	0	0.06684386	0	0
35.23725	-0.1959781	0.3744138	0.001552449	-0.001094664	0.04685839	-0.03304082	0	0
35.25388	-0.1959781	0.3743781	0	-0.00214893	-0.04713518	-0.03200946	0	0
35.27048	-0.1959781	0.3743424	0	-0.002152882	0	-0.0001189169	0	0
35.28695	-0.1956237	0.373985	0.02151467	-0.02169013	0.6505124	-0.5907236	0	0
35.30352	-0.1930903	0.3721268	0.1529176	-0.1121597	3.976736	-2.737941	0	0
35.32009	-0.1856784	0.3667316	0.4473794	-0.3256587	8.886875	-6.443415	0	0
35.33665	-0.1815065	0.363802	0.2518196	-0.1768273	-5.902008	4.491742	0	0
35.35354	-0.1709467	0.3559433	0.625436	-0.4654598	11.16904	-8.628496	0	0
35.36979	-0.167239	0.3526037	0.2281589	-0.2055073	-11.98985	7.845383	0	0
35.38657	-0.1656266	0.3449783	0.09610725	-0.4545106	-3.998216	-7.539238	0	0
35.40292	-0.1693363	0.3313532	-0.226793	-0.8329623	-9.745149	-11.42169	0	0
35.41949	-0.1737052	0.3196912	-0.2637074	-0.7039183	-1.121179	3.919373	0	0
35.43606	-0.1802333	0.3044353	-0.394033	-0.9208515	-3.933233	-6.547057	0	0
35.45263	-0.1852208	0.2927826	-0.3010502	-0.703357	2.806226	6.563995	0	0
35.46963	-0.1919748	0.2767586	-0.3972403	-0.9424711	-2.865416	-7.12299	0	0
35.48578	-0.1947373	0.2682576	-0.1710382	-0.5263308	6.822865	12.55191	0	0
35.50233	-0.2002027	0.2515627	-0.3302726	-1.008866	-4.869616	-14.75662	0	0
35.51916	-0.204647	0.2394032	-0.2640078	-0.7223101	1.985021	8.584039	0	0
35.53546	-0.2125055	0.2242825	-0.482107	-0.9276407	-6.582245	-6.196888	0	0
35.55203	-0.2203624	0.2142662	-0.4742455	-0.6045819	0.2391853	9.829146	0	0
35.5686	-0.2289907	0.205427	-0.5205624	-0.5332908	-1.397524	2.151074	0	0
35.58516	-0.2427731	0.1946842	-0.8322931	-0.6487362	-9.408051	-3.48415	0	0
35.60173	-0.2533325	0.186978	-0.6373655	-0.4651478	5.884283	5.541987	0	0
35.6183	-0.2634911	0.1794441	-0.6131724	-0.4547476	0.7301477	0.3138779	0	0
35.70373	-0.3138987	0.1408026	-0.5900182	-0.4522958	0.2269999	0.02403675	0	0
35.72031	-0.3182966	0.1374358	-0.2652763	-0.2030801	3.18335	2.442989	0	0
35.73684	-0.3246688	0.132573	-0.3854245	-0.2941287	-3.628587	-2.749753	0	0
35.7534	-0.327479	0.1304043	-0.1697828	-0.1310273	6.517834	4.929789	0	0
35.76996	-0.3300955	0.1283805	-0.1579319	-0.1221551	0.3578241	0.2678868	0	0
35.78653	-0.3312726	0.1274686	-0.07104824	-0.05504098	2.622155	2.025508	0	0
35.80338	-0.3312961	0.1274869	-0.001396984	0.00108222	2.084084	1.679301	0	0
35.81966	-0.3312726	0.1274686	0.001446081	-0.001120255	0.08580387	-0.06647085	0	0
35.8364	-0.3312726	0.1274686	0	0	-0.0438042	0.03393439	0	0
35.8528	-0.3312961	0.1274504	-0.00143532	-0.001111919	-0.04331804	-0.03355777	0	0
35.86937	-0.3312726	0.1274322	0.001421109	-0.00110091	0.08663607	0.0003339067	0	0
35.9025	-0.3312961	0.1274139	-0.0007105544	-0.0005504548	-0.04288914	0.01107517	0	0
35.91946	-0.3313432	0.1274139	-0.002775239	0	-0.04121885	0.01098914	0	0
35.93563	-0.3313432	0.1274139	0	0	0.08376653	0	0	0
35.9522	-0.3313432	0.1274139	0	0	0	0	0	0
35.96899	-0.3313667	0.1274322	-0.001400287	0.001086154	-0.04197562	0.03255903	0	0
35.98533	-0.3313667	0.1274322	0	0	0.04226074	-0.03278019	0	0
36.00206	-0.3313902	0.1274139	-0.001407818	-0.001090614	-0.04257627	-0.03298313	0	0
36.01846	-0.3314138	0.1273957	-0.001434986	-0.00111166	-0.0008200216	-0.0006352576	0	0
36.03554	-0.3314373	0.127341	-0.001377136	-0.003204591	0.001727802	-0.06250989	0	0
36.0516	-0.3315079	0.1272862	-0.004396155	-0.003407066	-0.09111416	-0.006110718	0	0
36.06816	-0.3315785	0.1272315	-0.004259728	-0.003302729	0.00418139	0.003197891	0	0
36.08473	-0.3319078	0.1269762	-0.01987933	-0.01541363	-0.4714006	-0.3655078	0	0
36.1013	-0.3385959	0.1217384	-0.4036956	-0.3161526	-11.5836	-9.07632	0	0
36.1181	-0.3447166	0.1169156	-0.3643297	-0.2870748	1.179781	0.8714505	0	0
36.13443	-0.3487668	0.1136977	-0.2479493	-0.196996	3.512368	2.718581	0	0
36.151	-0.3604308	0.1043978	-0.7040406	-0.5613447	-13.86222	-11.07383	0	0
36.16763	-0.3649164	0.1007497	-0.2696997	-0.21934	13.08283	10.30156	0	0
36.18414	-0.3712849	0.09557512	-0.3857332	-0.3134215	-3.501091	-2.838733	0	0
36.2007	-0.3809147	0.08761816	-0.581655	-0.480615	-5.925212	-5.056388	0	0
36.21767	-0.3850805	0.08404849	-0.2455176	-0.2103794	10.0269	8.061065	0	0
36.23383	-0.3893	0.08049431	-0.2610559	-0.2198978	-0.4689992	-0.2872989	0	0
36.2504	-0.3936395	0.07660527	-0.2619373	-0.2347429	-0.02693036	-0.4535598	0	0
36.26696	-0.3970686	0.07241732	-0.20698	-0.2527851	1.658616	-0.5445162	0	0
36.28353	-0.3960163	0.06903806	0.06351996	-0.2039723	8.163705	1.473175	0	0
36.30022	-0.389345	0.06354777	0.3997321	-0.328971	10.10966	-3.758621	0	0
36.31666	-0.3857132	0.06056844	0.2208925	-0.1812097	-5.398011	4.459959	0	0
36.33323	-0.3765983	0.0531196	0.5501795	-0.4496125	9.975801	-8.131306	0	0
36.3498	-0.3734768	0.05057783	0.1884138	-0.1534215	-10.91811	8.939061	0	0
36.3703	-0.3672109	0.04548927	0.3055959	-0.2481742	3.160999	-2.555964	0	0
36.38687	-0.3642274	0.04307261	0.180085	-0.1458696	-3.385669	2.759677	0	0
36.40343	-0.3616284	0.04097073	0.1568706	-0.1268699	-0.7006133	0.5734115	0	0
36.42	-0.3611219	0.04056138	0.03057722	-0.02470863	-3.811542	3.083234	0	0
36.43657	-0.3611449	0.04057999	-0.001390528	0.001123171	-0.9647886	0.7796053	0	0
36.45314	-0.3611449	0.04057999	0	0	0.04196621	-0.03389736	0	0
36.4697	-0.3611449	0.04057999	0	0	0	0	0	0
36.48627	-0.3611449	0.04057999	0	0	0	0	0	0
36.50284	-0.3611449	0.04057999	0	0	0	0	0	0
36.51941	-0.3611449	0.04057999	0	0	0	0	0	0
36.53597	-0.3611219	0.04059859	0.001390528	0.001123171	0.04196621	0.03389736	0	0
36.55254	-0.3611219	0.04059859	0	0	-0.04196621	-0.03389736	0	0
36.56911	-0.3611219	0.04059859	0	0	0	0	0	0
36.58567	-0.3611219	0.04059859	0	0	0	0	0	0
36.60244	-0.3611219	0.04059859	0	0	0	0	0	0
36.6188	-0.3611219	0.04059859	0	0	0	0	0	0
36.63537	-0.3611219	0.04059859	0	0	0	0	0	0
36.65194	-0.3611219	0.04059859	0	0	0	0	0	0
36.66851	-0.3611219	0.04059859	0	0	0	0	0	0
36.68507	-0.3611219	0.04059859	0	0	0	0	0	0
36.70164	-0.3611219	0.04059859	0	0	0	0	0	0
36.71821	-0.3611219	0.04059859	0	0	0	0	0	0
36.78458	-0.3611219	0.04059859	0	0	0	0	0	0
36.83417	-0.3611219	0.04059859	0	0	0	0	0	0
36.85075	-0.3611219	0.04059859	0	0	0	0	0	0
36.8673	-0.3611219	0.04059859	0	0	0	0	0	0
36.88387	-0.3611219	0.04059859	0	0	0	0	0	0
36.90044	-0.3611219	0.04059859	0	0	0	0	0	0
36.917	-0.3611219	0.04059859	0	0	0	0	0	0
36.93358	-0.3611219	0.04059859	0	0	0	0	0	0
36.95014	-0.3611219	0.04059859	0	0	0	0	0	0
36.96671	-0.3611219	0.04059859	0	0	0	0	0	0
36.98371	-0.3611219	0.04059859	0	0	0	0	0	0
36.99984	-0.3611219	0.04059859	0	0	0	0	0	0
37.02209	-0.3611219	0.04059859	0	0	0	0	0	0
37.03866	-0.3611219	0.04059859	0	0	0	0	0	0
37.05523	-0.3611219	0.04059859	0	0	0	0	0	0
37.07179	-0.3611219	0.04059859	0	0	0	0	0	0
37.10493	-0.3611219	0.04059859	0	0	0	0	0	0
37.12149	-0.3611219	0.04059859	0	0	0	0	0	0
37.13806	-0.3611219	0.04059859	0	0	0	0	0	0
37.15463	-0.3611449	0.0406172	-0.001390528	0.001123171	-0.04196621	0.03389736	0	0
37.17134	-0.3611449	0.0406172	0	0	0.04177863	-0.03374584	0	0
37.18776	-0.3611449	0.0406172	0	0	0	0	0	0
37.20433	-0.3611449	0.0406172	0	0	0	0	0	0
37.2209	-0.3611679	0.04063581	-0.001390528	0.001123171	-0.04196621	0.03389736	0	0
37.23746	-0.3611679	0.04067302	0	0.002246116	0.04196621	0.03389057	0	0
37.25403	-0.3611449	0.04072884	0.001390528	0.003369512	0.04196621	0.03390414	0	0
37.2706	-0.3611679	0.0408963	-0.001390528	0.01010786	-0.08393242	0.2033638	0	0
37.28717	-0.3611679	0.04104515	0	0.008984465	0.04196621	-0.03390412	0	0
37.30373	-0.3611219	0.0412312	0.002781056	0.01123013	0.08393242	0.06777435	0	0
37.3203	-0.3615133	0.04214272	-0.02362998	0.05501939	-0.7970867	1.321563	0	0
37.33697	-0.3614443	0.04223572	0.00414497	0.005579974	0.835748	-1.487632	0	0
37.35348	-0.3613061	0.04242171	0.008368473	0.01126544	0.1273043	0.1713708	0	0
37.37	-0.3611679	0.04275648	0.008362676	0.02026249	-0.0001754858	0.272378	0	0
37.38657	-0.3608916	0.0441696	0.01668274	0.08529598	0.2514473	1.96543	0	0
37.40316	-0.3607994	0.0465484	0.005554438	0.1433865	-0.3356209	1.751965	0	0
37.42002	-0.3622499	0.04938987	-0.08598697	0.1684475	-2.735952	0.749014	0	0
37.43627	-0.362917	0.05378724	-0.04107342	0.2707243	1.356431	3.088853	0	0
37.45284	-0.3619277	0.05973531	0.05971714	0.3590263	3.071927	2.691294	0	0
37.4694	-0.360039	0.06883485	0.1140017	0.5492493	1.638311	5.740942	0	0
37.48597	-0.3566002	0.07505603	0.2075664	0.3755113	2.823789	-5.243423	0	0
37.50259	-0.3534306	0.08156271	0.190748	0.391572	-0.506821	0.483987	0	0
37.5191	-0.349371	0.08772851	0.2457744	0.3732855	1.660699	-0.5518867	0	0
37.53567	-0.3411689	0.09449174	0.4951887	0.4083237	7.539491	1.059161	0	0
37.55223	-0.3369327	0.09785119	0.2557006	0.2027765	-7.228597	-6.204142	0	0
37.6682	-0.2749111	0.1460034	0.5348219	0.4152245	2.106035	1.60297	0	0
37.68477	-0.2614048	0.1563182	0.8152433	0.6225994	2.115844	1.564692	0	0
37.70134	-0.2542448	0.1618857	0.4321771	0.3360544	-11.56096	-8.647945	0	0
37.71824	-0.2419299	0.175683	0.7285663	0.8162678	8.855328	14.34751	0	0
37.73447	-0.2337029	0.1928982	0.5068559	1.060603	-6.691233	7.374061	0	0
37.75104	-0.2300886	0.2014993	0.2181555	0.5191634	-8.802174	-16.50794	0	0
37.76778	-0.2220657	0.2179	0.4791862	0.9795725	7.836423	13.82198	0	0
37.78417	-0.2143404	0.2288643	0.4712972	0.6688887	-0.2380915	-9.376455	0	0
37.8008	-0.1992673	0.2407489	0.9064705	0.7147263	13.17907	1.388175	0	0
37.83752	-0.1832116	0.2521005	0.4372886	0.3091676	-8.795282	-7.602602	0	0
37.85408	-0.1579624	0.2697971	1.524047	1.068172	20.39571	14.24459	0	0
37.87065	-0.1455167	0.2784583	0.7512214	0.5227881	-23.32393	-16.45971	0	0
37.88736	-0.1337235	0.2866679	0.7058282	0.4913492	-1.364159	-0.9448047	0	0
37.90378	-0.1188322	0.2969474	0.9067736	0.6259509	6.065242	4.062757	0	0
37.92039	-0.1091955	0.3036133	0.5803375	0.4014293	-9.883722	-6.797989	0	0
37.93691	-0.09740134	0.3117425	0.7137044	0.4919242	4.025486	2.731455	0	0
37.95348	-0.08999311	0.3168513	0.4471613	0.308368	-8.054487	-5.546762	0	0
37.97005	-0.08074512	0.323424	0.5582101	0.3967286	3.351461	2.666728	0	0
