Time	Pos X	Pos Y	Vel X	Vel Y	Acc X	Acc YForce X	Force Y
0.01623238	-0.1495333	0.2854698	0.002478949	-0.004732491	-4.11073E-05	7.847678E-05	0	0
0.04238695	-0.1495848	0.2855771	-0.001967863	0.004103228	7.37508E-05	-0.0001465412	0	0
0.08071067	-0.1497649	0.2876335	-0.004699709	0.05365919	-0.04236846	0.7685682	0	0
0.09728017	-0.1504081	0.2905837	-0.03881704	0.1780478	-0.6215218	2.26601	0	0
0.1138457	-0.1507425	0.2963934	-0.02018718	0.3507111	0.5622404	5.210898	0	0
0.1304113	-0.1509482	0.3001823	-0.01242157	0.2287228	0.2343903	-3.681988	0	0
0.1469812	-0.1522083	0.3054537	-0.07604586	0.3181332	-1.920128	2.698331	0	0
0.1635475	-0.1558058	0.3135646	-0.217158	0.4895984	-4.258546	5.174552	0	0
0.1801154	-0.1573464	0.3147078	-0.09298433	0.06900366	3.747593	-12.69365	0	0
0.1966999	-0.1647048	0.3198341	-0.4436942	0.3091017	-10.57871	7.242248	0	0
0.2132445	-0.16816	0.3226025	-0.2088371	0.1673255	7.089142	-4.279503	0	0
0.2298093	-0.1702311	0.3276209	-0.1250322	0.3029554	2.531155	4.096421	0	0
0.3292306	-0.1645512	0.3402283	0.05712964	0.1268083	1.570549	-1.518692	0	0
0.3457749	-0.1645512	0.3402283	0	0	-0.4926432	-1.0935	0	0
0.3623432	-0.1645512	0.3402283	0	0	0	0	0	0
0.3789103	-0.1645512	0.3402283	0	0	0	0	0	0
0.3954759	-0.1645512	0.3402283	0	0	0	0	0	0
0.4120438	-0.1645	0.3401926	0.003092133	-0.002154959	0.09332351	-0.06503873	0	0
0.4286109	-0.1644231	0.340139	0.004637517	-0.003234389	0.04663894	-0.03257667	0	0
0.4451773	-0.1643719	0.3400676	0.003091528	-0.004312128	-0.04665942	-0.03252721	0	0
0.4618265	-0.1642951	0.340014	0.004614647	-0.003216648	0.04585555	0.0329809	0	0
0.4783344	-0.1642695	0.3399962	0.001551685	-0.001081395	-0.09237705	0.06439793	0	0
0.4948747	-0.1642695	0.3399962	0	0	-0.04695216	0.03272175	0	0
0.5114418	-0.1642695	0.3399962	0	0	0	0	0	0
0.5283686	-0.1642438	0.3399783	0.00151329	-0.001056398	0.04518108	-0.03154002	0	0
0.5445745	-0.1642438	0.3399783	0	0	-0.04567363	0.03188386	0	0
0.5611416	-0.1642438	0.3399783	0	0	0	0	0	0
0.5777075	-0.1642438	0.3399783	0	0	0	0	0	0
0.5942746	-0.1642438	0.3399783	0	0	0	0	0	0
0.6108429	-0.1642438	0.3399783	0	0	0	0	0	0
0.6274377	-0.1642438	0.3399783	0	0	0	0	0	0
0.643976	-0.1642438	0.3399783	0	0	0	0	0	0
0.6605412	-0.1642438	0.3399783	0	0	0	0	0	0
0.6771075	-0.1642438	0.3399783	0	0	0	0	0	0
0.6936743	-0.1642438	0.3399783	0	0	0	0	0	0
0.710241	-0.1642438	0.3399783	0	0	0	0	0	0
0.7268081	-0.1642438	0.3399783	0	0	0	0	0	0
0.7435213	-0.1642438	0.3399783	0	0	0	0	0	0
0.7775438	-0.1642438	0.3399783	0	0	0	0	0	0
0.7940564	-0.1642438	0.3399783	0	0	0	0	0	0
0.810588	-0.1642438	0.3399783	0	0	0	0	0	0
0.8271551	-0.1642182	0.3399605	0.001546141	-0.001077532	0.04671306	-0.03255512	0	0
0.8437214	-0.1642182	0.3399605	0	0	-0.04666407	0.03252097	0	0
0.8606024	-0.1641926	0.3399426	0.001517398	-0.0010575	0.04536689	-0.03161695	0	0
0.8771147	-0.1641414	0.3399069	0.00310165	-0.002162221	0.04744233	-0.03308218	0	0
0.8934212	-0.1640902	0.3398712	0.003141688	-0.002191323	0.001219991	-0.0008867596	0	0
0.9101376	-0.1640389	0.3398355	0.003064674	-0.002135823	-0.00233216	0.001680666	0	0
0.9266522	-0.1640133	0.3398176	0.001551058	-0.001080958	-0.04554836	0.03174342	0	0
0.9431621	-0.1640133	0.3398176	0	0	-0.04696689	0.03273202	0	0
0.9596882	-0.1640133	0.3398176	0	0	0	0	0	0
0.9762545	-0.1640133	0.3398176	0	0	0	0	0	0
0.9928213	-0.1640133	0.3398176	0	0	0	0	0	0
1.009388	-0.1640133	0.3398176	0	0	0	0	0	0
1.025955	-0.1640133	0.3398176	0	0	0	0	0	0
1.042522	-0.1640133	0.3398176	0	0	0	0	0	0
1.059088	-0.1640133	0.3398176	0	0	0	0	0	0
1.075655	-0.1640133	0.3398176	0	0	0	0	0	0
1.092222	-0.1640133	0.3398176	0	0	0	0	0	0
1.158489	-0.1638853	0.3396569	0.001932718	-0.002425399	0.02333239	-0.02928019	0	0
1.175055	-0.1644231	0.3391747	-0.03246767	-0.02910361	-0.4152961	-0.3220707	0	0
1.241487	-0.1656266	0.3382998	-0.01811584	-0.0131714	0.1729181	0.1919592	0	0
1.258054	-0.1656522	0.3382105	-0.001545242	-0.005389458	0.199649	0.09375989	0	0
1.27462	-0.165601	0.3381748	0.003090617	-0.002155157	0.1399145	0.09761423	0	0
1.291187	-0.165601	0.338139	0	-0.002156909	-0.09327871	-5.289314E-05	0	0
1.307756	-0.165601	0.3381033	0	-0.002154862	0	6.177822E-05	0	0
1.324321	-0.1656266	0.3381212	-0.001545387	0.001077633	-0.04664019	0.09755759	0	0
1.340887	-0.1656522	0.338139	-0.001545387	0.001077633	0	0	0	0
1.357454	-0.1656522	0.338139	0	0	0.04664237	-0.03252478	0	0
1.374021	-0.1656522	0.338139	0	0	0	0	0	0
1.390587	-0.1656778	0.3380855	-0.001545309	-0.003232735	-0.04663935	-0.09756801	0	0
1.407155	-0.165729	0.3380497	-0.003090417	-0.002156816	-0.04663231	0.03247189	0	0
1.424001	-0.165985	0.3378355	-0.01519556	-0.01271972	-0.3622812	-0.3161254	0	0
1.440287	-0.1662409	0.3376569	-0.01571684	-0.01096464	-0.01573319	0.05297131	0	0
1.473423	-0.1666504	0.3373712	-0.01235789	-0.008622644	0.06796469	0.04738781	0	0
1.489987	-0.1667272	0.3373176	-0.004635593	-0.003233131	0.155379	0.1084414	0	0
1.506555	-0.1668296	0.3372462	-0.006177825	-0.004311617	-0.04654715	-0.03255052	0	0
1.52312	-0.1671366	0.3370319	-0.01853748	-0.01293584	-0.3730311	-0.2602909	0	0
1.540084	-0.1678274	0.336514	-0.04072119	-0.03052881	-0.6616433	-0.5247214	0	0
1.556595	-0.1685436	0.336014	-0.04337565	-0.03028164	-0.07929707	0.007383659	0	0
1.572821	-0.1684669	0.3359604	0.004728677	-0.003302452	1.469412	0.8241159	0	0
1.589388	-0.1684413	0.3359069	0.001543443	-0.003232596	-0.09713209	0.002130222	0	0
1.60613	-0.1682623	0.3357819	0.01069369	-0.007467336	0.2747041	-0.1271333	0	0
1.622641	-0.1679553	0.3354247	0.01859089	-0.02163146	0.2374878	-0.4259492	0	0
1.639103	-0.167853	0.335139	0.006215695	-0.01735543	-0.3753096	0.1296816	0	0
1.655654	-0.166113	0.333639	0.1051348	-0.09063211	2.99636	-2.219624	0	0
1.67222	-0.1627323	0.3309246	0.2040644	-0.1638477	2.98728	-2.21082	0	0
1.688787	-0.1560883	0.323549	0.4010457	-0.4452048	5.945143	-8.491711	0	0
1.705354	-0.1554976	0.3171728	0.03565479	-0.3848714	-11.02772	1.820898	0	0
1.721921	-0.156987	0.3013439	-0.08990224	-0.9554829	-3.789428	-17.22158	0	0
1.738487	-0.1583473	0.2879911	-0.08211366	-0.8059987	0.2350692	4.511621	0	0
1.771621	-0.1594506	0.2744504	-0.03329717	-0.4086722	0.982218	7.994454	0	0
1.788187	-0.1623992	0.2428659	-0.1779875	-1.906539	-2.911281	-30.13823	0	0
1.804754	-0.163834	0.2253068	-0.08660828	-1.059899	2.757941	25.55268	0	0
1.821321	-0.1647817	0.2167309	-0.05720127	-0.51766	0.8875307	16.36527	0	0
1.837888	-0.1665737	0.1998772	-0.1081637	-1.017274	-1.53806	-15.0785	0	0
1.854806	-0.1687738	0.1842147	-0.130046	-0.9257869	-0.6534855	2.732146	0	0
1.871021	-0.1692852	0.1804201	-0.03154086	-0.2340205	2.973052	20.87868	0	0
1.887588	-0.1726072	0.1626469	-0.2005242	-1.072823	-5.15486	-25.58779	0	0
1.904154	-0.176002	0.1496375	-0.2049171	-0.7852911	-0.132583	8.678078	0	0
1.920721	-0.1791633	0.1402932	-0.1908235	-0.5640399	0.4253623	6.67764	0	0
1.937365	-0.181481	0.1303678	-0.1392541	-0.5963423	1.552804	-0.972657	0	0
1.953875	-0.1832625	0.1202592	-0.1079001	-0.6122484	0.9456943	-0.4797551	0	0
1.970421	-0.1850937	0.11013	-0.1106741	-0.6121898	-0.08391852	0.001770658	0	0
1.986988	-0.1873301	0.09730063	-0.1349939	-0.7744042	-0.7344594	-4.898881	0	0
2.003555	-0.1885492	0.09127681	-0.07358497	-0.3636092	1.853379	12.39817	0	0
2.020422	-0.1893616	0.07820924	-0.04816234	-0.7747018	0.7603681	-12.29541	0	0
2.036934	-0.1908588	0.07217735	-0.09067617	-0.3653155	-1.273658	12.26467	0	0
2.053255	-0.1916197	0.06752297	-0.04662437	-0.2851828	1.341728	2.440678	0	0
2.069958	-0.1936985	0.06323329	-0.1244531	-0.2568152	-2.356728	0.8589979	0	0
2.086469	-0.1945853	0.0619566	-0.05370783	-0.07732358	2.129963	5.404042	0	0
2.120101	-0.1993179	0.0584575	-0.1407177	-0.1040405	-1.735235	-0.5328146	0	0
2.136676	-0.1993432	0.05847603	-0.001524697	0.001117452	2.772362	2.094472	0	0
2.153518	-0.1993179	0.0584575	0.001500609	-0.001099798	0.09053262	-0.06635144	0	0
2.169801	-0.1993432	0.05847603	-0.001551999	0.001137462	-0.09215376	0.06753957	0	0
2.186368	-0.1993432	0.05847603	0	0	0.04724499	-0.0346259	0	0
2.202935	-0.1993432	0.05847603	0	0	0	0	0	0
2.219501	-0.1993432	0.05847603	0	0	0	0	0	0
2.236068	-0.1993179	0.05849455	0.001525531	0.001118063	0.04604327	0.03374515	0	0
2.252634	-0.1993179	0.05849455	0	0	-0.04604261	-0.03374467	0	0
2.269202	-0.1993179	0.05849455	0	0	0	0	0	0
2.285768	-0.1993179	0.05849455	0	0	0	0	0	0
2.302334	-0.1993179	0.05849455	0	0	0	0	0	0
2.319136	-0.1993179	0.05849455	0	0	0	0	0	0
2.335467	-0.1993179	0.05849455	0	0	0	0	0	0
2.352035	-0.1993179	0.05849455	0	0	0	0	0	0
2.385181	-0.1993179	0.05849455	0	0	0	0	0	0
2.401735	-0.1993179	0.05849455	0	0	0	0	0	0
2.418705	-0.1993179	0.05849455	0	0	0	0	0	0
2.434868	-0.1992673	0.05853159	0.003129056	0.002291937	0.09443783	0.06917279	0	0
2.451728	-0.199242	0.05855011	0.00149988	0.001098395	-0.04933549	-0.03614342	0	0
2.468001	-0.1992168	0.05860568	0.00155387	0.003414485	0.001629485	0.06990226	0	0
2.48457	-0.1992168	0.05860568	0	0	-0.04731293	-0.1039658	0	0
2.501263	-0.1992168	0.05860568	0	0	0	0	0	0
2.517701	-0.1992168	0.05860568	0	0	0	0	0	0
2.53429	-0.1992168	0.05860568	0	0	0	0	0	0
2.551298	-0.1992168	0.05860568	0	0	0	0	0	0
2.567401	-0.1992168	0.05860568	0	0	0	0	0	0
2.583968	-0.1991915	0.0586242	0.001526387	0.001117806	0.04672201	0.03421554	0	0
2.600534	-0.1991915	0.0586242	0	0	-0.04606843	-0.03373691	0	0
2.617345	-0.1991915	0.0586242	0	0	0	0	0	0
2.666891	-0.1989133	0.05971679	0.005613902	0.02205222	0.08460224	0.3323299	0	0
2.683391	-0.1991409	0.0603648	-0.01379246	0.03927167	-0.2938289	0.2607172	0	0
2.699934	-0.2020723	0.06354777	-0.1772033	0.1924094	-4.945342	4.634445	0	0
2.716915	-0.2068662	0.06787407	-0.2823048	0.2547715	-3.13513	1.860232	0	0
2.733068	-0.2127066	0.07654995	-0.3615801	0.5371186	-2.392585	8.521438	0	0
2.749938	-0.2149433	0.08559448	-0.1325785	0.5361226	6.934632	-0.03016071	0	0
2.766201	-0.215772	0.1003095	-0.05096136	0.9048316	2.463318	11.12814	0	0
2.782961	-0.2156716	0.1117038	0.005993406	0.679852	1.724719	-6.812889	0	0
2.799472	-0.2150438	0.1269944	0.03802488	0.9260625	0.9627355	7.400083	0	0
2.8159	-0.2152196	0.1308782	-0.01070223	0.2364097	-1.479283	-20.93684	0	0
2.852326	-0.2147926	0.1687881	0.01172274	1.040749	0.4242829	15.21819	0	0
2.869022	-0.2145665	0.1824803	0.01354171	0.8200781	0.03424155	-4.15406	0	0
2.885534	-0.2141645	0.1964156	0.02434591	0.8439409	0.3253458	0.7185755	0	0
2.902046	-0.2140891	0.2108109	0.00456452	0.8717991	-0.5989949	0.8435664	0	0
2.918593	-0.2132849	0.2307682	0.04860521	1.206138	1.332199	10.11351	0	0
2.93557	-0.2128826	0.246202	0.02369216	0.9091198	-0.7431611	-8.860111	0	0
2.951726	-0.2121786	0.2664852	0.04357735	1.255411	0.6001578	10.45147	0	0
2.968293	-0.2119019	0.277027	0.01669941	0.6363188	-0.8213669	-18.91893	0	0
2.985103	-0.2113485	0.2934798	0.03292049	0.9787397	0.4859968	10.25921	0	0
3.001426	-0.2111724	0.3217631	0.01078943	1.732717	-0.6679408	22.7559	0	0
3.017993	-0.2111976	0.3377105	-0.001519191	0.9626148	-0.3742377	-23.4146	0	0
3.034639	-0.2114995	0.3524608	-0.0181358	0.8861362	-0.5003132	-2.302709	0	0
3.051126	-0.2117007	0.3654276	-0.01220572	0.7864662	0.1789779	-3.008176	0	0
3.067693	-0.2117258	0.3801679	-0.001518291	0.8897566	0.3233314	3.124886	0	0
3.084261	-0.21243	0.3894632	-0.04250371	0.5610421	-1.236933	-9.920551	0	0
3.100826	-0.2130335	0.4004088	-0.03642632	0.6607418	0.1834211	3.009031	0	0
3.117393	-0.2133351	0.4049895	-0.0182087	0.2765	0.5498445	-11.59719	0	0
3.134709	-0.214265	0.4141015	-0.05369916	0.5262226	-1.047453	7.37023	0	0
3.150722	-0.2149684	0.414782	-0.04392727	0.04249609	0.2931927	-14.51358	0	0
3.167093	-0.2157469	0.4153372	-0.04755607	0.03391284	-0.112054	-0.2650429	0	0
3.183659	-0.2158474	0.4154088	-0.006062634	0.004324799	1.25978	-0.8983209	0	0
3.200227	-0.2158725	0.4153909	-0.001515549	-0.001081122	0.1372362	-0.1631569	0	0
3.216793	-0.2158725	0.4153909	0	0	0.04574003	0.0326288	0	0
3.23336	-0.2158976	0.415373	-0.001515637	-0.001081184	-0.04574398	-0.03263161	0	0
3.266493	-0.2159478	0.4153014	-0.001515593	-0.002161407	8.783891E-07	-0.02173495	0	0
3.283314	-0.2161738	0.4151044	-0.01343247	-0.01171299	-0.238555	-0.191206	0	0
3.299627	-0.2162491	0.4149432	-0.004617619	-0.009880152	0.2660403	0.05531681	0	0
3.316196	-0.2163244	0.4148895	-0.004545226	-0.003242992	0.002201634	0.2018494	0	0
3.33276	-0.2163244	0.4148895	0	0	0.1371811	0.09787793	0	0
3.349362	-0.2164248	0.4148178	-0.006047606	-0.004315359	-0.1823426	-0.1301133	0	0
3.365894	-0.2164499	0.4147641	-0.001518784	-0.003248486	0.1366811	0.03219852	0	0
3.38246	-0.2165252	0.4147104	-0.004545176	-0.003243599	-0.09143736	0.0001476419	0	0
3.399396	-0.2165252	0.4146746	0	-0.002115095	0.1356665	0.03368409	0	0
3.415594	-0.2166005	0.4146208	-0.00464946	-0.003317363	-0.140322	-0.03628477	0	0
3.43242	-0.2166256	0.4146029	-0.001491385	-0.001064516	0.09563156	0.06821981	0	0
3.466135	-0.216726	0.4145313	-0.002978022	-0.002124127	-0.02941465	-0.02096552	0	0
3.482957	-0.2168013	0.4144418	-0.004476055	-0.005323785	-0.02964238	-0.06331334	0	0
3.499476	-0.2168515	0.4144059	-0.003038902	-0.002168454	0.04310382	0.09463634	0	0
3.515836	-0.2168766	0.414388	-0.001533921	-0.001094877	0.0457735	0.03265247	0	0
3.532491	-0.2168766	0.414388	0	0	0.04646233	0.03316373	0	0
3.549003	-0.2169017	0.4143701	-0.001519658	-0.001082892	-0.04581722	-0.03264885	0	0
3.565536	-0.2169017	0.4143701	0	0	0.04598746	0.03277016	0	0
3.582102	-0.2168766	0.4143522	0.001514759	-0.0010812	0.04576524	-0.03266617	0	0
3.598669	-0.2169017	0.4143343	-0.00151465	-0.001081122	-0.09143104	2.34705E-06	0	0
3.615551	-0.2169268	0.4142806	-0.001486456	-0.003182993	0.0008429076	-0.06283866	0	0
3.631803	-0.216977	0.414209	-0.003088967	-0.004406522	-0.04836527	-0.03692726	0	0
3.648369	-0.216977	0.4141732	0	-0.002162368	0.09412325	0.06838115	0	0
3.665085	-0.216977	0.4141732	0	0	0	0.06497056	0	0
3.681502	-0.216977	0.4141732	0	0	0	0	0	0
3.747769	-0.2170272	0.4141373	-0.0007573523	-0.0005405804	-0.009159595	-0.006537905	0	0
3.764336	-0.2170272	0.4141373	0	0	0.009143091	0.006526125	0	0
3.781167	-0.2170523	0.4141194	-0.00149092	-0.001064184	-0.04464143	-0.03186401	0	0
3.797471	-0.2170523	0.4141194	0	0	0.04499508	0.03211644	0	0
3.814036	-0.2170523	0.4141194	0	0	0	0	0	0
3.830604	-0.2170523	0.4141194	0	0	0	0	0	0
3.847171	-0.2170523	0.4141194	0	0	0	0	0	0
3.863736	-0.2170523	0.4141194	0	0	0	0	0	0
3.880738	-0.2170523	0.4141194	0	0	0	0	0	0
3.89687	-0.2170523	0.4141194	0	0	0	0	0	0
3.913437	-0.2170523	0.4141194	0	0	0	0	0	0
3.930004	-0.2170774	0.4141015	-0.001514694	-0.001081153	-0.04571486	-0.0326302	0	0
3.94657	-0.2171025	0.4140836	-0.001514737	-0.001081184	-1.31759E-06	-9.38124E-07	0	0
3.963137	-0.2171025	0.4140836	0	0	0.04571683	0.03263161	0	0
3.979702	-0.2171275	0.4140657	-0.001514803	-0.001081231	-0.04571979	-0.03263373	0	0
3.99627	-0.2171526	0.4140478	-0.001514585	-0.001079276	6.577314E-06	5.898502E-05	0	0
4.012837	-0.217253	0.4139762	-0.006058774	-0.004324612	-0.1371429	-0.09794372	0	0
4.029403	-0.2173032	0.4139403	-0.003029475	-0.002162368	0.0914284	0.06525947	0	0
4.045969	-0.2173534	0.4139045	-0.003029475	-0.002162368	0	0	0	0
4.062536	-0.2174036	0.4138687	-0.003029387	-0.002160507	2.63518E-06	5.616798E-05	0	0
4.079103	-0.2174036	0.4138687	0	0	0.09142841	0.06520518	0	0
4.09567	-0.2174036	0.4138687	0	0	0	0	0	0
4.112236	-0.2174036	0.4138687	0	0	0	0	0	0
4.128803	-0.2174036	0.4138687	0	0	0	0	0	0
4.161939	-0.2174036	0.4138687	0	0	0	0	0	0
4.178504	-0.2174036	0.4138687	0	0	0	0	0	0
4.19507	-0.2174036	0.4138687	0	0	0	0	0	0
4.211973	-0.2174287	0.4138508	-0.001484611	-0.001059681	-0.04435752	-0.03166137	0	0
4.244997	-0.2174287	0.4138508	0	0	0.02973578	0.0212247	0	0
4.261336	-0.2174287	0.4138508	0	0	0	0	0	0
4.277903	-0.2174287	0.4138508	0	0	0	0	0	0
4.294469	-0.2174287	0.4138508	0	0	0	0	0	0
4.31107	-0.2174287	0.4138508	0	0	0	0	0	0
4.327602	-0.2174287	0.4138508	0	0	0	0	0	0
4.344171	-0.2174287	0.4138508	0	0	0	0	0	0
4.360736	-0.2174287	0.4138508	0	0	0	0	0	0
4.377302	-0.2174287	0.4138508	0	0	0	0	0	0
4.393869	-0.2174287	0.4138508	0	0	0	0	0	0
4.410436	-0.2174287	0.4138508	0	0	0	0	0	0
4.427003	-0.2174538	0.4138687	-0.00151465	0.001081122	-0.04571289	0.0326288	0	0
4.443569	-0.2174538	0.4138687	0	0	0.0457142	-0.03262974	0	0
4.460135	-0.2174538	0.4138687	0	0	0	0	0	0
4.476702	-0.2174788	0.4138866	-0.001513794	0.001081153	-0.04568771	0.0326302	0	0
4.493269	-0.2174788	0.4138866	0	0	0.04568771	-0.0326302	0	0
4.509836	-0.2174788	0.4138866	0	0	0	0	0	0
4.526402	-0.2175039	0.4139045	-0.001514694	0.001079354	-0.04571486	0.03257591	0	0
4.543205	-0.2175039	0.4139045	0	0	0.04539215	-0.03234595	0	0
4.609252	-0.2175541	0.4139403	-0.0007598674	0.0005423757	-0.009171659	0.006546517	0	0
4.625802	-0.2175792	0.4139583	-0.001516221	0.001082243	-0.009157129	0.006536144	0	0
4.642372	-0.2175792	0.4139583	0	0	0.04578007	-0.03267675	0	0
4.658938	-0.2175792	0.4139583	0	0	0	0	0	0
4.675503	-0.2175792	0.4139583	0	0	0	0	0	0
4.692069	-0.2175792	0.4139583	0	0	0	0	0	0
4.708822	-0.2175792	0.4139583	0	0	0	0	0	0
4.725333	-0.2175792	0.4139583	0	0	0	0	0	0
4.741847	-0.2176043	0.4139762	-0.001518646	0.001084618	-0.04598504	0.03284255	0	0
4.758335	-0.2176294	0.4139941	-0.001521921	0.001086312	-9.92507E-05	5.132562E-05	0	0
4.774902	-0.2176796	0.4139941	-0.003028488	0	-0.0455778	-0.03286394	0	0
4.791469	-0.2177047	0.4139762	-0.001514694	-0.001081153	0.04568771	-0.0326302	0	0
4.808035	-0.218407	0.413618	-0.04239645	-0.02161829	-1.233867	-0.6198387	0	0
4.842916	-0.2223412	0.4119169	-0.1127861	-0.04876746	-1.368175	-0.5277026	0	0
4.859404	-0.2224914	0.4120244	-0.009110102	0.006516254	2.018253	1.076204	0	0
4.87597	-0.2226165	0.4120781	-0.007555696	0.003241753	0.04702644	-0.09906554	0	0
4.892951	-0.2233924	0.4124183	-0.04569252	0.02003419	-1.13682	0.5005656	0	0
4.909104	-0.2263183	0.4122571	-0.1811375	-0.009976014	-4.087854	-0.9057358	0	0
4.92567	-0.2369379	0.4091778	-0.6410388	-0.1858809	-14.05604	-5.376209	0	0
4.942237	-0.2480228	0.4069045	-0.6690822	-0.1372161	-0.8463773	1.468749	0	0
4.958998	-0.2521483	0.4062423	-0.2461424	-0.03950924	12.6902	2.931671	0	0
4.97551	-0.2785394	0.4047926	-1.598307	-0.08779383	-40.63882	-1.451176	0	0
4.991938	-0.2920603	0.405079	-0.8230585	0.01743055	23.53559	3.194481	0	0
5.008504	-0.3005337	0.4051148	-0.5114847	0.002160569	9.443406	-0.4628138	0	0
5.02507	-0.3162062	0.4050074	-0.9460505	-0.006481708	-13.11598	-0.2608395	0	0
5.041637	-0.32986	0.4056338	-0.8241678	0.03780977	3.678585	1.336777	0	0
5.058204	-0.3391811	0.406296	-0.5626421	0.03997208	7.89309	0.06526045	0	0
5.074771	-0.3485343	0.406636	-0.5645615	0.02052513	-0.0579281	-0.5869188	0	0
5.091592	-0.3604769	0.4090704	-0.7099597	0.1447172	-4.354726	3.719593	0	0
5.108103	-0.3681733	0.4130629	-0.4661418	0.2418107	7.314756	2.912892	0	0
5.124615	-0.3743662	0.4180598	-0.3750559	0.3026218	2.758264	1.841483	0	0
5.141037	-0.3818215	0.423901	-0.4539743	0.3556892	-2.396245	1.611318	0	0
5.157604	-0.3869326	0.4279881	-0.3085136	0.2467026	4.409367	-3.303725	0	0
5.174171	-0.3916403	0.4317359	-0.2841606	0.2262189	0.7349855	-0.6182069	0	0
5.190738	-0.3974714	0.436436	-0.3519857	0.2837182	-2.047026	1.735382	0	0
5.207304	-0.4003093	0.4387152	-0.1713025	0.1375727	5.453266	-4.410871	0	0
5.273571	-0.4217153	0.4569689	-0.3230315	0.2754619	-1.83175	1.664669	0	0
5.290137	-0.4274183	0.4626365	-0.3442501	0.3421129	-0.2561636	0.8046501	0	0
5.306705	-0.4316165	0.4672276	-0.2533816	0.2770977	2.742378	-1.962136	0	0
5.323272	-0.4340453	0.472128	-0.1466129	0.2958055	3.222239	0.5645956	0	0
5.339837	-0.4343918	0.4764187	-0.02091849	0.2590227	3.793847	-1.110221	0	0
5.356404	-0.4330701	0.4819573	0.07977767	0.3343035	3.039191	2.272111	0	0
5.372972	-0.4297695	0.4898677	0.1992175	0.4774554	3.604598	4.320208	0	0
5.389537	-0.428834	0.4932842	0.05647651	0.2062505	-4.30818	-8.18545	0	0
5.406104	-0.4279412	0.4969559	0.05388855	0.2216346	-0.07811151	0.4643312	0	0
5.42267	-0.4268951	0.5007206	0.06314763	0.2272466	0.2794517	0.1693778	0	0
5.439339	-0.4247562	0.5024227	0.1283129	0.1021118	1.96071	-3.765087	0	0
5.455849	-0.4247344	0.5024046	0.001323181	-0.001093926	-3.827435	-3.110592	0	0
5.47237	-0.4247125	0.5023865	0.001322226	-0.001096744	-2.890383E-05	-8.532639E-05	0	0
5.489371	-0.4247125	0.5023503	0	-0.002131598	-0.03944283	-0.03087032	0	0
5.505503	-0.4247125	0.5023503	0	0	0	0.06433453	0	0
5.52207	-0.4246907	0.5023322	0.001318611	-0.001093745	0.04032618	-0.03344927	0	0
5.538636	-0.4246907	0.5023322	0	0	-0.03979748	0.03301073	0	0
5.57177	-0.4246251	0.5022779	0.001978816	-0.001638819	0.03981538	-0.03297438	0	0
5.588337	-0.4245814	0.5021692	0.002637146	-0.006558686	0.01324589	-0.09898982	0	0
5.604903	-0.424494	0.5019881	0.005276546	-0.01093449	0.0796607	-0.1320676	0	0
5.621469	-0.4245159	0.5018975	-0.001318611	-0.00546513	-0.1990537	0.165075	0	0
5.638036	-0.424494	0.5017708	0.001318611	-0.007649023	0.07959381	-0.06591191	0	0
5.654603	-0.424494	0.5017346	0	-0.002187491	-0.0397969	0.1648341	0	0
5.6715	-0.4246251	0.5013724	-0.007758706	-0.02143301	-0.2318526	-0.5751118	0	0
5.688012	-0.4248873	0.5010827	-0.01587769	-0.01754722	-0.2430169	0.1163092	0	0
5.704303	-0.4250402	0.5008111	-0.009384879	-0.01666959	0.1979359	0.02675468	0	0
5.720869	-0.4252149	0.5005576	-0.0105477	-0.01530252	-0.03539081	0.04160733	0	0
5.737436	-0.4253459	0.500449	-0.007907612	-0.0065549	0.07968017	0.2640114	0	0
5.796248	-0.4253459	0.5004128	0	-0.0006161979	0.1049042	0.07878418	0	0
5.812816	-0.4253241	0.5003947	0.001318535	-0.001090085	0.01749199	-0.006286694	0	0
5.829383	-0.4253241	0.5003947	0	0	-0.03979232	0.03289788	0	0
5.84595	-0.4253459	0.5003766	-0.001318611	-0.001093745	-0.03979576	-0.0330093	0	0
5.862517	-0.4253241	0.5003585	0.001318611	-0.001093745	0.07959381	0	0	0
5.879084	-0.4253241	0.5003585	0	0	-0.0397969	0.03301026	0	0
5.895661	-0.4253241	0.5003585	0	0	0	0	0	0
5.912216	-0.4253241	0.5003585	0	0	0	0	0	0
5.928783	-0.4253241	0.5003585	0	0	0	0	0	0
5.945351	-0.4253241	0.5003585	0	0	0	0	0	0
5.961917	-0.4253459	0.5003404	-0.001318649	-0.001090179	-0.03979805	-0.03290262	0	0
5.995049	-0.4253241	0.500286	0.0006593245	-0.001640665	0.03979919	-0.01107645	0	0
6.011616	-0.4253023	0.500268	0.001316812	-0.001090148	0.01322931	0.01107697	0	0
6.028183	-0.4252804	0.5002136	0.001318611	-0.003281236	5.429446E-05	-0.06612909	0	0
6.04475	-0.4252367	0.5001413	0.002637146	-0.004367661	0.03979404	-0.03278882	0	0
6.062281	-0.4251494	0.499924	0.004982796	-0.01239324	0.06879207	-0.2353702	0	0
6.077883	-0.4251057	0.4996706	0.002798279	-0.01624339	-0.06593168	-0.1162029	0	0
6.09445	-0.4250402	0.4994715	0.003955719	-0.01201826	0.03597906	0.1313383	0	0
6.111017	-0.4237289	0.4979873	0.07914904	-0.08958459	2.269372	-2.34099	0	0
6.127583	-0.4218687	0.4961599	0.1122935	-0.1103145	1.000359	-0.6256672	0	0
6.14415	-0.4175453	0.4922717	0.2609662	-0.2347002	4.487211	-3.754181	0	0
6.160848	-0.4148155	0.4899219	0.1634856	-0.1407241	-2.930459	2.825105	0	0
6.177359	-0.4103544	0.486128	0.2701811	-0.2297737	3.21282	-2.681466	0	0
6.19385	-0.405076	0.4816505	0.3200886	-0.2715189	1.512261	-1.264932	0	0
6.210416	-0.4019375	0.4785289	0.1894446	-0.1884228	-3.952057	2.513704	0	0
6.226984	-0.4006441	0.4708485	0.07807283	-0.4635908	-3.361256	-8.304707	0	0
6.260417	-0.40245	0.4476935	-0.05401662	-0.6925703	-2.641754	-4.579528	0	0
6.276684	-0.4026951	0.4400254	-0.01506485	-0.4713799	0.783726	4.450444	0	0
6.342977	-0.397091	0.4066718	0.08453605	-0.5031298	1.206412	-0.3845699	0	0
6.376083	-0.3851258	0.397153	0.3614135	-0.2875171	2.785513	2.169162	0	0
6.393011	-0.3806652	0.3936296	0.2635145	-0.2081502	-1.956648	1.586257	0	0
6.409216	-0.3736365	0.3880687	0.4337281	-0.3431569	5.137354	-4.074744	0	0
6.425783	-0.36448	0.3809543	0.5526994	-0.4294354	3.630266	-2.632685	0	0
6.442545	-0.3588399	0.3766474	0.3364713	-0.256932	-6.487592	5.175701	0	0
6.459058	-0.3531757	0.3725556	0.3430235	-0.2478017	0.1969104	0.2743881	0	0
6.475483	-0.3532452	0.3726092	-0.004231138	0.003262258	-10.54268	7.622318	0	0
6.492081	-0.3531294	0.3726986	0.006977563	0.005383102	0.3394173	0.06422254	0	0
6.508617	-0.3530831	0.3727343	0.002802569	0.002160952	-0.1260052	-0.09724747	0	0
6.525184	-0.3529672	0.3728236	0.006994215	0.005391374	0.1266262	0.09758841	0	0
6.54175	-0.3528745	0.3728951	0.005594652	0.004315617	-0.0422401	-0.03246732	0	0
6.574883	-0.3523646	0.3732882	0.01538911	0.01186317	0.1970725	0.1518629	0	0
6.591652	-0.3497658	0.3752179	0.1549766	0.1150777	2.797235	2.068346	0	0
6.608017	-0.3471621	0.3771835	0.1591083	0.1201139	0.1246982	0.1519958	0	0
6.624675	-0.3410988	0.3816871	0.3639899	0.270358	6.204323	4.549765	0	0
6.641187	-0.3356898	0.3854229	0.3275799	0.2262475	-1.097688	-1.329841	0	0
6.657717	-0.3315549	0.3875681	0.2501388	0.129774	-2.343686	-2.919687	0	0
6.674284	-0.3223031	0.3886051	0.5584739	0.06259355	9.316162	-2.029817	0	0
6.690851	-0.3085806	0.3881938	0.8282923	-0.02482083	8.143371	-2.638247	0	0
6.707417	-0.2955319	0.3884441	0.7876633	0.01510779	-1.22622	1.205083	0	0
6.723984	-0.2864518	0.3897314	0.5480803	0.07770226	-7.23084	1.889159	0	0
6.740551	-0.2753742	0.3918414	0.6686827	0.1273639	3.639893	1.498833	0	0
6.757117	-0.2714951	0.3938264	0.2341479	0.1198173	-13.11485	-0.2277654	0	0
6.773684	-0.2658935	0.3979222	0.3381318	0.2472404	3.138376	3.845802	0	0
6.79025	-0.2622396	0.4005877	0.2205588	0.1608957	-3.548512	-2.605999	0	0
6.806818	-0.2572745	0.4042021	0.2996938	0.2181636	2.388333	1.728372	0	0
6.823384	-0.2551813	0.4057233	0.1263474	0.09182066	-5.231681	-3.813091	0	0
6.839951	-0.2510375	0.4088019	0.2501277	0.1858288	3.735806	2.837253	0	0
6.856517	-0.2485173	0.410592	0.1521285	0.1080626	-2.957749	-2.347089	0	0
6.873084	-0.2458206	0.4125436	0.162783	0.1178041	0.32157	0.2940144	0	0
6.88965	-0.2385039	0.4178627	0.4416501	0.3210701	8.41659	6.134844	0	0
6.906217	-0.2356943	0.4199229	0.1695935	0.1243578	-8.210921	-5.936959	0	0
6.939351	-0.2272678	0.4259443	0.2543164	0.1817291	1.704662	1.154336	0	0
6.955918	-0.2242681	0.4280956	0.1810644	0.1298553	-1.473863	-1.043724	0	0
6.972484	-0.2233674	0.4287411	0.05436953	0.03896401	-3.823822	-2.743223	0	0
6.98905	-0.2233924	0.4287232	-0.00151024	-0.001082983	-1.686552	-1.20869	0	0
7.005944	-0.2233924	0.4287232	0	0	0.04513549	0.03236637	0	0
7.022184	-0.2233924	0.4287232	0	0	0	0	0	0
7.038968	-0.2233924	0.4287232	0	0	0	0	0	0
7.055317	-0.2233924	0.4287232	0	0	0	0	0	0
7.071884	-0.2233924	0.4287232	0	0	0	0	0	0
7.08845	-0.2233924	0.4287232	0	0	0	0	0	0
7.105516	-0.2233924	0.4287232	0	0	0	0	0	0
7.121584	-0.2233924	0.4287232	0	0	0	0	0	0
7.138151	-0.2233924	0.4287232	0	0	0	0	0	0
7.155051	-0.2233924	0.4287232	0	0	0	0	0	0
7.254118	-0.2234175	0.4287052	-0.0002526966	-0.0001807984	-0.002179034	-0.001559047	0	0
7.270684	-0.2234175	0.4287052	0	0	0.002185324	0.001563547	0	0
7.287251	-0.2234175	0.4287052	0	0	0	0	0	0
7.303818	-0.2234175	0.4287052	0	0	0	0	0	0
7.320386	-0.2234175	0.4287052	0	0	0	0	0	0
7.336951	-0.2234175	0.4287052	0	0	0	0	0	0
7.353518	-0.2234175	0.4287052	0	0	0	0	0	0
7.370085	-0.2234175	0.4287052	0	0	0	0	0	0
7.386716	-0.2234175	0.4287052	0	0	0	0	0	0
7.403226	-0.2234175	0.4287052	0	0	0	0	0	0
7.420239	-0.2234175	0.4287052	0	0	0	0	0	0
7.436351	-0.2234175	0.4287052	0	0	0	0	0	0
7.453261	-0.2234175	0.4287052	0	0	0	0	0	0
7.469484	-0.2234175	0.4287052	0	0	0	0	0	0
7.486284	-0.2234175	0.4287052	0	0	0	0	0	0
7.502618	-0.2234175	0.4287052	0	0	0	0	0	0
7.519184	-0.2234175	0.4287052	0	0	0	0	0	0
7.535751	-0.2234425	0.4287232	-0.001510196	0.001081153	-0.04557978	0.03263067	0	0
7.55233	-0.2234425	0.4287232	0	0	0.04556142	-0.03261753	0	0
7.568884	-0.2234425	0.4287232	0	0	0	0	0	0
7.585451	-0.2234425	0.4287232	0	0	0	0	0	0
7.602019	-0.2234425	0.428759	0	0.002163918	0	0.06530624	0	0
7.618586	-0.2234425	0.428759	0	0	0	-0.0653053	0	0
7.635151	-0.2234425	0.428759	0	0	0	0	0	0
7.651901	-0.2234425	0.428759	0	0	0	0	0	0
7.668413	-0.2234425	0.428759	0	0	0	0	0	0
7.684924	-0.2234425	0.428759	0	0	0	0	0	0
7.701416	-0.2234425	0.428759	0	0	0	0	0	0
7.717984	-0.2234425	0.428759	0	0	0	0	0	0
7.73455	-0.2234425	0.428759	0	0	0	0	0	0
7.751117	-0.2234425	0.428759	0	0	0	0	0	0
7.767684	-0.2234425	0.428759	0	0	0	0	0	0
7.784251	-0.2234175	0.4287411	0.001510196	-0.001081153	0.04557912	-0.0326302	0	0
7.800817	-0.2234175	0.4287411	0	0	-0.04557912	0.0326302	0	0
7.817384	-0.2234175	0.4287411	0	0	0	0	0	0
7.833951	-0.2233924	0.4287232	0.001511139	-0.001082983	0.04560824	-0.03268591	0	0
7.850542	-0.2233674	0.4287052	0.001507983	-0.001079568	-9.519715E-05	0.0001029881	0	0
7.867084	-0.2233174	0.4286694	0.003025734	-0.002169088	0.04580713	-0.03288272	0	0
7.883651	-0.2232172	0.4285977	0.00604241	-0.004328086	0.09111166	-0.06520747	0	0
7.900218	-0.2220657	0.4277729	0.06950881	-0.04978484	1.915475	-1.371927	0	0
7.916784	-0.2194351	0.4258906	0.1587928	-0.1136218	2.694712	-1.926687	0	0
7.933351	-0.2147674	0.4225569	0.2817546	-0.2012316	3.711156	-2.644182	0	0
8.03275	-0.2091336	0.4186867	0.05667878	-0.03893537	-1.94088	1.399517	0	0
8.049316	-0.2091084	0.4187047	0.001520134	0.001081184	-0.4756456	0.3450719	0	0
8.065883	-0.2091084	0.4187405	0	0.002164167	-0.04588038	0.03268638	0	0
8.08245	-0.2091084	0.418848	0	0.006486732	0	0.130459	0	0
8.099016	-0.2092343	0.4190809	-0.007599771	0.01405899	-0.2293682	0.2285379	0	0
8.115582	-0.2095365	0.4195108	-0.01823891	0.02595382	-0.3211084	0.3590072	0	0
8.132149	-0.2094861	0.4195108	0.003039369	0	0.6422167	-0.7833328	0	0
8.148715	-0.2094609	0.4195288	0.001520134	0.001081184	-0.04585323	0.03263208	0	0
8.165282	-0.2094609	0.4195288	0	0	-0.04587906	-0.03263114	0	0
8.181849	-0.2094357	0.4195467	0.001520134	0.001081184	0.04587906	0.03263114	0	0
8.198415	-0.2094357	0.4195467	0	0	-0.04588038	-0.03263208	0	0
8.214981	-0.2093602	0.4196004	0.004559503	0.003245351	0.137614	0.09795054	0	0
8.231547	-0.209335	0.4196183	0.001520134	0.001081184	-0.09173361	-0.06531846	0	0
8.24832	-0.209335	0.4196183	0	0	-0.04559689	-0.03243045	0	0
8.264831	-0.2092847	0.4195825	0.003049551	-0.002169612	0.09162424	-0.06518634	0	0
8.281853	-0.2092595	0.4195646	0.001479425	-0.00105223	-0.04682318	0.03332178	0	0
8.315372	-0.2092595	0.4195646	0	0	-0.02927182	0.02081936	0	0
8.33176	-0.2092343	0.4195467	0.001536587	-0.001094705	0.03078859	-0.02193459	0	0
8.348327	-0.2092343	0.4195467	0	0	-0.04662659	0.033218	0	0
8.364902	-0.2092343	0.4195467	0	0	0	0	0	0
8.38146	-0.2092595	0.4195288	-0.001520922	-0.001081745	-0.04590284	-0.03264806	0	0
8.398026	-0.2092595	0.4195288	0	0	0.04591606	0.03265746	0	0
8.414593	-0.2092595	0.4195288	0	0	0	0	0	0
8.431448	-0.2092595	0.4195288	0	0	0	0	0	0
8.447726	-0.2092595	0.4195288	0	0	0	0	0	0
8.464472	-0.2092595	0.4195288	0	0	0	0	0	0
8.48086	-0.2092847	0.4195108	-0.001536677	-0.00109295	-0.04637833	-0.03298624	0	0
8.497426	-0.2092847	0.4195108	0	0	0.04663065	0.03316571	0	0
8.514007	-0.2092847	0.4195108	0	0	0	0	0	0
8.53056	-0.2092847	0.4195108	0	0	0	0	0	0
8.547531	-0.2092847	0.4195108	0	0	0	0	0	0
8.563693	-0.2093099	0.4194929	-0.001558167	-0.001108235	-0.04702691	-0.03344755	0	0
8.580259	-0.2093099	0.4194571	0	-0.002162368	0.0476093	-0.03220873	0	0
8.596826	-0.2093099	0.4193854	0	-0.004326535	0	-0.06531845	0	0
8.613577	-0.2092595	0.4191705	0.003006689	-0.01283269	0.09024337	-0.2553055	0	0
8.630089	-0.2080757	0.4176477	0.07169144	-0.09221945	2.064887	-2.386624	0	0
8.663095	-0.200607	0.410234	0.2262781	-0.2246135	3.12179	-2.673625	0	0
8.67966	-0.1913661	0.3974392	0.5578806	-0.7724268	6.689441	-11.05107	0	0
8.696226	-0.1845597	0.3791314	0.4108563	-1.105127	-4.437713	-10.04206	0	0
8.712792	-0.1806662	0.3568899	0.2350271	-1.342579	-5.306839	-7.166733	0	0
8.729659	-0.1786791	0.3392105	0.1178112	-1.048186	-3.505998	8.805467	0	0
8.745926	-0.1767927	0.3221024	0.1159714	-1.051714	-0.05552625	-0.1064891	0	0
8.762493	-0.1747262	0.3015405	0.1247284	-1.241119	0.2667024	-5.768542	0	0
8.779061	-0.1731946	0.2879911	0.09244499	-0.8177938	-0.9742861	12.77561	0	0
8.795708	-0.1719687	0.2719986	0.07364473	-0.9607186	-0.5660247	-4.303077	0	0
8.812194	-0.1709978	0.2618652	0.05888999	-0.6146635	-0.4453245	10.44457	0	0
8.82876	-0.1703078	0.2561148	0.04165347	-0.3471141	-0.5214899	8.094693	0	0
8.845327	-0.1680576	0.2428121	0.1358184	-0.8029543	2.841986	-13.75768	0	0
8.862255	-0.1679042	0.2374291	0.009066021	-0.3179982	-3.784225	14.47848	0	0
8.878462	-0.1671622	0.2290798	0.04577994	-0.5151727	1.108028	-5.950736	0	0
8.895028	-0.1670087	0.2199141	0.009267421	-0.5532749	-1.114103	-1.162609	0	0
8.911595	-0.1668296	0.2021841	0.01081212	-1.070187	0.0466204	-15.60088	0	0
8.928163	-0.1669319	0.1946481	-0.006178225	-0.4548735	-0.5127696	18.57019	0	0
8.997819	-0.1673925	0.142167	-0.006612173	-0.7534292	-0.005032826	-3.462575	0	0
9.014385	-0.1672646	0.132901	0.007723001	-0.5593266	0.1662576	2.251179	0	0
9.030951	-0.1675972	0.1238378	-0.02007746	-0.5470873	-0.8390679	0.3694052	0	0
9.047883	-0.1679553	0.1154349	-0.0211528	-0.4962882	-0.03210181	1.516488	0	0
9.064084	-0.1680576	0.1101666	-0.00631512	-0.3251813	0.447828	5.164316	0	0
9.080651	-0.1690806	0.1000161	-0.06174897	-0.6126872	-1.691694	-8.773917	0	0
9.097218	-0.17041	0.09814479	-0.08024509	-0.1129577	-0.5582302	15.0823	0	0
9.113931	-0.1705122	0.09832828	-0.006117154	0.01097896	2.227441	3.724122	0	0
9.130351	-0.1705122	0.09832828	0	0	0.1846214	-0.3313552	0	0
9.146917	-0.1705122	0.09832828	0	0	0	0	0	0
9.163966	-0.1705122	0.09832828	0	0	0	0	0	0
9.180051	-0.1705122	0.09832828	0	0	0	0	0	0
9.196617	-0.1705122	0.09832828	0	0	0	0	0	0
9.213183	-0.1705122	0.09832828	0	0	0	0	0	0
9.22975	-0.1705122	0.09832828	0	0	0	0	0	0
9.246316	-0.1705122	0.09832828	0	0	0	0	0	0
9.262883	-0.1705122	0.09832828	0	0	0	0	0	0
9.279449	-0.1705122	0.09832828	0	0	0	0	0	0
9.296016	-0.1705122	0.09832828	0	0	0	0	0	0
9.312582	-0.1705122	0.09832828	0	0	0	0	0	0
9.32915	-0.1704867	0.09830994	0.001542444	-0.001107142	0.04655105	-0.03341361	0	0
9.346593	-0.1704867	0.09830994	0	0	-0.04535147	0.03255257	0	0
9.362283	-0.1704867	0.09830994	0	0	0	0	0	0
9.37885	-0.1704867	0.09830994	0	0	0	0	0	0
9.395418	-0.1704867	0.09830994	0	0	0	0	0	0
9.411983	-0.1704867	0.09830994	0	0	0	0	0	0
9.428552	-0.1704611	0.09829159	0.001542444	-0.001107592	0.04655239	-0.03342814	0	0
9.445165	-0.1704867	0.09827324	-0.001538282	-0.001104603	-0.09284555	9.006251E-05	0	0
9.478303	-0.1704611	0.09829159	0.0007711775	0.0005537639	0.0464201	0.03333315	0	0
9.494817	-0.1704611	0.09829159	0	0	-0.01553162	-0.01115288	0	0
9.511712	-0.1704611	0.09829159	0	0	0	0	0	0
9.528224	-0.1704611	0.09829159	0	0	0	0	0	0
9.544518	-0.1704867	0.09830994	-0.001568445	0.001126262	-0.0478105	0.03433156	0	0
9.561104	-0.1704867	0.09830994	0	0	0.04770233	-0.03425389	0	0
9.577757	-0.1704867	0.09834664	0	0.002203445	0	0.06629024	0	0
9.594268	-0.1704356	0.09842003	0.003095578	0.004445269	0.09334145	0.06759805	0	0
9.610784	-0.1701544	0.09869525	0.01702438	0.01666393	0.4217436	0.3699632	0	0
9.646159	-0.1698221	0.09900714	0.009393787	0.008816705	-0.1470494	-0.1512242	0	0
9.662725	-0.1698221	0.09904384	0	0.002214988	-0.1808519	-0.1270982	0	0
9.679327	-0.1696687	0.09926399	0.009239646	0.01326079	0.2785724	0.3330273	0	0
9.695859	-0.1693108	0.099851	0.02165056	0.03550755	0.374573	0.6714281	0	0
9.712852	-0.1697965	0.1008231	-0.02858679	0.05720558	-1.498526	0.6472288	0	0
9.728992	-0.1702567	0.1022533	-0.02850796	0.08861353	0.002379089	0.9479481	0	0
9.745558	-0.1711767	0.1067245	-0.05553617	0.2698971	-0.8263924	5.542779	0	0
9.762173	-0.1719431	0.1136428	-0.04613061	0.4163948	0.2834604	4.415082	0	0
9.778692	-0.1718665	0.1202409	0.004639151	0.3994085	1.532235	-0.5126452	0	0
9.795259	-0.1712022	0.1433127	0.04009826	1.392699	1.071731	30.02163	0	0
9.811825	-0.1710489	0.1483659	0.009253929	0.3050252	-0.9309373	-32.82794	0	0
9.894657	-0.1660106	0.2383265	0.06082589	1.086057	0.5188398	7.857568	0	0
9.911225	-0.163834	0.2558102	0.1313694	1.055258	0.70969	-0.3098418	0	0
9.928004	-0.1622711	0.2696897	0.09314965	0.8271996	-1.146119	-6.838925	0	0
9.944357	-0.1612714	0.2839496	0.06113406	0.8720257	-0.9663162	1.352971	0	0
9.960926	-0.1607073	0.2986096	0.03404333	0.8847758	-0.8228813	0.3872824	0	0
9.977491	-0.1603483	0.3184053	0.0216717	1.195006	-0.3733763	9.362761	0	0
9.994058	-0.1603996	0.3375854	-0.003096037	1.157785	-0.7475564	-1.123435	0	0
10.01062	-0.1609637	0.3507285	-0.0340528	0.7933643	-0.9343309	-10.99886	0	0
10.02719	-0.1609381	0.3547825	0.001548018	0.2447092	1.074497	-16.5594	0	0
10.04376	-0.1612457	0.3728236	-0.01857172	1.089029	-0.6072499	25.4831	0	0
10.06032	-0.1617584	0.3824735	-0.03094867	0.5825028	-0.3735586	-15.28788	0	0
10.07689	-0.1625273	0.3943807	-0.04641356	0.7187626	-0.4667582	4.112566	0	0
10.09363	-0.1626555	0.3971173	-0.007651881	0.1634169	1.163601	-16.67112	0	0
10.11013	-0.1646536	0.409321	-0.121131	0.7398122	-3.413802	17.33975	0	0
10.12664	-0.1666504	0.411541	-0.1209318	0.1344468	0.006036511	-18.34017	0	0
10.14316	-0.1688505	0.4139403	-0.1332104	0.1452788	-0.3717683	0.3279653	0	0
10.15972	-0.1674181	0.4154088	0.08646505	0.0886445	6.640329	-1.711935	0	0
10.17629	-0.1673925	0.4153909	0.001544331	-0.001081122	-2.562986	-2.708003	0	0
10.19286	-0.1673925	0.4153909	0	0	-0.04661204	0.03263114	0	0
10.20942	-0.1673925	0.4153909	0	0	0	0	0	0
10.22621	-0.1673925	0.4153909	0	0	0	0	0	0
10.24272	-0.1673925	0.4153909	0	0	0	0	0	0
10.25923	-0.1673413	0.4153551	0.003099912	-0.002169487	0.09387706	-0.06570028	0	0
10.27569	-0.1673157	0.4153372	0.001554893	-0.001088516	-0.04686616	0.03278988	0	0
10.29226	-0.1672902	0.4153193	0.001544242	-0.00108106	-0.000322522	0.0002257844	0	0
10.30882	-0.1672646	0.4153014	0.00154442	-0.001079385	5.364995E-06	5.053705E-05	0	0
10.32539	-0.1672646	0.4153014	0	0	-0.04661472	0.03257872	0	0
10.34196	-0.1672646	0.4153014	0	0	0	0	0	0
10.35852	-0.1672646	0.4153014	0	0	0	0	0	0
10.37509	-0.1672646	0.4153014	0	0	0	0	0	0
10.40834	-0.1672646	0.4153014	0	0	0	0	0	0
10.42488	-0.1672646	0.4153014	0	0	0	0	0	0
10.44145	-0.1672646	0.4153014	0	0	0	0	0	0
10.45801	-0.1672902	0.4152835	-0.00154442	-0.001081184	-0.04661338	-0.03263208	0	0
10.47458	-0.1672902	0.4152835	0	0	0.04661338	0.03263208	0	0
10.49115	-0.1672902	0.4152835	0	0	0	0	0	0
10.50771	-0.1672902	0.4152835	0	0	0	0	0	0
10.52428	-0.1672902	0.4152835	0	0	0	0	0	0
10.54084	-0.1672902	0.4152835	0	0	0	0	0	0
10.55744	-0.167239	0.4152477	0.003082807	-0.002158144	0.09295368	-0.06507299	0	0
10.57398	-0.167239	0.4152477	0	0	-0.09304197	0.0651348	0	0
10.69003	-0.1672134	0.4152298	0.0002204538	-0.0001543305	0.001662645	-0.001163949	0	0
10.70655	-0.1672134	0.4152298	0	0	-0.001662932	0.001164149	0	0
10.72308	-0.1672134	0.4152298	0	0	0	0	0	0
10.73964	-0.1672134	0.4152298	0	0	0	0	0	0
10.75621	-0.1672134	0.4152298	0	0	0	0	0	0
10.77278	-0.1672134	0.4152298	0	0	0	0	0	0
10.78934	-0.1672134	0.4152298	0	0	0	0	0	0
10.80591	-0.1672134	0.4152298	0	0	0	0	0	0
10.82248	-0.1672134	0.4152298	0	0	0	0	0	0
10.83914	-0.1672134	0.4152298	0	0	0	0	0	0
10.85561	-0.1672134	0.4152298	0	0	0	0	0	0
10.87218	-0.1671878	0.4152119	0.00154442	-0.001081184	0.04674929	-0.03272722	0	0
10.88874	-0.1671878	0.4152119	0	0	-0.04661338	0.03263208	0	0
10.90531	-0.1671878	0.4152119	0	0	0	0	0	0
10.92187	-0.1671878	0.4152119	0	0	0	0	0	0
10.93844	-0.1671622	0.4151939	0.001544331	-0.001081122	0.04660936	-0.03262927	0	0
10.95522	-0.1671622	0.4151939	0	0	-0.04631077	0.03242024	0	0
10.97173	-0.1671622	0.4151939	0	0	0	0	0	0
10.98814	-0.1671622	0.4151939	0	0	0	0	0	0
11.00471	-0.1671366	0.415176	0.00154442	-0.001081184	0.04683582	-0.0327878	0	0
11.02128	-0.1671366	0.415176	0	0	-0.04661069	0.0326302	0	0
11.03784	-0.1671622	0.4151581	-0.001544509	-0.001081246	-0.04661472	-0.03263302	0	0
11.05479	-0.1671622	0.4151581	0	0	0.04608546	0.03226251	0	0
11.07097	-0.1671622	0.4151581	0	0	0	0	0	0
11.08781	-0.1671622	0.4151581	0	0	0	0	0	0
11.10411	-0.1671622	0.4151581	0	0	0	0	0	0
11.12067	-0.1671622	0.4151581	0	0	0	0	0	0
11.13735	-0.1671622	0.4151581	0	0	0	0	0	0
11.15386	-0.1671622	0.4151581	0	0	0	0	0	0
11.18694	-0.1671622	0.4151581	0	0	0	0	0	0
11.23217	-0.1671622	0.4151581	0	0	0	0	0	0
11.24893	-0.1671622	0.4151581	0	0	0	0	0	0
11.26544	-0.1671366	0.4151402	0.001549326	-0.001084618	0.04656708	-0.03259967	0	0
11.28195	-0.1671366	0.4151402	0	0	-0.04691673	0.03284445	0	0
11.29846	-0.1671111	0.4151223	0.001549505	-0.001084744	0.04692486	-0.03285014	0	0
11.31501	-0.1671111	0.4151223	0	0	-0.04687477	0.03281507	0	0
11.33157	-0.1670855	0.4151044	0.001545409	-0.001081246	0.04667546	-0.03265652	0	0
11.34814	-0.1670855	0.4151044	0	0	-0.0466459	0.03263584	0	0
11.36471	-0.1670855	0.4151044	0	0	0	0	0	0
11.38127	-0.1670599	0.4150865	0.00154442	-0.001081184	0.04661204	-0.03263114	0	0
11.39803	-0.1670599	0.4150865	0	0	-0.04633994	0.03244066	0	0
11.51381	-0.1673157	0.4146208	-0.002210096	-0.004021961	-0.01667569	-0.03034663	0	0
11.53037	-0.1674948	0.4144955	-0.01081094	-0.00756649	-0.06499125	-0.0267838	0	0
11.54714	-0.1675716	0.4144418	-0.004577918	-0.003204809	0.1869936	0.1308524	0	0
11.56365	-0.1676483	0.4144597	-0.004647441	0.001084493	-0.002088882	0.1288764	0	0
11.58007	-0.1676995	0.4144955	-0.003115743	0.002181837	0.04650784	0.03331929	0	0
11.59664	-0.1677507	0.4145313	-0.003088663	0.002162244	0.0008209571	-0.0005939758	0	0
11.6132	-0.1678018	0.4145671	-0.003089018	0.002162493	-1.073061E-05	7.512127E-06	0	0
11.6302	-0.1678786	0.414585	-0.004516403	0.001052366	-0.04253619	-0.03308189	0	0
11.64634	-0.1679553	0.4146029	-0.00475415	0.001109609	-0.007175442	0.001727669	0	0
11.6629	-0.1681344	0.4146208	-0.01080824	0.001081184	-0.1850942	-0.0008690601	0	0
11.67947	-0.1684669	0.4147462	-0.02007001	0.007567854	-0.2795288	0.1957737	0	0
11.69604	-0.1696943	0.4154984	-0.0740899	0.04540434	-1.63037	1.14194	0	0
11.71276	-0.17133	0.416573	-0.09784767	0.06428454	-0.713806	0.5672587	0	0
11.72927	-0.1800295	0.4217505	-0.5268623	0.3135595	-12.9109	7.501757	0	0
11.74578	-0.1902499	0.4247971	-0.6189332	0.1845004	-2.787932	-3.907945	0	0
11.76231	-0.2066141	0.4249585	-0.990256	0.009762018	-11.23922	-5.28899	0	0
11.77887	-0.2319339	0.4244207	-1.528393	-0.03245891	-16.26208	-1.275883	0	0
11.79581	-0.2514819	0.4250302	-1.153819	0.03597136	11.17855	2.042189	0	0
11.812	-0.2707867	0.4268944	-1.192348	0.1151448	-1.16289	2.389595	0	0
11.82884	-0.2959895	0.4320049	-1.497197	0.3035929	-9.231178	5.706429	0	0
11.84514	-0.3128984	0.4387152	-1.037348	0.4116674	13.87869	3.261787	0	0
11.86186	-0.3314843	0.4511616	-1.11142	0.7442846	-2.243065	10.07233	0	0
11.87837	-0.3447166	0.460171	-0.8013782	0.5456333	9.328889	-5.977246	0	0
11.89488	-0.3525964	0.4660931	-0.4772461	0.358672	9.815378	-5.661568	0	0
11.9114	-0.3667064	0.477122	-0.854041	0.6675547	-11.40682	9.350898	0	0
11.94454	-0.3865037	0.4928683	-0.5975162	0.4752506	5.166246	-3.872883	0	0
11.96111	-0.3937293	0.4987113	-0.4360898	0.3526408	3.247904	-2.466914	0	0
11.97794	-0.4026282	0.5059917	-0.5285312	0.4324041	-2.767187	2.387674	0	0
11.99424	-0.4065199	0.5092003	-0.2388219	0.1969041	8.743946	-7.107813	0	0
12.0108	-0.4152783	0.516495	-0.5287151	0.4403569	-8.821865	7.40862	0	0
12.02748	-0.4179191	0.5187472	-0.1583679	0.1350622	11.14151	-9.184471	0	0
12.04399	-0.4216496	0.522091	-0.2259578	0.2025365	-2.036761	2.033278	0	0
12.0605	-0.4226132	0.5230728	-0.05834067	0.05944321	5.075348	-4.332782	0	0
12.07707	-0.422635	0.5230546	-0.001320296	-0.001097249	1.723508	-1.829906	0	0
12.09364	-0.422635	0.5230546	0	0	0.03984775	0.03311598	0	0
12.11054	-0.422635	0.5230546	0	0	0	0	0	0
12.12677	-0.422635	0.5230546	0	0	0	0	0	0
12.24274	-0.4224599	0.5228364	0.001510074	-0.001881682	0.01142279	-0.01423378	0	0
12.25931	-0.4223724	0.5227637	0.005285389	-0.0043895	0.02848584	-0.0189222	0	0
12.27587	-0.4223067	0.5226728	0.003964941	-0.005486875	-0.03985349	-0.03312075	0	0
12.29266	-0.4222629	0.5226364	0.002606977	-0.002165086	-0.04070696	0.09957542	0	0
12.30901	-0.4222629	0.5226001	0	-0.002224848	-0.07867645	-0.001803577	0	0
12.32569	-0.4222191	0.5225637	0.00262545	-0.002178945	0.07949019	0.00138981	0	0
12.3422	-0.4222191	0.5225273	0	-0.002202484	-0.07909282	-0.000709128	0	0
12.3587	-0.4221972	0.5225092	0.001327443	-0.001101688	0.04021394	0.03334784	0	0
12.37527	-0.4221972	0.5224728	0	-0.002194371	-0.04013972	-0.03304096	0	0
12.39184	-0.4221972	0.5224364	0	-0.002194876	0	-1.525528E-05	0	0
12.4084	-0.4221972	0.5224364	0	0	0	0.06624722	0	0
12.42526	-0.4222191	0.5224546	-0.001299578	0.001078562	-0.03888449	0.03227148	0	0
12.44177	-0.4222191	0.5224546	0	0	0.03895117	-0.03232682	0	0
12.45828	-0.4222191	0.5224546	0	0	0	0	0	0
12.4913	-0.4222191	0.5224546	0	0	0	0	0	0
12.52437	-0.4222191	0.5224546	0	0	0	0	0	0
12.54094	-0.4221972	0.5224364	0.001322247	-0.001097375	0.02664098	-0.0221102	0	0
12.5575	-0.4221972	0.5224364	0	0	-0.03990779	0.03312075	0	0
12.57407	-0.4222191	0.5224183	-0.001322247	-0.001097375	-0.03990779	-0.03312075	0	0
12.59063	-0.4221972	0.5224001	0.001322247	-0.001097375	0.07981557	0	0	0
12.62449	-0.4221753	0.5223092	0.000646145	-0.002684935	-0.0134092	-0.03148623	0	0
12.64106	-0.4221315	0.5222365	0.002644494	-0.0043895	0.03963345	-0.03380681	0	0
12.65762	-0.4220658	0.5221819	0.003964941	-0.003292125	0.03985349	0.03312075	0	0
12.67419	-0.4216496	0.5218002	0.02512269	-0.02304487	0.6385789	-0.5961735	0	0
12.69075	-0.421058	0.521273	0.03571506	-0.03182027	0.3196967	-0.2648574	0	0
12.70745	-0.4196543	0.5200372	0.0840513	-0.07399926	1.452978	-1.267892	0	0
12.72397	-0.4195445	0.5198736	0.006647822	-0.009905851	-2.330608	1.929844	0	0
12.74045	-0.4195445	0.5198373	0	-0.002201417	-0.2014492	0.2334678	0	0
12.75702	-0.4195445	0.519801	0	-0.00219475	0	0.0002016955	0	0
12.77359	-0.4193909	0.5196374	0.009273184	-0.009872208	0.2798733	-0.2317128	0	0
12.79051	-0.4184245	0.51862	0.05709592	-0.06011227	1.427882	-1.500058	0	0
12.80672	-0.4160271	0.5164586	0.147908	-0.1333476	2.740792	-2.210309	0	0
12.82329	-0.4078956	0.505285	0.4908468	-0.6744826	10.46345	-16.51064	0	0
12.83985	-0.4040308	0.4994172	0.2332965	-0.354202	-7.773331	9.666644	0	0
12.85642	-0.39812	0.4837083	0.3567944	-0.9482435	3.727387	-17.92924	0	0
12.87307	-0.3946715	0.4697134	0.2071138	-0.8405228	-4.506214	3.242989	0	0
12.88958	-0.3889395	0.4519165	0.3471633	-1.077884	4.223298	-7.157808	0	0
12.90612	-0.3823199	0.4417668	0.4002281	-0.6136608	1.605567	14.04586	0	0
12.92269	-0.3747309	0.4337986	0.4581019	-0.4809884	1.748143	4.007519	0	0
12.93925	-0.3640665	0.4254783	0.6437029	-0.502218	5.60161	-0.640728	0	0
12.95582	-0.3560686	0.41926	0.4827838	-0.3753562	-4.856687	3.828807	0	0
12.97239	-0.3448099	0.4105741	0.679576	-0.5242811	5.939371	-4.494693	0	0
12.98915	-0.3357837	0.4037368	0.5384394	-0.4078642	-4.234405	3.49276	0	0
13.00567	-0.3237229	0.3947206	0.7303415	-0.5459835	5.76672	-4.150528	0	0
13.02209	-0.3180592	0.3906254	0.3448806	-0.249363	-11.7033	9.005939	0	0
13.03869	-0.3077921	0.3836711	0.6185152	-0.418945	8.286452	-5.135435	0	0
13.05522	-0.3031965	0.3805611	0.2779478	-0.1880984	-10.27864	6.967164	0	0
13.07179	-0.295267	0.3748069	0.4786276	-0.3473226	6.062635	-4.810239	0	0
13.08836	-0.2888957	0.3701259	0.3845939	-0.2825668	-2.838023	1.954387	0	0
13.10492	-0.2796581	0.3633555	0.557614	-0.408684	5.222055	-3.806443	0	0
13.12149	-0.2749598	0.3599083	0.2836049	-0.2080875	-8.270087	6.054364	0	0
13.13805	-0.2630249	0.3512643	0.7204338	-0.5217802	13.18428	-9.46781	0	0
13.15462	-0.256142	0.3463355	0.4154787	-0.2975199	-9.204093	6.768578	0	0
13.17119	-0.2480722	0.340889	0.4870913	-0.3287492	2.161334	-0.9425289	0	0
13.18779	-0.2413841	0.3382105	0.4027914	-0.1613168	-2.541325	5.047453	0	0
13.20432	-0.2349975	0.3385498	0.3864316	0.02052979	-0.4937817	5.488616	0	0
13.23745	-0.2130586	0.3429605	0.6621361	0.1331194	5.551766	2.267179	0	0
13.25402	-0.2047984	0.3463176	0.4986148	0.202651	-3.290181	1.399031	0	0
13.27059	-0.2012387	0.3486213	0.2148626	0.1390474	-8.563903	-1.919615	0	0
13.28715	-0.1969654	0.3515679	0.257956	0.1778665	1.300596	1.171597	0	0
13.30372	-0.1962313	0.3520501	0.04430966	0.02910742	-6.448229	-4.489816	0	0
13.32039	-0.196206	0.3519965	0.001518613	-0.003214204	-1.287434	-0.9724458	0	0
13.3369	-0.1961554	0.3519965	0.003067584	0	0.04668757	0.09687939	0	0
13.35342	-0.1961554	0.3519965	0	0	-0.09287392	0	0	0
13.36999	-0.1961554	0.3519965	0	0	0	0	0	0
13.38656	-0.1961554	0.3519965	0	0	0	0	0	0
13.40312	-0.1961554	0.3519965	0	0	0	0	0	0
13.41996	-0.1961554	0.3519965	0	0	0	0	0	0
13.43625	-0.1961807	0.3519786	-0.001553357	-0.001095304	-0.04688177	-0.0330573	0	0
13.45298	-0.1961807	0.3519786	0	0	0.0470361	0.03316613	0	0
13.46939	-0.1961807	0.3519786	0	0	0	0	0	0
13.486	-0.196206	0.3519965	-0.001523581	0.001074308	-0.0461358	0.03253131	0	0
13.50252	-0.196206	0.3519965	0	0	0.04598309	-0.03242363	0	0
13.51909	-0.1962313	0.3520143	-0.00152823	0.001077586	-0.04619386	0.03257224	0	0
13.53565	-0.1962566	0.3519965	-0.00152823	-0.001077586	0	-0.06504697	0	0
13.55222	-0.196282	0.3520143	-0.00152823	0.001077586	0	0.06504697	0	0
13.56879	-0.1963073	0.3519965	-0.00152823	-0.001077586	0	-0.06504697	0	0
13.58535	-0.1963326	0.3520143	-0.00152733	0.001077586	2.714977E-05	0.06504697	0	0
13.60192	-0.1963579	0.3520322	-0.00152823	0.001077586	-2.714977E-05	0	0	0
13.6186	-0.1964085	0.3520679	-0.003036184	0.002142663	-0.04536132	0.03203896	0	0
13.63505	-0.1964338	0.3520858	-0.001538325	0.001084705	0.04520547	-0.03192925	0	0
13.65162	-0.1964591	0.3521036	-0.00152733	0.001077586	0.0003329402	-0.0002155584	0	0
13.66819	-0.1964845	0.3520858	-0.001528142	-0.001077524	-2.449277E-05	-0.06504323	0	0
13.68475	-0.1964845	0.3520858	0	0	0.04612073	0.03252068	0	0
13.70165	-0.1965098	0.3521036	-0.001497962	0.001056244	-0.04475897	0.03156048	0	0
13.71789	-0.1965098	0.3521036	0	0	0.04521117	-0.03187933	0	0
13.73468	-0.1965351	0.3521215	-0.001506858	0.001063143	-0.04563073	0.03219412	0	0
13.75119	-0.1965604	0.3521394	-0.001533349	0.001083001	-0.000795474	0.0005963163	0	0
13.76759	-0.1965604	0.3521394	0	0	0.04659306	-0.03290858	0	0
13.78421	-0.1965604	0.3521394	0	0	0	0	0	0
13.81729	-0.1965604	0.3521394	0	0	0	0	0	0
13.83385	-0.1965604	0.3521394	0	0	0	0	0	0
13.85042	-0.1965604	0.3521394	0	0	0	0	0	0
13.86699	-0.1965604	0.3521394	0	0	0	0	0	0
13.88355	-0.1965351	0.3521215	0.00152823	-0.001079385	0.04612472	-0.03257778	0	0
13.90012	-0.1965351	0.3521215	0	0	-0.04612472	0.03257778	0	0
13.9168	-0.1965351	0.3521215	0	0	0	0	0	0
13.93332	-0.1965351	0.3521215	0	0	0	0	0	0
13.96638	-0.1965351	0.3521215	0	0	0	0	0	0
13.98295	-0.1965351	0.3521215	0	0	0	0	0	0
13.99986	-0.1965351	0.3521215	0	0	0	0	0	0
14.01638	-0.1965351	0.3521215	0	0	0	0	0	0
14.03265	-0.1965351	0.3521215	0	0	0	0	0	0
14.0494	-0.1965351	0.3521215	0	0	0	0	0	0
14.06578	-0.1965351	0.3521215	0	0	0	0	0	0
14.08243	-0.1965351	0.3521215	0	0	0	0	0	0
14.09893	-0.1965351	0.3521215	0	0	0	0	0	0
14.11549	-0.1965351	0.3521215	0	0	0	0	0	0
14.14862	-0.1965351	0.3521215	0	0	0	0	0	0
14.16548	-0.1965351	0.3521215	0	0	0	0	0	0
14.18175	-0.1965351	0.3521215	0	0	0	0	0	0
14.1985	-0.1965604	0.3521036	-0.001511265	-0.001065624	-0.04576549	-0.03227019	0	0
14.21502	-0.1965604	0.3521036	0	0	0.04543092	0.03203428	0	0
14.23145	-0.1965604	0.3521036	0	0	0	0	0	0
14.24802	-0.1965604	0.3521036	0	0	0	0	0	0
14.26458	-0.1965604	0.3521036	0	0	0	0	0	0
14.28115	-0.1965604	0.3521036	0	0	0	0	0	0
14.29772	-0.1965604	0.3521036	0	0	0	0	0	0
14.31459	-0.1965604	0.3521036	0	0	0	0	0	0
14.33085	-0.1965604	0.3521036	0	0	0	0	0	0
14.34761	-0.1965604	0.3521036	0	0	0	0	0	0
14.36412	-0.1965604	0.3521036	0	0	0	0	0	0
14.38063	-0.1965604	0.3521036	0	0	0	0	0	0
14.39714	-0.1965604	0.3521036	0	0	0	0	0	0
14.41368	-0.1965604	0.3521036	0	0	0	0	0	0
14.43025	-0.1965604	0.3521036	0	0	0	0	0	0
14.44682	-0.1965604	0.3521036	0	0	0	0	0	0
14.4827	-0.1965604	0.3521036	0	0	0	0	0	0
14.49912	-0.1965604	0.3521036	0	0	0	0	0	0
14.51573	-0.1965604	0.3521036	0	0	0	0	0	0
14.53225	-0.1965604	0.3521036	0	0	0	0	0	0
14.54882	-0.1965604	0.3521036	0	0	0	0	0	0
14.56538	-0.1965604	0.3521036	0	0	0	0	0	0
14.58195	-0.1965604	0.3521036	0	0	0	0	0	0
14.59878	-0.1965604	0.3521036	0	0	0	0	0	0
14.61508	-0.1965604	0.3521036	0	0	0	0	0	0
14.63165	-0.1965604	0.3521036	0	0	0	0	0	0
14.64832	-0.1965604	0.3521036	0	0	0	0	0	0
14.66478	-0.1965604	0.3521036	0	0	0	0	0	0
14.68135	-0.1965604	0.3521036	0	0	0	0	0	0
14.69791	-0.1965604	0.3521036	0	0	0	0	0	0
14.71448	-0.1965604	0.3521036	0	0	0	0	0	0
14.73105	-0.1965604	0.3521036	0	0	0	0	0	0
14.74761	-0.1965604	0.3521036	0	0	0	0	0	0
14.76418	-0.1965604	0.3521036	0	0	0	0	0	0
14.78091	-0.1965604	0.3521036	0	0	0	0	0	0
14.79731	-0.1965604	0.3521036	0	0	0	0	0	0
14.81388	-0.1965604	0.3521036	0	0	0	0	0	0
14.83045	-0.1965604	0.3521036	0	0	0	0	0	0
14.84701	-0.1965604	0.3521036	0	0	0	0	0	0
14.86358	-0.1965604	0.3521036	0	0	0	0	0	0
14.88048	-0.1965604	0.3521036	0	0	0	0	0	0
14.89699	-0.1965604	0.3521036	0	0	0	0	0	0
14.91328	-0.1965604	0.3521036	0	0	0	0	0	0
14.93002	-0.1965604	0.3521036	0	0	0	0	0	0
14.94641	-0.1965604	0.3521036	0	0	0	0	0	0
14.96304	-0.1965604	0.3521036	0	0	0	0	0	0
14.97955	-0.1965604	0.3521036	0	0	0	0	0	0
14.99611	-0.1965604	0.3521036	0	0	0	0	0	0
15.01268	-0.1965604	0.3521036	0	0	0	0	0	0
15.06238	-0.1966363	0.3520501	-0.0015279	-0.001077565	-0.02305706	-0.0162612	0	0
15.07912	-0.1966617	0.3520322	-0.001512125	-0.001068011	0.0002374212	0.0001438019	0	0
15.09563	-0.196687	0.3520143	-0.001532358	-0.001081134	-0.0006084192	-0.0003946158	0	0
15.11208	-0.1967123	0.3519607	-0.001539395	-0.003258191	-0.0002135197	-0.06605544	0	0
15.14521	-0.1967629	0.351925	-0.00152778	-0.001077586	0.000234288	0.04398272	0	0
15.16178	-0.1967882	0.3519072	-0.001527242	-0.001077524	1.081707E-05	1.248484E-06	0	0
15.17834	-0.1968135	0.3518893	-0.00152823	-0.001079385	-2.98017E-05	-5.616717E-05	0	0
15.1952	-0.1968135	0.3518893	0	0	0.04572331	0.03229427	0	0
15.21148	-0.1968388	0.3519072	-0.001554353	0.001098483	-0.04690911	0.03315132	0	0
15.22804	-0.1968388	0.3519072	0	0	0.04732729	-0.03344685	0	0
15.24474	-0.1968135	0.3518893	0.001515812	-0.001071245	0.04557937	-0.03221156	0	0
15.26118	-0.1968135	0.3518893	0	0	-0.04574992	0.0323321	0	0
15.27774	-0.1975727	0.3509964	-0.0458262	-0.0538991	-1.388392	-1.632976	0	0
15.34481	-0.1997477	0.3485677	-0.03243208	-0.03621473	0.16016	0.2114606	0	0
15.36118	-0.2034357	0.3384605	-0.2252705	-0.61736	-2.31124	-6.965241	0	0
15.37774	-0.2036629	0.3265136	-0.01371269	-0.7211534	6.42291	-3.151176	0	0
15.39431	-0.2029814	0.306097	0.0411393	-1.232353	1.655484	-15.42848	0	0
15.41088	-0.2028299	0.28994	0.009143292	-0.9752911	-0.9656691	7.75837	0	0
15.42744	-0.2021228	0.2701909	0.04267979	-1.192129	1.012192	-6.544552	0	0
15.44401	-0.2015166	0.2578348	0.03659296	-0.7458569	-0.1837116	13.46929	0	0
15.46058	-0.2014408	0.2471345	0.004574794	-0.6459113	-0.9663657	3.01654	0	0
15.47714	-0.2025016	0.2348263	-0.06402904	-0.7429224	-2.070527	-2.927885	0	0
15.49371	-0.2031076	0.2293672	-0.03657857	-0.3295291	0.8284807	12.47659	0	0
15.51042	-0.2052272	0.2180079	-0.1268395	-0.6797423	-2.712372	-10.52402	0	0
15.52693	-0.2070426	0.2090466	-0.1099363	-0.5426834	0.5087649	4.125287	0	0
15.54345	-0.2093854	0.1959467	-0.1418848	-0.7933627	-0.9674106	-7.590641	0	0
15.55998	-0.2114491	0.1858042	-0.1248486	-0.613583	0.515595	5.440951	0	0
15.57654	-0.2127318	0.1753393	-0.0774243	-0.6316949	1.432916	-0.5472478	0	0
15.59311	-0.2141393	0.1610337	-0.0849656	-0.8635414	-0.2276099	-6.997544	0	0
15.60968	-0.2149433	0.1510542	-0.04852267	-0.6023293	1.09985	7.883399	0	0
15.62624	-0.21532	0.1447855	-0.02274306	-0.3784201	0.7780527	6.757788	0	0
15.64301	-0.2163244	0.132409	-0.05988266	-0.7379128	-1.114046	-10.7834	0	0
15.65953	-0.2169268	0.1216836	-0.03647818	-0.6494815	0.7031306	2.656702	0	0
15.67594	-0.2169017	0.1148315	0.001528819	-0.4174624	1.154263	7.04636	0	0
15.69251	-0.2153954	0.1081712	0.09092128	-0.4020168	2.710429	0.468319	0	0
15.70908	-0.2152196	0.1036464	0.01061216	-0.273133	-2.423804	3.889833	0	0
15.72564	-0.2147926	0.1020149	0.02577572	-0.0984813	0.4576636	5.271303	0	0
15.74221	-0.2097882	0.09774108	0.3020803	-0.2579857	8.33937	-4.814128	0	0
15.7591	-0.2045461	0.09392241	0.3104097	-0.2261222	0.2489791	0.9524573	0	0
15.77534	-0.2041424	0.09362853	0.02484757	-0.01808701	-8.618033	6.278334	0	0
15.79191	-0.2042433	0.093702	-0.00609348	0.004435179	-0.942949	0.6863787	0	0
15.80848	-0.2042433	0.093702	0	0	0.1839175	-0.1338655	0	0
15.82504	-0.2042433	0.093702	0	0	0	0	0	0
15.8582	-0.2042433	0.093702	0	0	0	0	0	0
15.87477	-0.2042433	0.093702	0	0	0	0	0	0
15.95774	-0.2042181	0.09368363	0.0003040694	-0.0002214516	0.003054929	-0.002224883	0	0
15.97417	-0.2042181	0.09368363	0	0	-0.003059032	0.002227872	0	0
15.99074	-0.2042181	0.09368363	0	0	0	0	0	0
16.0073	-0.2041929	0.09366526	0.001523732	-0.001108619	0.04598897	-0.0334601	0	0
16.02387	-0.2041929	0.09366526	0	0	-0.04598765	0.03345914	0	0
16.04044	-0.2041929	0.09366526	0	0	0	0	0	0
16.057	-0.2041929	0.09366526	0	0	0	0	0	0
16.07382	-0.2042181	0.09368363	-0.001501177	0.001092208	-0.04496909	0.03271807	0	0
16.09014	-0.2042181	0.09368363	0	0	0.04530561	-0.03296291	0	0
16.10684	-0.2042181	0.09368363	0	0	0	0	0	0
16.12327	-0.2042181	0.09368363	0	0	0	0	0	0
16.13987	-0.2042181	0.09368363	0	0	0	0	0	0
16.1564	-0.2042181	0.09368363	0	0	0	0	0	0
16.17297	-0.2042181	0.09368363	0	0	0	0	0	0
16.18954	-0.2042181	0.09368363	0	0	0	0	0	0
16.20611	-0.2042181	0.09368363	0	0	0	0	0	0
16.22267	-0.2042181	0.09368363	0	0	0	0	0	0
16.23944	-0.2042181	0.09368363	0	0	0	0	0	0
16.25595	-0.2042181	0.09368363	0	0	0	0	0	0
16.27246	-0.2042181	0.09368363	0	0	0	0	0	0
16.28897	-0.2042181	0.09368363	0	0	0	0	0	0
16.30551	-0.2042181	0.09368363	0	0	0	0	0	0
16.3225	-0.2042181	0.09368363	0	0	0	0	0	0
16.33864	-0.2042181	0.09368363	0	0	0	0	0	0
16.35521	-0.2042181	0.09368363	0	0	0	0	0	0
16.37253	-0.2042181	0.09368363	0	0	0	0	0	0
16.40491	-0.2042181	0.09368363	0	0	0	0	0	0
16.42147	-0.2042181	0.09368363	0	0	0	0	0	0
16.43808	-0.2042181	0.09368363	0	0	0	0	0	0
16.4726	-0.2042433	0.09373873	-0.0007307493	0.001596167	-0.01429191	0.03121764	0	0
16.489	-0.2043695	0.09394077	-0.007697049	0.01232555	-0.1368228	0.2107323	0	0
16.50563	-0.2046218	0.09430809	-0.01516987	0.02208509	-0.2262857	0.2955303	0	0
16.52213	-0.204748	0.09517118	-0.007643645	0.0523005	0.2271419	0.9119027	0	0
16.5387	-0.2055299	0.09669494	-0.0471979	0.09197451	-1.196091	1.199712	0	0
16.55526	-0.2084536	0.1012082	-0.176495	0.2724503	-3.90242	5.447083	0	0
16.57183	-0.2107698	0.1057536	-0.1398074	0.2743653	1.107298	0.05779838	0	0
16.58869	-0.2139634	0.1185785	-0.1894741	0.7608829	-1.486027	14.5566	0	0
16.6052	-0.214667	0.1316437	-0.04260642	0.7912577	4.401565	0.9103211	0	0
16.62153	-0.2149684	0.14544	-0.01845604	0.8447062	0.7352934	1.627317	0	0
16.67125	-0.2143906	0.1922848	0.01162209	0.9422663	0.4554003	1.477118	0	0
16.68826	-0.2141393	0.2058773	0.01477008	0.7990131	0.04717748	-2.146865	0	0
16.70436	-0.2138378	0.219986	0.01872261	0.8760122	0.1193495	2.325041	0	0
16.72128	-0.2132346	0.2402107	0.03565967	1.195571	0.5129033	9.677182	0	0
16.7375	-0.2127318	0.2507203	0.03100557	0.6480902	-0.140469	-16.52397	0	0
16.7543	-0.2118013	0.2717302	0.05535952	1.250028	0.7374659	18.22739	0	0
16.77063	-0.2110214	0.2873832	0.04776669	0.9587234	-0.2291523	-8.791602	0	0
16.7872	-0.2095113	0.3074727	0.09115333	1.212607	1.318978	7.718201	0	0
16.80384	-0.2090832	0.3121713	0.02571581	0.2822723	-1.970258	-28.01144	0	0
16.82035	-0.2078238	0.3289602	0.0762926	1.017015	1.525532	22.16182	0	0
16.8369	-0.2057569	0.3445319	0.1249036	0.9409902	1.470555	-2.299864	0	0
16.85347	-0.2053029	0.3494606	0.02740042	0.2974974	-2.944348	-19.43184	0	0
16.87003	-0.2040415	0.3531394	0.07613994	0.2220545	1.470962	-2.276871	0	0
16.90317	-0.1989133	0.3603369	0.1547771	0.2172326	1.582243	-0.09702168	0	0
16.91973	-0.198711	0.3604798	0.01221164	0.00862559	-2.868533	-4.197342	0	0
16.93644	-0.198711	0.3604798	0	0	-0.3670479	-0.2592612	0	0
16.95295	-0.198711	0.3604798	0	0	0	0	0	0
16.96946	-0.198711	0.3604798	0	0	0	0	0	0
16.986	-0.198711	0.3604798	0	0	0	0	0	0
17.00257	-0.198711	0.3604798	0	0	0	0	0	0
17.01913	-0.198711	0.3604798	0	0	0	0	0	0
17.0357	-0.198711	0.3604798	0	0	0	0	0	0
17.05252	-0.198711	0.3604798	0	0	0	0	0	0
17.06884	-0.198711	0.3604798	0	0	0	0	0	0
17.0854	-0.198711	0.3604798	0	0	0	0	0	0
17.10206	-0.198711	0.3604798	0	0	0	0	0	0
17.11854	-0.198711	0.3604798	0	0	0	0	0	0
17.1351	-0.198711	0.3604798	0	0	0	0	0	0
17.15167	-0.198711	0.3604798	0	0	0	0	0	0
17.18667	-0.198711	0.3604798	0	0	0	0	0	0
17.20363	-0.198711	0.3604798	0	0	0	0	0	0
17.2198	-0.198711	0.3604798	0	0	0	0	0	0
17.23665	-0.198711	0.3604798	0	0	0	0	0	0
17.25316	-0.198711	0.3604798	0	0	0	0	0	0
17.2695	-0.198711	0.3604798	0	0	0	0	0	0
17.28607	-0.198711	0.3604798	0	0	0	0	0	0
17.30264	-0.198711	0.3604798	0	0	0	0	0	0
17.31921	-0.198711	0.3604798	0	0	0	0	0	0
17.33577	-0.198711	0.3604798	0	0	0	0	0	0
17.35234	-0.198711	0.3604798	0	0	0	0	0	0
17.36891	-0.198711	0.3604798	0	0	0	0	0	0
17.38576	-0.198711	0.3604798	0	0	0	0	0	0
17.40204	-0.198711	0.3604798	0	0	0	0	0	0
17.41861	-0.198711	0.3604798	0	0	0	0	0	0
17.4353	-0.198711	0.3604798	0	0	0	0	0	0
17.45181	-0.198711	0.3604798	0	0	0	0	0	0
17.46831	-0.198711	0.3604798	0	0	0	0	0	0
17.48488	-0.198711	0.3604798	0	0	0	0	0	0
17.50144	-0.198711	0.3604798	0	0	0	0	0	0
17.51801	-0.198711	0.3604798	0	0	0	0	0	0
17.53458	-0.198711	0.3604798	0	0	0	0	0	0
17.55115	-0.198711	0.3604798	0	0	0	0	0	0
17.56789	-0.198711	0.3604798	0	0	0	0	0	0
17.58428	-0.198711	0.3604798	0	0	0	0	0	0
17.60092	-0.198711	0.3604798	0	0	0	0	0	0
17.61741	-0.198711	0.3604798	0	0	0	0	0	0
17.63398	-0.198711	0.3604798	0	0	0	0	0	0
17.65055	-0.198711	0.3604798	0	0	0	0	0	0
17.66711	-0.198711	0.3604798	0	0	0	0	0	0
17.68368	-0.198711	0.3604798	0	0	0	0	0	0
17.70048	-0.198711	0.3604798	0	0	0	0	0	0
17.71681	-0.198711	0.3604798	0	0	0	0	0	0
17.73351	-0.198711	0.3604798	0	0	0	0	0	0
17.75002	-0.198711	0.3604798	0	0	0	0	0	0
17.76653	-0.198711	0.3604798	0	0	0	0	0	0
17.84935	-0.1987363	0.3603905	-0.0003053459	-0.001078517	-0.003074145	-0.01085824	0	0
17.8661	-0.1987363	0.3603905	0	0	0.003066607	0.01083161	0	0
17.88248	-0.1987363	0.3603905	0	0	0	0	0	0
17.89912	-0.1987363	0.3603905	0	0	0	0	0	0
17.91564	-0.1987363	0.3603905	0	0	0	0	0	0
17.93218	-0.1987363	0.3603905	0	0	0	0	0	0
17.94875	-0.1987363	0.3603905	0	0	0	0	0	0
17.96531	-0.1987363	0.3603905	0	0	0	0	0	0
17.98219	-0.1987363	0.3603905	0	0	0	0	0	0
17.99845	-0.1987363	0.3603905	0	0	0	0	0	0
18.01521	-0.1987363	0.3603905	0	0	0	0	0	0
18.03172	-0.1987363	0.3603905	0	0	0	0	0	0
18.04815	-0.1987363	0.3603905	0	0	0	0	0	0
18.06471	-0.1987363	0.3603905	0	0	0	0	0	0
18.08128	-0.1987363	0.3603905	0	0	0	0	0	0
18.09785	-0.1987363	0.3603905	0	0	0	0	0	0
18.11441	-0.1987363	0.3603905	0	0	0	0	0	0
18.13098	-0.1987363	0.3603905	0	0	0	0	0	0
18.14755	-0.1987363	0.3603905	0	0	0	0	0	0
18.16431	-0.1987363	0.3603905	0	0	0	0	0	0
18.18068	-0.1987363	0.3603905	0	0	0	0	0	0
18.19734	-0.1987363	0.3603905	0	0	0	0	0	0
18.21385	-0.1987616	0.3603726	-0.001531633	-0.001081259	-0.04617692	-0.03259867	0	0
18.23038	-0.1987616	0.3603726	0	0	0.04635284	0.03272286	0	0
18.24737	-0.1989133	0.3602655	-0.008929699	-0.006306825	-0.2663557	-0.1881204	0	0
18.26351	-0.1989892	0.3602119	-0.004700241	-0.003319989	0.1276526	0.09014806	0	0
18.28008	-0.1995454	0.3599261	-0.03357594	-0.01724938	-0.8828542	-0.4258813	0	0
18.29665	-0.2005312	0.360194	-0.05950218	0.01617186	-0.7824554	1.008655	0	0
18.31322	-0.2023754	0.3614979	-0.1112996	0.07869158	-1.563159	1.88674	0	0
18.32978	-0.2134357	0.3693398	-0.6676778	0.4733916	-16.79153	11.91207	0	0
18.34645	-0.2248684	0.377523	-0.686129	0.4911161	-0.5552943	0.5334223	0	0
18.36296	-0.2385287	0.3873178	-0.8273047	0.5931941	-4.255545	3.076998	0	0
18.37948	-0.2532832	0.3979759	-0.8928405	0.644955	-1.983699	1.566749	0	0
18.39605	-0.2681215	0.4087839	-0.8956457	0.652377	-0.08476765	0.2242795	0	0
18.41299	-0.292567	0.4268048	-1.442807	1.063619	-16.32819	12.27213	0	0
18.42918	-0.3021895	0.4340139	-0.594363	0.4452941	25.60756	-18.66215	0	0
18.44575	-0.3216637	0.4487176	-1.175603	0.8876187	-17.74512	13.50408	0	0
18.46253	-0.3408417	0.4633745	-1.14298	0.8735258	0.9783527	-0.422649	0	0
18.49613	-0.3587015	0.4772663	-0.531422	0.4133557	12.13736	-9.132817	0	0
18.5127	-0.3739786	0.4892894	-0.9221286	0.7257152	-7.786922	6.225436	0	0
18.52927	-0.3857358	0.498657	-0.7096693	0.5654268	6.412035	-4.837515	0	0
18.54584	-0.3962403	0.5070791	-0.6340483	0.5083629	2.282245	-1.722189	0	0
18.5624	-0.3992599	0.5095267	-0.1822635	0.1477377	13.63489	-10.88369	0	0
18.57897	-0.4040753	0.5134452	-0.2906581	0.2365193	-3.271356	2.679432	0	0
18.59554	-0.40794	0.5166039	-0.2332741	0.1906624	1.731853	-1.383962	0	0
18.61214	-0.4115045	0.5195284	-0.2147338	0.1761749	0.5590006	-0.4368072	0	0
18.62867	-0.4140658	0.5216365	-0.1549072	0.1274981	1.805569	-1.469067	0	0
18.64524	-0.4140879	0.5216184	-0.001331165	-0.001097312	4.639474	-3.884819	0	0
18.66181	-0.4141099	0.5216002	-0.001331165	-0.001097312	0	0	0	0
18.67837	-0.414132	0.521582	-0.001331165	-0.001097312	0	0	0	0
18.74474	-0.4141761	0.5215093	-0.0006646452	-0.001095766	0.008037176	1.863384E-05	0	0
18.76125	-0.4141761	0.5215093	0	0	0.008020104	0.01322233	0	0
18.77777	-0.414132	0.5214729	0.002668475	-0.002199688	0.08076718	-0.06657836	0	0
18.79434	-0.4140438	0.5214003	0.00532466	-0.004385649	0.08025625	-0.06604847	0	0
18.81091	-0.4136026	0.5210367	0.0266323	-0.02194264	0.6430658	-0.5298709	0	0
18.82748	-0.4132936	0.5207823	0.0186471	-0.01535877	-0.2409936	0.1987016	0	0
18.84404	-0.4132053	0.5207096	0.005330057	-0.004389247	-0.4019093	0.3310608	0	0
18.86061	-0.4131612	0.5206732	0.002664129	-0.002194623	-0.08045787	0.06623387	0	0
18.87718	-0.4129625	0.5205097	0.01199446	-0.009873345	0.2816061	-0.2317576	0	0
18.89384	-0.4127638	0.5203461	0.01192034	-0.009812335	-0.002230137	0.001835763	0	0
18.91031	-0.4124104	0.5200554	0.02146017	-0.01765754	0.2879125	-0.2367686	0	0
18.92688	-0.4121895	0.5198373	0.01333324	-0.01316055	-0.2460218	0.1361348	0	0
18.94345	-0.4119686	0.5195829	0.01333684	-0.01535517	0.0001085788	-0.06623387	0	0
18.96001	-0.4117034	0.5193649	0.01600636	-0.01316055	0.08056647	0.06623387	0	0
18.97658	-0.411195	0.5189106	0.03069055	-0.0274184	0.4431697	-0.430303	0	0
18.99315	-0.4106642	0.5184747	0.03203791	-0.0263139	0.04066327	0.03333411	0	0
19.00971	-0.4105314	0.5183657	0.008012175	-0.006580273	-0.725098	0.5955619	0	0
19.02628	-0.4105314	0.5183657	0	0	-0.2418079	0.198593	0	0
19.04285	-0.4105314	0.5183657	0	0	0	0	0	0
19.05942	-0.4105314	0.5183657	0	0	0	0	0	0
19.07598	-0.4105314	0.5183657	0	0	0	0	0	0
19.09255	-0.4105314	0.5183657	0	0	0	0	0	0
19.10912	-0.4105314	0.5183657	0	0	0	0	0	0
19.14342	-0.4105314	0.5183657	0	0	0	0	0	0
19.15999	-0.4105314	0.5183657	0	0	0	0	0	0
19.17656	-0.4105314	0.5183657	0	0	0	0	0	0
19.19312	-0.4105314	0.5183657	0	0	0	0	0	0
19.20969	-0.4105314	0.5183657	0	0	0	0	0	0
19.22658	-0.4105314	0.5183657	0	0	0	0	0	0
19.24282	-0.4105314	0.5183293	0	-0.002238959	0	-0.06757581	0	0
19.25961	-0.4105093	0.5182385	0.001319247	-0.005408381	0.03994833	-0.09597375	0	0
19.27596	-0.4104208	0.5181659	0.005411879	-0.004443975	0.1235159	0.02910583	0	0
19.29252	-0.4103765	0.5181295	0.002671632	-0.002194876	-0.08325192	0.06833026	0	0
19.30914	-0.4103765	0.5180932	0	-0.002183735	-0.08050027	0.0003357074	0	0
19.32566	-0.4103544	0.518075	0.001340729	-0.001100733	0.04045863	0.03268129	0	0
19.34222	-0.4103544	0.518075	0	0	-0.04053329	0.03327766	0	0
19.35879	-0.4103544	0.518075	0	0	0	0	0	0
19.42401	-0.4101995	0.5178389	0.002375165	-0.003620778	0.02904014	-0.04426973	0	0
19.44058	-0.4100667	0.5176209	0.008013974	-0.01315695	0.06894336	-0.1165947	0	0
19.45715	-0.4098896	0.517403	0.0106889	-0.01315335	0.08072931	0.0001085788	0	0
19.47529	-0.4071414	0.5149699	0.1514621	-0.1340961	4.055482	-3.484193	0	0
19.49186	-0.4055649	0.5136811	0.09514757	-0.07778145	-1.622256	1.622258	0	0
19.50843	-0.3973819	0.5069522	0.493927	-0.4061565	12.0345	-9.909806	0	0
19.52499	-0.3902006	0.5010827	0.4334615	-0.3542878	-1.824851	1.565399	0	0
19.54156	-0.3803249	0.4930672	0.596103	-0.4838156	4.908527	-3.909155	0	0
19.55813	-0.3730205	0.4872298	0.4408945	-0.3523468	-4.684201	3.967735	0	0
19.57469	-0.3681046	0.4833472	0.2967581	-0.2343768	-4.350296	3.560547	0	0
19.59134	-0.3557912	0.4736961	0.7396633	-0.579738	13.33543	-10.39848	0	0
19.60785	-0.3454391	0.4656609	0.6269439	-0.4866329	-3.399335	2.807815	0	0
19.6244	-0.3427338	0.4635725	0.1635355	-0.1262467	-14.01959	10.90284	0	0
19.64096	-0.3307077	0.4543794	0.7259823	-0.5549601	16.98837	-12.94903	0	0
19.65753	-0.324125	0.4494004	0.397333	-0.3005303	-9.919227	7.679147	0	0
19.67409	-0.317988	0.4447836	0.3704735	-0.2787061	-0.8106678	0.6586939	0	0
19.69066	-0.3104666	0.4391459	0.4539362	-0.3402498	2.518909	-1.857393	0	0
19.70723	-0.3047538	0.4349289	0.344869	-0.2545715	-3.291654	2.585777	0	0
19.72394	-0.2983713	0.4302294	0.3819466	-0.2812322	1.114258	-0.8012089	0	0
19.74036	-0.2898143	0.4240085	0.5210051	-0.3787633	4.196793	-2.943496	0	0
19.75693	-0.2824516	0.4188122	0.4444624	-0.3136892	-2.320212	1.972571	0	0
19.77349	-0.2773958	0.4152656	0.3051714	-0.2140711	-4.204054	3.006652	0	0
19.79006	-0.2738382	0.4127943	0.2147596	-0.1491832	-2.728789	1.958434	0	0
19.80663	-0.2671425	0.4079247	0.4041507	-0.2939284	5.716163	-4.368671	0	0
19.84015	-0.2552552	0.3993712	0.3545958	-0.2551509	-0.9893031	0.7741461	0	0
19.85672	-0.2501731	0.3957579	0.306758	-0.218097	-0.9550211	0.7397336	0	0
19.87354	-0.245152	0.3922348	0.2985015	-0.2094501	-0.2472892	0.2589809	0	0
19.88985	-0.2426243	0.3904824	0.1549438	-0.1074184	-4.332579	3.079322	0	0
19.90656	-0.2406148	0.3890342	0.1202578	-0.08666783	-1.050334	0.6283528	0	0
19.92308	-0.2393982	0.3881223	0.07366342	-0.0552099	-1.402345	0.9467862	0	0
19.93955	-0.239423	0.3881402	-0.001506961	0.001085446	-2.278615	1.706462	0	0
19.95612	-0.239423	0.3881402	0	0	0.04560883	-0.0328515	0	0
19.97269	-0.239423	0.3881402	0	0	0	0	0	0
19.98925	-0.239423	0.3881402	0	0	0	0	0	0
20.00582	-0.239423	0.3881402	0	0	0	0	0	0
20.02555	-0.239423	0.3881402	0	0	0	0	0	0
20.04282	-0.2394479	0.3881223	-0.0014381	-0.001035225	-0.0388709	-0.02798145	0	0
20.06027	-0.2394479	0.3881223	0	0	0.04141603	0.02981358	0	0
20.07684	-0.2394479	0.3881223	0	0	0	0	0	0
20.0934	-0.2394479	0.3881223	0	0	0	0	0	0
20.10997	-0.2394479	0.3881223	0	0	0	0	0	0
20.12654	-0.2394479	0.3881223	0	0	0	0	0	0
20.1431	-0.2394727	0.3881044	-0.001499532	-0.001079447	-0.04525858	-0.03257966	0	0
20.15967	-0.2394975	0.3880866	-0.00149846	-0.001079323	3.235696E-05	3.75255E-06	0	0
20.17624	-0.2394975	0.3880866	0	0	0.04522362	0.03257403	0	0
20.1928	-0.2395224	0.3880687	-0.00149936	-0.001079323	-0.04525076	-0.03257403	0	0
20.20937	-0.2395224	0.3880687	0	0	0.04525076	0.03257403	0	0
20.22629	-0.2395224	0.3880687	0	0	0	0	0	0
20.2425	-0.2395224	0.3880687	0	0	0	0	0	0
20.25907	-0.2395472	0.3880508	-0.00149936	-0.001077524	-0.04574316	-0.03287361	0	0
20.27564	-0.2395472	0.3880508	0	0	0.04525337	0.03252162	0	0
20.29234	-0.239572	0.3880329	-0.001485972	-0.001070328	-0.04466161	-0.03216923	0	0
20.30886	-0.239572	0.3879972	0	-0.002165877	0.04473341	-0.03298022	0	0
20.32537	-0.239572	0.3879972	0	0	0	0.06558528	0	0
20.34191	-0.239572	0.3879972	0	0	0	0	0	0
20.35847	-0.239572	0.3879972	0	0	0	0	0	0
20.39161	-0.239572	0.3879972	0	0	0	0	0	0
20.40817	-0.239572	0.3879972	0	0	0	0	0	0
20.42474	-0.239572	0.3879972	0	0	0	0	0	0
20.44131	-0.239572	0.3879972	0	0	0	0	0	0
20.45787	-0.239572	0.3879972	0	0	0	0	0	0
20.491	-0.239572	0.3879972	0	0	0	0	0	0
20.51444	-0.239572	0.3879972	0	0	0	0	0	0
20.531	-0.239572	0.3879972	0	0	0	0	0	0
20.54757	-0.239572	0.3879972	0	0	0	0	0	0
20.56414	-0.239572	0.3879972	0	0	0	0	0	0
20.5807	-0.239572	0.3879972	0	0	0	0	0	0
20.59756	-0.239572	0.3879972	0	0	0	0	0	0
20.61384	-0.239572	0.3879972	0	0	0	0	0	0
20.63041	-0.239572	0.3879972	0	0	0	0	0	0
20.64709	-0.239572	0.3879972	0	0	0	0	0	0
20.66354	-0.239572	0.3879972	0	0	0	0	0	0
20.68011	-0.239572	0.3879972	0	0	0	0	0	0
20.69667	-0.2395969	0.3879793	-0.00149936	-0.001079323	-0.04525076	-0.03257403	0	0
20.71324	-0.239572	0.3879614	0.00149936	-0.001079323	0.09050152	0	0	0
20.73015	-0.239572	0.3879257	0	-0.002114582	-0.04478415	-0.030922	0	0
20.74637	-0.2395472	0.387872	0.00153053	-0.00330543	0.04619414	-0.03594192	0	0
20.76294	-0.2395224	0.3878184	0.00149936	-0.003237969	-0.0009506749	0.00205752	0	0
20.77969	-0.2394975	0.3878005	0.001483138	-0.001067646	-0.0004868975	0.06514423	0	0
20.7962	-0.2394975	0.3878005	0	0	-0.04458923	0.03209783	0	0
20.81264	-0.2394975	0.3878005	0	0	0	0	0	0
20.82922	-0.2394975	0.3878005	0	0	0	0	0	0
20.84577	-0.2394975	0.3878005	0	0	0	0	0	0
20.86234	-0.2394975	0.3878005	0	0	0	0	0	0
20.87891	-0.2394975	0.3878005	0	0	0	0	0	0
20.89547	-0.2394975	0.3878005	0	0	0	0	0	0
20.91204	-0.2394975	0.3878005	0	0	0	0	0	0
20.92879	-0.2394975	0.3878005	0	0	0	0	0	0
20.9453	-0.2394975	0.3878005	0	0	0	0	0	0
20.96174	-0.2394975	0.3878005	0	0	0	0	0	0
21.00169	-0.2394727	0.3877826	0.0006213895	-0.0004475795	0.01102047	-0.007937912	0	0
21.01978	-0.2393734	0.3877469	0.005490822	-0.001976597	0.08389146	-0.02634219	0	0
21.05338	-0.2389759	0.3874608	0.01182896	-0.008513696	0.1226158	-0.1264648	0	0
21.06948	-0.2383051	0.3870139	0.04165618	-0.02775228	0.6001248	-0.3870811	0	0
21.08605	-0.2329307	0.3831885	0.3244387	-0.2309298	8.655971	-6.219262	0	0
21.11025	-0.2244182	0.3771656	0.3516943	-0.248834	0.6685271	-0.4391561	0	0
21.12682	-0.2199865	0.3740386	0.2674958	-0.1887484	-2.06513	1.473715	0	0
21.14339	-0.2179555	0.3725914	0.1225913	-0.08735501	-4.373227	3.060059	0	0
21.15996	-0.2179806	0.3725735	-0.00151465	-0.001079323	-3.745525	2.603806	0	0
21.17652	-0.2179304	0.3725378	0.0030284	-0.002156847	0.1371095	-0.03251974	0	0
21.19309	-0.2177799	0.3724306	0.009085202	-0.006470541	0.1827946	-0.1301876	0	0
21.20966	-0.2163244	0.3713943	0.08785599	-0.06254857	2.377307	-1.692438	0	0
21.22622	-0.2142147	0.3698936	0.1273394	-0.09058218	1.191613	-0.8460562	0	0
21.24279	-0.2092595	0.3663743	0.2990984	-0.2124252	5.183696	-3.677229	0	0
21.25936	-0.2056056	0.3637842	0.2205525	-0.1563399	-2.370521	1.692656	0	0
21.27604	-0.2032086	0.3620873	0.1436898	-0.1017215	-2.311736	1.642714	0	0
21.29249	-0.2002532	0.3599975	0.179625	-0.1270161	1.084527	-0.7633915	0	0
21.30906	-0.199419	0.3594081	0.05034642	-0.03557219	-3.914932	2.769187	0	0
21.32608	-0.1990903	0.359176	0.01931801	-0.01364582	-0.9238884	0.6528699	0	0
21.34219	-0.1990398	0.3591402	0.003138315	-0.002215499	-0.4883603	0.3450075	0	0
21.3591	-0.1989386	0.3590331	0.005982767	-0.006338843	0.08613829	-0.1248669	0	0
21.40846	-0.1988374	0.3589616	0.002049581	-0.001447296	-0.05935531	0.07381783	0	0
21.42515	-0.1988374	0.3589616	0	0	-0.03103274	0.02191353	0	0
21.44166	-0.1988374	0.3589616	0	0	0	0	0	0
21.45816	-0.1988374	0.3589616	0	0	0	0	0	0
21.47473	-0.1988374	0.3589616	0	0	0	0	0	0
21.49129	-0.1988374	0.3589616	0	0	0	0	0	0
21.50786	-0.1988374	0.3589616	0	0	0	0	0	0
21.52443	-0.1988374	0.3589616	0	0	0	0	0	0
21.54099	-0.1988374	0.3589616	0	0	0	0	0	0
21.55774	-0.1988374	0.3589616	0	0	0	0	0	0
21.57426	-0.1988374	0.3589616	0	0	0	0	0	0
21.59077	-0.1988627	0.3589438	-0.001532535	-0.001083064	-0.04640694	-0.03279643	0	0
21.60726	-0.1988627	0.3589438	0	0	0.04643376	0.03281538	0	0
21.62383	-0.1988627	0.3589438	0	0	0	0	0	0
21.6404	-0.1988627	0.3589438	0	0	0	0	0	0
21.65696	-0.1988627	0.3589438	0	0	0	0	0	0
21.67353	-0.198888	0.3589259	-0.001526343	-0.001077524	-0.04606511	-0.03251974	0	0
21.6901	-0.198888	0.3589259	0	0	0.04606511	0.03251974	0	0
21.70666	-0.198888	0.3589259	0	0	0	0	0	0
21.72336	-0.198888	0.3589259	0	0	0	0	0	0
21.7398	-0.198888	0.3589259	0	0	0	0	0	0
21.75639	-0.198888	0.3589259	0	0	0	0	0	0
21.77293	-0.198888	0.3589259	0	0	0	0	0	0
21.7895	-0.198888	0.3589259	0	0	0	0	0	0
21.83044	-0.1989133	0.3588723	-0.0006176767	-0.001308878	-0.01074098	-0.02276049	0	0
21.84686	-0.1988627	0.3587652	0.003078916	-0.006522512	0.06443939	-0.09088463	0	0
21.86346	-0.1985845	0.3583901	0.01676545	-0.02260417	0.4144919	-0.4870274	0	0
21.88	-0.1982304	0.3575685	0.02141027	-0.04967528	0.1401891	-0.8170549	0	0
21.89698	-0.1964085	0.3557826	0.1072668	-0.1051498	2.561081	-1.654793	0	0
21.91313	-0.1909603	0.3506928	0.337364	-0.3151647	6.944346	-6.338263	0	0
21.9297	-0.1881937	0.340389	0.1669902	-0.6219365	-5.207541	-9.376595	0	0
21.94626	-0.1877619	0.3202628	0.02606026	-1.214823	-4.253273	-17.89335	0	0
21.96283	-0.1879143	0.3032559	-0.009198531	-1.026535	-1.064112	5.682539	0	0
21.9794	-0.1883461	0.2802114	-0.02605846	-1.390972	-0.5088336	-10.99873	0	0
21.99597	-0.1885492	0.2643545	-0.01226111	-0.9571239	0.4164048	13.09357	0	0
22.01253	-0.1888793	0.2503617	-0.0199257	-0.8447035	-0.2313311	3.393049	0	0
22.0291	-0.190326	0.2343775	-0.08732353	-0.9648096	-2.034188	-3.625018	0	0
22.04567	-0.1916451	0.2237433	-0.07962166	-0.6418824	0.232443	9.745961	0	0
22.06223	-0.1939519	0.2109909	-0.1392399	-0.7697363	-1.799281	-3.858639	0	0
22.07911	-0.195573	0.2053009	-0.09602728	-0.3370444	1.291888	12.93581	0	0
22.09563	-0.2001269	0.1956762	-0.2757902	-0.5828962	-5.383112	-7.362188	0	0
22.11193	-0.2032591	0.1888196	-0.1920669	-0.4204496	2.551003	4.949663	0	0
22.12865	-0.2076726	0.1809624	-0.2640621	-0.4700944	-2.180225	-1.503392	0	0
22.14516	-0.2096875	0.175466	-0.1220273	-0.3328746	4.274807	4.129892	0	0
22.16167	-0.2112227	0.1692589	-0.0929757	-0.375916	0.8797171	-1.303343	0	0
22.1782	-0.2123043	0.16551	-0.06544288	-0.226833	0.8333408	4.512321	0	0
22.26104	-0.2129078	0.1272315	-0.007285071	-0.4620981	0.5853046	-2.367726	0	0
22.29417	-0.2119522	0.1210627	0.02883861	-0.1861742	0.31149	2.379257	0	0
22.31074	-0.2119271	0.121081	0.001518248	0.001102259	-0.5496868	3.76801	0	0
22.3275	-0.2119522	0.1210627	-0.001500455	-0.001089341	-0.09056765	-0.06575277	0	0
22.34407	-0.2118768	0.121008	0.004554743	-0.003306776	0.1816691	-0.06652787	0	0
22.36082	-0.211751	0.1209166	0.007509076	-0.005452733	0.08868208	-0.06441657	0	0
22.37733	-0.2117007	0.1208801	0.003047218	-0.002211647	-0.1341495	0.09744598	0	0
22.39434	-0.2116755	0.1208619	0.001478585	-0.001073463	-0.04678929	0.03394981	0	0
22.41035	-0.2116504	0.1208436	0.001570876	-0.001140467	0.002794662	-0.002028945	0	0
22.4269	-0.2116252	0.1208253	0.001519823	-0.001103402	-0.001567859	0.001138274	0	0
22.44347	-0.2116001	0.1208071	0.001518248	-0.001102708	-4.755069E-05	2.094381E-05	0	0
22.46823	-0.2115498	0.120734	0.002031659	-0.002949998	0.01242272	-0.04469779	0	0
22.4848	-0.2114995	0.1206975	0.003037395	-0.002204967	0.0243352	0.01802708	0	0
22.50142	-0.2113988	0.1206244	0.006054867	-0.004396325	0.09093139	-0.06603649	0	0
22.51793	-0.211273	0.1204966	0.007616714	-0.007740772	0.04713934	-0.1009414	0	0
22.5345	-0.2110718	0.1203505	0.01214868	-0.008819418	0.1369879	-0.03260428	0	0
22.55107	-0.2110214	0.1203139	0.003038294	-0.002204967	-0.274952	0.1996245	0	0
22.56763	-0.2110214	0.1203139	0	0	-0.0916959	0.06654604	0	0
22.5842	-0.2110214	0.1203139	0	0	0	0	0	0
22.60077	-0.2109963	0.1202957	0.001518248	-0.001102708	0.04582081	-0.03327981	0	0
22.61733	-0.2109711	0.1202774	0.001519147	-0.001102259	2.714469E-05	1.357235E-05	0	0
22.6339	-0.2109208	0.1202409	0.003037395	-0.002204967	0.04582081	-0.0332798	0	0
22.65053	-0.2108956	0.1202226	0.001513022	-0.001098913	-0.04592635	0.03332323	0	0
22.66703	-0.2108956	0.1202226	0	0	-0.04566572	0.03316716	0	0
22.6836	-0.2108956	0.1202226	0	0	0	0	0	0
22.70017	-0.2108956	0.1202226	0	0	0	0	0	0
22.71707	-0.2108956	0.1202226	0	0	0	0	0	0
22.7333	-0.2108956	0.1202226	0	0	0	0	0	0
22.74987	-0.2108956	0.1202226	0	0	0	0	0	0
22.76643	-0.2108956	0.1202226	0	0	0	0	0	0
22.78312	-0.2108956	0.1202226	0	0	0	0	0	0
22.79963	-0.2108956	0.1202226	0	0	0	0	0	0
22.81614	-0.2108956	0.1202226	0	0	0	0	0	0
22.8327	-0.2108956	0.1202226	0	0	0	0	0	0
22.84927	-0.2108956	0.1202226	0	0	0	0	0	0
22.86584	-0.2108956	0.1202226	0	0	0	0	0	0
22.88243	-0.2108956	0.1202226	0	0	0	0	0	0
22.89897	-0.2108956	0.1202226	0	0	0	0	0	0
22.91554	-0.2108956	0.1202226	0	0	0	0	0	0
22.93223	-0.2108956	0.1202226	0	0	0	0	0	0
22.94874	-0.2108956	0.1202226	0	0	0	0	0	0
22.96524	-0.2108956	0.1202226	0	0	0	0	0	0
23.03151	-0.2108956	0.1202226	0	0	0	0	0	0
23.04807	-0.2109208	0.1202409	-0.001518248	0.001102708	-0.01832832	0.01331192	0	0
23.06464	-0.2109208	0.1202409	0	0	0.04582081	-0.03327981	0	0
23.08121	-0.2109208	0.1202774	0	0.002204967	0	0.06654604	0	0
23.09777	-0.2109208	0.1202774	0	0	0	-0.06654604	0	0
23.13091	-0.2108956	0.1205879	0.0007591239	0.009370548	0.0152736	0.1885358	0	0
23.14748	-0.2108956	0.1210627	0	0.02866097	-0.0152736	0.3881241	0	0
23.16404	-0.2111472	0.1217201	-0.01518697	0.03967996	-0.4583438	0.3325538	0	0
23.18061	-0.2116504	0.1229616	-0.03036945	0.07493695	-0.4582081	1.064058	0	0
23.22081	-0.2133854	0.1413484	-0.04315834	0.4573691	-0.2252818	6.736706	0	0
23.23738	-0.2130335	0.1542857	0.02124288	0.7808992	1.134455	5.699121	0	0
23.25396	-0.2127569	0.1574974	0.01668111	0.1937225	-0.1376269	-17.71491	0	0
23.27051	-0.2120277	0.1703451	0.04405209	0.7761128	0.8261056	17.57759	0	0
23.28708	-0.2107446	0.1826971	0.07744413	0.7455712	1.00818	-0.9221188	0	0
23.30364	-0.2094609	0.1917434	0.07749442	0.5460987	0.001517885	-6.020438	0	0
23.32021	-0.2087558	0.2050487	0.04255951	0.803109	-1.054398	7.757032	0	0
23.33678	-0.2081513	0.2157415	0.03648921	0.6454172	-0.1832018	-4.759147	0	0
23.35353	-0.2063116	0.2314686	0.1098323	0.9389136	2.201332	8.809058	0	0
23.37004	-0.2056308	0.2400312	0.04123585	0.5186314	-2.062408	-12.63613	0	0
23.38648	-0.2042938	0.2579423	0.0813265	1.08952	1.216732	17.32619	0	0
23.40306	-0.2031833	0.2716228	0.06695248	0.8248063	-0.4352368	-8.015366	0	0
23.41961	-0.2018955	0.2907088	0.07782154	1.153361	0.3280288	9.91581	0	0
23.43618	-0.2006829	0.3050428	0.07319609	0.8652015	-0.1396767	-8.701689	0	0
23.4531	-0.2000005	0.3231383	0.04033068	1.069466	-0.9814286	6.099759	0	0
23.51507	-0.199596	0.369965	0.006526768	0.7556393	-0.4284951	-3.978039	0	0
23.53166	-0.2001016	0.380579	-0.03047486	0.6397753	-0.470999	-1.474849	0	0
23.5482	-0.2016429	0.3939337	-0.09316456	0.807204	-1.891979	5.053007	0	0
23.56477	-0.2020723	0.3969563	-0.02591814	0.182447	2.030904	-18.86824	0	0
23.58134	-0.2029056	0.4070656	-0.05029825	0.6101989	-0.7357931	12.90958	0	0
23.59791	-0.2028046	0.4127227	0.006096377	0.3414618	1.701993	-8.110499	0	0
23.61454	-0.204319	0.4154447	-0.09104371	0.1636406	-2.925799	-5.355866	0	0
23.64774	-0.2052525	0.4161074	-0.02811414	0.01995964	1.262753	-2.883121	0	0
23.66425	-0.2052525	0.4160715	0	-0.002169487	0.5655274	-0.4451365	0	0
23.68085	-0.205202	0.4160357	0.003039541	-0.00215802	0.09179693	0.0003463112	0	0
23.69737	-0.205202	0.4159999	0	-0.002168235	-0.09177051	-0.0003084059	0	0
23.71394	-0.2051768	0.4159103	0.001521845	-0.005405609	0.04599293	-0.09783933	0	0
23.73051	-0.2051516	0.4158924	0.001522745	-0.001081122	2.714469E-05	0.1305133	0	0
23.74708	-0.2051263	0.4158387	0.001522745	-0.003243366	0	-0.06525665	0	0
23.76364	-0.2051263	0.4158387	0	0	-0.04595653	0.09788498	0	0
23.78021	-0.2051263	0.4158029	0	-0.002162244	0	-0.06525666	0	0
23.79685	-0.2051263	0.4157312	0	-0.004306145	0	-0.06456553	0	0
23.81336	-0.2051263	0.4156954	0	-0.002169487	0	0.06445477	0	0
23.82991	-0.2051011	0.4156417	0.001524324	-0.003244929	0.04610505	-0.03252805	0	0
23.84689	-0.2051011	0.4156059	0	-0.002110253	-0.04546766	0.0338452	0	0
23.87002	-0.2050759	0.4154088	0.001089936	-0.008517222	0.02717522	-0.159744	0	0
23.88659	-0.2050759	0.4153372	0	-0.004324488	-0.02745463	0.1056116	0	0
23.90343	-0.205202	0.4151044	-0.007488638	-0.01382518	-0.2241623	-0.2843904	0	0
23.91972	-0.2052272	0.4150865	-0.001548415	-0.001099347	0.1792866	0.3840885	0	0
23.93645	-0.205202	0.4150686	0.001507988	-0.001070645	0.09255678	0.0008692002	0	0
23.95296	-0.205202	0.4150327	0	-0.002169487	-0.04536493	-0.03305657	0	0
23.96947	-0.205202	0.4150327	0	0	0	0.06569459	0	0
24.00255	-0.2051768	0.4150149	0.0007621951	-0.0005405639	0.01536961	-0.01090043	0	0
24.01912	-0.2051768	0.4150149	0	0	-0.01535248	0.01088829	0	0
24.03568	-0.2051768	0.4150149	0	0	0	0	0	0
24.05225	-0.2051768	0.414979	0	-0.002162244	0	-0.06525666	0	0
24.06882	-0.2051516	0.4149611	0.001522745	-0.001081122	0.04595653	0.03262833	0	0
24.08549	-0.2050759	0.4148716	0.004537559	-0.005370368	0.09068969	-0.1290263	0	0
24.10195	-0.204975	0.4147999	0.006131215	-0.004353054	0.04809663	0.03070259	0	0
24.11858	-0.2049498	0.4147462	0.001516607	-0.00323041	-0.1394859	0.03393421	0	0
24.13509	-0.2048489	0.4146746	0.006112796	-0.004339977	0.1387212	-0.03348873	0	0
24.15165	-0.2047732	0.414585	0.004568235	-0.005405609	-0.04669828	-0.03221836	0	0
24.16822	-0.204748	0.4145671	0.001522745	-0.001079323	-0.09191307	0.1305676	0	0
24.18513	-0.2047732	0.4145492	-0.001492166	-0.001059412	-0.09006733	0.0005948302	0	0
24.20164	-0.2047732	0.4145134	0	-0.002169738	0.04465325	-0.03322664	0	0
24.21792	-0.2047732	0.4145134	0	0	0	0.06616072	0	0
24.23449	-0.2047732	0.4145134	0	0	0	0	0	0
24.25117	-0.2047984	0.4144955	-0.001511953	-0.00107346	-0.04546855	-0.03228186	0	0
24.26762	-0.2047984	0.4144955	0	0	0.04563345	0.03239894	0	0
24.28421	-0.2047984	0.4144955	0	0	0	0	0	0
24.30075	-0.2048236	0.4144776	-0.0015245	-0.001082368	-0.04601215	-0.03266782	0	0
24.31732	-0.2048236	0.4144418	0	-0.002162244	0.04603601	-0.03260949	0	0
24.33389	-0.2048489	0.4144239	-0.001522745	-0.001081122	-0.04595653	0.03262833	0	0
24.35046	-0.2048993	0.414388	-0.00304549	-0.002162244	-0.04595653	-0.03262833	0	0
24.36702	-0.2049246	0.4143701	-0.001522745	-0.001079323	0.04595653	0.03268262	0	0
24.38359	-0.2049246	0.4143701	0	0	0.04595653	0.03257403	0	0
24.40016	-0.204975	0.4143343	-0.003044941	-0.002162493	-0.09190179	-0.06526792	0	0
24.41672	-0.204975	0.4143343	0	0	0.09190179	0.06526792	0	0
24.4333	-0.2050759	0.4142627	-0.006086075	-0.004321005	-0.1836041	-0.1303557	0	0
24.44986	-0.2053786	0.414012	-0.01828618	-0.01514606	-0.3682212	-0.3267196	0	0
24.47436	-0.2057821	0.4136896	-0.01646853	-0.01315585	0.04427502	0.0484782	0	0
24.49092	-0.2058577	0.4136359	-0.004566436	-0.003243366	0.289807	0.2413614	0	0
24.50749	-0.2058577	0.4136359	0	0	0.1378153	0.09788498	0	0
24.52406	-0.2058577	0.4136359	0	0	0	0	0	0
24.54088	-0.2058577	0.4136359	0	0	0	0	0	0
24.55723	-0.205883	0.413618	-0.001541905	-0.00109355	-0.04648127	-0.03296544	0	0
24.57376	-0.205883	0.413618	0	0	0.04689652	0.03325994	0	0
24.59041	-0.2058577	0.4136001	0.001513828	-0.001075427	0.04562178	-0.0324098	0	0
24.60693	-0.2058577	0.4136001	0	0	-0.04564277	0.03242471	0	0
24.62346	-0.2058577	0.4136001	0	0	0	0	0	0
24.64002	-0.2058577	0.4136001	0	0	0	0	0	0
24.65659	-0.2058577	0.4136001	0	0	0	0	0	0
24.67316	-0.2058577	0.4136001	0	0	0	0	0	0
24.68998	-0.205883	0.4135822	-0.001498555	-0.001064576	-0.04487772	-0.03188121	0	0
24.70629	-0.205883	0.4135822	0	0	0.04522907	0.03213082	0	0
24.72286	-0.205883	0.4135822	0	0	0	0	0	0
24.73952	-0.205883	0.4135822	0	0	0	0	0	0
24.75603	-0.205883	0.4135822	0	0	0	0	0	0
24.77256	-0.205883	0.4135822	0	0	0	0	0	0
24.78955	-0.2059082	0.4136001	-0.001483419	0.001053824	-0.04425257	0.03143711	0	0
24.80569	-0.2059334	0.4136538	-0.001562131	0.003327375	-0.002375379	0.06861196	0	0
24.82258	-0.2059586	0.4136717	-0.001493138	0.001060728	0.002089063	-0.06863274	0	0
24.85539	-0.206009	0.4137076	-0.00153725	0.001091743	-0.0008876052	0.0006240667	0	0
24.93872	-0.2063116	0.4139583	-0.003630943	0.003008618	-0.01802756	0.01650509	0	0
24.95479	-0.2065637	0.4141373	-0.0156862	0.01114297	-0.1212831	0.08183641	0	0
24.97135	-0.2069922	0.4144418	-0.02586806	0.01837759	-0.3119764	0.2216719	0	0
24.98792	-0.2082773	0.4153551	-0.07756735	0.05513002	-1.560377	1.109254	0	0
25.00471	-0.2086803	0.4156417	-0.02401101	0.01707386	1.605796	-1.141049	0	0
25.02105	-0.2091336	0.4159641	-0.02772886	0.01971948	-0.1122115	0.07984932	0	0
25.03762	-0.2091336	0.4159641	0	0	0.8424355	-0.5991009	0	0
25.05419	-0.2091336	0.4159641	0	0	0	0	0	0
25.07075	-0.2091336	0.4159641	0	0	0	0	0	0
25.08732	-0.2091336	0.4159641	0	0	0	0	0	0
25.10427	-0.2091336	0.4159641	0	0	0	0	0	0
25.12849	-0.2091336	0.4159641	0	0	0	0	0	0
25.14506	-0.2091084	0.415982	0.001520047	0.001081122	0.0372699	0.02650794	0	0
25.16162	-0.2091336	0.4160357	-0.001520047	0.003243366	-0.0917502	0.06525665	0	0
25.17819	-0.209184	0.4161074	-0.003040443	0.004324986	-0.04588831	0.03264523	0	0
25.19484	-0.2092847	0.4164298	-0.006050033	0.01936655	-0.09061573	0.4528864	0	0
25.21132	-0.2089321	0.4168596	0.02138315	0.026073	0.8279351	0.2024011	0	0
25.22789	-0.207345	0.4179881	0.09579802	0.06811608	2.251288	1.271938	0	0
25.24487	-0.2050759	0.4196004	0.1336109	0.09493627	1.127053	0.7994033	0	0
25.26102	-0.1986351	0.4240981	0.3988214	0.278504	8.004526	5.540405	0	0
25.27759	-0.1926086	0.4282928	0.3637607	0.253193	-1.071644	-0.773642	0	0
25.29416	-0.1882699	0.4312875	0.2618878	0.1807578	-3.074527	-2.186097	0	0
25.31073	-0.1814046	0.4359516	0.4143863	0.2815234	4.602413	3.041112	0	0
25.32729	-0.1728626	0.4416052	0.5156556	0.341296	3.056489	1.804045	0	0
25.34386	-0.1656522	0.4463462	0.4352235	0.2861645	-2.427584	-1.663969	0	0
25.36043	-0.1552665	0.4533726	0.6268834	0.4241128	5.784308	4.163287	0	0
25.37699	-0.1470621	0.4586777	0.4952141	0.3202208	-3.973789	-3.135468	0	0
25.39356	-0.1364624	0.466003	0.6398038	0.4421555	4.363727	3.679997	0	0
25.41013	-0.1287833	0.4713531	0.4635099	0.3229299	-5.320561	-3.598236	0	0
25.427	-0.1190917	0.4781321	0.574277	0.4016904	3.312073	2.355035	0	0
25.44326	-0.1122888	0.4828959	0.4184729	0.2930453	-4.702449	-3.279104	0	0
25.45983	-0.1057097	0.487573	0.3971144	0.2823077	-0.6507051	-0.327129	0	0
25.47639	-0.09867845	0.4925609	0.4244092	0.3010718	0.8237565	0.5662992	0	0
25.49305	-0.0914286	0.4978064	0.435247	0.3149118	0.3262036	0.4165674	0	0
25.50956	-0.08247042	0.5049226	0.5425283	0.4309735	3.234406	3.499122	0	0
25.52609	-0.07629897	0.5096355	0.3733261	0.2850972	-5.120682	-4.414753	0	0
25.54266	-0.07428411	0.5112135	0.1216168	0.09524666	-7.60492	-5.735975	0	0
25.5596	-0.07017406	0.5212185	0.2426635	0.5907094	3.61285	14.78795	0	0
25.57579	-0.07148325	0.5247095	-0.08083789	0.2155591	-9.763852	-11.32271	0	0
25.59262	-0.07106434	0.5332661	0.02489603	0.5085121	3.201931	8.871468	0	0
25.60893	-0.06957175	0.5345965	0.09153666	0.08159214	2.011334	-12.88521	0	0
25.62549	-0.06621883	0.5369302	0.2023825	0.1408625	3.371927	1.803	0	0
25.64206	-0.06485628	0.5378786	0.08224396	0.0572473	-3.625789	-2.52351	0	0
25.65863	-0.06483007	0.5378969	0.001581658	0.00110091	-2.434393	-1.694501	0	0
25.67568	-0.06477766	0.5378969	0.003073097	0	0.04436056	-0.03274486	0	0
25.69176	-0.06469905	0.5379151	0.004889532	0.001134342	0.05482325	0.03423647	0	0
25.70833	-0.06464663	0.5379151	0.003163766	0	-0.05286272	-0.03474654	0	0
25.7249	-0.06459422	0.5379151	0.003163316	0	-1.356883E-05	0	0	0
25.74146	-0.06456801	0.5378969	0.001582108	-0.00110091	-0.04772096	-0.03322552	0	0
25.76362	-0.06454181	0.5378786	0.001182703	-0.000823218	-0.0103144	0.007171233	0	0
25.78026	-0.06446319	0.5378604	0.004725295	-0.00109624	0.09131906	-0.007037812	0	0
25.79677	-0.06441078	0.5378239	0.003174364	-0.002209195	-0.04678565	-0.03357359	0	0
25.81332	-0.06435836	0.5377874	0.003166682	-0.002203849	-0.0002323244	0.0001616877	0	0
25.83029	-0.06433216	0.5377692	0.001543974	-0.00107468	-0.04840501	0.03368286	0	0
25.84645	-0.06433216	0.5377692	0	0	-0.04659991	0.03243576	0	0
25.87959	-0.06430595	0.5377874	0.0007910994	0.0005504864	0.01604875	0.01116752	0	0
25.89634	-0.06427974	0.5378422	0.00156419	0.003266253	0.01549752	0.05444077	0	0
25.91272	-0.06420112	0.5378969	0.004799016	0.003340028	0.09762725	0.002226532	0	0
25.92929	-0.06404387	0.5381158	0.009491746	0.01321451	0.1424221	0.2996859	0	0
25.94585	-0.06296927	0.5390097	0.06486282	0.05395536	1.671102	1.229561	0	0
25.96242	-0.05851208	0.5422586	0.2690368	0.1961058	6.161983	4.290109	0	0
25.97899	-0.05373769	0.5467161	0.2881829	0.2690536	0.5778291	2.20157	0	0
25.99556	-0.05476099	0.5503184	-0.06176629	0.2174368	-10.56149	-1.557799	0	0
26.01212	-0.05977083	0.5539238	-0.3023946	0.2176239	-7.262177	0.005646209	0	0
26.02869	-0.06676903	0.5591089	-0.4224122	0.3129677	-3.622138	2.877482	0	0
26.04526	-0.06849793	0.5605758	-0.104357	0.08854406	9.598924	-6.773119	0	0
26.06182	-0.0751477	0.5680291	-0.4013804	0.4498834	-8.964185	10.90524	0	0
26.07847	-0.07527854	0.5756629	-0.007860394	0.458609	11.8485	0.2627195	0	0
26.09496	-0.07684836	0.5867283	-0.09521507	0.6711556	-2.636521	6.415036	0	0
26.11152	-0.07925469	0.5936436	-0.1452467	0.4174102	-1.513618	-7.67661	0	0
26.12809	-0.08186923	0.600017	-0.1578137	0.3846959	-0.3792705	-0.9873189	0	0
26.14466	-0.08403844	0.6020761	-0.130934	0.1242912	0.8112291	-7.859029	0	0
26.16122	-0.08740829	0.6047309	-0.2034277	0.1602619	-2.187989	1.08566	0	0
26.17779	-0.09012362	0.6067374	-0.1638979	0.1211144	1.19308	-1.181542	0	0
26.19455	-0.09069785	0.6072206	-0.03425792	0.02882837	3.889704	-2.768941	0	0
26.21092	-0.09069785	0.6072206	0	0	1.033966	-0.8700921	0	0
26.22758	-0.09069785	0.6072206	0	0	0	0	0	0
26.24406	-0.09069785	0.6072206	0	0	0	0	0	0
26.26063	-0.09069785	0.6072206	0	0	0	0	0	0
26.27719	-0.09067175	0.6072392	0.001575543	0.001122625	0.04755273	0.03388285	0	0
26.29376	-0.09061955	0.6072764	0.003150724	0.002241394	0.04754178	0.03376646	0	0
26.31064	-0.09059345	0.607295	0.001546344	0.001101819	-0.04797019	-0.03407273	0	0
26.32689	-0.09059345	0.607295	0	0	-0.04666874	-0.03325298	0	0
26.34346	-0.09061955	0.6073508	-0.001575362	0.003367488	-0.04799485	0.1025936	0	0
26.36017	-0.09061955	0.6074251	0	0.004447472	0.04733742	0.03245201	0	0
26.37659	-0.09095884	0.6080386	-0.02066288	0.03736279	-0.6236428	0.9934434	0	0
26.41003	-0.08735606	0.6136586	0.1077583	0.1680929	2.57593	2.622244	0	0
26.42672	-0.08678149	0.6148882	0.03441588	0.07364975	-1.463075	-1.884004	0	0
26.44316	-0.09098494	0.6178897	-0.2556933	0.1825799	-8.755511	3.287519	0	0
26.45973	-0.09544595	0.6210811	-0.2692668	0.1926304	-0.4112359	0.3044983	0	0
26.4763	-0.0977402	0.6227247	-0.1384812	0.09921137	3.947118	-2.819391	0	0
26.49286	-0.09906935	0.6237525	-0.08023712	0.06204303	1.757911	-1.121807	0	0
26.50943	-0.09904329	0.6237711	0.001573113	0.001126094	2.46918	-1.838583	0	0
26.52629	-0.09899117	0.6238085	0.003090975	0.002216488	0.04540663	0.03261899	0	0
26.54256	-0.09896511	0.6238646	0.001601508	0.003446583	-0.04495221	0.03712436	0	0
26.55931	-0.09888694	0.6240702	0.004666861	0.01227297	0.09282246	0.2672733	0	0
26.5757	-0.09865239	0.624388	0.014317	0.01939981	0.2912587	0.2151009	0	0
26.59226	-0.0960196	0.6262767	0.1589155	0.1140017	4.388494	2.871122	0	0
26.60885	-0.09474183	0.6272308	0.07703793	0.05752645	-2.469648	-1.703446	0	0
26.6254	-0.09474183	0.6272308	0	0	-2.325009	-1.736152	0	0
26.7248	-0.09471574	0.6272122	0.0002624104	-0.0001876823	0.002263104	-0.001618627	0	0
26.74145	-0.09468967	0.6272308	0.001566438	0.001120675	0.01123671	0.01127401	0	0
26.75796	-0.09463751	0.6272308	0.003159022	0	0.04802834	-0.03379674	0	0
26.7745	-0.09453318	0.6272683	0.006307116	0.002263031	0.09524541	0.06846787	0	0
26.79107	-0.09442885	0.6273057	0.0062974	0.002259383	-0.0002934666	-0.0001101713	0	0
26.80799	-0.09429844	0.627287	0.007703785	-0.001105634	0.04198797	-0.1004634	0	0
26.8242	-0.09416803	0.6273057	0.008046958	0.001154819	0.01035696	0.06822061	0	0
26.84077	-0.09393328	0.6274367	0.01416971	0.00790784	0.1868176	0.2060483	0	0
26.85734	-0.09382894	0.6274741	0.00629785	0.002259383	-0.2375733	-0.1704708	0	0
26.8739	-0.09309851	0.6279607	0.04408855	0.02937198	1.140525	0.8182598	0	0
26.89055	-0.092655	0.6282415	0.02663588	0.01685997	-0.5253918	-0.3766593	0	0
26.90704	-0.0923419	0.6283538	0.01899691	0.006817064	-0.2305577	-0.3031128	0	0
26.9236	-0.09223753	0.6283164	0.006299649	-0.002259383	-0.3841995	-0.2746391	0	0
26.94017	-0.09215925	0.6282977	0.004725186	-0.001129691	-0.04751738	0.03409416	0	0
26.95674	-0.09202878	0.6282415	0.00787501	-0.003392672	0.09506188	-0.06829689	0	0
26.9733	-0.09195051	0.6281853	0.004724737	-0.003389074	-0.09507544	0.0001085788	0	0
26.98987	-0.09153298	0.6279233	0.02520174	-0.01581568	0.6179973	-0.3750357	0	0
27.00664	-0.09043685	0.6271373	0.0653727	-0.04687678	1.205078	-0.9317938	0	0
27.02365	-0.08866169	0.6259026	0.1043497	-0.07258031	1.153879	-0.760929	0	0
27.03957	-0.08866169	0.6259026	0	0	-3.168432	2.203798	0	0
27.05614	-0.08834836	0.6256781	0.01891244	-0.0135491	0.5821043	-0.4170266	0	0
27.07271	-0.08790446	0.6253603	0.02679683	-0.01918898	0.2379651	-0.1702216	0	0
27.08927	-0.08508357	0.6233413	0.1702695	-0.1218628	4.330263	-3.09888	0	0
27.12241	-0.07818242	0.6184493	0.208277	-0.1476406	0.7647118	-0.518651	0	0
27.13924	-0.07747619	0.617983	0.0419664	-0.02771166	-3.328675	2.400355	0	0
27.15554	-0.07726692	0.6179084	0.01283561	-0.004577094	-0.8792197	0.6982428	0	0
27.17211	-0.07676988	0.6176286	0.02999768	-0.01688586	0.5220696	-0.3744323	0	0
27.18867	-0.07561869	0.6168827	0.06949392	-0.04502735	1.191999	-0.8493116	0	0
27.20524	-0.07370833	0.6155218	0.1153095	-0.08214368	1.382796	-1.120238	0	0
27.22181	-0.06907415	0.6122247	0.2797523	-0.1990357	4.963179	-3.528011	0	0
27.23837	-0.06236638	0.6074623	0.4048815	-0.2874597	3.776626	-2.668796	0	0
27.25494	-0.05381641	0.6014081	0.5160774	-0.36543	3.355899	-2.353148	0	0
27.27184	-0.05035214	0.59896	0.2050664	-0.1449136	-9.294836	6.590326	0	0
27.28807	-0.04838326	0.597607	0.1212426	-0.08332232	-2.529953	1.858936	0	0
27.32137	-0.04644027	0.5962729	0.0583541	-0.04006452	-1.269558	0.8732644	0	0
27.33777	-0.04386658	0.5944581	0.1569018	-0.1106395	1.98286	-1.420027	0	0
27.35434	-0.03787661	0.5902396	0.361555	-0.2546267	6.207175	-4.36716	0	0
27.37091	-0.03472288	0.5880215	0.1903817	-0.1339018	-5.166319	3.643693	0	0
27.38747	-0.02783491	0.5831835	0.4157584	-0.2920216	6.802275	-4.772339	0	0
27.40404	-0.02081278	0.5782601	0.4239055	-0.2972114	0.2458938	-0.1566377	0	0
27.42061	-0.01615649	0.575	0.2810545	-0.1967786	-4.3115	3.031244	0	0
27.43745	-0.01339394	0.5730675	0.1640473	-0.1147603	-3.502454	2.455107	0	0
27.45374	-0.01115743	0.5715038	0.1372553	-0.09596673	-0.808583	0.5671915	0	0
27.55314	-0.00826297	0.5694443	0.02911946	-0.020719	-0.9346709	0.6504028	0	0
27.62171	0.002815782	0.561713	0.1615704	-0.1127512	0.7885452	-0.5479127	0	0
27.63828	0.002789466	0.5617314	-0.001588235	0.001107977	-1.916395	1.337344	0	0
27.65485	0.002789466	0.5617314	0	0	0.04793027	-0.0334369	0	0
27.67141	0.002763151	0.561713	-0.001588404	-0.001108105	-0.04793812	-0.03344267	0	0
27.68813	0.002763151	0.561713	0	0	0.04772931	0.033297	0	0
27.70455	0.00271052	0.5616764	-0.003204877	-0.002232143	-0.09672339	-0.06736621	0	0
27.72115	0.002684204	0.561658	-0.001585119	-0.001105813	0.04904816	0.03410656	0	0
27.73768	0.002657888	0.5616397	-0.001592084	-0.001110662	-0.0002102217	-0.0001463579	0	0
27.75425	0.002578942	0.5615847	-0.00476524	-0.003320717	-0.09587641	-0.06677647	0	0
27.77081	0.002552626	0.561603	-0.001588418	0.001108105	0.09587667	0.1336621	0	0
27.78738	0.002499995	0.5615663	-0.003176822	-0.00221621	-0.04793812	-0.100328	0	0
27.80395	0.002368417	0.5615113	-0.007942075	-0.003320717	-0.1438156	-0.0333341	0	0
27.82051	0.002315785	0.5614746	-0.003176836	-0.00221621	0.1438152	0.0333341	0	0
27.83708	0.002236838	0.5614562	-0.004765788	-0.001108233	-0.04795744	0.03344075	0	0
27.85375	0.002236838	0.5614562	0	0	0.1434108	0.03334862	0	0
27.87026	0.002184207	0.5614195	-0.003187846	-0.002220281	-0.09608769	-0.06692345	0	0
27.88678	0.002131576	0.5614195	-0.00318527	0	7.797586E-05	0.06721327	0	0
27.90335	0.00210526	0.5614012	-0.001588418	-0.001108105	0.04825699	-0.03348701	0	0
27.93648	0.002026313	0.5613462	-0.002382764	-0.001660454	-0.01598289	-0.01111372	0	0
27.95305	0.001947366	0.5612912	-0.004765254	-0.003320717	-0.04793762	-0.03340584	0	0
27.96961	0.001868419	0.5612361	-0.004765254	-0.003324315	0	-0.0001085788	0	0
27.98618	0.001763156	0.5611627	-0.006353678	-0.004428822	-0.04793875	-0.03333409	0	0
28.00275	0.001657893	0.5611261	-0.006353678	-0.002212612	0	0.06688534	0	0
28.01932	0.001447367	0.5610527	-0.01270736	-0.004428822	-0.1917546	-0.06688534	0	0
28.03588	0.001315789	0.5611077	-0.007942103	0.003320717	0.1438159	0.2338816	0	0
28.05245	0.0008157893	0.5614562	-0.03018003	0.02103601	-0.6711419	0.5346485	0	0
28.06902	0.0005263158	0.5616947	-0.01747266	0.01439817	0.3835092	-0.2003303	0	0
28.08591	-0.0004736842	0.5623919	-0.05920144	0.04127498	-1.247173	0.803283	0	0
28.10242	-0.00552626	0.5659165	-0.3059957	0.2134544	-7.388297	5.154549	0	0
28.11893	-0.01220992	0.570621	-0.4047779	0.2849176	-2.991242	2.163987	0	0
28.13544	-0.02112843	0.5768968	-0.540126	0.3800754	-4.098495	2.881489	0	0
28.15185	-0.02801898	0.5818368	-0.4200245	0.3011242	3.648612	-2.398492	0	0
28.16842	-0.03522227	0.5870792	-0.4347914	0.3164359	-0.4478555	0.4643826	0	0
28.18498	-0.04423428	0.5939768	-0.5439662	0.4163381	-3.294904	3.015053	0	0
28.20155	-0.05166451	0.5997017	-0.4484893	0.3455561	2.881499	-2.136205	0	0
28.21812	-0.05969216	0.6056783	-0.4845499	0.3607457	-1.088312	0.4584245	0	0
28.23469	-0.06928366	0.6131557	-0.5789444	0.4513405	-2.84883	2.734156	0	0
28.30095	-0.07650826	0.6305636	-0.1090225	0.2626932	5.673038	-2.277407	0	0
28.31758	-0.074729	0.6318378	0.1070389	0.07665662	2.606618	-2.244391	0	0
28.33409	-0.074729	0.6318378	0	0	-3.230253	-2.313368	0	0
28.35065	-0.074729	0.6318378	0	0	0	0	0	0
28.36722	-0.074729	0.6318378	0	0	0	0	0	0
28.38412	-0.074729	0.6318378	0	0	0	0	0	0
28.40035	-0.074729	0.6318378	0	0	0	0	0	0
28.41692	-0.07470284	0.6318191	0.001579409	-0.001129691	0.04815733	-0.03444511	0	0
28.43349	-0.07470284	0.6318191	0	0	-0.04766667	0.03409416	0	0
28.45017	-0.07467666	0.6318004	0.001568842	-0.001125386	0.04718206	-0.03384537	0	0
28.46662	-0.07462433	0.6318004	0.003181159	0	0.04865985	0.03396421	0	0
28.48319	-0.07462433	0.6318004	0	0	-0.09634589	0	0	0
28.49976	-0.07459816	0.6317816	0.001579859	-0.001129691	0.04768024	-0.03409416	0	0
28.51632	-0.07459816	0.6317441	0	-0.002262981	-0.04768024	-0.03420274	0	0
28.53289	-0.07454582	0.6317067	0.003159269	-0.002262981	0.09534691	0	0	0
28.54946	-0.07451965	0.6316879	0.001579409	-0.001133289	-0.04768024	0.03409416	0	0
28.56626	-0.07449348	0.6316692	0.001558153	-0.001114171	-0.0006370712	0.000573011	0	0
28.58259	-0.07446731	0.6316504	0.001601909	-0.001145785	0.001320631	-0.0009541702	0	0
28.59916	-0.07446731	0.6316504	0	0	-0.04868764	0.03482441	0	0
28.61579	-0.07446731	0.6316504	0	0	0	0	0	0
28.64007	-0.07446731	0.6316504	0	0	0	0	0	0
28.65682	-0.07444113	0.6316317	0.001562233	-0.001120645	0.03807811	-0.02731478	0	0
28.67333	-0.07438879	0.6315942	0.003169486	-0.002270299	0.0483123	-0.03455737	0	0
28.68984	-0.07417943	0.6314443	0.01268087	-0.009079685	0.2880158	-0.2061961	0	0
28.70636	-0.07407475	0.6313693	0.006340154	-0.004541123	-0.1920153	0.1374408	0	0
28.7229	-0.07399623	0.6313131	0.004745684	-0.003397366	-0.04823505	0.03460032	0	0
28.73947	-0.07391771	0.6312569	0.004739577	-0.003392672	-0.0001844274	0.000141752	0	0
28.75603	-0.07386537	0.6312194	0.003159269	-0.002262981	-0.04769382	0.03409416	0	0
28.7726	-0.07381302	0.6311819	0.003159718	-0.002262981	1.356883E-05	0	0	0
28.78917	-0.07378685	0.6311632	0.001579859	-0.001129691	-0.04768024	0.03420274	0	0
28.80574	-0.07370833	0.631107	0.004739128	-0.003392672	0.09534691	-0.06829689	0	0
28.82249	-0.07362981	0.6310508	0.004687233	-0.003355203	-0.001557474	0.001124537	0	0
28.83887	-0.07339425	0.6308821	0.01437931	-0.01029296	0.2925075	-0.209382	0	0
28.85545	-0.07328955	0.6308072	0.006315801	-0.004523357	-0.2446529	0.1750541	0	0
28.87201	-0.07326338	0.6307884	0.001580769	-0.001130342	-0.1429035	0.1024014	0	0
28.88857	-0.0732372	0.6307697	0.001580309	-0.001129691	-1.389607E-05	1.964217E-05	0	0
28.9055	-0.07318485	0.6307322	0.003091733	-0.00221429	0.0451188	-0.03237726	0	0
28.92171	-0.07310633	0.630676	0.004846712	-0.003469361	0.05296842	-0.0378803	0	0
28.93827	-0.07305397	0.6306385	0.003160168	-0.002262981	-0.05146884	0.03681552	0	0
28.95484	-0.07297544	0.6305823	0.004740027	-0.003392672	0.04768025	-0.03409416	0	0
28.97141	-0.07294927	0.6305636	0.001579859	-0.001129691	-0.09537406	0.06829689	0	0
28.98797	-0.07289692	0.6305261	0.003159718	-0.002262981	0.04768024	-0.03420274	0	0
29.03767	-0.07150944	0.6295334	0.02791838	-0.01997501	0.3736305	-0.2672904	0	0
29.05424	-0.0712738	0.6293274	0.01422278	-0.0124338	-0.206679	0.1138036	0	0
29.07081	-0.0712738	0.6293274	0	0	-0.4292443	0.3752529	0	0
29.08737	-0.0712738	0.62929	0	-0.002259383	0	-0.06818832	0	0
29.10394	-0.07122143	0.6292151	0.003161067	-0.004522364	0.09540121	-0.06829689	0	0
29.12051	-0.07122143	0.6291401	0	-0.004522364	-0.09540121	0	0	0
29.13708	-0.07135235	0.6289342	-0.007901994	-0.0124302	-0.2384826	-0.2386591	0	0
29.15364	-0.0715618	0.628747	-0.01264393	-0.01130181	-0.14312	0.03405685	0	0
29.17021	-0.07200687	0.6284287	-0.02686126	-0.01920974	-0.4290799	-0.2386617	0	0
29.18678	-0.07247809	0.6280918	-0.02844286	-0.02033804	-0.04773014	-0.03405035	0	0
29.20334	-0.07509536	0.6262206	-0.1579974	-0.112957	-3.910187	-2.795405	0	0
29.21991	-0.079307	0.6232479	-0.2542148	-0.1794339	-2.904014	-2.006392	0	0
29.23648	-0.09111543	0.6148136	-0.7127584	-0.5090915	-13.83887	-9.949087	0	0
29.25325	-0.09573279	0.6115173	-0.2752188	-0.1964778	13.12189	9.375335	0	0
29.31931	-0.1220742	0.5927923	-0.3987665	-0.283467	-1.491506	-1.05016	0	0
29.35905	-0.1419339	0.5785734	-0.4997461	-0.3578009	-0.9544675	-0.7026098	0	0
29.37584	-0.1465471	0.5752762	-0.2747831	-0.1963971	3.979669	2.855284	0	0
29.39219	-0.1564992	0.5681577	-0.6088399	-0.4354872	-10.08185	-7.215751	0	0
29.40886	-0.1642695	0.562557	-0.465851	-0.3357776	4.329618	3.019147	0	0
29.42532	-0.1751856	0.5546563	-0.6634042	-0.4801495	-5.962166	-4.357154	0	0
29.44189	-0.1839494	0.5482517	-0.5289834	-0.3865811	4.070652	2.833524	0	0
29.45845	-0.1868474	0.5461313	-0.1749478	-0.1280081	10.68543	7.8042	0	0
29.47502	-0.2045209	0.5324097	-1.066772	-0.8282329	-26.91687	-21.13404	0	0
29.49192	-0.2128575	0.5257646	-0.4931483	-0.3930914	17.1374	13.00014	0	0
29.50815	-0.2196356	0.5191105	-0.4176387	-0.409996	2.278884	-0.5101843	0	0
29.52495	-0.2233674	0.5079492	-0.222233	-0.6646659	5.917454	-7.712145	0	0
29.54129	-0.2242681	0.5051219	-0.05512158	-0.1730295	5.043722	14.83847	0	0
29.55785	-0.226918	0.4888377	-0.1599485	-0.9829179	-3.185503	-24.61107	0	0
29.57442	-0.2278422	0.4821739	-0.05578481	-0.4022241	3.143666	17.52537	0	0
29.59099	-0.2290656	0.4763466	-0.07384098	-0.3517406	-0.5449364	1.523596	0	0
29.60756	-0.230787	0.4733356	-0.1039082	-0.18174	-0.9074312	5.130628	0	0
29.62412	-0.234873	0.4704521	-0.2466325	-0.174048	-4.307427	0.2321444	0	0
29.64069	-0.2401928	0.4665613	-0.3211013	-0.2348535	-2.247473	-1.835113	0	0
29.65726	-0.2436655	0.4638965	-0.2096153	-0.1608443	3.364653	2.233602	0	0
29.67382	-0.2475281	0.4608368	-0.2331455	-0.1846848	-0.7101411	-0.7195064	0	0
29.69057	-0.25163	0.4546131	-0.2449694	-0.3716824	-0.3549452	-5.613549	0	0
29.70696	-0.2514079	0.4525456	0.01355573	-0.1261437	7.802302	7.410373	0	0
29.72359	-0.2491353	0.4386434	0.1366215	-0.8357754	3.726576	-21.48847	0	0
29.74009	-0.2478497	0.4325789	0.07791549	-0.3675352	-1.771752	14.13152	0	0
29.75666	-0.2464147	0.4307495	0.08661567	-0.1104219	0.2631022	7.775358	0	0
29.77323	-0.2434425	0.4286335	0.1794024	-0.1277199	2.800308	-0.5220532	0	0
29.78979	-0.2427235	0.4281135	0.04339598	-0.03138492	-4.104681	2.907395	0	0
29.80636	-0.2419299	0.4275398	0.04790305	-0.03463008	0.1360237	-0.09793924	0	0
29.82293	-0.2417563	0.4274143	0.01048113	-0.007575049	-1.129396	0.8165224	0	0
29.8395	-0.2417563	0.4274143	0	0	-0.316321	0.2286154	0	0
29.85606	-0.2417563	0.4274143	0	0	0	0	0	0
29.87271	-0.2417315	0.4273964	0.001489289	-0.001075796	0.04483584	-0.03238743	0	0
29.8892	-0.2417067	0.4273785	0.001505011	-0.001088308	0.0004745121	-0.000377619	0	0
29.90576	-0.2416322	0.4273247	0.004493199	-0.003247337	0.09041269	-0.06532508	0	0
29.92233	-0.2414586	0.4272351	0.01048292	-0.005409207	0.1807807	-0.06524912	0	0
29.9389	-0.241136	0.427002	0.01947009	-0.01406898	0.2712331	-0.2613523	0	0
29.95576	-0.2410615	0.4269482	0.004413802	-0.00318755	-0.4503298	0.3254608	0	0
29.97206	-0.240863	0.4268048	0.01218754	-0.008803126	0.2344498	-0.1693615	0	0
29.9886	-0.2406893	0.4266435	0.01049982	-0.009751441	-0.05139693	-0.02887953	0	0
30.02381	-0.2401928	0.4262849	0.0140994	-0.01018194	0.06954665	-0.008317515	0	0
30.04033	-0.2385287	0.4250839	0.1007792	-0.07273558	1.67583	-1.209386	0	0
30.05684	-0.2305626	0.4193496	0.482451	-0.347284	11.55747	-8.313644	0	0
30.07339	-0.2225915	0.4136001	0.481577	-0.3473601	-0.02643406	-0.002301161	0	0
30.09036	-0.2114995	0.4056517	0.6534925	-0.4682865	5.127909	-3.607001	0	0
30.10652	-0.203991	0.4003194	0.4646035	-0.3299488	-5.70068	4.175038	0	0
30.12309	-0.1978763	0.3959904	0.3690853	-0.2612951	-2.91853	2.097693	0	0
30.22249	-0.1922283	0.3919308	0.05682183	-0.04084244	-2.692742	1.901029	0	0
30.23947	-0.192203	0.3918771	0.001493863	-0.003159757	-0.4754284	0.323804	0	0
30.25562	-0.1922283	0.3918593	-0.001569879	-0.001106848	-0.09246925	0.0619605	0	0
30.27249	-0.1922537	0.3918414	-0.001502778	-0.001060161	0.002032027	0.001413821	0	0
30.289	-0.1922283	0.3918235	0.001535066	-0.001082939	0.0910117	-0.0006824149	0	0
30.30532	-0.192279	0.3917877	-0.003106923	-0.002191189	-0.1413814	-0.03375404	0	0
30.32189	-0.1937239	0.390697	-0.0872093	-0.06583871	-2.557204	-1.935257	0	0
30.33846	-0.2013903	0.3851369	-0.462749	-0.3356083	-11.33381	-8.141663	0	0
30.35505	-0.2086551	0.379882	-0.4378467	-0.3167103	0.7509913	0.5699175	0	0
30.37159	-0.216224	0.3744675	-0.4574906	-0.3272748	-0.5928209	-0.3188191	0	0
30.38815	-0.2233424	0.3693576	-0.4297667	-0.3085002	0.8373849	0.5670746	0	0
30.40472	-0.2297144	0.3647309	-0.384615	-0.2792712	1.362837	0.8822332	0	0
30.42129	-0.2378329	0.3587652	-0.490036	-0.3600909	-3.181614	-2.439143	0	0
30.43811	-0.2450777	0.3525858	-0.4308004	-0.3674453	1.774355	-0.2202953	0	0
30.45442	-0.2466622	0.3489427	-0.09711283	-0.223291	10.07129	4.350837	0	0
30.47099	-0.2465879	0.341889	0.004481889	-0.4257624	3.089611	-6.157384	0	0
30.48756	-0.2443098	0.3327461	0.1375058	-0.5518669	4.014668	-3.805842	0	0
30.50412	-0.2389014	0.3277816	0.3264906	-0.2996942	5.703901	7.611026	0	0
30.52069	-0.2368136	0.3264244	0.12602	-0.08192242	-6.050563	6.572742	0	0
30.53725	-0.2360177	0.3258529	0.0480471	-0.03449913	-2.353361	1.43132	0	0
30.55382	-0.2360177	0.3258529	0	0	-1.450148	1.041246	0	0
30.57039	-0.2360177	0.3258529	0	0	0	0	0	0
30.58696	-0.2360177	0.3258529	0	0	0	0	0	0
30.60372	-0.2359928	0.325835	0.001483397	-0.001064775	0.0445026	-0.03194375	0	0
30.62009	-0.2359928	0.325835	0	0	-0.0447716	0.03213683	0	0
30.63665	-0.2359679	0.3258529	0.001502231	0.001077648	0.04561576	0.03272316	0	0
30.65326	-0.2359679	0.3258529	0	0	-0.04529049	-0.03248983	0	0
30.66979	-0.2359679	0.3258529	0	0	0	0	0	0
30.68635	-0.2359679	0.3258529	0	0	0	0	0	0
30.70292	-0.2359679	0.3258529	0	0	0	0	0	0
30.71949	-0.2359679	0.3258529	0	0	0	0	0	0
30.73605	-0.2359679	0.3258529	0	0	0	0	0	0
30.75262	-0.2359679	0.3258529	0	0	0	0	0	0
30.78585	-0.2359679	0.3258886	0	0.001074432	0	0.02157621	0	0
30.80232	-0.2359431	0.3259065	0.001510025	0.001085698	0.03038292	0.0002266829	0	0
30.83545	-0.2359431	0.3259065	0	0	-0.03044251	-0.02188796	0	0
30.85202	-0.2359431	0.3259065	0	0	0	0	0	0
30.86859	-0.2359431	0.3259065	0	0	0	0	0	0
30.88515	-0.2359182	0.3259243	0.001502058	0.001077524	0.04534003	0.03252536	0	0
30.90172	-0.2358684	0.3259957	0.003003216	0.004311895	0.04530505	0.09761352	0	0
30.91829	-0.2357938	0.326085	0.004505274	0.00538942	0.0453322	0.03251975	0	0
30.93496	-0.2356445	0.3262636	0.008954877	0.01071224	0.1338731	0.1601453	0	0
30.95147	-0.2354952	0.3263708	0.009041635	0.006490412	0.002614608	-0.127232	0	0
30.96799	-0.2352713	0.3266029	0.01355664	0.01405366	0.136688	0.228971	0	0
30.98456	-0.2347735	0.3271387	0.03004655	0.03233832	0.4983838	0.5526273	0	0
31.06739	-0.2205629	0.3376926	0.1715505	0.1274073	1.423532	0.9563953	0	0
31.08396	-0.2124803	0.3435141	0.4879201	0.3514231	3.182745	2.253647	0	0
31.10058	-0.2091084	0.3460855	0.202899	0.1547311	-8.589097	-5.927305	0	0
31.11709	-0.2019208	0.3513893	0.4351993	0.3211362	7.010836	5.022118	0	0
31.13366	-0.1968388	0.3551218	0.3067481	0.2252925	-3.882699	-2.897072	0	0
31.15023	-0.1907827	0.3596403	0.3655496	0.2727413	1.774633	1.432009	0	0
31.16679	-0.1872031	0.3625875	0.2160625	0.1778886	-4.511531	-2.862661	0	0
31.18337	-0.1830844	0.3659813	0.2484325	0.2047123	0.9765908	0.8092604	0	0
31.19993	-0.1798257	0.3694112	0.1968554	0.2071973	-1.556689	0.07500243	0	0
31.21666	-0.1801569	0.3722876	-0.01978995	0.1718982	-6.508397	-1.060447	0	0
31.23306	-0.1818374	0.3778983	-0.1024766	0.3421272	-2.495632	5.137818	0	0
31.24968	-0.1826519	0.3809364	-0.04899688	0.1827722	1.619521	-4.825733	0	0
31.2662	-0.1831353	0.381562	-0.02927567	0.03788043	0.595153	-4.37259	0	0
31.28276	-0.1831608	0.3815441	-0.00153659	-0.001079572	0.8386153	-1.177849	0	0
31.29933	-0.1831353	0.381562	0.001536236	0.001079323	0.09274877	0.06516308	0	0
31.31589	-0.1831608	0.3815441	-0.001536236	-0.001079323	-0.09272742	-0.06514806	0	0
31.33246	-0.1831353	0.381562	0.001536236	0.001079323	0.09272742	0.06514806	0	0
31.34925	-0.1831608	0.3815441	-0.001515474	-0.001064736	-0.09147421	-0.06426759	0	0
31.36559	-0.1831608	0.3815441	0	0	0.0457371	0.0321338	0	0
31.38216	-0.1831608	0.3815441	0	0	0	0	0	0
31.39873	-0.1831608	0.3815441	0	0	0	0	0	0
31.4153	-0.1831608	0.3815441	0	0	0	0	0	0
31.43186	-0.1831608	0.3815441	0	0	0	0	0	0
31.44843	-0.1831608	0.3815441	0	0	0	0	0	0
31.465	-0.1831608	0.3815441	0	0	0	0	0	0
31.49956	-0.1831353	0.3815262	0.0007364913	-0.0005174412	0.01440582	-0.01012118	0	0
31.51612	-0.1831099	0.3815084	0.001535337	-0.001077524	0.01562547	-0.01095526	0	0
31.53289	-0.1831099	0.3815084	0	0	-0.04605818	0.03232437	0	0
31.5494	-0.1830844	0.3814905	0.001541561	-0.001083064	0.0463244	-0.03254642	0	0
31.56591	-0.1830844	0.3814548	0	-0.002164072	-0.04668294	-0.03273609	0	0
31.58242	-0.183059	0.3814369	0.00154048	-0.001082939	0.04664753	0.03273798	0	0
31.59896	-0.183059	0.3814011	0	-0.002163129	-0.04661791	-0.03268864	0	0
31.61552	-0.183059	0.3814011	0	0	0	0.06535107	0	0
31.63209	-0.1830335	0.3813475	0.001536236	-0.00323617	0.04636371	-0.09766781	0	0
31.64866	-0.1830335	0.3813118	0	-0.002157096	-0.04636638	0.03256841	0	0
31.66522	-0.1830335	0.3813118	0	0	0	0.06510502	0	0
31.76462	-0.184814	0.3763794	-0.0179125	-0.04962168	-0.1544623	-0.4278956	0	0
31.78119	-0.1866187	0.3717516	-0.108945	-0.2793646	-0.7850007	-1.981142	0	0
31.79776	-0.1868474	0.3624445	-0.01380364	-0.5617769	2.871538	-8.523711	0	0
31.81432	-0.1871777	0.3496749	-0.0199351	-0.770777	-0.1850477	-6.307636	0	0
31.8311	-0.1867204	0.3344247	0.02725848	-0.9089909	1.415343	-4.145058	0	0
31.84746	-0.1866442	0.3114388	0.004660535	-1.405228	-0.6820074	-14.97646	0	0
31.86403	-0.1865933	0.2930686	0.003067076	-1.108828	-0.04839713	9.002364	0	0
31.89716	-0.1873809	0.251276	-0.02377121	-1.261378	-0.5400081	-3.069417	0	0
31.91372	-0.1887269	0.2312711	-0.08124425	-1.207497	-1.156404	1.084118	0	0
31.93029	-0.1900468	0.2185474	-0.07967023	-0.7679995	0.04750393	13.26406	0	0
31.94686	-0.1906305	0.214752	-0.0352264	-0.2290926	1.341317	16.26424	0	0
31.97999	-0.1994443	0.1931688	-0.2660028	-0.6513814	-4.64323	-8.496467	0	0
31.99656	-0.2041676	0.1834379	-0.2851014	-0.5873622	-0.3842648	1.288068	0	0
32.01323	-0.2071938	0.1756649	-0.1815108	-0.4662251	3.116503	3.644388	0	0
32.02969	-0.2094861	0.1672851	-0.1392608	-0.5090898	1.275182	-1.293735	0	0
32.04626	-0.2119271	0.154685	-0.1473366	-0.7605405	-0.2445174	-7.613338	0	0
32.06283	-0.2125558	0.1442401	-0.037949	-0.6304587	3.301324	3.925878	0	0
32.07978	-0.2131089	0.1328463	-0.03262739	-0.6720974	0.1587606	-1.242215	0	0
32.09596	-0.2135613	0.1182131	-0.0279598	-0.9042964	0.140868	-7.00778	0	0
32.1128	-0.213687	0.1113561	-0.007461247	-0.4071361	0.6207199	15.05459	0	0
32.1291	-0.2128826	0.09941075	0.04937002	-0.7331792	1.715171	-9.839999	0	0
32.14566	-0.2121786	0.09265492	0.04249744	-0.4077826	-0.2091485	9.902571	0	0
32.16223	-0.2094609	0.08886869	0.1640373	-0.2285372	3.668081	5.409638	0	0
32.1788	-0.2084284	0.08815151	0.06232371	-0.04328895	-3.069723	5.590804	0	0
32.19537	-0.206362	0.08664323	0.1247275	-0.09104045	1.883349	-1.441143	0	0
32.21193	-0.2039658	0.08489517	0.1446374	-0.1055128	0.6008821	-0.4367771	0	0
32.2285	-0.2034357	0.08447185	0.03199203	-0.02555162	-3.399643	2.413234	0	0
32.26241	-0.2034105	0.08445344	0.0007443405	-0.0005428765	-0.6190127	0.49542	0	0
32.27894	-0.2034357	0.08447185	-0.001527161	0.001113818	-0.04503217	0.03284371	0	0
32.29551	-0.2034357	0.08447185	0	0	0.04614292	-0.03365383	0	0
32.31208	-0.2034357	0.08447185	0	0	0	0	0	0
32.32864	-0.2034357	0.08447185	0	0	0	0	0	0
32.34547	-0.2034357	0.08447185	0	0	0	0	0	0
32.36177	-0.2034357	0.08447185	0	0	0	0	0	0
32.37834	-0.2034357	0.08447185	0	0	0	0	0	0
32.39501	-0.2034357	0.08447185	0	0	0	0	0	0
32.41152	-0.2034357	0.08447185	0	0	0	0	0	0
32.42804	-0.2034105	0.08445344	0.001527866	-0.001114332	0.04625487	-0.03373547	0	0
32.44461	-0.2034105	0.08445344	0	0	-0.04617488	0.03367713	0	0
32.46117	-0.2034105	0.08445344	0	0	0	0	0	0
32.47807	-0.2034105	0.08445344	0	0	0	0	0	0
32.49458	-0.2034105	0.08445344	0	0	0	0	0	0
32.51109	-0.2034105	0.08445344	0	0	0	0	0	0
32.52744	-0.2034105	0.08445344	0	0	0	0	0	0
32.54411	-0.2034105	0.08445344	0	0	0	0	0	0
32.56057	-0.2034105	0.08445344	0	0	0	0	0	0
32.57714	-0.2034105	0.08445344	0	0	0	0	0	0
32.59371	-0.2034105	0.08445344	0	0	0	0	0	0
32.61028	-0.2034105	0.08445344	0	0	0	0	0	0
32.62684	-0.2034105	0.08445344	0	0	0	0	0	0
32.64341	-0.2034105	0.08445344	0	0	0	0	0	0
32.65998	-0.2034105	0.08445344	0	0	0	0	0	0
32.67671	-0.2034105	0.08445344	0	0	0	0	0	0
32.69311	-0.2034105	0.08445344	0	0	0	0	0	0
32.70974	-0.2034105	0.08445344	0	0	0	0	0	0
32.72625	-0.2034105	0.08445344	0	0	0	0	0	0
32.74281	-0.2034105	0.08445344	0	0	0	0	0	0
32.75938	-0.2034105	0.08445344	0	0	0	0	0	0
32.79251	-0.2034105	0.08445344	0	0	0	0	0	0
32.80908	-0.2034105	0.08445344	0	0	0	0	0	0
32.82565	-0.2034105	0.08445344	0	0	0	0	0	0
32.84222	-0.2034105	0.08445344	0	0	0	0	0	0
32.85884	-0.2034105	0.08449025	0	0.002214408	0	0.06671575	0	0
32.89263	-0.2034105	0.08452707	0	0.001089455	0	-0.02231384	0	0
32.9092	-0.2034105	0.08452707	0	0	0	-0.02163427	0	0
32.92576	-0.2033853	0.08454547	0.001523995	0.001111059	0.04599956	0.03353569	0	0
32.9424	-0.20336	0.08460069	0.001517356	0.003319551	-0.0001999966	0.06652223	0	0
32.95891	-0.2033348	0.08465591	0.001528925	0.003344411	0.0003490468	0.000749997	0	0
32.97546	-0.2033095	0.08471112	0.001525049	0.003335482	-0.0001172358	-0.0002700561	0	0
32.99203	-0.2033095	0.08471112	0	0	-0.04604727	-0.1007114	0	0
33.07088	-0.203461	0.08559448	-0.001920623	0.01120193	-0.02012712	0.1173904	0	0
33.0875	-0.2033853	0.08579689	0.004558338	0.01218382	0.06786355	0.01028473	0	0
33.10402	-0.2034105	0.08585209	-0.001527866	0.003341192	-0.183682	-0.2668711	0	0
33.12103	-0.2034357	0.08590729	-0.00148434	0.003246008	0.001298225	-0.002838999	0	0
33.13715	-0.2034862	0.08594409	-0.003130174	0.002281572	-0.04967136	-0.02910675	0	0
33.15372	-0.2035115	0.08599929	-0.001523644	0.00333196	0.0491357	0.03212613	0	0
33.17029	-0.203562	0.08607288	-0.003047289	0.004442314	-0.04598368	0.03351054	0	0
33.18685	-0.2036882	0.08620168	-0.007619077	0.007775615	-0.1379927	0.1006108	0	0
33.20342	-0.2037639	0.08629368	-0.004570034	0.005553117	0.0920309	-0.06708283	0	0
33.23661	-0.2071686	0.09105627	-0.1025902	0.1435042	-1.970054	2.772602	0	0
33.25312	-0.2108202	0.09717216	-0.2211196	0.3703493	-2.384814	4.564133	0	0
33.27013	-0.214466	0.1091049	-0.2143374	0.7015266	0.2023102	9.878942	0	0
33.28664	-0.21532	0.1255167	-0.05172893	0.994049	4.851125	8.726868	0	0
33.31939	-0.2159729	0.1507818	-0.01993621	0.7714719	0.6454172	-4.51849	0	0
33.33618	-0.2163997	0.1728789	-0.02541547	1.315908	-0.1105995	10.98949	0	0
33.35269	-0.2165252	0.1949367	-0.007603059	1.336336	0.5349315	0.6134831	0	0
33.3692	-0.216726	0.2105049	-0.01216	0.9427354	-0.1380053	-11.92005	0	0
33.38572	-0.2159729	0.228487	0.0456036	1.088916	1.748947	4.426013	0	0
33.40222	-0.2153451	0.2403183	0.03803245	0.7167784	-0.2292896	-11.27007	0	0
33.41879	-0.2144157	0.2511684	0.05609962	0.6549125	0.5462744	-1.870561	0	0
33.43536	-0.2130586	0.2655005	0.08191612	0.8650864	0.7791438	6.343061	0	0
33.45192	-0.2121534	0.2770986	0.05463713	0.7000615	-0.8232816	-4.980463	0	0
33.46849	-0.2108705	0.2934977	0.07743873	0.9898508	0.6881536	8.745857	0	0
33.48529	-0.2100148	0.3015762	0.05094627	0.4809789	-0.794059	-15.25243	0	0
33.5018	-0.2090077	0.3172621	0.06099905	0.9500852	0.3018301	14.08469	0	0
33.51819	-0.2081261	0.3282102	0.05376865	0.6677452	-0.2197319	-8.58031	0	0
33.53482	-0.2068662	0.3385319	0.07577085	0.6207308	0.6662523	-1.423649	0	0
33.55133	-0.2061099	0.3526394	0.04580818	0.8544813	-0.9041712	7.053792	0	0
33.56789	-0.205883	0.3671961	0.01370066	0.8788451	-0.970795	0.7366565	0	0
33.60287	-0.2055551	0.3869424	0.00937304	0.5645526	-0.08396569	-6.097986	0	0
33.61944	-0.205656	0.3984588	-0.006089181	0.6951344	-0.2999799	2.533395	0	0
33.63601	-0.2055803	0.4006951	0.004566436	0.1349783	0.3215871	-16.90554	0	0
33.66914	-0.2025016	0.4117558	0.09292647	0.3338524	1.777944	4.001661	0	0
33.68592	-0.2009103	0.4127764	0.09478758	0.06079229	0.03728251	-5.470049	0	0
33.70227	-0.200885	0.4127585	0.001546091	-0.001095755	-2.814034	-1.867785	0	0
33.71895	-0.2008597	0.4127406	0.001515325	-0.001073951	-0.0009316375	0.0006602753	0	0
33.7354	-0.2007081	0.4126332	0.009214511	-0.00653004	0.2323887	-0.1646841	0	0
33.75197	-0.2003038	0.4123467	0.02440147	-0.01728857	0.4598788	-0.3257809	0	0
33.76854	-0.2001269	0.4121855	0.01068146	-0.00972874	-0.4140708	0.2281562	0	0
33.7851	-0.2000763	0.4121497	0.003051786	-0.002162244	-0.2302906	0.2283836	0	0
33.80201	-0.1999499	0.4120244	0.007474934	-0.007412356	0.1321369	-0.1568416	0	0
33.81824	-0.1997477	0.4118811	0.01246253	-0.008828089	0.1505261	-0.04272689	0	0
