Time	Pos X	Pos Y	Vel X	Vel Y	Acc X	Acc YForce X	Force Y
0.01656594	-0.1710234	0.4093389	0.002708345	-0.006482335	-4.29009E-05	0.0001026819	0	0
0.04785669	-0.1710234	0.4093389	0	0	4.291091E-05	-0.0001027059	0	0
0.06442461	-0.1710234	0.4093389	0	0	0	0	0	0
0.08099174	-0.1710489	0.409321	-0.001542542	-0.001081128	-0.04655316	-0.03262793	0	0
0.09755927	-0.1710489	0.409321	0	0	0.04655371	0.03262832	0	0
0.1141252	-0.1710489	0.409321	0	0	0	0	0	0
0.1306923	-0.1710745	0.4093031	-0.001541643	-0.00107933	-0.04652882	-0.0325756	0	0
0.2135276	-0.1711256	0.4092673	-0.0006170197	-0.0004324534	0.009301821	0.006507655	0	0
0.2300928	-0.1711256	0.4092673	0	0	0.006207415	0.00435062	0	0
0.2466583	-0.1711256	0.4092673	0	0	0	0	0	0
0.2632282	-0.1711256	0.4092673	0	0	0	0	0	0
0.2800744	-0.1711256	0.4092673	0	0	0	0	0	0
0.2966021	-0.1711256	0.4092673	0	0	0	0	0	0
0.313106	-0.1711256	0.4092673	0	0	0	0	0	0
0.3294995	-0.1711256	0.4092673	0	0	0	0	0	0
0.364523	-0.1711256	0.4092673	0	0	0	0	0	0
0.3810897	-0.1711256	0.4092673	0	0	0	0	0	0
0.3976608	-0.1711256	0.4092673	0	0	0	0	0	0
0.4146713	-0.1711256	0.4092673	0	0	0	0	0	0
0.4311875	-0.1711256	0.4092673	0	0	0	0	0	0
0.4473559	-0.1711256	0.4092673	0	0	0	0	0	0
0.464208	-0.1711256	0.4092673	0	0	0	0	0	0
0.480489	-0.1711256	0.4092673	0	0	0	0	0	0
0.4972326	-0.1711256	0.4092673	0	0	0	0	0	0
0.513622	-0.1711256	0.4092673	0	0	0	0	0	0
0.5302547	-0.1711256	0.4092673	0	0	0	0	0	0
0.5467702	-0.1711256	0.4092673	0	0	0	0	0	0
0.5633223	-0.1711256	0.4092673	0	0	0	0	0	0
0.5798891	-0.1711256	0.4092673	0	0	0	0	0	0
0.5964586	-0.1711256	0.4092673	0	0	0	0	0	0
0.6130253	-0.1711256	0.4092673	0	0	0	0	0	0
0.629594	-0.1711256	0.4092673	0	0	0	0	0	0
0.6463435	-0.1711256	0.4092673	0	0	0	0	0	0
0.6627267	-0.1711256	0.4092673	0	0	0	0	0	0
0.6793783	-0.1711256	0.4092673	0	0	0	0	0	0
0.6958894	-0.1711256	0.4092673	0	0	0	0	0	0
0.7124254	-0.1711256	0.4092673	0	0	0	0	0	0
0.7289937	-0.1711256	0.4092673	0	0	0	0	0	0
0.7455612	-0.1711256	0.4092673	0	0	0	0	0	0
0.7621279	-0.1711256	0.4092673	0	0	0	0	0	0
0.7786935	-0.1711256	0.4092673	0	0	0	0	0	0
0.7954466	-0.1711256	0.4092673	0	0	0	0	0	0
0.8118215	-0.1711256	0.4092673	0	0	0	0	0	0
0.8283878	-0.1711256	0.4092673	0	0	0	0	0	0
0.8449546	-0.1711256	0.4092673	0	0	0	0	0	0
0.8619863	-0.1711256	0.4092673	0	0	0	0	0	0
0.8784969	-0.1711256	0.4092673	0	0	0	0	0	0
0.8950061	-0.1711256	0.4092673	0	0	0	0	0	0
0.9112317	-0.1711256	0.4092673	0	0	0	0	0	0
0.9277878	-0.1711256	0.4092673	0	0	0	0	0	0
0.9443541	-0.1711256	0.4092673	0	0	0	0	0	0
0.9775649	-0.1711256	0.4092673	0	0	0	0	0	0
0.9940539	-0.1711256	0.4092673	0	0	0	0	0	0
1.010622	-0.1711256	0.4092673	0	0	0	0	0	0
1.027187	-0.1711256	0.4092673	0	0	0	0	0	0
1.043754	-0.1711256	0.4092673	0	0	0	0	0	0
1.060322	-0.1711256	0.4092673	0	0	0	0	0	0
1.076887	-0.1711256	0.4092673	0	0	0	0	0	0
1.093453	-0.1711256	0.4092673	0	0	0	0	0	0
1.11002	-0.1711256	0.4092673	0	0	0	0	0	0
1.126587	-0.1711256	0.4092673	0	0	0	0	0	0
1.143153	-0.1711256	0.4092673	0	0	0	0	0	0
1.15972	-0.1711256	0.4092673	0	0	0	0	0	0
1.176287	-0.1711256	0.4092673	0	0	0	0	0	0
1.192853	-0.1711256	0.4092673	0	0	0	0	0	0
1.20942	-0.1711256	0.4092673	0	0	0	0	0	0
1.225986	-0.1711256	0.4092673	0	0	0	0	0	0
1.242553	-0.1711256	0.4092673	0	0	0	0	0	0
1.275775	-0.1711256	0.4092673	0	0	0	0	0	0
1.325387	-0.1711511	0.4092494	-0.0005151054	-0.0003604236	-0.006218579	-0.004351193	0	0
1.341953	-0.1711767	0.4092315	-0.00154261	-0.001081176	-0.01552625	-0.01089103	0	0
1.35852	-0.1712278	0.4091599	-0.003084188	-0.00432272	-0.04652625	-0.09783279	0	0
1.375087	-0.17133	0.4090883	-0.006169541	-0.004321108	-0.09311883	4.865526E-05	0	0
1.391855	-0.171611	0.4088198	-0.01676033	-0.01601299	-0.3177057	-0.3507369	0	0
1.40822	-0.1730414	0.4078173	-0.08740512	-0.06125616	-2.132133	-1.365485	0	0
1.424787	-0.1746752	0.4066718	-0.09861755	-0.06914373	-0.3404757	-0.2395132	0	0
1.486465	-0.2055803	0.3847793	-0.50107	-0.3549464	-5.143465	-3.652645	0	0
1.503033	-0.2082521	0.3828489	-0.1612638	-0.1165202	4.342807	3.047145	0	0
1.5196	-0.2132849	0.3793101	-0.3037878	-0.2136078	-4.301414	-2.930129	0	0
1.536466	-0.2134859	0.3791671	-0.01192289	-0.008476343	8.729918	6.135648	0	0
1.552735	-0.2134859	0.3791671	0	0	0.3598272	0.2558119	0	0
1.5693	-0.2135111	0.3791493	-0.001517501	-0.001079432	-0.04621646	-0.03287477	0	0
1.585866	-0.2134859	0.3791314	0.001517468	-0.001077609	0.09160381	5.500053E-05	0	0
1.602505	-0.2135111	0.3791493	-0.001510804	0.001072877	-0.09119952	0.0647641	0	0
1.619018	-0.2135111	0.3791493	0	0	0.04557254	-0.03236272	0	0
1.635566	-0.2135111	0.3791493	0	0	0	0	0	0
1.66956	-0.2135111	0.3791493	0	0	0	0	0	0
1.686127	-0.2135111	0.3791493	0	0	0	0	0	0
1.702695	-0.2135111	0.3791493	0	0	0	0	0	0
1.71926	-0.2135111	0.3791493	0	0	0	0	0	0
1.736101	-0.2135111	0.3791493	0	0	0	0	0	0
1.752393	-0.2135111	0.3791493	0	0	0	0	0	0
1.769124	-0.2135111	0.3791493	0	0	0	0	0	0
1.785638	-0.2135111	0.3791493	0	0	0	0	0	0
1.81866	-0.2135111	0.3791493	0	0	0	0	0	0
1.835227	-0.2135111	0.3791493	0	0	0	0	0	0
1.851793	-0.2135111	0.3791493	0	0	0	0	0	0
1.868695	-0.2135111	0.3791493	0	0	0	0	0	0
1.884927	-0.2135111	0.3791493	0	0	0	0	0	0
1.901717	-0.2135111	0.3791493	0	0	0	0	0	0
1.91806	-0.2135111	0.3791493	0	0	0	0	0	0
1.934741	-0.2135111	0.3791493	0	0	0	0	0	0
1.951194	-0.2135111	0.3791493	0	0	0	0	0	0
1.967762	-0.2135111	0.3791493	0	0	0	0	0	0
1.984327	0	0	12.88913	-22.88829	389.0101	-690.7974	0	0
2.000894	-0.2134859	0.3791314	-12.88613	22.88458	-777.9493	1381.518	0	0
2.017461	-0.2134859	0.3791314	0	0	388.9112	-690.6705	0	0
2.034312	-0.2135111	0.3791135	-0.001491759	-0.001061121	-0.04463914	-0.03175279	0	0
2.06716	-0.2134357	0.3790242	0.002295846	-0.002719995	0.07620968	-0.0333779	0	0
2.083727	-0.2129078	0.3784344	0.03186433	-0.0355989	0.5983694	-0.6653613	0	0
2.100358	-0.2098889	0.374932	0.1815158	-0.21059	4.507831	-5.271114	0	0
2.11686	-0.2078238	0.3641414	0.1251454	-0.6538995	-1.701325	-13.37959	0	0
2.133428	-0.2070426	0.353693	0.04715203	-0.6306664	-2.358494	0.7025602	0	0
2.16656	-0.2041424	0.324067	0.08753256	-0.8941616	0.8124852	-5.301712	0	0
2.183419	-0.2026026	0.309831	0.09133691	-0.8444589	0.07610083	0.9942364	0	0
2.199694	-0.200228	0.2909591	0.145906	-1.159533	1.646945	-9.509237	0	0
2.216261	-0.1997224	0.2865606	0.03051516	-0.2654937	-3.513445	27.22192	0	0
2.232828	-0.1975221	0.2691885	0.1328163	-1.048614	3.0875	-23.63496	0	0
2.249463	-0.1957756	0.2572794	0.1049854	-0.7158863	-0.8382269	10.02127	0	0
2.265975	-0.1941799	0.2421304	0.09663972	-0.9174867	-0.2517782	-6.082037	0	0
2.282527	-0.1928114	0.2310376	0.08267706	-0.6701605	-0.4222935	7.480253	0	0
2.299095	-0.1919241	0.220058	0.05356153	-0.6627227	-0.8790941	0.2245708	0	0
2.315661	-0.1903514	0.2049406	0.09493509	-0.9125488	1.248692	-7.539983	0	0
2.332227	-0.1894631	0.1933493	0.05361666	-0.699698	-1.247073	6.424266	0	0
2.348794	-0.1882445	0.1777808	0.07355978	-0.9397424	0.6019106	-7.244868	0	0
2.382375	-0.1865425	0.1555198	0.05068274	-0.6629079	-0.4561948	5.520401	0	0
2.398942	-0.1843309	0.1396563	0.1334943	-0.9575214	1.651342	-5.87488	0	0
2.415509	-0.1832371	0.1337026	0.06602129	-0.3593669	-2.036339	18.05234	0	0
2.432075	-0.1822956	0.1257721	0.05683413	-0.4787127	-0.2772772	-3.601968	0	0
2.449104	-0.1818883	0.118615	0.02391407	-0.4202875	-0.9798999	1.73909	0	0
2.465208	-0.1800804	0.1101483	0.1122631	-0.5257542	2.666495	-3.183129	0	0
2.481775	-0.1754407	0.1061566	0.2800618	-0.2409438	5.136055	8.717599	0	0
2.498342	-0.1695153	0.1018683	0.3576692	-0.2588543	2.342262	-0.5405563	0	0
2.514909	-0.1657034	0.09917226	0.2300949	-0.162736	-3.85031	2.900939	0	0
2.531477	-0.1649353	0.09862186	0.04635742	-0.03321959	-5.545049	3.908701	0	0
2.548042	-0.1631423	0.09733734	0.1082386	-0.07754412	1.867619	-1.337746	0	0
2.564608	-0.1628092	0.09709875	0.02010744	-0.01440235	-2.660073	1.905814	0	0
2.581175	-0.1628092	0.09709875	0	0	-0.6068742	0.4346858	0	0
2.598211	-0.1628092	0.09709875	0	0	0	0	0	0
2.614309	-0.1628092	0.09709875	0	0	0	0	0	0
2.630875	-0.1628092	0.09709875	0	0	0	0	0	0
2.647443	-0.1628092	0.09709875	0	0	0	0	0	0
2.664009	-0.1628092	0.09709875	0	0	0	0	0	0
2.680575	-0.1628092	0.09709875	0	0	0	0	0	0
2.697142	-0.1628092	0.09709875	0	0	0	0	0	0
2.713709	-0.1628092	0.09709875	0	0	0	0	0	0
2.730275	-0.1628092	0.09709875	0	0	0	0	0	0
2.746842	-0.1628092	0.09709875	0	0	0	0	0	0
2.780338	-0.1628092	0.09709875	0	0	0	0	0	0
2.796542	-0.1628092	0.09709875	0	0	0	0	0	0
2.813109	-0.1628092	0.09709875	0	0	0	0	0	0
2.829675	-0.1628092	0.09709875	0	0	0	0	0	0
2.846243	-0.1628092	0.09709875	0	0	0	0	0	0
2.862809	-0.1628092	0.09709875	0	0	0	0	0	0
2.879375	-0.1628092	0.09709875	0	0	0	0	0	0
2.895943	-0.1628092	0.09709875	0	0	0	0	0	0
2.912509	-0.1628092	0.09709875	0	0	0	0	0	0
2.929076	-0.1628092	0.09709875	0	0	0	0	0	0
2.966131	-0.1628092	0.09709875	0	0	0	0	0	0
2.982985	-0.1628092	0.09709875	0	0	0	0	0	0
2.999264	-0.1627836	0.09708039	0.001574353	-0.001127676	0.04751545	-0.03403432	0	0
3.015831	-0.1627836	0.09708039	0	0	-0.0479307	0.03433176	0	0
3.032518	-0.1627836	0.09708039	0	0	0	0	0	0
3.048965	-0.1627836	0.09708039	0	0	0	0	0	0
3.065531	-0.1627836	0.09708039	0	0	0	0	0	0
3.082098	-0.1627836	0.09708039	0	0	0	0	0	0
3.098664	-0.1628092	0.09709875	-0.001547074	0.001108137	-0.04669281	0.03344508	0	0
3.115231	-0.1628092	0.09709875	0	0	0.04669214	-0.0334446	0	0
3.131798	-0.1628092	0.09709875	0	0	0	0	0	0
3.148601	-0.1628092	0.09709875	0	0	0	0	0	0
3.16493	-0.1628092	0.09709875	0	0	0	0	0	0
3.181497	-0.1628092	0.09709875	0	0	0	0	0	0
3.198134	-0.1628348	0.0971171	-0.001539638	0.001103004	-0.04636928	0.03321918	0	0
3.214646	-0.1628861	0.09744745	-0.003104424	0.02000729	-0.04720461	0.5702822	0	0
3.231198	-0.1632704	0.09816314	-0.02321997	0.04323945	-0.6083885	0.7026496	0	0
3.24817	-0.165473	0.1002545	-0.1297753	0.1232247	-3.178499	2.385925	0	0
3.264331	-0.1696687	0.1036647	-0.2596168	0.2110123	-3.918764	2.64953	0	0
3.281193	-0.1762061	0.1086472	-0.387699	0.2954893	-3.878562	2.558118	0	0
3.297464	-0.1858055	0.1164586	-0.5899696	0.4800749	-6.104801	5.571043	0	0
3.314031	-0.1919748	0.1236005	-0.3723871	0.431099	6.625964	-1.491445	0	0
3.330598	-0.1973956	0.1357061	-0.3272098	0.7307183	1.363491	9.042789	0	0
3.347164	-0.1995707	0.1459671	-0.1313009	0.6193881	5.912797	-3.360096	0	0
3.36373	-0.2008345	0.1530877	-0.07628375	0.4298274	1.660517	-5.721284	0	0
3.380297	-0.2022744	0.1651114	-0.08691159	0.7257494	-0.3207582	8.931203	0	0
3.396864	-0.203461	0.1820647	-0.07162774	1.023334	0.4612742	8.981243	0	0
3.413431	-0.205429	0.1996068	-0.1187903	1.058845	-1.423389	1.071736	0	0
3.429998	-0.2068914	0.2171806	-0.08827302	1.060813	0.9210396	0.05941844	0	0
3.463323	-0.2087307	0.2394391	-0.05519109	0.6679087	0.6630715	-7.875113	0	0
3.479697	-0.2094861	0.2529967	-0.04613875	0.8280131	0.1821421	3.221461	0	0
3.496264	-0.2114995	0.2716944	-0.1215255	1.128598	-2.288548	9.124978	0	0
3.51283	-0.2128323	0.2862745	-0.08045827	0.8801073	1.239447	-7.499672	0	0
3.5294	-0.2146167	0.3058826	-0.1076892	1.183376	-0.8217971	9.152267	0	0
3.545964	-0.2151693	0.3196734	-0.03336224	0.8325591	2.243226	-10.58782	0	0
3.562531	-0.2167762	0.3359604	-0.09699346	0.9831171	-1.920588	4.544307	0	0
3.596734	-0.2182816	0.3491392	-0.04401406	0.3853106	1.043527	-11.7749	0	0
3.613301	-0.2206381	0.3616765	-0.1422391	0.7567766	-1.934722	7.316706	0	0
3.629869	-0.2256435	0.3672496	-0.3021007	0.3363672	-4.824495	-12.68762	0	0
3.646437	-0.2257684	0.367339	-0.00754436	0.005391141	8.88928	-9.988373	0	0
3.663001	-0.2256435	0.3669995	0.007545989	-0.02049148	0.4554702	-0.7812121	0	0
3.679568	-0.2256934	0.3669638	-0.003017564	-0.002156816	-0.3188385	0.553393	0	0
3.733917	-0.2259434	0.3664994	-0.004599277	-0.008545471	-0.02230384	-0.09008681	0	0
3.750485	-0.2258934	0.3663207	0.003017477	-0.01078197	0.1074036	-0.03153681	0	0
3.767052	-0.2258684	0.3661599	0.001508441	-0.009705472	-0.04554313	0.03248907	0	0
3.783618	-0.2258184	0.3655883	0.003017694	-0.03450335	0.04555133	-0.7484338	0	0
3.800185	-0.2256435	0.3649988	0.01056238	-0.03558271	0.2277056	-0.03257592	0	0
3.816752	-0.2255935	0.3649274	0.003017694	-0.00431202	-0.2277056	0.9437783	0	0
3.899588	-0.2235426	0.3633555	0.02475855	-0.01897641	0.2187156	-0.1475254	0	0
3.916154	-0.2235676	0.3633376	-0.001510262	-0.001077602	-0.2642692	0.1800654	0	0
3.932719	-0.2235676	0.3633376	0	0	0.04558372	0.03252489	0	0
3.949285	-0.2235676	0.3633376	0	0	0	0	0	0
3.965852	-0.2235676	0.3633376	0	0	0	0	0	0
3.982419	-0.2235676	0.3633376	0	0	0	0	0	0
3.998986	-0.2235676	0.3633376	0	0	0	0	0	0
4.015713	-0.2235676	0.3633376	0	0	0	0	0	0
4.032223	-0.2235676	0.3633376	0	0	0	0	0	0
4.048685	-0.2235676	0.3633376	0	0	0	0	0	0
4.065252	-0.2235676	0.3633376	0	0	0	0	0	0
4.082259	-0.2235676	0.3633376	0	0	0	0	0	0
4.098385	-0.2235676	0.3633376	0	0	0	0	0	0
4.115282	-0.2235676	0.3633376	0	0	0	0	0	0
4.131519	-0.2235676	0.3633376	0	0	0	0	0	0
4.148086	-0.2235676	0.3633376	0	0	0	0	0	0
4.164816	-0.2235676	0.3633376	0	0	0	0	0	0
4.181329	-0.2235676	0.3633376	0	0	0	0	0	0
4.197786	-0.2235676	0.3633376	0	0	0	0	0	0
4.214352	-0.2235676	0.3633376	0	0	0	0	0	0
4.230918	-0.2235926	0.3633198	-0.001510283	-0.001077617	-0.04558372	-0.03252489	0	0
4.247486	-0.2235676	0.3633019	0.001510109	-0.001079292	0.09115826	-5.054905E-05	0	0
4.264052	-0.2235926	0.3632841	-0.00151024	-0.001077586	-0.09115563	5.14829E-05	0	0
4.2809	-0.2235926	0.3632841	0	0	0.04519797	0.03224965	0	0
4.313858	-0.2235926	0.3632841	0	0	0	0	0	0
4.330435	-0.2235926	0.3632841	0	0	0	0	0	0
4.347448	-0.2235926	0.3632841	0	0	0	0	0	0
4.363558	-0.2235926	0.3632841	0	0	0	0	0	0
4.38047	-0.2235926	0.3632841	0	0	0	0	0	0
4.396691	-0.2235926	0.3632841	0	0	0	0	0	0
4.413258	-0.2235926	0.3632841	0	0	0	0	0	0
4.446391	-0.2235926	0.3632841	0	0	0	0	0	0
4.463027	-0.2236176	0.3633019	-0.001504772	0.001073046	-0.0302346	0.02156015	0	0
4.47954	-0.2236176	0.3633019	0	0	0.04539387	-0.03237015	0	0
4.496091	-0.2236176	0.3633019	0	0	0	0	0	0
4.512658	-0.2235926	0.3632841	0.001511096	-0.001077555	0.0456286	-0.03253754	0	0
4.529227	-0.2235926	0.3632841	0	0	-0.04560299	0.03251928	0	0
4.545791	-0.2235926	0.3632841	0	0	0	0	0	0
4.562358	-0.2236176	0.3632662	-0.001511096	-0.001077555	-0.04560956	-0.03252396	0	0
4.578925	-0.2236176	0.3632662	0	0	0.04560627	0.03252162	0	0
4.595623	-0.2236427	0.3632483	-0.001498294	-0.001070847	-0.04504099	-0.0321913	0	0
4.612058	-0.2236427	0.3632483	0	0	0.04522055	0.03231963	0	0
4.628645	-0.2236427	0.3632126	0	-0.002152384	0	-0.06517952	0	0
4.645192	-0.2236927	0.3631769	-0.003024135	-0.002159582	-0.0912699	-0.0002172309	0	0
4.661758	-0.2236927	0.3631411	0	-0.002156971	0.09132905	7.884418E-05	0	0
4.678684	-0.2236927	0.3631411	0	0	0	0.06440242	0	0
4.694891	-0.2237177	0.3631233	-0.001543698	-0.001101459	-0.04659091	-0.03324354	0	0
4.728217	-0.2237177	0.3631233	0	0	0.03116481	0.02223671	0	0
4.74473	-0.2237427	0.3631411	-0.001515124	0.001081071	-0.03040036	0.02169126	0	0
4.761159	-0.2237177	0.3631233	0.001522864	-0.001086594	0.09222285	-0.06580283	0	0
4.777726	-0.2237177	0.3631233	0	0	-0.0461534	0.03293137	0	0
4.794291	-0.2237177	0.3631233	0	0	0	0	0	0
4.810858	-0.2237177	0.3631233	0	0	0	0	0	0
4.827786	-0.2237177	0.3631233	0	0	0	0	0	0
4.843992	-0.2237177	0.3631233	0	0	0	0	0	0
4.860559	-0.2237177	0.3631233	0	0	0	0	0	0
4.877125	-0.2237177	0.3631233	0	0	0	0	0	0
4.893692	-0.2237427	0.3631054	-0.001510109	-0.001077493	-0.04557716	-0.03252021	0	0
4.910258	-0.2237427	0.3631054	0	0	0.04557651	0.03251975	0	0
4.926826	-0.2237427	0.3631054	0	0	0	0	0	0
4.943392	-0.2237427	0.3631054	0	0	0	0	0	0
4.977392	-0.2237427	0.3631054	0	0	0	0	0	0
4.993916	-0.2237678	0.3630876	-0.001514119	-0.001082157	-0.02996816	-0.02141858	0	0
5.010483	-0.2237928	0.3630697	-0.001510196	-0.001077555	0.0001185311	0.0001390767	0	0
5.027049	-0.2238178	0.3629804	-0.001510283	-0.005391684	-2.624677E-06	-0.1302082	0	0
5.043615	-0.2241931	0.362641	-0.02265204	-0.02048434	-0.6380964	-0.4555235	0	0
5.060182	-0.2249684	0.3620159	-0.04679989	-0.03773602	-0.7288045	-0.5206716	0	0
5.076748	-0.2263183	0.3610514	-0.08148639	-0.05822204	-1.046886	-0.618296	0	0
5.093474	-0.2263433	0.3610335	-0.001494035	-0.001067295	2.402729	1.716756	0	0
5.109884	-0.2263183	0.3610156	0.001522862	-0.001089704	0.0910475	-0.0006763036	0	0
5.126449	-0.2263183	0.3610156	0	0	-0.04618271	0.03304666	0	0
5.143017	-0.2262183	0.3609442	0.006034141	-0.004311772	0.1821186	-0.1301351	0	0
5.159582	-0.2260434	0.3608192	0.01056149	-0.007547136	0.1366416	-0.0976477	0	0
5.176148	-0.2258434	0.3606406	0.01207022	-0.01078126	0.04553756	-0.09761447	0	0
5.192716	-0.2258434	0.3606048	0	-0.002156785	-0.3642853	0.2602909	0	0
5.209282	-0.2258434	0.3606048	0	0	0	0.06509285	0	0
5.225848	-0.2258934	0.3605691	-0.003017955	-0.002157096	-0.09108992	-0.0651069	0	0
5.242415	-0.2258934	0.3605334	0	-0.002155048	0.0910873	6.179058E-05	0	0
5.258983	-0.2258684	0.3604083	0.001508311	-0.007547848	0.04552025	-0.1627527	0	0
5.275548	-0.2255935	0.3601047	0.0165992	-0.01832902	0.4554636	-0.3253903	0	0
5.292115	-0.2213645	0.3569435	0.2552654	-0.190819	7.20348	-5.206133	0	0
5.308681	-0.2155712	0.3522108	0.3497091	-0.2856809	2.850438	-2.863061	0	0
5.325248	-0.2133351	0.3503357	0.1349676	-0.1131832	-6.481099	5.206141	0	0
5.341815	-0.2067653	0.3399605	0.3965646	-0.6262664	7.895128	-15.48511	0	0
5.358381	-0.2069922	0.3224417	-0.0136938	-1.057493	-12.38216	-13.01502	0	0
5.374948	-0.2078238	0.3006291	-0.05019771	-1.31669	-1.101753	-7.823013	0	0
5.391514	-0.2084032	0.2777605	-0.03497557	-1.380388	0.4594248	-1.92249	0	0
5.408195	-0.2087307	0.2671119	-0.0196303	-0.6384001	0.4615536	22.31744	0	0
5.424648	-0.2107698	0.2489634	-0.1239367	-1.103034	-3.148066	-14.02308	0	0
5.441218	-0.2131843	0.2390622	-0.1457098	-0.5975125	-0.6593145	15.30778	0	0
5.45778	-0.2172279	0.2294211	-0.24415	-0.5821229	-2.971101	0.4644846	0	0
5.474347	-0.2203374	0.2260076	-0.1876916	-0.2060442	1.704213	11.35204	0	0
5.490914	-0.2303131	0.2188352	-0.6021563	-0.4329424	-12.50893	-6.847999	0	0
5.507481	-0.2361421	0.2145901	-0.351835	-0.2562349	7.554821	5.333121	0	0
5.524048	-0.240168	0.2116389	-0.2430103	-0.178142	3.284385	2.356882	0	0
5.540618	-0.2478744	0.2055351	-0.4650809	-0.3683615	-6.701624	-5.740423	0	0
5.557181	-0.2530119	0.2003098	-0.310169	-0.3154697	4.675386	1.596323	0	0
5.573813	-0.2538503	0.1926998	-0.05041536	-0.4575658	7.825079	-4.280644	0	0
5.623899	-0.2505683	0.1600183	0.06552807	-0.6525061	1.737823	-2.921871	0	0
5.640466	-0.248814	0.1426035	0.1058945	-1.051193	0.6056231	-5.981548	0	0
5.657033	-0.2485915	0.1389466	0.01342948	-0.2207288	-2.790641	25.06382	0	0
5.673599	-0.2472807	0.1259911	0.07912163	-0.7820433	1.98265	-16.941	0	0
5.690166	-0.2473302	0.1185054	-0.002987199	-0.4518603	-2.478192	9.965517	0	0
5.706735	-0.248097	0.1149412	-0.04627515	-0.2151104	-1.306395	7.14492	0	0
5.723301	-0.2508153	0.1131856	-0.1640825	-0.1059737	-3.55528	3.293611	0	0
5.739932	-0.252247	0.1120514	-0.08609184	-0.06819815	2.3493	1.137906	0	0
5.756442	-0.2522224	0.1120331	0.001494671	-0.001108367	2.64291	2.024424	0	0
5.773	-0.2521977	0.1119782	0.001490281	-0.003314435	-0.0001327727	-0.06671366	0	0
5.789566	-0.252099	0.111905	0.005958378	-0.004417961	0.1348902	-0.03331504	0	0
5.806133	-0.2518028	0.1116855	0.01787719	-0.01325229	0.3597259	-0.266632	0	0
5.8227	-0.2482948	0.1090866	0.2117504	-0.1568715	5.851189	-4.3345	0	0
5.839504	-0.2447805	0.1064497	0.2091305	-0.156919	-0.07850723	-0.001423986	0	0
5.856012	-0.2381809	0.1015016	0.3997709	-0.2997336	5.722737	-4.287079	0	0
5.872399	-0.2287161	0.09438156	0.5775953	-0.4345037	5.405803	-4.096965	0	0
5.889034	-0.2190339	0.08708473	0.5820211	-0.4386318	0.134025	-0.1250108	0	0
5.905547	-0.2116755	0.08158113	0.4456153	-0.3332917	-4.115018	3.177844	0	0
5.922099	-0.2025774	0.07463174	0.549688	-0.4198651	3.147579	-2.61833	0	0
5.938665	-0.1969907	0.06925974	0.3372244	-0.3242636	-6.415303	2.886671	0	0
5.955232	-0.1960794	0.06108674	0.05500479	-0.4933375	-8.517651	-5.102806	0	0
5.971799	-0.1970413	0.05196952	-0.05805859	-0.5503165	-3.412308	-1.719654	0	0
6.004932	-0.2034357	0.03316666	-0.1929963	-0.567504	-2.715057	-0.3458284	0	0
6.022129	-0.2080757	0.02196228	-0.2698189	-0.6515441	-1.526402	-1.669807	0	0
6.038065	-0.2095365	0.01934287	-0.09165744	-0.1643621	5.377079	14.70361	0	0
6.054632	-0.2138881	0.00653557	-0.2626707	-0.7730724	-5.261364	-18.72747	0	0
6.071199	-0.2173283	-0.0005544053	-0.2076587	-0.4279641	1.660313	10.41569	0	0
6.087765	-0.2198361	-0.006772894	-0.151382	-0.3753704	1.69851	1.58735	0	0
6.104332	-0.224093	-0.01137841	-0.2569519	-0.2779973	-3.186245	2.938853	0	0
6.120899	-0.2303381	-0.01610398	-0.3769545	-0.2852365	-3.621736	-0.2184833	0	0
6.137465	-0.2363659	-0.0207229	-0.3638634	-0.2788145	0.3950994	0.1938205	0	0
6.154222	-0.2392243	-0.02294011	-0.1705833	-0.1323187	5.800234	4.396261	0	0
6.170599	-0.2413593	-0.02457085	-0.1303647	-0.0995752	1.213836	0.9882303	0	0
6.187165	-0.2437399	-0.02643017	-0.1437003	-0.1122355	-0.4048071	-0.384306	0	0
6.203732	-0.243839	-0.026582	-0.005984119	-0.009164728	4.156464	3.110816	0	0
6.220299	-0.2438142	-0.02660098	0.001495762	-0.001145656	0.2257465	0.2420195	0	0
6.236866	-0.2438142	-0.02660098	0	0	-0.04514283	0.03457648	0	0
6.253432	-0.2438142	-0.02660098	0	0	0	0	0	0
6.269999	-0.2438142	-0.02660098	0	0	0	0	0	0
6.303201	-0.2437894	-0.02661996	0.0007468153	-0.0005716122	0.0150058	-0.01148543	0	0
6.319839	-0.2437894	-0.02661996	0	0	-0.01498441	0.01146906	0	0
6.336354	-0.2437894	-0.02661996	0	0	0	0	0	0
6.352901	-0.2437894	-0.02661996	0	0	0	0	0	0
6.369468	-0.2437894	-0.02661996	0	0	0	0	0	0
6.386034	-0.2437894	-0.02661996	0	0	0	0	0	0
6.402601	-0.2437894	-0.02661996	0	0	0	0	0	0
6.419168	-0.2437894	-0.02661996	0	0	0	0	0	0
6.435921	-0.2437894	-0.02661996	0	0	0	0	0	0
6.452301	-0.2437894	-0.02661996	0	0	0	0	0	0
6.468868	-0.2437894	-0.02661996	0	0	0	0	0	0
6.485435	-0.2437894	-0.02661996	0	0	0	0	0	0
6.502001	-0.2437894	-0.02661996	0	0	0	0	0	0
6.518567	-0.2437894	-0.02661996	0	0	0	0	0	0
6.535136	-0.2437894	-0.02661996	0	0	0	0	0	0
6.551702	-0.2437894	-0.02661996	0	0	0	0	0	0
6.568269	-0.2437894	-0.02661996	0	0	0	0	0	0
6.584835	-0.2437647	-0.02663894	0.001495891	-0.001145755	0.04514868	-0.03458096	0	0
6.6014	-0.2437647	-0.02663894	0	0	-0.04515063	0.03458245	0	0
6.618049	-0.2437647	-0.02663894	0	0	0	0	0	0
6.634534	-0.2437647	-0.02663894	0	0	0	0	0	0
6.651101	-0.2437647	-0.02663894	0	0	0	0	0	0
6.667667	-0.2437647	-0.02663894	0	0	0	0	0	0
6.684596	-0.2437647	-0.02663894	0	0	0	0	0	0
6.7008	-0.2437647	-0.02663894	0	0	0	0	0	0
6.717367	-0.2437647	-0.02663894	0	0	0	0	0	0
6.734131	-0.2437647	-0.02663894	0	0	0	0	0	0
6.750643	-0.2437647	-0.02663894	0	0	0	0	0	0
6.767155	-0.2437647	-0.02663894	0	0	0	0	0	0
6.783666	-0.2437647	-0.02663894	0	0	0	0	0	0
6.8002	-0.2437647	-0.02663894	0	0	0	0	0	0
6.81719	-0.2437647	-0.02663894	0	0	0	0	0	0
6.833334	-0.2437647	-0.02663894	0	0	0	0	0	0
6.8499	-0.2437647	-0.02663894	0	0	0	0	0	0
6.866728	-0.2437647	-0.02663894	0	0	0	0	0	0
6.953285	-0.2437647	-0.02663894	0	0	0	0	0	0
6.969658	-0.2437399	-0.02665792	0.001513535	-0.001159156	0.01470457	-0.01126164	0	0
6.98631	-0.2437399	-0.02665792	0	0	-0.04582962	0.03509907	0	0
7.002791	-0.2437647	-0.02660098	-0.001503638	0.003454842	-0.04538186	0.1042718	0	0
7.019358	-0.2438638	-0.02648711	-0.005984119	0.006873687	-0.1355782	0.1034534	0	0
7.035924	-0.2446071	-0.02580395	-0.04486824	0.04123791	-1.173576	1.037159	0	0
7.052491	-0.2476765	-0.02307281	-0.1852703	0.1648518	-4.237464	3.730781	0	0
7.069057	-0.2533078	-0.0181476	-0.3399272	0.2973037	-4.667688	3.997523	0	0
7.085879	-0.2593162	-0.01315441	-0.3571737	0.2968272	-0.516548	-0.01427092	0	0
7.102392	-0.266114	-0.007018106	-0.4116799	0.371618	-1.635139	2.243661	0	0
7.118758	-0.2709333	-0.002211525	-0.29446	0.2936844	3.565204	-2.370324	0	0
7.135324	-0.2800227	0.01310454	-0.5486731	0.9245325	-7.719157	19.15564	0	0
7.151891	-0.2824273	0.02472928	-0.1451461	0.7016909	12.17899	-6.725666	0	0
7.168458	-0.2838103	0.04152887	-0.08347724	1.014054	1.861225	9.427423	0	0
7.185025	-0.2838345	0.05458454	-0.001462525	0.7880648	2.47528	-6.820577	0	0
7.201591	-0.2837618	0.07177123	0.004391172	1.03742	0.17667	7.52578	0	0
7.218158	-0.2830098	0.083846	0.04539224	0.7288554	1.23745	-9.312774	0	0
7.234725	-0.2825487	0.09474884	0.02783195	0.6581349	-0.5299935	-2.134443	0	0
7.251292	-0.2825244	0.1081163	0.00146608	0.8068601	-0.7957463	4.488665	0	0
7.267859	-0.2816505	0.1176283	0.05275343	0.5741642	1.547878	-7.022877	0	0
7.28452	-0.2799498	0.1269032	0.1020691	0.5566604	1.484143	-0.5267723	0	0
7.300992	-0.2786124	0.1401113	0.08118939	0.8018327	-0.630161	7.399422	0	0
7.317558	-0.2777608	0.1474755	0.05140868	0.4445596	-0.9014171	-10.81412	0	0
7.334124	-0.2760321	0.1590028	0.104358	0.6958493	1.598174	7.584703	0	0
7.350691	-0.2733747	0.1744891	0.1603982	0.9347558	1.691371	7.210524	0	0
7.367258	-0.2713241	0.1863821	0.1237767	0.7178784	-1.105254	-6.545467	0	0
7.383824	-0.2681215	0.2017336	0.1933141	0.9266471	2.098703	6.300832	0	0
7.400391	-0.2653055	0.2127007	0.1699839	0.6619949	-0.7041283	-7.987449	0	0
7.417115	-0.2634911	0.2203277	0.1084898	0.456047	-1.847176	-6.186317	0	0
7.433626	-0.2592916	0.2390263	0.2543502	1.132532	4.388812	20.35486	0	0
7.450091	-0.2565114	0.2501645	0.1688568	0.6764697	-2.59262	-13.83028	0	0
7.466658	-0.2549103	0.2574944	0.09664537	0.4424452	-2.186109	-7.084794	0	0
7.516358	-0.244508	0.2949813	0.2092997	0.7542592	1.700005	4.705418	0	0
7.532925	-0.239721	0.30783	0.2889429	0.7755512	1.201844	0.3213034	0	0
7.54949	-0.2371369	0.3185481	0.155999	0.6470207	-4.012484	-3.879282	0	0
7.566224	-0.2356943	0.3259422	0.08621089	0.4418778	-2.095835	-6.160727	0	0
7.599261	-0.2300138	0.3495499	0.1719402	0.7145702	1.72248	5.478961	0	0
7.615829	-0.2279171	0.3585151	0.1265533	0.541142	-0.9149672	-3.496192	0	0
7.632395	-0.2244682	0.3700901	0.208184	0.6986893	2.463655	4.754855	0	0
7.648962	-0.222241	0.378363	0.134441	0.4993775	-2.225664	-6.0155	0	0
7.665528	-0.2205879	0.390089	0.09978269	0.7078081	-1.046036	6.290718	0	0
7.682302	-0.2204627	0.4018402	0.007469581	0.7005877	-2.768842	-0.2165667	0	0
7.698663	-0.2203875	0.4101982	0.004593874	0.5108435	-0.08678903	-5.726492	0	0
7.715229	-0.2196857	0.42055	0.04236079	0.6248903	1.146988	3.46362	0	0
7.731838	-0.2195103	0.4230407	0.01056469	0.1499584	-0.9584219	-14.31576	0	0
7.748362	-0.2193599	0.4337269	0.009102747	0.6467117	-0.04412293	14.99248	0	0
7.764929	-0.2195855	0.4416412	-0.01361836	0.4777048	-0.6866235	-5.107327	0	0
7.781495	-0.2202872	0.4498317	-0.04236259	0.4944248	-0.8675401	0.5046332	0	0
7.798384	-0.2206631	0.4523659	-0.02225475	0.1500526	0.6010518	-10.29377	0	0
7.814896	-0.2217652	0.4531568	-0.06674873	0.04790199	-1.332134	-3.058352	0	0
7.831195	-0.2223161	0.4535524	-0.03379794	0.02426716	1.004255	-0.7203289	0	0
7.847919	-0.2223662	0.4535164	-0.002993841	-0.002150932	0.9328108	-0.7999935	0	0
7.880895	-0.2224663	0.4533726	-0.003036569	-0.004361453	-0.0008597074	-0.04447705	0	0
7.897462	-0.2225414	0.4532108	-0.004533287	-0.009766356	-0.03021026	-0.1090944	0	0
7.914029	-0.2225164	0.453049	0.001511096	-0.009766356	0.1824251	0	0	0
7.930596	-0.2225915	0.4529231	-0.004533157	-0.007594836	-0.1824185	0.06553753	0	0
7.947162	-0.2226666	0.4527614	-0.004533418	-0.009766637	-7.884344E-06	-0.06554697	0	0
7.963729	-0.2229169	0.4524018	-0.01510872	-0.02170159	-0.3191725	-0.3602079	0	0
7.980295	-0.2232923	0.4520603	-0.02266234	-0.02061505	-0.2279785	0.03279322	0	0
7.996862	-0.2233174	0.4519704	-0.001510153	-0.005425397	0.6384019	0.4584444	0	0
8.013429	-0.2233424	0.4519165	-0.00151024	-0.003254346	-2.624601E-06	0.06552433	0	0
8.030048	-0.2233174	0.4517547	0.001505387	-0.009735253	0.09087056	-0.1952906	0	0
8.046562	-0.2232172	0.451575	0.006061951	-0.01088408	0.1375214	-0.0346727	0	0
8.063129	-0.2223161	0.4507482	0.05439159	-0.0499025	1.460946	-1.179479	0	0
8.080083	-0.2181813	0.4477474	0.243894	-0.1770036	5.653295	-3.791721	0	0
8.096262	-0.2127821	0.4437779	0.3337156	-0.2453507	2.710977	-2.062838	0	0
8.113106	-0.2069166	0.4394511	0.3482282	-0.2568774	0.4394719	-0.3490511	0	0
8.129395	-0.204748	0.4378716	0.1331286	-0.09695897	-6.491907	4.826487	0	0
8.145962	-0.2032338	0.4365796	0.09139964	-0.07799277	-1.270055	0.5772524	0	0
8.162528	-0.2032338	0.4365437	0	-0.002165966	-2.758605	2.288589	0	0
8.179094	-0.2034357	0.4363643	-0.01218986	-0.01083163	-0.3679118	-0.2615453	0	0
8.195662	-0.203461	0.4362745	-0.001523557	-0.005416091	0.3219095	0.1634413	0	0
8.212228	-0.2034105	0.4362386	0.00304764	-0.002166091	0.1379629	0.09808802	0	0
8.245361	-0.2029814	0.4359336	0.01295225	-0.009205991	0.1992926	-0.1416512	0	0
8.26221	-0.2025269	0.4356465	0.02697384	-0.01703918	0.2805324	-0.15672	0	0
8.278502	-0.1980787	0.4324892	0.2730373	-0.193802	7.424929	-5.33379	0	0
8.295233	-0.1920255	0.4282032	0.3617886	-0.2561666	2.687568	-1.888529	0	0
8.311744	-0.185653	0.4237038	0.3859546	-0.2725066	0.7269666	-0.4915413	0	0
8.328256	-0.1782459	0.4184897	0.4485929	-0.3157813	1.896816	-1.310447	0	0
8.344769	-0.1743945	0.415785	0.2332371	-0.1637958	-6.521036	4.602163	0	0
8.36178	-0.1716621	0.4139045	0.1606148	-0.1105382	-2.166244	1.588617	0	0
8.377894	-0.1686203	0.4117737	0.188765	-0.1322313	0.8497953	-0.6548676	0	0
8.394461	-0.1682623	0.4114872	0.02161379	-0.01729355	-5.114707	3.517012	0	0
8.460727	-0.1681855	0.4113977	0.001158074	-0.001350561	-0.2469532	0.192473	0	0
8.477361	-0.1681855	0.4113977	0	0	-0.01396952	0.01629144	0	0
8.493875	-0.1682111	0.4113798	-0.001549326	-0.001084618	-0.04673991	-0.03272066	0	0
8.510427	-0.1682878	0.4113261	-0.004635198	-0.003246169	-0.0933225	-0.0653693	0	0
8.526999	-0.168518	0.411165	-0.01389129	-0.009722462	-0.2794378	-0.1955168	0	0
8.543563	-0.1692341	0.4106637	-0.04322716	-0.03026405	-0.8853329	-0.6199285	0	0
8.560128	-0.169771	0.4102519	-0.03241131	-0.02485787	0.32647	0.1631822	0	0
8.576694	-0.1698221	0.4102161	-0.003086142	-0.002160569	0.8851116	0.6850652	0	0
8.593261	-0.1698221	0.4102161	0	0	0.09314532	0.06520987	0	0
8.609827	-0.1698221	0.4102161	0	0	0	0	0	0
8.626394	-0.1698221	0.4102161	0	0	0	0	0	0
8.642961	-0.1698221	0.4102161	0	0	0	0	0	0
8.659527	-0.1698221	0.4102161	0	0	0	0	0	0
8.676094	-0.1698221	0.4102161	0	0	0	0	0	0
8.69266	-0.1698221	0.4102161	0	0	0	0	0	0
8.709229	-0.1698221	0.4102519	0	0.002160321	0	0.0651986	0	0
8.725795	-0.1698221	0.4102519	0	0	0	-0.0651986	0	0
8.742362	-0.1698221	0.4102519	0	0	0	0	0	0
8.758927	-0.1698221	0.4102519	0	0	0	0	0	0
8.775495	-0.1698221	0.4102519	0	0	0	0	0	0
8.792086	-0.1698477	0.4102698	-0.001541214	0.001079568	-0.04648048	0.03255801	0	0
8.808628	-0.1698477	0.4102698	0	0	0.04651527	-0.03258237	0	0
8.825194	-0.1698477	0.4102698	0	0	0	0	0	0
8.841761	-0.1698732	0.4102877	-0.001542621	0.001081184	-0.04655908	0.03263208	0	0
8.858328	-0.1698732	0.4102877	0	0	0.04655774	-0.03263114	0	0
8.874894	-0.1698732	0.4102877	0	0	0	0	0	0
8.908028	-0.1698732	0.4102877	0	0	0	0	0	0
8.924594	-0.1698732	0.4102877	0	0	0	0	0	0
8.941159	-0.1698732	0.4102877	0	0	0	0	0	0
8.963996	-0.1698732	0.4102877	0	0	0	0	0	0
8.980564	-0.1698732	0.4102877	0	0	0	0	0	0
8.99713	-0.1698732	0.4102877	0	0	0	0	0	0
9.013741	-0.1698732	0.4102877	0	0	0	0	0	0
9.030264	-0.1698732	0.4102877	0	0	0	0	0	0
9.04683	-0.1698732	0.4102877	0	0	0	0	0	0
9.063396	-0.1698732	0.4102877	0	0	0	0	0	0
9.146332	-0.1698732	0.4102877	0	0	0	0	0	0
9.162795	-0.1698732	0.4102877	0	0	0	0	0	0
9.179361	-0.1698732	0.4102877	0	0	0	0	0	0
9.195928	-0.1698732	0.4102877	0	0	0	0	0	0
9.212495	-0.1698477	0.4102698	0.001542532	-0.001081122	0.04655506	-0.03262927	0	0
9.229061	-0.1698477	0.4102698	0	0	-0.04655506	0.03262927	0	0
9.245627	-0.1698477	0.4102698	0	0	0	0	0	0
9.262194	-0.1698477	0.4102698	0	0	0	0	0	0
9.295438	-0.1698732	0.4102877	-0.0007687219	0.0005387776	-0.01543296	0.01081657	0	0
9.311949	-0.1698732	0.4102877	0	0	0.01545011	-0.01082859	0	0
9.328461	-0.1698732	0.4102877	0	0	0	0	0	0
9.345028	-0.1698732	0.4102877	0	0	0	0	0	0
9.361594	-0.1698988	0.4103056	-0.001543521	0.001079385	-0.04658489	0.03257685	0	0
9.37816	-0.1698988	0.4103056	0	0	0.04658623	-0.03257778	0	0
9.394727	-0.1698988	0.4103056	0	0	0	0	0	0
9.411293	-0.1698988	0.4103056	0	0	0	0	0	0
9.427859	-0.1698988	0.4103056	0	0	0	0	0	0
9.444426	-0.1698988	0.4103056	0	0	0	0	0	0
9.461052	-0.1698988	0.4103056	0	0	0	0	0	0
9.477564	-0.1698988	0.4103056	0	0	0	0	0	0
9.494126	-0.1698988	0.4102698	0	-0.002161067	0	-0.06533961	0	0
9.510693	-0.1698988	0.4102698	0	0	0	0.0652324	0	0
9.52726	-0.1699243	0.4102519	-0.001542532	-0.001081122	-0.04655506	-0.03262927	0	0
9.543827	-0.1699499	0.410234	-0.001543432	-0.001079323	-2.714821E-05	5.42929E-05	0	0
9.577155	-0.1699755	0.4102161	-0.0007667861	-0.000537421	0.01556552	0.01086079	0	0
9.593721	-0.1699755	0.4102161	0	0	0.0153682	0.01077118	0	0
9.610658	-0.1699755	0.4102161	0	0	0	0	0	0
9.643421	-0.1699755	0.4102161	0	0	0	0	0	0
9.660192	-0.1699755	0.4102161	0	0	0	0	0	0
9.676555	-0.1699755	0.4102161	0	0	0	0	0	0
9.693121	-0.1699755	0.4102161	0	0	0	0	0	0
9.709687	-0.1699755	0.4102161	0	0	0	0	0	0
9.726254	-0.1699755	0.4102161	0	0	0	0	0	0
9.742821	-0.1699755	0.4102161	0	0	0	0	0	0
9.759388	-0.1699755	0.4102161	0	0	0	0	0	0
9.775953	-0.170001	0.4101982	-0.00154361	-0.001081246	-0.04658891	-0.03263396	0	0
9.792521	-0.170001	0.4101982	0	0	0.04658891	0.03263396	0	0
9.809088	-0.170001	0.4101982	0	0	0	0	0	0
9.825654	-0.170001	0.4101982	0	0	0	0	0	0
9.84222	-0.1700266	0.4101803	-0.001542621	-0.001081184	-0.04655908	-0.03263208	0	0
9.858787	-0.1700266	0.4101803	0	0	0.04655908	0.03263208	0	0
9.875353	-0.1700522	0.4101624	-0.001543521	-0.001079385	-0.04658623	-0.03257778	0	0
9.891919	-0.1700522	0.4101624	0	0	0.04658623	0.03257778	0	0
9.908486	-0.1700522	0.4101624	0	0	0	0	0	0
9.925057	-0.1700777	0.4101445	-0.001542177	-0.001080873	-0.04653765	-0.03261706	0	0
9.941621	-0.1700777	0.4101445	0	0	0.04654301	0.03262081	0	0
9.958186	-0.1700777	0.4101445	0	0	0	0	0	0
9.974915	-0.1701033	0.4101266	-0.001528562	-0.001070706	-0.04591141	-0.03215939	0	0
9.991321	-0.1701033	0.4101266	0	0	0.04613208	0.03231397	0	0
10.00789	-0.1701289	0.4101087	-0.001542621	-0.001079385	-0.04678532	-0.03273609	0	0
10.02445	-0.1701289	0.4101087	0	0	0.04655774	0.03257685	0	0
10.04102	-0.1701289	0.4101087	0	0	0	0	0	0
10.05759	-0.1701289	0.4101087	0	0	0	0	0	0
10.07415	-0.1701289	0.4101087	0	0	0	0	0	0
10.09072	-0.1701289	0.4101087	0	0	0	0	0	0
10.10729	-0.1701289	0.4101087	0	0	0	0	0	0
10.12385	-0.1701289	0.4101087	0	0	0	0	0	0
10.14042	-0.1701289	0.4101087	0	0	0	0	0	0
10.19012	-0.1701289	0.4101087	0	0	0	0	0	0
10.20669	-0.1701289	0.4101087	0	0	0	0	0	0
10.22325	-0.1701289	0.4101087	0	0	0	0	0	0
10.23982	-0.1701289	0.4101087	0	0	0	0	0	0
10.25638	-0.1701289	0.4101087	0	0	0	0	0	0
10.27295	-0.1701544	0.4100908	-0.001542621	-0.001081184	-0.04655908	-0.03263208	0	0
10.30715	-0.1701289	0.4100729	0.000747347	-0.0005237966	0.04511255	0.01098058	0	0
10.32366	-0.1701289	0.4100729	0	0	-0.01473858	0.0103299	0	0
10.34017	-0.1701544	0.410055	-0.001547611	-0.001084681	-0.04686209	-0.03284445	0	0
10.35668	-0.1701544	0.410055	0	0	0.04686344	0.0328454	0	0
10.37315	-0.1701544	0.410055	0	0	0	0	0	0
10.38972	-0.17018	0.4100371	-0.001543521	-0.001079385	-0.04672206	-0.03267277	0	0
10.40628	-0.17018	0.4100371	0	0	0.04658623	0.03257778	0	0
10.43942	-0.1702055	0.4099834	-0.0007712885	-0.00162083	-0.01551895	-0.03261242	0	0
10.45598	-0.1702055	0.4099475	0	-0.002162368	0.01551895	-0.01089619	0	0
10.47255	-0.1702567	0.4099118	-0.003086142	-0.002160569	-0.09314532	5.429251E-05	0	0
10.48912	-0.1703078	0.4098759	-0.003085243	-0.002162368	2.715328E-05	-5.429251E-05	0	0
10.50568	-0.1703333	0.409858	-0.001543521	-0.001079385	0.04653193	0.03268638	0	0
10.5223	-0.1703333	0.409858	0	0	0.04651795	0.03253003	0	0
10.53882	-0.1703333	0.409858	0	0	0	0	0	0
10.55538	-0.1703333	0.409858	0	0	0	0	0	0
10.57195	-0.1703589	0.4098401	-0.001542621	-0.001081184	-0.04655774	-0.03263114	0	0
10.58852	-0.1703589	0.4098401	0	0	0.04655908	0.03263208	0	0
10.60508	-0.1703589	0.4098401	0	0	0	0	0	0
10.62187	-0.1703589	0.4098401	0	0	0	0	0	0
10.63822	-0.1703589	0.4098401	0	0	0	0	0	0
10.65489	-0.1703589	0.4098401	0	0	0	0	0	0
10.67135	-0.1703589	0.4098401	0	0	0	0	0	0
10.68792	-0.1703589	0.4098401	0	0	0	0	0	0
10.70448	-0.1703589	0.4098401	0	0	0	0	0	0
10.72105	-0.1703589	0.4098401	0	0	0	0	0	0
10.73762	-0.1703589	0.4098401	0	0	0	0	0	0
10.75418	-0.1703589	0.4098401	0	0	0	0	0	0
10.77097	-0.1703589	0.4098401	0	0	0	0	0	0
10.78748	-0.1703589	0.4098401	0	0	0	0	0	0
10.804	-0.1703589	0.4098401	0	0	0	0	0	0
10.82051	-0.1703589	0.4098401	0	0	0	0	0	0
10.83702	-0.1703589	0.4098401	0	0	0	0	0	0
10.85358	-0.1703589	0.4098401	0	0	0	0	0	0
10.87015	-0.1703845	0.4098222	-0.001542621	-0.001081184	-0.04656176	-0.03263396	0	0
10.88672	-0.1704356	0.4097864	-0.003086142	-0.002160569	-0.04658624	-0.03257779	0	0
10.9033	-0.1705634	0.4096611	-0.007707351	-0.007558165	-0.1394162	-0.1628388	0	0
10.91985	-0.1708445	0.4092852	-0.01698252	-0.02271058	-0.2799333	-0.4573139	0	0
10.93642	-0.175109	0.4055443	-0.2574086	-0.2258016	-7.259209	-6.131946	0	0
10.9531	-0.1799276	0.3982263	-0.2888048	-0.4386092	-0.944196	-6.399891	0	0
10.96961	-0.1803351	0.3873893	-0.02468198	-0.6563114	7.956358	-6.557995	0	0
11.00268	-0.1775831	0.3588723	0.08321753	-0.8623078	2.176162	-4.154622	0	0
11.01925	-0.1768437	0.3466748	0.04463528	-0.7362864	-0.7772907	2.538869	0	0
11.03616	-0.1764611	0.334764	0.02262369	-0.7043808	-0.6575359	0.9530938	0	0
11.05267	-0.1764101	0.330871	0.003089082	-0.2357666	-0.5844919	14.02133	0	0
11.06895	-0.1765886	0.3107421	-0.01096743	-1.236553	-0.4286806	-30.52091	0	0
11.08552	-0.1770477	0.2983773	-0.02770712	-0.7463429	-0.5096495	14.92472	0	0
11.10208	-0.1764611	0.2823758	0.03540653	-0.9659094	1.904829	-6.626721	0	0
11.11865	-0.1752876	0.2673804	0.07083465	-0.9051724	1.069284	1.833152	0	0
11.13522	-0.1738839	0.257154	0.08472686	-0.6172667	0.4192798	8.689263	0	0
11.15178	-0.1716366	0.2481924	0.1356589	-0.5409564	1.537177	2.303115	0	0
11.16835	-0.1690806	0.2371419	0.1542855	-0.6670457	0.5621839	-3.805601	0	0
11.18492	-0.1679042	0.2285589	0.07101226	-0.5180733	-2.513264	4.496125	0	0
11.20148	-0.1671622	0.2194826	0.04478639	-0.5478798	-0.7915211	-0.8995877	0	0
11.21829	-0.165985	0.2078223	0.0700549	-0.6938702	0.7572004	-4.374775	0	0
11.23462	-0.165473	0.202058	0.03135495	-0.3530153	-1.168001	10.28732	0	0
11.25118	-0.163501	0.1904982	0.1190295	-0.6977473	2.665202	-10.47944	0	0
11.26775	-0.1626811	0.1817937	0.04949161	-0.5254384	-2.09872	5.200441	0	0
11.28434	-0.1627067	0.1695848	-0.001544352	-0.7360837	-1.539427	-6.353814	0	0
11.30088	-0.1625273	0.1603991	0.01083989	-0.5550864	0.3737572	5.46251	0	0
11.31745	-0.1623992	0.1480025	0.007734695	-0.7483045	-0.09377163	-5.834859	0	0
11.33402	-0.1626555	0.139165	-0.01546939	-0.5334619	-0.700341	6.484336	0	0
11.35058	-0.1626042	0.1339212	0.003094238	-0.3165333	0.5602836	6.547294	0	0
11.36739	-0.161579	0.1243671	0.06098687	-0.5683469	1.734523	-7.544593	0	0
11.38372	-0.1611688	0.1173907	0.02513055	-0.4274156	-1.082208	4.253558	0	0
11.40028	-0.1616046	0.111411	-0.02630821	-0.3609572	-1.564039	2.020725	0	0
11.41685	-0.1626555	0.1051674	-0.06342456	-0.3768455	-1.120174	-0.4795108	0	0
11.43342	-0.1636547	0.1006397	-0.06032132	-0.2733242	0.09365893	3.124371	0	0
11.44998	-0.1611688	0.09772273	0.1500579	-0.176077	6.349806	2.93518	0	0
11.48311	-0.1605022	0.09724557	0.02012109	-0.01440147	-2.614485	3.253105	0	0
11.49999	-0.1605022	0.09724557	0	0	-0.4023895	0.2880064	0	0
11.51625	-0.1605022	0.09724557	0	0	0	0	0	0
11.53282	-0.1605022	0.09724557	0	0	0	0	0	0
11.54938	-0.1605022	0.09724557	0	0	0	0	0	0
11.56595	-0.1605022	0.09724557	0	0	0	0	0	0
11.58254	-0.1605022	0.09724557	0	0	0	0	0	0
11.59908	-0.1605022	0.09724557	0	0	0	0	0	0
11.63221	-0.1605022	0.09724557	0	0	0	0	0	0
11.64878	-0.1605022	0.09724557	0	0	0	0	0	0
11.66535	-0.1605022	0.09724557	0	0	0	0	0	0
11.68191	-0.1605022	0.09724557	0	0	0	0	0	0
11.73165	-0.1605022	0.09724557	0	0	0	0	0	0
11.74818	-0.1605022	0.09724557	0	0	0	0	0	0
11.76475	-0.1605022	0.09724557	0	0	0	0	0	0
11.78131	-0.1605022	0.09724557	0	0	0	0	0	0
11.79788	-0.1605022	0.09724557	0	0	0	0	0	0
11.81445	-0.1605022	0.09724557	0	0	0	0	0	0
11.83101	-0.1605022	0.09724557	0	0	0	0	0	0
11.84758	-0.1605022	0.09724557	0	0	0	0	0	0
11.86415	-0.1605022	0.09724557	0	0	0	0	0	0
11.88071	-0.1605022	0.09724557	0	0	0	0	0	0
11.89728	-0.1605022	0.09728228	0	0.002215438	0	0.0668659	0	0
11.91384	-0.1605022	0.09728228	0	0	0	-0.0668659	0	0
11.94698	-0.1605022	0.09728228	0	0	0	0	0	0
11.96354	-0.1604765	0.09726392	0.001548018	-0.001107719	0.03114798	-0.02228863	0	0
11.98011	-0.1604765	0.09726392	0	0	-0.04672198	0.03343295	0	0
11.99668	-0.1604765	0.09726392	0	0	0	0	0	0
12.01334	-0.1604765	0.09726392	0	0	0	0	0	0
12.02985	-0.1605022	0.09728228	-0.001553294	0.001111494	-0.04681787	0.03350157	0	0
12.04638	-0.1605278	0.09737404	-0.001552128	0.005554203	3.528504E-05	0.1344954	0	0
12.06294	-0.1607073	0.09768603	-0.01083523	0.01883257	-0.2805521	0.4012964	0	0
12.07951	-0.1613739	0.09867691	-0.04023948	0.05981278	-0.8874732	1.236856	0	0
12.0964	-0.162553	0.1000344	-0.06979778	0.0803625	-0.8834263	0.6141815	0	0
12.11264	-0.1649609	0.1029682	-0.1482623	0.1806412	-2.368131	3.026505	0	0
12.12921	-0.1695409	0.1108987	-0.2764638	0.4787087	-3.907709	9.085386	0	0
12.14577	-0.1721475	0.12004	-0.1573447	0.5518028	3.595231	2.206112	0	0
12.16234	-0.1742413	0.1347409	-0.1263897	0.8874012	0.9342762	10.12896	0	0
12.17896	-0.1744965	0.1428945	-0.01535958	0.4906528	3.345888	-11.956	0	0
12.19547	-0.175007	0.1550661	-0.03090444	0.7369744	-0.4691585	7.434213	0	0
12.21204	-0.1762061	0.1743625	-0.07238177	1.164798	-1.253773	12.93221	0	0
12.22861	-0.1767671	0.1821731	-0.03386736	0.471451	1.162401	-20.92585	0	0
12.24551	-0.1778125	0.1979663	-0.06186071	0.9345567	-0.836463	13.83795	0	0
12.26174	-0.1783478	0.2100908	-0.03297285	0.7468416	0.8718625	-5.665415	0	0
12.27853	-0.1790869	0.2265107	-0.04402053	0.9780465	-0.3345462	7.001356	0	0
12.29487	-0.1794181	0.2389187	-0.02026537	0.7591248	0.716953	-6.607261	0	0
12.32943	-0.1805898	0.2672372	-0.03391225	0.8196005	-0.2681292	1.188205	0	0
12.42361	-0.1834661	0.3314247	-0.03053882	0.6815189	0.02620447	-1.072607	0	0
12.44018	-0.1840765	0.3383533	-0.03685111	0.4182384	-0.05699619	-2.377267	0	0
12.45674	-0.1854496	0.3434248	-0.08288419	0.3061316	-1.389361	-3.383583	0	0
12.47331	-0.1864409	0.3465498	-0.05983137	0.1886279	0.6957555	-3.546372	0	0
12.48987	-0.1863646	0.3464605	0.004601779	-0.00538973	1.944652	-5.855632	0	0
12.50669	-0.1863646	0.3464605	0	0	-0.1378504	0.1614542	0	0
12.52301	-0.1863646	0.3464605	0	0	0	0	0	0
12.53957	-0.1863646	0.3464605	0	0	0	0	0	0
12.55623	-0.1863646	0.3464248	0	-0.002145854	0	-0.06460208	0	0
12.57271	-0.1862884	0.3463712	0.004625477	-0.003249407	0.1396012	-0.03330626	0	0
12.58927	-0.1861867	0.3462641	0.006136305	-0.006469115	0.0457166	-0.09742616	0	0
12.60585	-0.1860851	0.3461569	0.006132069	-0.006462852	-0.0001278096	0.0001889817	0	0
12.62241	-0.1860088	0.3460676	0.00460586	-0.005393456	-0.04606372	0.03227629	0	0
12.63928	-0.185958	0.3459962	0.003011804	-0.004231182	-0.04768191	0.03476628	0	0
12.65554	-0.1858309	0.3457998	0.007817541	-0.01208424	0.1450416	-0.2370125	0	0
12.67231	-0.1857801	0.3456926	0.003031504	-0.006390066	-0.1449267	0.1724261	0	0
12.68867	-0.185653	0.3453891	0.007765157	-0.01854752	0.142866	-0.3669232	0	0
12.70533	-0.1856784	0.3450855	-0.001526267	-0.01822574	-0.2813632	0.009744192	0	0
12.77151	-0.1868728	0.3439962	-0.01804847	-0.01646014	-0.199461	0.02131478	0	0
12.78807	-0.1868728	0.3439962	0	0	0.2181226	0.1989271	0	0
12.80464	-0.1868728	0.3439962	0	0	0	0	0	0
12.82141	-0.1868728	0.3439962	0	0	0	0	0	0
12.83792	-0.1868728	0.3439962	0	0	0	0	0	0
12.85434	-0.1868728	0.3439962	0	0	0	0	0	0
12.87094	-0.1868982	0.344014	-0.001529927	0.001074987	-0.04632664	0.03255092	0	0
12.88747	-0.1868982	0.344014	0	0	0.04617596	-0.03244504	0	0
12.90406	-0.1868982	0.344014	0	0	0	0	0	0
12.9206	-0.1868982	0.344014	0	0	0	0	0	0
12.93749	-0.1868982	0.344014	0	0	0	0	0	0
12.95374	-0.1868982	0.344014	0	0	0	0	0	0
12.97031	-0.1868982	0.344014	0	0	0	0	0	0
12.98687	-0.1868982	0.344014	0	0	0	0	0	0
13.00344	-0.1868728	0.3439962	0.001533626	-0.001077586	0.0462876	-0.03252349	0	0
13.02005	-0.1868728	0.3439962	0	0	-0.04622374	0.03247862	0	0
13.03657	-0.1868728	0.3439962	0	0	0	0	0	0
13.05314	-0.1868728	0.3439962	0	0	0	0	0	0
13.08674	-0.1868474	0.3439783	0.0007560413	-0.0005312243	0.01506932	-0.0105883	0	0
13.10331	-0.1868474	0.3439783	0	0	-0.01506932	0.0105883	0	0
13.11987	-0.186822	0.3439605	0.001533538	-0.001079323	0.04628361	-0.03257497	0	0
13.13663	-0.186822	0.3439605	0	0	-0.0460187	0.03238852	0	0
13.15314	-0.1868474	0.3439426	-0.001538942	-0.001081321	-0.04626162	-0.03250523	0	0
13.16965	-0.1868474	0.3439426	0	0	0.04660364	0.03274555	0	0
13.18614	-0.1868474	0.3439426	0	0	0	0	0	0
13.20271	-0.1868474	0.3439426	0	0	0	0	0	0
13.21927	-0.1868474	0.3439426	0	0	0	0	0	0
13.23584	-0.1868474	0.3439426	0	0	0	0	0	0
13.25241	-0.1868474	0.3439426	0	0	0	0	0	0
13.26897	-0.1868728	0.3439605	-0.001533626	0.001077586	-0.0462876	0.03252349	0	0
13.28573	-0.1868728	0.3439605	0	0	0.04601608	-0.0323327	0	0
13.30225	-0.1868474	0.3439426	0.001538586	-0.001081071	0.046239	-0.03248934	0	0
13.31867	-0.1868474	0.3439426	0	0	-0.04671023	0.03282045	0	0
13.33524	-0.1868474	0.3439426	0	0	0	0	0	0
13.35181	-0.1868474	0.3439426	0	0	0	0	0	0
13.36837	-0.1868474	0.3439426	0	0	0	0	0	0
13.38494	-0.1868474	0.3439426	0	0	0	0	0	0
13.40182	-0.186822	0.3439248	0.00150546	-0.001057796	0.04501638	-0.03163028	0	0
13.41807	-0.186822	0.3439248	0	0	-0.0454375	0.03192617	0	0
13.43464	-0.186822	0.3438891	0	-0.002155048	0	-0.06565553	0	0
13.45121	-0.1867966	0.3438712	0.001534526	-0.001079385	0.04631342	0.03246451	0	0
13.46777	-0.1867712	0.3438533	0.001533626	-0.001077586	-2.714626E-05	5.429603E-05	0	0
13.48437	-0.1867458	0.3438355	0.001530279	-0.001075234	-0.0001009274	7.09152E-05	0	0
13.50091	-0.1867458	0.3438355	0	0	-0.04618524	0.03245156	0	0
13.51747	-0.1867458	0.3438355	0	0	0	0	0	0
13.53404	-0.1867458	0.3438355	0	0	0	0	0	0
13.5506	-0.1867458	0.3438355	0	0	0	0	0	0
13.56717	-0.1867458	0.3438355	0	0	0	0	0	0
13.58374	-0.1867458	0.3438355	0	0	0	0	0	0
13.65	-0.1867458	0.3438355	0	0	0	0	0	0
13.66657	-0.1867458	0.3438355	0	0	0	0	0	0
13.68314	-0.1867458	0.3438355	0	0	0	0	0	0
13.70002	-0.1867458	0.3438355	0	0	0	0	0	0
13.71627	-0.1867458	0.3438355	0	0	0	0	0	0
13.73284	-0.1867458	0.3438355	0	0	0	0	0	0
13.76607	-0.1867458	0.3438355	0	0	0	0	0	0
13.7826	-0.1867458	0.3438355	0	0	0	0	0	0
13.79916	-0.1867458	0.3438355	0	0	0	0	0	0
13.81573	-0.1867458	0.3438355	0	0	0	0	0	0
13.8323	-0.1867458	0.3438355	0	0	0	0	0	0
13.84913	-0.1867458	0.3438355	0	0	0	0	0	0
13.86543	-0.1867458	0.3438355	0	0	0	0	0	0
13.882	-0.1867458	0.3438355	0	0	0	0	0	0
13.89856	-0.1867458	0.3438355	0	0	0	0	0	0
13.91513	-0.1867458	0.3438355	0	0	0	0	0	0
13.9317	-0.1867712	0.3438533	-0.001533626	0.001077586	-0.04628361	0.03252068	0	0
13.94827	-0.1867712	0.3438533	0	0	0.04628893	-0.03252443	0	0
13.96483	-0.1867966	0.3438712	-0.001533626	0.001077586	-0.04628893	0.03252443	0	0
13.9814	-0.1867966	0.3438712	0	0	0.04628893	-0.03252443	0	0
13.99796	-0.186822	0.3438891	-0.001534349	0.001079261	-0.04630809	0.0325731	0	0
14.01453	-0.186822	0.3439248	0	0.002155297	0.04630809	0.03247575	0	0
14.0311	-0.186822	0.3439248	0	0	0	-0.06505259	0	0
14.04777	-0.186822	0.3439248	0	0	0	0	0	0
14.06423	-0.186822	0.3439248	0	0	0	0	0	0
14.0808	-0.186822	0.3439248	0	0	0	0	0	0
14.09781	-0.186822	0.3439248	0	0	0	0	0	0
14.11393	-0.1868474	0.3439069	-0.001575809	-0.001107225	-0.04755801	-0.03341612	0	0
14.13083	-0.186822	0.3438891	0.001503252	-0.001056244	0.09323752	0.00154378	0	0
14.14706	-0.186822	0.3438891	0	0	-0.04537084	0.03187933	0	0
14.16363	-0.1867966	0.3438712	0.001534526	-0.001079385	0.04678744	-0.03291028	0	0
14.18037	-0.1867966	0.3438712	0	0	-0.04607339	0.03240801	0	0
14.19676	-0.1867966	0.3438712	0	0	0	0	0	0
14.21333	-0.1867966	0.3438712	0	0	0	0	0	0
14.2299	-0.186822	0.3439248	-0.001534614	0.003234744	-0.04631608	0.09762757	0	0
14.24646	-0.1868728	0.3439962	-0.003067253	0.004312144	-0.04625912	0.0325188	0	0
14.26303	-0.1871015	0.3442283	-0.01380423	0.01401383	-0.3240798	0.2928313	0	0
14.27993	-0.1874063	0.3445498	-0.0180323	0.01901515	-0.1263274	0.1494303	0	0
14.29616	-0.1882445	0.3453176	-0.05164596	0.04731482	-1.014491	0.8541104	0	0
14.31296	-0.1923805	0.348407	-0.2462463	0.1839335	-5.892555	4.136854	0	0
14.3293	-0.2027794	0.3567113	-0.6365106	0.5082982	-11.77854	9.789625	0	0
14.34598	-0.2146167	0.36825	-0.7094389	0.6915455	-2.208419	5.549104	0	0
14.36243	-0.2225414	0.379042	-0.4818039	0.6561268	6.870236	-1.068971	0	0
14.39617	-0.2302383	0.4029674	-0.2281162	0.7090888	5.054646	1.055251	0	0
14.41274	-0.2337776	0.424134	-0.2136304	1.277618	0.2879402	11.30092	0	0
14.42954	-0.2361421	0.4392895	-0.1407048	0.9018625	2.185238	-11.25963	0	0
14.44587	-0.239423	0.4572927	-0.200942	1.102604	-1.818067	6.058747	0	0
14.46244	-0.2421532	0.4688127	-0.164791	0.6953485	1.098978	-12.38044	0	0
14.479	-0.2474539	0.4820476	-0.319972	0.7989051	-4.683506	3.125435	0	0
14.49559	-0.2511363	0.488133	-0.2220513	0.3669597	2.953894	-13.03014	0	0
14.5126	-0.2583817	0.5036182	-0.4258875	0.9102178	-6.067268	16.1703	0	0
14.52871	-0.259562	0.5067347	-0.0732756	0.1934836	10.64644	-21.64042	0	0
14.54527	-0.2666283	0.5206006	-0.4265969	0.8370876	-10.81422	19.69899	0	0
14.56184	-0.2684396	0.5258737	-0.1093363	0.3183071	9.576047	-15.65863	0	0
14.57864	-0.2711776	0.5384076	-0.1628993	0.7457303	-1.60494	12.80713	0	0
14.59516	-0.27213	0.545181	-0.05767759	0.4101899	3.157874	-10.07011	0	0
14.61154	-0.2733991	0.5506294	-0.07748362	0.3326383	-0.6021493	-2.357748	0	0
14.62818	-0.2781745	0.5548761	-0.2869063	0.2551388	-6.341561	-2.346774	0	0
14.64467	-0.2822089	0.557954	-0.2446682	0.186665	1.274786	-2.066604	0	0
14.66124	-0.2849013	0.5601357	-0.1625248	0.1316922	2.485027	-1.663055	0	0
14.6778	-0.2885571	0.5643007	-0.2206803	0.251414	-1.755237	3.61342	0	0
14.69437	-0.2880734	0.5669451	0.02920277	0.1596267	7.54192	-2.770306	0	0
14.71094	-0.2854587	0.5724235	0.1578331	0.3306984	3.882295	5.163253	0	0
14.7275	-0.2832281	0.5744846	0.1346425	0.1244135	-0.6999336	-6.226049	0	0
14.74407	-0.2803873	0.5767494	0.1714837	0.1367149	1.111934	0.3712779	0	0
14.76077	-0.2793177	0.5778916	0.06403448	0.06838458	-3.229717	-2.053879	0	0
14.77728	-0.276714	0.5799742	0.1576867	0.1261263	2.819613	1.738444	0	0
14.79377	-0.2760077	0.581431	0.04284965	0.08837142	-3.480314	-1.144219	0	0
14.81033	-0.2777365	0.5829621	-0.1043586	0.09242415	-4.454034	0.1226224	0	0
14.8269	-0.2821603	0.5865805	-0.2670363	0.2184172	-4.909906	3.802696	0	0
14.84383	-0.2878314	0.5914602	-0.3350005	0.2882549	-2.029088	2.085022	0	0
14.86003	-0.2890166	0.5924037	-0.07313982	0.05822568	7.903426	-6.942695	0	0
14.8766	-0.2929771	0.5956988	-0.2390712	0.1989019	-5.063491	4.292815	0	0
14.89336	-0.2944719	0.5972919	-0.08916534	0.09503172	4.497503	-3.116332	0	0
14.92638	-0.2887748	0.6017421	0.1725257	0.1347651	5.256258	0.7980735	0	0
14.94287	-0.2849497	0.6051953	0.2320956	0.2095293	1.203374	1.510315	0	0
14.95943	-0.2823545	0.6084105	0.1566584	0.1940807	-2.282744	-0.4674775	0	0
14.976	-0.2854829	0.6108473	-0.1888402	0.147095	-10.42777	-1.418111	0	0
14.99257	-0.2886297	0.6133047	-0.1899411	0.1483278	-0.03322387	0.03720579	0	0
15.0257	-0.2923016	0.6164352	-0.110825	0.09448398	1.59188	-1.083381	0	0
15.05786	-0.2888957	0.6213798	0.1058929	0.1537334	3.318998	0.9073951	0	0
15.0915	-0.2878556	0.6231545	0.03091603	0.05275187	-1.139372	-1.534547	0	0
15.10796	-0.2883878	0.6236403	-0.03233645	0.02951892	-1.262516	-0.4637286	0	0
15.12453	-0.289355	0.6245375	-0.05838395	0.05415995	-0.7887256	0.7461374	0	0
15.14109	-0.2946165	0.6294023	-0.3176019	0.2936575	-7.823664	7.228467	0	0
15.15806	-0.2953633	0.6349322	-0.04401629	0.3259197	8.158674	0.9620996	0	0
15.17423	-0.2933148	0.6403978	0.1267088	0.3380633	5.152493	0.3664949	0	0
15.19079	-0.2900076	0.6429749	0.1996323	0.1555574	2.227766	-5.575438	0	0
15.20736	-0.28921	0.6439725	0.04814598	0.0602189	-4.572129	-2.877487	0	0
15.2241	-0.2893792	0.6441042	-0.0101104	0.007873932	-1.749269	-1.571767	0	0
15.24049	-0.2930736	0.6471372	-0.2253152	0.1849735	-6.49508	5.34503	0	0
15.25706	-0.2950261	0.6491171	-0.1178599	0.1195131	3.259896	-1.985888	0	0
15.32333	-0.2904666	0.6574492	0.06880531	0.1257385	2.25353	0.075156	0	0
15.33989	-0.2914085	0.661218	-0.05685481	0.2274984	-1.517042	1.228505	0	0
15.35669	-0.2906116	0.6630193	0.04744542	0.1072361	3.126193	-3.604623	0	0
15.37303	-0.2892583	0.6640437	0.0828353	0.06270797	1.068099	-1.343901	0	0
15.38971	-0.28921	0.6640817	0.002896925	0.00227539	-2.420696	-1.830021	0	0
15.40622	-0.2891858	0.6641006	0.001463857	0.001147981	-0.04316809	-0.03396075	0	0
15.42274	-0.2891375	0.6641386	0.002928842	0.002299041	0.04435888	0.03485342	0	0
15.43929	-0.2891375	0.6641765	0	0.002289878	-0.08856595	-0.0002770837	0	0
15.45586	-0.2890891	0.6642145	0.002917938	0.002291895	0.08809904	6.086996E-05	0	0
15.47277	-0.2890649	0.6642335	0.001429266	0.00112438	-0.04446872	-0.03487531	0	0
15.48929	-0.2889924	0.6642904	0.004392107	0.003446558	0.08863804	0.06947164	0	0
15.5058	-0.2889199	0.6643474	0.004393883	0.003447952	5.377876E-05	4.220237E-05	0	0
15.52213	-0.2888957	0.6644043	0.001479581	0.003484588	-0.08873015	0.001115419	0	0
15.53883	-0.2888473	0.6644422	0.002896228	0.002273441	0.04288161	-0.03666116	0	0
15.55533	-0.2890649	0.6648028	-0.01319003	0.02185694	-0.4845359	0.5898766	0	0
15.57184	-0.2906599	0.6661698	-0.09660945	0.0828014	-2.527277	1.846376	0	0
15.58839	-0.2953874	0.6704277	-0.2856016	0.2572269	-5.716299	5.275712	0	0
15.60537	-0.2953393	0.6710746	0.002837397	0.03811524	8.603334	-6.535493	0	0
15.62153	-0.2926876	0.6737785	0.164086	0.1673171	4.866633	3.899431	0	0
15.63809	-0.2911429	0.6794629	0.09324449	0.3431294	-2.164667	5.372204	0	0
15.6549	-0.2901284	0.6811059	0.06036666	0.09776486	-0.9851943	-7.352423	0	0
15.67123	-0.2892825	0.682425	0.05180589	0.08078894	-0.2583717	-0.5123492	0	0
15.68779	-0.289355	0.6824824	-0.004376907	0.003464826	-1.707989	-2.350696	0	0
15.70436	-0.289355	0.6824824	0	0	0.1321029	-0.1045747	0	0
15.72095	-0.289355	0.6824824	0	0	0	0	0	0
15.73749	-0.289355	0.6824824	0	0	0	0	0	0
15.75406	-0.2893309	0.6824632	0.001458969	-0.001154942	0.04406094	-0.03487931	0	0
15.77581	-0.2893067	0.6824441	0.001111276	-0.0008797027	-0.009074421	0.007183449	0	0
15.79238	-0.2892825	0.682425	0.001458801	-0.001154809	0.009069585	-0.007179622	0	0
15.80894	-0.2892583	0.6824058	0.001460768	-0.001154942	5.936277E-05	-4.012327E-06	0	0
15.82552	-0.2892342	0.6823868	0.001457962	-0.001150549	-8.466314E-05	0.0001325338	0	0
15.84208	-0.28921	0.6823676	0.001459893	-0.001155674	5.829637E-05	-0.0001546653	0	0
15.85864	-0.2891858	0.6823485	0.001458885	-0.001154876	-3.044377E-05	2.410337E-05	0	0
15.87521	-0.2891617	0.6823294	0.001459053	-0.001155009	5.070159E-06	-4.016072E-06	0	0
15.89207	-0.2891617	0.6823294	0	0	-0.04365485	0.03455785	0	0
15.90834	-0.2891375	0.6823102	0.001486787	-0.001175514	0.04487262	-0.03547811	0	0
15.92491	-0.2891375	0.6823102	0	0	-0.04526872	0.03579128	0	0
15.94147	-0.2891375	0.6823102	0	0	0	0	0	0
15.95811	-0.2891375	0.6823102	0	0	0	0	0	0
15.97462	-0.2891375	0.6823102	0	0	0	0	0	0
15.99117	-0.2891375	0.6823102	0	0	0	0	0	0
16.00774	-0.2891375	0.6823102	0	0	0	0	0	0
16.02466	-0.2891375	0.6823102	0	0	0	0	0	0
16.04088	-0.2891375	0.6823102	0	0	0	0	0	0
16.05744	-0.2891375	0.6823102	0	0	0	0	0	0
16.0742	-0.2891375	0.6823102	0	0	0	0	0	0
16.09058	-0.2891375	0.6823102	0	0	0	0	0	0
16.10714	-0.2891375	0.6823102	0	0	0	0	0	0
16.12371	-0.2891133	0.6822911	0.001458885	-0.001154876	0.04402924	-0.03485421	0	0
16.14028	-0.2890891	0.682272	0.001458885	-0.001151278	0	0.0001085788	0	0
16.15684	-0.2890407	0.6822338	0.002919905	-0.002310017	0.04409621	-0.03497284	0	0
16.17341	-0.2889682	0.6821764	0.004376655	-0.003461029	0.04396733	-0.03473961	0	0
16.18998	-0.2888473	0.6820808	0.007298023	-0.005770781	0.08816705	-0.06970844	0	0
16.20654	-0.2885088	0.6818131	0.02043518	-0.01615747	0.3964803	-0.3134708	0	0
16.22311	-0.2883636	0.6816984	0.008761514	-0.006922856	-0.3523323	0.2787172	0	0
16.23968	-0.2883153	0.6816602	0.002919569	-0.002309751	-0.1763204	0.1392318	0	0
16.25624	-0.2882911	0.681641	0.001460684	-0.001154876	-0.04402924	0.03485421	0	0
16.27284	-0.2882669	0.681622	0.00145637	-0.001149293	-0.000130081	0.0001683337	0	0
16.28938	-0.2882669	0.681622	0	0	-0.04395333	0.03468573	0	0
16.32251	-0.2881701	0.6815455	0.002920636	-0.002308085	0.05879943	-0.0464673	0	0
16.33908	-0.2880008	0.6814117	0.01022237	-0.008077865	0.1469224	-0.1160971	0	0
16.37363	-0.2867423	0.6803797	0.03642153	-0.02986483	0.5125148	-0.4262022	0	0
16.3902	-0.286597	0.6802269	0.008767701	-0.009228212	-0.5409511	0.4036837	0	0
16.40676	-0.2865244	0.6801314	0.004385649	-0.005763585	-0.1322506	0.1045626	0	0
16.42345	-0.2850467	0.6785463	0.08858157	-0.09501844	2.532292	-2.684445	0	0
16.4399	-0.281019	0.6747313	0.2448031	-0.2318789	4.714777	-4.130457	0	0
16.45647	-0.2743747	0.6671006	0.4010033	-0.4605337	4.730195	-6.924333	0	0
16.47303	-0.2696135	0.6629813	0.2874852	-0.248726	-3.426376	6.393106	0	0
16.4896	-0.2618959	0.6559546	0.4658376	-0.4241344	5.383615	-5.294751	0	0
16.5065	-0.2578159	0.6428243	0.2413528	-0.7767192	-6.706635	-10.53371	0	0
16.52274	-0.2575944	0.6320253	0.01364227	-0.665231	-6.871525	3.364332	0	0
16.5393	-0.2566591	0.6188971	0.05646879	-0.7925999	1.305812	-3.883569	0	0
16.55604	-0.255945	0.6100844	0.04266252	-0.526482	-0.4145741	7.990974	0	0
16.57255	-0.2548117	0.6017236	0.06863304	-0.5063533	0.7810494	0.6053623	0	0
16.58906	-0.2543927	0.5989971	0.02537799	-0.1651383	-1.309889	10.33298	0	0
16.60558	-0.2524691	0.5879661	0.1164433	-0.6677563	2.757086	-15.21722	0	0
16.62213	-0.248814	0.5773758	0.2208542	-0.6398957	3.157305	0.8424847	0	0
16.6387	-0.243839	0.5665042	0.3002538	-0.6561313	2.397389	-0.4902168	0	0
16.65561	-0.2405652	0.5576241	0.1935768	-0.5250648	-3.186138	3.914582	0	0
16.67212	-0.2369628	0.5460764	0.2182174	-0.6995162	0.7372901	-5.219881	0	0
16.6884	-0.2328559	0.5383529	0.2522774	-0.4744398	1.038814	6.864738	0	0
16.70496	-0.228741	0.5307521	0.2484033	-0.4588371	-0.1179515	0.4750481	0	0
16.72166	-0.2195103	0.5234182	0.5529692	-0.4393353	9.157551	0.5863708	0	0
16.73817	-0.2122037	0.5181295	0.4425525	-0.3203342	-3.32549	3.584034	0	0
16.75468	-0.2069922	0.5142983	0.3156225	-0.2320304	-3.843811	2.674094	0	0
16.77123	-0.1939012	0.5004128	0.7908097	-0.8388063	14.37096	-18.35056	0	0
16.7878	-0.1928368	0.4929948	0.06425031	-0.4477464	-21.93645	11.80697	0	0
16.80437	-0.1926593	0.4809467	0.01071048	-0.7272299	-1.615835	-8.43483	0	0
16.82093	-0.1919494	0.4701639	0.04285182	-0.6508516	0.9700276	2.305101	0	0
16.8375	-0.1900215	0.458174	0.1163699	-0.7237059	2.21878	-2.198746	0	0
16.85407	-0.1871015	0.4492747	0.1762499	-0.5371683	1.807181	5.629717	0	0
16.87064	-0.1850683	0.4443884	0.1227244	-0.2949322	-1.615401	7.310699	0	0
16.8872	-0.1831608	0.4398819	0.1151386	-0.2720182	-0.2289413	0.6915466	0	0
16.90379	-0.1796474	0.4365078	0.2118486	-0.2034467	2.917202	2.068421	0	0
16.92034	-0.172786	0.4316821	0.4146298	-0.291618	6.120301	-2.661171	0	0
16.9369	-0.1676483	0.4280777	0.3101111	-0.2175609	-3.156197	2.236335	0	0
16.95347	-0.1609381	0.4233813	0.4050797	-0.2835096	2.866323	-1.99045	0	0
16.97004	-0.1554463	0.4195108	0.3314862	-0.2336195	-2.221184	1.505775	0	0
17.00442	-0.1455683	0.4125257	0.2872706	-0.2031406	-0.8677741	0.5981771	0	0
17.02099	-0.1370822	0.4066002	0.5120429	-0.357539	4.410878	-3.029877	0	0
17.03755	-0.1338527	0.4043274	0.1950209	-0.1372542	-9.568292	6.648592	0	0
17.05412	-0.1316292	0.4027169	0.134212	-0.09720923	-1.83564	1.208837	0	0
17.07069	-0.1287574	0.4006235	0.1733429	-0.1263563	1.180972	-0.8796618	0	0
17.08742	-0.126764	0.3991744	0.1191433	-0.08660903	-1.627689	1.193667	0	0
17.10393	-0.1241477	0.397153	0.1584484	-0.122419	1.18235	-1.077213	0	0
17.12039	-0.1208555	0.39481	0.2000532	-0.142378	1.261955	-0.6053962	0	0
17.13696	-0.119403	0.3932362	0.08767431	-0.09499482	-3.402962	1.434818	0	0
17.15352	-0.1192733	0.391144	0.007829589	-0.1262844	-2.409719	-0.9443211	0	0
17.17009	-0.1262202	0.3854229	-0.4193147	-0.3453276	-12.89124	-6.610738	0	0
17.18666	-0.1325084	0.3811509	-0.3795619	-0.2578557	1.199742	2.639908	0	0
17.20322	-0.138115	0.3772729	-0.3384145	-0.23408	1.24183	0.7175519	0	0
17.21979	-0.1423465	0.3743424	-0.2554119	-0.1768849	2.505025	1.726152	0	0
17.23636	-0.1468304	0.3711978	-0.2706474	-0.189808	-0.4598096	-0.3900197	0	0
17.25307	-0.1498935	0.3691075	-0.1832879	-0.1250731	2.625031	1.945191	0	0
17.26949	-0.1517969	0.3677855	-0.1159036	-0.08050051	2.033664	1.345204	0	0
17.28606	-0.1517455	0.3678213	0.003103239	0.002156351	3.606997	2.505261	0	0
17.30263	-0.1517455	0.3678213	0	0	-0.09366132	-0.06508254	0	0
17.31919	-0.1517455	0.3678213	0	0	0	0	0	0
17.33576	-0.1517455	0.3678213	0	0	0	0	0	0
17.35261	-0.1517712	0.3678392	-0.001525361	0.001061121	-0.04564399	0.03175234	0	0
17.36889	-0.1517712	0.3678392	0	0	0.04603548	-0.03202468	0	0
17.38564	-0.1517712	0.3678392	0	0	0	0	0	0
17.40203	-0.1517969	0.367857	-0.001569228	0.001089186	-0.04736212	0.03287359	0	0
17.4186	-0.1518483	0.3678927	-0.003102524	0.002155854	-0.04651328	0.03235789	0	0
17.43517	-0.1518483	0.3678927	0	0	0.09360743	-0.0650451	0	0
17.45173	-0.1518741	0.3679106	-0.00155332	0.001078145	-0.0468901	0.03254597	0	0
17.4683	-0.1518741	0.3679106	0	0	0.0468928	-0.03254784	0	0
17.48486	-0.1518741	0.3679106	0	0	0	0	0	0
17.50143	-0.1519255	0.3679463	-0.003103953	0.002156847	-0.09367749	0.06509378	0	0
17.51823	-0.1519769	0.3680178	-0.003060613	0.004253462	0.001298816	0.0628311	0	0
17.53457	-0.1519769	0.3680178	0	0	0.09236416	-0.1283624	0	0
17.55113	-0.1520798	0.3680893	-0.006208621	0.004314191	-0.1887127	0.131131	0	0
17.56777	-0.1521055	0.3681071	-0.001545664	0.001072831	0.1404292	-0.09761654	0	0
17.58426	-0.1521312	0.368125	-0.001558525	0.001084191	-0.00038815	0.0003428734	0	0
17.61831	-0.1521055	0.3681428	0.0007551164	0.0005244229	0.04578449	-0.01107721	0	0
17.63475	-0.1521055	0.3681428	0	0	-0.01495593	-0.01038679	0	0
17.65133	-0.1521312	0.3681607	-0.001550991	0.001077152	-0.04696852	0.0326193	0	0
17.66789	-0.1521312	0.3681607	0	0	0.0468117	-0.03251038	0	0
17.68445	-0.1521055	0.3681428	0.001551527	-0.001077524	0.04683596	-0.03252723	0	0
17.70102	-0.1521055	0.3681428	0	0	-0.04682517	0.03251974	0	0
17.71787	-0.1521055	0.3681428	0	0	0	0	0	0
17.73415	-0.1521055	0.3681428	0	0	0	0	0	0
17.7509	-0.1521055	0.3681428	0	0	0	0	0	0
17.76741	-0.1521055	0.3681428	0	0	0	0	0	0
17.78385	-0.1521055	0.3681428	0	0	0	0	0	0
17.85797	-0.1521055	0.3681428	0	0	0	0	0	0
17.87451	-0.1521055	0.3681428	0	0	0	0	0	0
17.89108	-0.1521055	0.3681428	0	0	0	0	0	0
17.90765	-0.1521055	0.3681428	0	0	0	0	0	0
17.92452	-0.1521055	0.3681428	0	0	0	0	0	0
17.94078	-0.1521055	0.3681428	0	0	0	0	0	0
17.95755	-0.1521055	0.3681428	0	0	0	0	0	0
17.97392	-0.1521055	0.3681428	0	0	0	0	0	0
17.99057	-0.1521055	0.3681428	0	0	0	0	0	0
18.00707	-0.1521055	0.3681428	0	0	0	0	0	0
18.02362	-0.1521055	0.3681428	0	0	0	0	0	0
18.04018	-0.1521055	0.3681428	0	0	0	0	0	0
18.05675	-0.1521055	0.3681428	0	0	0	0	0	0
18.07332	-0.1521055	0.3681428	0	0	0	0	0	0
18.10645	-0.1521055	0.3681428	0	0	0	0	0	0
18.12302	-0.1521055	0.3681428	0	0	0	0	0	0
18.13968	-0.1521055	0.3681428	0	0	0	0	0	0
18.15615	-0.1521055	0.3681428	0	0	0	0	0	0
18.18929	-0.1521055	0.3681428	0	0	0	0	0	0
18.20585	-0.1521055	0.3681428	0	0	0	0	0	0
18.22242	-0.1521055	0.3681428	0	0	0	0	0	0
18.23899	-0.1521055	0.3681428	0	0	0	0	0	0
18.2778	-0.1521055	0.3681428	0	0	0	0	0	0
18.29399	-0.1521055	0.3681428	0	0	0	0	0	0
18.32905	-0.1520798	0.368125	0.0007335641	-0.0005091598	0.01431172	-0.009933626	0	0
18.34562	-0.1521055	0.3681428	-0.001552426	0.001077524	-0.04427801	0.03073294	0	0
18.36219	-0.1521055	0.3681428	0	0	0.04685232	-0.03251974	0	0
18.37885	-0.1520798	0.368125	0.001543541	-0.001071357	0.04645047	-0.03224082	0	0
18.39536	-0.1520798	0.368125	0	0	-0.04652792	0.03229458	0	0
18.41189	-0.1520798	0.368125	0	0	0	0	0	0
18.42845	-0.1520798	0.368125	0	0	0	0	0	0
18.44502	-0.1520798	0.368125	0	0	0	0	0	0
18.46159	-0.1520798	0.368125	0	0	0	0	0	0
18.47816	-0.1520798	0.368125	0	0	0	0	0	0
18.49493	-0.1520798	0.368125	0	0	0	0	0	0
18.51144	-0.1520798	0.368125	0	0	0	0	0	0
18.52803	-0.1520798	0.368125	0	0	0	0	0	0
18.54447	-0.1520798	0.368125	0	0	0	0	0	0
18.56099	-0.1520798	0.368125	0	0	0	0	0	0
18.57755	-0.1520798	0.368125	0	0	0	0	0	0
18.59412	-0.1520798	0.368125	0	0	0	0	0	0
18.61069	-0.1520798	0.368125	0	0	0	0	0	0
18.62726	-0.1520798	0.368125	0	0	0	0	0	0
18.64382	-0.1520798	0.368125	0	0	0	0	0	0
18.66055	-0.1520798	0.368125	0	0	0	0	0	0
18.69359	-0.1520798	0.368125	0	0	0	0	0	0
18.71009	-0.1520798	0.368125	0	0	0	0	0	0
18.72666	-0.1520798	0.368125	0	0	0	0	0	0
18.74322	-0.1520798	0.368125	0	0	0	0	0	0
18.75979	-0.1520798	0.368125	0	0	0	0	0	0
18.77636	-0.1520798	0.368125	0	0	0	0	0	0
18.79292	-0.1520798	0.368125	0	0	0	0	0	0
18.80949	-0.1520798	0.368125	0	0	0	0	0	0
18.82606	-0.1520798	0.368125	0	0	0	0	0	0
18.84268	-0.1520798	0.368125	0	0	0	0	0	0
18.8592	-0.1520798	0.368125	0	0	0	0	0	0
18.87576	-0.1520798	0.368125	0	0	0	0	0	0
18.89233	-0.1520798	0.368125	0	0	0	0	0	0
18.9089	-0.1520798	0.368125	0	0	0	0	0	0
18.92546	-0.1520798	0.368125	0	0	0	0	0	0
18.94203	-0.1520798	0.368125	0	0	0	0	0	0
18.97559	-0.1520798	0.368125	0	0	0	0	0	0
19.04186	-0.1520798	0.368125	0	0	0	0	0	0
19.05843	-0.1520798	0.368125	0	0	0	0	0	0
19.07536	-0.1520798	0.368125	0	0	0	0	0	0
19.09156	-0.1520798	0.368125	0	0	0	0	0	0
19.10838	-0.1520798	0.368125	0	0	0	0	0	0
19.12469	-0.1520798	0.368125	0	0	0	0	0	0
19.14126	-0.1520798	0.368125	0	0	0	0	0	0
19.15783	-0.1520798	0.368125	0	0	0	0	0	0
19.17439	-0.1520798	0.368125	0	0	0	0	0	0
19.19096	-0.1520798	0.368125	0	0	0	0	0	0
19.20753	-0.1521055	0.3681071	-0.001552426	-0.001079323	-0.04685232	-0.03257403	0	0
19.22409	-0.1521055	0.3681071	0	0	0.04685232	0.03257403	0	0
19.24097	-0.1521055	0.3681071	0	0	0	0	0	0
19.25723	-0.1521055	0.3681071	0	0	0	0	0	0
19.274	-0.1521055	0.3681071	0	0	0	0	0	0
19.29036	-0.1521055	0.3681071	0	0	0	0	0	0
19.30702	-0.1521055	0.3681071	0	0	0	0	0	0
19.32353	-0.1521055	0.3681071	0	0	0	0	0	0
19.34006	-0.1521055	0.3681071	0	0	0	0	0	0
19.35667	-0.1521055	0.3681071	0	0	0	0	0	0
19.37357	-0.1521055	0.3681071	0	0	0	0	0	0
19.38976	-0.1520798	0.3680893	0.001588079	-0.00110227	0.04798631	-0.03330684	0	0
19.40633	-0.1520283	0.3680535	0.003103953	-0.002156847	0.04626855	-0.03218851	0	0
19.42289	-0.1520283	0.3680178	0	-0.002157096	-0.09368289	-7.498073E-06	0	0
19.43961	-0.1520026	0.3679999	0.001537367	-0.001067691	0.0461878	0.03272947	0	0
19.48916	-0.1519769	0.3679463	0.000519089	-0.001082087	-0.01536629	-0.0002172499	0	0
19.50573	-0.1519769	0.3679463	0	0	-0.007851372	0.01636688	0	0
19.5223	-0.1519512	0.3679285	0.001552069	-0.001077276	0.04683614	-0.03250851	0	0
19.53919	-0.1519769	0.3679106	-0.001522626	-0.001058604	-0.09188472	0.0005579895	0	0
19.55569	-0.1520026	0.3678927	-0.001558347	-0.001081633	-0.001069623	-0.0006895832	0	0
19.57199	-0.1519769	0.3678749	0.001577858	-0.001095176	0.09560292	-0.0004128275	0	0
19.58856	-0.1519769	0.3678749	0	0	-0.04800674	0.03332101	0	0
19.60513	-0.1520026	0.367857	-0.001552605	-0.001079447	-0.04686041	-0.03257966	0	0
19.6217	-0.1520026	0.367857	0	0	0.04685771	0.03257779	0	0
19.63826	-0.1519769	0.3678392	0.001552426	-0.001077524	0.04684962	-0.03251787	0	0
19.65483	-0.1519769	0.3678034	0	-0.002156847	-0.04685232	-0.03257403	0	0
19.6714	-0.1519769	0.3677677	0	-0.002157096	0	-7.498073E-06	0	0
19.7053	-0.1519769	0.367732	0	-0.001053855	0	0.02185836	0	0
19.72181	-0.1519512	0.3677141	0.001557807	-0.001081259	0.03089847	-0.0005435461	0	0
19.73825	-0.1519512	0.3677141	0	0	-0.0472869	0.03282138	0	0
19.75484	-0.1519512	0.3677141	0	0	0	0	0	0
19.77138	-0.1519512	0.3677141	0	0	0	0	0	0
19.78794	-0.1519512	0.3676784	0	-0.002157096	0	-0.06515753	0	0
19.80451	-0.1519255	0.3676605	0.001551527	-0.001077524	0.04682787	0.0325834	0	0
19.85491	-0.1518998	0.3676426	0.0005103272	-0.0003548045	-0.01554839	0.01079248	0	0
19.90395	-0.1518998	0.3676426	0	0	-0.005132326	0.003568245	0	0
19.92048	-0.1518998	0.3676426	0	0	0	0	0	0
19.93704	-0.1518998	0.3676426	0	0	0	0	0	0
19.95361	-0.1519255	0.3676248	-0.001552426	-0.001077524	-0.04685232	-0.03251974	0	0
19.97018	-0.1519255	0.3676248	0	0	0.04685232	0.03251974	0	0
19.98674	-0.1518741	0.3675891	0.00310431	-0.002157096	0.09369367	-0.06510502	0	0
20.00332	-0.1517969	0.367464	0.004654236	-0.007544592	0.04676877	-0.1625669	0	0
20.02002	-0.1516683	0.3672675	0.007698305	-0.01176559	0.09147527	-0.1268423	0	0
20.03654	-0.151154	0.3664815	0.03114533	-0.04759688	0.7058854	-1.07872	0	0
20.05301	-0.1523883	0.3615157	-0.07491516	-0.301399	-3.214977	-7.693421	0	0
20.06958	-0.157141	0.3537466	-0.2868751	-0.4689443	-6.414687	-5.070537	0	0
20.10308	-0.1628605	0.3282995	-0.1707071	-0.7595141	2.320032	-5.803073	0	0
20.11959	-0.1641414	0.3157617	-0.07757631	-0.7593169	1.862005	0.003943342	0	0
20.13585	-0.1649609	0.3070439	-0.05042914	-0.5364602	0.8286044	6.802183	0	0
20.15241	-0.1663689	0.2834668	-0.08498769	-1.42312	-1.053042	-27.01761	0	0
20.16913	-0.167239	0.2694749	-0.05204382	-0.8369384	0.9897472	17.6109	0	0
20.18554	-0.1677763	0.2518316	-0.03273153	-1.07485	0.5828797	-7.18059	0	0
20.20215	-0.1685948	0.2403901	-0.04928596	-0.6889473	-0.5013163	11.68625	0	0
20.21868	-0.1699755	0.2260615	-0.08355155	-0.8670685	-1.034197	-5.376017	0	0
20.23524	-0.1705378	0.219015	-0.03394201	-0.4253288	1.499117	13.34863	0	0
20.25181	-0.1725817	0.2047605	-0.1233711	-0.860404	-2.698976	-13.13059	0	0
20.26838	-0.173935	0.1936018	-0.08168407	-0.673539	1.258118	5.639596	0	0
20.28495	-0.1751856	0.1810889	-0.07548515	-0.7552842	0.1870836	-2.467075	0	0
20.30151	-0.1770986	0.1640967	-0.1154732	-1.025647	-1.206841	-8.159553	0	0
20.31808	-0.1788066	0.1516716	-0.1030897	-0.7499847	0.3737327	8.319492	0	0
20.33465	-0.1797493	0.1369989	-0.05690281	-0.885643	1.393924	-4.094176	0	0
20.35126	-0.1812519	0.1278334	-0.0904474	-0.5517078	-1.010981	10.06428	0	0
20.36778	-0.1848649	0.1184506	-0.2187112	-0.5679812	-3.871232	-0.4911598	0	0
20.38435	-0.1863138	0.1145938	-0.08745664	-0.2327969	3.96698	10.13046	0	0
20.41867	-0.1905797	0.1058819	-0.124288	-0.253824	-0.7237449	-0.4131861	0	0
20.43524	-0.1949146	0.1029316	-0.2616531	-0.1780807	-2.699257	1.488374	0	0
20.45181	-0.1968388	0.1015016	-0.1161469	-0.08631571	4.391387	2.769472	0	0
20.46838	-0.1999246	0.09926399	-0.1861748	-0.1349976	-2.112962	-1.468883	0	0
20.48494	-0.2002785	0.09900714	-0.02137211	-0.01551206	4.974042	3.606288	0	0
20.5015	-0.2002785	0.09900714	0	0	0.6452343	0.4683165	0	0
20.53914	-0.2002785	0.09900714	0	0	0	0	0	0
20.55571	-0.2002785	0.09900714	0	0	0	0	0	0
20.57227	-0.2002785	0.09900714	0	0	0	0	0	0
20.58893	-0.2002785	0.09900714	0	0	0	0	0	0
20.60544	-0.2002785	0.09900714	0	0	0	0	0	0
20.62197	-0.2003038	0.0989888	-0.001528787	-0.001109633	-0.04626673	-0.03358157	0	0
20.63854	-0.2003038	0.0989888	0	0	0.04618941	0.03352545	0	0
20.65511	-0.2003038	0.0989888	0	0	0	0	0	0
20.67167	-0.2003038	0.0989888	0	0	0	0	0	0
20.70481	-0.2003038	0.0989888	0	0	0	0	0	0
20.72137	-0.2003038	0.0989888	0	0	0	0	0	0
20.73794	-0.2003038	0.0989888	0	0	0	0	0	0
20.75455	-0.2003038	0.0989888	0	0	0	0	0	0
20.77107	-0.2003038	0.0989888	0	0	0	0	0	0
20.8208	-0.2003038	0.0989888	0	0	0	0	0	0
20.83734	-0.2003038	0.0989888	0	0	0	0	0	0
20.85412	-0.2003038	0.0989888	0	0	0	0	0	0
20.87048	-0.2003038	0.0989888	0	0	0	0	0	0
20.88714	-0.2003038	0.0989888	0	0	0	0	0	0
20.90366	-0.2003038	0.0989888	0	0	0	0	0	0
20.92018	-0.2003038	0.0989888	0	0	0	0	0	0
20.93674	-0.2003038	0.0989888	0	0	0	0	0	0
20.95331	-0.2003038	0.0989888	0	0	0	0	0	0
20.96988	-0.2003038	0.0989888	0	0	0	0	0	0
20.98644	-0.2003038	0.0989888	0	0	0	0	0	0
21.00303	-0.2003038	0.0989888	0	0	0	0	0	0
21.01974	-0.2003038	0.0989888	0	0	0	0	0	0
21.03625	-0.2003038	0.0989888	0	0	0	0	0	0
21.05276	-0.2003038	0.0989888	0	0	0	0	0	0
21.06928	-0.2003038	0.0989888	0	0	0	0	0	0
21.08584	-0.2003038	0.0989888	0	0	0	0	0	0
21.10241	-0.2003291	0.09900714	-0.001525443	0.001107206	-0.04603797	0.03341553	0	0
21.11898	-0.2003291	0.09900714	0	0	0.04603797	-0.03341553	0	0
21.15233	-0.2003543	0.09906219	-0.0007577057	0.001650333	-0.01517808	0.03305887	0	0
21.16868	-0.200506	0.09917226	-0.009276547	0.006734065	-0.171406	0.1022888	0	0
21.18525	-0.2009355	0.09981431	-0.02592984	0.03875399	-0.5059759	0.9728595	0	0
21.20181	-0.2011629	0.100603	-0.01372629	0.04760489	0.3683037	0.2671207	0	0
21.21838	-0.2013903	0.102235	-0.01372449	0.09850532	5.430344E-05	1.536178	0	0
21.23495	-0.20442	0.1071823	-0.1828908	0.2986597	-5.105742	6.041018	0	0
21.2519	-0.2059334	0.1154897	-0.08924316	0.489873	2.793486	5.703849	0	0
21.26808	-0.2069418	0.1265566	-0.0623388	0.6841446	0.8119753	5.863128	0	0
21.28465	-0.2068158	0.1393652	0.007606529	0.7731272	2.136162	2.717569	0	0
21.30144	-0.2071182	0.1572434	-0.01801117	1.06467	-0.7679274	8.739405	0	0
21.31778	-0.2074206	0.1702546	-0.01850761	0.7962631	-0.0149835	-8.100991	0	0
21.33435	-0.2072694	0.1829862	0.009126576	0.7684834	0.8397537	-0.8441756	0	0
21.40061	-0.2089069	0.2443009	-0.02471091	0.9252671	-0.4084964	1.89274	0	0
21.41718	-0.2091588	0.262116	-0.01520047	1.075319	0.114813	1.81147	0	0
21.43375	-0.2096623	0.2711037	-0.03039554	0.5425037	-0.4585881	-16.08039	0	0
21.45055	-0.2098386	0.2802114	-0.01049059	0.5421859	0.5965771	-0.009525239	0	0
21.46688	-0.2099896	0.3032024	-0.009246555	1.407507	0.0375472	26.11695	0	0
21.48357	-0.2097631	0.3164762	0.01357655	0.7954409	0.6911501	-18.53514	0	0
21.50001	-0.2096875	0.3205664	0.004593083	0.2487188	-0.2711372	-16.50106	0	0
21.51658	-0.2107446	0.3427819	-0.06380868	1.340929	-2.072003	33.08487	0	0
21.53315	-0.2107698	0.3520143	-0.001518972	0.5572065	1.879799	-23.65144	0	0
21.55012	-0.2116755	0.3624445	-0.05337898	0.6147075	-1.546356	1.714557	0	0
21.56628	-0.2126312	0.3687324	-0.05912755	0.3890282	-0.1735123	-6.811799	0	0
21.58314	-0.2143152	0.3750392	-0.09988846	0.3740931	-1.234359	-0.4522766	0	0
21.59941	-0.213134	0.3764866	0.07257577	0.08893047	5.20498	-8.606227	0	0
21.61616	-0.2122289	0.376844	0.05404513	0.02133869	-0.5611292	-2.046758	0	0
21.63255	-0.2122289	0.376844	0	0	-1.631179	-0.6440399	0	0
21.64919	-0.2121786	0.3768083	0.003022374	-0.002147452	0.09152098	-0.06502735	0	0
21.6657	-0.2121786	0.3768083	0	0	-0.09116819	0.06477668	0	0
21.71538	-0.2120277	0.3766653	0.003036945	-0.00287739	0.04587777	-0.04346744	0	0
21.73195	-0.2119522	0.3765759	0.004554743	-0.005393018	0.02290956	-0.03797073	0	0
21.74852	-0.211751	0.3763973	0.01214508	-0.01078604	0.2290769	-0.1627616	0	0
21.76527	-0.2117007	0.3763615	0.003003508	-0.002132784	-0.2743456	0.2596907	0	0
21.78178	-0.2116755	0.3762722	0.001523334	-0.005411083	-0.04449501	-0.09854785	0	0
21.79829	-0.2116504	0.3762543	0.00152351	-0.001083064	5.330397E-06	0.131065	0	0
21.81481	-0.2116504	0.3762186	0	-0.002163073	-0.04612565	-0.03269827	0	0
21.83135	-0.2115749	0.3761292	0.004562622	-0.005402347	0.138018	-0.09798711	0	0
21.86498	-0.2110466	0.3752894	0.01570874	-0.02497094	0.222163	-0.3900386	0	0
21.88155	-0.2111472	0.3751822	-0.00607479	-0.006470541	-0.4339391	0.3685374	0	0
21.89812	-0.2111472	0.3751822	0	0	0.1833375	0.1952813	0	0
21.91469	-0.2111724	0.3751643	-0.001518248	-0.001079323	-0.04582081	-0.03257403	0	0
21.93125	-0.2111724	0.3751643	0	0	0.04582081	0.03257403	0	0
21.9479	-0.2111724	0.3751643	0	0	0	0	0	0
21.96439	-0.2111976	0.3751464	-0.001527059	-0.001083136	-0.04608937	-0.03269098	0	0
21.98095	-0.2111976	0.3751107	0	-0.002156847	0.04620641	-0.03248884	0	0
21.99752	-0.2111976	0.3751107	0	0	0	0.06509378	0	0
22.01409	-0.2112227	0.3751286	-0.001518248	0.001077524	-0.04582081	0.03251974	0	0
22.03096	-0.2112227	0.3751286	0	0	0.04539746	-0.03221929	0	0
22.04722	-0.2112227	0.3751286	0	0	0	0	0	0
22.06399	-0.2112227	0.3751286	0	0	0	0	0	0
22.08035	-0.2112227	0.3751286	0	0	0	0	0	0
22.09701	-0.2112227	0.3751286	0	0	0	0	0	0
22.11349	-0.2112227	0.3751286	0	0	0	0	0	0
22.13006	-0.2112479	0.375075	-0.001519147	-0.00323617	-0.04597233	-0.09793276	0	0
22.14662	-0.211273	0.3750571	-0.001518423	-0.001077648	2.186879E-05	0.06514807	0	0
22.16319	-0.2112982	0.3750392	-0.001518248	-0.001079323	5.277463E-06	-5.054699E-05	0	0
22.18007	-0.2112982	0.3750035	0	-0.002116639	0.0453897	-0.03101172	0	0
22.19632	-0.2113234	0.3749141	-0.001548746	-0.005498093	-0.04674393	-0.1020583	0	0
22.21309	-0.211273	0.3747355	0.003000092	-0.01065179	0.1377441	-0.1560601	0	0
22.22961	-0.2109711	0.3744138	0.01828542	-0.01947846	0.4592237	-0.2651833	0	0
22.24602	-0.2100399	0.3736098	0.05672823	-0.0489829	1.167532	-0.8960683	0	0
22.2626	-0.2097379	0.3726092	0.01822078	-0.06035363	-1.167129	-0.3446372	0	0
22.27916	-0.2100148	0.3724127	-0.01672577	-0.01186996	-1.054689	1.46324	0	0
22.29572	-0.2106188	0.3719839	-0.03646043	-0.02588217	-0.5957991	-0.4230353	0	0
22.31229	-0.2109208	0.3717695	-0.01822707	-0.01294108	0.550284	0.3905627	0	0
22.32918	-0.2109208	0.3717695	0	0	0.5448563	0.3868439	0	0
22.34542	-0.210946	0.3717516	-0.001549109	-0.00110061	-0.0467549	-0.0332184	0	0
22.3622	-0.210946	0.3717516	0	0	0.04690883	0.03332776	0	0
22.37856	-0.210946	0.3717516	0	0	0	0	0	0
22.39512	-0.210946	0.3717516	0	0	0	0	0	0
22.41174	-0.210946	0.3717516	0	0	0	0	0	0
22.4283	-0.210946	0.3717516	0	0	0	0	0	0
22.44482	-0.210946	0.3717516	0	0	0	0	0	0
22.46139	-0.210946	0.3717516	0	0	0	0	0	0
22.47796	-0.210946	0.3717516	0	0	0	0	0	0
22.49453	-0.210946	0.3717516	0	0	0	0	0	0
22.52766	-0.210946	0.3717516	0	0	0	0	0	0
22.5976	-0.2109711	0.3717338	-0.000359646	-0.0002552464	-0.003489232	-0.002476363	0	0
22.61417	-0.2109711	0.3716981	0	-0.002156847	0.004157474	-0.02198233	0	0
22.63073	-0.2109963	0.3716802	-0.001519147	-0.001079323	-0.04584795	0.03251974	0	0
22.6473	-0.2109963	0.3716802	0	0	0.04584795	0.03257403	0	0
22.66387	-0.2109963	0.3716802	0	0	0	0	0	0
22.68044	-0.2109963	0.3716802	0	0	0	0	0	0
22.697	-0.2109963	0.3716802	0	0	0	0	0	0
22.71357	-0.2109963	0.3716802	0	0	0	0	0	0
22.73014	-0.2109963	0.3716802	0	0	0	0	0	0
22.7467	-0.2110214	0.3716981	-0.001518248	0.001079323	-0.04582081	0.03257403	0	0
22.76349	-0.2110214	0.3716981	0	0	0.04551687	-0.03235796	0	0
22.77984	-0.2110214	0.3716981	0	0	0	0	0	0
22.79652	-0.2110214	0.3716981	0	0	0	0	0	0
22.81297	-0.2110214	0.3716981	0	0	0	0	0	0
22.82954	-0.2110214	0.3716981	0	0	0	0	0	0
22.8461	-0.2110214	0.3716981	0	0	0	0	0	0
22.86306	-0.2110214	0.3716623	0	-0.002107117	0	-0.06285838	0	0
22.87924	-0.2110214	0.3716623	0	0	0	0.06359658	0	0
22.8958	-0.2110214	0.3716623	0	0	0	0	0	0
22.91237	-0.2110466	0.3716444	-0.001519147	-0.001079323	-0.04584795	-0.03257403	0	0
22.92894	-0.2110466	0.3716444	0	0	0.04584795	0.03257403	0	0
22.94551	-0.2110466	0.3716444	0	0	0	0	0	0
22.96213	-0.2110466	0.3716444	0	0	0	0	0	0
22.97864	-0.2110466	0.3716444	0	0	0	0	0	0
22.9952	-0.2110466	0.3716444	0	0	0	0	0	0
23.01217	-0.2110466	0.3716444	0	0	0	0	0	0
23.02834	-0.2110466	0.3716444	0	0	0	0	0	0
23.04491	-0.2110466	0.3716444	0	0	0	0	0	0
23.06171	-0.2110466	0.3716444	0	0	0	0	0	0
23.07804	-0.2110466	0.3716444	0	0	0	0	0	0
23.09473	-0.2110466	0.3716444	0	0	0	0	0	0
23.11124	-0.2110466	0.3716444	0	0	0	0	0	0
23.12774	-0.2110466	0.3716444	0	0	0	0	0	0
23.14431	-0.2110466	0.3716444	0	0	0	0	0	0
23.16128	-0.2110466	0.3716444	0	0	0	0	0	0
23.17744	-0.2110466	0.3716444	0	0	0	0	0	0
23.1943	-0.2110466	0.3716444	0	0	0	0	0	0
23.30998	-0.2110969	0.3716087	-0.0004350154	-0.0003089034	-0.003282198	-0.002330681	0	0
23.34311	-0.2111221	0.3715909	-0.0007591676	-0.0005387931	-0.002178304	-0.001544859	0	0
23.35968	-0.2110969	0.371573	0.001518248	-0.001079323	0.04582344	-0.0108759	0	0
23.37625	-0.2110969	0.371573	0	0	-0.04582081	0.03257403	0	0
23.39295	-0.2111221	0.3715909	-0.00150611	0.001070694	-0.04527207	0.03218394	0	0
23.40938	-0.2111221	0.3715909	0	0	0.04545449	-0.03231362	0	0
23.42597	-0.2111221	0.3715909	0	0	0	0	0	0
23.44251	-0.2111221	0.3715909	0	0	0	0	0	0
23.45908	-0.2111221	0.3715909	0	0	0	0	0	0
23.47565	-0.2111221	0.3715909	0	0	0	0	0	0
23.49222	-0.2111221	0.3715909	0	0	0	0	0	0
23.50903	-0.2111221	0.3715909	0	0	0	0	0	0
23.52535	-0.2111221	0.3715909	0	0	0	0	0	0
23.54192	-0.2111221	0.3715909	0	0	0	0	0	0
23.55848	-0.2110969	0.371573	0.001518597	-0.001079572	0.04583664	-0.03258529	0	0
23.57505	-0.2111221	0.3715551	-0.001518248	-0.001077524	-0.09166273	6.180117E-05	0	0
23.59162	-0.2111221	0.3715551	0	0	0.04582081	0.03251974	0	0
23.60818	-0.2111221	0.3715551	0	0	0	0	0	0
23.62475	-0.2111221	0.3715551	0	0	0	0	0	0
23.64163	-0.2111221	0.3715551	0	0	0	0	0	0
23.65788	-0.2111221	0.3715551	0	0	0	0	0	0
23.67465	-0.2111221	0.3715551	0	0	0	0	0	0
23.69102	-0.2111221	0.3715551	0	0	0	0	0	0
23.70759	-0.2111221	0.3715551	0	0	0	0	0	0
23.72419	-0.2111221	0.3715551	0	0	0	0	0	0
23.74072	-0.2111221	0.3715551	0	0	0	0	0	0
23.75729	-0.2111221	0.3715551	0	0	0	0	0	0
23.77385	-0.2111221	0.3715551	0	0	0	0	0	0
23.79042	-0.2111221	0.3715551	0	0	0	0	0	0
23.80699	-0.2111221	0.3715551	0	0	0	0	0	0
23.82355	-0.2111221	0.3715551	0	0	0	0	0	0
23.84012	-0.2111472	0.3715372	-0.001519322	-0.001079447	-0.04585587	-0.03257966	0	0
23.85678	-0.2111472	0.3715372	0	0	0.04572426	0.03248615	0	0
23.87329	-0.2111472	0.3714658	0	-0.004328145	0	-0.130466	0	0
23.88982	-0.2111724	0.3714479	-0.001522103	-0.00108026	-0.04607242	0.09830996	0	0
23.90639	-0.2111724	0.3714122	0	-0.002156847	0.04599541	-0.03253265	0	0
23.92333	-0.2111976	0.3713586	-0.001485624	-0.003164757	-0.044336	-0.03007942	0	0
23.93952	-0.2111976	0.3713228	0	-0.0022069	0.0448388	0.02890985	0	0
24.04155	-0.1820665	0.3505857	0.2855153	-0.2032462	2.415092	-1.700534	0	0
24.05812	-0.1739605	0.3449426	0.4892778	-0.3406146	1.718108	-1.158278	0	0
24.07468	-0.1645768	0.3384605	0.5664036	-0.3912636	2.327659	-1.528591	0	0
24.09125	-0.1605278	0.3356747	0.2443974	-0.1681477	-9.718165	6.73365	0	0
24.10796	-0.1527482	0.3304068	0.4656107	-0.3152897	6.647913	-4.421916	0	0
24.12447	-0.1500222	0.3286209	0.165114	-0.1081656	-9.046098	6.235225	0	0
24.14095	-0.1461608	0.3260493	0.2342891	-0.1560312	2.096762	-1.450851	0	0
24.15752	-0.1393798	0.3214951	0.4092964	-0.274891	5.295447	-3.596512	0	0
24.17451	-0.1327411	0.3169406	0.3907706	-0.2680915	-0.5520857	0.2026321	0	0
24.19065	-0.1255467	0.3119747	0.4456457	-0.3076024	1.656229	-1.192511	0	0
24.22404	-0.104955	0.2978769	0.6166667	-0.4221936	3.452477	-2.313303	0	0
24.24035	-0.09995525	0.2944451	0.3065867	-0.2104386	-6.239062	4.260683	0	0
24.25692	-0.092655	0.2895109	0.4406444	-0.2978248	4.077793	-2.658131	0	0
24.27358	-0.08281019	0.2828766	0.5909681	-0.3982514	4.524278	-3.022531	0	0
24.29005	-0.07593267	0.2782436	0.4174826	-0.2812337	-5.236106	3.531805	0	0
24.30662	-0.06742396	0.2725356	0.5135869	-0.3445361	2.908638	-1.915873	0	0
24.32318	-0.06084585	0.268186	0.3970555	-0.2625381	-3.516924	2.474703	0	0
24.33975	-0.05444613	0.2640322	0.3862877	-0.2507285	-0.3249734	0.356414	0	0
24.35632	-0.04704421	0.2598412	0.446781	-0.2529663	1.825693	-0.06753684	0	0
24.37289	-0.04363019	0.2585514	0.2060706	-0.07785157	-7.264654	5.284975	0	0
24.38966	-0.03614215	0.2571003	0.4464283	-0.08651673	7.20919	-0.2598993	0	0
24.40602	-0.03277773	0.2565627	0.2056574	-0.03285677	-7.266898	1.619554	0	0
24.42268	-0.02541558	0.2585335	0.4417864	0.1182614	7.150258	4.576034	0	0
24.43915	-0.01976059	0.2588381	0.3433918	0.01849338	-2.969725	-3.011178	0	0
24.45572	-0.01434112	0.2593755	0.3271195	0.03243905	-0.4925736	0.4221447	0	0
24.47272	-0.01318345	0.260092	0.06809779	0.042147	-7.716459	0.2892074	0	0
24.48885	-0.01315714	0.2600741	0.00163074	-0.001110134	-2.00598	-1.305503	0	0
24.50542	-0.01302558	0.2601278	0.007941697	0.003243739	0.1929981	0.1331477	0	0
24.52199	-0.01299927	0.2601457	0.001587996	0.001080998	-0.1917551	-0.06527168	0	0
24.53856	-0.01249935	0.2603428	0.03017512	0.01189414	0.8627114	0.3263225	0	0
24.55528	-0.01163105	0.2606114	0.05190836	0.0160615	0.6527543	0.125166	0	0
24.57169	-0.005894668	0.2639068	0.3496708	0.2008742	8.987005	5.577979	0	0
24.58825	-0.001315789	0.2665569	0.2763817	0.1599575	-2.222744	-1.24094	0	0
24.60488	0.008789247	0.2669865	0.6077023	0.02584093	9.98089	-4.040203	0	0
24.62139	0.01720883	0.2659839	0.5100861	-0.06074322	-2.946063	-2.613115	0	0
24.63795	0.02323266	0.263674	0.3636412	-0.1394412	-4.428129	-2.37963	0	0
24.65452	0.02707233	0.2610592	0.2317629	-0.1578294	-3.980322	-0.5549888	0	0
24.67109	0.03072717	0.2585693	0.2206064	-0.1502903	-0.3367038	0.2275294	0	0
24.68875	0.03338233	0.2567598	0.1503802	-0.1024849	-2.051986	1.396857	0	0
24.70531	0.03414462	0.2562402	0.04600647	-0.03135972	-3.049592	2.078138	0	0
24.77158	0.03637868	0.2545737	0.03371307	-0.02514805	-0.1484063	0.07498738	0	0
24.78815	0.0363524	0.2545558	-0.001586197	-0.001080998	-0.4261336	0.290538	0	0
24.80471	0.03632612	0.2545379	-0.001586745	-0.001081371	-1.653863E-05	-1.126819E-05	0	0
24.82128	0.03632612	0.2545379	0	0	0.04789358	0.0326396	0	0
24.83785	0.03632612	0.2545379	0	0	0	0	0	0
24.85442	0.03632612	0.2545379	0	0	0	0	0	0
24.87098	0.03627356	0.2545379	-0.003172901	0	-0.09576384	0	0	0
24.88755	0.03627356	0.2545379	0	0	0.09576384	0	0	0
24.90412	0.03624728	0.2545558	-0.00158638	0.001081122	-0.04787704	0.03262833	0	0
24.92068	0.03624728	0.2545558	0	0	0.04787704	-0.03262833	0	0
24.93725	0.03624728	0.2545558	0	0	0	0	0	0
24.95382	0.03624728	0.2545558	0	0	0	0	0	0
24.97038	0.03624728	0.2545558	0	0	0	0	0	0
24.98709	0.03624728	0.2545558	0	0	0	0	0	0
25.0036	0.03624728	0.2545558	0	0	0	0	0	0
25.03665	0.03624728	0.2545558	0	0	0	0	0	0
25.08635	0.03622099	0.2545021	-0.0005287933	-0.001081722	-0.006390227	-0.01307211	0	0
25.10318	0.03619471	0.2544841	-0.001561924	-0.001064455	-0.01552919	0.0002595306	0	0
25.11949	0.03614215	0.2544483	-0.003223227	-0.002198465	-0.05013822	-0.03422448	0	0
25.13605	0.03611587	0.2544304	-0.001586155	-0.001081122	0.04979678	0.03398756	0	0
25.15262	0.03608959	0.2544125	-0.00158638	-0.001081122	-6.78793E-06	0	0	0
25.16922	0.03608959	0.2544125	0	0	0.04782474	0.03259268	0	0
25.18575	0.03608959	0.2544125	0	0	0	0	0	0
25.20232	0.03606331	0.2543945	-0.00158638	-0.001082921	-0.04793223	-0.03272029	0	0
25.21889	0.03601074	0.2543945	-0.003173125	0	-0.04789083	0.0326845	0	0
25.23545	0.03598446	0.2543766	-0.00158638	-0.001081122	0.04789083	-0.03263021	0	0
25.25229	0.03595818	0.2543587	-0.001561393	-0.001064093	0.0007481137	0.0005098428	0	0
25.2688	0.03590561	0.2543229	-0.003183388	-0.002171292	-0.04864389	-0.03320506	0	0
25.28531	0.0357742	0.2542332	-0.007958471	-0.005427327	-0.144595	-0.09859653	0	0
25.30182	0.0356428	0.2541795	-0.00795939	-0.003256412	-2.783652E-05	0.06574164	0	0
25.31829	0.03527484	0.2539286	-0.02234376	-0.0152341	-0.43618	-0.3632018	0	0
25.35286	0.03393434	0.2530504	-0.03877565	-0.02540259	-0.3219493	-0.1992307	0	0
25.36937	0.03317204	0.2525307	-0.04616125	-0.03147378	-0.1445761	-0.1188461	0	0
25.38566	0.03317204	0.2525307	0	0	1.407244	0.959491	0	0
25.40223	0.03317204	0.2525307	0	0	0	0	0	0
25.41879	0.03317204	0.2525307	0	0	0	0	0	0
25.43542	0.03317204	0.2525307	0	0	0	0	0	0
25.45193	0.03314575	0.2525127	-0.00159192	-0.001086548	-0.048047	-0.03279398	0	0
25.46849	0.03314575	0.2525127	0	0	0.04812457	0.03284693	0	0
25.48507	0.03314575	0.2525127	0	0	0	0	0	0
25.50163	0.03314575	0.2525127	0	0	0	0	0	0
25.5182	0.03314575	0.2525127	0	0	0	0	0	0
25.53477	0.03311946	0.2524948	-0.001586647	-0.001080998	-0.04788235	-0.03262269	0	0
25.55133	0.03306689	0.2524948	-0.003173575	0	-0.04789358	0.03262457	0	0
25.56789	0.03301432	0.2525307	-0.003174165	0.002164541	-1.782315E-05	0.06533726	0	0
25.58446	0.03283031	0.2526203	-0.01110691	0.005409207	-0.2394382	0.09793549	0	0
25.60103	0.03264629	0.2527457	-0.01110713	0.007571451	-6.801984E-06	0.06525666	0	0
25.61759	0.03230455	0.2529429	-0.02063004	0.01190271	-0.2874183	0.130725	0	0
25.63416	0.03083233	0.2533372	-0.08886314	0.02379907	-2.059398	0.3590537	0	0
25.65073	0.02985954	0.2538211	-0.05871765	0.02920828	0.9097929	0.1632502	0	0
25.6673	0.02836081	0.2544483	-0.09046346	0.03785906	-0.9580905	0.261081	0	0
25.68386	0.02757196	0.2539107	-0.04761546	-0.03245164	1.293155	-2.121981	0	0
25.70043	0.01991842	0.2488737	-0.4620218	-0.3040659	-12.50753	-8.197806	0	0
25.717	0.01121006	0.2432247	-0.5256377	-0.340977	-1.920043	-1.114044	0	0
25.73356	0.007947201	0.2412154	-0.1969691	-0.1212921	9.919809	6.630486	0	0
25.75013	-0.009526027	0.2331386	-1.054565	-0.4874597	-25.88229	-11.05096	0	0
25.7667	-0.01889249	0.2321331	-0.5653608	-0.06069573	14.76335	12.87902	0	0
25.78326	-0.04512724	0.2319176	-1.583715	-0.01300914	-30.73575	1.439267	0	0
25.79983	-0.06074098	0.2322588	-0.9424474	0.02059438	19.3546	1.014215	0	0
25.8164	-0.08043137	0.2321151	-1.188515	-0.008670562	-7.426323	-0.8832178	0	0
25.83296	-0.0945071	0.232564	-0.8496125	0.02709731	10.22808	1.079476	0	0
25.84953	-0.1070888	0.2342339	-0.7594301	0.1007908	2.721711	2.224074	0	0
25.8661	-0.1212445	0.2375906	-0.8544416	0.2026141	-2.867452	3.073034	0	0
25.88267	-0.1285503	0.2425071	-0.4409822	0.2967608	12.47823	2.841352	0	0
25.89923	-0.1391734	0.2498777	-0.6412078	0.444888	-6.042822	4.470488	0	0
25.9158	-0.1466244	0.2550576	-0.4497422	0.3126583	5.778443	-3.990699	0	0
25.93237	-0.1515141	0.2584619	-0.2951427	0.2054833	4.665823	-3.234548	0	0
25.95074	-0.1644744	0.2675057	-0.7053804	0.492224	-11.74096	8.206491	0	0
25.96731	-0.171841	0.2726966	-0.4446496	0.3133221	7.462091	-5.120155	0	0
25.98388	-0.1763591	0.275864	-0.2727143	0.1911823	5.189016	-3.686187	0	0
26.03384	-0.1974462	0.2907088	-0.4220056	0.2970825	-2.243769	1.591625	0	0
26.05036	-0.2030319	0.2946596	-0.338282	0.2392663	1.259368	-0.8696708	0	0
26.06687	-0.2053786	0.2963219	-0.1421231	0.1006754	5.939922	-4.196693	0	0
26.08338	-0.2097882	0.2994496	-0.2670581	0.1894204	-3.783177	2.687302	0	0
26.09989	-0.2100399	0.2996641	-0.01524507	0.01298804	7.625189	-5.342577	0	0
26.11641	-0.2100148	0.2996462	0.001523708	-0.001080759	0.5076901	-0.4259458	0	0
26.13298	-0.2100148	0.2996462	0	0	-0.04605453	0.03266627	0	0
26.14954	-0.2100148	0.2996462	0	0	0	0	0	0
26.16611	-0.2100148	0.2996462	0	0	0	0	0	0
26.18268	-0.2099896	0.2996283	0.001519147	-0.001079323	0.04584795	-0.03257403	0	0
26.19925	-0.2099896	0.2996283	0	0	-0.04584795	0.03257403	0	0
26.21581	-0.2099896	0.2996283	0	0	0	0	0	0
26.23238	-0.2099896	0.2996283	0	0	0	0	0	0
26.24895	-0.2099896	0.2996283	0	0	0	0	0	0
26.26551	-0.2099644	0.2996104	0.001519147	-0.001079323	0.04584795	-0.03257403	0	0
26.28208	-0.2099644	0.2996104	0	0	-0.04584795	0.03257403	0	0
26.29865	-0.2099393	0.2995926	0.001520047	-0.001077524	0.0458751	-0.03251974	0	0
26.31522	-0.2099393	0.2995926	0	0	-0.0458751	0.03251974	0	0
26.33178	-0.2099393	0.2995926	0	0	0	0	0	0
26.34835	-0.2099141	0.2995747	0.001519147	-0.001079323	0.04584795	-0.03257403	0	0
26.36492	-0.2099141	0.2995747	0	0	-0.04584795	0.03257403	0	0
26.38148	-0.2098889	0.2995568	0.001519147	-0.001079323	0.04584795	-0.03257403	0	0
26.39805	-0.2098889	0.2995568	0	0	-0.04584795	0.03257403	0	0
26.41462	-0.2098637	0.2995747	0.001520047	0.001079323	0.0458751	0.03257403	0	0
26.43119	-0.2098637	0.2995747	0	0	-0.0458751	-0.03257403	0	0
26.44775	-0.2098889	0.2995926	-0.001520047	0.001079323	-0.0458751	0.03257403	0	0
26.46432	-0.2098386	0.2996283	0.003039194	0.002156847	0.1375981	0.03251974	0	0
26.48089	-0.2097379	0.2996998	0.006078388	0.004315493	0.09172305	0.06514806	0	0
26.49746	-0.209612	0.2997892	0.007597535	0.005393018	0.04584796	0.03251975	0	0
26.51402	-0.2095113	0.2998607	0.006079287	0.004315493	-0.04582081	-0.03251975	0	0
26.53059	-0.2090832	0.3002002	0.02583125	0.02048983	0.5960467	0.4880862	0	0
26.54722	-0.2086299	0.3005219	0.02726533	0.01934797	0.04319863	-0.03439604	0	0
26.56372	-0.208504	0.300647	0.007631003	0.007579534	-0.5926675	-0.3552335	0	0
26.58029	-0.208504	0.3006827	0	0.002156847	-0.2307558	-0.1639779	0	0
26.59686	-0.2084788	0.3007006	0.001520946	0.001079323	0.04590224	-0.03251974	0	0
26.61342	-0.2084536	0.3007542	0.001520047	0.00323617	-2.714469E-05	0.06509378	0	0
26.62999	-0.2084284	0.3008078	0.001520946	0.00323617	2.714469E-05	0	0	0
26.665	-0.2102665	0.3023982	-0.05250273	0.0454287	-1.047445	0.8180554	0	0
26.68157	-0.2139132	0.3050249	-0.2201153	0.1585472	-3.249779	2.193213	0	0
26.69833	-0.2255185	0.3142255	-0.6924443	0.5489662	-14.17252	11.71476	0	0
26.7147	-0.2308868	0.3182088	-0.3278438	0.2432586	11.00366	-9.226273	0	0
26.73127	-0.2387275	0.3242277	-0.4732679	0.3633019	-4.414572	3.644102	0	0
26.74784	-0.2470086	0.3315139	-0.4998471	0.439799	-0.8021628	2.308685	0	0
26.7644	-0.2483195	0.3332818	-0.07912697	0.1067109	12.69736	-10.05262	0	0
26.78097	-0.2536038	0.3427105	-0.3189597	0.5691127	-7.238167	13.95531	0	0
26.79754	-0.2527652	0.3489963	0.05061845	0.3794144	11.15389	-5.725103	0	0
26.81411	-0.2511363	0.3567827	0.09832093	0.4699876	1.439664	2.733504	0	0
26.83067	-0.2511857	0.3613907	-0.00298073	0.2781397	-3.05729	-5.789981	0	0
26.84724	-0.2524198	0.366285	-0.07449985	0.2954537	-2.158576	0.5225673	0	0
26.86381	-0.2572991	0.3707511	-0.2945167	0.2695771	-6.640503	-0.7810026	0	0
26.88046	-0.2602256	0.3728772	-0.175715	0.1276555	3.575972	-4.271893	0	0
26.89697	-0.2605205	0.3730916	-0.01785766	0.01298443	4.759488	-3.457395	0	0
26.91351	-0.2605205	0.3730916	0	0	0.5404072	-0.3929341	0	0
26.93007	-0.2605205	0.3730916	0	0	0	0	0	0
26.94664	-0.2605205	0.3730916	0	0	0	0	0	0
26.96352	-0.2605205	0.3730916	0	0	0	0	0	0
26.97977	-0.2605205	0.3730916	0	0	0	0	0	0
26.99654	-0.2605205	0.3730916	0	0	0	0	0	0
27.01291	-0.2604959	0.3730738	0.001500758	-0.001090963	0.04529295	-0.03292534	0	0
27.02957	-0.2604713	0.3730202	0.001475744	-0.003218017	-0.0007574366	-0.06440964	0	0
27.04604	-0.2603976	0.3729666	0.004474366	-0.003253097	0.0905038	-0.001058802	0	0
27.06359	-0.2602748	0.3728415	0.007000856	-0.007126508	0.07425766	-0.1138459	0	0
27.07917	-0.2601273	0.3726628	0.00946222	-0.01146675	0.07428839	-0.1309963	0	0
27.09574	-0.2593899	0.3720911	0.04450949	-0.03450955	1.090173	-0.7167646	0	0
27.11263	-0.2589228	0.3716802	0.02766541	-0.02433674	-0.5035148	0.3040929	0	0
27.12887	-0.2589228	0.3716802	0	0	-0.8349437	0.7344842	0	0
27.14565	-0.2588982	0.3716623	0.00146551	-0.001064049	0.04437478	-0.03221878	0	0
27.16201	-0.2588982	0.3716623	0	0	-0.04422918	0.03211306	0	0
27.17867	-0.258849	0.3716266	0.002952263	-0.002144012	0.08939794	-0.06492317	0	0
27.19514	-0.258849	0.3716266	0	0	-0.0891046	0.06471013	0	0
27.21171	-0.2587752	0.371573	0.004452208	-0.00323617	0.1347791	-0.09796669	0	0
27.22828	-0.2586769	0.3715015	0.005938075	-0.004313694	0.04484358	-0.03251974	0	0
27.26157	-0.2584309	0.3713228	0.007387324	-0.005366171	0.02906524	-0.02110783	0	0
27.27824	-0.2583817	0.3712871	0.002949125	-0.002143031	-0.08881955	0.06450316	0	0
27.2947	-0.2583571	0.3712693	0.001495683	-0.001084642	-0.04386748	0.03194408	0	0
27.31127	-0.2583079	0.3712335	0.002969937	-0.002156847	0.04463954	-0.03246574	0	0
27.32784	-0.2580619	0.3710549	0.01484789	-0.01078424	0.3584773	-0.2603751	0	0
27.3444	-0.2576683	0.370769	0.02376403	-0.01725676	0.2691053	-0.1953526	0	0
27.36097	-0.2551567	0.3689468	0.1515999	-0.1099902	3.858317	-2.798862	0	0
27.37782	-0.2538997	0.3680356	0.07461858	-0.05408599	-2.303938	1.673131	0	0
27.3941	-0.2508894	0.3658563	0.1848086	-0.133795	3.325542	-2.405623	0	0
27.41084	-0.2499014	0.3651417	0.05903134	-0.04269231	-3.808462	2.758536	0	0
27.42724	-0.2463899	0.3626053	0.2141445	-0.1546851	4.681324	-3.379951	0	0
27.4438	-0.243269	0.3603548	0.188404	-0.1358574	-0.7808933	0.57118	0	0
27.46037	-0.2395224	0.3576578	0.2261182	-0.1627684	1.138217	-0.8121731	0	0
27.47694	-0.2327563	0.3526573	0.4084964	-0.3019058	5.504501	-4.199418	0	0
27.4935	-0.2273677	0.348657	0.3252567	-0.2414554	-2.512469	1.824608	0	0
27.51007	-0.2227667	0.3453712	0.2777125	-0.198331	-1.434886	1.301495	0	0
27.52693	-0.2178552	0.3418712	0.2913973	-0.2076532	0.4094494	-0.2789196	0	0
27.54343	-0.2156967	0.3403355	0.1307517	-0.09302787	-4.815033	3.435667	0	0
27.55977	-0.2137875	0.3389783	0.1168655	-0.08307429	-0.422786	0.3030515	0	0
27.57634	-0.2138629	0.3390676	-0.004550246	0.00538942	-3.690037	2.688566	0	0
27.59291	-0.2138378	0.3390498	0.001516449	-0.001077524	0.1830932	-0.1951728	0	0
27.60947	-0.2138378	0.3390498	0	0	-0.04576652	0.03251974	0	0
27.62604	-0.2138629	0.3390676	-0.001516274	0.0010774	-0.04575862	0.03251413	0	0
27.6426	-0.2138881	0.3390855	-0.001517698	0.001077772	-4.296459E-05	1.123305E-05	0	0
27.65917	-0.2138881	0.3390855	0	0	0.04580949	-0.03253098	0	0
27.67574	-0.2138881	0.3390855	0	0	0	0	0	0
27.72545	-0.2140388	0.3391926	-0.003033148	0.0021554	-0.04576634	0.03252224	0	0
27.74985	-0.2140388	0.3391926	0	0	0.04092658	-0.02908303	0	0
27.76642	-0.2140388	0.3391926	0	0	0	0	0	0
27.78311	-0.2140388	0.3391926	0	0	0	0	0	0
27.79962	-0.214064	0.3392105	-0.001521353	0.001081009	-0.04582484	0.03256119	0	0
27.81613	-0.2140891	0.339264	-0.001522783	0.003245956	-4.330595E-05	0.06556089	0	0
27.83269	-0.2141142	0.3392819	-0.001517322	0.001078145	0.0001651498	-0.06556053	0	0
27.84925	-0.2141393	0.3392997	-0.001516449	0.001077524	2.636528E-05	-1.873544E-05	0	0
27.86617	-0.2141393	0.3392997	0	0	0.04529459	-0.03218441	0	0
27.88239	-0.2141393	0.3392997	0	0	0	0	0	0
27.89895	-0.2141393	0.3392997	0	0	0	0	0	0
27.91552	-0.2141142	0.3392819	0.001516449	-0.001077524	0.04576652	-0.03251974	0	0
27.94913	-0.2141142	0.3392819	0	0	-0.03021877	0.02147218	0	0
27.96573	-0.2141142	0.3392819	0	0	0	0	0	0
27.98227	-0.2141142	0.3392819	0	0	0	0	0	0
27.99883	-0.2141142	0.3392819	0	0	0	0	0	0
28.0154	-0.2141142	0.3392819	0	0	0	0	0	0
28.03197	-0.2141142	0.3392819	0	0	0	0	0	0
28.04854	-0.2141142	0.3392819	0	0	0	0	0	0
28.0653	-0.2141393	0.339264	-0.001498336	-0.001064654	-0.04494821	-0.03193828	0	0
28.08167	-0.2141393	0.339264	0	0	0.04522248	0.03213318	0	0
28.09833	-0.2141393	0.339264	0	0	0	0	0	0
28.11484	-0.2141142	0.3392462	0.001521529	-0.001081134	0.04586966	-0.03259303	0	0
28.13185	-0.2141142	0.3392462	0	0	-0.04538685	0.03224997	0	0
28.14794	-0.2141142	0.3392462	0	0	0	0	0	0
28.1645	-0.2140891	0.3392283	0.001516449	-0.001077524	0.0464429	-0.03300035	0	0
28.18107	-0.2140891	0.3392283	0	0	-0.04576652	0.03251974	0	0
28.19764	-0.2140891	0.3392283	0	0	0	0	0	0
28.21441	-0.2140891	0.3392283	0	0	0	0	0	0
28.23077	-0.2140891	0.3392283	0	0	0	0	0	0
28.24734	-0.2140891	0.3392283	0	0	0	0	0	0
28.26394	-0.2140891	0.3392283	0	0	0	0	0	0
28.28047	-0.2140891	0.3392283	0	0	0	0	0	0
28.29704	-0.2140891	0.3392283	0	0	0	0	0	0
28.3136	-0.214064	0.3392105	0.001517348	-0.001079323	0.04579366	-0.03257403	0	0
28.33017	-0.2140891	0.3391926	-0.001517348	-0.001077524	-0.09158733	5.428939E-05	0	0
28.34674	-0.2140891	0.3391926	0	0	0.04579366	0.03251974	0	0
28.36331	-0.2140891	0.3391926	0	0	0	0	0	0
28.37987	-0.2140891	0.3391926	0	0	0	0	0	0
28.39644	-0.2140891	0.3391926	0	0	0	0	0	0
28.41301	-0.214064	0.3391747	0.001517348	-0.001077524	0.04579366	-0.03251974	0	0
28.42957	-0.214064	0.3391747	0	0	-0.04579366	0.03251974	0	0
28.44614	-0.2140891	0.3391926	-0.001517348	0.001077524	-0.04579366	0.03251974	0	0
28.46271	-0.2140891	0.3391926	0	0	0.04579366	-0.03251974	0	0
28.4796	-0.2140891	0.3391926	0	0	0	0	0	0
28.49611	-0.2140891	0.3391926	0	0	0	0	0	0
28.51241	-0.2140891	0.3391926	0	0	0	0	0	0
28.61181	-0.2140891	0.3391569	0	-0.0003591816	0	-0.003104531	0	0
28.62871	-0.2140891	0.3391569	0	0	0	0.00308839	0	0
28.64494	-0.2140891	0.3391569	0	0	0	0	0	0
28.66151	-0.2140891	0.3391569	0	0	0	0	0	0
28.67824	-0.2140891	0.3391569	0	0	0	0	0	0
28.69464	-0.2140891	0.3391569	0	0	0	0	0	0
28.7578	-0.2140891	0.3391569	0	0	0	0	0	0
28.77429	-0.2140891	0.3391569	0	0	0	0	0	0
28.79086	-0.2140891	0.3391569	0	0	0	0	0	0
28.80743	-0.2140891	0.3391569	0	0	0	0	0	0
28.824	-0.2140891	0.3391569	0	0	0	0	0	0
28.84056	-0.2141142	0.3391747	-0.001516449	0.001077524	-0.04576652	0.03251974	0	0
28.8737	-0.2141142	0.3391747	0	0	0.03051101	-0.02167983	0	0
28.89026	-0.2140891	0.3391569	0.001516449	-0.001077524	0.03051101	-0.02167983	0	0
28.90691	-0.2140891	0.3391569	0	0	-0.04565876	0.03244317	0	0
28.9234	-0.2140891	0.3391569	0	0	0	0	0	0
28.94044	-0.2140891	0.3391569	0	0	0	0	0	0
28.95653	-0.2140891	0.3391569	0	0	0	0	0	0
28.9731	-0.2141142	0.339139	-0.001516449	-0.001077524	-0.04642392	-0.03298686	0	0
28.98967	-0.2141142	0.3391033	0	-0.002156847	0.04576652	-0.03257403	0	0
29.00624	-0.2141142	0.3391033	0	0	0	0.06509003	0	0
29.023	-0.2141142	0.3391033	0	0	0	0	0	0
29.03937	-0.2141142	0.3391033	0	0	0	0	0	0
29.05594	-0.2141142	0.3391033	0	0	0	0	0	0
29.0725	-0.2141142	0.3391033	0	0	0	0	0	0
29.08907	-0.2141142	0.3391033	0	0	0	0	0	0
29.10564	-0.2141142	0.3391033	0	0	0	0	0	0
29.12221	-0.2141393	0.3390855	-0.001516449	-0.001077524	-0.04576652	-0.03251974	0	0
29.13908	-0.2141393	0.3390855	0	0	0.04534367	0.03221929	0	0
29.15534	-0.2141645	0.3390676	-0.001545269	-0.001098003	-0.04663632	-0.03313779	0	0
29.17211	-0.2141645	0.3390676	0	0	0.04679254	0.03324879	0	0
29.18847	-0.2141645	0.3390676	0	0	0	0	0	0
29.20513	-0.2141896	0.3390498	-0.001509182	-0.001071725	-0.04569979	-0.03245308	0	0
29.22161	-0.2141896	0.3390498	0	0	0.04554721	0.03234472	0	0
29.23817	-0.2142147	0.3390319	-0.001516449	-0.001077524	-0.04589068	-0.03260797	0	0
29.25474	-0.2142399	0.3389783	-0.001516449	-0.003234371	0	-0.06509378	0	0
29.27168	-0.2142399	0.3389783	0	0	0.04526365	0.09654097	0	0
29.28787	-0.2142399	0.3389783	0	0	0	0	0	0
29.3052	-0.214265	0.3389605	-0.001450008	-0.001030314	-0.04325341	-0.03073403	0	0
29.32121	-0.214265	0.3389605	0	0	0.04349593	0.03090636	0	0
29.33757	-0.214265	0.3389605	0	0	0	0	0	0
29.35414	-0.214265	0.3389605	0	0	0	0	0	0
29.37071	-0.214265	0.3389605	0	0	0	0	0	0
29.42041	-0.214265	0.3389605	0	0	0	0	0	0
29.4373	-0.214265	0.3389605	0	0	0	0	0	0
29.47038	-0.214265	0.3389605	0	0	0	0	0	0
29.48695	-0.214265	0.3389605	0	0	0	0	0	0
29.50384	-0.214265	0.3389605	0	0	0	0	0	0
29.53665	-0.214265	0.3389605	0	0	0	0	0	0
29.55321	-0.214265	0.3389605	0	0	0	0	0	0
29.5699	-0.214265	0.3389605	0	0	0	0	0	0
29.5864	-0.214265	0.3389605	0	0	0	0	0	0
29.60291	-0.214265	0.3389605	0	0	0	0	0	0
29.61948	-0.214265	0.3389605	0	0	0	0	0	0
29.63605	-0.214265	0.3389605	0	0	0	0	0	0
29.65295	-0.2142901	0.3389426	-0.001486668	-0.001056363	-0.04442278	-0.03156494	0	0
29.66918	-0.2142901	0.3389426	0	0	0.04487547	0.0318866	0	0
29.68575	-0.214265	0.3389247	0.001516449	-0.001079323	0.04623763	-0.03290934	0	0
29.70231	-0.214265	0.3389247	0	0	-0.04576916	0.03257591	0	0
29.71888	-0.2142901	0.3388712	-0.001516449	-0.003232572	-0.04576916	-0.09756485	0	0
29.73551	-0.2143404	0.338764	-0.003022661	-0.006443207	-0.045374	-0.09671897	0	0
29.75202	-0.2143906	0.3386926	-0.003043409	-0.00432684	-0.0006260969	0.06386472	0	0
29.76903	-0.2151944	0.3378712	-0.04725253	-0.04828702	-1.318823	-1.311396	0	0
29.78514	-0.216475	0.3363533	-0.07946207	-0.09418829	-0.9723096	-1.385622	0	0
29.80171	-0.2141896	0.3333354	0.1379624	-0.1821801	6.65303	-2.692487	0	0
29.81828	-0.2086551	0.329371	0.334064	-0.2392949	5.918699	-1.723827	0	0
29.83484	-0.2016429	0.3243706	0.4232547	-0.3018255	2.691782	-1.887177	0	0
29.85141	-0.1911632	0.3167263	0.6326317	-0.4614637	6.319374	-4.818169	0	0
29.86798	-0.1834152	0.3104205	0.4676707	-0.3806143	-4.978821	2.440181	0	0
29.88454	-0.179469	0.2986096	0.2381886	-0.712909	-6.925783	-10.02868	0	0
29.90111	-0.1795455	0.2915491	-0.004613207	-0.4261743	-7.327773	8.653671	0	0
29.91768	-0.1798257	0.275184	-0.01691479	-0.9877964	-0.3712625	-16.94979	0	0
29.93424	-0.180437	0.2697076	-0.03689846	-0.3305571	-0.6031082	19.83552	0	0
29.95081	-0.1809973	0.2601099	-0.03381699	-0.5793195	0.09299886	-7.507664	0	0
29.96738	-0.1808445	0.2528353	0.009221916	-0.4390938	1.298917	4.232019	0	0
29.98395	-0.1814046	0.2448748	-0.03381069	-0.4804957	-1.298727	-1.249513	0	0
30.00051	-0.1828045	0.2324743	-0.08450813	-0.7485877	-1.53014	-8.091498	0	0
30.03372	-0.182601	0.2121968	0.006130988	-0.6106746	1.821147	2.770989	0	0
30.05023	-0.1824228	0.2091547	0.01078753	-0.1842155	0.09365746	8.577413	0	0
30.06678	-0.1826519	0.1906426	-0.01383957	-1.11855	-0.7448337	-28.25845	0	0
30.08335	-0.1824737	0.1846302	0.01075276	-0.3629125	0.7425826	22.817	0	0
30.13305	-0.1830081	0.1539046	-0.01075227	-0.6182234	-0.3245208	-3.85276	0	0
30.14961	-0.1821429	0.1462761	0.05222664	-0.4604572	0.9503811	2.380765	0	0
30.18283	-0.1775321	0.1336298	0.138833	-0.3807903	1.739852	1.600445	0	0
30.19931	-0.1764866	0.1290917	0.06340551	-0.2752196	-1.517662	2.124168	0	0
30.21588	-0.1731946	0.1264107	0.1987061	-0.1618247	4.09304	3.430361	0	0
30.23245	-0.1701033	0.1242028	0.1866131	-0.1332812	-0.3649892	0.8614956	0	0
30.24937	-0.1662409	0.1214097	0.228193	-0.1650208	1.24152	-0.9477026	0	0
30.26588	-0.1628092	0.1189987	0.2078571	-0.1460322	-0.6082065	0.5679117	0	0
30.28215	-0.1607329	0.1174821	0.1276616	-0.09324884	-2.446927	1.610527	0	0
30.31528	-0.1596045	0.1166779	0.03405624	-0.02426993	-1.894906	1.396379	0	0
30.33185	-0.1592197	0.1164038	0.02322613	-0.01654962	-0.2179022	0.1553329	0	0
30.34842	-0.157064	0.1148681	0.1301187	-0.09269406	3.226023	-2.298044	0	0
30.36498	-0.1545728	0.1130575	0.1503668	-0.1092842	0.6110889	-0.5006901	0	0
30.38155	-0.1531852	0.1120697	0.08375907	-0.05962675	-2.010225	1.498663	0	0
30.39812	-0.1532109	0.112088	-0.001551527	0.001104507	-2.574679	1.832873	0	0
30.41468	-0.1532109	0.1120514	0	-0.002208565	0.04682517	-0.09998871	0	0
30.43125	-0.1532109	0.1120514	0	0	0	0.06665462	0	0
30.44782	-0.1532366	0.1120331	-0.001550627	-0.001104507	-0.04679803	-0.0333341	0	0
30.46439	-0.1533137	0.1119782	-0.004654581	-0.003312622	-0.0936775	-0.06664105	0	0
30.48104	-0.1534165	0.111905	-0.006173226	-0.004394811	-0.04571439	-0.03257612	0	0
30.49755	-0.1535193	0.1118319	-0.006225276	-0.004431866	-0.001569329	-0.001117229	0	0
30.51409	-0.1535964	0.111777	-0.004663345	-0.003319952	0.04726432	0.03364672	0	0
30.53108	-0.1536221	0.1117587	-0.001512861	-0.001076543	0.09397822	0.06692037	0	0
30.54722	-0.1536221	0.1117587	0	0	0.04566085	0.032492	0	0
30.56379	-0.1536221	0.1117587	0	0	0	0	0	0
30.58063	-0.1536478	0.1117404	-0.001526397	-0.001086618	-0.04569066	-0.03252645	0	0
30.59712	-0.1536478	0.1117404	0	0	0.04578476	0.03259344	0	0
30.61349	-0.1536478	0.1117404	0	0	0	0	0	0
30.63005	-0.1536478	0.1117404	0	0	0	0	0	0
30.64662	-0.1536478	0.1117404	0	0	0	0	0	0
30.66319	-0.1536478	0.1117404	0	0	0	0	0	0
30.67975	-0.1536478	0.1117404	0	0	0	0	0	0
30.69632	-0.1536221	0.1117587	0.001551527	0.001104507	0.04682517	0.0333341	0	0
30.71289	-0.1536221	0.1117587	0	0	-0.04682517	-0.0333341	0	0
30.72972	-0.1536221	0.1117587	0	0	0	0	0	0
30.74602	-0.1536221	0.1117587	0	0	0	0	0	0
30.76274	-0.1536221	0.1117587	0	0	0	0	0	0
30.77926	-0.1536221	0.1117587	0	0	0	0	0	0
30.79572	-0.1536221	0.1117587	0	0	0	0	0	0
30.81229	-0.1536221	0.1117587	0	0	0	0	0	0
30.84542	-0.1536221	0.1117587	0	0	0	0	0	0
30.86199	-0.1536478	0.1117404	-0.001551527	-0.001104507	-0.03121798	-0.02222358	0	0
30.87856	-0.1536478	0.1117404	0	0	0.04682517	0.0333341	0	0
30.89534	-0.1536478	0.1117404	0	0	0	0	0	0
30.91185	-0.1536221	0.1117587	0.001556724	0.001108207	0.04675863	0.03328672	0	0
30.92826	-0.1536478	0.111777	-0.001566678	0.001114839	-0.09488164	0.0002014524	0	0
30.94482	-0.1536735	0.1117953	-0.001550627	0.001104507	0.0004867561	-0.0003133242	0	0
30.96139	-0.153802	0.1119599	-0.007755836	0.009939216	-0.1872735	0.266632	0	0
30.97796	-0.1544187	0.1128015	-0.03722405	0.05079474	-0.8893526	1.233022	0	0
30.99453	-0.1545728	0.113972	-0.009304664	0.07065699	0.8426089	0.5994437	0	0
31.01109	-0.1567046	0.1161844	-0.1286715	0.1335388	-3.602498	1.897777	0	0
31.02766	-0.1613996	0.1199669	-0.2833897	0.2283119	-4.669406	2.860258	0	0
31.04445	-0.1660874	0.1241116	-0.2792589	0.2469033	0.1238483	0.5574002	0	0
31.06079	-0.1715344	0.131425	-0.3331948	0.4473611	-1.627787	6.049829	0	0
31.07736	-0.1739095	0.1383642	-0.1433602	0.418852	5.767399	-0.8661404	0	0
31.09393	-0.1740371	0.1414757	-0.007703668	0.187813	4.094122	-6.972771	0	0
31.11049	-0.1736797	0.1582955	0.02157455	1.015361	0.8836694	24.97687	0	0
31.12706	-0.1737563	0.1736388	-0.0046231	0.9261239	-0.7906923	-2.693323	0	0
31.14363	-0.1745476	0.1858764	-0.04776274	0.7386617	-1.301957	-5.657621	0	0
31.1602	-0.1749304	0.1984531	-0.02310561	0.7591311	0.7441539	0.6177667	0	0
31.17676	-0.1757469	0.2155616	-0.04928279	1.032671	-0.7900289	8.255454	0	0
31.19333	-0.1762571	0.2243723	-0.03079489	0.5318158	0.5579661	-15.11584	0	0
31.2099	-0.1772261	0.2414307	-0.05850065	1.029766	-0.8362097	15.02903	0	0
31.22658	-0.1786791	0.257799	-0.08710142	0.9812137	-0.8602514	-1.460342	0	0
31.24303	-0.1791378	0.2697255	-0.02788225	0.7249764	1.787341	-7.733703	0	0
31.2596	-0.1796729	0.2813383	-0.03229143	0.7008713	-0.1335305	-0.7300157	0	0
31.27616	-0.180055	0.2965185	-0.02306599	0.9163824	0.2784243	6.504139	0	0
31.29273	-0.1803351	0.3036133	-0.01691209	0.4282448	0.1857357	-14.73287	0	0
31.30964	-0.1827282	0.3194412	-0.1415283	0.9360812	-3.722568	15.17022	0	0
31.32586	-0.1832371	0.3223346	-0.03136296	0.1783201	3.324797	-22.86928	0	0
31.34243	-0.184636	0.3334961	-0.08444084	0.6737117	-1.618571	15.10661	0	0
31.359	-0.1862376	0.342764	-0.09666867	0.5594131	-0.3690365	-3.449536	0	0
31.37557	-0.1878635	0.348907	-0.09814374	0.3707906	-0.0445178	-5.692638	0	0
31.39213	-0.1928621	0.3544253	-0.3017158	0.3330827	-6.143816	-1.138028	0	0
31.4087	-0.19694	0.3573006	-0.2461432	0.1735569	1.677183	-4.814497	0	0
31.44324	-0.2001269	0.359551	-0.09227397	0.0651604	3.010928	-2.121114	0	0
31.45975	-0.2007081	0.3599261	-0.0352077	0.02271726	1.11793	-0.8314624	0	0
31.4762	-0.2007334	0.3599083	-0.001535326	-0.001085145	1.021586	-0.7221408	0	0
31.49277	-0.2007081	0.3598904	0.001524193	-0.001079075	0.09265114	0.0001838282	0	0
31.50933	-0.2007081	0.3598547	0	-0.002155793	-0.04600288	-0.03249729	0	0
31.5259	-0.2007081	0.3598189	0	-0.002156847	0	-3.182304E-05	0	0
31.54247	-0.2007334	0.3597654	-0.001524544	-0.003234371	-0.04601083	-0.03251974	0	0
31.5756	-0.2007839	0.359551	-0.001525531	-0.006468215	-1.98633E-05	-0.06506757	0	0
31.59216	-0.2008345	0.3593724	-0.003049987	-0.01078064	-0.03067329	-0.08676945	0	0
31.60873	-0.2009103	0.3592474	-0.00457633	-0.007546267	-0.04606511	0.09761351	0	0
31.6253	-0.2009103	0.359176	0	-0.004314191	0.1381219	0.09754986	0	0
31.64186	-0.2009608	0.3591045	-0.003049987	-0.004311895	-0.09205409	6.928866E-05	0	0
31.65843	-0.2009608	0.3590331	0	-0.004311895	0.09204879	0	0	0
31.675	-0.2010366	0.3588366	-0.00457543	-0.01185816	-0.1380868	-0.2277468	0	0
31.69157	-0.2010871	0.3587652	-0.003049987	-0.004311895	0.04603797	0.2277468	0	0
31.70813	-0.2011882	0.3585866	-0.006099974	-0.01078064	-0.09204879	-0.195227	0	0
31.7247	-0.2015419	0.3581222	-0.02134811	-0.02803002	-0.4601897	-0.5205874	0	0
31.74127	-0.2021733	0.35764	-0.0381145	-0.02910754	-0.5060105	-0.03251978	0	0
31.75796	-0.2037639	0.3565148	-0.0952809	-0.06740245	-1.718756	-1.151368	0	0
31.7744	-0.2037891	0.356497	-0.00153531	-0.001085774	2.829247	2.001441	0	0
31.79097	-0.2037891	0.356497	0	0	0.04651247	0.03289371	0	0
31.80754	-0.2037891	0.356497	0	0	0	0	0	0
31.8241	-0.2037891	0.356497	0	0	0	0	0	0
31.84067	-0.2037891	0.356497	0	0	0	0	0	0
31.85724	-0.2037891	0.356497	0	0	0	0	0	0
31.8738	-0.2037891	0.356497	0	0	0	0	0	0
31.89037	-0.2037891	0.356497	0	0	0	0	0	0
31.90694	-0.2037891	0.356497	0	0	0	0	0	0
31.92358	-0.2037891	0.356497	0	0	0	0	0	0
31.94007	-0.2037891	0.356497	0	0	0	0	0	0
32.00634	-0.2037639	0.3564434	0.000380933	-0.0008086394	0.00460319	-0.009771589	0	0
32.0229	-0.2037639	0.3564434	0	0	-0.004598844	0.009762364	0	0
32.03966	-0.2037639	0.3564434	0	0	0	0	0	0
32.05603	-0.2037639	0.3564434	0	0	0	0	0	0
32.07268	-0.2037639	0.3564434	0	0	0	0	0	0
32.08919	-0.2037639	0.3564434	0	0	0	0	0	0
32.10573	-0.2037639	0.3564434	0	0	0	0	0	0
32.13923	-0.2037639	0.3564434	0	0	0	0	0	0
32.15576	-0.2037639	0.3564434	0	0	0	0	0	0
32.17233	-0.2037639	0.3564434	0	0	0	0	0	0
32.1889	-0.2037639	0.3564434	0	0	0	0	0	0
32.20546	-0.2037639	0.3564434	0	0	0	0	0	0
32.22203	-0.2037639	0.3564434	0	0	0	0	0	0
32.2386	-0.2037639	0.3564434	0	0	0	0	0	0
32.25531	-0.2037639	0.3564434	0	0	0	0	0	0
32.27173	-0.2037639	0.3564434	0	0	0	0	0	0
32.28834	-0.2037386	0.3564255	0.001520144	-0.001075049	0.04603173	-0.03255372	0	0
32.30487	-0.2037386	0.3564255	0	0	-0.04587804	0.03244504	0	0
32.32143	-0.2037386	0.3564255	0	0	0	0	0	0
32.338	-0.2037386	0.3564255	0	0	0	0	0	0
32.35457	-0.2037134	0.3564076	0.001523644	-0.001079323	0.04598368	-0.03257403	0	0
32.3714	-0.2037134	0.3564076	0	0	-0.04562127	0.03231731	0	0
32.3877	-0.2036882	0.3563898	0.001547328	-0.00109492	0.04669846	-0.03304475	0	0
32.40427	-0.2036882	0.3563898	0	0	-0.0470724	0.03330935	0	0
32.42094	-0.2036629	0.3563719	0.001514577	-0.001071112	0.04557361	-0.03222974	0	0
32.4374	-0.2036629	0.3563719	0	0	-0.04571003	0.03232622	0	0
32.45397	-0.2036629	0.3563719	0	0	0	0	0	0
32.47054	-0.2036629	0.3563719	0	0	0	0	0	0
32.48748	-0.2036629	0.3563719	0	0	0	0	0	0
32.50367	-0.2036629	0.3563719	0	0	0	0	0	0
32.52051	-0.2036629	0.3563719	0	0	0	0	0	0
32.53681	-0.2036629	0.3563719	0	0	0	0	0	0
32.55337	-0.2036629	0.3563719	0	0	0	0	0	0
32.56994	-0.2036629	0.3563719	0	0	0	0	0	0
32.58656	-0.2036629	0.3563719	0	0	0	0	0	0
32.60307	-0.2036629	0.3563719	0	0	0	0	0	0
32.61964	-0.2036629	0.3563719	0	0	0	0	0	0
32.63621	-0.2036629	0.3563719	0	0	0	0	0	0
32.65277	-0.2036629	0.3563719	0	0	0	0	0	0
32.66934	-0.2036629	0.3563719	0	0	0	0	0	0
32.68591	-0.2036629	0.3563719	0	0	0	0	0	0
32.70264	-0.2036629	0.3563719	0	0	0	0	0	0
32.71915	-0.2036629	0.3563719	0	0	0	0	0	0
32.75339	-0.2036629	0.3563719	0	0	0	0	0	0
32.76995	-0.2036629	0.3563719	0	0	0	0	0	0
32.85329	-0.2036629	0.3563362	0	-0.0004287827	0	-0.004291986	0	0
32.86986	-0.2036629	0.3563362	0	0	0	0.004291986	0	0
32.91956	-0.2036629	0.3563362	0	0	0	0	0	0
32.93631	-0.2036629	0.3563362	0	0	0	0	0	0
32.95269	-0.2036629	0.3563362	0	0	0	0	0	0
32.96933	-0.2036629	0.3563362	0	0	0	0	0	0
32.98582	-0.2036882	0.3563541	-0.001530339	0.001084066	-0.04618573	0.03271716	0	0
33.00239	-0.2036882	0.3563541	0	0	0.04628698	-0.03278889	0	0
33.01896	-0.2036882	0.3563541	0	0	0	0	0	0
33.03553	-0.2036882	0.3563541	0	0	0	0	0	0
33.05209	-0.2036882	0.3563541	0	0	0	0	0	0
33.0689	-0.2036882	0.3563898	0	0.002124234	0	0.06364787	0	0
33.08523	-0.2037386	0.3564255	-0.003091231	0.002188595	-0.09329353	0.001942423	0	0
33.1018	-0.2038396	0.356497	-0.006093678	0.004311895	-0.09127606	0.06454951	0	0
33.11836	-0.2039658	0.3566577	-0.007616423	0.009701315	-0.04595654	0.162653	0	0
33.13493	-0.2042181	0.356872	-0.01523195	0.01293569	-0.229837	0.09761353	0	0
33.16806	-0.2086299	0.3601404	-0.133148	0.09864203	-2.372475	1.724415	0	0
33.18463	-0.2141142	0.3641414	-0.3310338	0.2415003	-3.98147	2.874315	0	0
33.2012	-0.224168	0.3715194	-0.6068503	0.4453341	-8.324159	6.151715	0	0
33.21777	-0.2330801	0.3781128	-0.5379355	0.397977	2.079852	-1.42924	0	0
33.23433	-0.2463157	0.3879972	-0.7988978	0.5966246	-7.875858	5.995197	0	0
33.2509	-0.2529132	0.3929859	-0.3982261	0.3011167	12.09229	-8.918446	0	0
33.26755	-0.2659915	0.4028958	-0.785611	0.5952878	-11.6631	8.856688	0	0
33.28406	-0.2779069	0.4127406	-0.721705	0.5962916	1.927356	0.03027389	0	0
33.3006	-0.2825001	0.4178806	-0.2776987	0.3107541	13.43416	-8.639421	0	0
33.31717	-0.2898143	0.4287769	-0.4414809	0.6577035	-4.946944	10.4794	0	0
33.33373	-0.2913844	0.4384818	-0.09477176	0.5857882	10.4637	-2.170407	0	0
33.4	-0.2986358	0.4778976	-0.109424	0.5947853	-0.1768824	0.108613	0	0
33.41657	-0.2998852	0.4824808	-0.0754177	0.2766395	0.4105251	-3.840663	0	0
33.43314	-0.3014937	0.4918559	-0.09708871	0.5658819	-0.6540325	8.729354	0	0
33.4497	-0.302717	0.4989284	-0.07383829	0.426901	0.7016992	-4.194451	0	0
33.46627	-0.3040113	0.5084932	-0.0781214	0.5773299	-0.1292647	4.539951	0	0
33.48284	-0.3048496	0.5157323	-0.05059867	0.4369567	0.8306378	-4.23647	0	0
33.4994	-0.3057114	0.5226728	-0.05201798	0.4189248	-0.04283485	-0.5442037	0	0
33.51623	-0.3055438	0.5321911	0.009957351	0.5656703	1.85589	4.394385	0	0
33.53275	-0.3056396	0.5391557	-0.005798467	0.4217415	-0.4725736	-4.316944	0	0
33.54925	-0.3064052	0.5483249	-0.04638751	0.5555018	-1.229225	4.050887	0	0
33.58244	-0.3079832	0.5598239	-0.04754759	0.3464835	-0.02334454	-4.206103	0	0
33.59929	-0.30827	0.565035	-0.01702262	0.3093439	0.6100899	-0.7422935	0	0
33.6158	-0.3094642	0.5695179	-0.07233241	0.2715205	-1.658181	-1.133941	0	0
33.63231	-0.312684	0.5720004	-0.194975	0.1503306	-3.71376	-3.669769	0	0
33.6487	-0.3147793	0.5736563	-0.1277938	0.100999	2.041399	-1.499013	0	0
33.66527	-0.3165152	0.575	-0.1047807	0.08110753	0.6981548	-0.6034526	0	0
33.68184	-0.319056	0.5771179	-0.1533311	0.127802	-1.465086	1.40908	0	0
33.73154	-0.3135891	0.5818368	0.1100029	0.09495174	3.973717	-0.4957114	0	0
33.76467	-0.3140653	0.5838295	-0.01437194	0.0601468	-1.501594	-0.4202047	0	0
33.78124	-0.3158734	0.5879661	-0.1091357	0.249687	-1.906798	3.813849	0	0
33.79781	-0.3157307	0.59344	0.008611199	0.330406	3.55361	2.436104	0	0
33.81437	-0.3162537	0.597885	-0.0315702	0.2682981	-1.212677	-1.874419	0	0
33.83094	-0.3134939	0.6022989	0.1666229	0.2664851	5.982168	-0.05472438	0	0
33.8475	-0.3134939	0.6023359	0	0.002237797	-5.029267	-7.975917	0	0
33.86447	-0.3134939	0.6023359	0	0	0	-0.06673776	0	0
33.88098	-0.3134939	0.6023359	0	0	0	0	0	0
33.8972	-0.3135653	0.6024287	-0.004403142	0.005720227	-0.1345131	0.1747492	0	0
33.91401	-0.3136129	0.6024659	-0.002834137	0.002209847	0.04750579	-0.1062861	0	0
33.93052	-0.3137082	0.6025772	-0.00576912	0.006743877	-0.08810122	0.1361009	0	0
33.94703	-0.313732	0.6025958	-0.001440475	0.001126386	0.1310915	-0.1701238	0	0
33.96347	-0.313732	0.6025958	0	0	0.04371519	-0.03418331	0	0
33.98005	-0.313732	0.6025958	0	0	0	0	0	0
33.9966	-0.313732	0.6025958	0	0	0	0	0	0
34.01317	-0.313732	0.6025958	0	0	0	0	0	0
34.02974	-0.313732	0.6025958	0	0	0	0	0	0
34.0463	-0.3137082	0.6025772	0.0014355	-0.001122496	0.04332346	-0.033877	0	0
34.06287	-0.3137082	0.6025772	0	0	-0.04332346	0.033877	0	0
34.07962	-0.3137082	0.6025772	0	0	0	0	0	0
34.096	-0.3137082	0.6025772	0	0	0	0	0	0
34.11257	-0.3136844	0.6025587	0.001437298	-0.001118898	0.04362385	-0.03396	0	0
34.12914	-0.3136844	0.6025587	0	0	-0.04337775	0.03376842	0	0
34.14571	-0.3136844	0.6025587	0	0	0	0	0	0
34.16227	-0.3136844	0.6025587	0	0	0	0	0	0
34.1792	-0.3136844	0.6025587	0	0	0	0	0	0
34.19911	-0.3136844	0.6025587	0	0	0	0	0	0
34.21573	-0.3136606	0.6025401	0.001433009	-0.001119146	0.03922877	-0.03063674	0	0
34.23225	-0.3136606	0.6025401	0	0	-0.0432483	0.03377589	0	0
34.24881	-0.3136606	0.6025401	0	0	0	0	0	0
34.26538	-0.3136367	0.6025215	0.001437298	-0.001118898	0.04337775	-0.03376842	0	0
34.28195	-0.3136129	0.602503	0.001437298	-0.001118898	0	0	0	0
34.29852	-0.3136129	0.602503	0	0	-0.04337775	0.03376842	0	0
34.31508	-0.3136129	0.602503	0	0	0	0	0	0
34.33165	-0.3135891	0.6024844	0.001437298	-0.001122496	0.04337775	-0.033877	0	0
34.34822	-0.3135653	0.6024659	0.001437298	-0.001118898	0	0.0001085788	0	0
34.36478	-0.3135653	0.6024659	0	0	-0.04337775	0.03376842	0	0
34.38135	-0.3135415	0.6024473	0.001437298	-0.001122496	0.04337775	-0.033877	0	0
34.39792	-0.3135177	0.6024287	0.001437298	-0.001118898	0	0.0001085788	0	0
34.41449	-0.3134939	0.6024102	0.001437298	-0.001118898	0	0	0	0
34.43105	-0.3134939	0.6024102	0	0	-0.04337775	0.03376842	0	0
34.44762	-0.3134701	0.6023916	0.001437298	-0.001122496	0.04337775	-0.033877	0	0
34.46419	-0.3134701	0.6023916	0	0	-0.04337775	0.033877	0	0
34.48092	-0.3134463	0.6023731	0.001423207	-0.001107929	0.04274089	-0.03327264	0	0
34.49732	-0.3134224	0.6023545	0.001451671	-0.001130087	0.0008590491	-0.0006687446	0	0
34.51394	-0.3133986	0.6023359	0.001434473	-0.001118889	-0.0005207835	0.0003390881	0	0
34.53046	-0.3133748	0.6023174	0.001441614	-0.001122258	0.0002154779	-0.0001016456	0	0
34.54702	-0.3133272	0.6022803	0.002875259	-0.00224191	0.04333735	-0.03384574	0	0
34.56359	-0.3132319	0.6021689	0.005749194	-0.006720585	0.08674551	-0.1351822	0	0
34.58016	-0.3129937	0.6019834	0.01437838	-0.01119978	0.2604294	-0.1351822	0	0
34.59673	-0.3129461	0.6019091	0.002874597	-0.004482788	-0.3471849	0.2027191	0	0
34.61352	-0.3122074	0.6011855	0.04398746	-0.04309121	1.232417	-1.157343	0	0
34.62986	-0.3092493	0.5982927	0.1810115	-0.177014	4.135393	-4.041799	0	0
34.64643	-0.3068836	0.5956432	0.1427944	-0.1599233	-1.16128	0.519327	0	0
34.66305	-0.3029328	0.5895556	0.2376484	-0.3661872	2.857764	-6.214325	0	0
34.67957	-0.2996931	0.5842171	0.1961842	-0.323274	-1.25125	1.294974	0	0
34.69613	-0.2923257	0.578426	0.4449004	-0.3497106	7.520123	-0.7993314	0	0
34.71309	-0.2861854	0.5733067	0.3620459	-0.3018444	-2.471809	1.428002	0	0
34.72926	-0.2822331	0.5657145	0.2443507	-0.4693986	-3.55205	-5.056797	0	0
34.74611	-0.2824516	0.5512149	-0.01296482	-0.8605317	-7.791811	-11.84397	0	0
34.76239	-0.2823545	0.5476301	0.005962315	-0.2201299	0.5712222	19.32737	0	0
34.77913	-0.2807518	0.5334665	0.09574942	-0.84615	2.718858	-18.95662	0	0
34.79552	-0.2791718	0.5268563	0.09638628	-0.4032646	0.01922293	13.36785	0	0
34.82917	-0.2682928	0.4976797	0.323341	-0.8671733	4.535702	-9.271241	0	0
34.8455	-0.2645701	0.4881692	0.2279567	-0.5823716	-1.908587	5.69873	0	0
34.86219	-0.2593408	0.4758416	0.3132641	-0.7384812	2.583206	-4.72718	0	0
34.8787	-0.2564375	0.4704341	0.175848	-0.3275293	-4.138649	12.3769	0	0
34.89522	-0.248814	0.4572027	0.4616458	-0.8012297	8.654289	-14.3442	0	0
34.91177	-0.244285	0.4529052	0.2736185	-0.25964	-5.686462	16.37915	0	0
34.92834	-0.2366644	0.447424	0.4599832	-0.3308431	5.62709	-2.149902	0	0
34.9449	-0.2278172	0.4410487	0.5340158	-0.3848164	2.234308	-1.628919	0	0
34.96177	-0.2220657	0.4369205	0.3411129	-0.2448353	-5.770666	4.187518	0	0
34.97828	-0.2149935	0.4318614	0.4283598	-0.3064258	2.614457	-1.845632	0	0
