Time	Pos X	Pos Y	Vel X	Vel Y	Acc X	Acc YForce X	Force Y
0.01658371	-0.1882445	0.3324247	0.003032668	-0.005355449	-4.887009E-05	8.630066E-05	0	0
0.05869512	-0.1882445	0.3324247	0	0	4.889026E-05	-8.633628E-05	0	0
0.07526501	-0.1882445	0.3324247	0	0	0	0	0	0
0.09183134	-0.1882445	0.3324247	0	0	0	0	0	0
0.1086491	-0.1882445	0.3324247	0	0	0	0	0	0
0.1249628	-0.1882445	0.3324247	0	0	0	0	0	0
0.14153	-0.1882445	0.3324247	0	0	0	0	0	0
0.1580963	-0.1882445	0.3324247	0	0	0	0	0	0
0.1746958	-0.1882445	0.3324247	0	0	0	0	0	0
0.1912294	-0.1882445	0.3324247	0	0	0	0	0	0
0.2077965	-0.1882445	0.3324247	0	0	0	0	0	0
0.2243628	-0.1882445	0.3324247	0	0	0	0	0	0
0.2409296	-0.1882445	0.3324247	0	0	0	0	0	0
0.2574963	-0.1882445	0.3324247	0	0	0	0	0	0
0.274063	-0.1882445	0.3324247	0	0	0	0	0	0
0.2906297	-0.1882445	0.3324247	0	0	0	0	0	0
0.3071965	-0.1882445	0.3324247	0	0	0	0	0	0
0.3238019	-0.1882445	0.3324247	0	0	0	0	0	0
0.3403303	-0.1882445	0.3324247	0	0	0	0	0	0
0.3568963	-0.1882445	0.3324247	0	0	0	0	0	0
0.373463	-0.1882445	0.3324247	0	0	0	0	0	0
0.3900297	-0.1882445	0.3324247	0	0	0	0	0	0
0.4065968	-0.1882445	0.3324247	0	0	0	0	0	0
0.4231636	-0.1882445	0.3324247	0	0	0	0	0	0
0.4397299	-0.1882445	0.3324247	0	0	0	0	0	0
0.4563969	-0.1882445	0.3324247	0	0	0	0	0	0
0.4729072	-0.1882445	0.3324247	0	0	0	0	0	0
0.4894301	-0.1882445	0.3324247	0	0	0	0	0	0
0.5118222	-0.1882445	0.3324247	0	0	0	0	0	0
0.5283902	-0.1882445	0.3324247	0	0	0	0	0	0
0.5449565	-0.1882445	0.3324247	0	0	0	0	0	0
0.5615233	-0.1882445	0.3324247	0	0	0	0	0	0
0.57809	-0.1882445	0.3324247	0	0	0	0	0	0
0.5949927	-0.1882445	0.3324247	0	0	0	0	0	0
0.6112231	-0.1882445	0.3324247	0	0	0	0	0	0
0.6280168	-0.1882445	0.3324247	0	0	0	0	0	0
0.6443566	-0.1882445	0.3324247	0	0	0	0	0	0
0.6610398	-0.1882445	0.3324247	0	0	0	0	0	0
0.6775512	-0.1882445	0.3324247	0	0	0	0	0	0
0.6940623	-0.1882445	0.3324247	0	0	0	0	0	0
0.7106235	-0.1882445	0.3324247	0	0	0	0	0	0
0.7271903	-0.1882445	0.3324247	0	0	0	0	0	0
0.7437566	-0.1882445	0.3324247	0	0	0	0	0	0
0.7606119	-0.1882445	0.3324247	0	0	0	0	0	0
0.7771218	-0.1882445	0.3324247	0	0	0	0	0	0
0.7934572	-0.1882445	0.3324247	0	0	0	0	0	0
0.8101447	-0.1882445	0.3324247	0	0	0	0	0	0
0.8265899	-0.1882445	0.3324247	0	0	0	0	0	0
0.8431689	-0.1882445	0.3324247	0	0	0	0	0	0
0.8597233	-0.1882445	0.3324247	0	0	0	0	0	0
0.8762901	-0.1882445	0.3324247	0	0	0	0	0	0
0.8928568	-0.1882445	0.3324247	0	0	0	0	0	0
0.9097157	-0.1882445	0.3324247	0	0	0	0	0	0
0.9259899	-0.1882445	0.3324247	0	0	0	0	0	0
0.9427402	-0.1882445	0.3324247	0	0	0	0	0	0
0.9591234	-0.1882445	0.3324247	0	0	0	0	0	0
0.9756901	-0.1882445	0.3324247	0	0	0	0	0	0
0.9922569	-0.1882445	0.3324247	0	0	0	0	0	0
1.008824	-0.1882445	0.3324247	0	0	0	0	0	0
1.02539	-0.1882445	0.3324247	0	0	0	0	0	0
1.041957	-0.1882445	0.3324247	0	0	0	0	0	0
1.058524	-0.1882445	0.3324247	0	0	0	0	0	0
1.075334	-0.1882445	0.3324247	0	0	0	0	0	0
1.091657	-0.1882445	0.3324247	0	0	0	0	0	0
1.108224	-0.1882445	0.3324247	0	0	0	0	0	0
1.124791	-0.1882445	0.3324247	0	0	0	0	0	0
1.141357	-0.1882445	0.3324247	0	0	0	0	0	0
1.157924	-0.1882445	0.3324247	0	0	0	0	0	0
1.17449	-0.1882445	0.3324247	0	0	0	0	0	0
1.22611	-0.1882445	0.3324247	0	0	0	0	0	0
1.242676	-0.1882445	0.3324247	0	0	0	0	0	0
1.259243	-0.1882445	0.3324247	0	0	0	0	0	0
1.27581	-0.1882445	0.3324247	0	0	0	0	0	0
1.292375	-0.1882191	0.3324068	0.001532793	-0.001077633	0.04626229	-0.03252478	0	0
1.308942	-0.1882191	0.3324068	0	0	-0.04626279	0.03252513	0	0
1.325509	-0.1882191	0.3324068	0	0	0	0	0	0
1.342076	-0.1882191	0.3324068	0	0	0	0	0	0
1.359033	-0.1882191	0.3324068	0	0	0	0	0	0
1.375209	-0.1882191	0.3324068	0	0	0	0	0	0
1.391775	-0.1882191	0.3324068	0	0	0	0	0	0
1.408343	-0.1882191	0.3324068	0	0	0	0	0	0
1.425079	-0.1882191	0.3324068	0	0	0	0	0	0
1.441476	-0.1881937	0.332389	0.001548584	-0.001088735	0.0467377	-0.03285902	0	0
1.458043	-0.1881937	0.332389	0	0	-0.04697839	0.03302824	0	0
1.474612	-0.1881937	0.332389	0	0	0	0	0	0
1.491176	-0.1881937	0.332389	0	0	0	0	0	0
1.507742	-0.1881937	0.3323533	0	-0.002155157	0	-0.06505001	0	0
1.524309	-0.1881937	0.3323533	0	0	0	0.06504533	0	0
1.540876	-0.1881937	0.3323533	0	0	0	0	0	0
1.557673	-0.1881683	0.3323354	0.001511646	-0.00106454	0.04530714	-0.03190643	0	0
1.574185	-0.1881683	0.3322997	0	-0.002162267	-0.04538221	-0.03295568	0	0
1.590697	-0.1881683	0.3322997	0	0	0	0.06547691	0	0
1.607208	-0.1881683	0.3322997	0	0	0	0	0	0
1.623721	-0.1881429	0.3322818	0.001538642	-0.00108111	0.04659203	-0.03273739	0	0
1.640276	-0.1881683	0.332264	-0.001534642	-0.0010783	-0.09293949	8.498552E-05	0	0
1.656843	-0.1881683	0.332264	0	0	0.04633244	0.03255499	0	0
1.673409	-0.1881683	0.332264	0	0	0	0	0	0
1.689976	-0.1881937	0.3322461	-0.001532716	-0.001079377	-0.04625979	-0.03257731	0	0
1.706781	-0.1881937	0.3322461	0	0	0.04592929	0.03234457	0	0
1.723109	-0.1881937	0.3321747	0	-0.004374886	0	-0.1320381	0	0
1.739803	-0.1881683	0.3321211	0.001521016	-0.003208058	0.04605995	0.03533432	0	0
1.756315	-0.1881683	0.3320854	0	-0.002164135	-0.04580646	0.03143847	0	0
1.77281	-0.1881937	0.3320675	-0.001539329	-0.001082228	-0.0466369	0.03277845	0	0
1.839076	-0.1882445	0.3317461	-0.0007663469	-0.004850382	0.009339842	-0.04553014	0	0
1.874923	-0.188473	0.3314068	-0.006375541	-0.009465414	-0.05493136	-0.04519544	0	0
1.891489	-0.18893	0.3310139	-0.02758649	-0.02371521	-0.4046889	-0.2718753	0	0
1.908056	-0.1940026	0.3274066	-0.3061885	-0.2177453	-8.408466	-5.856009	0	0
1.924623	-0.1960035	0.3259957	-0.1207744	-0.0851592	5.595908	4.001528	0	0
1.94119	-0.2045714	0.3198698	-0.5171846	-0.3697785	-11.96403	-8.590075	0	0
1.957963	-0.210795	0.3154581	-0.3710299	-0.2630143	4.383719	3.202252	0	0
1.974469	-0.2175039	0.3106528	-0.4064768	-0.2911379	-1.065141	-0.8450826	0	0
1.99089	-0.2215148	0.3077943	-0.2442523	-0.1740744	4.926914	3.555329	0	0
2.007492	-0.2231422	0.306633	-0.09802215	-0.06995017	4.428129	3.153082	0	0
2.024022	-0.2231422	0.306633	0	0	2.958474	2.111214	0	0
2.04105	-0.2231422	0.306633	0	0	0	0	0	0
2.057618	-0.2231422	0.306633	0	0	0	0	0	0
2.074184	-0.2231422	0.306633	0	0	0	0	0	0
2.091051	-0.2231422	0.306633	0	0	0	0	0	0
2.107318	-0.2231422	0.306633	0	0	0	0	0	0
2.123885	-0.2231422	0.306633	0	0	0	0	0	0
2.140451	-0.2231422	0.306633	0	0	0	0	0	0
2.157018	-0.2231422	0.306633	0	0	0	0	0	0
2.173584	-0.2231422	0.306633	0	0	0	0	0	0
2.190151	-0.2231422	0.306633	0	0	0	0	0	0
2.206718	-0.2231422	0.306633	0	0	0	0	0	0
2.223285	-0.2231422	0.306633	0	0	0	0	0	0
2.239851	-0.2231422	0.306633	0	0	0	0	0	0
2.256418	-0.2230921	0.3065973	0.003021205	-0.002156847	0.09118343	-0.06509612	0	0
2.27318	-0.2230421	0.3065258	0.002987028	-0.004263626	-0.001025449	-0.06321158	0	0
2.289551	-0.2227167	0.3062935	0.01987519	-0.01418824	0.5097079	-0.2995385	0	0
2.306203	-0.221615	0.3054716	0.06616194	-0.04935925	1.401677	-1.065065	0	0
2.322715	-0.21941	0.3038992	0.1335341	-0.09522409	2.031497	-1.38298	0	0
2.339251	-0.2186327	0.3033453	0.04700499	-0.03349878	-2.618236	1.867712	0	0
2.355818	-0.2171526	0.302291	0.08934084	-0.06363872	1.278922	-0.9104964	0	0
2.372385	-0.2149433	0.3007185	0.1333614	-0.094922	1.328581	-0.9441585	0	0
2.388952	-0.2138127	0.2999142	0.06824379	-0.04854256	-1.965281	1.399755	0	0
2.405518	-0.2131089	0.2994139	0.04248251	-0.03020523	-0.777505	0.5534415	0	0
2.422287	-0.2131089	0.2993781	0	-0.002130904	-1.274413	0.8421884	0	0
2.4388	-0.2130838	0.2992887	0.001522365	-0.005412654	0.045742	-0.09860564	0	0
2.455317	-0.2130586	0.2990922	0.001522872	-0.0119015	1.533545E-05	-0.1964556	0	0
2.471785	-0.216224	0.2964112	-0.1922069	-0.162791	-5.873189	-4.574426	0	0
2.488352	-0.2218404	0.2921569	-0.339017	-0.2567999	-4.444041	-2.845714	0	0
2.504919	-0.2278422	0.2874368	-0.3622816	-0.2849135	-0.7021468	-0.8484938	0	0
2.521485	-0.2318342	0.2786014	-0.2409631	-0.5333233	3.661505	-7.497238	0	0
2.538052	-0.2300387	0.2697255	0.1083811	-0.5357798	10.54368	-0.0741419	0	0
2.574399	-0.224143	0.2460764	0.1622029	-0.6506354	1.017158	-2.170611	0	0
2.590905	-0.222992	0.2347365	0.06973393	-0.6870188	-1.74953	-0.6883819	0	0
2.607223	-0.2223662	0.2194466	0.03835034	-0.9369941	-0.956116	-7.615615	0	0
2.62379	-0.2217402	0.2042021	0.03778549	-0.920189	-0.01717675	0.5110292	0	0
2.64044	-0.2215148	0.1933673	0.01353727	-0.6507375	-0.7300007	8.111925	0	0
2.656951	-0.2217903	0.1865626	-0.01668454	-0.4121298	-0.9113678	7.195447	0	0
2.673489	-0.2226416	0.1737655	-0.0514726	-0.7737857	-1.05261	-10.94291	0	0
2.690057	-0.2231422	0.1653288	-0.03021655	-0.509239	0.642068	7.990991	0	0
2.706623	-0.2243181	0.1581685	-0.07098282	-0.4322067	-1.230346	2.324875	0	0
2.72319	-0.2263933	0.149801	-0.1252636	-0.5050956	-1.638267	-2.199888	0	0
2.74001	-0.2306623	0.1458217	-0.253805	-0.2365794	-3.850106	8.042666	0	0
2.756323	-0.2337776	0.1435855	-0.1909628	-0.1370775	1.896634	3.00306	0	0
2.773034	-0.2375844	0.1407662	-0.2278077	-0.1687105	-1.115705	-0.9578854	0	0
2.789545	-0.2384294	0.1401476	-0.05117665	-0.03746535	5.316695	3.950554	0	0
2.806057	-0.2384045	0.1401294	0.001505263	-0.001101874	1.595281	1.101136	0	0
2.82259	-0.2383797	0.1401113	0.001502517	-0.001100524	-8.31141E-05	4.087359E-05	0	0
2.839157	-0.2383548	0.1400931	0.001500259	-0.001098211	-6.820392E-05	6.986048E-05	0	0
2.855723	-0.23833	0.1400748	0.001499446	-0.001099174	-2.454195E-05	-2.905683E-05	0	0
2.87229	-0.2375595	0.1395108	0.04650667	-0.03404912	1.358379	-0.9944744	0	0
2.888856	-0.2343005	0.1371264	0.196726	-0.1439315	4.533825	-3.316401	0	0
2.905423	-0.2283666	0.1327917	0.3581707	-0.2616414	4.872549	-3.552594	0	0
2.92199	-0.2236677	0.1293651	0.2836345	-0.206833	-2.249539	1.654144	0	0
2.938557	-0.2174287	0.1248233	0.3765984	-0.2741532	2.805736	-2.031786	0	0
2.955124	-0.2161989	0.1238926	0.07423134	-0.05618011	-9.125587	6.578537	0	0
2.97169	-0.2106188	0.119839	0.3368457	-0.244695	7.926116	-5.689678	0	0
2.988686	-0.2073198	0.1174456	0.1940973	-0.1408207	-4.253252	3.094981	0	0
3.004823	-0.2038901	0.1149595	0.2125423	-0.1540606	0.5566881	-0.3995908	0	0
3.02139	-0.2038648	0.1149412	0.001522745	-0.001103608	-6.452385	4.676994	0	0
3.037958	-0.2038648	0.1149412	0	0	-0.0459562	0.03330671	0	0
3.054733	-0.2038648	0.1149412	0	0	0	0	0	0
3.071246	-0.2038648	0.1149412	0	0	0	0	0	0
3.087656	-0.2038648	0.1149412	0	0	0	0	0	0
3.104224	-0.2038648	0.1149412	0	0	0	0	0	0
3.137357	-0.2038648	0.1149412	0	0	0	0	0	0
3.153923	-0.2038648	0.1149412	0	0	0	0	0	0
3.170492	-0.2038648	0.1149412	0	0	0	0	0	0
3.187057	-0.2038648	0.1149412	0	0	0	0	0	0
3.203838	-0.2038648	0.1149412	0	0	0	0	0	0
3.22035	-0.2038648	0.1149412	0	0	0	0	0	0
3.256668	-0.2038648	0.1149412	0	0	0	0	0	0
3.273387	-0.2038396	0.1149229	0.001509761	-0.001093997	0.02846584	-0.02062681	0	0
3.2899	-0.2038396	0.1149229	0	0	-0.04543065	0.03291978	0	0
3.30641	-0.2038396	0.1149229	0	0	0	0	0	0
3.322935	-0.2038396	0.1149229	0	0	0	0	0	0
3.339501	-0.2038396	0.1149229	0	0	0	0	0	0
3.356068	-0.2038143	0.1149046	0.001523688	-0.00110364	0.04598699	-0.03330935	0	0
3.372634	-0.2038143	0.1149046	0	0	-0.04598699	0.03330935	0	0
3.389201	-0.2038143	0.1149046	0	0	0	0	0	0
3.405767	-0.2038143	0.1149046	0	0	0	0	0	0
3.422335	-0.2038143	0.1149046	0	0	0	0	0	0
3.439004	-0.2038143	0.1148681	0	-0.002193704	0	-0.06600285	0	0
3.455516	-0.2038143	0.1148681	0	0	0	0.0661124	0	0
3.472034	-0.2038396	0.1148132	-0.001528175	-0.003320668	-0.04626589	-0.1005341	0	0
3.488601	-0.2039405	0.1147035	-0.006092954	-0.006622737	-0.1379718	-0.09980602	0	0
3.505168	-0.2041929	0.1145207	-0.01523239	-0.0110373	-0.2758365	-0.1332355	0	0
3.521734	-0.205883	0.1132587	-0.1020161	-0.07617137	-2.619212	-1.965807	0	0
3.538301	-0.2112982	0.1093246	-0.3268837	-0.2374787	-6.786812	-4.868475	0	0
3.555117	-0.217253	0.1048376	-0.3541032	-0.2668221	-0.8153719	-0.8789964	0	0
3.571599	-0.2245432	0.09920895	-0.4423307	-0.3415132	-2.649634	-2.243109	0	0
3.588001	-0.2282168	0.09397751	-0.223968	-0.3189512	6.640515	0.686121	0	0
3.604621	-0.2294399	0.08509761	-0.07359222	-0.5342772	4.553749	-6.520603	0	0
3.621134	-0.2290905	0.08082591	0.0211588	-0.2586929	2.859715	8.31751	0	0
3.637701	-0.2291404	0.07429965	-0.003012297	-0.3939373	-0.7306998	-4.088478	0	0
3.654267	-0.2290656	0.06493491	0.004518896	-0.565273	0.2272984	-5.171073	0	0
3.671168	-0.2289408	0.06180855	0.007384007	-0.1849804	0.08560808	11.36295	0	0
3.687401	-0.2275675	0.05945756	0.08459954	-0.1448326	2.330436	1.211699	0	0
3.753667	-0.2309117	0.05434351	-0.05046624	-0.07717387	-1.63718	0.8201153	0	0
3.770237	-0.2309117	0.05434351	0	0	0.6092279	0.9316421	0	0
3.786801	-0.2309117	0.05434351	0	0	0	0	0	0
3.803368	-0.2309117	0.05434351	0	0	0	0	0	0
3.819934	-0.2309117	0.05434351	0	0	0	0	0	0
3.836786	-0.2309117	0.05434351	0	0	0	0	0	0
3.853067	-0.2309117	0.05434351	0	0	0	0	0	0
3.869634	-0.2309117	0.05434351	0	0	0	0	0	0
3.888965	-0.2309366	0.05436205	-0.001289637	0.000959134	-0.03592555	0.02671869	0	0
3.905833	-0.2309366	0.05436205	0	0	0.03562623	-0.02649608	0	0
3.9221	-0.2309366	0.05436205	0	0	0	0	0	0
3.938666	-0.2309366	0.05436205	0	0	0	0	0	0
3.955236	-0.2309366	0.05436205	0	0	0	0	0	0
3.9718	-0.2309366	0.05436205	0	0	0	0	0	0
3.988392	-0.2309366	0.05436205	0	0	0	0	0	0
4.004932	-0.2309616	0.0543806	-0.00150813	0.001120962	-0.04551807	0.03383265	0	0
4.021917	-0.2309865	0.05439914	-0.00146775	0.001091601	0.001204476	-0.0008758081	0	0
4.038428	-0.2309865	0.05443622	0	0.002245939	0.04381941	0.03446256	0	0
4.054939	-0.2310364	0.05451038	-0.003020671	0.004491747	-0.09147602	0.06801061	0	0
4.0712	-0.2311361	0.0546587	-0.006134171	0.009121074	-0.0950047	0.1412583	0	0
4.087766	-0.2312109	0.05482556	-0.004515428	0.01007201	0.04931076	0.02896786	0	0
4.104335	-0.2317594	0.05538168	-0.03310268	0.03356495	-0.8627524	0.709008	0	0
4.1209	-0.2319838	0.05569679	-0.01354296	0.01902243	0.5903305	-0.4389066	0	0
4.137497	-0.2324324	0.05625279	-0.02702851	0.03349991	-0.4066553	0.4365667	0	0
4.154033	-0.2327563	0.05660489	-0.01958915	0.02129299	0.22453	-0.3684213	0	0
4.170599	-0.2334289	0.05717929	-0.0406008	0.034672	-0.634745	0.404169	0	0
4.187166	-0.2355947	0.05893904	-0.130735	0.1062219	-2.720333	2.159444	0	0
4.203733	-0.2359182	0.05947608	-0.01952282	0.03241638	3.356486	-2.22752	0	0
4.220299	-0.2385784	0.06179005	-0.1605828	0.1396794	-4.257383	3.237345	0	0
4.236867	-0.2435416	0.0658594	-0.2995692	0.2456197	-4.194677	3.197329	0	0
4.25358	-0.2517288	0.07300794	-0.4898636	0.4277198	-5.717834	5.471619	0	0
4.270092	-0.2571514	0.07913078	-0.3284179	0.3708242	4.859224	-1.712453	0	0
4.286567	-0.2598078	0.08336735	-0.1612363	0.2571479	5.06816	-3.446132	0	0
4.303133	-0.2630985	0.09245282	-0.198645	0.5484478	-1.13219	8.816315	0	0
4.3197	-0.2643004	0.09944744	-0.07254281	0.4221835	3.80588	-3.810774	0	0
4.336267	-0.2644475	0.1087571	-0.008879742	0.5619648	1.921383	4.218669	0	0
4.352833	-0.2633439	0.1156908	0.06661773	0.4185326	2.278617	-4.328979	0	0
4.3694	-0.2623378	0.1221036	0.06072986	0.3870847	-0.1777016	-0.9491264	0	0
4.385966	-0.2614048	0.1312609	0.05631872	0.5527725	-0.1331341	5.000682	0	0
4.402534	-0.2599307	0.1405479	0.08896887	0.5605304	0.9853835	0.2341339	0	0
4.435709	-0.2585047	0.1485839	0.04298604	0.2422329	-0.9244137	-6.398879	0	0
4.4688	-0.2566837	0.1603447	0.05503019	0.3554131	0.181757	1.707992	0	0
4.485367	-0.2565606	0.165836	0.007431139	0.3314574	-0.9585409	-0.4824161	0	0
4.501933	-0.2556001	0.1698744	0.05797737	0.243771	1.525532	-2.646456	0	0
4.5185	-0.2547624	0.1780882	0.05056594	0.4957968	-0.2236871	7.606482	0	0
4.535067	-0.2547378	0.179914	0.00148771	0.1102137	-1.481227	-11.63725	0	0
4.57831	-0.2449539	0.1937461	0.226251	0.3198663	3.757945	3.505299	0	0
4.594501	-0.2435168	0.1947924	0.08875456	0.06461763	-2.313396	-4.294592	0	0
4.611331	-0.2382554	0.1986514	0.3126222	0.2292933	6.779461	4.986929	0	0
4.627843	-0.2351468	0.2008685	0.1882635	0.1342754	-3.729805	-2.849806	0	0
4.644355	-0.2327064	0.2026706	0.1477992	0.1091408	-1.225322	-0.761115	0	0
4.660768	-0.2322579	0.2029589	0.02732798	0.01756468	-3.658998	-2.781385	0	0
4.677378	-0.2322579	0.2029589	0	0	-0.8275347	-0.5318865	0	0
4.693902	-0.2322579	0.202995	0	0.002181449	0	0.0658372	0	0
4.710469	-0.231884	0.2034454	0.02256595	0.02718815	0.6819347	0.7556934	0	0
4.727036	-0.2288409	0.2069399	0.1836952	0.2109406	4.863029	5.545821	0	0
4.743602	-0.2259434	0.2177022	0.1749027	0.6496496	-0.2653731	13.24102	0	0
4.760168	-0.2250184	0.2272833	0.05583749	0.5783544	-3.593601	-2.151817	0	0
4.776735	-0.2238678	0.2365496	0.06945014	0.5593294	0.4108482	-0.5741994	0	0
4.793302	-0.2225164	0.2420048	0.08157489	0.3292857	0.3659361	-6.942931	0	0
4.809868	-0.2194852	0.2514552	0.1829685	0.5704423	3.060154	7.278327	0	0
4.826484	-0.2121031	0.2570465	0.4442917	0.3365135	7.875415	-7.049839	0	0
4.843002	-0.2065385	0.2610055	0.3368822	0.2396763	-3.241717	-2.922638	0	0
4.859568	-0.2008597	0.2650349	0.3427885	0.2432323	0.1785199	0.1074826	0	0
4.876135	-0.1934451	0.2702446	0.4475623	0.3144644	3.162217	2.149884	0	0
4.892702	-0.1887269	0.2735377	0.2847966	0.1987793	-4.91242	-3.491486	0	0
4.909268	-0.1842546	0.2766155	0.26996	0.1857784	-0.4477826	-0.3923771	0	0
4.925835	-0.180437	0.2792991	0.2304349	0.1619877	-1.192903	-0.7180273	0	0
4.942402	-0.1747773	0.2833058	0.3416318	0.2418527	3.356025	2.4104	0	0
4.958969	-0.1698477	0.2867573	0.2975608	0.2083405	-1.330102	-1.011428	0	0
4.97559	-0.164756	0.2902797	0.3063346	0.211923	0.2643678	0.1079454	0	0
4.992102	-0.1627323	0.2917278	0.1225598	0.08770179	-5.546576	-3.749166	0	0
5.008668	-0.162758	0.29171	-0.001547074	-0.001077555	-3.751869	-2.683885	0	0
5.025235	-0.162758	0.29171	0	0	0.04669214	0.03252162	0	0
5.041804	-0.162758	0.29171	0	0	0	0	0	0
5.058369	-0.1627836	0.2917278	-0.001546353	0.001077679	-0.04667036	0.03252536	0	0
5.074935	-0.1627836	0.2917278	0	0	0.04667372	-0.0325277	0	0
5.091502	-0.1628092	0.2917457	-0.001547074	0.001079354	-0.04669281	0.03257638	0	0
5.108183	-0.1628092	0.2917457	0	0	0.04653075	-0.03246332	0	0
5.124696	-0.1627836	0.2917278	0.001552167	-0.001082907	0.04676038	-0.03262353	0	0
5.160583	-0.1628092	0.29171	-0.0007141908	-0.0004974422	-0.04325181	0.01117318	0	0
5.177149	-0.1628092	0.29171	0	0	0.01361569	0.009483486	0	0
5.193744	-0.1628092	0.29171	0	0	0	0	0	0
5.210283	-0.1628348	0.2916921	-0.001548716	-0.001081128	-0.04674101	-0.03262897	0	0
5.22685	-0.1628605	0.2916742	-0.001547119	-0.001079385	4.823525E-05	5.263785E-05	0	0
5.243416	-0.1628861	0.2916563	-0.001547119	-0.001079385	0	0	0	0
5.259983	-0.1628861	0.2916563	0	0	0.04669348	0.03257685	0	0
5.27655	-0.1629117	0.2916385	-0.00154613	-0.001079323	-0.0466623	-0.03257403	0	0
5.293116	-0.1629117	0.2916385	0	0	0.04666432	0.03257544	0	0
5.309683	-0.1629117	0.2916385	0	0	0	0	0	0
5.32625	-0.1629373	0.2916206	-0.001547074	-0.001079354	-0.04669214	-0.03257591	0	0
5.342849	-0.1629373	0.2916206	0	0	0.04664649	0.03254406	0	0
5.359383	-0.1629373	0.2916206	0	0	0	0	0	0
5.375949	-0.1629373	0.2916206	0	0	0	0	0	0
5.392517	-0.1629373	0.2916206	0	0	0	0	0	0
5.409398	-0.162963	0.2916027	-0.001517393	-0.001059262	-0.04536543	-0.03166872	0	0
5.42565	-0.162963	0.2916027	0	0	0.04579633	0.03196952	0	0
5.475443	-0.162963	0.2916027	0	0	0	0	0	0
5.491956	-0.162963	0.2916027	0	0	0	0	0	0
5.508483	-0.162963	0.2916027	0	0	0	0	0	0
5.52505	-0.1629886	0.2916206	-0.001547074	0.001079354	-0.04674865	0.03261534	0	0
5.541616	-0.1630142	0.2916385	-0.001546175	0.001079354	2.714548E-05	0	0	0
5.558502	-0.1630142	0.2916385	0	0	0.04621999	-0.03226526	0	0
5.57475	-0.1630398	0.2916563	-0.001577449	0.001100546	-0.04760887	0.0332155	0	0
5.591317	-0.1630398	0.2916921	0	0.002158708	0.0480717	0.03224679	0	0
5.607883	-0.1630654	0.29171	-0.001546219	0.001079385	-0.046667	-0.03257544	0	0
5.624549	-0.1632448	0.2918351	-0.01076119	0.007508512	-0.2772862	0.1934579	0	0
5.64106	-0.1657802	0.2936407	-0.1535578	0.1093542	-4.304037	3.069735	0	0
5.657583	-0.1712022	0.29743	-0.3281629	0.229347	-5.285717	3.632472	0	0
5.67415	-0.1791378	0.3029879	-0.4790075	0.3354848	-4.558731	3.20763	0	0
5.690717	-0.1829827	0.305686	-0.2320742	0.1628572	7.452566	-5.209986	0	0
5.707284	-0.1887269	0.3097238	-0.3467253	0.2437201	-3.460177	2.440447	0	0
5.72412	-0.1914422	0.3116353	-0.1612754	0.1135366	5.551828	-3.897315	0	0
5.740417	-0.1917973	0.3118854	-0.02178731	0.01534658	4.209941	-2.963508	0	0
5.756984	-0.191848	0.3119211	-0.003060868	0.002156909	0.569823	-0.4013456	0	0
5.773655	-0.1921016	0.3120998	-0.01521116	0.01071521	-0.3655549	0.2574858	0	0
5.790117	-0.1941546	0.3135467	-0.1247122	0.08789538	-3.304842	2.329369	0	0
5.806684	-0.1952692	0.3143327	-0.06727421	0.04744165	1.738986	-1.224774	0	0
5.82369	-0.1959528	0.314815	-0.04020248	0.02836018	0.8063505	-0.568355	0	0
5.860217	-0.1959528	0.314815	0	0	0.7509906	-0.529774	0	0
5.876729	-0.1959528	0.314815	0	0	0	0	0	0
5.893296	-0.1959528	0.314815	0	0	0	0	0	0
5.909863	-0.1959781	0.3147972	-0.001528186	-0.001077555	-0.04612206	-0.03252162	0	0
5.926764	-0.1959781	0.3147972	0	0	0.04566141	0.0321968	0	0
5.942996	-0.1959528	0.3147793	0.0015597	-0.001101613	0.04707387	-0.03324817	0	0
5.959565	-0.1959528	0.3147793	0	0	-0.04755016	0.03358458	0	0
5.976129	-0.1959781	0.3147614	-0.001528405	-0.00107771	-0.0461287	-0.0325263	0	0
5.99281	-0.1959781	0.3147614	0	0	0.04597322	0.03241666	0	0
6.009323	-0.1959781	0.3147257	0	-0.002163948	0	-0.0651908	0	0
6.025834	-0.1960035	0.3147078	-0.001533394	-0.001081227	-0.04643361	0.0327865	0	0
6.042396	-0.1960035	0.3147078	0	0	0.04636465	0.03269267	0	0
6.058962	-0.1960288	0.31469	-0.001528186	-0.001079354	-0.0461287	-0.0325806	0	0
6.075531	-0.1961047	0.3146364	-0.004584161	-0.003234185	-0.09222818	-0.06503201	0	0
6.139428	-0.1961047	0.3146364	0	0	0.0569703	0.04019329	0	0
6.155927	-0.1961047	0.3146364	0	0	0	0	0	0
6.172494	-0.1961047	0.3146364	0	0	0	0	0	0
6.189061	-0.1961047	0.3146364	0	0	0	0	0	0
6.205627	-0.1961047	0.3146364	0	0	0	0	0	0
6.222195	-0.1961047	0.3146364	0	0	0	0	0	0
6.238984	-0.1961047	0.3146364	0	0	0	0	0	0
6.255327	-0.1961047	0.3146364	0	0	0	0	0	0
6.271894	-0.1961047	0.3146364	0	0	0	0	0	0
6.28846	-0.1961047	0.3146364	0	0	0	0	0	0
6.305028	-0.1961047	0.3146364	0	0	0	0	0	0
6.321594	-0.1961047	0.3146364	0	0	0	0	0	0
6.371577	-0.1961301	0.3146185	-0.0005065134	-0.0003571531	-0.00761121	-0.005366821	0	0
6.38786	-0.1961301	0.3146185	0	0	0.007643577	0.005389644	0	0
6.404426	-0.1961301	0.3146185	0	0	0	0	0	0
6.420993	-0.1961301	0.3146185	0	0	0	0	0	0
6.43756	-0.1961301	0.3146185	0	0	0	0	0	0
6.454136	-0.1961301	0.3146185	0	0	0	0	0	0
6.470694	-0.1961301	0.3146185	0	0	0	0	0	0
6.48726	-0.1961301	0.3146185	0	0	0	0	0	0
6.503827	-0.1961301	0.3146185	0	0	0	0	0	0
6.520392	-0.1961301	0.3146185	0	0	0	0	0	0
6.536959	-0.1961301	0.3146185	0	0	0	0	0	0
6.557796	-0.1961301	0.3146185	0	0	0	0	0	0
6.574363	-0.1961301	0.3146185	0	0	0	0	0	0
6.59093	-0.1961301	0.3146185	0	0	0	0	0	0
6.607497	-0.1961301	0.3146185	0	0	0	0	0	0
6.624063	-0.1961301	0.3146185	0	0	0	0	0	0
6.64063	-0.1961301	0.3146185	0	0	0	0	0	0
6.657197	-0.1961301	0.3146185	0	0	0	0	0	0
6.673764	-0.1961301	0.3146185	0	0	0	0	0	0
6.690331	-0.1961301	0.3146185	0	0	0	0	0	0
6.706897	-0.1961301	0.3146185	0	0	0	0	0	0
6.723464	-0.1961301	0.3146185	0	0	0	0	0	0
6.74003	-0.1961301	0.3146185	0	0	0	0	0	0
6.756597	-0.1961301	0.3146185	0	0	0	0	0	0
6.773164	-0.1961301	0.3146185	0	0	0	0	0	0
6.789734	-0.1961301	0.3146185	0	0	0	0	0	0
6.806297	-0.1961301	0.3146185	0	0	0	0	0	0
6.822896	-0.1961301	0.3146185	0	0	0	0	0	0
6.83943	-0.1961301	0.3146185	0	0	0	0	0	0
6.855997	-0.1961301	0.3146185	0	0	0	0	0	0
6.872564	-0.1961301	0.3146185	0	0	0	0	0	0
6.889443	-0.1961301	0.3146185	0	0	0	0	0	0
6.905954	-0.1961301	0.3146185	0	0	0	0	0	0
6.922469	-0.1961301	0.3146185	0	0	0	0	0	0
6.938979	-0.1961301	0.3146185	0	0	0	0	0	0
6.955492	-0.1961301	0.3146185	0	0	0	0	0	0
6.971964	-0.1961301	0.3146185	0	0	0	0	0	0
6.988531	-0.1961301	0.3146185	0	0	0	0	0	0
7.005097	-0.1961301	0.3146185	0	0	0	0	0	0
7.021664	-0.1961301	0.3146185	0	0	0	0	0	0
7.038231	-0.1961301	0.3146185	0	0	0	0	0	0
7.054797	-0.1961301	0.3146185	0	0	0	0	0	0
7.071364	-0.1961301	0.3146185	0	0	0	0	0	0
7.087932	-0.1961301	0.3146185	0	0	0	0	0	0
7.104594	-0.1961301	0.3146185	0	0	0	0	0	0
7.121107	-0.1961301	0.3146185	0	0	0	0	0	0
7.137631	-0.1961301	0.3146185	0	0	0	0	0	0
7.154197	-0.1961554	0.3146364	-0.00152823	0.001077586	-0.04618387	0.0325652	0	0
7.174565	-0.1961554	0.3146364	0	0	0.04137689	-0.0291757	0	0
7.191157	-0.1961807	0.3146543	-0.001525902	0.001077741	-0.04128561	0.02915994	0	0
7.207699	-0.1961807	0.3146543	0	0	0.04605247	-0.03252676	0	0
7.224266	-0.1962313	0.31469	-0.003056371	0.00215511	-0.09231187	0.06509101	0	0
7.240833	-0.1962566	0.3147078	-0.001528142	0.001079323	0.04612272	-0.0324678	0	0
7.2574	-0.1965351	0.3149043	-0.01680783	0.01186064	-0.4611551	0.3253903	0	0
7.273966	-0.197345	0.3154759	-0.04888715	0.03450435	-0.9682117	0.6834276	0	0
7.290534	-0.1977245	0.3157439	-0.02290797	0.01617139	0.7840645	-0.5532976	0	0
7.307239	-0.1977751	0.3157796	-0.003028308	0.002138993	0.5974674	-0.4217325	0	0
7.323667	-0.1978257	0.3158153	-0.003080462	0.002173377	-0.001574074	0.001037734	0	0
7.340262	-0.1979269	0.3158868	-0.006097539	0.004306258	-0.0913619	0.06458704	0	0
7.3568	-0.1979775	0.3159225	-0.003060033	0.002158963	0.09167607	-0.06480828	0	0
7.373366	-0.1979775	0.3159225	0	0	0.09243711	-0.0652177	0	0
7.390298	-0.1980028	0.3159404	-0.001493459	0.00105607	-0.04458252	0.03152565	0	0
7.406499	-0.1980028	0.3159404	0	0	0.04507464	-0.03187364	0	0
7.423066	-0.1980534	0.3159761	-0.003054572	0.002156909	-0.09321879	0.06582411	0	0
7.439634	-0.1980787	0.3159939	-0.001526299	0.001077493	0.04612338	-0.03257684	0	0
7.45622	-0.1981799	0.3160654	-0.00610122	0.004307061	-0.137992	0.09741247	0	0
7.472766	-0.1983822	0.3162083	-0.01222947	0.008636278	-0.1849617	0.1306636	0	0
7.489333	-0.1997477	0.3171371	-0.08242218	0.05606525	-2.119762	1.432316	0	0
7.5059	-0.2046218	0.3205128	-0.2942121	0.2037659	-6.392017	4.457742	0	0
7.522468	-0.2124803	0.3259779	-0.4743272	0.3298622	-5.435884	3.805595	0	0
7.539034	-0.2178803	0.3297817	-0.325959	0.2296122	4.477826	-3.025594	0	0
7.555601	-0.2244182	0.3343711	-0.3946407	0.277027	-2.072905	1.431044	0	0
7.572167	-0.2290406	0.3376747	-0.2790256	0.1994164	3.489421	-2.342395	0	0
7.588734	-0.2323825	0.3400319	-0.2017241	0.1422823	2.333064	-1.724387	0	0
7.6053	-0.2381063	0.3440676	-0.3454986	0.2436048	-4.339247	3.058009	0	0
7.621962	-0.2411112	0.3462284	-0.1803522	0.1296865	4.970107	-3.428392	0	0
7.638434	-0.2433681	0.347782	-0.1370133	0.0943172	1.308009	-1.067478	0	0
7.655	-0.2459691	0.3496213	-0.1570074	0.1110292	-0.6051722	0.5058311	0	0
7.688509	-0.2470333	0.3503178	-0.03175918	0.02078531	2.501233	-1.802189	0	0
7.705022	-0.247256	0.3501571	-0.01348413	-0.00973297	0.365343	-0.6101013	0	0
7.721532	-0.2474539	0.3500142	-0.01198681	-0.00865368	0.04534118	0.03268263	0	0
7.737842	-0.247627	0.3498892	-0.01061614	-0.007663353	0.04176298	0.03017428	0	0
7.754401	-0.2479239	0.3498535	-0.01792373	-0.002157903	-0.2223226	0.167495	0	0
7.771068	-0.2484679	0.3500678	-0.03264119	0.01285871	-0.4429563	0.4519599	0	0
7.78758	-0.24916	0.3503892	-0.04191875	0.01946763	-0.279627	0.1991939	0	0
7.804101	-0.2559204	0.3537109	-0.4091967	0.2010582	-11.11855	5.497264	0	0
7.840617	-0.2723497	0.362391	-0.44992	0.237704	-0.7678267	0.6909468	0	0
7.856929	-0.2765436	0.3654633	-0.2570922	0.1883404	3.650051	-0.934408	0	0
7.873495	-0.2805574	0.3684108	-0.2422966	0.1779274	0.4500121	-0.3167131	0	0
7.890063	-0.2852648	0.3718767	-0.2841308	0.2091974	-1.262596	0.9437575	0	0
7.906629	-0.2909497	0.3760756	-0.3431617	0.2534612	-1.781582	1.335905	0	0
7.923195	-0.2938935	0.3782915	-0.1776956	0.1337556	4.994066	-3.612931	0	0
7.939762	-0.2974334	0.3809186	-0.2136859	0.1585815	-1.086252	0.749289	0	0
7.956331	-0.2987079	0.3818658	-0.07691409	0.05716891	4.127603	-3.060505	0	0
7.972896	-0.2990203	0.3820982	-0.01886263	0.01402823	1.752022	-1.302007	0	0
7.989462	-0.2990203	0.3820982	0	0	0.5693408	-0.4234214	0	0
8.006029	-0.2990203	0.3820982	0	0	0	0	0	0
8.022745	-0.2990203	0.3820982	0	0	0	0	0	0
8.039163	-0.2990203	0.3820982	0	0	0	0	0	0
8.055729	-0.2990684	0.3821339	-0.002901747	0.002156971	-0.08797497	0.06539492	0	0
8.072295	-0.2991645	0.3822054	-0.005801695	0.004315742	-0.08752565	0.06515557	0	0
8.088862	-0.2993087	0.3823127	-0.008702941	0.00647234	-0.08756229	0.06508815	0	0
8.171695	-0.3208108	0.3984231	-0.2595859	0.1944943	-2.523985	1.891578	0	0
8.188361	-0.3249997	0.4015896	-0.2513358	0.1899963	0.08291709	-0.0452071	0	0
8.204872	-0.3256848	0.4021085	-0.0414988	0.03142689	6.3247	-4.779444	0	0
8.221395	-0.3257793	0.4021801	-0.005717893	0.004332612	1.083175	-0.8202094	0	0
8.238397	-0.3280923	0.4039337	-0.1360413	0.1031383	-3.887406	2.947268	0	0
8.254528	-0.3309666	0.406117	-0.1781814	0.1353458	-1.271827	0.9720531	0	0
8.271095	-0.3377762	0.411344	-0.4110296	0.3155023	-7.12104	5.509603	0	0
8.287662	-0.3411689	0.4139403	-0.2047953	0.1567249	6.224341	-4.792049	0	0
8.304229	-0.3457187	0.4174328	-0.2746212	0.2108062	-2.107408	1.632222	0	0
8.320796	-0.3522487	0.4224673	-0.3941562	0.3038816	-3.607574	2.809022	0	0
8.337361	-0.3561379	0.4254783	-0.2347798	0.1817645	4.810266	-3.685713	0	0
8.353929	-0.3597393	0.4283108	-0.2173793	0.1709702	0.5251794	-0.3257935	0	0
8.370495	-0.3645719	0.4321484	-0.2917146	0.2316522	-2.243511	1.831441	0	0
8.387062	-0.3681962	0.4349827	-0.2187626	0.1710781	2.201761	-1.828184	0	0
8.403628	-0.3705306	0.4368488	-0.1409101	0.1126428	2.349659	-1.76363	0	0
8.420526	-0.3765755	0.4416052	-0.3577488	0.2814952	-6.479861	5.045868	0	0
8.437037	-0.3789855	0.4435085	-0.1459615	0.1152728	6.339389	-4.975499	0	0
8.453549	-0.3845153	0.4479271	-0.3348812	0.2675841	-5.720709	4.612162	0	0
8.469895	-0.3866617	0.44967	-0.1313083	0.1066256	6.195375	-4.898484	0	0
8.486462	-0.3897054	0.452276	-0.1837257	0.1573078	-1.592641	1.539919	0	0
8.503028	-0.3947836	0.4564114	-0.3065436	0.2496276	-3.706863	2.786377	0	0
8.519596	-0.3987683	0.4596493	-0.2405007	0.1954272	1.993178	-1.635773	0	0
8.536161	-0.4035189	0.4635185	-0.2867804	0.2335726	-1.396763	1.151265	0	0
8.552728	-0.4063867	0.465841	-0.1731118	0.1401941	3.43082	-2.818411	0	0
8.569294	-0.4071414	0.4664532	-0.04555545	0.03695815	3.84988	-3.115848	0	0
8.606184	-0.4071414	0.4664532	0	0	0.8521997	-0.6913711	0	0
8.62275	-0.4071192	0.4664712	0.001338438	0.001086581	0.02503797	0.02032653	0	0
8.639318	-0.4071192	0.4664712	0	0	-0.04039529	-0.03279402	0	0
8.655884	-0.4071192	0.4664712	0	0	0	0	0	0
8.67245	-0.407097	0.4664532	0.001340237	-0.001086581	0.04045075	-0.03279497	0	0
8.689215	-0.407097	0.4664532	0	0	-0.04021001	0.0325998	0	0
8.705585	-0.407097	0.4664532	0	0	0	0	0	0
8.722151	-0.4070527	0.4664892	0.002678674	0.002173162	0.08132944	0.06598116	0	0
8.73875	-0.4069861	0.4665433	0.00401106	0.003255171	0.04017448	0.03262505	0	0
8.755284	-0.4069195	0.4666333	0.00402656	0.005445049	0.0004678044	0.06609254	0	0
8.771852	-0.4069195	0.4668854	0	0.01521846	-0.1216409	0.295251	0	0
8.788418	-0.4074964	0.4675338	-0.03482277	0.03913851	-1.050983	0.7219294	0	0
8.804984	-0.4124546	0.4716775	-0.2992955	0.2501259	-7.982263	6.367979	0	0
8.82155	-0.4157408	0.4744713	-0.1983694	0.1686485	3.046131	-2.459134	0	0
8.838117	-0.4219344	0.4795934	-0.3738649	0.3091845	-5.296768	4.241628	0	0
8.85483	-0.4254988	0.4825349	-0.2132668	0.1760021	4.825748	-4.001943	0	0
8.871342	-0.4254988	0.4825349	0	0	6.418853	-5.297271	0	0
8.887853	-0.4254988	0.4825349	0	0	0	0	0	0
8.904383	-0.4254988	0.4825349	0	0	0	0	0	0
8.987214	-0.424931	0.4820656	0.006854456	-0.005665693	0.06898508	-0.05702106	0	0
9.003936	-0.4245159	0.4817227	0.02482498	-0.02050837	0.180512	-0.149093	0	0
9.020348	-0.4242099	0.4814339	0.01864213	-0.01759435	-0.1866041	0.08794768	0	0
9.036914	-0.424188	0.4814159	0.001320448	-0.00108838	-0.5252489	0.5005138	0	0
9.053482	-0.424188	0.4813798	0	-0.002180107	-0.0398512	-0.03294839	0	0
9.070048	-0.4241662	0.4813617	0.001318649	-0.00108838	0.0397969	0.03294839	0	0
9.086615	-0.4241444	0.4813437	0.001318649	-0.001090179	0	-5.429603E-05	0	0
9.103181	-0.4241225	0.4813257	0.001320448	-0.00108838	5.429603E-05	5.429603E-05	0	0
9.119747	-0.4241006	0.4813076	0.001318649	-0.001090179	-5.429603E-05	-5.429603E-05	0	0
9.136313	-0.4240788	0.4812896	0.001320448	-0.00108838	5.429603E-05	5.429603E-05	0	0
9.15288	-0.4240569	0.4812715	0.001318649	-0.001090179	-5.429603E-05	-5.429603E-05	0	0
9.169447	-0.424035	0.4812174	0.001320372	-0.00326855	5.200013E-05	-0.06574526	0	0
9.186062	-0.4239913	0.4811813	0.002631371	-0.002172182	0.03950918	0.03304091	0	0
9.202579	-0.4239039	0.4811091	0.005293736	-0.004369948	0.08035495	-0.06633254	0	0
9.221179	-0.4237508	0.4809828	0.008229503	-0.006792224	0.08359926	-0.06897702	0	0
9.237746	-0.4236633	0.4809106	0.005279689	-0.004356867	-0.08388081	0.06925172	0	0
9.254313	-0.4235978	0.4808564	0.003959544	-0.003266939	-0.03984318	0.03289504	0	0
9.27088	-0.423554	0.4808204	0.002640744	-0.002178434	-0.03980263	0.03285211	0	0
9.287632	-0.4235321	0.4808023	0.00130579	-0.001078077	-0.04006528	0.03302443	0	0
9.304146	-0.4235321	0.4808023	0	0	-0.0392529	0.03240771	0	0
9.32058	-0.4235321	0.4808023	0	0	0	0	0	0
9.337167	-0.4235321	0.4808023	0	0	0	0	0	0
9.353713	-0.4235321	0.4808023	0	0	0	0	0	0
9.370279	-0.4235321	0.4808023	0	0	0	0	0	0
9.386846	-0.4235321	0.4808023	0	0	0	0	0	0
9.403412	-0.4235103	0.4807843	0.001320448	-0.00108838	0.03985349	-0.03284927	0	0
9.419979	-0.4234884	0.4807662	0.001320372	-0.001090116	-2.29433E-06	-5.240068E-05	0	0
9.436545	-0.4234665	0.4807482	0.001320448	-0.00108838	2.29433E-06	5.240068E-05	0	0
9.453249	-0.4234228	0.4807121	0.002617399	-0.002160648	0.03898275	-0.03222939	0	0
9.469765	-0.4234228	0.4807121	0	0	-0.07879144	0.06504188	0	0
9.486273	-0.4234009	0.4806579	0.001325101	-0.003280257	0.0401256	-0.09932999	0	0
9.502813	-0.423379	0.4806399	0.001322503	-0.001090074	-7.860209E-05	0.06627151	0	0
9.51938	-0.4233353	0.4806038	0.002640896	-0.002178559	0.0398224	-0.03287797	0	0
9.536311	-0.4230946	0.4804053	0.01421335	-0.01172447	0.3454688	-0.2849712	0	0
9.552513	-0.4227226	0.4800986	0.02296155	-0.01893137	0.2640289	-0.2175108	0	0
9.56908	-0.4224818	0.4799001	0.01453308	-0.01198049	-0.2572069	0.2121162	0	0
9.585647	-0.4215401	0.4791243	0.05684582	-0.04683093	1.277038	-1.051819	0	0
9.602213	-0.4209922	0.4786372	0.03307416	-0.02940245	-0.7174715	0.5260227	0	0
9.618779	-0.4209922	0.4786372	0	0	-0.9982376	0.8874188	0	0
9.635346	-0.4209484	0.478565	0.00264614	-0.004355068	0.07986297	-0.13144	0	0
9.651913	-0.4208387	0.4784388	0.006616631	-0.007622258	0.1198331	-0.09860682	0	0
9.668479	-0.4207072	0.4782944	0.007940677	-0.008712437	0.03996209	-0.03290355	0	0
9.685045	-0.4199615	0.477609	0.04501576	-0.04137463	1.118993	-0.9858037	0	0
9.701612	-0.4148816	0.4734438	0.3066195	-0.2514139	7.895444	-6.339181	0	0
9.718186	-0.4098232	0.469281	0.3052013	-0.2511616	-0.04279193	0.00761309	0	0
9.751459	-0.4065644	0.4666333	0.09794455	-0.07957737	-4.157887	3.442242	0	0
9.767971	-0.3954113	0.4575625	0.6754541	-0.5493495	11.60015	-9.436081	0	0
9.784446	-0.3931007	0.4556381	0.1402496	-0.116809	-16.22489	13.1126	0	0
9.801013	-0.3886916	0.4520783	0.2661341	-0.2148698	3.809837	-2.967768	0	0
9.817579	-0.3837689	0.4481247	0.2971548	-0.2386521	0.9362327	-0.71777	0	0
9.836237	-0.3797575	0.4449452	0.2149979	-0.1704134	-2.332414	1.937278	0	0
9.852804	-0.377531	0.4431853	0.1343937	-0.1062288	-2.288272	1.822139	0	0
9.86937	-0.3774627	0.4431314	0.004119653	-0.003250748	-3.931792	3.107973	0	0
9.885937	-0.3774627	0.4431314	0	0	-0.1243385	0.09811343	0	0
9.902503	-0.3774627	0.4431314	0	0	0	0	0	0
9.919078	-0.37744	0.4431134	0.001371907	-0.00108422	0.04139591	-0.03271524	0	0
9.935636	-0.377349	0.4430416	0.005493319	-0.004337778	0.1243916	-0.09819821	0	0
9.952205	-0.3771216	0.4428262	0.01372741	-0.01300435	0.2485626	-0.2616178	0	0
9.968769	-0.3752094	0.441318	0.1154409	-0.09104943	3.069809	-2.355473	0	0
9.985336	-0.3714677	0.4383742	0.2258483	-0.177689	3.33239	-2.615012	0	0
10.0019	-0.3657888	0.4339242	0.3428181	-0.2686295	3.530357	-2.744748	0	0
10.01847	-0.3614673	0.4305522	0.260849	-0.2035351	-2.473974	1.964664	0	0
10.03504	-0.3572009	0.4271633	0.2575341	-0.2045651	-0.1000462	-0.0310845	0	0
10.05167	-0.3516226	0.4227719	0.3353141	-0.2639715	2.342616	-1.789233	0	0
10.06818	-0.3489062	0.4206754	0.1645128	-0.1269691	-5.152715	4.133074	0	0
10.08473	-0.3420567	0.4154088	0.4138415	-0.3182026	7.541032	-5.783923	0	0
10.1013	-0.3382681	0.412472	0.2286947	-0.1772782	-5.590636	4.255311	0	0
10.11821	-0.3343285	0.4094642	0.2329143	-0.1778251	0.1260312	-0.01633444	0	0
10.13443	-0.3304958	0.4064749	0.2363071	-0.1843046	0.102397	-0.1955578	0	0
10.15124	-0.3247869	0.4021443	0.3397189	-0.2577039	3.13143	-2.222614	0	0
10.16757	-0.3232025	0.4009455	0.09702776	-0.07341003	-7.324435	5.561999	0	0
10.18413	-0.315374	0.3950425	0.4725584	-0.3563302	11.41568	-8.600433	0	0
10.2008	-0.3124934	0.3928785	0.1728568	-0.1298536	-9.018796	6.815266	0	0
10.21729	-0.3100371	0.3910367	0.1489816	-0.1117122	-0.720183	0.5472249	0	0
10.23383	-0.3082939	0.3897314	0.1053409	-0.07887779	-1.321033	0.9939207	0	0
10.2504	-0.3065966	0.388462	0.1024552	-0.07662735	-0.08714145	0.0679595	0	0
10.26697	-0.3042748	0.3866921	0.1401528	-0.1068375	1.137779	-0.9117981	0	0
10.28383	-0.3000053	0.3835102	0.2531579	-0.1886698	3.380243	-2.447793	0	0
10.3001	-0.297674	0.3817765	0.1433041	-0.1065713	-3.315488	2.47781	0	0
10.31667	-0.294014	0.3790599	0.2209176	-0.1639708	2.363674	-1.748067	0	0
10.33337	-0.2931942	0.3784523	0.04909057	-0.03638427	-5.165088	3.835224	0	0
10.3498	-0.2932183	0.3784702	-0.001467196	0.001088155	-1.525924	1.130985	0	0
10.36639	-0.2931942	0.3784523	0.001453363	-0.001077896	0.08844301	-0.06559432	0	0
10.38293	-0.2931942	0.3784166	0	-0.002159956	-0.04386511	-0.03265851	0	0
10.3995	-0.293146	0.3783808	0.002910574	-0.002158646	0.08790457	3.955445E-05	0	0
10.41828	-0.2926876	0.3780055	0.02439934	-0.01997766	0.6078557	-0.504049	0	0
10.43485	-0.2883395	0.3747533	0.2624554	-0.1963037	6.733924	-4.987759	0	0
10.45145	-0.283034	0.370769	0.3196665	-0.2400664	1.725096	-1.319583	0	0
10.46799	-0.2774688	0.3665708	0.33652	-0.2538565	0.50864	-0.4161865	0	0
10.48455	-0.2733259	0.3634627	0.2500774	-0.1876169	-2.611249	2.000957	0	0
10.50148	-0.2668732	0.3584973	0.381106	-0.2932649	3.911559	-3.153877	0	0
10.518	-0.258849	0.3515857	0.4858529	-0.4184808	3.131701	-3.743681	0	0
10.53451	-0.2579389	0.3410676	0.05513071	-0.6371498	-13.04277	-6.62155	0	0
10.55082	-0.2596358	0.332014	-0.1040351	-0.5550744	-4.849837	2.500865	0	0
10.56754	-0.2621659	0.3198877	-0.151301	-0.7251372	-1.430852	-5.148213	0	0
10.58395	-0.2631721	0.3110458	-0.06131414	-0.5387865	2.715886	5.624239	0	0
10.60052	-0.2635892	0.2990207	-0.02517486	-0.7258793	1.09589	-5.673416	0	0
10.61708	-0.2625096	0.289797	0.06516968	-0.5567738	2.72676	5.103907	0	0
10.63365	-0.2611592	0.2810879	0.08151337	-0.5257127	0.493282	0.9374802	0	0
10.65022	-0.2604959	0.2705489	0.04003799	-0.6361734	-1.251801	-3.333902	0	0
10.6671	-0.2599553	0.2638889	0.03202141	-0.3944812	-0.2396647	7.225658	0	0
10.68361	-0.2594637	0.2602711	0.02977531	-0.2191146	-0.06726066	5.251461	0	0
10.69992	-0.2589228	0.254072	0.0331708	-0.3801556	0.1034647	-4.907118	0	0
10.71648	-0.2555262	0.2515269	0.2050274	-0.1536289	5.227871	6.890934	0	0
10.73315	-0.2514819	0.248551	0.2427326	-0.1786085	1.134744	-0.7517651	0	0
10.74962	-0.2487398	0.2465606	0.1664725	-0.1208323	-2.301602	1.743738	0	0
10.76618	-0.2412104	0.2411078	0.4545003	-0.3291549	8.718041	-6.305519	0	0
10.78275	-0.238156	0.2389007	0.1843655	-0.1332181	-8.152921	5.913554	0	0
10.83245	-0.2276924	0.2313968	0.2105329	-0.1509822	0.3948729	-0.2680641	0	0
10.84902	-0.2276174	0.2313429	0.004522624	-0.003252547	-3.108791	2.229309	0	0
10.86624	-0.2275925	0.2313609	0.001450108	0.00104259	-0.09093329	0.1271176	0	0
10.88225	-0.2275675	0.2313788	0.001559708	0.00112232	0.003297772	0.002399015	0	0
10.89872	-0.2275675	0.2313788	0	0	-0.04802304	-0.03455596	0	0
10.91529	-0.2275425	0.2314327	0.001508441	0.003251648	0.04566547	0.09843808	0	0
10.93185	-0.2275425	0.2314327	0	0	-0.04552745	-0.09814057	0	0
10.94842	-0.2274676	0.2314866	0.004522364	0.00325236	0.1364891	0.09815925	0	0
10.96531	-0.2274176	0.2315225	0.00295775	0.00212591	-0.04676119	-0.0336659	0	0
10.98182	-0.2272927	0.2316123	0.007563424	0.005438157	0.1378765	0.09915615	0	0
10.99812	-0.2272428	0.2316482	0.00306611	0.002203795	-0.1370825	-0.09858649	0	0
11.01468	-0.2272428	0.2316482	0	0	-0.09330343	-0.06706271	0	0
11.03125	-0.2272178	0.2317021	0.001507541	0.003252547	0.0455003	0.09816772	0	0
11.04787	-0.2271678	0.231738	0.00300629	0.002160799	0.04516215	-0.03289789	0	0
11.06439	-0.2269929	0.2318996	0.01058931	0.009786265	0.2288558	0.230137	0	0
11.09173	-0.226968	0.2319176	0.0009133157	0.00065665	-0.2206134	-0.208156	0	0
11.1083	-0.226943	0.2319355	0.001508354	0.00108472	0.01355072	0.009748368	0	0
11.12492	-0.226868	0.2319894	0.004508332	0.003240084	0.09038083	0.06493501	0	0
11.14143	-0.2266432	0.232151	0.01361964	0.009788526	0.2749641	0.197621	0	0
11.158	-0.2264433	0.2323306	0.01206802	0.01084097	-0.04691189	0.03181971	0	0
11.17456	-0.2262183	0.2324922	0.01357687	0.009754944	0.04554245	-0.03278023	0	0
11.19113	-0.2260934	0.2326179	0.007543103	0.007588078	-0.1821098	-0.06539991	0	0
11.2077	-0.2258934	0.2328334	0.01207022	0.01300659	0.1366367	0.1635405	0	0
11.22426	-0.2256685	0.2330668	0.01357878	0.01408966	0.04552972	0.0326881	0	0
11.24083	-0.2252434	0.2334439	0.02565519	0.02276064	0.3644771	0.261698	0	0
11.2574	-0.2225665	0.2356521	0.1615828	0.1332892	4.10242	3.335855	0	0
11.27396	-0.2173534	0.2401748	0.3146804	0.2730044	4.620628	4.216734	0	0
11.29054	-0.2131089	0.2445341	0.2560948	0.2630222	-1.76781	-0.3012113	0	0
11.3071	-0.2088818	0.2480131	0.2552677	0.2100907	-0.02496276	-1.59752	0	0
11.32366	-0.2024764	0.2525665	0.386652	0.2748591	3.966212	1.95522	0	0
11.34023	-0.1964338	0.2568494	0.3647494	0.2585326	-0.6610578	-0.4927654	0	0
11.3568	-0.1942559	0.2583902	0.131458	0.09300167	-7.040953	-4.995876	0	0
11.37336	-0.1905797	0.2609876	0.2219108	0.1567879	2.729951	1.925127	0	0
11.38993	-0.1901991	0.2612562	0.02297471	0.01621776	-6.004249	-4.242659	0	0
11.40662	-0.1901991	0.2612562	0	0	-0.6908529	-0.4876705	0	0
11.42306	-0.1902499	0.2612921	-0.003086397	0.00217842	-0.09315034	0.06574675	0	0
11.43964	-0.1903767	0.2613816	-0.007652071	0.005401568	-0.1382539	0.09760064	0	0
11.4562	-0.1905036	0.2615786	-0.007663974	0.01190193	-0.0003592366	0.1961871	0	0
11.47276	-0.1904782	0.2616324	0.001531739	0.003243366	0.2776391	-0.2614214	0	0
11.48933	-0.1904528	0.2616503	0.001531827	0.001081184	2.66325E-06	-0.06525666	0	0
11.50619	-0.1904528	0.2616861	0	0.002124696	-0.04582703	0.0312183	0	0
11.5227	-0.1904782	0.2617757	-0.001536782	0.005423405	-0.04604882	0.09884399	0	0
11.61328	-0.1986351	0.294302	-0.09005865	0.3591165	-0.8266414	3.302883	0	0
11.62984	-0.1998741	0.299396	-0.07478359	0.3074704	0.1425703	-0.4820414	0	0
11.64641	-0.2001521	0.3039528	-0.01678064	0.2750212	1.750432	-0.9792602	0	0
11.66298	-0.1983063	0.3066866	0.111426	0.1650277	3.869283	-3.319611	0	0
11.67954	-0.1960541	0.3082767	0.1359522	0.09598432	0.7402664	-2.083913	0	0
11.69611	-0.1928368	0.3105456	0.1941981	0.1369517	1.757917	1.236433	0	0
11.71268	-0.1912646	0.3116532	0.09490501	0.06686277	-2.996844	-2.11541	0	0
11.72924	-0.19129	0.3115996	-0.001530928	-0.003236357	-2.910694	-2.115778	0	0
11.74909	-0.19129	0.3115996	0	0	0.04204763	0.088888	0	0
11.76565	-0.1913154	0.3116175	-0.001531739	0.001079323	-0.04206881	0.02964332	0	0
11.78239	-0.1916197	0.3118318	-0.01818583	0.01280951	-0.5000883	0.3522334	0	0
11.7989	-0.1928875	0.312725	-0.07679185	0.05410216	-1.762898	1.242103	0	0
11.81535	-0.1989892	0.3170299	-0.3707965	0.2616071	-8.918771	6.294762	0	0
11.83192	-0.2039153	0.3205128	-0.2973409	0.2102287	2.224385	-1.555842	0	0
11.84849	-0.2090329	0.3240312	-0.3088969	0.2123712	-0.3487599	0.06465954	0	0
11.86505	-0.2094106	0.3242991	-0.02280021	0.01617099	8.634663	-5.921504	0	0
11.88162	-0.2095616	0.3244063	-0.009117057	0.006468371	0.4129585	-0.2928256	0	0
11.89819	-0.2095616	0.3244063	0	0	0.2751692	-0.195227	0	0
11.91498	-0.2095616	0.3244063	0	0	0	0	0	0
11.93149	-0.2095616	0.3244063	0	0	0	0	0	0
11.94801	-0.2095868	0.3243884	-0.001524962	-0.001082814	-0.0461723	-0.03278507	0	0
11.96445	-0.2095616	0.3243706	0.001531241	-0.00108546	0.09272479	-8.027939E-05	0	0
11.98103	-0.2095868	0.3243527	-0.001519609	-0.001077214	-0.09239929	0.0002497255	0	0
11.99759	-0.2095868	0.3243527	0	0	0.04586322	0.03251132	0	0
12.01415	-0.2095868	0.3243527	0	0	0	0	0	0
12.03072	-0.2095868	0.3243527	0	0	0	0	0	0
12.04757	-0.2095868	0.3243527	0	0	0	0	0	0
12.06385	-0.2095868	0.3243527	0	0	0	0	0	0
12.08042	-0.2095868	0.3243527	0	0	0	0	0	0
12.09699	-0.209612	0.3243348	-0.001520134	-0.001079385	-0.04587906	-0.03257685	0	0
12.11362	-0.209612	0.3243348	0	0	0.04578944	0.03251321	0	0
12.13013	-0.2096372	0.324317	-0.001524148	-0.001081071	-0.04598432	-0.03261647	0	0
12.16325	-0.2096623	0.3242991	-0.0007603297	-0.0005389792	0.01538902	0.01092179	0	0
12.17982	-0.2097127	0.3242634	-0.003039194	-0.002156847	-0.04586316	-0.03256031	0	0
12.19639	-0.2097127	0.3242634	0	0	0.09172833	0.06509753	0	0
12.21319	-0.2097379	0.3242455	-0.00149785	-0.001062418	-0.04488868	-0.03183933	0	0
12.2297	-0.2097379	0.3242455	0	0	0.04496321	0.0318922	0	0
12.24621	-0.2097379	0.3242455	0	0	0	0	0	0
12.26265	-0.2097379	0.3242455	0	0	0	0	0	0
12.27925	-0.2097379	0.3242455	0	0	0	0	0	0
12.29578	-0.2097631	0.3242277	-0.001522852	-0.001079513	-0.04596108	-0.03258069	0	0
12.31235	-0.2097631	0.3242277	0	0	0.04600213	0.03260979	0	0
12.32892	-0.2097631	0.3242277	0	0	0	0	0	0
12.34548	-0.2097631	0.3242277	0	0	0	0	0	0
12.36205	-0.2097631	0.3242277	0	0	0	0	0	0
12.3788	-0.2097631	0.3242277	0	0	0	0	0	0
12.39519	-0.2097631	0.3242277	0	0	0	0	0	0
12.41666	-0.2097631	0.3242277	0	0	0	0	0	0
12.43334	-0.2097631	0.3242277	0	0	0	0	0	0
12.4498	-0.2097631	0.3242277	0	0	0	0	0	0
12.46637	-0.2097631	0.3242277	0	0	0	0	0	0
12.48293	-0.2097631	0.3242277	0	0	0	0	0	0
12.4995	-0.2097631	0.3242277	0	0	0	0	0	0
12.51606	-0.2097631	0.3242277	0	0	0	0	0	0
12.53263	-0.2097882	0.3242098	-0.001519235	-0.001077586	-0.04585323	-0.03252349	0	0
12.54919	-0.2097882	0.3242098	0	0	0.04585323	0.03252349	0	0
12.56576	-0.2097882	0.3242098	0	0	0	0	0	0
12.58236	-0.2097882	0.3242098	0	0	0	0	0	0
12.59896	-0.2097882	0.3242098	0	0	0	0	0	0
12.61551	-0.2097882	0.3242098	0	0	0	0	0	0
12.63203	-0.2097882	0.3242098	0	0	0	0	0	0
12.73143	-0.2097882	0.3242098	0	0	0	0	0	0
12.74799	-0.2097882	0.3242098	0	0	0	0	0	0
12.76457	-0.2097882	0.3242098	0	0	0	0	0	0
12.78158	-0.2097882	0.3242098	0	0	0	0	0	0
12.7981	-0.2097882	0.3242098	0	0	0	0	0	0
12.81461	-0.2097882	0.3242098	0	0	0	0	0	0
12.83112	-0.2097882	0.3242098	0	0	0	0	0	0
12.84739	-0.2097882	0.3242098	0	0	0	0	0	0
12.86414	-0.2097882	0.3242098	0	0	0	0	0	0
12.88053	-0.2097882	0.3242098	0	0	0	0	0	0
12.89709	-0.2097882	0.3242098	0	0	0	0	0	0
12.91368	-0.2097882	0.3242098	0	0	0	0	0	0
12.93023	-0.2097882	0.3242098	0	0	0	0	0	0
12.94721	-0.2097882	0.3242098	0	0	0	0	0	0
12.96336	-0.2097882	0.3242098	0	0	0	0	0	0
12.98023	-0.2097882	0.3242098	0	0	0	0	0	0
12.99649	-0.2097882	0.3242098	0	0	0	0	0	0
13.01306	-0.2097882	0.3242098	0	0	0	0	0	0
13.02976	-0.2097882	0.3242098	0	0	0	0	0	0
13.04619	-0.2097882	0.3242098	0	0	0	0	0	0
13.06276	-0.2097882	0.3242098	0	0	0	0	0	0
13.07932	-0.2097882	0.3242098	0	0	0	0	0	0
13.09589	-0.2097882	0.3242098	0	0	0	0	0	0
13.11246	-0.2097882	0.3242098	0	0	0	0	0	0
13.15034	-0.2097882	0.3242098	0	0	0	0	0	0
13.16664	-0.2097882	0.3242098	0	0	0	0	0	0
13.18321	-0.2097882	0.3242098	0	0	0	0	0	0
13.19978	-0.2097882	0.3242098	0	0	0	0	0	0
13.21639	-0.2097882	0.3242098	0	0	0	0	0	0
13.23291	-0.2097882	0.3242098	0	0	0	0	0	0
13.24948	-0.2097882	0.3242098	0	0	0	0	0	0
13.26604	-0.2097882	0.3242098	0	0	0	0	0	0
13.28261	-0.2097882	0.3242098	0	0	0	0	0	0
13.29918	-0.2097882	0.3242098	0	0	0	0	0	0
13.31574	-0.2097882	0.3242098	0	0	0	0	0	0
13.33231	-0.2097882	0.3242098	0	0	0	0	0	0
13.34888	-0.2097882	0.3242098	0	0	0	0	0	0
13.36544	-0.2097882	0.3242098	0	0	0	0	0	0
13.38201	-0.2097882	0.3242098	0	0	0	0	0	0
13.39859	-0.2098134	0.324192	-0.001519085	-0.00107864	-0.04583288	-0.03254405	0	0
13.41514	-0.2098134	0.324192	0	0	0.04584607	0.03255342	0	0
13.43171	-0.2098134	0.324192	0	0	0	0	0	0
13.44828	-0.2098134	0.324192	0	0	0	0	0	0
13.46507	-0.2098134	0.324192	0	0	0	0	0	0
13.48141	-0.2098134	0.324192	0	0	0	0	0	0
13.49798	-0.2098134	0.324192	0	0	0	0	0	0
13.51454	-0.2098134	0.324192	0	0	0	0	0	0
13.53111	-0.2098386	0.3241741	-0.001518797	-0.001077276	-0.04583344	-0.03250945	0	0
13.54768	-0.2098386	0.3241741	0	0	0.04583608	0.03251132	0	0
13.56424	-0.2098386	0.3241741	0	0	0	0	0	0
13.58115	-0.2098386	0.3241741	0	0	0	0	0	0
13.59738	-0.2098386	0.3241741	0	0	0	0	0	0
13.61394	-0.2098386	0.3241741	0	0	0	0	0	0
13.63051	-0.2098386	0.3241741	0	0	0	0	0	0
13.64708	-0.2098386	0.3241741	0	0	0	0	0	0
13.66371	-0.2098386	0.3241741	0	0	0	0	0	0
13.68022	-0.2098386	0.3241741	0	0	0	0	0	0
13.69678	-0.2098386	0.3241741	0	0	0	0	0	0
13.71334	-0.2098386	0.3241741	0	0	0	0	0	0
13.73303	-0.2098386	0.3241741	0	0	0	0	0	0
13.74976	-0.2098386	0.3241741	0	0	0	0	0	0
13.76616	-0.2098386	0.3241741	0	0	0	0	0	0
13.78279	-0.2098637	0.324192	-0.001513745	0.001073692	-0.0458353	0.03251077	0	0
13.7993	-0.2098637	0.324192	0	0	0.04568096	-0.0324013	0	0
13.81586	-0.2098637	0.324192	0	0	0	0	0	0
13.83243	-0.2098889	0.3242098	-0.001520134	0.001079385	-0.04588434	0.0325806	0	0
13.849	-0.2099644	0.3242634	-0.004558603	0.003232759	-0.09170646	0.06499268	0	0
13.86556	-0.2103923	0.324567	-0.02582879	0.01832796	-0.6419724	0.4556003	0	0
13.88213	-0.2110969	0.3250671	-0.04252983	0.03018327	-0.5040528	0.3578042	0	0
13.8987	-0.2116252	0.3254421	-0.03189044	0.02263831	0.3211066	-0.227714	0	0
13.91526	-0.2118516	0.3256028	-0.01366502	0.009701874	0.5500759	-0.3904448	0	0
13.93183	-0.2119271	0.3256564	-0.004555006	0.003234558	0.2749565	-0.1951952	0	0
13.94841	-0.2121283	0.3257993	-0.01213461	0.008616352	-0.2286606	0.1623574	0	0
13.96496	-0.2125306	0.326085	-0.02430665	0.01726249	-0.3673532	0.2609409	0	0
13.98153	-0.2149935	0.3277995	-0.1486691	0.1034897	-3.754996	2.60354	0	0
13.9981	-0.2228919	0.333389	-0.476746	0.3373838	-9.901665	7.059143	0	0
14.01495	-0.2297393	0.3379605	-0.4062509	0.2712194	2.109213	-1.979639	0	0
14.03123	-0.2389511	0.3438533	-0.5659257	0.3620298	-4.819272	2.740823	0	0
14.0478	-0.2427483	0.3462284	-0.2292146	0.1433657	10.25196	-6.65774	0	0
14.06436	-0.2503954	0.3516393	-0.4616063	0.3266238	-7.013997	5.531056	0	0
14.081	-0.2529625	0.3534252	-0.154294	0.1073384	9.255258	-6.60417	0	0
14.0975	-0.2550335	0.3549253	-0.1255456	0.09094243	0.8676518	-0.4948443	0	0
14.13063	-0.2611346	0.3593189	-0.1841219	0.132589	-1.18021	0.8391058	0	0
14.14755	-0.2616995	0.3597296	-0.0333943	0.02428676	3.011497	-2.163849	0	0
14.16376	-0.2616995	0.3597296	0	0	1.007958	-0.7330603	0	0
14.18033	-0.2616995	0.3597296	0	0	0	0	0	0
14.1969	-0.2617731	0.3597832	-0.004446811	0.003234371	-0.134205	0.09761352	0	0
14.21359	-0.2619205	0.3598904	-0.008823761	0.006417443	-0.1315891	0.0956962	0	0
14.23003	-0.2626323	0.3604083	-0.04330689	0.03151108	-1.040763	0.7573712	0	0
14.2466	-0.265918	0.3628018	-0.1983256	0.1444692	-4.696859	3.422479	0	0
14.26316	-0.268831	0.3649274	-0.1758372	0.1283101	0.6787195	-0.4876958	0	0
14.27973	-0.2745942	0.3691432	-0.3478658	0.2544684	-5.191982	3.807575	0	0
14.29665	-0.2783205	0.3718767	-0.2202082	0.1615335	3.8119	-2.775069	0	0
14.31286	-0.2830583	0.3753609	-0.292247	0.2149189	-2.174196	1.611222	0	0
14.32968	-0.2842953	0.3762722	-0.07357968	0.05420709	6.621691	-4.866681	0	0
14.346	-0.2891858	0.379882	-0.29961	0.2211491	-6.821609	5.038319	0	0
14.36257	-0.2909014	0.3811509	-0.1035598	0.07659677	5.960899	-4.395107	0	0
14.38213	-0.295556	0.3846006	-0.2379198	0.1763293	-3.718799	2.760383	0	0
14.39872	-0.2969041	0.3856016	-0.08123168	0.06031993	4.333248	-3.208266	0	0
14.41526	-0.3030527	0.3901784	-0.3717709	0.2767342	-8.76849	6.531396	0	0
14.43183	-0.3060703	0.3924315	-0.1821534	0.1360007	5.727776	-4.251138	0	0
14.4484	-0.3102041	0.3955254	-0.2495197	0.1867499	-2.033176	1.531656	0	0
14.51466	-0.324456	0.4062602	-0.2150671	0.1619926	0.4159217	-0.2988772	0	0
14.53123	-0.3279272	0.4089272	-0.2095339	0.1609903	0.06680035	-0.01210035	0	0
14.5478	-0.3335064	0.4131703	-0.3367808	0.2561327	-3.84054	2.871568	0	0
14.56436	-0.3366514	0.4155701	-0.1898313	0.1448469	4.43507	-3.358707	0	0
14.58093	-0.343224	0.4206396	-0.3967671	0.3060323	-6.245692	4.864864	0	0
14.5975	-0.3479531	0.4242774	-0.2854321	0.2195648	3.360191	-2.609668	0	0
14.61438	-0.3535695	0.4286515	-0.3326356	0.2590546	-1.411038	1.180456	0	0
14.63064	-0.3572009	0.4315027	-0.2234202	0.1754258	3.295747	-2.523633	0	0
14.6472	-0.3602003	0.4338704	-0.1811186	0.1429708	1.28913	-0.9890587	0	0
14.66376	-0.3606151	0.4342292	-0.02503814	0.02165786	4.711603	-3.662074	0	0
14.68042	-0.3606151	0.4342292	0	0	0.7535487	-0.6518158	0	0
14.69693	-0.3604308	0.4340857	0.01116329	-0.008692387	0.3365214	-0.2620351	0	0
14.71346	-0.3603616	0.4340319	0.004183256	-0.003254645	-0.2112599	0.1645804	0	0
14.7466	-0.3602925	0.4339781	0.002085792	-0.001624381	-0.04223428	0.0328268	0	0
14.76348	-0.3603386	0.4340139	-0.002728749	0.002125106	-0.09625374	0.07496086	0	0
14.77999	-0.3603386	0.4340498	0	0.002171292	0.08170709	0.001382955	0	0
14.79651	-0.3603616	0.4340677	-0.001395186	0.001086548	-0.04224785	-0.03284729	0	0
14.81286	-0.3603847	0.4340857	-0.001408446	0.001096875	-0.0004034147	0.0003141739	0	0
14.82953	-0.3604077	0.4341036	-0.001384199	0.001076599	0.0007342657	-0.0006140146	0	0
14.846	-0.3604308	0.4341574	-0.001398822	0.003268139	-0.0004413125	0.06614271	0	0
14.86256	-0.3604769	0.4341933	-0.002780896	0.002165717	-0.04183389	-0.03336914	0	0
14.87913	-0.3605921	0.434283	-0.006955639	0.005415539	-0.1260013	0.09808548	0	0
14.89569	-0.3607073	0.4343727	-0.00695304	0.005414916	7.847076E-05	-1.882005E-05	0	0
14.91259	-0.3607303	0.4343907	-0.00136345	0.001061833	0.1670403	-0.1300883	0	0
14.92883	-0.3607533	0.4344086	-0.001418786	0.001104928	-0.001670083	0.001300632	0	0
14.9454	-0.3607533	0.4344086	0	0	0.04324849	-0.03368123	0	0
14.96196	-0.362526	0.4357901	-0.107011	0.0833963	-3.229692	2.516978	0	0
14.97863	-0.3651461	0.4378358	-0.1571527	0.1226994	-1.50859	1.182495	0	0
14.99514	-0.3709649	0.442467	-0.3524452	0.2805135	-5.885469	4.755995	0	0
15.01166	-0.3767121	0.4472085	-0.3479395	0.2870525	0.136421	0.1979861	0	0
15.02823	-0.3802341	0.4501013	-0.2126029	0.1746193	4.090707	-3.398425	0	0
15.0448	-0.3841082	0.4534984	-0.2338425	0.2050534	-0.641032	0.9185281	0	0
15.06136	-0.3848093	0.4541277	-0.0423173	0.03798356	5.780409	-5.042322	0	0
15.08052	-0.3850579	0.4551885	-0.01297689	0.05536839	0.8212494	0.486608	0	0
15.09709	-0.3851031	0.4552605	-0.002728889	0.004340678	0.286838	-1.428247	0	0
15.11366	-0.3865714	0.4565013	-0.08861481	0.07488921	-2.591893	2.129036	0	0
15.13024	-0.3906507	0.4598652	-0.2459588	0.2028204	-4.745781	3.858639	0	0
15.14679	-0.3930783	0.4619166	-0.1467062	0.1239734	2.99562	-2.379745	0	0
15.16376	-0.395232	0.4637165	-0.1268875	0.1060442	0.5912388	-0.534869	0	0
15.18028	-0.3993045	0.4672096	-0.2466411	0.2115503	-3.576291	3.150806	0	0
15.19649	-0.4024055	0.4697855	-0.1912346	0.1588543	1.692976	-1.610155	0	0
15.2133	-0.4042755	0.4717315	-0.1112472	0.11577	2.422041	-1.304605	0	0
15.22981	-0.4044757	0.4750302	-0.0121228	0.1997654	2.974715	2.520693	0	0
15.24619	-0.4008226	0.4804414	0.2230573	0.3304042	7.150434	3.971953	0	0
15.26284	-0.3990141	0.4824447	0.1086321	0.1203365	-3.464828	-6.36091	0	0
15.27935	-0.3872485	0.492344	0.7125538	0.5995257	18.21277	14.45115	0	0
15.29589	-0.3837463	0.4954725	0.2117235	0.1891305	-15.15216	-12.41613	0	0
15.31288	-0.3767121	0.5058286	0.4141656	0.6097549	6.038457	12.54641	0	0
15.32938	-0.3760748	0.5111954	0.03860262	0.3250823	-11.21316	-8.499454	0	0
15.3456	-0.3755966	0.5216365	0.02949622	0.64406	-0.2783082	9.748536	0	0
15.36241	-0.3748904	0.528021	0.04199213	0.3796215	0.3783251	-8.006116	0	0
15.37873	-0.3721986	0.5353074	0.1650199	0.4466974	3.71352	2.024646	0	0
15.39529	-0.3684253	0.5424777	0.2277868	0.4328512	1.909145	-0.4211535	0	0
15.41186	-0.3677838	0.5489466	0.03871934	0.3904856	-5.706559	-1.278706	0	0
15.42845	-0.368242	0.5530817	-0.02761135	0.2491918	-2.00031	-4.260943	0	0
15.44499	-0.3690206	0.5621718	-0.04707231	0.5495949	-0.5873497	9.066445	0	0
15.46156	-0.3699588	0.5686539	-0.05663534	0.3912879	-0.2888623	-4.781844	0	0
15.47849	-0.3695699	0.5774679	0.02297406	0.5206503	2.376758	3.862145	0	0
15.49469	-0.3683336	0.5831835	0.07629406	0.3527345	1.609294	-5.067998	0	0
15.51126	-0.3682191	0.5885574	0.006911663	0.3243876	-2.117244	-0.8650217	0	0
15.52802	-0.3698902	0.5943841	-0.09965414	0.347477	-3.19684	0.6926505	0	0
15.54439	-0.37229	0.5993308	-0.1466419	0.3022764	-1.418134	-1.364196	0	0
15.56096	-0.3713992	0.6083733	0.05377317	0.5458343	6.085849	7.395934	0	0
15.57756	-0.3695241	0.615559	0.1129567	0.4328859	1.784469	-3.405554	0	0
15.59409	-0.36799	0.6200542	0.09278386	0.2718752	-0.6088362	-4.859455	0	0
15.61066	-0.3655593	0.6269689	0.1467196	0.4173742	1.629424	4.395598	0	0
15.62722	-0.3649624	0.6319128	0.03603347	0.298432	-3.340609	-3.589786	0	0
15.64379	-0.3621348	0.6383493	0.1706814	0.3885283	4.063916	2.719267	0	0
15.66036	-0.3613521	0.6438031	0.04724469	0.3292089	-3.725541	-1.790366	0	0
15.67713	-0.3610988	0.645479	0.01510434	0.09993035	-0.9640871	-6.877477	0	0
15.69349	-0.3602234	0.6481175	0.05350403	0.1612571	1.158938	1.850898	0	0
15.71006	-0.3604077	0.6482684	-0.01112782	0.009105889	-1.962739	-4.620524	0	0
15.73144	-0.3613752	0.6490605	-0.04523287	0.03703404	-0.8985586	0.7358173	0	0
15.74801	-0.363124	0.65057	-0.1055596	0.09111285	-1.589416	1.424803	0	0
15.76458	-0.3638827	0.6516837	-0.04579208	0.06722744	1.803787	-0.7208632	0	0
15.78115	-0.3617896	0.6564275	0.1263456	0.2863501	5.195276	6.613326	0	0
15.79775	-0.3584707	0.6607822	0.1998561	0.2622286	2.215998	-0.7271501	0	0
15.81428	-0.3561148	0.6704658	0.1425454	0.5859204	-1.729688	9.769318	0	0
15.83084	-0.3539401	0.6789663	0.1312766	0.5131253	-0.3405152	-2.199683	0	0
15.84775	-0.3529209	0.6829796	0.06030123	0.2374422	-2.120679	-8.237155	0	0
15.86426	-0.3528282	0.6835535	0.005613232	0.03475872	-1.636685	-6.065845	0	0
15.88055	-0.352805	0.6835344	0.001421785	-0.001174757	-0.1277928	-1.095574	0	0
15.89728	-0.3527818	0.6835153	0.001385328	-0.001143162	-0.001103981	0.0009567227	0	0
15.91368	-0.3527355	0.683477	0.002826368	-0.002333799	0.04349194	-0.03593451	0	0
15.93031	-0.3527123	0.6834579	0.001394465	-0.001150703	-0.04335969	0.03582552	0	0
15.94682	-0.3525964	0.6833622	0.007015416	-0.005792049	0.1695918	-0.1400358	0	0
15.96338	-0.3525037	0.6832857	0.005599513	-0.004622163	-0.04280967	0.03537137	0	0
15.97995	-0.3524342	0.6832283	0.004197493	-0.003461627	-0.0423289	0.03503816	0	0
15.99651	-0.3520169	0.682884	0.02519105	-0.02078536	0.6336598	-0.5228915	0	0
16.01308	-0.3513907	0.6823294	0.03779789	-0.033477	0.3804862	-0.3830456	0	0
16.02988	-0.3505089	0.6816028	0.05249375	-0.0432504	0.4404541	-0.2929213	0	0
16.04621	-0.3495336	0.6808001	0.05970155	-0.04913894	0.2175316	-0.1777165	0	0
16.06291	-0.3493245	0.6805899	0.01252249	-0.01258854	-1.428306	1.106533	0	0
16.07935	-0.3493245	0.6805899	0	0	-0.3779513	0.3799448	0	0
16.09591	-0.3493245	0.6805899	0	0	0	0	0	0
16.11248	-0.3493012	0.6805326	0.001403281	-0.003461428	0.04235112	-0.1044661	0	0
16.12905	-0.3492548	0.6804562	0.002804441	-0.004612307	0.04228952	-0.03473561	0	0
16.16218	-0.349278	0.6803606	-0.0007007009	-0.002883757	-0.0705263	0.03477982	0	0
16.17899	-0.3492548	0.6803415	0.001380971	-0.001134559	0.04168018	0.03502325	0	0
16.19531	-0.349278	0.6803224	-0.001422447	-0.001172286	-0.08461217	-0.001138674	0	0
16.21188	-0.349278	0.6802842	0	-0.002306154	0.04325069	-0.03447621	0	0
16.22852	-0.349278	0.6802842	0	0	0	0.06943996	0	0
16.24503	-0.3493012	0.6802651	-0.001408471	-0.00115928	-0.04249062	-0.03497305	0	0
16.26158	-0.3493012	0.6802651	0	0	0.04261076	0.03507194	0	0
16.27814	-0.3493012	0.6802651	0	0	0	0	0	0
16.29471	-0.349278	0.680246	0.001403281	-0.001151411	0.04235356	-0.03475164	0	0
16.31128	-0.349278	0.680246	0	0	-0.04235356	0.03475164	0	0
16.32808	-0.349278	0.680246	0	0	0	0	0	0
16.3446	-0.349278	0.6802078	0	-0.002313879	0	-0.06944524	0	0
16.3636	-0.349278	0.6802078	0	0	0	0.06515247	0	0
16.38017	-0.3493012	0.6801887	-0.00140312	-0.001154876	-0.03944656	-0.03246756	0	0
16.39673	-0.349278	0.6801696	0.00140312	-0.001151278	0.08469249	0.0001085788	0	0
16.4133	-0.3493245	0.6801314	-0.00280624	-0.002306154	-0.1270387	-0.03485421	0	0
16.42987	-0.3494174	0.680055	-0.005609528	-0.004612838	-0.08460826	-0.06961989	0	0
16.44644	-0.3496497	0.6798257	-0.01401879	-0.01383533	-0.2537921	-0.2783353	0	0
16.463	-0.3497891	0.6797111	-0.008413462	-0.006920054	0.1691789	0.2087154	0	0
16.47969	-0.3499516	0.6794629	-0.009737733	-0.0148699	-0.03981759	-0.2390325	0	0
16.4962	-0.3499748	0.6793292	-0.001406178	-0.008097706	0.2509124	0.2039509	0	0
16.51272	-0.3499052	0.6790427	0.004218046	-0.01734868	0.1703179	-0.2801463	0	0
16.52927	-0.3497426	0.6787945	0.009823023	-0.01499654	0.1695294	0.07114317	0	0
16.54583	-0.3480926	0.6772866	0.09959634	-0.09101571	2.710768	-2.295452	0	0
16.5624	-0.3419633	0.6717408	0.3700075	-0.334787	8.161496	-7.357455	0	0
16.57897	-0.3379168	0.6667396	0.2442472	-0.3018687	-3.795673	0.9935336	0	0
16.59577	-0.3341876	0.6591341	0.2218761	-0.4525079	-0.6703007	-4.513565	0	0
16.6121	-0.3330599	0.657241	0.06907751	-0.1159598	-4.611735	10.15763	0	0
16.62867	-0.3304252	0.639176	0.1590329	-1.090408	2.734851	-29.62548	0	0
16.64523	-0.32986	0.6322315	0.0341156	-0.4191731	-3.77001	20.2579	0	0
16.6618	-0.3299071	0.6252667	-0.002844344	-0.4204411	-1.115518	-0.0382714	0	0
16.67837	-0.3299071	0.6100844	0	-0.9164065	0.0858474	-14.96912	0	0
16.69493	-0.3287289	0.6028	0.07111479	-0.439691	2.146249	14.3873	0	0
16.7115	-0.3263225	0.5945322	0.1452684	-0.4991004	2.23809	-1.793083	0	0
16.72807	-0.3261572	0.5926257	0.009976543	-0.1150738	-4.083353	11.59061	0	0
16.77777	-0.3199574	0.5673309	0.1247457	-0.5089527	1.731921	-5.943816	0	0
16.79441	-0.3180592	0.5585955	0.1140093	-0.5246699	-0.1618172	-0.2368868	0	0
16.81093	-0.316634	0.5488552	0.08631382	-0.5898983	-0.8351792	-1.967012	0	0
16.82747	-0.3155404	0.5386996	0.06611436	-0.6139839	-0.6111337	-0.728708	0	0
16.84403	-0.3129937	0.5260739	0.1537208	-0.7620884	2.6461	-4.473407	0	0
16.86096	-0.3094642	0.5148428	0.20848	-0.6633971	1.634758	2.946287	0	0
16.87748	-0.3065966	0.5061729	0.1736691	-0.52507	-1.04095	4.136384	0	0
16.89374	-0.30358	0.5001956	0.1855224	-0.3676063	0.3616889	4.804815	0	0
16.9105	-0.2985396	0.4805316	0.3006724	-1.173007	3.486875	-24.38848	0	0
16.92701	-0.2971447	0.4707224	0.08447643	-0.5940695	-6.497129	17.39827	0	0
16.94344	-0.2947611	0.4504786	0.1451136	-1.232416	1.84095	-19.38023	0	0
16.96001	-0.2936524	0.4364719	0.06691572	-0.8453508	-2.369977	11.73093	0	0
16.97657	-0.2928806	0.4252094	0.04659251	-0.6799628	-0.613391	4.991707	0	0
16.99332	-0.29276	0.4137613	0.007201273	-0.6835355	-1.1825	-0.1072484	0	0
17.00989	-0.2937729	0.4073878	-0.06113825	-0.3847049	-2.051274	8.969672	0	0
17.02658	-0.2958209	0.4020727	-0.1226582	-0.3183241	-1.849437	1.995565	0	0
17.04302	-0.2955078	0.3986556	0.01904847	-0.2079084	4.276962	3.332544	0	0
17.05959	-0.2945683	0.3978864	0.05671123	-0.04642888	1.141197	4.892896	0	0
17.09746	-0.2822331	0.388766	0.3256544	-0.240785	4.939699	-3.569753	0	0
17.11403	-0.2772984	0.3851369	0.2978626	-0.2190522	-0.510455	0.3991683	0	0
17.13063	-0.273887	0.3826344	0.2054874	-0.1507371	-2.785003	2.05962	0	0
17.1803	-0.2569053	0.3702866	0.3419216	-0.2486187	2.058856	-1.477078	0	0
17.19687	-0.2550335	0.3688931	0.1129817	-0.08411165	-3.4566	2.483774	0	0
17.21343	-0.2532832	0.3676248	0.1056495	-0.07655818	-0.2212862	0.227964	0	0
17.23	-0.2533078	0.3676426	-0.001489466	0.001077524	-3.233462	2.34305	0	0
17.24657	-0.2532832	0.3676248	0.001489466	-0.001077524	0.08990434	-0.06503949	0	0
17.26313	-0.2532339	0.3675891	0.002977133	-0.002156847	0.04489788	-0.03257403	0	0
17.27977	-0.2531599	0.3675355	0.004448673	-0.003221391	0.04432187	-0.0320634	0	0
17.29628	-0.252173	0.3668209	0.05977939	-0.04328603	1.6695	-1.208875	0	0
17.31283	-0.2481959	0.3639449	0.2401986	-0.1736929	5.45637	-3.943861	0	0
17.3294	-0.2450034	0.3616408	0.1927182	-0.1390958	-1.433456	1.044504	0	0
17.34597	-0.2379572	0.3565684	0.4253126	-0.3061698	7.020117	-5.042593	0	0
17.36253	-0.2323825	0.3525679	0.3364879	-0.241468	-2.680734	1.952705	0	0
17.3791	-0.2251434	0.3473177	0.4370016	-0.3169437	3.033684	-2.277995	0	0
17.39585	-0.2234675	0.3460498	0.1000765	-0.07571007	-10.11427	7.241679	0	0
17.41236	-0.2179304	0.337889	0.3352986	-0.4941763	7.072148	-12.58154	0	0
17.42887	-0.2180057	0.3316568	-0.00455684	-0.3773948	-10.29003	3.535869	0	0
17.44538	-0.2187079	0.3231204	-0.04254044	-0.5171036	-1.150254	-4.230787	0	0
17.46193	-0.2193348	0.3179944	-0.03787145	-0.3096894	0.1412274	6.273857	0	0
17.4785	-0.2189086	0.3139397	0.02573043	-0.2447719	1.920503	1.960229	0	0
17.49507	-0.216475	0.3122784	0.1468905	-0.1002763	3.656828	4.361136	0	0
17.51163	-0.2126815	0.3096166	0.2289757	-0.1606662	2.477336	-1.822571	0	0
17.5282	-0.2109963	0.3084196	0.1017199	-0.07225168	-3.840587	2.668356	0	0
17.54477	-0.2109208	0.308366	0.004557067	-0.003234744	-2.932549	2.083055	0	0
17.56133	-0.2108956	0.3083481	0.001518248	-0.001079323	-0.09171702	0.06505448	0	0
17.5779	-0.2108956	0.3083481	0	0	-0.04582345	0.03257591	0	0
17.59447	-0.2108705	0.3083303	0.001519147	-0.001077524	0.04585059	-0.03252162	0	0
17.61103	-0.210795	0.3082767	0.004556542	-0.00323617	0.09166876	-0.06514806	0	0
17.62801	-0.2101155	0.3077943	0.04002085	-0.02841005	1.05717	-0.7504186	0	0
17.64452	-0.2075214	0.305954	0.1571192	-0.1114635	3.496596	-2.480005	0	0
17.66073	-0.2065637	0.3052751	0.0590814	-0.0418836	-2.996212	2.126488	0	0
17.69387	-0.2042938	0.3036669	0.06850463	-0.04853356	0.1909663	-0.1347645	0	0
17.71057	-0.2042938	0.3036669	0	0	-1.374571	0.9738437	0	0
17.72708	-0.2042938	0.3036669	0	0	0	0	0	0
17.74696	-0.2042938	0.3036669	0	0	0	0	0	0
17.76353	-0.2042938	0.3036669	0	0	0	0	0	0
17.78012	-0.2042938	0.3036669	0	0	0	0	0	0
17.79666	-0.2042938	0.3036669	0	0	0	0	0	0
17.81322	-0.2042938	0.3036669	0	0	0	0	0	0
17.82979	-0.2042938	0.3036669	0	0	0	0	0	0
17.84636	-0.2042938	0.3036669	0	0	0	0	0	0
17.86292	-0.2042938	0.3036669	0	0	0	0	0	0
17.87969	-0.2042938	0.3036669	0	0	0	0	0	0
17.8962	-0.2042938	0.3036669	0	0	0	0	0	0
17.91272	-0.2042938	0.3036669	0	0	0	0	0	0
17.92919	-0.2042938	0.3036669	0	0	0	0	0	0
17.94576	-0.2042938	0.3036669	0	0	0	0	0	0
17.96233	-0.2042938	0.3036669	0	0	0	0	0	0
17.97889	-0.2042938	0.3036669	0	0	0	0	0	0
17.99546	-0.2042938	0.3036669	0	0	0	0	0	0
18.01229	-0.2042938	0.3036669	0	0	0	0	0	0
18.02859	-0.2042938	0.3036669	0	0	0	0	0	0
18.04531	-0.2042938	0.3036669	0	0	0	0	0	0
18.06254	-0.2042938	0.3036669	0	0	0	0	0	0
18.07933	-0.204319	0.3036848	-0.001502506	0.001063203	-0.04416111	0.03124927	0	0
18.09567	-0.204319	0.3036848	0	0	0.04534573	-0.03208753	0	0
18.11224	-0.204319	0.3036848	0	0	0	0	0	0
18.12881	-0.204319	0.3036848	0	0	0	0	0	0
18.14538	-0.204319	0.3036848	0	0	0	0	0	0
18.16194	-0.204319	0.3036848	0	0	0	0	0	0
18.17851	-0.204319	0.3036848	0	0	0	0	0	0
18.19507	-0.204319	0.3036848	0	0	0	0	0	0
18.21164	-0.204319	0.3036848	0	0	0	0	0	0
18.22844	-0.204319	0.3036848	0	0	0	0	0	0
18.24478	-0.204319	0.3036848	0	0	0	0	0	0
18.26146	-0.204319	0.3036848	0	0	0	0	0	0
18.27797	-0.204319	0.3036848	0	0	0	0	0	0
18.29448	-0.204319	0.3036848	0	0	0	0	0	0
18.31149	-0.204319	0.3036848	0	0	0	0	0	0
18.32761	-0.204319	0.3036848	0	0	0	0	0	0
18.34788	-0.204319	0.3036848	0	0	0	0	0	0
18.36453	-0.204319	0.3036848	0	0	0	0	0	0
18.39813	-0.2043443	0.3037027	-0.0007508693	0.0005322169	-0.01494237	0.01059117	0	0
18.4147	-0.2043443	0.3037027	0	0	0.01496794	-0.01060929	0	0
18.43126	-0.2043695	0.3037205	-0.001523644	0.001077524	-0.04598368	0.03251974	0	0
18.44783	-0.2043695	0.3037205	0	0	0.04598368	-0.03251974	0	0
18.4644	-0.2043695	0.3037205	0	0	0	0	0	0
18.48096	-0.2043695	0.3037563	0	0.002156847	0	0.06509378	0	0
18.49763	-0.2043695	0.3037563	0	0	0	-0.06490324	0	0
18.51414	-0.2043695	0.3037563	0	0	0	0	0	0
18.53066	-0.2043695	0.3037563	0	0	0	0	0	0
18.54723	-0.2043695	0.3037563	0	0	0	0	0	0
18.5638	-0.2043695	0.3037563	0	0	0	0	0	0
18.58037	-0.2043695	0.3037563	0	0	0	0	0	0
18.59693	-0.2043695	0.3037563	0	0	0	0	0	0
18.61371	-0.2043695	0.3037563	0	0	0	0	0	0
18.63007	-0.2043695	0.3037563	0	0	0	0	0	0
18.64663	-0.2043695	0.3037563	0	0	0	0	0	0
18.6632	-0.2043695	0.3037563	0	0	0	0	0	0
18.67977	-0.2043695	0.3037563	0	0	0	0	0	0
18.69677	-0.2043695	0.3037563	0	0	0	0	0	0
18.7129	-0.2043947	0.3037741	-0.001563978	0.001108549	-0.04720095	0.03345608	0	0
18.72947	-0.2043947	0.3037741	0	0	0.04783426	-0.03390497	0	0
18.74603	-0.2043947	0.3038099	0	0.002156847	0	0.06509753	0	0
18.7626	-0.2043947	0.3038099	0	0	0	-0.06509378	0	0
18.77917	-0.20442	0.3038278	-0.00152292	0.001079447	-0.04596447	0.03257966	0	0
18.79585	-0.20442	0.3038278	0	0	0.04580888	-0.03246938	0	0
18.8123	-0.2043947	0.3038456	0.001533159	0.001084893	0.04627083	0.03274215	0	0
18.82887	-0.2043947	0.3038456	0	0	-0.04642851	-0.03285373	0	0
18.84544	-0.20442	0.3038635	-0.001522745	0.001079323	-0.04595653	0.03257403	0	0
18.862	-0.20442	0.3038635	0	0	0.04595918	-0.03257591	0	0
18.87857	-0.20442	0.3038635	0	0	0	0	0	0
18.89541	-0.20442	0.3038635	0	0	0	0	0	0
18.91193	-0.20442	0.3038635	0	0	0	0	0	0
18.92844	-0.20442	0.3038635	0	0	0	0	0	0
18.94484	-0.20442	0.3038635	0	0	0	0	0	0
18.96141	-0.2044452	0.3038813	-0.001523469	0.0010774	-0.04620713	0.03267777	0	0
18.99454	-0.2044452	0.3038813	0	0	0.03065343	-0.02167817	0	0
19.01459	-0.20442	0.3038992	0.001258858	0.0008917531	0.02367049	0.01676776	0	0
19.03116	-0.20442	0.3038992	0	0	-0.03437701	-0.02435207	0	0
19.04772	-0.20442	0.3038992	0	0	0	0	0	0
19.06429	-0.20442	0.3038992	0	0	0	0	0	0
19.08086	-0.20442	0.3038992	0	0	0	0	0	0
19.09756	-0.20442	0.3038992	0	0	0	0	0	0
19.11399	-0.20442	0.3038992	0	0	0	0	0	0
19.13056	-0.20442	0.3038992	0	0	0	0	0	0
19.14712	-0.20442	0.3038992	0	0	0	0	0	0
19.16369	-0.20442	0.3038992	0	0	0	0	0	0
19.18026	-0.20442	0.3038992	0	0	0	0	0	0
19.19683	-0.20442	0.3038992	0	0	0	0	0	0
19.21339	-0.20442	0.3038992	0	0	0	0	0	0
19.23015	-0.20442	0.3038992	0	0	0	0	0	0
19.24667	-0.20442	0.3038992	0	0	0	0	0	0
19.26318	-0.20442	0.3038992	0	0	0	0	0	0
19.2797	-0.20442	0.3038992	0	0	0	0	0	0
19.29623	-0.20442	0.3038992	0	0	0	0	0	0
19.3128	-0.20442	0.3038992	0	0	0	0	0	0
19.32936	-0.20442	0.3038992	0	0	0	0	0	0
19.34593	-0.20442	0.3038992	0	0	0	0	0	0
19.3625	-0.20442	0.3038992	0	0	0	0	0	0
19.37906	-0.20442	0.3038992	0	0	0	0	0	0
19.39563	-0.20442	0.3038992	0	0	0	0	0	0
19.41229	-0.20442	0.3038992	0	0	0	0	0	0
19.4288	-0.20442	0.3038992	0	0	0	0	0	0
19.44533	-0.20442	0.3038992	0	0	0	0	0	0
19.46232	-0.20442	0.3038992	0	0	0	0	0	0
19.47846	-0.20442	0.3038992	0	0	0	0	0	0
19.49535	-0.20442	0.3038992	0	0	0	0	0	0
19.5116	-0.20442	0.3038992	0	0	0	0	0	0
19.52816	-0.20442	0.3038992	0	0	0	0	0	0
19.54473	-0.20442	0.3038992	0	0	0	0	0	0
19.5613	-0.20442	0.3038992	0	0	0	0	0	0
19.57791	-0.20442	0.3038992	0	0	0	0	0	0
19.59443	-0.20442	0.3038992	0	0	0	0	0	0
19.611	-0.20442	0.3038992	0	0	0	0	0	0
19.62757	-0.20442	0.3038992	0	0	0	0	0	0
19.64413	-0.20442	0.3038992	0	0	0	0	0	0
19.6607	-0.20442	0.3038992	0	0	0	0	0	0
19.68077	-0.20442	0.3038992	0	0	0	0	0	0
19.69734	-0.20442	0.3038992	0	0	0	0	0	0
19.714	-0.20442	0.3038992	0	0	0	0	0	0
19.73049	-0.20442	0.3038992	0	0	0	0	0	0
19.74704	-0.20442	0.3038992	0	0	0	0	0	0
19.8133	-0.20442	0.3038992	0	0	0	0	0	0
19.87962	-0.20442	0.3038992	0	0	0	0	0	0
19.89614	-0.20442	0.3038992	0	0	0	0	0	0
19.91271	-0.20442	0.3038992	0	0	0	0	0	0
19.92927	-0.20442	0.3038992	0	0	0	0	0	0
19.94584	-0.20442	0.3038992	0	0	0	0	0	0
19.96241	-0.20442	0.3038992	0	0	0	0	0	0
19.97919	-0.20442	0.3038992	0	0	0	0	0	0
19.9957	-0.20442	0.3038992	0	0	0	0	0	0
20.01211	-0.20442	0.3038992	0	0	0	0	0	0
20.02868	-0.20442	0.3038992	0	0	0	0	0	0
20.04524	-0.20442	0.3038992	0	0	0	0	0	0
20.06186	-0.20442	0.3038992	0	0	0	0	0	0
20.07837	-0.20442	0.3038992	0	0	0	0	0	0
20.09494	-0.20442	0.3038992	0	0	0	0	0	0
20.11179	-0.20442	0.3038992	0	0	0	0	0	0
20.12808	-0.20442	0.3038992	0	0	0	0	0	0
20.14464	-0.20442	0.3038992	0	0	0	0	0	0
20.16132	-0.20442	0.3038992	0	0	0	0	0	0
20.17784	-0.20442	0.3038992	0	0	0	0	0	0
20.19434	-0.20442	0.3038992	0	0	0	0	0	0
20.21091	-0.20442	0.3038992	0	0	0	0	0	0
20.22748	-0.20442	0.3038992	0	0	0	0	0	0
20.24404	-0.20442	0.3038992	0	0	0	0	0	0
20.26061	-0.2044452	0.3039171	-0.001523644	0.001079323	-0.04599427	0.03258153	0	0
20.27718	-0.2044452	0.3039171	0	0	0.04598103	-0.03257216	0	0
20.29392	-0.2044452	0.3039171	0	0	0	0	0	0
20.31043	-0.2044452	0.3039171	0	0	0	0	0	0
20.32687	-0.2044452	0.3039171	0	0	0	0	0	0
20.34638	-0.2044452	0.3039171	0	0	0	0	0	0
20.36295	-0.2044452	0.3039171	0	0	0	0	0	0
20.37951	-0.20442	0.3038992	0.001523644	-0.001079323	0.04598368	-0.03257403	0	0
20.39608	-0.20442	0.3038992	0	0	-0.04598103	0.03257216	0	0
20.41265	-0.20442	0.3038992	0	0	0	0	0	0
20.42922	-0.20442	0.3038992	0	0	0	0	0	0
20.44578	-0.2044452	0.3039171	-0.00152382	0.001079447	-0.04599162	0.03257966	0	0
20.46235	-0.2044452	0.3039171	0	0	0.04599162	-0.03257966	0	0
20.47892	-0.2044452	0.3039171	0	0	0	0	0	0
20.4955	-0.2044452	0.3039171	0	0	0	0	0	0
20.51205	-0.2044452	0.3039171	0	0	0	0	0	0
20.54518	-0.2044452	0.3039171	0	0	0	0	0	0
20.56175	-0.2044452	0.3039171	0	0	0	0	0	0
20.57832	-0.2044452	0.3039171	0	0	0	0	0	0
20.59488	-0.2044452	0.3039171	0	0	0	0	0	0
20.61145	-0.2044452	0.3039171	0	0	0	0	0	0
20.62815	-0.2044452	0.3039171	0	0	0	0	0	0
20.64458	-0.2044452	0.3039171	0	0	0	0	0	0
20.66115	-0.2044452	0.3039171	0	0	0	0	0	0
20.67772	-0.2044452	0.3039171	0	0	0	0	0	0
20.6947	-0.2044452	0.3039171	0	0	0	0	0	0
20.71085	-0.2044452	0.3039171	0	0	0	0	0	0
20.72742	-0.2044452	0.3039171	0	0	0	0	0	0
20.74424	-0.2044452	0.3039171	0	0	0	0	0	0
20.76075	-0.2044452	0.3039171	0	0	0	0	0	0
20.77712	-0.2044452	0.3039171	0	0	0	0	0	0
20.79369	-0.2044452	0.3039171	0	0	0	0	0	0
20.81029	-0.2044452	0.3039171	0	0	0	0	0	0
20.82682	-0.2044452	0.3039171	0	0	0	0	0	0
20.84339	-0.2044452	0.3039171	0	0	0	0	0	0
20.85995	-0.2044452	0.3039171	0	0	0	0	0	0
20.87652	-0.2044452	0.3039171	0	0	0	0	0	0
20.89309	-0.2044452	0.3039171	0	0	0	0	0	0
20.90965	-0.2044452	0.3039171	0	0	0	0	0	0
20.92622	-0.20442	0.3038992	0.001523644	-0.001079323	0.04598368	-0.03257403	0	0
20.9463	-0.20442	0.3038992	0	0	-0.04157966	0.0294543	0	0
20.96289	-0.20442	0.3038992	0	0	0	0	0	0
20.97943	-0.20442	0.3038992	0	0	0	0	0	0
20.99601	-0.2043947	0.3038813	0.001521519	-0.001078454	0.04593804	-0.03256093	0	0
21.01257	-0.2043443	0.3038456	0.003048144	-0.00215809	0.04606834	-0.03257972	0	0
21.02913	-0.204319	0.3038278	0.001523096	-0.001077772	-0.04604461	0.03261718	0	0
21.0457	-0.2042686	0.303792	0.003046389	-0.002156847	0.04597838	-0.03257029	0	0
21.06227	-0.2041929	0.3037384	0.004569134	-0.00323617	0.04595654	-0.03257403	0	0
21.07883	-0.2041676	0.3037205	0.00152292	-0.001079447	-0.09194022	0.06509377	0	0
21.09549	-0.2037639	0.3034704	0.02424085	-0.01501846	0.6838176	-0.4195694	0	0
21.112	-0.199065	0.3004325	0.2846048	-0.1840017	7.850117	-5.094938	0	0
21.12853	-0.193293	0.2963934	0.3491227	-0.2443074	1.952549	-1.825072	0	0
21.1451	-0.1873301	0.2922284	0.3599218	-0.2513977	0.3262576	-0.2142094	0	0
21.16167	-0.1796474	0.2868288	0.4637311	-0.3259196	3.132971	-2.249074	0	0
21.17824	-0.172786	0.282018	0.4141524	-0.2903811	-1.496288	1.072554	0	0
21.1948	-0.1668552	0.2778679	0.3579881	-0.2505037	-1.695045	1.203502	0	0
21.21137	-0.1637059	0.2756672	0.1901087	-0.1328512	-5.066902	3.550964	0	0
21.22794	-0.1585013	0.2720344	0.3141161	-0.2192464	3.742551	-2.607414	0	0
21.2445	-0.154393	0.2691706	0.2480066	-0.1728825	-1.995188	1.399267	0	0
21.26107	-0.1504852	0.2664494	0.2358997	-0.1642685	-0.3654293	0.2600006	0	0
21.27764	-0.1459547	0.2632621	0.2734339	-0.1923636	1.132784	-0.8479117	0	0
21.2942	-0.1423723	0.2607726	0.2162592	-0.1502825	-1.725536	1.270011	0	0
21.31077	-0.1399734	0.2591068	0.1447984	-0.1005533	-2.156815	1.500914	0	0
21.32734	-0.1391992	0.2585693	0.04673019	-0.03243905	-2.959704	2.055693	0	0
21.34417	-0.1369272	0.2569928	0.1349896	-0.09367386	2.642682	-1.833505	0	0
21.36047	-0.133646	0.2547171	0.2012804	-0.1395921	2.000775	-1.385895	0	0
21.37704	-0.1333099	0.2544841	0.02028641	-0.0140634	-5.506789	3.819243	0	0
21.3936	-0.1333358	0.2545021	-0.001560521	0.001081122	-0.6593797	0.4570889	0	0
21.41021	-0.1333099	0.2544841	0.0015564	-0.001078267	0.09394448	-0.06508431	0	0
21.42673	-0.133284	0.2545021	0.001564845	0.001084117	0.0002548853	0.06526464	0	0
21.4433	-0.1332065	0.2544483	0.004681203	-0.003245538	0.09418742	-0.1308576	0	0
21.46025	-0.1326894	0.2540899	0.03050796	-0.02114633	0.7706254	-0.5341282	0	0
21.47643	-0.1294561	0.2519571	0.1997845	-0.1317859	5.109071	-3.3393	0	0
21.493	-0.1256503	0.2494654	0.2297195	-0.150401	0.9140147	-0.5683811	0	0
21.50957	-0.1189619	0.2449107	0.4037122	-0.2749189	5.251111	-3.757958	0	0
21.52613	-0.1101575	0.2389007	0.5314362	-0.3627641	3.854717	-2.651173	0	0
21.5428	-0.1036014	0.2344134	0.3932812	-0.2691818	-4.156607	2.815567	0	0
21.5795	-0.0933333	0.2273732	0.2798198	-0.1918552	-2.12611	1.448994	0	0
21.59606	-0.08262724	0.220076	0.6465172	-0.4406648	6.88568	-4.672035	0	0
21.61263	-0.07611582	0.2156336	0.3930296	-0.2681425	-7.652032	5.207931	0	0
21.62919	-0.07150944	0.2125027	0.2780422	-0.1889778	-3.470329	2.389197	0	0
21.64588	-0.0670834	0.2095688	0.2652624	-0.1758402	-0.3843217	0.3950829	0	0
21.66239	-0.06315275	0.2070119	0.2380218	-0.1548297	-0.8205172	0.6328592	0	0
21.67889	-0.05953483	0.2049226	0.219262	-0.1266201	-0.5682318	0.8544661	0	0
21.69546	-0.05727938	0.2035535	0.1361391	-0.08264197	-2.513721	1.329943	0	0
21.71247	-0.05470851	0.202076	0.151141	-0.08686172	0.4467912	-0.1256741	0	0
21.72859	-0.04798944	0.1985793	0.4167428	-0.2168784	8.01634	-3.924138	0	0
21.74516	-0.03706197	0.1956221	0.6595837	-0.1784984	7.42859	1.174057	0	0
21.76196	-0.02168081	0.195063	0.9154449	-0.0332774	7.667616	4.351967	0	0
21.7783	-0.008947129	0.1962533	0.7796471	0.07288078	-4.098388	3.20386	0	0
21.79486	0.004131556	0.1985072	0.7895219	0.1360616	0.3001652	1.920511	0	0
21.81143	0.01252566	0.2005802	0.5066692	0.1251259	-8.537002	-0.3300598	0	0
21.828	0.02715122	0.2051928	0.8828006	0.2784204	11.35167	4.626436	0	0
21.84456	0.03537997	0.2107209	0.4966882	0.3336727	-11.6529	1.667519	0	0
21.86113	0.04630897	0.2181698	0.6597519	0.449669	4.921556	3.500975	0	0
21.8777	0.05423623	0.2235995	0.4784902	0.3277373	-5.470804	-3.680116	0	0
21.89426	0.06472525	0.2307862	0.6331185	0.4337898	4.666692	3.20067	0	0
21.91083	0.06954556	0.2340902	0.2909545	0.1994337	-10.32653	-7.072881	0	0
21.9274	0.0794639	0.2409284	0.5986722	0.4127493	9.286938	6.437878	0	0
21.9441	0.0914025	0.2491606	0.7146096	0.4927565	3.484358	2.404519	0	0
21.96053	0.09599353	0.2523156	0.2794316	0.1920284	-13.13294	-9.075471	0	0
21.9771	0.101987	0.256509	0.3618513	0.2531721	2.498073	1.853215	0	0
21.99366	0.1082073	0.260898	0.3754974	0.2649539	0.4119129	0.3556372	0	0
22.01023	0.1116651	0.2634591	0.2087172	0.1545878	-5.033726	-3.331048	0	0
22.02715	0.116133	0.2666106	0.2640556	0.1862547	1.652518	0.9456382	0	0
22.04336	0.1215556	0.2706026	0.3344359	0.2462026	2.124079	1.809232	0	0
22.05993	0.1242773	0.2727682	0.1642964	0.1307319	-5.190392	-3.522631	0	0
22.0765	0.1242773	0.2731977	0	0.02592534	-4.95876	-3.163249	0	0
22.09306	0.1245623	0.2734661	0.01720351	0.01620244	0.5192029	-0.2934377	0	0
22.10971	0.1259871	0.2744862	0.08557592	0.06126668	2.058388	1.356683	0	0
22.1262	0.1301289	0.2778858	0.2512747	0.2062439	5.001087	4.375672	0	0
22.14276	0.1301289	0.2779216	0	0.002160445	-7.602741	-6.17489	0	0
22.15933	0.130103	0.2779394	-0.001561421	0.001079323	-0.04712377	-0.03262832	0	0
22.1759	0.130103	0.2779394	0	0	0.04712377	-0.03257403	0	0
22.19246	0.130103	0.2779394	0	0	0	0	0	0
22.20903	0.130103	0.2779394	0	0	0	0	0	0
22.2256	0.1300513	0.2779394	-0.003122841	0	-0.09424753	0	0	0
22.24558	0.1300254	0.2779573	-0.001295372	0.0008949026	0.05000107	0.02448527	0	0
22.26232	0.1300254	0.2779573	0	0	0.0352749	-0.02436954	0	0
22.27872	0.1299737	0.2779573	-0.003154804	0	-0.09519572	0	0	0
22.29528	0.1299737	0.2779573	0	0	0.09571353	0	0	0
22.31185	0.129896	0.2779394	-0.004685522	-0.001079199	-0.1414256	-0.03257404	0	0
22.32841	0.1298443	0.2779036	-0.003123561	-0.002160943	0.04714279	-0.03264897	0	0
22.34498	0.1297408	0.2778321	-0.006247482	-0.004319091	-0.09429098	-0.06514055	0	0
22.36155	0.1296632	0.2777784	-0.004686601	-0.003240141	0.0471102	0.03256464	0	0
22.37811	0.129482	0.2776532	-0.01093264	-0.007558859	-0.1885168	-0.1303467	0	0
22.39468	0.1294303	0.2776174	-0.00312464	-0.002160445	0.235646	0.1629245	0	0
22.42793	0.129275	0.27751	-0.00466868	-0.003228061	-0.03099121	-0.02142868	0	0
22.48924	0.1290939	0.2774206	-0.002954997	-0.001458904	0.01812295	0.01870962	0	0
22.50581	0.1290421	0.2773848	-0.00312464	-0.002160445	-0.002178507	-0.009008978	0	0
22.5225	0.1289386	0.2773133	-0.006200552	-0.00428603	-0.09247456	-0.06390383	0	0
22.53901	0.1287315	0.2771701	-0.01253953	-0.008668924	-0.1908931	-0.1319873	0	0
22.55552	0.1285245	0.2769912	-0.01254043	-0.0108348	-2.732728E-05	-0.06558528	0	0
22.58864	0.1279809	0.2766155	-0.01641516	-0.01134662	-0.07807659	-0.01031323	0	0
22.60521	0.1277479	0.2764544	-0.01406268	-0.009719304	0.04735016	0.03275421	0	0
22.62177	0.1271524	0.2760429	-0.03594416	-0.02484062	-0.6603842	-0.4563622	0	0
22.63859	0.1266086	0.2756672	-0.03234556	-0.0223508	0.1078115	0.07459313	0	0
22.65491	0.1262719	0.2754346	-0.0206273	-0.01425186	0.3536781	0.2444409	0	0
22.67147	0.1262461	0.2754167	-0.00156322	-0.001079323	0.5796595	0.400522	0	0
22.68812	0.1262461	0.2754167	0	0	0.04706968	0.0324992	0	0
22.70463	0.1262461	0.2754167	0	0	0	0	0	0
22.72117	0.1262202	0.2753988	-0.001565563	-0.001082742	-0.04736055	-0.03275454	0	0
22.73774	0.1262202	0.2753988	0	0	0.04728416	0.0327017	0	0
22.75431	0.1261942	0.2753809	-0.001564119	-0.001079323	-0.04720521	-0.03257403	0	0
22.77088	0.1261683	0.275363	-0.00156322	-0.001081122	2.714469E-05	-5.42929E-05	0	0
22.78744	0.1261424	0.2753451	-0.00156322	-0.001079323	0	5.42929E-05	0	0
22.80401	0.1261165	0.2753272	-0.00156322	-0.001079323	0	0	0	0
22.82058	0.1260906	0.2753093	-0.00156322	-0.001081122	0	-5.42929E-05	0	0
22.83714	0.1260647	0.2752914	-0.0015634	-0.001079447	-5.432062E-06	5.054348E-05	0	0
22.85374	0.126013	0.2752556	-0.003119973	-0.002155977	-0.04693157	-0.03245797	0	0
22.87028	0.1259352	0.2752019	-0.004700298	-0.003246496	-0.0476943	-0.03291192	0	0
22.88684	0.1258057	0.2751125	-0.007816997	-0.005400213	-0.09415972	-0.06506673	0	0
22.90341	0.1257798	0.2750946	-0.00156322	-0.001081122	0.1887394	0.1303504	0	0
22.92029	0.1255985	0.2749693	-0.01074517	-0.007423067	-0.2745671	-0.1896427	0	0
22.94055	0.1253913	0.274862	-0.01022692	-0.005298056	0.01395524	0.05722227	0	0
22.95712	0.1251322	0.2747546	-0.01563669	-0.006481335	-0.1468888	-0.032129	0	0
22.97368	0.1247436	0.2746293	-0.02345639	-0.007560658	-0.2359989	-0.03257402	0	0
22.99034	0.1243809	0.2744862	-0.02177918	-0.008594465	0.05048466	-0.03111798	0	0
23.00688	0.1233962	0.2738777	-0.05954159	-0.0367893	-1.137642	-0.849406	0	0
23.02338	0.1111193	0.2663062	-0.7437719	-0.4587095	-20.70613	-12.76812	0	0
23.03996	0.100867	0.2613279	-0.6184729	-0.3003179	3.787415	4.78771	0	0
23.05651	0.0881917	0.2551292	-0.7656146	-0.3744096	-4.441001	-2.236221	0	0
23.07339	0.08095427	0.2504155	-0.4287566	-0.2792496	10.07476	2.846047	0	0
23.08965	0.07661291	0.247511	-0.2670877	-0.1786882	4.879179	3.034949	0	0
23.10622	0.06815742	0.2433323	-0.5103745	-0.2522288	-7.412389	-2.240611	0	0
23.12293	0.05882679	0.2427941	-0.558122	-0.03219035	-1.434499	6.610711	0	0
23.13935	0.04998465	0.2433502	-0.5386114	0.03387414	0.5888337	1.99383	0	0
23.15592	0.03758755	0.243709	-0.7483761	0.02165641	-6.360002	-0.3704375	0	0
23.17248	0.03130556	0.2438345	-0.3791819	0.007578647	11.14294	-0.4248923	0	0
23.18905	0.01902402	0.2439601	-0.7413152	0.007579546	-10.9292	2.713767E-05	0	0
23.20562	0.0123941	0.2434937	-0.4001826	-0.02815054	10.2954	-1.078336	0	0
23.23875	0.00673674	0.2466324	-0.1707494	0.09472954	4.616384	2.472447	0	0
23.25532	0.005105219	0.2477441	-0.09847881	0.06710601	1.454142	-0.5558079	0	0
23.27188	0.005105219	0.2477083	0	-0.002164043	2.972096	-2.090574	0	0
23.28845	0.004999958	0.2476365	-0.006353531	-0.004329884	-0.1917499	-0.06536523	0	0
23.30502	0.003657878	0.246722	-0.08100811	-0.05520018	-2.25308	-1.535268	0	0
23.32159	-0.003868402	0.2416639	-0.4542872	-0.3053063	-11.26558	-7.548218	0	0
23.33815	-0.008710306	0.2383982	-0.2922579	-0.1971186	4.890053	3.265113	0	0
23.3551	-0.01539352	0.2339825	-0.3943646	-0.2605638	-3.046685	-1.893095	0	0
23.37129	-0.02383759	0.2292595	-0.5216973	-0.2918032	-3.843132	-0.9428627	0	0
23.38812	-0.03377662	0.228505	-0.5904052	-0.04481787	-2.080793	7.479867	0	0
23.40442	-0.04559994	0.2291517	-0.7254331	0.03967872	-4.075386	2.550259	0	0
23.42099	-0.05662362	0.230409	-0.6653901	0.0758926	1.826931	1.10188	0	0
23.43755	-0.06726678	0.232995	-0.6424225	0.1560899	0.6931629	2.420359	0	0
23.45412	-0.07389154	0.2343057	-0.3998716	0.07911348	7.320199	-2.323153	0	0
23.47069	-0.07844397	0.2371778	-0.2747849	0.1733627	3.775127	2.844446	0	0
23.48726	-0.08061439	0.2386674	-0.1310069	0.089913	4.339228	-2.518516	0	0
23.50382	-0.08061439	0.2386674	0	0	3.953795	-2.71358	0	0
23.52039	-0.08061439	0.2386674	0	0	0	0	0	0
23.53696	-0.08061439	0.2387033	0	0.002166741	0	0.06539237	0	0
23.55352	-0.08061439	0.2387033	0	0	0	-0.06539237	0	0
23.57009	-0.08090198	0.2389007	-0.01735911	0.01191483	-0.523899	0.3595902	0	0
23.59015	-0.08126798	0.239152	-0.01825096	0.01252794	-0.02435349	0.01674205	0	0
23.60671	-0.08503132	0.2417357	-0.2271552	0.1559559	-5.704479	3.916539	0	0
23.6233	-0.08816558	0.2438884	-0.1889454	0.12977	1.152446	-0.7897924	0	0
23.63985	-0.09322895	0.2473676	-0.3060131	0.210272	-3.533112	2.429555	0	0
23.65641	-0.09998131	0.251975	-0.4075731	0.2781047	-3.067027	2.048492	0	0
23.67383	-0.1071408	0.2569032	-0.4110859	0.282968	-0.1033686	0.1431112	0	0
23.68955	-0.1123408	0.2604861	-0.3308221	0.2279418	2.422366	-1.660694	0	0
23.70612	-0.1176645	0.2641575	-0.3212648	0.2215574	0.295988	-0.1977251	0	0
23.72287	-0.1242773	0.2687231	-0.3948747	0.2726278	-2.209343	1.532836	0	0
23.73938	-0.1288092	0.2718197	-0.2744944	0.1875596	3.61975	-2.55794	0	0
23.75581	-0.1325343	0.2743967	-0.2266232	0.1567758	1.45295	-0.9343273	0	0
23.78895	-0.1404894	0.2799073	-0.2400855	0.1663102	-0.2715702	0.1923345	0	0
23.80552	-0.1435067	0.2820001	-0.1821232	0.126324	1.166205	-0.8045244	0	0
23.82208	-0.1519255	0.2878481	-0.5081606	0.3529836	-9.839828	6.840601	0	0
23.83895	-0.1539048	0.2892249	-0.1173633	0.08163629	11.68931	-8.116392	0	0
23.85522	-0.1580394	0.2921033	-0.2541586	0.1769404	-4.128727	2.876451	0	0
23.87178	-0.159271	0.2929614	-0.07434107	0.05179312	5.476398	-3.811399	0	0
23.88848	-0.159271	0.2929614	0	0	2.234742	-1.556935	0	0
23.90499	-0.1592967	0.2929792	-0.001554017	0.001082939	-0.04679258	0.03260807	0	0
23.92148	-0.159348	0.293015	-0.003111444	0.002168884	-0.04719342	0.03290649	0	0
23.93805	-0.1595532	0.293158	-0.01238703	0.008630986	-0.2806	0.195488	0	0
23.95462	-0.1596558	0.2932295	-0.006192616	0.004317292	0.1869478	-0.1301876	0	0
23.97118	-0.1596558	0.2932295	0	0	0.1869043	-0.1303036	0	0
23.98775	-0.1596558	0.2932295	0	0	0	0	0	0
24.00431	-0.1596558	0.2932295	0	0	0	0	0	0
24.02088	-0.1596558	0.2932295	0	0	0	0	0	0
24.03759	-0.1596558	0.2932295	0	0	0	0	0	0
24.0541	-0.1597327	0.2932831	-0.004660246	0.003247011	-0.1402912	0.09774741	0	0
24.07061	-0.159784	0.2933189	-0.00310749	0.002166128	0.04702195	-0.03273229	0	0
24.08715	-0.159784	0.2933189	0	0	0.09402782	-0.06554364	0	0
24.10372	-0.159861	0.2933725	-0.004644687	0.00323617	-0.1402981	0.09775221	0	0
24.12028	-0.1599636	0.293444	-0.006192616	0.004317292	-0.0467166	0.03262832	0	0
24.13685	-0.1645256	0.2966257	-0.2753614	0.1920476	-8.123529	5.66571	0	0
24.15367	-0.1665992	0.2980735	-0.1232796	0.08606772	4.554964	-3.174176	0	0
24.17018	-0.1735265	0.3029164	-0.4195322	0.2933013	-8.887713	6.217103	0	0
24.18655	-0.1824483	0.30917	-0.5451069	0.3820832	-3.819313	2.700273	0	0
24.20312	-0.1900215	0.3144935	-0.4571194	0.3213271	2.671617	-1.844775	0	0
24.21968	-0.1953705	0.3182624	-0.3228651	0.2274907	4.051803	-2.831986	0	0
24.2413	-0.1977751	0.3199592	-0.1112628	0.07851111	5.542316	-3.902094	0	0
24.25786	-0.1989892	0.3208165	-0.07328334	0.05174635	0.9947633	-0.7010264	0	0
24.27476	-0.1990145	0.3208343	-0.001496874	0.001058485	2.145402	-1.514851	0	0
24.291	-0.1990903	0.3208879	-0.004670985	0.00329749	-0.09579486	0.06757331	0	0
24.30757	-0.1993179	0.3210486	-0.01373618	0.009703115	-0.2763081	0.195244	0	0
24.32413	-0.2000005	0.3215309	-0.04119956	0.02910754	-0.8288463	0.5856268	0	0
24.3407	-0.2006829	0.3220131	-0.04118967	0.02910575	0.0002986127	-5.430344E-05	0	0
24.35732	-0.2009608	0.3222096	-0.01672711	0.01182457	0.7371781	-0.5207676	0	0
24.37383	-0.2009608	0.3222096	0	0	0.5048542	-0.3568867	0	0
24.3904	-0.2009608	0.3222096	0	0	0	0	0	0
24.44038	-0.2009355	0.3221917	0.0005056866	-0.0003577971	0.007599329	-0.005376884	0	0
24.45667	-0.2009355	0.3221917	0	0	-0.007631045	0.005399324	0	0
24.47323	-0.2009103	0.3221738	0.001524544	-0.001077524	0.0463981	-0.03279346	0	0
24.48991	-0.2009103	0.3221738	0	0	-0.04585509	0.03240967	0	0
24.50643	-0.2009103	0.3221738	0	0	0	0	0	0
24.52397	-0.2009103	0.3221738	0	0	0	0	0	0
24.54053	-0.2009103	0.3221738	0	0	0	0	0	0
24.5571	-0.2009103	0.3221738	0	0	0	0	0	0
24.57397	-0.2009103	0.3221738	0	0	0	0	0	0
24.59023	-0.2009103	0.3221738	0	0	0	0	0	0
24.6068	-0.2009103	0.3221738	0	0	0	0	0	0
24.62351	-0.2009103	0.3221738	0	0	0	0	0	0
24.63993	-0.2009103	0.3221738	0	0	0	0	0	0
24.65653	-0.2009103	0.3221738	0	0	0	0	0	0
24.67307	-0.2009103	0.3221738	0	0	0	0	0	0
24.68963	-0.2009103	0.3221738	0	0	0	0	0	0
24.7062	-0.2009103	0.3221738	0	0	0	0	0	0
24.72277	-0.2009103	0.3221738	0	0	0	0	0	0
24.73933	-0.2009103	0.3221738	0	0	0	0	0	0
24.7559	-0.2009103	0.3221738	0	0	0	0	0	0
24.77262	-0.2009103	0.3221738	0	0	0	0	0	0
24.78904	-0.2009103	0.3221738	0	0	0	0	0	0
24.80564	-0.2009103	0.3221738	0	0	0	0	0	0
24.82217	-0.2009103	0.3221738	0	0	0	0	0	0
24.85826	-0.2009103	0.3221738	0	0	0	0	0	0
24.87483	-0.2009103	0.3221738	0	0	0	0	0	0
24.89139	-0.2009103	0.3221738	0	0	0	0	0	0
24.90796	-0.2009103	0.3221738	0	0	0	0	0	0
24.92472	-0.2009103	0.3221738	0	0	0	0	0	0
24.94109	-0.2009103	0.3221738	0	0	0	0	0	0
24.95766	-0.2009103	0.3221738	0	0	0	0	0	0
24.97426	-0.2009103	0.3221738	0	0	0	0	0	0
24.99079	-0.2009103	0.3221738	0	0	0	0	0	0
25.00736	-0.2009103	0.3221738	0	0	0	0	0	0
25.02393	-0.2009103	0.3221738	0	0	0	0	0	0
25.04081	-0.2009103	0.3221738	0	0	0	0	0	0
25.05706	-0.2009103	0.3221738	0	0	0	0	0	0
25.09035	-0.2009103	0.3221738	0	0	0	0	0	0
25.10676	-0.2009103	0.3221738	0	0	0	0	0	0
25.12337	-0.2009103	0.3221738	0	0	0	0	0	0
25.1399	-0.2009103	0.3221738	0	0	0	0	0	0
25.15646	-0.2009103	0.3221738	0	0	0	0	0	0
25.17303	-0.2009103	0.3221738	0	0	0	0	0	0
25.1896	-0.2009103	0.3221738	0	0	0	0	0	0
25.20643	-0.2009103	0.3221738	0	0	0	0	0	0
25.22294	-0.2009103	0.3221738	0	0	0	0	0	0
25.2393	-0.2009103	0.3221738	0	0	0	0	0	0
25.25586	-0.2009103	0.3221738	0	0	0	0	0	0
25.32213	-0.200885	0.322156	0.0003813608	-0.000269381	0.004603797	-0.003251974	0	0
25.33903	-0.200885	0.322156	0	0	-0.004585741	0.00323922	0	0
25.35526	-0.200885	0.322156	0	0	0	0	0	0
25.37205	-0.200885	0.322156	0	0	0	0	0	0
25.3884	-0.200885	0.322156	0	0	0	0	0	0
25.40496	-0.200885	0.322156	0	0	0	0	0	0
25.42158	-0.200885	0.322156	0	0	0	0	0	0
25.4381	-0.200885	0.322156	0	0	0	0	0	0
25.45466	-0.200885	0.322156	0	0	0	0	0	0
25.47123	-0.200885	0.322156	0	0	0	0	0	0
25.4878	-0.200885	0.322156	0	0	0	0	0	0
25.50437	-0.200885	0.322156	0	0	0	0	0	0
25.52115	-0.200885	0.322156	0	0	0	0	0	0
25.5375	-0.200885	0.322156	0	0	0	0	0	0
25.55677	-0.200885	0.322156	0	0	0	0	0	0
25.57369	-0.200885	0.322156	0	0	0	0	0	0
25.58991	-0.200885	0.322156	0	0	0	0	0	0
25.60647	-0.200885	0.322156	0	0	0	0	0	0
25.62304	-0.200885	0.322156	0	0	0	0	0	0
25.63974	-0.200885	0.322156	0	0	0	0	0	0
25.65625	-0.200885	0.322156	0	0	0	0	0	0
25.67276	-0.200885	0.322156	0	0	0	0	0	0
25.70588	-0.200885	0.322156	0	0	0	0	0	0
25.72244	-0.200885	0.322156	0	0	0	0	0	0
25.73901	-0.200885	0.322156	0	0	0	0	0	0
25.75558	-0.200885	0.322156	0	0	0	0	0	0
25.77214	-0.200885	0.322156	0	0	0	0	0	0
25.78884	-0.200885	0.322156	0	0	0	0	0	0
25.80527	-0.200885	0.322156	0	0	0	0	0	0
25.82184	-0.200885	0.322156	0	0	0	0	0	0
25.83841	-0.200885	0.322156	0	0	0	0	0	0
25.85498	-0.2008597	0.3221381	0.001525443	-0.001079323	0.04603797	-0.03257403	0	0
25.8719	-0.2008597	0.3221381	0	0	-0.04554508	0.03222529	0	0
25.88811	-0.2008597	0.3221381	0	0	0	0	0	0
25.90468	-0.2008597	0.3221381	0	0	0	0	0	0
25.92125	-0.2008597	0.3221381	0	0	0	0	0	0
25.93781	-0.2008597	0.3221381	0	0	0	0	0	0
25.95447	-0.2008597	0.3221381	0	0	0	0	0	0
25.97098	-0.2008597	0.3221381	0	0	0	0	0	0
25.98751	-0.2008597	0.3221381	0	0	0	0	0	0
26.00408	-0.2008597	0.3221381	0	0	0	0	0	0
26.02065	-0.2008597	0.3221381	0	0	0	0	0	0
26.03721	-0.2008597	0.3221381	0	0	0	0	0	0
26.05378	-0.2008597	0.3221381	0	0	0	0	0	0
26.07035	-0.2008597	0.3221381	0	0	0	0	0	0
26.08692	-0.2008597	0.3221381	0	0	0	0	0	0
26.10357	-0.2008597	0.3221381	0	0	0	0	0	0
26.12005	-0.2008597	0.3221381	0	0	0	0	0	0
26.13662	-0.2008345	0.3221202	0.001525443	-0.001077524	0.04616286	-0.03260797	0	0
26.17199	-0.2008345	0.3221202	0	0	-0.02936882	0.02074519	0	0
26.18854	-0.2008345	0.3221202	0	0	0	0	0	0
26.20511	-0.2008345	0.3221202	0	0	0	0	0	0
26.22167	-0.2008345	0.3221202	0	0	0	0	0	0
26.23824	-0.2008345	0.3221202	0	0	0	0	0	0
26.25481	-0.2008345	0.3221202	0	0	0	0	0	0
26.27169	-0.2008345	0.3221202	0	0	0	0	0	0
26.2882	-0.2008345	0.3221202	0	0	0	0	0	0
26.30472	-0.2008345	0.3221202	0	0	0	0	0	0
26.32107	-0.2008345	0.3221202	0	0	0	0	0	0
26.33774	-0.2008345	0.3221202	0	0	0	0	0	0
26.35421	-0.2008345	0.3221202	0	0	0	0	0	0
26.37078	-0.2008345	0.3221202	0	0	0	0	0	0
26.38778	-0.2008345	0.3221202	0	0	0	0	0	0
26.40391	-0.2008345	0.3221202	0	0	0	0	0	0
26.4208	-0.2008345	0.3221202	0	0	0	0	0	0
26.43704	-0.2008345	0.3221202	0	0	0	0	0	0
26.45382	-0.2008345	0.3221202	0	0	0	0	0	0
26.47018	-0.2008345	0.3221202	0	0	0	0	0	0
26.48685	-0.2008345	0.3221202	0	0	0	0	0	0
26.50336	-0.2008597	0.3221381	-0.001530553	0.001081134	-0.04612581	0.03258179	0	0
26.51988	-0.2008597	0.3221381	0	0	0.0463389	-0.03273231	0	0
26.53688	-0.2008597	0.3221381	0	0	0	0	0	0
26.55301	-0.2008597	0.3221381	0	0	0	0	0	0
26.56958	-0.2008597	0.3221381	0	0	0	0	0	0
26.58614	-0.2008597	0.3221381	0	0	0	0	0	0
26.60271	-0.2008597	0.3221381	0	0	0	0	0	0
26.61928	-0.2008597	0.3221381	0	0	0	0	0	0
26.63595	-0.2008597	0.3221381	0	0	0	0	0	0
26.65247	-0.2008597	0.3221381	0	0	0	0	0	0
26.66898	-0.2008597	0.3221381	0	0	0	0	0	0
26.68554	-0.2008597	0.3221381	0	0	0	0	0	0
26.70211	-0.2008597	0.3221381	0	0	0	0	0	0
26.71868	-0.2008597	0.3221381	0	0	0	0	0	0
26.73524	-0.2008597	0.3221381	0	0	0	0	0	0
26.75181	-0.2008597	0.3221381	0	0	0	0	0	0
26.76838	-0.2008597	0.3221381	0	0	0	0	0	0
26.78829	-0.2008597	0.3221381	0	0	0	0	0	0
26.80507	-0.2008597	0.3221381	0	0	0	0	0	0
26.82142	-0.200885	0.322156	-0.00154555	0.00109355	-0.04664479	0.03300339	0	0
26.83799	-0.200885	0.322156	0	0	0.04695019	-0.03321948	0	0
26.85461	-0.200885	0.322156	0	0	0	0	0	0
26.87112	-0.2009355	0.3221917	-0.003059497	0.002161768	-0.09234113	0.06524605	0	0
26.88769	-0.2009355	0.3221917	0	0	0.09247955	-0.06534385	0	0
26.90426	-0.2010113	0.3222453	-0.00457543	0.003234371	-0.1380868	0.09761352	0	0
26.92083	-0.2010871	0.3222989	-0.00457543	0.003234371	0	0	0	0
26.93739	-0.2011882	0.3223703	-0.006099974	0.004311895	-0.04601083	0.03251974	0	0
26.95396	-0.201264	0.3224239	-0.00457543	0.003234371	0.04601083	-0.03251974	0	0
26.97069	-0.2016429	0.3226918	-0.02264752	0.01601153	-0.54273	0.3837158	0	0
26.98709	-0.2020218	0.3229597	-0.02310043	0.01633366	-0.01366968	0.00972245	0	0
27.00372	-0.2026531	0.3233704	-0.03798049	0.02471135	-0.4505855	0.2536861	0	0
27.02023	-0.2062107	0.3257814	-0.2154561	0.1460162	-5.356224	3.660989	0	0
27.03679	-0.2150186	0.3316747	-0.531707	0.3557571	-9.560983	6.340941	0	0
27.05375	-0.2180559	0.333514	-0.1791207	0.1084751	10.51817	-7.376782	0	0
27.06993	-0.2244932	0.3367462	-0.397952	0.1998106	-6.604724	2.75667	0	0
27.08649	-0.2324074	0.3358355	-0.4777021	-0.05497172	-2.435602	-7.781168	0	0
27.10306	-0.242426	0.3339247	-0.6047204	-0.1153329	-3.833421	-1.821703	0	0
27.11963	-0.2550828	0.3313532	-0.7639655	-0.1552157	-4.806028	-1.203665	0	0
27.13619	-0.2631231	0.3295496	-0.485314	-0.1088677	8.40972	1.398783	0	0
27.15276	-0.265575	0.3287638	-0.1479986	-0.04742905	10.1802	1.854223	0	0
27.20246	-0.2869602	0.325585	-0.4302709	-0.06395829	-4.259499	-0.2494267	0	0
27.21903	-0.289355	0.3266386	-0.1445537	0.06359911	4.311481	1.924845	0	0
27.2356	-0.2914085	0.3281924	-0.1239477	0.09378238	0.6218927	0.9109329	0	0
27.25216	-0.2936524	0.3298531	-0.1354389	0.1002457	-0.3468052	0.1950643	0	0
27.26873	-0.296495	0.3319247	-0.1715818	0.1250378	-1.090796	0.7482254	0	0
27.2853	-0.2983954	0.3333354	-0.1147069	0.08515319	1.716489	-1.203719	0	0
27.30187	-0.3002455	0.3347104	-0.111674	0.08299635	0.09153312	-0.06509375	0	0
27.31843	-0.304658	0.337889	-0.2663392	0.1918605	-4.667805	3.285526	0	0
27.335	-0.3079116	0.3401033	-0.1963864	0.1336544	2.111177	-1.756663	0	0
27.35157	-0.3121597	0.342389	-0.2564202	0.1379663	-1.811822	0.1301331	0	0
27.36814	-0.3229185	0.3426926	-0.6494017	0.01832331	-11.86021	-3.610831	0	0
27.38499	-0.3338118	0.3417283	-0.6461368	-0.0571968	0.09767475	-2.259303	0	0
27.40127	-0.3450663	0.340639	-0.6915029	-0.0669295	-1.36915	-0.2937334	0	0
27.41802	-0.3560917	0.3395498	-0.6582963	-0.06503744	1.005532	0.05729377	0	0
27.45416	-0.3823879	0.3370676	-0.727573	-0.06867694	-1.309807	-0.0688117	0	0
27.47073	-0.3876545	0.3361926	-0.3178948	-0.05281487	7.772367	0.3009333	0	0
27.4873	-0.3977846	0.335139	-0.6114491	-0.06359551	-8.859487	-0.3253602	0	0
27.50386	-0.4040085	0.3344069	-0.3756782	-0.04419288	7.115581	0.5855725	0	0
27.52043	-0.4129404	0.333389	-0.5391327	-0.06143866	-4.933066	-0.5204788	0	0
27.537	-0.4192372	0.3327818	-0.380071	-0.03664842	4.80049	0.7481712	0	0
27.55356	-0.4259353	0.3322461	-0.4043484	-0.03234024	-0.7327343	0.1300284	0	0
27.57013	-0.4337203	0.3310318	-0.4699031	-0.07329683	-1.978559	-1.236143	0	0
27.60326	-0.438261	0.3313175	-0.1370389	0.008623791	6.69724	1.648246	0	0
27.61983	-0.4417292	0.3284781	-0.2093401	-0.1713893	-1.454702	-3.621871	0	0
27.63668	-0.4417077	0.3284959	0.001275546	0.001061481	6.303416	5.161199	0	0
27.65297	-0.4417077	0.3284959	0	0	-0.03849606	-0.03203556	0	0
27.6697	-0.4417077	0.3284959	0	0	0	0	0	0
27.6861	-0.4417077	0.3284959	0	0	0	0	0	0
27.70267	-0.4416862	0.3284781	0.001298785	-0.001079323	0.03939699	-0.03273988	0	0
27.71924	-0.4416862	0.3284781	0	0	-0.03919291	0.03257028	0	0
27.7358	-0.4416862	0.3284781	0	0	0	0	0	0
27.75237	-0.4416862	0.3284781	0	0	0	0	0	0
27.76893	-0.4416647	0.3284959	0.001298785	0.001079323	0.03919742	0.03257403	0	0
27.7855	-0.4416647	0.3284959	0	0	-0.03919742	-0.03257403	0	0
27.80207	-0.4416647	0.3284959	0	0	0	0	0	0
27.81863	-0.4416862	0.3284781	-0.001298785	-0.001079323	-0.03919742	-0.03257403	0	0
27.8352	-0.4416862	0.3284781	0	0	0.03919742	0.03257403	0	0
27.85183	-0.4416862	0.3284781	0	0	0	0	0	0
27.86834	-0.4416862	0.3284781	0	0	0	0	0	0
27.8849	-0.4416432	0.3284781	0.002596968	0	0.07853034	0	0	0
27.93182	-0.4416432	0.3284781	0	0	-0.04090855	0	0	0
27.94839	-0.4416432	0.3284781	0	0	0	0	0	0
27.96496	-0.4416432	0.3284781	0	0	0	0	0	0
28.03123	-0.4416432	0.3284781	0	0	0	0	0	0
28.04779	-0.4416217	0.3284602	0.001298785	-0.001077524	0.01567897	-0.0130079	0	0
28.06449	-0.4416217	0.3284602	0	0	-0.03905131	0.03239852	0	0
28.08093	-0.4416002	0.3284424	0.001308578	-0.001085648	0.03949296	-0.03276493	0	0
28.0975	-0.4415787	0.3284245	0.001296986	-0.001077524	-0.0003511417	0.000246112	0	0
28.11406	-0.4415787	0.3284245	0	0	-0.03914313	0.03251974	0	0
28.13063	-0.4415572	0.3284066	0.001298785	-0.001079323	0.03919742	-0.03257403	0	0
28.1472	-0.4415572	0.3284066	0	0	-0.03919742	0.03257403	0	0
28.1673	-0.4414926	0.3283531	0.003210109	-0.002664464	0.08754794	-0.0726668	0	0
28.18386	-0.4414926	0.3283531	0	0	-0.08754794	0.0726668	0	0
28.20043	-0.4414711	0.3283352	0.001298785	-0.001079323	0.03919742	-0.03257403	0	0
28.21709	-0.4414711	0.3283352	0	0	-0.03908493	0.03248055	0	0
28.23361	-0.4414711	0.3283352	0	0	0	0	0	0
28.25013	-0.4414711	0.3283352	0	0	0	0	0	0
28.2667	-0.4414711	0.3283352	0	0	0	0	0	0
28.28326	-0.4414711	0.3283352	0	0	0	0	0	0
28.30015	-0.4414711	0.3283352	0	0	0	0	0	0
28.3164	-0.4414711	0.3283352	0	0	0	0	0	0
28.33297	-0.4414711	0.3283352	0	0	0	0	0	0
28.34953	-0.4414711	0.3283352	0	0	0	0	0	0
28.3661	-0.4414711	0.3283352	0	0	0	0	0	0
28.38272	-0.4414711	0.3283352	0	0	0	0	0	0
28.39923	-0.4414711	0.3283352	0	0	0	0	0	0
28.4158	-0.4414711	0.3283352	0	0	0	0	0	0
28.43237	-0.4414711	0.3283352	0	0	0	0	0	0
28.44894	-0.4414711	0.3283352	0	0	0	0	0	0
28.4655	-0.4414711	0.3283352	0	0	0	0	0	0
28.48207	-0.4414711	0.3283352	0	0	0	0	0	0
28.4988	-0.4414711	0.3283352	0	0	0	0	0	0
28.51532	-0.4414711	0.3283352	0	0	0	0	0	0
28.53177	-0.4414711	0.3283352	0	0	0	0	0	0
28.56491	-0.4414711	0.3283352	0	0	0	0	0	0
28.58147	-0.4414496	0.3283173	0.001298785	-0.001077524	0.02613162	-0.02167983	0	0
28.59838	-0.4414496	0.3283173	0	0	-0.03880429	0.03219358	0	0
28.61461	-0.4414281	0.3282995	0.001325646	-0.001099809	0.04000808	-0.0331923	0	0
28.63118	-0.4414066	0.3282816	0.001298785	-0.001077524	-0.0008189593	0.0006794438	0	0
28.64774	-0.4413636	0.3282459	0.002595772	-0.002156847	0.03914313	-0.03257403	0	0
28.66431	-0.4413205	0.3282102	0.00259787	-0.002155297	6.33155E-05	4.680147E-05	0	0
28.68088	-0.4412775	0.3281745	0.002597571	-0.002156847	-9.022985E-06	-4.680147E-05	0	0
28.69744	-0.4411269	0.3280495	0.009091497	-0.007544468	0.1959871	-0.1625987	0	0
28.71401	-0.4410193	0.3279602	0.006493927	-0.00538942	-0.07839483	0.06503949	0	0
28.73058	-0.4408686	0.3278352	0.009095095	-0.007546267	0.07850341	-0.06509378	0	0
28.74714	-0.4404811	0.3275137	0.02338893	-0.01940263	0.4313888	-0.3578258	0	0
28.76371	-0.4401581	0.3272458	0.01949797	-0.01617006	-0.1174294	0.09755922	0	0
28.78051	-0.4396411	0.3268172	0.03078334	-0.02551705	0.3382567	-0.2801575	0	0
28.79685	-0.438865	0.3261743	0.04749883	-0.0393507	0.5044745	-0.4175005	0	0
28.83219	-0.4355389	0.323424	0.09409822	-0.07780883	0.9015979	-0.744082	0	0
28.84876	-0.4311388	0.3198341	0.2655944	-0.2166849	3.303454	-2.675107	0	0
28.86533	-0.4268297	0.316369	0.2600953	-0.2091548	-0.1659648	0.2272582	0	0
28.8819	-0.4244722	0.3144399	0.1422998	-0.1164428	-3.555076	2.798055	0	0
28.89859	-0.423882	0.314029	0.03534634	-0.02460661	-3.215275	2.760814	0	0
28.91503	-0.4234665	0.3136896	0.0252807	-0.02064959	-0.3037992	0.11943	0	0
28.93159	-0.4214963	0.3121534	0.1189234	-0.09273004	2.837413	-2.184067	0	0
28.96473	-0.4211895	0.3119747	0.009259325	-0.005391529	-2.20653	1.757322	0	0
28.98129	-0.4211237	0.3119926	0.00397011	0.001079323	-0.1064233	0.1301988	0	0
28.99786	-0.421058	0.3120105	0.003968311	0.001077524	-5.428939E-05	-5.428939E-05	0	0
29.01443	-0.4210141	0.3120462	0.002646445	0.002157096	-0.03989629	0.0325834	0	0
29.03099	-0.4209703	0.3120462	0.00264614	0	-9.198667E-06	-0.06510502	0	0
29.04756	-0.4209045	0.3120641	0.00397011	0.001077524	0.03995748	0.03251974	0	0
29.06421	-0.4208387	0.3120462	0.003951005	-0.001072339	-0.0005751899	-0.06472651	0	0
29.08072	-0.420773	0.3120283	0.003982949	-0.001082814	0.0009632924	-0.0003158691	0	0
29.09726	-0.4207511	0.3120105	0.001324305	-0.001079264	-0.08043249	0.0001073944	0	0
29.11383	-0.4206634	0.3120462	0.005294079	0.002156847	0.1199047	0.09774479	0	0
29.1304	-0.4205098	0.3121713	0.009265988	0.007548066	0.1198724	0.1627073	0	0
29.14697	-0.420466	0.3121355	0.002647634	-0.002156599	-0.1997308	-0.2928705	0	0
29.16353	-0.4204002	0.3121177	0.003971024	-0.001077772	0.03994229	0.03256093	0	0
29.1801	-0.4203344	0.3121355	0.003971909	0.001077524	2.669102E-05	0.06505447	0	0
29.21323	-0.4200054	0.3121177	0.009931243	-0.0005387931	0.1199066	-0.03252162	0	0
29.2298	-0.4198737	0.3122248	0.007947415	0.006468743	-0.03991623	0.1409973	0	0
29.24636	-0.419764	0.3123142	0.006621647	0.005391219	-0.04001177	-0.03251974	0	0
29.26293	-0.4194787	0.3125464	0.0172224	0.01401681	0.3199313	0.2603208	0	0
29.2795	-0.4178312	0.3138147	0.09944343	0.07655638	2.481436	1.887448	0	0
29.29607	-0.4157849	0.315333	0.1235123	0.09164712	0.726401	0.4554392	0	0
29.31263	-0.4131391	0.3172264	0.1597002	0.1142841	1.092153	0.6831861	0	0
29.3294	-0.4062535	0.3216738	0.4106975	0.2652659	7.530034	4.529523	0	0
29.34591	-0.4034744	0.3237991	0.1682891	0.1286996	-7.284035	-4.103627	0	0
29.36233	-0.4022495	0.3247813	0.07459672	0.0598193	-2.844836	-2.091453	0	0
29.3789	-0.39888	0.3274066	0.2033822	0.1584608	3.904059	2.990261	0	0
29.39547	-0.3975832	0.3284066	0.07827431	0.06036294	-3.775765	-2.9606	0	0
29.41203	-0.3969343	0.3288531	0.03917314	0.026952	-1.180143	-1.008402	0	0
29.4286	-0.3952544	0.3301567	0.1013988	0.07868805	1.878082	1.561487	0	0
29.44517	-0.3902907	0.3339604	0.2996129	0.2295918	5.982113	4.554285	0	0
29.46173	-0.3862779	0.3370676	0.2422127	0.1875486	-1.732341	-1.268867	0	0
29.4783	-0.3836331	0.3391569	0.1596373	0.1261099	-2.492131	-1.854223	0	0
29.51303	-0.3774173	0.3439069	0.1789821	0.1367737	0.37712	0.2078862	0	0
29.52958	-0.3740698	0.3463534	0.2022876	0.1478378	0.4544995	0.2157708	0	0
29.54615	-0.3713078	0.3484427	0.1667158	0.1261135	-1.074175	-0.6560178	0	0
29.56271	-0.3683566	0.3504249	0.1781351	0.1196484	0.3446333	-0.1951184	0	0
29.57928	-0.3653068	0.3513	0.1840839	0.05281847	0.1795373	-2.01693	0	0
29.59609	-0.3618126	0.348657	0.2078458	-0.1572144	0.7118897	-6.29244	0	0
29.61241	-0.357709	0.3454784	0.2514316	-0.1947565	1.315497	-1.133089	0	0
29.62898	-0.3526428	0.3415676	0.3057956	-0.2360533	1.652984	-1.255666	0	0
29.64563	-0.3503696	0.3398176	0.1365661	-0.1051335	-5.095331	3.941865	0	0
29.66214	-0.347325	0.337514	0.1843866	-0.1395096	1.442227	-1.036756	0	0
29.67868	-0.3463009	0.3367283	0.06190909	-0.04749834	-3.705336	2.783634	0	0
29.69525	-0.3456255	0.3362105	0.04076783	-0.0312572	-0.6385222	0.4905258	0	0
29.71181	-0.3438539	0.334889	0.1069321	-0.07976197	1.996843	-1.463877	0	0
29.77823	-0.3399298	0.3327818	0.05908726	-0.03172927	-0.5765887	0.5788524	0	0
29.81125	-0.3305429	0.3398533	0.2842625	0.2141454	2.264573	2.472745	0	0
29.82779	-0.3220426	0.3459962	0.5140228	0.3714713	4.63613	3.17454	0	0
29.84435	-0.3177505	0.3487284	0.2590735	0.164917	-7.701479	-6.23957	0	0
29.86092	-0.3070749	0.3522286	0.644381	0.2112721	11.6286	1.399001	0	0
29.8775	-0.3011578	0.3527465	0.3569533	0.03124281	-8.67209	-5.431731	0	0
29.89405	-0.2891858	0.3538359	0.7231279	0.06579961	11.05181	1.042986	0	0
29.91062	-0.2843195	0.3545324	0.2937324	0.04204143	-12.96366	-0.7172709	0	0
29.92719	-0.2819175	0.3562648	0.1449819	0.1045648	-4.489299	1.886959	0	0
29.94385	-0.2813348	0.3566934	0.03498361	0.02573098	-3.310606	-2.372654	0	0
29.96032	-0.281359	0.3566755	-0.001474057	-0.001085195	-1.100231	-0.8092672	0	0
29.97689	-0.281359	0.3566755	0	0	0.04461296	0.03284389	0	0
29.99345	-0.281359	0.3566755	0	0	0	0	0	0
30.01002	-0.281359	0.3566755	0	0	0	0	0	0
30.02659	-0.2813348	0.3566934	0.00146608	0.001079323	0.04424639	0.03257403	0	0
30.04315	-0.2813105	0.3566755	0.00146608	-0.001079323	0	-0.06514806	0	0
30.05972	-0.2813105	0.3566755	0	0	-0.04424639	0.03257403	0	0
30.07629	-0.2812619	0.3566755	0.002932161	0	0.08849279	0	0	0
30.09286	-0.2810919	0.3565862	0.01026256	-0.00538942	0.221232	-0.162653	0	0
30.10946	-0.2804602	0.3561933	0.03803692	-0.02365912	0.8372198	-0.550715	0	0
30.12599	-0.2717882	0.3501571	0.5247738	-0.365274	14.69059	-10.31055	0	0
30.14418	-0.2664569	0.3464069	0.2930498	-0.2061393	-6.674547	4.583697	0	0
30.16468	-0.2615521	0.3430855	0.2392998	-0.1620516	-1.389297	1.13955	0	0
30.18124	-0.2574221	0.3405855	0.2492858	-0.1509002	0.2694299	0.3008725	0	0
30.19781	-0.2475281	0.3407819	0.5972047	0.01185636	10.50021	4.912002	0	0
30.21438	-0.2445328	0.3413355	0.1807983	0.03341404	-12.56717	0.6506121	0	0
30.23095	-0.2307371	0.3429605	0.8327067	0.09808528	19.67464	1.951782	0	0
30.24756	-0.2179053	0.3436926	0.7723953	0.04406932	-1.817693	-1.627956	0	0
30.26408	-0.2097882	0.3446748	0.4913648	0.05945474	-8.482003	0.4643597	0	0
30.28065	-0.2013651	0.3453533	0.5084232	0.04095851	0.5155647	-0.5590217	0	0
30.29721	-0.1997477	0.3463534	0.09762477	0.06036114	-12.39792	0.5855725	0	0
30.31378	-0.1997224	0.3464069	0.001525619	0.003234744	-2.900445	-1.724177	0	0
30.33062	-0.1997224	0.3464069	0	0	-0.04566996	-0.09683324	0	0
30.34713	-0.1997224	0.3464069	0	0	0	0	0	0
30.36348	-0.1996718	0.3464069	0.003092372	0	0.09410258	0	0	0
30.38005	-0.1996466	0.3464248	0.001526343	0.001077524	-0.04757505	0.03273456	0	0
30.39661	-0.1995454	0.3464962	0.006103572	0.004311895	0.1381411	0.09761352	0	0
30.41318	-0.1993937	0.3466034	0.009156257	0.006466944	0.09213021	0.06503949	0	0
30.42975	-0.1992926	0.3466391	0.006104471	0.002156847	-0.09210308	-0.130079	0	0
30.44632	-0.1992673	0.3466212	0.001526343	-0.001079323	-0.1381682	-0.09766781	0	0
30.46288	-0.1992168	0.3466212	0.003053037	0	0.04607837	0.03257591	0	0
30.47972	-0.1991409	0.3465677	0.004502958	-0.003179495	0.04339897	-0.09516849	0	0
30.49624	-0.1991156	0.3465498	0.001531456	-0.001081134	-0.08908527	0.06290861	0	0
30.51258	-0.1990903	0.3465319	0.001547183	-0.00109406	0.0004786756	-0.0003934227	0	0
30.52926	-0.1990903	0.3465319	0	0	-0.0468505	0.03312941	0	0
30.54571	-0.1990903	0.3465319	0	0	0	0	0	0
30.56228	-0.1990903	0.3465319	0	0	0	0	0	0
30.57885	-0.1990903	0.3465319	0	0	0	0	0	0
30.59541	-0.1990903	0.3465319	0	0	0	0	0	0
30.61198	-0.1990903	0.3465319	0	0	0	0	0	0
30.62855	-0.1990903	0.3465319	0	0	0	0	0	0
30.64511	-0.1990903	0.3465319	0	0	0	0	0	0
30.66168	-0.1990903	0.3465319	0	0	0	0	0	0
30.67825	-0.1990903	0.3465319	0	0	0	0	0	0
30.69481	-0.1990903	0.3465319	0	0	0	0	0	0
30.71138	-0.1990903	0.3465319	0	0	0	0	0	0
30.72795	-0.1990903	0.3465319	0	0	0	0	0	0
30.74756	-0.1991156	0.3465141	-0.001289545	-0.0009103565	-0.03564763	-0.02516551	0	0
30.76413	-0.1991156	0.3465141	0	0	0.03564575	0.02516418	0	0
30.78094	-0.1991409	0.3465319	-0.001503835	0.001061635	-0.04504872	0.03180223	0	0
30.79726	-0.1991409	0.3465319	0	0	0.04538845	-0.03204206	0	0
30.81383	-0.1991409	0.3465319	0	0	0	0	0	0
30.83039	-0.1991662	0.3465141	-0.001525443	-0.001077524	-0.04603797	-0.03251974	0	0
30.84699	-0.1991662	0.3465141	0	0	0.0460009	0.03249356	0	0
30.86353	-0.1991915	0.3465319	-0.001528983	0.001079388	-0.04614746	0.03257788	0	0
30.88009	-0.1991915	0.3465319	0	0	0.04618468	-0.03260415	0	0
30.89666	-0.1991915	0.3465319	0	0	0	0	0	0
30.91323	-0.1991915	0.3465319	0	0	0	0	0	0
30.92979	-0.1992168	0.3465498	-0.001526518	0.001079447	-0.04607307	0.03257966	0	0
30.96307	-0.1992168	0.3465498	0	0	0.03062781	-0.02165785	0	0
30.97949	-0.199242	0.3465319	-0.001539637	-0.001088724	-0.03097874	-0.02190601	0	0
30.99606	-0.199242	0.3465319	0	0	0.04666781	0.03300022	0	0
31.01263	-0.199242	0.3465319	0	0	0	0	0	0
31.02919	-0.199242	0.3465319	0	0	0	0	0	0
31.04576	-0.1992673	0.3465141	-0.001526343	-0.001077524	-0.04606511	-0.03251974	0	0
31.06233	-0.1992673	0.3465141	0	0	0.04606511	0.03251974	0	0
31.0789	-0.1992673	0.3465141	0	0	0	0	0	0
31.09567	-0.1992926	0.3464962	-0.001507769	-0.001064412	-0.045226	-0.03192737	0	0
31.11203	-0.1992926	0.3464962	0	0	0.04550718	0.03212587	0	0
31.1286	-0.1992926	0.3464962	0	0	0	0	0	0
31.14516	-0.1992926	0.3464962	0	0	0	0	0	0
31.16173	-0.1992926	0.3464962	0	0	0	0	0	0
31.19486	-0.1993179	0.3464784	-0.0007632153	-0.0005387931	-0.01535651	-0.01084096	0	0
31.21143	-0.1993432	0.3464605	-0.001525443	-0.001077524	-0.01533665	-0.01083971	0	0
31.228	-0.1993432	0.3464605	0	0	0.04603797	0.03251974	0	0
31.24456	-0.1993432	0.3464605	0	0	0	0	0	0
31.26113	-0.1993432	0.3464605	0	0	0	0	0	0
31.27779	-0.1993685	0.3464426	-0.001517433	-0.001073023	-0.04566479	-0.03229095	0	0
31.29431	-0.1993685	0.3464426	0	0	0.0457383	0.03234293	0	0
31.31086	-0.1993685	0.3464426	0	0	0	0	0	0
31.3274	-0.1993685	0.3464426	0	0	0	0	0	0
31.34396	-0.1993685	0.3464426	0	0	0	0	0	0
31.36053	-0.1993685	0.3464426	0	0	0	0	0	0
31.3771	-0.1993685	0.3464426	0	0	0	0	0	0
31.39367	-0.1993685	0.3464426	0	0	0	0	0	0
31.41023	-0.1993685	0.3464426	0	0	0	0	0	0
31.42869	-0.1993685	0.3464426	0	0	0	0	0	0
31.44526	-0.1993685	0.3464426	0	0	0	0	0	0
31.46182	-0.1993685	0.3464426	0	0	0	0	0	0
31.47844	-0.1993685	0.3464426	0	0	0	0	0	0
31.49496	-0.1993685	0.3464426	0	0	0	0	0	0
31.51153	-0.1993685	0.3464426	0	0	0	0	0	0
31.52809	-0.1993685	0.3464426	0	0	0	0	0	0
31.54466	-0.1993685	0.3464426	0	0	0	0	0	0
31.61104	-0.1993937	0.3464605	-0.0003809607	0.0002693888	-0.004592938	0.003247806	0	0
31.66063	-0.1993937	0.3464605	0	0	0.00328503	-0.002322944	0	0
31.67759	-0.1993937	0.3464605	0	0	0	0	0	0
31.69376	-0.1993937	0.3464605	0	0	0	0	0	0
31.71033	-0.1993937	0.3464605	0	0	0	0	0	0
31.7269	-0.1993937	0.3464605	0	0	0	0	0	0
31.74363	-0.1993937	0.3464605	0	0	0	0	0	0
31.76003	-0.1993937	0.3464605	0	0	0	0	0	0
31.77666	-0.1993937	0.3464605	0	0	0	0	0	0
31.79317	-0.1993937	0.3464605	0	0	0	0	0	0
31.81018	-0.1993937	0.3464605	0	0	0	0	0	0
31.8263	-0.1993937	0.3464605	0	0	0	0	0	0
31.84287	-0.1993937	0.3464605	0	0	0	0	0	0
31.876	-0.1993937	0.3464605	0	0	0	0	0	0
31.89257	-0.1993937	0.3464605	0	0	0	0	0	0
31.90914	-0.1993937	0.3464605	0	0	0	0	0	0
31.9257	-0.1993937	0.3464605	0	0	0	0	0	0
31.94228	-0.1993937	0.3464605	0	0	0	0	0	0
31.95884	-0.1993937	0.3464605	0	0	0	0	0	0
31.9754	-0.1993937	0.3464605	0	0	0	0	0	0
31.99197	-0.1993937	0.3464605	0	0	0	0	0	0
32.00854	-0.1993937	0.3464605	0	0	0	0	0	0
32.04167	-0.1993937	0.3464605	0	0	0	0	0	0
32.05824	-0.199419	0.3464784	-0.001526343	0.001077524	-0.03071008	0.02167983	0	0
32.07487	-0.199419	0.3464784	0	0	0.04596985	-0.03245249	0	0
32.09138	-0.199419	0.3464784	0	0	0	0	0	0
32.10794	-0.199419	0.3464784	0	0	0	0	0	0
32.13163	-0.199419	0.3464784	0	0	0	0	0	0
32.1482	-0.199419	0.3464784	0	0	0	0	0	0
32.16477	-0.199419	0.3464784	0	0	0	0	0	0
32.18134	-0.199419	0.3464784	0	0	0	0	0	0
32.1979	-0.199419	0.3464784	0	0	0	0	0	0
32.21447	-0.199419	0.3464784	0	0	0	0	0	0
32.23149	-0.199419	0.3464784	0	0	0	0	0	0
32.2476	-0.199419	0.3464784	0	0	0	0	0	0
32.26417	-0.199419	0.3464784	0	0	0	0	0	0
32.28074	-0.199419	0.3464784	0	0	0	0	0	0
32.29731	-0.199419	0.3464784	0	0	0	0	0	0
32.31387	-0.199419	0.3464784	0	0	0	0	0	0
32.33044	-0.199419	0.3464784	0	0	0	0	0	0
32.34707	-0.199419	0.3464784	0	0	0	0	0	0
32.36357	-0.199419	0.3464784	0	0	0	0	0	0
32.38014	-0.199419	0.3464784	0	0	0	0	0	0
32.39671	-0.199419	0.3464784	0	0	0	0	0	0
32.41328	-0.1994443	0.3464605	-0.001525443	-0.001077524	-0.04603797	-0.03251974	0	0
32.42984	-0.1994443	0.3464605	0	0	0.04603797	0.03251974	0	0
32.44641	-0.1994443	0.3464605	0	0	0	0	0	0
32.46298	-0.1994443	0.3464605	0	0	0	0	0	0
32.47955	-0.1994443	0.3464605	0	0	0	0	0	0
32.5127	-0.1994443	0.3464605	0	0	0	0	0	0
32.52925	-0.1994696	0.3464426	-0.00152775	-0.001080318	-0.03073839	-0.02173604	0	0
32.54581	-0.1994696	0.3464426	0	0	0.04612882	0.03261909	0	0
32.56238	-0.1994696	0.3464426	0	0	0	0	0	0
32.57924	-0.1994696	0.3464426	0	0	0	0	0	0
32.59552	-0.1994696	0.3464426	0	0	0	0	0	0
32.61208	-0.1994949	0.3464248	-0.001526343	-0.001077524	-0.04647713	-0.03281061	0	0
32.62865	-0.1994949	0.3464248	0	0	0.04606511	0.03251974	0	0
32.64522	-0.1994949	0.3464248	0	0	0	0	0	0
32.66179	-0.1994949	0.3464248	0	0	0	0	0	0
32.67835	-0.1994949	0.3464248	0	0	0	0	0	0
32.69492	-0.1994949	0.3464248	0	0	0	0	0	0
32.71149	-0.1994696	0.3464069	0.001526343	-0.001077524	0.04606511	-0.03251974	0	0
32.72805	-0.199419	0.3464069	0.003051786	0	0.04603797	0.03251974	0	0
32.74462	-0.1993937	0.3463891	0.001526343	-0.001077524	-0.04603797	-0.03251974	0	0
32.76119	-0.1993432	0.3463534	0.003052685	-0.002156847	0.04606511	-0.03257403	0	0
32.77776	-0.1989892	0.3461034	0.021367	-0.01508894	0.552727	-0.3902912	0	0
32.7944	-0.1976233	0.3451391	0.08204915	-0.057926	1.826974	-1.289707	0	0
32.81091	-0.1904782	0.3401033	0.4327715	-0.3050106	10.57752	-7.451881	0	0
32.8486	-0.1817865	0.3339961	0.2306388	-0.162057	-3.729703	2.637745	0	0
32.86517	-0.1687482	0.3249063	0.7869929	-0.5486613	10.25488	-7.126002	0	0
32.88173	-0.1615277	0.3198698	0.4358288	-0.3040039	-10.59815	7.383774	0	0
32.8983	-0.1541874	0.3147614	0.4430612	-0.3083446	0.2182733	-0.1310019	0	0
32.91487	-0.1503309	0.3120819	0.2327821	-0.1617348	-6.346236	4.424694	0	0
32.9315	-0.1450787	0.3084732	0.3157836	-0.2169725	2.500097	-1.663821	0	0
32.94801	-0.1387604	0.3040958	0.3826095	-0.2650782	2.016113	-1.451332	0	0
32.96457	-0.1341887	0.3009329	0.2761377	-0.1910444	-3.219627	2.238725	0	0
32.98114	-0.131862	0.2993602	0.1404433	-0.09492467	-4.096679	2.901902	0	0
32.9977	-0.1286539	0.2971798	0.1936413	-0.1316109	1.60552	-1.107191	0	0
33.01427	-0.1286798	0.2971977	-0.00156232	0.001079323	-5.891259	4.004598	0	0
33.03084	-0.1286539	0.2971798	0.00156232	-0.001079323	0.09430183	-0.06514806	0	0
33.04741	-0.1286021	0.2972156	0.00312464	0.002156847	0.04715092	0.09766781	0	0
33.06397	-0.1286021	0.2972156	0	0	-0.09430183	-0.06509378	0	0
33.09713	-0.1285503	0.2972513	0.001561421	0.001078702	0.03140381	0.0216952	0	0
33.11367	-0.1285245	0.2972692	0.001564121	0.001078766	5.431515E-05	1.288254E-06	0	0
33.13024	-0.1284986	0.297287	0.00156232	0.001079323	-5.43769E-05	1.681437E-05	0	0
33.14681	-0.1284986	0.297287	0	0	-0.04715092	-0.03257403	0	0
33.16338	-0.1284986	0.297287	0	0	0	0	0	0
33.17994	-0.1284986	0.297287	0	0	0	0	0	0
33.19669	-0.1284986	0.297287	0	0	0	0	0	0
33.21321	-0.1284986	0.297287	0	0	0	0	0	0
33.22964	-0.1284986	0.297287	0	0	0	0	0	0
33.24621	-0.1284986	0.297287	0	0	0	0	0	0
33.26278	-0.1284986	0.297287	0	0	0	0	0	0
33.27935	-0.1284727	0.2973049	0.00156232	0.001079323	0.04715092	0.03257403	0	0
33.29591	-0.1284468	0.297287	0.00156232	-0.001079323	0	-0.06514806	0	0
33.31248	-0.1284209	0.2972692	0.00156232	-0.001079323	0	0	0	0
33.37875	-0.121063	0.2925144	0.1110318	-0.0717489	1.321518	-0.8531248	0	0
33.39966	-0.1104175	0.2853625	0.5091495	-0.3420624	4.56676	-3.100733	0	0
33.41636	-0.1022735	0.2800504	0.4876424	-0.3180748	-0.5718585	0.6378135	0	0
33.43287	-0.09865239	0.2777069	0.2193276	-0.1419463	-8.079153	5.303355	0	0
33.44938	-0.09129812	0.2735198	0.4453405	-0.2535462	6.843931	-3.379374	0	0
33.46593	-0.0778947	0.2729651	0.810151	-0.03353233	11.03541	6.655356	0	0
33.48291	-0.06561619	0.273663	0.7231495	0.04110558	-2.595236	2.226431	0	0
33.49906	-0.05733184	0.2743788	0.5129176	0.04431758	-6.34554	0.09694944	0	0
33.51563	-0.0346966	0.2743072	1.366266	-0.00432089	26.08139	-1.486567	0	0
33.53564	-0.0244951	0.2738777	0.5095772	-0.02145311	-23.41526	-0.4682629	0	0
33.55221	-0.0147884	0.2738599	0.5858979	-0.001079323	2.086018	0.5568624	0	0
33.56878	-0.004736807	0.2737883	0.6067151	-0.00432089	0.6282668	-0.09783068	0	0
33.58548	0.006999886	0.2742178	0.7029252	0.02572217	2.892304	0.9031661	0	0
33.60191	0.01423588	0.2742356	0.4402118	0.001087839	-7.928707	-0.7434656	0	0
33.6185	0.02191754	0.2724103	0.4631329	-0.1100524	0.6940771	-3.365455	0	0
33.65161	0.02575746	0.2697971	0.115969	-0.07891975	-6.985486	0.626438	0	0
33.66818	0.02996471	0.2669328	0.2539503	-0.1728896	2.777468	-1.891547	0	0
33.68475	0.03009617	0.2668433	0.007934935	-0.005402012	-7.424759	5.054784	0	0
33.70156	0.03006988	0.2668612	-0.001564007	0.001063649	-0.2845818	0.1937068	0	0
33.71807	0.03006988	0.2668612	0	0	0.04693703	-0.03192091	0	0
33.73458	0.03012246	0.2668612	0.003184997	0	0.09645655	0	0	0
33.75101	0.03009617	0.2668791	-0.001600207	0.001090158	-0.1452707	0.03309537	0	0
33.76757	0.03009617	0.2668791	0	0	0.04849533	-0.03303798	0	0
33.78414	0.03009617	0.2668791	0	0	0	0	0	0
33.80071	0.03009617	0.2668791	0	0	0	0	0	0
33.81728	0.03009617	0.2668791	0	0	0	0	0	0
33.83384	0.03009617	0.2668791	0	0	0	0	0	0
33.85041	0.03009617	0.2668791	0	0	0	0	0	0
33.86717	0.03009617	0.2668791	0	0	0	0	0	0
33.88354	0.03009617	0.2668791	0	0	0	0	0	0
33.9002	0.03009617	0.2668791	0	0	0	0	0	0
33.91668	0.03009617	0.2668791	0	0	0	0	0	0
33.93325	0.03014876	0.2668791	0.003173997	0	0.09604573	0	0	0
33.94981	0.03043796	0.2668612	0.01745659	-0.001081122	0.4310495	-0.03262833	0	0
33.96638	0.03122669	0.2667538	0.04760748	-0.006483134	0.9099556	-0.163033	0	0
33.98295	0.0356428	0.2639963	0.2665567	-0.1664406	6.607901	-4.827526	0	0
33.99952	0.03900652	0.2618115	0.2030348	-0.1318771	-1.917094	1.043129	0	0
34.01608	0.04439187	0.2583185	0.3250604	-0.210835	3.682739	-2.382954	0	0
34.0328	0.05014215	0.2544662	0.3439983	-0.2304581	0.5689909	-0.5895787	0	0
34.04922	0.05331784	0.2523335	0.1934222	-0.1298973	-4.544394	3.034928	0	0
34.06582	0.05478722	0.2513656	0.08850861	-0.05830294	-3.177273	2.168212	0	0
34.08235	0.05882679	0.2488199	0.2443912	-0.1540097	4.705089	-2.88877	0	0
34.09892	0.06123912	0.2473496	0.1456088	-0.08874644	-2.984697	1.971921	0	0
34.11585	0.06192074	0.2469552	0.04024383	-0.02329146	-3.144801	1.953618	0	0
34.13236	0.06511833	0.2450183	0.1936757	-0.1173121	4.587277	-2.81101	0	0
34.14861	0.07012168	0.2439601	0.3078872	-0.06511883	3.486243	1.593169	0	0
34.16518	0.07462433	0.2467579	0.2717803	0.1688745	-1.100223	7.130064	0	0
34.18175	0.07752851	0.2487482	0.1752965	0.1201359	-2.911888	-1.470935	0	0
34.20145	0.08108498	0.2510071	0.18054	0.1146686	0.1445847	-0.150754	0	0
34.21801	0.08116341	0.2509891	0.004734181	-0.001082921	-4.847633	-3.191707	0	0
