Time	Pos X	Pos Y	Vel X	Vel Y	Acc X	Acc YForce X	Force Y
0.01656673	-0.1366173	0.2461302	0.002069799	-0.003728957	-3.136603E-05	5.650915E-05	0	0
0.05086987	-0.1365915	0.2461123	0.0007528092	-0.000522579	1.996322E-05	-4.860298E-05	0	0
0.06743778	-0.1365915	0.2461123	0	0	-0.01479838	0.01027262	0	0
0.08400412	-0.1365915	0.2461123	0	0	0	0	0	0
0.100816	-0.1365915	0.2461123	0	0	0	0	0	0
0.1173271	-0.1365915	0.2461123	0	0	0	0	0	0
0.1337071	-0.1365915	0.2461123	0	0	0	0	0	0
0.150273	-0.1365657	0.2460944	0.001558843	-0.001083005	0.04731514	-0.03287214	0	0
0.1668394	-0.1365398	0.2460764	0.001559706	-0.00108208	2.60467E-05	2.791245E-05	0	0
0.1834057	-0.1365398	0.2460764	0	0	-0.04707456	0.03265899	0	0
0.199972	-0.1365398	0.2460764	0	0	0	0	0	0
0.2165376	-0.1365398	0.2460764	0	0	0	0	0	0
0.2331043	-0.1365398	0.2460764	0	0	0	0	0	0
0.2496707	-0.1365398	0.2460764	0	0	0	0	0	0
0.2664332	-0.1365398	0.2460764	0	0	0	0	0	0
0.2828041	-0.1365398	0.2460764	0	0	0	0	0	0
0.3159376	-0.1365398	0.2460764	0	0	0	0	0	0
0.3325043	-0.136514	0.2460585	0.00155877	-0.001082954	0.03136346	-0.02178973	0	0
0.3490707	-0.136514	0.2460585	0	0	-0.04704576	0.03268499	0	0
0.3656374	-0.136514	0.2460585	0	0	0	0	0	0
0.3822073	-0.1364882	0.2460406	0.001558473	-0.001081848	0.04703176	-0.03264813	0	0
0.3987708	-0.1364882	0.2460406	0	0	-0.04703624	0.03265124	0	0
0.4186373	-0.1364624	0.2460226	0.001300612	-0.0009030781	0.03570163	-0.02478937	0	0
0.4352072	-0.1364624	0.2460226	0	0	-0.03569544	0.02478507	0	0
0.4517736	-0.1364365	0.2460047	0.001558807	-0.00108208	0.04704238	-0.0326555	0	0
0.4685748	-0.1364365	0.2460047	0	0	-0.04671625	0.03242911	0	0
0.4849058	-0.1364365	0.2460047	0	0	0	0	0	0
0.5016021	-0.1364365	0.2460047	0	0	0	0	0	0
0.5181092	-0.1364365	0.2460047	0	0	0	0	0	0
0.567738	-0.1364107	0.2459868	0.0005203373	-0.0003615038	0.007867693	-0.005466071	0	0
0.5846584	-0.1364107	0.2459868	0	0	-0.007818832	0.005432125	0	0
0.6008723	-0.1363849	0.2459688	0.001593615	-0.001105605	0.04809567	-0.03336741	0	0
0.617681	-0.1363591	0.2459509	0.001536326	-0.001067361	-0.001734862	0.001158126	0	0
0.6340046	-0.1363591	0.2459509	0	0	-0.0463694	0.0322151	0	0
0.6507044	-0.1363332	0.245933	0.001547242	-0.001073432	0.04685295	-0.03250525	0	0
0.667215	-0.1363332	0.245933	0	0	-0.04658899	0.03232212	0	0
0.6837277	-0.1363074	0.245915	0.001563876	-0.001086501	0.04735675	-0.03290106	0	0
0.7002719	-0.1363074	0.245915	0	0	-0.04730868	0.03286766	0	0
0.7168378	-0.1363074	0.245915	0	0	0	0	0	0
0.7334046	-0.1363074	0.245915	0	0	0	0	0	0
0.7499713	-0.1362816	0.2458971	0.001558767	-0.001082052	0.04704504	-0.03265735	0	0
0.7665381	-0.1362816	0.2458971	0	0	-0.04704504	0.03265735	0	0
0.7831052	-0.1362816	0.2458971	0	0	0	0	0	0
0.7996715	-0.1362816	0.2458971	0	0	0	0	0	0
0.8162379	-0.1362816	0.2458971	0	0	0	0	0	0
0.8328046	-0.1362816	0.2458971	0	0	0	0	0	0
0.8498458	-0.1362816	0.2458971	0	0	0	0	0	0
0.8659388	-0.1362816	0.2458971	0	0	0	0	0	0
0.8825052	-0.1362816	0.2458971	0	0	0	0	0	0
0.8990715	-0.1362816	0.2458971	0	0	0	0	0	0
0.9156386	-0.1362816	0.2458971	0	0	0	0	0	0
0.932205	-0.1362816	0.2458971	0	0	0	0	0	0
0.9487713	-0.1362816	0.2458971	0	0	0	0	0	0
0.9653384	-0.1362816	0.2458971	0	0	0	0	0	0
0.9819367	-0.1362816	0.2458971	0	0	0	0	0	0
0.9984714	-0.1362816	0.2458971	0	0	0	0	0	0
1.015038	-0.1362816	0.2458971	0	0	0	0	0	0
1.031605	-0.1362557	0.2458792	0.001559667	-0.001082952	0.04707278	-0.03268491	0	0
1.048486	-0.1362557	0.2458792	0	0	-0.04662995	0.03237743	0	0
1.084585	-0.1362557	0.2458792	0	0	0	0	0	0
1.101522	-0.1362557	0.2458792	0	0	0	0	0	0
1.117718	-0.1362557	0.2458792	0	0	0	0	0	0
1.134547	-0.1362557	0.2458792	0	0	0	0	0	0
1.151056	-0.1362557	0.2458792	0	0	0	0	0	0
1.167569	-0.1362816	0.2458971	-0.001564745	0.001086478	-0.04738417	0.03290112	0	0
1.183985	-0.1362816	0.2458971	0	0	0.04751934	-0.03299497	0	0
1.200591	-0.1362816	0.2458971	0	0	0	0	0	0
1.217119	-0.1362816	0.2458971	0	0	0	0	0	0
1.233685	-0.1362816	0.2458971	0	0	0	0	0	0
1.250252	-0.1362816	0.2458971	0	0	0	0	0	0
1.266818	-0.1362557	0.2458792	0.001559745	-0.001083007	0.04707524	-0.03268661	0	0
1.28365	-0.1362557	0.2458792	0	0	-0.04670238	0.03242772	0	0
1.300163	-0.1362557	0.2458792	0	0	0	0	0	0
1.316519	-0.1362557	0.2458792	0	0	0	0	0	0
1.333085	-0.1362557	0.2458792	0	0	0	0	0	0
1.349731	-0.1362557	0.2458792	0	0	0	0	0	0
1.366218	-0.1362557	0.2458792	0	0	0	0	0	0
1.383222	-0.1362557	0.2458792	0	0	0	0	0	0
1.399351	-0.1362557	0.2458792	0	0	0	0	0	0
1.415919	-0.1362557	0.2458792	0	0	0	0	0	0
1.432485	-0.1362557	0.2458792	0	0	0	0	0	0
1.449052	-0.1362557	0.2458792	0	0	0	0	0	0
1.465618	-0.1362557	0.2458792	0	0	0	0	0	0
1.482291	-0.1362557	0.2458792	0	0	0	0	0	0
1.498803	-0.1362557	0.2458792	0	0	0	0	0	0
1.515318	-0.1362557	0.2458792	0	0	0	0	0	0
1.531885	-0.1362557	0.2458792	0	0	0	0	0	0
1.548452	-0.1362557	0.2458792	0	0	0	0	0	0
1.565019	-0.1362557	0.2458792	0	0	0	0	0	0
1.581862	-0.1362557	0.2458792	0	0	0	0	0	0
1.598152	-0.1362557	0.2458792	0	0	0	0	0	0
1.614719	-0.1362299	0.2458612	0.001558734	-0.001082029	0.04744035	-0.03293176	0	0
1.631396	-0.1362299	0.2458612	0	0	-0.04688714	0.03254774	0	0
1.647909	-0.1362299	0.2458612	0	0	0	0	0	0
1.66442	-0.1362299	0.2458612	0	0	0	0	0	0
1.700845	-0.1362041	0.2458433	0.0007093673	-0.000492548	0.01340039	-0.009304538	0	0
1.717457	-0.1362041	0.2458433	0	0	-0.01337494	0.009286867	0	0
1.733978	-0.1362041	0.2458433	0	0	0	0	0	0
1.750545	-0.1362041	0.2458433	0	0	0	0	0	0
1.767112	-0.1362041	0.2458433	0	0	0	0	0	0
1.800245	-0.1362041	0.2458433	0	0	0	0	0	0
1.816812	-0.1362041	0.2458433	0	0	0	0	0	0
1.833538	-0.1362041	0.2458433	0	0	0	0	0	0
1.849946	-0.1362041	0.2458433	0	0	0	0	0	0
1.866563	-0.1362041	0.2458433	0	0	0	0	0	0
1.883078	-0.1362041	0.2458433	0	0	0	0	0	0
1.899645	-0.1362041	0.2458433	0	0	0	0	0	0
1.916213	-0.1362041	0.2458433	0	0	0	0	0	0
1.932779	-0.1362041	0.2458433	0	0	0	0	0	0
1.949346	-0.1362041	0.2458433	0	0	0	0	0	0
1.966132	-0.1362041	0.2458433	0	0	0	0	0	0
1.982478	-0.1362041	0.2458433	0	0	0	0	0	0
1.999045	-0.1362041	0.2458433	0	0	0	0	0	0
2.015612	-0.1361782	0.2458254	0.001558689	-0.001081998	0.04704199	-0.03265524	0	0
2.079847	-0.1361782	0.2458254	0	0	-0.01929026	0.01339076	0	0
2.096415	-0.1361782	0.2458254	0	0	0	0	0	0
2.112981	-0.1361782	0.2458254	0	0	0	0	0	0
2.129548	-0.1361782	0.2458254	0	0	0	0	0	0
2.146114	-0.1361524	0.2458074	0.001559712	-0.001082983	0.04707355	-0.03268544	0	0
2.162681	-0.1361524	0.2458074	0	0	-0.04707422	0.03268591	0	0
2.179286	-0.1361524	0.2458074	0	0	0	0	0	0
2.212381	-0.1361524	0.2458074	0	0	0	0	0	0
2.228948	-0.1361524	0.2458074	0	0	0	0	0	0
2.245514	-0.1361524	0.2458074	0	0	0	0	0	0
2.262082	-0.1361524	0.2458074	0	0	0	0	0	0
2.295215	-0.1361524	0.2458074	0	0	0	0	0	0
2.311781	-0.1361524	0.2458074	0	0	0	0	0	0
2.328349	-0.1361266	0.2457895	0.001558722	-0.001082021	0.04704301	-0.03265594	0	0
2.344915	-0.1361266	0.2457895	0	0	-0.04704403	0.03265664	0	0
2.378048	-0.1361266	0.2457895	0	0	0	0	0	0
2.394614	-0.1361266	0.2457895	0	0	0	0	0	0
2.411181	-0.1361266	0.2457895	0	0	0	0	0	0
2.447357	-0.1361007	0.2457716	0.0007142528	-0.0004959402	0.01354227	-0.009403051	0	0
2.463987	-0.1361007	0.2457716	0	0	-0.01352606	0.0093918	0	0
2.48049	-0.1361007	0.2457716	0	0	0	0	0	0
2.497508	-0.1361007	0.2457716	0	0	0	0	0	0
2.513623	-0.1361007	0.2457716	0	0	0	0	0	0
2.530532	-0.1361007	0.2457716	0	0	0	0	0	0
2.546757	-0.1360749	0.2457536	0.001591661	-0.001104886	0.04803849	-0.03334697	0	0
2.563323	-0.1360749	0.2457536	0	0	-0.04853935	0.03369465	0	0
2.580067	-0.1360749	0.2457536	0	0	0	0	0	0
2.596578	-0.1360749	0.2457536	0	0	0	0	0	0
2.613024	-0.1360749	0.2457536	0	0	0	0	0	0
2.62959	-0.1360749	0.2457536	0	0	0	0	0	0
2.646157	-0.1360491	0.2457357	0.001559667	-0.001082952	0.0470732	-0.0326852	0	0
2.662724	-0.1360491	0.2457357	0	0	-0.04707151	0.03268403	0	0
2.679291	-0.1360491	0.2457357	0	0	0	0	0	0
2.695857	-0.1360491	0.2457357	0	0	0	0	0	0
2.712424	-0.1360491	0.2457357	0	0	0	0	0	0
2.728991	-0.1360491	0.2457357	0	0	0	0	0	0
2.745557	-0.1360491	0.2457357	0	0	0	0	0	0
2.762124	-0.1360491	0.2457357	0	0	0	0	0	0
2.778707	-0.1360491	0.2457357	0	0	0	0	0	0
2.795257	-0.1360491	0.2457357	0	0	0	0	0	0
2.811824	-0.1360491	0.2457357	0	0	0	0	0	0
2.82839	-0.1360491	0.2457357	0	0	0	0	0	0
2.844958	-0.1360491	0.2457357	0	0	0	0	0	0
2.861766	-0.1360491	0.2457357	0	0	0	0	0	0
2.878291	-0.1360491	0.2457357	0	0	0	0	0	0
2.894657	-0.1360491	0.2457357	0	0	0	0	0	0
2.911303	-0.1360491	0.2457357	0	0	0	0	0	0
2.944357	-0.1360491	0.2457357	0	0	0	0	0	0
2.961338	-0.1360491	0.2457357	0	0	0	0	0	0
2.977491	-0.1360491	0.2457357	0	0	0	0	0	0
2.994057	-0.1360491	0.2457357	0	0	0	0	0	0
3.010872	-0.1360491	0.2457357	0	0	0	0	0	0
3.02719	-0.1360491	0.2457357	0	0	0	0	0	0
3.043895	-0.1360491	0.2457357	0	0	0	0	0	0
3.060324	-0.1360491	0.2457357	0	0	0	0	0	0
3.076891	-0.1360491	0.2457357	0	0	0	0	0	0
3.096339	-0.1360491	0.2457357	0	0	0	0	0	0
3.112943	-0.1360491	0.2457357	0	0	0	0	0	0
3.129474	-0.1360491	0.2457357	0	0	0	0	0	0
3.14604	-0.1360491	0.2457357	0	0	0	0	0	0
3.162979	-0.1360491	0.2457357	0	0	0	0	0	0
3.179174	-0.1360491	0.2457357	0	0	0	0	0	0
3.19574	-0.1360491	0.2457357	0	0	0	0	0	0
3.212307	-0.1360233	0.2457178	0.001558722	-0.001082021	0.04704369	-0.03265641	0	0
3.228873	-0.1360233	0.2457178	0	0	-0.04704369	0.03265641	0	0
3.245538	-0.1360233	0.2457178	0	0	0	0	0	0
3.295141	-0.1360233	0.2457178	0	0	0	0	0	0
3.311707	-0.1360233	0.2457178	0	0	0	0	0	0
3.328274	-0.1360233	0.2457178	0	0	0	0	0	0
3.345108	-0.1360233	0.2457178	0	0	0	0	0	0
3.361407	-0.1360233	0.2457178	0	0	0	0	0	0
3.377974	-0.1360233	0.2457178	0	0	0	0	0	0
3.394643	-0.1360233	0.2457178	0	0	0	0	0	0
3.411154	-0.1360233	0.2457178	0	0	0	0	0	0
3.427673	-0.1360233	0.2457178	0	0	0	0	0	0
3.44424	-0.1360491	0.2457357	-0.001558767	0.001082052	-0.04711251	0.03270418	0	0
3.460807	-0.1360749	0.2457895	-0.001559622	0.003247863	-2.578888E-05	0.06536523	0	0
3.477701	-0.1359974	0.2460585	0.00458739	0.01592224	0.1837036	0.3787742	0	0
3.49394	-0.1355841	0.246991	0.02545331	0.05742457	0.6297619	1.252597	0	0
3.510506	-0.1362299	0.2498418	-0.0389838	0.1720864	-1.964249	3.495257	0	0
3.527074	-0.1397669	0.2608264	-0.2134955	0.6630281	-5.266925	14.81708	0	0
3.543748	-0.1416244	0.2752914	-0.111396	0.8674933	3.071424	6.150856	0	0
3.56026	-0.1430942	0.2941948	-0.08901485	1.144834	0.6744061	8.35705	0	0
3.576774	-0.144383	0.3247099	-0.07804154	1.847797	0.3322606	21.28499	0	0
3.59334	-0.145053	0.3408176	-0.04044245	0.9723331	1.136599	-26.46478	0	0
3.609908	-0.146135	0.3722876	-0.06530984	1.899535	-0.7505263	27.98401	0	0
3.626474	-0.1469591	0.3946311	-0.04974886	1.348735	0.4696446	-16.62365	0	0
3.643319	-0.1481178	0.4217863	-0.06877875	1.612018	-0.5695567	7.879951	0	0
3.659607	-0.1484267	0.434301	-0.0189649	0.7683318	1.503428	-25.46323	0	0
3.676342	-0.1485811	0.4576524	-0.009228786	1.39544	0.2948357	18.99051	0	0
3.692741	-0.1487613	0.4785289	-0.01098638	1.273007	-0.05304598	-3.69514	0	0
3.709307	-0.1487355	0.4925609	0.001553415	0.8470206	0.3803898	-12.92212	0	0
3.725874	-0.1485554	0.5052487	0.01087508	0.7658373	0.2813365	-2.450188	0	0
3.742441	-0.1485296	0.5203643	0.001553371	0.9124032	-0.2813338	4.423433	0	0
3.78018	-0.1447695	0.5427699	0.09963531	0.5937101	1.806128	-5.868569	0	0
3.796746	-0.1427075	0.548142	0.1244738	0.3242797	0.457392	-4.961466	0	0
3.81344	-0.1347831	0.5594755	0.4746754	0.6788856	10.52903	10.66145	0	0
3.829879	-0.1306722	0.5624653	0.250068	0.1818683	-6.778862	-15.00045	0	0
3.846447	-0.1223334	0.568268	0.5033207	0.3502461	7.672774	5.101326	0	0
3.863014	-0.1209074	0.5692789	0.08608029	0.06101949	-12.59243	-8.728939	0	0
3.879581	-0.1136139	0.5741532	0.4402356	0.2942163	10.68858	7.037994	0	0
3.896146	-0.1130943	0.5744846	0.03136514	0.02000187	-12.34036	-8.276224	0	0
3.912713	-0.1099755	0.5763258	0.1882551	0.1111411	4.735255	2.750765	0	0
3.929281	-0.1067505	0.5786471	0.1946576	0.1401121	0.1932295	0.8743531	0	0
3.945847	-0.1063082	0.5790341	0.02669988	0.02336183	-5.06912	-3.523632	0	0
3.962413	-0.1063082	0.5790341	0	0	-0.8058618	-0.7051122	0	0
3.979056	-0.1062822	0.5790526	0.001563239	0.001106623	0.04707228	0.03332264	0	0
3.995584	-0.106048	0.5792553	0.01416877	0.0122683	0.3800091	0.3364824	0	0
4.012114	-0.1057358	0.5794765	0.01889081	0.01338146	0.1428403	0.03367273	0	0
4.02868	-0.102586	0.5816339	0.1901323	0.1302242	5.174074	3.530412	0	0
4.045247	-0.09620212	0.5861557	0.3853526	0.2729549	5.892099	4.307868	0	0
4.061813	-0.09414195	0.587652	0.1243596	0.09031936	-7.87724	-5.512269	0	0
4.07838	-0.09406369	0.5876335	0.004723523	-0.001115333	-3.610779	-2.759624	0	0
4.094946	-0.09406369	0.5876335	0	0	-0.1425603	0.03366177	0	0
4.111513	-0.09388111	0.5875041	0.0110211	-0.007807328	0.3326272	-0.2356324	0	0
4.12808	-0.09348983	0.587227	0.02361852	-0.01672639	0.3802016	-0.2691856	0	0
4.144674	-0.09132421	0.5857309	0.1305065	-0.09016164	3.223334	-2.214527	0	0
4.161694	-0.09121983	0.5856571	0.00613303	-0.004339086	-3.700084	2.553203	0	0
4.194347	-0.09028023	0.5849923	0.02877479	-0.0203566	0.4558155	-0.3224587	0	0
4.210913	-0.08618074	0.5822057	0.2474674	-0.1682162	4.443244	-3.004109	0	0
4.227479	-0.08105884	0.5786287	0.3091675	-0.215914	1.86222	-1.439604	0	0
4.244246	-0.07415326	0.5741717	0.4118781	-0.2658378	3.081366	-1.497738	0	0
4.260755	-0.06925748	0.5709888	0.2965514	-0.1927965	-3.465854	2.195074	0	0
4.277179	-0.06606162	0.5687459	0.1945765	-0.1365583	-3.096368	1.707618	0	0
4.293779	-0.06299549	0.5666328	0.1847109	-0.1272945	-0.2987374	0.280515	0	0
4.310313	-0.0626023	0.566394	0.02378043	-0.01444166	-4.857031	3.406003	0	0
4.330568	-0.06234017	0.5665777	0.01294132	0.009066245	-0.2946256	0.6389854	0	0
4.347316	-0.06199938	0.5668532	0.02034849	0.01645336	0.2001773	0.1996354	0	0
4.363702	-0.06176345	0.5670553	0.01439828	0.0123345	-0.1795803	-0.1243094	0	0
4.380269	-0.06144886	0.5673493	0.01898921	0.01774098	0.1393164	0.1640653	0	0
4.396836	-0.06087207	0.5679005	0.03481591	0.03327289	0.4776646	0.4687673	0	0
4.413403	-0.05678101	0.5709152	0.2469443	0.1819755	6.402232	4.487983	0	0
4.429969	-0.0520057	0.5750737	0.2882548	0.2510182	1.246806	2.083804	0	0
4.446536	-0.04714924	0.5815786	0.2931447	0.3926474	0.1475849	4.274563	0	0
4.463102	-0.04665034	0.5880954	0.03011465	0.3933706	-7.938491	0.02182544	0	0
4.47991	-0.04914461	0.5959951	-0.1484016	0.4700089	-5.348912	2.296327	0	0
4.496236	-0.05528571	0.6064958	-0.376156	0.6431888	-6.873839	5.22673	0	0
4.512932	-0.05895791	0.61364	-0.2199388	0.4278845	4.730643	-6.519948	0	0
4.529369	-0.06346728	0.6184866	-0.2743497	0.2948723	-1.642197	-4.014488	0	0
4.545936	-0.0641225	0.6189531	-0.03954909	0.02815594	7.11435	-8.081383	0	0
4.562503	-0.06404387	0.6188971	0.00474601	-0.003378378	1.336848	-0.9517214	0	0
4.579069	-0.06401767	0.6188785	0.001581749	-0.001126159	-0.09550171	0.06797507	0	0
4.595636	-0.06396525	0.6188412	0.003164307	-0.002252252	0.04776374	-0.03398705	0	0
4.612203	-0.06393904	0.6188225	0.001581658	-0.001126094	-0.04776511	0.03398803	0	0
4.629016	-0.06391283	0.6188039	0.001558955	-0.001109614	-0.0006801299	0.0004936834	0	0
4.645336	-0.06388663	0.6187852	0.001605643	-0.00114317	0.001409104	-0.001012763	0	0
4.661903	-0.06388663	0.6187852	0	0	-0.04882376	0.03476107	0	0
4.67847	-0.06383421	0.6187479	0.003164307	-0.002252252	0.09550171	-0.06797507	0	0
4.695062	-0.063808	0.6187292	0.001579249	-0.001124379	-0.04780136	0.03401385	0	0
4.711603	-0.06378179	0.6187106	0.001584616	-0.001127879	0.0001619874	-0.0001056516	0	0
4.728169	-0.063808	0.6186919	-0.001582199	-0.001126159	-0.09565312	5.1971E-05	0	0
4.744737	-0.063808	0.6186919	0	0	0.04775223	0.03398851	0	0
4.761303	-0.063808	0.6186919	0	0	0	0	0	0
4.778121	-0.063808	0.6186919	0	0	0	0	0	0
4.794436	-0.063808	0.6186919	0	0	0	0	0	0
4.811003	-0.063808	0.6186919	0	0	0	0	0	0
4.827569	-0.063808	0.6186919	0	0	0	0	0	0
4.844167	-0.063808	0.6186545	0	-0.002251638	0	-0.06789398	0	0
4.860703	-0.063808	0.6186545	0	0	0	0.06795554	0	0
4.877271	-0.063808	0.6186172	0	-0.002252187	0	-0.06803479	0	0
4.910716	-0.063808	0.6185799	0	-0.001115626	0	0.02272551	0	0
4.92697	-0.06378179	0.6185613	0.001612649	-0.001147832	0.03244843	-0.0006480246	0	0
4.943737	-0.06367695	0.6184866	0.0062524	-0.004450575	0.1405092	-0.1000195	0	0
4.960103	-0.06341486	0.6183001	0.01601469	-0.01139939	0.294635	-0.2097218	0	0
4.997869	-0.06323139	0.6181322	0.004858152	-0.004444445	-0.2061007	0.1284825	0	0
5.014435	-0.06320518	0.6180763	0.001582153	-0.003378378	-0.06029565	0.01962124	0	0
5.031002	-0.06315275	0.618039	0.003164398	-0.002252317	0.04775429	0.03398607	0	0
5.047569	-0.06310033	0.6179643	0.003164215	-0.004504375	-5.495149E-06	-0.06796919	0	0
5.064136	-0.0630217	0.6177592	0.004746323	-0.01238343	0.0477481	-0.2377904	0	0
5.080835	-0.06304791	0.6177405	-0.001569639	-0.001117219	-0.189862	0.3386699	0	0
5.097345	-0.06304791	0.6177032	0	-0.002259928	0.047265	-0.03440928	0	0
5.113834	-0.06307412	0.6176845	-0.001589611	-0.001131434	-0.04817074	0.03419727	0	0
5.130402	-0.06304791	0.6176659	0.001582062	-0.001126061	0.09594636	0.0001625397	0	0
5.146968	-0.06304791	0.6176286	0	-0.002252317	-0.04774742	-0.03399095	0	0
5.163892	-0.06304791	0.6175913	0	-0.0022012	0	0.001526322	0	0
5.180101	-0.0630217	0.6175354	0.001617061	-0.003452917	0.0488051	-0.03777852	0	0
5.196668	-0.06304791	0.6174794	-0.001582153	-0.003378378	-0.0976088	0.002274185	0	0
5.213428	-0.06307412	0.6174607	-0.001563967	-0.001113182	0.0005457027	0.06797055	0	0
5.229939	-0.06312654	0.6173488	-0.003174999	-0.006775978	-0.04842243	-0.1702054	0	0
5.246451	-0.06310033	0.6172556	0.001587362	-0.005645557	0.1442119	0.03423093	0	0
5.262962	-0.06307412	0.6171623	0.001587499	-0.005649657	4.163311E-06	-0.0001241308	0	0
5.279502	-0.06304791	0.6170691	0.001584708	-0.005636117	-8.446808E-05	0.0004096426	0	0
5.296068	-0.06320518	0.6168454	-0.009493193	-0.01350671	-0.3346158	-0.2377367	0	0
5.313005	-0.06383421	0.616286	-0.03713989	-0.03302458	-0.8251994	-0.5825699	0	0
5.329202	-0.06477766	0.6155777	-0.05825001	-0.04373362	-0.6371229	-0.3232089	0	0
5.345768	-0.06543277	0.6148509	-0.03954349	-0.04387215	0.5709565	-0.004228028	0	0
5.362335	-0.06538036	0.6148136	0.003163498	-0.002248719	1.288955	1.256252	0	0
5.379045	-0.06517074	0.6146646	0.0125453	-0.008921183	0.2819383	-0.2005183	0	0
5.395468	-0.06433216	0.6140311	0.05106048	-0.03856846	1.162441	-0.8947953	0	0
5.412035	-0.05630883	0.6080014	0.4843028	-0.3639654	13.13254	-9.863508	0	0
5.428601	-0.05234687	0.6047124	0.2391514	-0.1985328	-7.398898	4.992909	0	0
5.445168	-0.04528481	0.5959025	0.4262792	-0.5317798	5.647692	-10.0577	0	0
5.461735	-0.04623019	0.5868391	-0.05706523	-0.547085	-14.58778	-0.4619276	0	0
5.478302	-0.04751684	0.5797715	-0.07766425	-0.4266147	-0.6216976	3.635907	0	0
5.495127	-0.04927587	0.5606308	-0.1045473	-1.137619	-0.8050771	-21.29267	0	0
5.511435	-0.04998465	0.5526973	-0.04346113	-0.4864697	1.843639	19.65228	0	0
5.528001	-0.05187447	0.5382252	-0.1140766	-0.873586	-2.148027	-11.77555	0	0
5.544662	-0.0546298	0.5284761	-0.1653743	-0.5851399	-1.543835	8.680959	0	0
5.561135	-0.05822359	0.5197283	-0.218165	-0.5310456	-1.593248	1.632595	0	0
5.577701	-0.06540657	0.5097443	-0.4336029	-0.6026849	-6.520791	-2.16835	0	0
5.594268	-0.07208541	0.4986027	-0.4031473	-0.672533	0.9192035	-2.108142	0	0
5.610835	-0.07574952	0.4935373	-0.2211722	-0.305754	5.492177	11.06973	0	0
5.630384	-0.08257496	0.480261	-0.349139	-0.6791185	-3.543202	-10.33789	0	0
5.713218	-0.111977	0.4503349	-0.3549501	-0.3612768	-0.05675864	3.10442	0	0
5.729792	-0.1177683	0.4462923	-0.3494231	-0.2439115	0.05559896	1.180641	0	0
5.746351	-0.1235258	0.4422336	-0.3476914	-0.2451029	0.05226488	-0.03595785	0	0
5.762918	-0.1294303	0.4379973	-0.3564068	-0.2557134	-0.2630974	-0.3203087	0	0
5.779485	-0.1367981	0.4322381	-0.444738	-0.3476366	-2.665917	-2.774328	0	0
5.796052	-0.1397927	0.4263566	-0.1807603	-0.355014	7.967091	-0.2226564	0	0
5.812618	-0.1394315	0.4160715	0.02180745	-0.6208283	6.113684	-8.022523	0	0
5.829185	-0.139354	0.4072446	0.004673603	-0.5328124	-0.5171154	2.656402	0	0
5.845879	-0.1401282	0.3958652	-0.04637468	-0.6816604	-1.534809	-4.475241	0	0
5.86232	-0.1407474	0.3906433	-0.03766133	-0.3176062	0.2629659	10.98702	0	0
5.895452	-0.1466759	0.3723055	-0.1789341	-0.5534762	-2.849767	-4.757993	0	0
5.912021	-0.149945	0.3627839	-0.1973084	-0.5746755	-0.3696998	-0.4265387	0	0
5.928585	-0.1527225	0.3559254	-0.1676793	-0.4140494	0.8942465	4.847913	0	0
5.945152	-0.154393	0.3517643	-0.1008322	-0.2511657	2.017625	4.916267	0	0
5.961956	-0.1572437	0.3482463	-0.1696465	-0.2093608	-2.062103	1.252731	0	0
5.978468	-0.1617328	0.3360497	-0.271863	-0.7386295	-3.068077	-15.88626	0	0
5.994852	-0.1638084	0.3274959	-0.1266872	-0.5220976	4.41317	6.582308	0	0
6.011492	-0.1643207	0.323424	-0.03078524	-0.2447005	2.904021	8.399906	0	0
6.027985	-0.1648329	0.3153509	-0.03105575	-0.4894924	-0.008164307	-7.388154	0	0
6.044552	-0.1653706	0.3111887	-0.03245524	-0.2512286	-0.04233187	7.206994	0	0
6.061528	-0.1650889	0.3056324	0.01659059	-0.3273157	1.462194	-2.268368	0	0
6.077685	-0.1624761	0.3037027	0.1617096	-0.1194315	4.37989	6.274227	0	0
6.094252	-0.157141	0.2999857	0.3220352	-0.2243617	4.89927	-3.206484	0	0
6.110819	-0.154059	0.2978411	0.1860384	-0.1294541	-4.10451	2.8644	0	0
6.164855	-0.1393024	0.2876335	0.2730842	-0.1889014	1.232885	-0.8419892	0	0
6.181423	-0.1380634	0.2867752	0.07478504	-0.05180601	-2.808598	1.941742	0	0
6.19799	-0.1365915	0.2857201	0.08884613	-0.06368549	0.4243646	-0.3585233	0	0
6.214556	-0.1366173	0.285738	-0.001558812	0.001079385	-2.728544	1.954692	0	0
6.231123	-0.1365915	0.2857201	0.001558767	-0.001079354	0.0940928	-0.06515369	0	0
6.24769	-0.1365915	0.2857201	0	0	-0.04704437	0.03257544	0	0
6.264256	-0.1366173	0.285738	-0.001558857	0.001079416	-0.04704843	0.03257825	0	0
6.280823	-0.1366173	0.285738	0	0	0.04704911	-0.03257872	0	0
6.297695	-0.1366173	0.285738	0	0	0	0	0	0
6.313956	-0.1365915	0.2857559	0.00158802	0.00109961	0.04792792	0.03318725	0	0
6.349907	-0.1365915	0.2857559	0	0	-0.03041471	-0.02106039	0	0
6.366474	-0.1365915	0.2857559	0	0	0	0	0	0
6.383041	-0.1365915	0.2857559	0	0	0	0	0	0
6.399767	-0.1365915	0.2857559	0	0	0	0	0	0
6.416174	-0.1366173	0.285738	-0.001573898	-0.001089831	-0.0475017	-0.03289212	0	0
6.43279	-0.1365915	0.2857559	0.00155416	0.001076164	0.09472257	0.06558979	0	0
6.449307	-0.1365915	0.2857559	0	0	-0.04690666	-0.03248009	0	0
6.465874	-0.1366173	0.285738	-0.001558767	-0.001079354	-0.04711556	-0.03262474	0	0
6.482441	-0.1366173	0.285738	0	0	0.04704437	0.03257544	0	0
6.499336	-0.1366173	0.285738	0	0	0	0	0	0
6.515574	-0.1366173	0.285738	0	0	0	0	0	0
6.532141	-0.1366173	0.285738	0	0	0	0	0	0
6.548707	-0.1365915	0.2857201	0.001558812	-0.001079385	0.04704707	-0.03257732	0	0
6.565274	-0.1365915	0.2857201	0	0	-0.04704707	0.03257732	0	0
6.581841	-0.1365915	0.2857201	0	0	0	0	0	0
6.598408	-0.1365915	0.2857201	0	0	0	0	0	0
6.614976	-0.1365915	0.2857201	0	0	0	0	0	0
6.631542	-0.1365657	0.2857023	0.001558857	-0.001079416	0.04704775	-0.03257779	0	0
6.648109	-0.1365657	0.2857023	0	0	-0.04704775	0.03257779	0	0
6.664675	-0.1365657	0.2857023	0	0	0	0	0	0
6.681243	-0.1365657	0.2857023	0	0	0	0	0	0
6.697809	-0.1365398	0.2856844	0.001559756	-0.001079416	0.0470749	-0.03257779	0	0
6.714375	-0.1365398	0.2856844	0	0	-0.04707693	0.03257919	0	0
6.780642	-0.1365398	0.2856844	0	0	0	0	0	0
6.830341	-0.1365398	0.2856844	0	0	0	0	0	0
6.846909	-0.1365398	0.2856844	0	0	0	0	0	0
6.863601	-0.1365398	0.2856844	0	0	0	0	0	0
6.880106	-0.136514	0.2856665	0.001564577	-0.001083377	0.04712949	-0.03263438	0	0
6.896608	-0.136514	0.2856665	0	0	-0.04740115	0.03282249	0	0
6.913176	-0.1364882	0.2856486	0.001558722	-0.001079323	0.04713526	-0.03263838	0	0
6.930143	-0.1364882	0.2856129	0	-0.002107689	-0.04648046	-0.03066545	0	0
6.946308	-0.1364624	0.285595	0.001598451	-0.001106195	0.04824413	0.0302269	0	0
6.963165	-0.1364365	0.2855771	0.001531958	-0.00106079	-0.002013636	0.001374994	0	0
6.979442	-0.1364365	0.2855771	0	0	-0.04623592	0.03201564	0	0
6.996188	-0.1364365	0.2855771	0	0	0	0	0	0
7.016771	-0.1364107	0.2855592	0.001254604	-0.0008701872	0.0336092	-0.02331117	0	0
7.033341	-0.1364107	0.2855592	0	0	-0.03376837	0.02342157	0	0
7.050229	-0.1364107	0.2855592	0	0	0	0	0	0
7.066473	-0.1363849	0.2855413	0.001590662	-0.001100804	0.04800974	-0.03322473	0	0
7.08304	-0.1363591	0.2855592	0.001558722	0.001079323	-0.0009734473	0.06644468	0	0
7.099766	-0.1363591	0.2855592	0	0	-0.04681797	-0.03241868	0	0
7.116175	-0.1363332	0.2855413	0.001574669	-0.001089736	0.04752291	-0.03288783	0	0
7.132789	-0.1363332	0.2855413	0	0	-0.04768486	0.0329999	0	0
7.149308	-0.1363332	0.2855413	0	0	0	0	0	0
7.165874	-0.1363591	0.2855234	-0.001559712	-0.001079385	-0.04714139	-0.0326238	0	0
7.182442	-0.1363591	0.2855234	0	0	0.04707287	0.03257638	0	0
7.199336	-0.1363591	0.2855234	0	0	0	0	0	0
7.215573	-0.1363591	0.2855234	0	0	0	0	0	0
7.23214	-0.1363332	0.2855055	0.001559667	-0.001079354	0.04754431	-0.03290263	0	0
7.248868	-0.1363332	0.2855055	0	0	-0.04684433	0.03241822	0	0
7.265272	-0.1363332	0.2855055	0	0	0	0	0	0
7.281838	-0.1363332	0.2855055	0	0	0	0	0	0
7.298405	-0.1363332	0.2855055	0	0	0	0	0	0
7.314973	-0.1363074	0.2854877	0.001558678	-0.001079292	0.04704098	-0.0325731	0	0
7.331539	-0.1363074	0.2854877	0	0	-0.04704234	0.03257404	0	0
7.348105	-0.1363074	0.2854877	0	0	0	0	0	0
7.364673	-0.1363074	0.2854877	0	0	0	0	0	0
7.381461	-0.1362816	0.2854698	0.001538268	-0.001065159	0.04611772	-0.0319338	0	0
7.397805	-0.1362816	0.2854698	0	0	-0.04642835	0.03214889	0	0
7.414371	-0.1362816	0.2854698	0	0	0	0	0	0
7.430939	-0.1362557	0.2854519	0.001559622	-0.001079323	0.04707083	-0.03257497	0	0
7.447506	-0.1362299	0.285434	0.001558678	-0.001079292	-2.849695E-05	9.345566E-07	0	0
7.464072	-0.1362041	0.2854161	0.001559801	-0.001079447	3.392003E-05	-4.687106E-06	0	0
7.480638	-0.1361782	0.2853982	0.001558812	-0.001079385	-2.985963E-05	1.876329E-06	0	0
7.497205	-0.1361782	0.2853982	0	0	-0.0470464	0.03257685	0	0
7.513771	-0.1361524	0.2853804	0.001559756	-0.001079416	0.04707558	-0.03257825	0	0
7.530564	-0.1361524	0.2853804	0	0	-0.04675729	0.03235799	0	0
7.563589	-0.1361782	0.2853625	-0.0007824006	-0.0005414537	-0.01570532	-0.01086873	0	0
7.662872	-0.1361524	0.2853446	0.0002602516	-0.0001801049	0.007880492	0.002731118	0	0
7.679439	-0.1361524	0.2853446	0	0	-0.002246444	0.001554633	0	0
7.699927	-0.1361524	0.2853446	0	0	0	0	0	0
7.716495	-0.1361524	0.2853446	0	0	0	0	0	0
7.733208	-0.1361266	0.2853267	0.001545158	-0.001069931	0.04642851	-0.032149	0	0
7.749629	-0.1361524	0.2853088	-0.001572572	-0.001088913	-0.09409465	-0.0005729102	0	0
7.766195	-0.1361524	0.2853088	0	0	0.04767163	0.03300979	0	0
7.782762	-0.1361524	0.2853088	0	0	0	0	0	0
7.799328	-0.1361524	0.2853088	0	0	0	0	0	0
7.815895	-0.1361524	0.2852731	0	-0.00215877	0	-0.06515463	0	0
7.832461	-0.1361524	0.2852731	0	0	0	0.06515463	0	0
7.84903	-0.1361524	0.2852373	0	-0.002160258	0	-0.06519485	0	0
7.865596	-0.1362041	0.2852015	-0.003118614	-0.002158833	-0.09411994	4.303239E-05	0	0
7.882313	-0.1363591	0.2850585	-0.009271244	-0.008557248	-0.1848594	-0.1922441	0	0
7.898728	-0.1374695	0.2842894	-0.06764872	-0.04684686	-1.761937	-1.155649	0	0
7.915295	-0.1437387	0.2799431	-0.3784162	-0.262355	-9.422234	-6.534044	0	0
7.931862	-0.1492245	0.2761324	-0.331135	-0.2300211	1.426988	0.9758657	0	0
7.948428	-0.1523112	0.2739135	-0.1863217	-0.1339373	4.370665	2.899941	0	0
7.964995	-0.1571924	0.2705489	-0.2946385	-0.2030967	-3.269149	-2.087324	0	0
7.981562	-0.1632448	0.2663241	-0.3653257	-0.2550081	-2.133374	-1.566712	0	0
8.022761	-0.163501	0.2661451	-0.006218461	-0.004346014	6.216537	4.339233	0	0
8.039328	-0.163501	0.2661451	0	0	0.1076501	0.07523549	0	0
8.055936	-0.1634754	0.2661271	0.001542313	-0.001078452	0.04649089	-0.03250846	0	0
8.072461	-0.1634754	0.2661271	0	0	-0.04654843	0.0325487	0	0
8.089027	-0.1634754	0.2661271	0	0	0	0	0	0
8.105594	-0.1634754	0.2661271	0	0	0	0	0	0
8.122484	-0.1634754	0.2661271	0	0	0	0	0	0
8.138727	-0.1634754	0.2661271	0	0	0	0	0	0
8.171878	-0.1634754	0.2661271	0	0	0	0	0	0
8.188427	-0.1634754	0.2661271	0	0	0	0	0	0
8.204993	-0.1634754	0.2661271	0	0	0	0	0	0
8.22156	-0.1634754	0.2661271	0	0	0	0	0	0
8.238564	-0.1634754	0.2661271	0	0	0	0	0	0
8.254694	-0.1634754	0.2661271	0	0	0	0	0	0
8.27126	-0.1634754	0.2661271	0	0	0	0	0	0
8.287827	-0.163501	0.2661451	-0.001546219	0.001081184	-0.04666768	0.03263208	0	0
8.304393	-0.163501	0.2661451	0	0	0.04666768	-0.03263208	0	0
8.321121	-0.163501	0.2661451	0	0	0	0	0	0
8.337527	-0.163501	0.2661451	0	0	0	0	0	0
8.357442	-0.163501	0.2661451	0	0	0	0	0	0
8.374009	-0.163501	0.2661451	0	0	0	0	0	0
8.390575	-0.163501	0.2661451	0	0	0	0	0	0
8.407142	-0.163501	0.2661451	0	0	0	0	0	0
8.423708	-0.163501	0.2661451	0	0	0	0	0	0
8.440275	-0.163501	0.2661451	0	0	0	0	0	0
8.456841	-0.163501	0.2661451	0	0	0	0	0	0
8.473408	-0.163501	0.2661451	0	0	0	0	0	0
8.490239	-0.163501	0.2661451	0	0	0	0	0	0
8.506541	-0.1634754	0.2661271	0.001571275	-0.001098704	0.04742254	-0.03315991	0	0
8.523264	-0.1634754	0.2661271	0	0	-0.04757866	0.03326908	0	0
8.539675	-0.1634754	0.2661271	0	0	0	0	0	0
8.556287	-0.1634754	0.2661271	0	0	0	0	0	0
8.572808	-0.1634754	0.2661271	0	0	0	0	0	0
8.589375	-0.1634754	0.2661271	0	0	0	0	0	0
8.605942	-0.1634754	0.2661271	0	0	0	0	0	0
8.622508	-0.1634754	0.2661271	0	0	0	0	0	0
8.639075	-0.1634754	0.2661271	0	0	0	0	0	0
8.655642	-0.1634754	0.2661271	0	0	0	0	0	0
8.672208	-0.1634754	0.2661271	0	0	0	0	0	0
8.688775	-0.1634754	0.2661271	0	0	0	0	0	0
8.705341	-0.1634754	0.2661271	0	0	0	0	0	0
8.721908	-0.1634754	0.2661271	0	0	0	0	0	0
8.738474	-0.1634754	0.2661271	0	0	0	0	0	0
8.75504	-0.1634754	0.2661271	0	0	0	0	0	0
8.771606	-0.1634754	0.2661271	0	0	0	0	0	0
8.788448	-0.1634754	0.2661271	0	0	0	0	0	0
8.80474	-0.1634754	0.2661271	0	0	0	0	0	0
8.821306	-0.1634754	0.2661271	0	0	0	0	0	0
8.837984	-0.1634754	0.2661271	0	0	0	0	0	0
8.85444	-0.1634754	0.2661271	0	0	0	0	0	0
8.871007	-0.1634754	0.2661271	0	0	0	0	0	0
8.887573	-0.1634754	0.2661271	0	0	0	0	0	0
8.90414	-0.1634754	0.2661271	0	0	0	0	0	0
8.920708	-0.1634754	0.2661271	0	0	0	0	0	0
8.937273	-0.1634754	0.2661271	0	0	0	0	0	0
8.9731	-0.1634754	0.2661271	0	0	0	0	0	0
8.99009	-0.1634754	0.2661271	0	0	0	0	0	0
9.006233	-0.1634754	0.2661271	0	0	0	0	0	0
9.022799	-0.1634754	0.2661271	0	0	0	0	0	0
9.039626	-0.1634754	0.2661271	0	0	0	0	0	0
9.056137	-0.1634754	0.2661271	0	0	0	0	0	0
9.072499	-0.1634754	0.2661271	0	0	0	0	0	0
9.089066	-0.1634754	0.2661271	0	0	0	0	0	0
9.105673	-0.1634754	0.2661271	0	0	0	0	0	0
9.122199	-0.1634754	0.2661271	0	0	0	0	0	0
9.138765	-0.1634498	0.2661093	0.001546219	-0.001079385	0.04672416	-0.03261722	0	0
9.155332	-0.1634498	0.2661093	0	0	-0.04666768	0.03257778	0	0
9.172218	-0.1634498	0.2661093	0	0	0	0	0	0
9.188465	-0.1634498	0.2661093	0	0	0	0	0	0
9.205241	-0.1634498	0.2661093	0	0	0	0	0	0
9.2216	-0.1634498	0.2661093	0	0	0	0	0	0
9.238166	-0.1634498	0.2661093	0	0	0	0	0	0
9.254733	-0.1634498	0.2661093	0	0	0	0	0	0
9.271299	-0.1634498	0.2661093	0	0	0	0	0	0
9.287866	-0.1634498	0.2661093	0	0	0	0	0	0
9.304432	-0.1634498	0.2661093	0	0	0	0	0	0
9.320998	-0.1634498	0.2661093	0	0	0	0	0	0
9.337565	-0.1634498	0.2661093	0	0	0	0	0	0
9.354132	-0.1634498	0.2661093	0	0	0	0	0	0
9.370699	-0.1634498	0.2661093	0	0	0	0	0	0
9.387265	-0.1634498	0.2661093	0	0	0	0	0	0
9.403831	-0.1634498	0.2661093	0	0	0	0	0	0
9.420398	-0.1634498	0.2661093	0	0	0	0	0	0
9.436966	-0.1634498	0.2661093	0	0	0	0	0	0
9.453532	-0.1634498	0.2661093	0	0	0	0	0	0
9.470098	-0.1634498	0.2661093	0	0	0	0	0	0
9.503232	-0.1634498	0.2661093	0	0	0	0	0	0
9.519966	-0.1634498	0.2661093	0	0	0	0	0	0
9.536366	-0.1634498	0.2661093	0	0	0	0	0	0
9.552933	-0.1634498	0.2661093	0	0	0	0	0	0
9.56951	-0.1634498	0.2661093	0	0	0	0	0	0
9.586065	-0.1634498	0.2661093	0	0	0	0	0	0
9.602632	-0.1634498	0.2661093	0	0	0	0	0	0
9.639036	-0.1634498	0.2661093	0	0	0	0	0	0
9.655602	-0.1634498	0.2661093	0	0	0	0	0	0
9.672169	-0.1634498	0.2661093	0	0	0	0	0	0
9.688735	-0.1634498	0.2661093	0	0	0	0	0	0
9.705302	-0.1634498	0.2661093	0	0	0	0	0	0
9.721869	-0.1634498	0.2661093	0	0	0	0	0	0
9.738435	-0.1634498	0.2661093	0	0	0	0	0	0
9.755128	-0.1634498	0.2661093	0	0	0	0	0	0
9.771642	-0.1634498	0.2661093	0	0	0	0	0	0
9.788135	-0.1634498	0.2661093	0	0	0	0	0	0
9.804701	-0.1634498	0.2661093	0	0	0	0	0	0
9.821267	-0.1634498	0.2661093	0	0	0	0	0	0
9.837833	-0.1634498	0.2661093	0	0	0	0	0	0
9.854402	-0.1634498	0.2661093	0	0	0	0	0	0
9.871207	-0.1634498	0.2661093	0	0	0	0	0	0
9.887533	-0.1634498	0.2661093	0	0	0	0	0	0
9.904231	-0.1634498	0.2661093	0	0	0	0	0	0
9.920743	-0.1634498	0.2661093	0	0	0	0	0	0
9.937233	-0.1634498	0.2661093	0	0	0	0	0	0
9.953799	-0.1634498	0.2661093	0	0	0	0	0	0
9.970366	-0.1634498	0.2661093	0	0	0	0	0	0
9.986932	-0.1634498	0.2661093	0	0	0	0	0	0
10.0035	-0.1634498	0.2661093	0	0	0	0	0	0
10.03665	-0.1634498	0.2661093	0	0	0	0	0	0
10.05334	-0.1634498	0.2661093	0	0	0	0	0	0
10.06977	-0.1634498	0.2661093	0	0	0	0	0	0
10.08636	-0.1634498	0.2661093	0	0	0	0	0	0
10.1029	-0.1634498	0.2661093	0	0	0	0	0	0
10.11993	-0.1634498	0.2661093	0	0	0	0	0	0
10.13603	-0.1634498	0.2661093	0	0	0	0	0	0
10.1526	-0.1634498	0.2661093	0	0	0	0	0	0
10.16942	-0.1634498	0.2661093	0	0	0	0	0	0
10.18573	-0.1634498	0.2661093	0	0	0	0	0	0
10.2023	-0.1634498	0.2661093	0	0	0	0	0	0
10.25456	-0.1634498	0.2661093	0	0	0	0	0	0
10.27113	-0.1634498	0.2661093	0	0	0	0	0	0
10.32083	-0.1634498	0.2661093	0	0	0	0	0	0
10.33754	-0.1634498	0.2661093	0	0	0	0	0	0
10.37389	-0.1634498	0.2661093	0	0	0	0	0	0
10.39046	-0.1634754	0.2661271	-0.00154613	0.001079323	-0.0292146	0.02039414	0	0
10.40708	-0.1634754	0.2661271	0	0	0.04658052	-0.03251694	0	0
10.42359	-0.1634754	0.2661271	0	0	0	0	0	0
10.44016	-0.1634754	0.2661271	0	0	0	0	0	0
10.45673	-0.1634754	0.2661271	0	0	0	0	0	0
10.47329	-0.1634754	0.2661271	0	0	0	0	0	0
10.49014	-0.1634754	0.2661271	0	0	0	0	0	0
10.50666	-0.1634754	0.2661271	0	0	0	0	0	0
10.52299	-0.1634754	0.2661271	0	0	0	0	0	0
10.53956	-0.1634754	0.2661271	0	0	0	0	0	0
10.55612	-0.1634754	0.2661271	0	0	0	0	0	0
10.57269	-0.1634754	0.2661271	0	0	0	0	0	0
10.58926	-0.1634498	0.2661093	0.001546041	-0.001079261	0.04665961	-0.03257216	0	0
10.60583	-0.1634498	0.2661093	0	0	-0.04665961	0.03257216	0	0
10.62239	-0.1634498	0.2661093	0	0	0	0	0	0
10.63896	-0.1634498	0.2661093	0	0	0	0	0	0
10.65576	-0.1634498	0.2661093	0	0	0	0	0	0
10.67227	-0.1634498	0.2660734	0	-0.002169487	0	-0.06512474	0	0
10.68866	-0.1634498	0.2660734	0	0	0	0.06594405	0	0
10.70522	-0.1634498	0.2660734	0	0	0	0	0	0
10.72182	-0.1634498	0.2660734	0	0	0	0	0	0
10.73836	-0.1634498	0.2660734	0	0	0	0	0	0
10.75533	-0.1634498	0.2660734	0	0	0	0	0	0
10.77149	-0.1634498	0.2660734	0	0	0	0	0	0
10.78806	-0.1634498	0.2660734	0	0	0	0	0	0
10.80486	-0.1634498	0.2660734	0	0	0	0	0	0
10.82119	-0.1634498	0.2660734	0	0	0	0	0	0
10.83776	-0.1634498	0.2660734	0	0	0	0	0	0
10.85432	-0.1634241	0.2660913	0.00154613	0.001081122	0.04666365	0.03262927	0	0
10.87089	-0.1634241	0.2660913	0	0	-0.04666499	-0.03263021	0	0
10.88746	-0.1634241	0.2660913	0	0	0	0	0	0
10.90402	-0.1634241	0.2660913	0	0	0	0	0	0
10.92059	-0.1634241	0.2660913	0	0	0	0	0	0
10.93746	-0.1634241	0.2660913	0	0	0	0	0	0
10.95372	-0.1634241	0.2660913	0	0	0	0	0	0
10.97029	-0.1634241	0.2660913	0	0	0	0	0	0
11.00557	-0.1633985	0.2660376	0.0007263906	-0.001522886	0.01400938	-0.02937082	0	0
11.02214	-0.1631936	0.2658944	0.01237013	-0.00864488	0.2245562	-0.1373517	0	0
11.03871	-0.1591684	0.2631189	0.2429881	-0.16755	6.960265	-4.795905	0	0
11.05527	-0.1519255	0.2580319	0.4372077	-0.3070689	5.862064	-4.211051	0	0
11.07184	-0.139896	0.2496626	0.7261038	-0.5051727	8.719153	-5.978956	0	0
11.08856	-0.1299219	0.2427045	0.5964383	-0.4160884	-3.895037	2.676015	0	0
11.10497	-0.1228519	0.237806	0.4308403	-0.2985068	-4.998047	3.548823	0	0
11.12154	-0.1041221	0.2247138	1.130597	-0.7902926	21.2201	-14.91338	0	0
11.1381	-0.1001637	0.2219817	0.2389439	-0.1649184	-26.91171	18.87492	0	0
11.15467	-0.07703149	0.2057872	1.396262	-0.9775006	34.92893	-24.52449	0	0
11.17124	-0.06946699	0.200472	0.4565937	-0.3208261	-28.35924	19.81848	0	0
11.18781	-0.05864321	0.1926276	0.6533626	-0.4735191	5.93867	-4.608417	0	0
11.20437	-0.04749058	0.1810166	0.6732125	-0.7008817	0.5991055	-6.862211	0	0
11.22115	-0.04615141	0.1688424	0.07979876	-0.725437	-17.79454	-0.7363357	0	0
11.2375	-0.04686041	0.1500008	-0.04336154	-1.152342	-3.717199	-12.88476	0	0
11.25418	-0.0480157	0.1351598	-0.06929075	-0.8901156	-0.7851665	7.940527	0	0
11.27069	-0.04835701	0.1302584	-0.02067178	-0.2968552	1.46513	17.87788	0	0
11.30377	-0.04977464	0.09079897	-0.04285209	-1.192778	-0.4472469	-18.06551	0	0
11.32034	-0.05008965	0.07153122	-0.01901472	-1.16307	0.4801247	0.5983528	0	0
11.33724	-0.04956464	0.05332362	0.03106725	-1.07743	1.496531	2.559075	0	0
11.35347	-0.04827825	0.04044973	0.07923862	-0.7930006	1.453856	8.584339	0	0
11.37026	-0.04644027	0.02814767	0.1094722	-0.7327261	0.9155076	1.825183	0	0
11.3866	-0.04449692	0.01629066	0.1189022	-0.7254622	0.284607	0.2192312	0	0
11.40317	-0.04184398	0.005013518	0.1601412	-0.6807291	1.25307	1.359241	0	0
11.41979	-0.03695685	-0.009188088	0.2940062	-0.8543582	4.033436	-5.231554	0	0
11.4363	-0.03293546	-0.01937818	0.2435591	-0.6171712	-1.52254	7.158523	0	0
11.45287	-0.0273353	-0.03237611	0.3380458	-0.7846016	2.856547	-5.061801	0	0
11.46944	-0.02352198	-0.03753352	0.2301856	-0.3113199	-3.255413	14.28449	0	0
11.486	-0.01699836	-0.05028419	0.3937888	-0.7696763	4.937839	-13.83402	0	0
11.51936	-0.01228886	-0.06134263	0.1411743	-0.3314928	-5.0598	8.776693	0	0
11.5357	-0.01323607	-0.07311889	-0.05796811	-0.7206899	-4.006906	-7.830962	0	0
11.55238	-0.01399909	-0.07889043	-0.04573721	-0.3459612	0.3703765	11.34755	0	0
11.56884	-0.01586709	-0.08436434	-0.1135504	-0.3327428	-2.046664	0.3989437	0	0
11.58541	-0.0189188	-0.08948073	-0.1840954	-0.3086481	-2.135937	0.7295285	0	0
11.60197	-0.0242584	-0.09474297	-0.3225032	-0.3178307	-4.177279	-0.2771395	0	0
11.61854	-0.02757196	-0.09719317	-0.2000184	-0.1479032	3.697877	5.130195	0	0
11.63837	-0.03259372	-0.1009117	-0.2532315	-0.1875154	-1.462019	-1.088338	0	0
11.65495	-0.03361891	-0.1016717	-0.06179892	-0.04580923	5.256267	3.890903	0	0
11.6715	-0.03364519	-0.1016912	-0.0015888	-0.00117809	1.817197	1.347009	0	0
11.70463	-0.03364519	-0.1016912	0	0	0.03198206	0.02371459	0	0
11.7212	-0.03364519	-0.1016912	0	0	0	0	0	0
11.73777	-0.03364519	-0.1016912	0	0	0	0	0	0
11.75433	-0.03364519	-0.1016912	0	0	0	0	0	0
11.77104	-0.03364519	-0.1016912	0	0	0	0	0	0
11.78747	-0.03364519	-0.1016912	0	0	0	0	0	0
11.80403	-0.03364519	-0.1016912	0	0	0	0	0	0
11.8206	-0.03364519	-0.1016912	0	0	0	0	0	0
11.83716	-0.03364519	-0.1016912	0	0	0	0	0	0
11.85373	-0.03364519	-0.1016912	0	0	0	0	0	0
11.8703	-0.03367148	-0.1016717	-0.001586696	0.00117653	-0.04788797	0.03550876	0	0
11.88686	-0.03367148	-0.1016717	0	0	0.04788934	-0.03550978	0	0
11.90343	-0.03367148	-0.1016717	0	0	0	0	0	0
11.92	-0.03367148	-0.1016717	0	0	0	0	0	0
11.93657	-0.03367148	-0.1016717	0	0	0	0	0	0
11.95317	-0.03367148	-0.1016717	0	0	0	0	0	0
11.9697	-0.03367148	-0.1016717	0	0	0	0	0	0
11.98626	-0.03367148	-0.1016717	0	0	0	0	0	0
12.0032	-0.03367148	-0.1016717	0	0	0	0	0	0
12.0194	-0.03367148	-0.1016717	0	0	0	0	0	0
12.03596	-0.03367148	-0.1016717	0	0	0	0	0	0
12.0691	-0.03372405	-0.1016717	-0.00158665	0	-0.03192469	0	0	0
12.10223	-0.03369777	-0.1016912	0.0007933252	-0.000588248	0.03591494	-0.008876936	0	0
12.1188	-0.03369777	-0.1016912	0	0	-0.01596235	0.01183603	0	0
12.13536	-0.03372405	-0.1016717	-0.001586696	0.00117653	-0.04788934	0.03550978	0	0
12.15193	-0.03372405	-0.1016717	0	0	0.04788659	-0.03550774	0	0
12.1685	-0.03372405	-0.1016717	0	0	0	0	0	0
12.18533	-0.03372405	-0.1016717	0	0	0	0	0	0
12.20163	-0.03372405	-0.1016717	0	0	0	0	0	0
12.21835	-0.03372405	-0.1016717	0	0	0	0	0	0
12.23486	-0.03372405	-0.1016717	0	0	0	0	0	0
12.25138	-0.03372405	-0.1016717	0	0	0	0	0	0
12.2679	-0.03372405	-0.1016717	0	0	0	0	0	0
12.28772	-0.03372405	-0.1016717	0	0	0	0	0	0
12.30441	-0.03372405	-0.1016717	0	0	0	0	0	0
12.32086	-0.03372405	-0.1016717	0	0	0	0	0	0
12.33744	-0.03372405	-0.1016717	0	0	0	0	0	0
12.35399	-0.03372405	-0.1016717	0	0	0	0	0	0
12.37055	-0.03372405	-0.1016717	0	0	0	0	0	0
12.38712	-0.03372405	-0.1016717	0	0	0	0	0	0
12.40369	-0.03372405	-0.1016717	0	0	0	0	0	0
12.42025	-0.03372405	-0.1016717	0	0	0	0	0	0
12.43682	-0.03372405	-0.1016717	0	0	0	0	0	0
12.45339	-0.03372405	-0.1016717	0	0	0	0	0	0
12.46995	-0.03372405	-0.1016717	0	0	0	0	0	0
12.48654	-0.03372405	-0.1016717	0	0	0	0	0	0
12.50309	-0.03372405	-0.1016717	0	0	0	0	0	0
12.51965	-0.03372405	-0.1016717	0	0	0	0	0	0
12.53657	-0.03372405	-0.1016717	0	0	0	0	0	0
12.55278	-0.03372405	-0.1016717	0	0	0	0	0	0
12.56935	-0.03372405	-0.1016717	0	0	0	0	0	0
12.58592	-0.03372405	-0.1016717	0	0	0	0	0	0
12.60248	-0.03372405	-0.1016717	0	0	0	0	0	0
12.61905	-0.03372405	-0.1016717	0	0	0	0	0	0
12.63564	-0.03372405	-0.1016717	0	0	0	0	0	0
12.65219	-0.03372405	-0.1016717	0	0	0	0	0	0
12.66875	-0.03375034	-0.1016522	-0.001586696	0.00117653	-0.04792659	0.0355374	0	0
12.68532	-0.03382919	-0.1015937	-0.004759815	0.003528937	-0.09576766	0.07099783	0	0
12.70189	-0.03409205	-0.1013599	-0.01586696	0.01411521	-0.335224	0.3195035	0	0
12.71845	-0.03424976	-0.1010871	-0.009519405	0.01646597	0.1915752	0.07094822	0	0
12.73522	-0.03480173	-0.09900313	-0.03292855	0.1243208	-0.7023454	3.235973	0	0
12.75173	-0.03737732	-0.09557889	-0.1559836	0.2073796	-3.69816	2.496157	0	0
12.76815	-0.04565247	-0.08926735	-0.5038101	0.3842613	-10.56034	5.370297	0	0
12.78472	-0.04806821	-0.08732834	-0.1458227	0.1170458	10.85093	-8.099548	0	0
12.81785	-0.06679522	-0.06512799	-0.5651987	0.6700271	-8.438186	11.12643	0	0
12.83442	-0.06789548	-0.05346133	-0.06641164	0.7042012	10.03581	0.6875972	0	0
12.8513	-0.06841935	-0.03555326	-0.03102628	1.060603	1.057794	10.65411	0	0
12.86781	-0.06855032	-0.02633528	-0.007935748	0.5585524	0.691579	-15.03679	0	0
12.88432	-0.06970268	-0.007678383	-0.06978998	1.129905	-1.873505	17.30572	0	0
12.90069	-0.07017406	0.006817356	-0.02880046	0.8856708	1.246683	-7.4283	0	0
12.91725	-0.07114289	0.02134502	-0.05847862	0.8768919	-0.9011355	-0.2665616	0	0
12.93785	-0.07287074	0.04569369	-0.0838943	1.182229	-0.6839013	8.216216	0	0
12.95442	-0.07451965	0.06062397	-0.09952269	0.9011419	-0.4205282	-7.563485	0	0
12.97098	-0.07687452	0.08171006	-0.1421406	1.272758	-1.286173	11.21509	0	0
12.98755	-0.07896703	0.09785119	-0.126311	0.9743367	0.4777505	-9.006645	0	0
13.00412	-0.08048366	0.1085191	-0.09155467	0.6439897	1.049039	-9.970754	0	0
13.05394	-0.08978428	0.1614506	-0.1866811	1.062436	-1.432924	6.303216	0	0
13.07038	-0.09414195	0.1815949	-0.2649817	1.224935	-1.181609	2.452216	0	0
13.08696	-0.09922569	0.2003098	-0.3066614	1.128921	-1.262147	-2.907507	0	0
13.10352	-0.1030547	0.2134745	-0.2312775	0.7951712	2.275157	-10.07288	0	0
13.12008	-0.1057097	0.2218559	-0.1602694	0.5059294	2.143831	-8.732602	0	0
13.13665	-0.1113013	0.2372496	-0.3375057	0.9291685	-5.349156	12.77375	0	0
13.15322	-0.1151463	0.2483	-0.2320988	0.6670393	3.181276	-7.911302	0	0
13.17002	-0.120674	0.2620085	-0.3289741	0.8158478	-2.903147	4.459472	0	0
13.20292	-0.1312671	0.2838602	-0.3220007	0.6642283	0.1403093	-3.050649	0	0
13.21948	-0.1333358	0.2896182	-0.1248696	0.347571	3.985326	-6.401742	0	0
13.23605	-0.137108	0.2974122	-0.227708	0.4704716	-3.103848	3.709361	0	0
13.25261	-0.1423723	0.3082767	-0.3177692	0.6558219	-2.718209	5.594203	0	0
13.26918	-0.1476801	0.3123142	-0.3203809	0.2437021	-0.07882253	-12.43816	0	0
13.28575	-0.1529024	0.3162262	-0.315239	0.2361425	0.1551877	-0.2281575	0	0
13.30231	-0.1567046	0.3205486	-0.2295106	0.2609162	2.587436	0.7477144	0	0
13.31888	-0.1589888	0.3256028	-0.1378763	0.3050761	2.765607	1.332786	0	0
13.33549	-0.1587066	0.325335	0.01698935	-0.01612463	4.667541	-9.68076	0	0
13.35215	-0.158219	0.3247813	0.02927697	-0.0332454	0.3693844	-0.5146764	0	0
13.36858	-0.1578854	0.3239419	0.0202999	-0.05107388	-0.2713111	-0.5388245	0	0
13.38515	-0.1571924	0.3222453	0.04183427	-0.1024175	0.6525381	-1.555821	0	0
13.40172	-0.1546242	0.3200663	0.1550124	-0.1315209	3.41582	-0.8783692	0	0
13.41828	-0.1537506	0.3194591	0.05273606	-0.03665772	-3.086794	2.863059	0	0
13.43485	-0.1489414	0.3159404	0.2902988	-0.2124014	7.170072	-5.304261	0	0
13.45141	-0.1443315	0.3126	0.2782736	-0.2016363	-0.3629442	0.3249093	0	0
13.46798	-0.1387862	0.3084732	0.3347317	-0.2491059	1.704008	-1.432717	0	0
13.48455	-0.1340595	0.3052036	0.2852882	-0.1973429	-1.492207	1.562212	0	0
13.50111	-0.1293009	0.30188	0.2872478	-0.2006253	0.05913881	-0.09906521	0	0
13.51768	-0.1245364	0.298556	0.2876031	-0.2006487	0.01072369	-0.000705648	0	0
13.53425	-0.1223594	0.2970547	0.1314044	-0.09061816	-4.714221	3.320824	0	0
13.55081	-0.1214519	0.2964291	0.0547761	-0.03776229	-2.312714	1.595239	0	0
13.56738	-0.1214779	0.296447	-0.001565558	0.001079385	-1.700492	1.172312	0	0
13.60382	-0.1214779	0.2964112	0	-0.0009813671	0.02953433	-0.03887619	0	0
13.62	-0.1215038	0.2963934	-0.001602564	-0.001103375	-0.0304549	-0.002318615	0	0
13.65336	-0.1214779	0.2963398	0.0007773187	-0.001608246	0.04804467	-0.01019225	0	0
13.66987	-0.1215038	0.2963219	-0.00157008	-0.001081009	-0.04707079	0.01057232	0	0
13.68627	-0.1215038	0.2962861	0	-0.00218112	0.04770778	-0.03342752	0	0
13.70283	-0.1215038	0.2962504	0	-0.002156971	0	0.0007326055	0	0
13.7194	-0.1214779	0.296161	0.001564928	-0.005394506	0.04722963	-0.09770898	0	0
13.73597	-0.1215038	0.2960716	-0.001565199	-0.005395438	-0.09447014	-2.812223E-05	0	0
13.75253	-0.1215297	0.2959823	-0.001565109	-0.005395127	2.719623E-06	9.374618E-06	0	0
13.76944	-0.1215556	0.2958929	-0.001533677	-0.005285017	0.0009390246	0.003289603	0	0
13.78567	-0.1216075	0.2958214	-0.00319571	-0.004406039	-0.05016312	0.02652915	0	0
13.80246	-0.1218149	0.2956427	-0.01235024	-0.01064321	-0.2772257	-0.1888796	0	0
13.8188	-0.1222557	0.295303	-0.02697574	-0.02078712	-0.4414114	-0.3061529	0	0
13.83537	-0.1280326	0.2913167	-0.3487192	-0.2406327	-9.778062	-6.681299	0	0
13.85196	-0.1343696	0.2869361	-0.3818209	-0.263938	-0.9981478	-0.7027467	0	0
13.86851	-0.1399476	0.2830733	-0.3370527	-0.2334161	1.35064	0.9208356	0	0
13.93477	-0.1494561	0.2764723	-0.1435153	-0.09963043	2.337303	1.615696	0	0
13.95134	-0.1494561	0.2764723	0	0	1.732759	1.202907	0	0
13.9679	-0.1494561	0.2764723	0	0	0	0	0	0
13.98447	-0.1494561	0.2764723	0	0	0	0	0	0
14.0011	-0.1494561	0.2764723	0	0	0	0	0	0
14.0176	-0.1494561	0.2764723	0	0	0	0	0	0
14.03417	-0.1494561	0.2764723	0	0	0	0	0	0
14.05073	-0.1494818	0.2764902	-0.001552426	0.001081122	-0.04685367	0.03262927	0	0
14.0673	-0.1494818	0.2764902	0	0	0.04685367	-0.03262927	0	0
14.08416	-0.1494818	0.2764902	0	0	0	0	0	0
14.10043	-0.1494818	0.2764902	0	0	0	0	0	0
14.117	-0.1494818	0.276526	0	0.002158646	0	0.06573649	0	0
14.1337	-0.1494818	0.2765618	0	0.002143785	0	-0.0004467594	0	0
14.15013	-0.1494818	0.2765976	0	0.002177618	0	0.001021136	0	0
14.16672	-0.1494818	0.2765976	0	0	0	-0.0659408	0	0
14.18327	-0.1494818	0.2766334	0	0.002161508	0	0.06523819	0	0
14.19983	-0.1495076	0.2766513	-0.001553415	0.001081184	-0.04691457	-0.03262677	0	0
14.2164	-0.149559	0.2767228	-0.00310683	0.00431934	-0.04688486	0.09773336	0	0
14.23326	-0.1496105	0.2768302	-0.003051496	0.006364497	0.001655096	0.0611719	0	0
14.24979	-0.1496362	0.2768481	-0.001556368	0.001083867	0.04477508	-0.1581408	0	0
14.2661	-0.1496362	0.2768481	0	0	0.04740104	-0.03301046	0	0
14.28267	-0.1496105	0.2768302	0.001552516	-0.001081184	0.04722472	-0.03288767	0	0
14.32078	-0.1496105	0.2768302	0	0	-0.02839084	0.0197716	0	0
14.33735	-0.1496105	0.2768302	0	0	0	0	0	0
14.35392	-0.1495848	0.2768123	0.001553415	-0.001079385	0.04688486	-0.03257778	0	0
14.37048	-0.149559	0.2767944	0.001553415	-0.001079385	0	0	0	0
14.38705	-0.149559	0.2767944	0	0	-0.04688351	0.03257685	0	0
14.40361	-0.149559	0.2767586	0	-0.002160569	0	-0.06520799	0	0
14.42018	-0.149559	0.2767586	0	0	0	0.06520987	0	0
14.43675	-0.149559	0.2767586	0	0	0	0	0	0
14.45342	-0.149559	0.2767586	0	0	0	0	0	0
14.46993	-0.149559	0.2767586	0	0	0	0	0	0
14.48645	-0.149559	0.2767586	0	0	0	0	0	0
14.50301	-0.149559	0.2767586	0	0	0	0	0	0
14.51958	-0.149559	0.2767586	0	0	0	0	0	0
14.53615	-0.149559	0.2767586	0	0	0	0	0	0
14.55271	-0.149559	0.2767586	0	0	0	0	0	0
14.56928	-0.149559	0.2767944	0	0.002160445	0	0.06520423	0	0
14.58585	-0.1495848	0.2768123	-0.001553415	0.001079385	-0.04688351	-0.03262739	0	0
14.61149	-0.1495848	0.2768123	0	0	0.03680156	-0.02557144	0	0
14.64462	-0.1495848	0.2768123	0	0	0	0	0	0
14.66119	-0.1495848	0.2768123	0	0	0	0	0	0
14.67808	-0.1496105	0.2768302	-0.001524024	0.001058963	-0.04555849	0.03165616	0	0
14.69459	-0.1496105	0.2768302	0	0	0.04563656	-0.0317104	0	0
14.7111	-0.1496105	0.2768302	0	0	0	0	0	0
14.72761	-0.1496105	0.2768302	0	0	0	0	0	0
14.74403	-0.1496105	0.2768302	0	0	0	0	0	0
14.76059	-0.1496105	0.2768302	0	0	0	0	0	0
14.79373	-0.1495848	0.2768123	0.0007766853	-0.000539677	0.01562754	-0.01085874	0	0
14.81029	-0.1495848	0.2768123	0	0	-0.01562754	0.01085874	0	0
14.82686	-0.1495848	0.2768123	0	0	0	0	0	0
14.84342	-0.1495848	0.2768123	0	0	0	0	0	0
14.8602	-0.1496105	0.2768302	-0.001533639	0.001065644	-0.04599144	0.031957	0	0
14.87993	-0.1496105	0.2768302	0	0	0.04200765	-0.02918887	0	0
14.8965	-0.1496105	0.2768302	0	0	0	0	0	0
14.91324	-0.1496105	0.2768302	0	0	0	0	0	0
14.92975	-0.1496105	0.2768302	0	0	0	0	0	0
14.9462	-0.1496105	0.2768302	0	0	0	0	0	0
14.96277	-0.1496105	0.2768302	0	0	0	0	0	0
14.97933	-0.1496105	0.2768302	0	0	0	0	0	0
14.9959	-0.1496105	0.2768302	0	0	0	0	0	0
15.01246	-0.1496105	0.2768302	0	0	0	0	0	0
15.02903	-0.1496105	0.2768302	0	0	0	0	0	0
15.0456	-0.1496105	0.2768302	0	0	0	0	0	0
15.06216	-0.1495848	0.2768123	0.001553415	-0.001079385	0.04688486	-0.03257778	0	0
15.07873	-0.149559	0.2767944	0.001553415	-0.001079385	0	0	0	0
15.0953	-0.149559	0.2767944	0	0	-0.04688486	0.03257778	0	0
15.11188	-0.149559	0.2767944	0	0	0	0	0	0
15.12843	-0.149559	0.2767944	0	0	0	0	0	0
15.145	-0.149559	0.2767944	0	0	0	0	0	0
15.16156	-0.149559	0.2767944	0	0	0	0	0	0
15.17813	-0.149559	0.2767944	0	0	0	0	0	0
15.1947	-0.149559	0.2767944	0	0	0	0	0	0
15.21126	-0.149559	0.2767944	0	0	0	0	0	0
15.22783	-0.149559	0.2767944	0	0	0	0	0	0
15.2444	-0.1496105	0.2768302	-0.00310683	0.00215877	-0.09376973	0.06515557	0	0
15.26096	-0.1496105	0.2768302	0	0	0.09376973	-0.06515557	0	0
15.27753	-0.1496105	0.2768302	0	0	0	0	0	0
15.29409	-0.1496105	0.2768302	0	0	0	0	0	0
15.32723	-0.1496362	0.2768481	-0.0007762355	0.0005405765	-0.01561849	0.01087684	0	0
15.34379	-0.1496362	0.2768481	0	0	0.01561849	-0.01087684	0	0
15.36036	-0.1496362	0.2768481	0	0	0	0	0	0
15.37693	-0.149662	0.276866	-0.001553415	0.001079385	-0.04688486	0.03257778	0	0
15.39349	-0.149662	0.276866	0	0	0.04688486	-0.03257778	0	0
15.41006	-0.149662	0.276866	0	0	0	0	0	0
15.4271	-0.149662	0.276866	0	0	0	0	0	0
15.44319	-0.149662	0.276866	0	0	0	0	0	0
15.48308	-0.149662	0.276866	0	0	0	0	0	0
15.49965	-0.149662	0.276866	0	0	0	0	0	0
15.51621	-0.149662	0.276866	0	0	0	0	0	0
15.53317	-0.149662	0.276866	0	0	0	0	0	0
15.54935	-0.149662	0.276866	0	0	0	0	0	0
15.56591	-0.149662	0.276866	0	0	0	0	0	0
15.58248	-0.149662	0.276866	0	0	0	0	0	0
15.59922	-0.149662	0.276866	0	0	0	0	0	0
15.61573	-0.149662	0.276866	0	0	0	0	0	0
15.63218	-0.149662	0.276866	0	0	0	0	0	0
15.64874	-0.149662	0.276866	0	0	0	0	0	0
15.71856	-0.149662	0.276866	0	0	0	0	0	0
15.73512	-0.149662	0.276866	0	0	0	0	0	0
15.75169	-0.149662	0.276866	0	0	0	0	0	0
15.76826	-0.149662	0.276866	0	0	0	0	0	0
15.78485	-0.149662	0.276866	0	0	0	0	0	0
15.80139	-0.149662	0.276866	0	0	0	0	0	0
15.81797	-0.149662	0.276866	0	0	0	0	0	0
15.83452	-0.149662	0.276866	0	0	0	0	0	0
15.85109	-0.149662	0.276866	0	0	0	0	0	0
15.86766	-0.149662	0.276866	0	0	0	0	0	0
15.88423	-0.149662	0.276866	0	0	0	0	0	0
15.90079	-0.149662	0.276866	0	0	0	0	0	0
15.91736	-0.149662	0.276866	0	0	0	0	0	0
15.93392	-0.149662	0.276866	0	0	0	0	0	0
15.95049	-0.149662	0.276866	0	0	0	0	0	0
15.96706	-0.149662	0.276866	0	0	0	0	0	0
16.00019	-0.149662	0.276866	0	0	0	0	0	0
16.01676	-0.149662	0.276866	0	0	0	0	0	0
16.03333	-0.149662	0.276866	0	0	0	0	0	0
16.04989	-0.149662	0.276866	0	0	0	0	0	0
16.06646	-0.149662	0.276866	0	0	0	0	0	0
16.08306	-0.149662	0.276866	0	0	0	0	0	0
16.09959	-0.149662	0.276866	0	0	0	0	0	0
16.11616	-0.149662	0.276866	0	0	0	0	0	0
16.13272	-0.149662	0.276866	0	0	0	0	0	0
16.15304	-0.149662	0.276866	0	0	0	0	0	0
16.16962	-0.149662	0.276866	0	0	0	0	0	0
16.18618	-0.149662	0.276866	0	0	0	0	0	0
16.20315	-0.1496362	0.2768481	0.001516487	-0.001053726	0.04523389	-0.03143061	0	0
16.21931	-0.1496362	0.2768481	0	0	-0.04577031	0.03180334	0	0
16.23588	-0.1496362	0.2768481	0	0	0	0	0	0
16.25244	-0.149662	0.276866	-0.001553326	0.001079323	-0.04687947	0.03257403	0	0
16.26901	-0.149662	0.276866	0	0	0.04687947	-0.03257403	0	0
16.28558	-0.149662	0.276866	0	0	0	0	0	0
16.30215	-0.149662	0.276866	0	0	0	0	0	0
16.31873	-0.149662	0.276866	0	0	0	0	0	0
16.33574	-0.149662	0.276866	0	0	0	0	0	0
16.35184	-0.149662	0.276866	0	0	0	0	0	0
16.36841	-0.149662	0.276866	0	0	0	0	0	0
16.38528	-0.149662	0.276866	0	0	0	0	0	0
16.40155	-0.149662	0.276866	0	0	0	0	0	0
16.41811	-0.149662	0.276866	0	0	0	0	0	0
16.43468	-0.149662	0.276866	0	0	0	0	0	0
16.45125	-0.149662	0.276866	0	0	0	0	0	0
16.46784	-0.149662	0.276866	0	0	0	0	0	0
16.48438	-0.149662	0.276866	0	0	0	0	0	0
16.50095	-0.149662	0.276866	0	0	0	0	0	0
16.51752	-0.149662	0.276866	0	0	0	0	0	0
16.53408	-0.149662	0.276866	0	0	0	0	0	0
16.5509	-0.149662	0.276866	0	0	0	0	0	0
16.56741	-0.149662	0.276866	0	0	0	0	0	0
16.58378	-0.149662	0.276866	0	0	0	0	0	0
16.60035	-0.149662	0.276866	0	0	0	0	0	0
16.61692	-0.149662	0.276866	0	0	0	0	0	0
16.63349	-0.149662	0.276866	0	0	0	0	0	0
16.65005	-0.149662	0.276866	0	0	0	0	0	0
16.66662	-0.149662	0.276866	0	0	0	0	0	0
16.68319	-0.149662	0.276866	0	0	0	0	0	0
16.70001	-0.149662	0.276866	0	0	0	0	0	0
16.71632	-0.149662	0.276866	0	0	0	0	0	0
16.73289	-0.149662	0.276866	0	0	0	0	0	0
16.74946	-0.149662	0.276866	0	0	0	0	0	0
16.76606	-0.149662	0.276866	0	0	0	0	0	0
16.78599	-0.149662	0.276866	0	0	0	0	0	0
16.80258	-0.1496362	0.2768481	0.001551361	-0.001077958	0.04247754	-0.02951537	0	0
16.81913	-0.1496362	0.2768481	0	0	-0.04682017	0.03253283	0	0
16.83611	-0.1496362	0.2768481	0	0	0	0	0	0
16.85226	-0.1496362	0.2768481	0	0	0	0	0	0
16.86883	-0.1496362	0.2768481	0	0	0	0	0	0
16.88539	-0.1496362	0.2768481	0	0	0	0	0	0
16.90215	-0.1496362	0.2768481	0	0	0	0	0	0
16.91853	-0.1496362	0.2768481	0	0	0	0	0	0
16.93509	-0.149662	0.276866	-0.001553505	0.001079447	-0.04716177	0.03277019	0	0
16.95169	-0.149662	0.276866	0	0	0.04684711	-0.03255155	0	0
16.96823	-0.149662	0.276866	0	0	0	0	0	0
16.98479	-0.149662	0.276866	0	0	0	0	0	0
17.00136	-0.149662	0.276866	0	0	0	0	0	0
17.01793	-0.149662	0.276866	0	0	0	0	0	0
17.03449	-0.149662	0.276866	0	0	0	0	0	0
17.05106	-0.149662	0.276866	0	0	0	0	0	0
17.06777	-0.149662	0.276866	0	0	0	0	0	0
17.08422	-0.149662	0.276866	0	0	0	0	0	0
17.10076	-0.149662	0.276866	0	0	0	0	0	0
17.11733	-0.149662	0.276866	0	0	0	0	0	0
17.13432	-0.149662	0.276866	0	0	0	0	0	0
17.15046	-0.149662	0.276866	0	0	0	0	0	0
17.16734	-0.149662	0.276866	0	0	0	0	0	0
17.1836	-0.149662	0.276866	0	0	0	0	0	0
17.20037	-0.149662	0.276866	0	0	0	0	0	0
17.21688	-0.149662	0.276866	0	0	0	0	0	0
17.2333	-0.149662	0.276866	0	0	0	0	0	0
17.24986	-0.149662	0.276866	0	0	0	0	0	0
17.26643	-0.149662	0.276866	0	0	0	0	0	0
17.28344	-0.149662	0.276866	0	0	0	0	0	0
17.29956	-0.149662	0.276866	0	0	0	0	0	0
17.31645	-0.149662	0.276866	0	0	0	0	0	0
17.3327	-0.149662	0.276866	0	0	0	0	0	0
17.34947	-0.149662	0.276866	0	0	0	0	0	0
17.36583	-0.149662	0.276866	0	0	0	0	0	0
17.3825	-0.149662	0.276866	0	0	0	0	0	0
17.40285	-0.149662	0.276866	0	0	0	0	0	0
17.41952	-0.149662	0.276866	0	0	0	0	0	0
17.43604	-0.149662	0.276866	0	0	0	0	0	0
17.45255	-0.149662	0.276866	0	0	0	0	0	0
17.46912	-0.149662	0.276866	0	0	0	0	0	0
17.48569	-0.149662	0.276866	0	0	0	0	0	0
17.50258	-0.149662	0.276866	0	0	0	0	0	0
17.51882	-0.149662	0.276866	0	0	0	0	0	0
17.53539	-0.149662	0.276866	0	0	0	0	0	0
17.55212	-0.1496362	0.2768481	0.001538272	-0.001068863	0.04619911	-0.03210129	0	0
17.56852	-0.1496362	0.2768481	0	0	-0.04642783	0.03226022	0	0
17.58514	-0.1496362	0.2768481	0	0	0	0	0	0
17.60165	-0.1496362	0.2768481	0	0	0	0	0	0
17.61822	-0.1496362	0.2768481	0	0	0	0	0	0
17.63479	-0.1496362	0.2768481	0	0	0	0	0	0
17.65169	-0.149662	0.276866	-0.00152282	0.001058126	-0.04550304	0.03161763	0	0
17.66792	-0.149662	0.276866	0	0	0.04595881	-0.03193432	0	0
17.68449	-0.149662	0.276866	0	0	0	0	0	0
17.70106	-0.149662	0.276866	0	0	0	0	0	0
17.71774	-0.149662	0.276866	0	0	0	0	0	0
17.73419	-0.149662	0.276866	0	0	0	0	0	0
17.75076	-0.149662	0.276866	0	0	0	0	0	0
17.76732	-0.149662	0.276866	0	0	0	0	0	0
17.80045	-0.149662	0.276866	0	0	0	0	0	0
17.8173	-0.149662	0.276866	0	0	0	0	0	0
17.83359	-0.149662	0.276866	0	0	0	0	0	0
17.85016	-0.149662	0.276866	0	0	0	0	0	0
17.86684	-0.149662	0.276866	0	0	0	0	0	0
17.88329	-0.1496362	0.2768481	0.001564856	-0.001087335	0.04723288	-0.03281961	0	0
17.89985	-0.1496105	0.2768302	0.001552426	-0.001081122	-0.0003765116	0.0001881941	0	0
17.91642	-0.1495848	0.2768123	0.001553505	-0.001079447	3.254318E-05	5.054348E-05	0	0
17.93299	-0.149559	0.2767944	0.001553326	-0.001079323	-5.396926E-06	3.75255E-06	0	0
17.94955	-0.1495076	0.2767944	0.003106652	0	0.04687947	0.03257403	0	0
17.96612	-0.1495076	0.2767944	0	0	-0.09375893	0	0	0
17.98269	-0.1492502	0.2767586	0.01553236	-0.002160445	0.4687675	-0.06520236	0	0
18.00265	-0.1489929	0.2767586	0.01289145	0	-0.07229525	0.0591424	0	0
18.01922	-0.1488127	0.2768481	0.01087418	0.005400213	-0.05522287	0.1478314	0	0
18.03596	-0.1485296	0.276866	0.01691403	0.001068254	0.1813434	-0.1300649	0	0
18.05235	-0.1480148	0.2770091	0.03140452	0.008731457	0.4373492	0.2312892	0	0
18.06892	-0.1477831	0.2770986	0.01398533	0.005400213	-0.5284806	-0.1010666	0	0
18.08549	-0.1444603	0.2776532	0.2005625	0.033477	5.63091	0.8473592	0	0
18.10205	-0.1300254	0.276526	0.8712934	-0.06803693	20.2427	-3.063697	0	0
18.11862	-0.1131203	0.2758103	1.020395	-0.0431999	4.499899	0.7495829	0	0
18.13553	-0.08918385	0.2747188	1.415632	-0.06455337	11.80663	-0.6378763	0	0
18.15175	-0.07184979	0.2735914	1.068427	-0.06948771	-10.47928	-0.1489273	0	0
18.16855	-0.05662362	0.2721776	0.9063236	-0.08415645	-4.908689	-0.4441862	0	0
18.18489	-0.04018888	0.2699224	1.006135	-0.1380634	3.012302	-1.626915	0	0
18.20158	-0.02859746	0.2684366	0.6945414	-0.089025	-9.435405	1.48494	0	0
18.21802	-0.01515673	0.2665569	0.817401	-0.1143193	3.708123	-0.7634282	0	0
18.2346	-0.008499796	0.265393	0.4015362	-0.07019925	-12.59359	1.336084	0	0
18.25115	0.00449997	0.2623846	0.7853003	-0.1817372	11.58269	-3.366415	0	0
18.26772	0.01436743	0.2592501	0.5956013	-0.1891999	-5.727435	-0.2253176	0	0
18.28429	0.02378499	0.253373	0.5684448	-0.3547393	-0.819584	-4.995988	0	0
18.30085	0.03051684	0.2487841	0.4063821	-0.2770222	-4.891343	2.345644	0	0
18.31742	0.03724593	0.2441933	0.4061685	-0.2771	-0.006447528	-0.002349462	0	0
18.35068	0.0459676	0.2382367	0.2622093	-0.1790787	-2.889036	1.967135	0	0
18.3837	0.05111334	0.2347186	0.155828	-0.1065389	-1.604928	1.094376	0	0
18.40025	0.05113958	0.2347006	0.001585775	-0.001084944	-3.111479	2.127289	0	0
18.41682	0.05108709	0.2347006	-0.003168488	0	-0.1435583	0.03276066	0	0
18.43339	0.05106084	0.2346827	-0.001584539	-0.001083945	0.04780643	-0.03271541	0	0
18.44995	0.05108709	0.2346647	0.001584356	-0.00108382	0.09564295	3.766605E-06	0	0
18.46676	0.0510346	0.2346647	-0.003122474	0	-0.1410134	0.03247051	0	0
18.48327	0.0509821	0.2346647	-0.003179695	0	-0.001717243	0	0	0
18.49965	0.05095585	0.2346468	-0.001602622	-0.001095406	0.04795222	-0.03330674	0	0
18.5163	0.05087711	0.2345929	-0.004729973	-0.003235814	-0.09469432	-0.06481031	0	0
18.53279	0.05082461	0.2345929	-0.003184109	0	0.04665426	0.09765707	0	0
18.54935	0.05079836	0.234575	-0.001584356	-0.00108382	0.04839764	-0.03278903	0	0
18.56592	0.05079836	0.234575	0	0	0.04781597	0.03270976	0	0
18.58249	0.05079836	0.234575	0	0	0	0	0	0
18.59905	0.05079836	0.234575	0	0	0	0	0	0
18.61562	0.05082461	0.234557	0.001584356	-0.001082921	0.04781597	-0.03268262	0	0
18.63219	0.05082461	0.234557	0	0	-0.04781597	0.03268262	0	0
18.6489	0.05082461	0.234557	0	0	0	0	0	0
18.66541	0.05087711	0.234557	0.00317896	0	0.09569333	0	0	0
18.68189	0.05087711	0.234557	0	0	-0.09634607	0	0	0
18.70264	0.05090336	0.2345391	0.001264748	-0.0008651836	0.0339664	-0.0232356	0	0
18.71921	0.05090336	0.2345391	0	0	-0.03388828	0.02318216	0	0
18.73578	0.05090336	0.2345391	0	0	0	0	0	0
18.75235	0.05090336	0.2345391	0	0	0	0	0	0
18.76891	0.05090336	0.2345391	0	0	0	0	0	0
18.78549	0.05090336	0.2345391	0	0	0	0	0	0
18.80205	0.05090336	0.2345391	0	0	0	0	0	0
18.81861	0.05087711	0.234557	-0.001584356	0.00108382	-0.04783524	0.03272295	0	0
18.83518	0.05087711	0.234557	0	0	0.04781597	-0.03270976	0	0
18.85175	0.05087711	0.234557	0	0	0	0	0	0
18.86831	0.05087711	0.234557	0	0	0	0	0	0
18.88488	0	0	-3.070948	-14.15789	-92.68674	-427.3106	0	0
18.90145	0.05087711	0.234557	3.070948	14.15789	185.3628	854.572	0	0
18.91809	0.05087711	0.234557	0	0	-92.47911	-426.3534	0	0
19.05055	0.05085086	0.2345391	-0.0001981558	-0.0001355536	-0.001328984	-0.0009091263	0	0
19.0672	0.05085086	0.2345391	0	0	0.001328933	0.0009090914	0	0
19.08369	0.05085086	0.2345391	0	0	0	0	0	0
19.10025	0.05085086	0.2345391	0	0	0	0	0	0
19.11723	0.05085086	0.2345391	0	0	0	0	0	0
19.13339	0.05085086	0.2345391	0	0	0	0	0	0
19.15026	0.05085086	0.2345391	0	0	0	0	0	0
19.16652	0.05085086	0.2345391	0	0	0	0	0	0
19.18309	0.05085086	0.2345391	0	0	0	0	0	0
19.1998	0.05085086	0.2345391	0	0	0	0	0	0
19.21622	0.05085086	0.2345391	0	0	0	0	0	0
19.23282	0.05082461	0.234557	-0.001581443	0.001081827	-0.0478907	0.03276088	0	0
19.24936	0.05082461	0.234557	0	0	0.04772805	-0.03264962	0	0
19.29905	0.05082461	0.234557	0	0	0	0	0	0
19.31562	0.05082461	0.234557	0	0	0	0	0	0
19.33219	0.05082461	0.234557	0	0	0	0	0	0
19.3489	0.05079836	0.234575	-0.001570614	0.001073528	-0.04719475	0.03225801	0	0
19.36532	0.05077212	0.2345929	-0.0015983	0.001093514	-0.0008356205	0.0006032224	0	0
19.38189	0.05061463	0.2347006	-0.009506138	0.006502022	-0.2397216	0.1639558	0	0
19.39848	0.05048339	0.2347904	-0.007910852	0.005410727	0.04811258	-0.03291263	0	0
19.41502	0.05014215	0.2350238	-0.02062818	0.01410808	-0.3838318	0.2625017	0	0
19.43159	0.04959089	0.2354008	-0.03327418	0.02275483	-0.3819429	0.2611548	0	0
19.44847	0.04940713	0.2354905	-0.01088485	0.005317196	0.6693539	-0.5213172	0	0
19.46498	0.0480157	0.2363701	-0.08424873	0.05325655	-2.196676	1.43541	0	0
19.48129	0.04475956	0.2383444	-0.1997373	0.1211061	-3.519078	2.067459	0	0
19.5178	0.03172619	0.2462737	-0.3569389	0.2171564	-2.97638	1.81857	0	0
19.53437	0.02557337	0.2496088	-0.3713851	0.2013054	-0.2721507	-0.2986158	0	0
19.55105	0.01663005	0.2535881	-0.5361168	0.238543	-4.954503	1.119963	0	0
19.5675	0.009552341	0.2555414	-0.4302326	0.1187373	3.195778	-3.61595	0	0
19.58407	0.003894717	0.2592143	-0.3414948	0.2216929	2.687547	3.118156	0	0
19.60064	0.002894729	0.259895	-0.06035943	0.04108803	8.484683	-5.450667	0	0
19.6172	0.002184207	0.2603428	-0.04288717	0.02702985	0.5273137	-0.4242768	0	0
19.63377	-0.001052631	0.2624741	-0.1953759	0.1286499	-4.60212	3.066899	0	0
19.65034	-0.003684194	0.2639785	-0.1588414	0.09079985	1.102613	-1.142317	0	0
19.66712	-0.005026273	0.263674	-0.07994958	-0.01813537	2.365303	-3.266051	0	0
19.68414	-0.009762848	0.2604861	-0.2784001	-0.1873774	-5.871296	-5.007142	0	0
19.70015	-0.01810328	0.2548067	-0.5209424	-0.3547325	-7.344463	-5.067708	0	0
19.7166	-0.02365348	0.2510608	-0.3372627	-0.2276201	5.65745	3.915141	0	0
19.73317	-0.0279138	0.2482283	-0.2571236	-0.1709559	2.426563	1.71576	0	0
19.79944	-0.0486458	0.255631	-0.3128735	0.1117173	-0.6730454	3.412595	0	0
19.816	-0.05313415	0.2586947	-0.2709173	0.1849276	0.5065321	0.8838573	0	0
19.83257	-0.05365897	0.2590172	-0.03167791	0.01946379	7.220258	-4.993708	0	0
19.84914	-0.05368521	0.2590351	-0.001583724	0.001080998	0.9081919	-0.5547619	0	0
19.86571	-0.05363273	0.2589993	0.003167953	-0.002162493	0.1434059	-0.09788873	0	0
19.88228	-0.05363273	0.2589993	0	0	-0.09558701	0.06524914	0	0
19.89884	-0.05363273	0.2589993	0	0	0	0	0	0
19.91541	-0.05360649	0.2590172	0.001583907	0.001081122	0.04781891	0.0326396	0	0
19.93197	-0.05358025	0.2589993	0.001583907	-0.001081122	0	-0.06525666	0	0
19.94854	-0.05358025	0.2589993	0	0	-0.0478024	0.03262833	0	0
19.96534	-0.05358025	0.2589993	0	0	0	0	0	0
19.98167	-0.05358025	0.2589993	0	0	0	0	0	0
19.99836	-0.05355401	0.2589814	0.001572501	-0.001073337	0.04762266	-0.03250564	0	0
20.0148	-0.05355401	0.2589814	0	0	-0.04746091	0.03239524	0	0
20.03137	-0.05352776	0.2589635	0.001583907	-0.001081122	0.04797915	-0.03274897	0	0
20.04794	-0.05352776	0.2589635	0	0	-0.0478024	0.03262833	0	0
20.06451	-0.05350152	0.2589814	0.001583907	0.001081122	0.0478024	0.03262833	0	0
20.08107	-0.05350152	0.2589814	0	0	-0.0478024	-0.03262833	0	0
20.09764	-0.05347528	0.2589993	0.001583907	0.001081122	0.0478024	0.03262833	0	0
20.11421	-0.05347528	0.2589993	0	0	-0.0478024	-0.03262833	0	0
20.13556	-0.0534228	0.2590351	0.002458114	0.001677946	0.06483021	0.04425409	0	0
20.15247	-0.05344905	0.259053	-0.001551575	0.001059053	-0.1047972	-0.01617538	0	0
20.16869	-0.0534228	0.2590709	0.001617615	0.00110413	0.09564632	0.001360418	0	0
20.18549	-0.0534228	0.2590709	0	0	-0.04898325	-0.03343434	0	0
20.20201	-0.0534228	0.2591068	0	0.002169487	0	0.06512287	0	0
20.21839	-0.0534228	0.2591068	0	0	0	-0.06594215	0	0
20.23496	-0.05344905	0.2591247	-0.001583907	0.001081122	-0.04806246	0.03280584	0	0
20.25153	-0.05344905	0.2591247	0	0	0.0478024	-0.03262833	0	0
20.2681	-0.05344905	0.2591247	0	0	0	0	0	0
20.28466	-0.05344905	0.2591247	0	0	0	0	0	0
20.30158	-0.05344905	0.2591247	0	0	0	0	0	0
20.3181	-0.05344905	0.2591247	0	0	0	0	0	0
20.33436	-0.05344905	0.2591247	0	0	0	0	0	0
20.35093	-0.05344905	0.2591247	0	0	0	0	0	0
20.3675	-0.05344905	0.2591247	0	0	0	0	0	0
20.38407	-0.05347528	0.2591426	-0.001583682	0.001082921	-0.04779561	0.03268262	0	0
20.40065	-0.05347528	0.2591426	0	0	0.04776536	-0.03266193	0	0
20.43377	-0.05355401	0.2591963	-0.002377365	0.00162271	-0.04783268	0.032649	0	0
20.45033	-0.05355401	0.2591963	0	0	0.04785288	-0.03266279	0	0
20.4672	-0.05365897	0.259268	-0.006222922	0.00424771	-0.186126	0.1270479	0	0
20.48371	-0.05376393	0.2593396	-0.006356624	0.004338974	-0.004005636	0.002734208	0	0
20.50003	-0.05384265	0.2593934	-0.004823125	0.003294087	0.04670589	-0.03182421	0	0
20.5166	-0.05389512	0.2594292	-0.003167588	0.002162244	0.05033801	-0.03441464	0	0
20.53325	-0.05405256	0.2595367	-0.00945726	0.006455517	-0.1893649	0.1292587	0	0
20.54976	-0.05420999	0.2596442	-0.009534372	0.006510266	-0.002325494	0.001651098	0	0
20.5663	-0.05515453	0.260289	-0.05710458	0.03898682	-1.439234	0.9825766	0	0
20.58287	-0.05956105	0.2632979	-0.2659778	0.1816177	-6.30889	4.30808	0	0
20.59944	-0.06784309	0.26892	-0.4999049	0.3393463	-7.059933	4.76026	0	0
20.616	-0.07397006	0.2731082	-0.3698246	0.2528044	3.925829	-2.61184	0	0
20.63257	-0.08082355	0.2777963	-0.4136775	0.2829715	-1.323483	0.910445	0	0
20.64914	-0.08328062	0.279478	-0.1483089	0.1015049	8.008842	-5.476673	0	0
20.66584	-0.08568443	0.2811237	-0.143885	0.09850761	0.1329531	-0.0900811	0	0
20.68227	-0.08983649	0.2839675	-0.2527723	0.1731305	-3.286413	2.252254	0	0
20.69887	-0.09161127	0.2851836	-0.1069172	0.07326137	4.416408	-3.023979	0	0
20.7154	-0.09474183	0.2872938	-0.1893312	0.1276171	-2.487262	1.640459	0	0
20.73197	-0.09607175	0.2881342	-0.0802742	0.05072638	3.294572	-2.322839	0	0
20.74854	-0.09625427	0.2882593	-0.01101674	0.007555261	2.090194	-1.302907	0	0
20.76511	-0.09630641	0.2882236	-0.003147126	-0.002158646	0.2375054	-0.2931663	0	0
20.78167	-0.09633248	0.2882414	-0.001574194	0.001079447	0.04747392	0.09773148	0	0
20.79824	-0.09633248	0.2882414	0	0	0.04751201	-0.03257966	0	0
20.8345	-0.09638463	0.2882772	-0.001438031	0.0009862193	-0.0272201	0.01866788	0	0
20.85107	-0.0964107	0.2882951	-0.001573563	0.001079323	-0.002565453	0.001762336	0	0
20.86764	-0.0964107	0.2882951	0	0	0.04749023	-0.03257403	0	0
20.8842	-0.0964107	0.2882951	0	0	0	0	0	0
20.90101	-0.09643677	0.288313	-0.001551063	0.00106389	-0.04647676	0.03187888	0	0
20.91752	-0.09643677	0.288313	0	0	0.04654859	-0.03192816	0	0
20.9339	-0.09643677	0.288313	0	0	0	0	0	0
20.95055	-0.09646284	0.2883309	-0.00156617	0.001074252	-0.04742546	0.0325296	0	0
20.96704	-0.09654105	0.2883845	-0.004743529	0.003253326	-0.09589289	0.06576456	0	0
20.9836	-0.09664534	0.288456	-0.006294702	0.004317292	-0.04692524	0.03218653	0	0
21.06663	-0.09680177	0.2883845	-0.001883984	-0.000861455	0.04428608	-0.05199753	0	0
21.08314	-0.09690604	0.288313	-0.006315337	-0.004331755	-0.044518	-0.03486312	0	0
21.09966	-0.09716673	0.2881699	-0.01578789	-0.008663509	-0.2868399	-0.1311706	0	0
21.16533	-0.1201552	0.2728219	-0.3500102	-0.2336803	-4.066387	-2.737715	0	0
21.18222	-0.1248991	0.2697971	-0.2810011	-0.1791729	0.8358513	0.6602037	0	0
21.19847	-0.1272042	0.2682755	-0.1418297	-0.09362164	4.2002	2.581942	0	0
21.21523	-0.127722	0.2680249	-0.03088471	-0.01494952	3.360127	2.382696	0	0
21.2316	-0.1314999	0.2660197	-0.2308261	-0.1225127	-6.034591	-3.246449	0	0
21.24817	-0.1339303	0.2651961	-0.1466971	-0.04971542	2.554458	2.210386	0	0
21.26477	-0.1363849	0.266897	-0.1478541	0.1024565	-0.03488176	4.587804	0	0
21.2813	-0.1417276	0.2706026	-0.3231934	0.2241585	-5.292056	3.673184	0	0
21.29788	-0.1453364	0.2731082	-0.2176786	0.1511375	3.186828	-2.205426	0	0
21.31481	-0.1471394	0.2743609	-0.1065234	0.0740101	3.31762	-2.302004	0	0
21.331	-0.1470621	0.2743072	0.004770115	-0.003315621	3.360007	-2.334501	0	0
21.34757	-0.1470621	0.2743072	0	0	-0.1455882	0.1011957	0	0
21.36434	-0.1470621	0.2743072	0	0	0	0	0	0
21.3807	-0.1470621	0.2743072	0	0	0	0	0	0
21.39727	-0.1470621	0.2743072	0	0	0	0	0	0
21.41388	-0.1470621	0.2743072	0	0	0	0	0	0
21.4304	-0.1470621	0.2743072	0	0	0	0	0	0
21.44697	-0.1470621	0.2743072	0	0	0	0	0	0
21.46353	-0.1470621	0.2743072	0	0	0	0	0	0
21.4801	-0.1470621	0.2743072	0	0	0	0	0	0
21.49667	-0.1470621	0.2743072	0	0	0	0	0	0
21.52388	-0.1470621	0.2743072	0	0	0	0	0	0
21.54613	-0.1470364	0.2742893	0.001157209	-0.0008036174	0.02339442	-0.01624612	0	0
21.56298	-0.1470364	0.2742893	0	0	-0.02959853	0.02055454	0	0
21.57949	-0.1470364	0.2742893	0	0	0	0	0	0
21.59583	-0.1470106	0.2742714	0.001575446	-0.001095883	0.04795005	-0.03335415	0	0
21.6124	-0.1470106	0.2742714	0	0	-0.04786947	0.03329809	0	0
21.62903	-0.1469849	0.2742535	0.001548876	-0.001075608	0.04666457	-0.03240595	0	0
21.64554	-0.1469849	0.2742535	0	0	-0.04674247	0.03246005	0	0
21.6621	-0.1469591	0.2742356	0.001554583	-0.001081371	0.04700129	-0.03269418	0	0
21.72837	-0.1469334	0.2742178	0.0003885675	-0.0002698385	-0.01407714	0.009797515	0	0
21.74511	-0.1469334	0.2742178	0	0	-0.004681203	0.003250835	0	0
21.7615	-0.1469334	0.2742178	0	0	0	0	0	0
21.77807	-0.1469334	0.2742178	0	0	0	0	0	0
21.79464	-0.1469334	0.2742178	0	0	0	0	0	0
21.8112	-0.1469334	0.2742178	0	0	0	0	0	0
21.82777	-0.1469334	0.2742178	0	0	0	0	0	0
21.84434	-0.1469334	0.2742178	0	0	0	0	0	0
21.86119	-0.1469334	0.2742178	0	0	0	0	0	0
21.87747	-0.1469334	0.2742178	0	0	0	0	0	0
21.92717	-0.1469334	0.2742178	0	0	0	0	0	0
21.94376	-0.1469334	0.2742178	0	0	0	0	0	0
21.96031	-0.1469334	0.2742178	0	0	0	0	0	0
21.97687	-0.1469334	0.2742178	0	0	0	0	0	0
21.99344	-0.1469334	0.2742178	0	0	0	0	0	0
22.01001	-0.1469334	0.2742178	0	0	0	0	0	0
22.02658	-0.1469334	0.2742178	0	0	0	0	0	0
22.04314	-0.1469334	0.2742178	0	0	0	0	0	0
22.05984	-0.1469334	0.2742178	0	0	0	0	0	0
22.07635	-0.1469334	0.2742178	0	0	0	0	0	0
22.09286	-0.1469334	0.2742178	0	0	0	0	0	0
22.10941	-0.1469334	0.2742178	0	0	0	0	0	0
22.12597	-0.1469334	0.2742178	0	0	0	0	0	0
22.14254	-0.1469334	0.2742178	0	0	0	0	0	0
22.15941	-0.1469334	0.2742178	0	0	0	0	0	0
22.17972	-0.1469334	0.2742178	0	0	0	0	0	0
22.19628	-0.1469334	0.2742178	0	0	0	0	0	0
22.21295	-0.1469334	0.2742178	0	0	0	0	0	0
22.22946	-0.1469334	0.2742178	0	0	0	0	0	0
22.24598	-0.1469334	0.2742178	0	0	0	0	0	0
22.26255	-0.1469334	0.2742178	0	0	0	0	0	0
22.27912	-0.1469076	0.2741999	0.001555125	-0.001079323	0.04693376	-0.03257403	0	0
22.29568	-0.1469076	0.2741999	0	0	-0.04693376	0.03257403	0	0
22.31225	-0.1469076	0.2741999	0	0	0	0	0	0
22.32882	-0.1469076	0.2741999	0	0	0	0	0	0
22.34538	-0.1469076	0.2741999	0	0	0	0	0	0
22.36195	-0.1469076	0.2741999	0	0	0	0	0	0
22.37856	-0.1469076	0.2741999	0	0	0	0	0	0
22.39508	-0.1469076	0.2741999	0	0	0	0	0	0
22.41165	-0.1469076	0.2741999	0	0	0	0	0	0
22.46135	-0.1469076	0.2741999	0	0	0	0	0	0
22.47792	-0.1468819	0.274182	0.001554404	-0.001081246	0.02345668	-0.01631651	0	0
22.49465	-0.1468819	0.274182	0	0	-0.04668627	0.03247505	0	0
22.51105	-0.1468819	0.274182	0	0	0	0	0	0
22.52762	-0.1469076	0.2741999	-0.001554225	0.001081122	-0.04713998	0.03279066	0	0
22.54419	-0.1469076	0.2741999	0	0	0.04690661	-0.03262833	0	0
22.56075	-0.1469076	0.2741999	0	0	0	0	0	0
22.57732	-0.1469076	0.2741999	0	0	0	0	0	0
22.59389	-0.1469076	0.2741999	0	0	0	0	0	0
22.61073	-0.1469076	0.2741999	0	0	0	0	0	0
22.62702	-0.1469076	0.2741999	0	0	0	0	0	0
22.64375	-0.1469076	0.2741999	0	0	0	0	0	0
22.66015	-0.1469076	0.2741999	0	0	0	0	0	0
22.67672	-0.1469076	0.2741999	0	0	0	0	0	0
22.69329	-0.1469076	0.2741999	0	0	0	0	0	0
22.70985	-0.1469076	0.2741999	0	0	0	0	0	0
22.72642	-0.1469076	0.2741999	0	0	0	0	0	0
22.74299	-0.1469076	0.2741999	0	0	0	0	0	0
22.75984	-0.1469076	0.2741999	0	0	0	0	0	0
22.79286	-0.1468819	0.274182	0.0007797158	-0.0005423718	0.01563392	-0.01087498	0	0
22.80937	-0.1468819	0.274182	0	0	-0.01574047	0.0109491	0	0
22.82582	-0.1468819	0.274182	0	0	0	0	0	0
22.84239	-0.1468819	0.274182	0	0	0	0	0	0
22.86383	-0.1468561	0.2741641	0.001200747	-0.0008338522	0.03158901	-0.02193681	0	0
22.8804	-0.1468561	0.2741641	0	0	-0.03158901	0.02193681	0	0
22.89697	-0.1468561	0.2741641	0	0	0	0	0	0
22.91354	-0.1468561	0.2741641	0	0	0	0	0	0
22.9301	-0.1468561	0.2741641	0	0	0	0	0	0
22.94697	-0.1468561	0.2741641	0	0	0	0	0	0
22.96324	-0.1468561	0.2741641	0	0	0	0	0	0
22.9798	-0.1468561	0.2741641	0	0	0	0	0	0
22.99637	-0.1468561	0.2741641	0	0	0	0	0	0
23.01294	-0.1468561	0.2741641	0	0	0	0	0	0
23.0295	-0.1468561	0.2741641	0	0	0	0	0	0
23.04607	-0.1468561	0.2741641	0	0	0	0	0	0
23.06264	-0.1468561	0.2741641	0	0	0	0	0	0
23.09578	-0.1468561	0.2741641	0	0	0	0	0	0
23.11234	-0.1468561	0.2741641	0	0	0	0	0	0
23.1289	-0.1468561	0.2741641	0	0	0	0	0	0
23.14547	-0.1468561	0.2741641	0	0	0	0	0	0
23.16204	-0.1468561	0.2741641	0	0	0	0	0	0
23.17861	-0.1468304	0.2741462	0.001554225	-0.001081122	0.04690661	-0.03262833	0	0
23.19517	-0.1468304	0.2741462	0	0	-0.04690661	0.03262833	0	0
23.21174	-0.1468304	0.2741462	0	0	0	0	0	0
23.22831	-0.1468304	0.2741462	0	0	0	0	0	0
23.24487	-0.1468304	0.2741462	0	0	0	0	0	0
23.26144	-0.1468304	0.2741462	0	0	0	0	0	0
23.27801	-0.1468304	0.2741462	0	0	0	0	0	0
23.29457	-0.1468304	0.2741462	0	0	0	0	0	0
23.31114	-0.1468304	0.2741462	0	0	0	0	0	0
23.32771	-0.1468561	0.2741641	-0.001554225	0.001081122	-0.04690661	0.03262833	0	0
23.34428	-0.1468561	0.2741641	0	0	0.04690661	-0.03262833	0	0
23.36084	-0.1468561	0.2741641	0	0	0	0	0	0
23.37778	-0.1468304	0.2741462	0.001520099	-0.001057384	0.04536743	-0.03155767	0	0
23.39398	-0.1468304	0.2741462	0	0	-0.04587932	0.03191374	0	0
23.41081	-0.1468304	0.2741462	0	0	0	0	0	0
23.42711	-0.1468304	0.2741462	0	0	0	0	0	0
23.44383	-0.1468304	0.2741462	0	0	0	0	0	0
23.46034	-0.1468304	0.2741462	0	0	0	0	0	0
23.47685	-0.1468304	0.2741462	0	0	0	0	0	0
23.49338	-0.1468304	0.2741462	0	0	0	0	0	0
23.50994	-0.1468304	0.2741462	0	0	0	0	0	0
23.5465	-0.1468304	0.2741462	0	0	0	0	0	0
23.56307	-0.1468304	0.2741462	0	0	0	0	0	0
23.57993	-0.1468304	0.2741462	0	0	0	0	0	0
23.59644	-0.1468304	0.2741462	0	0	0	0	0	0
23.61295	-0.1468046	0.2741283	0.001559252	-0.001082814	0.04721595	-0.03278885	0	0
23.62933	-0.1468046	0.2741283	0	0	-0.04740486	0.03292004	0	0
23.66249	-0.1468046	0.2741283	0	0	0	0	0	0
23.6956	-0.1468046	0.2741283	0	0	0	0	0	0
23.71217	-0.1467789	0.2741104	0.001555125	-0.001081122	0.03130118	-0.02176057	0	0
23.72873	-0.1467789	0.2741104	0	0	-0.04693376	0.03262833	0	0
23.76206	-0.1467789	0.2741104	0	0	0	0	0	0
23.77857	-0.1467789	0.2741104	0	0	0	0	0	0
23.79508	-0.1467789	0.2741104	0	0	0	0	0	0
23.81157	-0.1467531	0.2740925	0.001561596	-0.001084442	0.04731974	-0.03286093	0	0
23.82814	-0.1467531	0.2740925	0	0	-0.04724056	0.03280595	0	0
23.84471	-0.1467531	0.2740925	0	0	0	0	0	0
23.86164	-0.1467531	0.2740925	0	0	0	0	0	0
23.87814	-0.1467531	0.2740925	0	0	0	0	0	0
23.89441	-0.1467531	0.2740925	0	0	0	0	0	0
23.91117	-0.1467531	0.2740925	0	0	0	0	0	0
23.92768	-0.1467789	0.2741104	-0.001559612	0.001083064	-0.0468749	0.03255202	0	0
23.94411	-0.1467789	0.2741104	0	0	0.04734992	-0.03288189	0	0
23.96067	-0.1467789	0.2741104	0	0	0	0	0	0
23.97724	-0.1467789	0.2741104	0	0	0	0	0	0
23.99381	-0.1467789	0.2741104	0	0	0	0	0	0
24.01038	-0.1467531	0.2740925	0.001554225	-0.001079323	0.04690661	-0.03257403	0	0
24.02725	-0.1467531	0.2740925	0	0	-0.04647323	0.03227308	0	0
24.04351	-0.1467531	0.2740925	0	0	0	0	0	0
24.06028	-0.1467531	0.2740925	0	0	0	0	0	0
24.07679	-0.1467531	0.2740925	0	0	0	0	0	0
24.0933	-0.1467531	0.2740925	0	0	0	0	0	0
24.10981	-0.1467274	0.2740746	0.001559432	-0.001084744	0.0472214	-0.03284729	0	0
24.12635	-0.1467274	0.2740746	0	0	-0.04719142	0.03282644	0	0
24.14291	-0.1467274	0.2740746	0	0	0	0	0	0
24.15948	-0.1467274	0.2740746	0	0	0	0	0	0
24.17636	-0.1467274	0.2740746	0	0	0	0	0	0
24.1973	-0.1467274	0.2740746	0	0	0	0	0	0
24.21387	-0.1467274	0.2740746	0	0	0	0	0	0
24.23043	-0.1467274	0.2740746	0	0	0	0	0	0
24.247	-0.1467274	0.2740746	0	0	0	0	0	0
24.26357	-0.1467531	0.2740925	-0.001554225	0.001081122	-0.04690931	0.03263021	0	0
24.28013	-0.1467531	0.2740925	0	0	0.04690661	-0.03262833	0	0
24.2967	-0.1467531	0.2740925	0	0	0	0	0	0
24.36301	-0.1467274	0.2740746	0.0003882993	-0.0002701017	0.004685184	-0.003259023	0	0
24.37953	-0.1466759	0.2740388	0.003117965	-0.002166431	0.03295335	-0.02289306	0	0
24.3961	-0.1460577	0.2736093	0.0373113	-0.02592354	1.033384	-0.7179829	0	0
24.41267	-0.1436098	0.2719091	0.1477566	-0.102622	3.333246	-2.314765	0	0
24.42923	-0.139225	0.2688663	0.2646976	-0.1836895	3.529488	-2.446763	0	0
24.4458	-0.1324826	0.2641933	0.4069723	-0.2820595	4.294106	-2.968982	0	0
24.46257	-0.12464	0.2588022	0.4676189	-0.3214471	1.819116	-1.181444	0	0
24.47908	-0.1191436	0.2550755	0.3329162	-0.2257249	-4.047397	2.876153	0	0
24.51207	-0.1002939	0.2426865	0.5714151	-0.3755656	4.818393	-3.02723	0	0
24.52865	-0.09108934	0.2370342	0.5550798	-0.3408583	-0.3295408	0.7001658	0	0
24.5452	-0.08166011	0.2324204	0.5696742	-0.2787491	0.440461	1.874459	0	0
24.56177	-0.06949318	0.22996	0.7343971	-0.1485104	4.973636	3.932424	0	0
24.57834	-0.05575794	0.2303551	0.8290611	0.02385124	2.856966	5.201883	0	0
24.59491	-0.03884887	0.2313609	1.020633	0.06070653	5.781665	1.112295	0	0
24.61147	-0.03267258	0.231738	0.3728013	0.02276382	-19.55161	-1.145113	0	0
24.62804	0.005210479	0.23339	2.286626	0.09971596	57.75934	2.32242	0	0
24.64461	0.0171299	0.2339825	0.7194579	0.03576337	-47.29722	-1.930093	0	0
24.66117	0.03401319	0.2350597	1.019077	0.06501842	9.042536	0.8829193	0	0
24.67823	0.05234687	0.2375727	1.075062	0.1473584	1.665166	2.449075	0	0
24.69431	0.06283821	0.2412334	0.6524892	0.227669	-12.754	2.42392	0	0
24.71125	0.07467666	0.2467579	0.6987231	0.3260661	1.400097	2.979749	0	0
24.72744	0.08406457	0.2502183	0.5798738	0.2137429	-3.587087	-3.390115	0	0
24.74401	0.092655	0.2538211	0.5185189	0.2174638	-1.873042	0.113591	0	0
24.76057	0.1005023	0.2590351	0.4736672	0.3147198	-1.353628	2.935192	0	0
24.7773	0.1052413	0.2623309	0.2833689	0.1970714	-5.716234	-3.533955	0	0
24.79371	0.1088574	0.2649275	0.220376	0.158246	-1.901239	-1.171819	0	0
24.81027	0.1095075	0.2653751	0.03923924	0.02701905	-5.492961	-3.979451	0	0
24.82684	0.1124707	0.2675594	0.1788587	0.1318447	4.213723	3.163645	0	0
24.84341	0.1127306	0.2678101	0.01568391	0.01512851	-4.924623	-3.522502	0	0
24.85998	0.1127046	0.267828	-0.001568616	0.001081122	-0.5206823	-0.423951	0	0
24.87687	0.1126526	0.2679354	-0.003076128	0.006358684	-0.04505588	0.1577336	0	0
24.89338	0.1124447	0.2681144	-0.01258916	0.01084202	-0.2847924	0.134218	0	0
24.91391	0.1121069	0.2683471	-0.01645728	0.01133764	-0.1044343	0.01338095	0	0
24.93047	0.1120809	0.268365	-0.001568166	0.001079323	0.4013876	-0.2765482	0	0
24.94742	0.111977	0.2684366	-0.006134624	0.004226348	-0.1362629	0.09390708	0	0
24.96361	0.111873	0.2685083	-0.006421586	0.004424046	-0.008661026	0.005966878	0	0
24.98017	0.1115352	0.268741	-0.02039291	0.01404739	-0.4265415	0.2937986	0	0
24.99674	0.1114312	0.2688126	-0.006274914	0.00432089	0.426082	-0.2935463	0	0
25.01347	0.1114312	0.2688126	0	0	0.188466	-0.1297772	0	0
25.02988	0.1114312	0.2688126	0	0	0	0	0	0
25.04644	0.1114312	0.2688126	0	0	0	0	0	0
25.06301	0.1114052	0.2688305	-0.001569066	0.001081122	-0.04735995	0.03263208	0	0
25.07957	0.1113792	0.2688484	-0.001568616	0.001081122	1.357235E-05	0	0	0
25.09614	0.1107294	0.2692959	-0.03922305	0.02701186	-1.136413	0.7825912	0	0
25.11271	0.1090395	0.2704594	-0.1020177	0.07023604	-1.895254	1.304584	0	0
25.12955	0.1081292	0.2710859	-0.0540456	0.03719741	1.435979	-0.9889671	0	0
25.14584	0.1081553	0.2710679	0.001596432	-0.001099347	1.67928	-1.155798	0	0
25.16257	0.1081553	0.2710679	0	0	-0.04834459	0.03329144	0	0
25.17908	0.1081553	0.2710679	0	0	0	0	0	0
25.19559	0.1081813	0.2710501	0.001574773	-0.001082939	0.04768596	-0.03279264	0	0
25.21211	0.1082073	0.2710322	0.001575225	-0.001084744	1.366364E-05	-5.465456E-05	0	0
25.22867	0.1082073	0.2710322	0	0	-0.04761986	0.03279237	0	0
25.24524	0.1082073	0.2710322	0	0	0	0	0	0
25.2618	0.1082073	0.2710322	0	0	0	0	0	0
25.27865	0.1082073	0.2710322	0	0	0	0	0	0
25.31167	0.1082073	0.2710322	0	0	0	0	0	0
25.32807	0.1082073	0.2710322	0	0	0	0	0	0
25.34464	0.1082073	0.2710322	0	0	0	0	0	0
25.36121	0.1082333	0.2710142	0.001569785	-0.001080998	0.04737347	-0.03262269	0	0
25.37777	0.1082333	0.2710142	0	0	-0.04737892	0.03262645	0	0
25.39434	0.1082333	0.2710142	0	0	0	0	0	0
25.41091	0.1082073	0.2709964	-0.001569965	-0.001079323	-0.04738165	-0.03257403	0	0
25.42747	0.1082333	0.2709785	0.001569965	-0.001081122	0.09476329	-5.42929E-05	0	0
25.44427	0.1082333	0.2709785	0	0	-0.04705121	0.03240078	0	0
25.46061	0.1082593	0.2709606	0.001592331	-0.001094699	0.04805663	-0.03303808	0	0
25.47717	0.1082593	0.2709606	0	0	-0.04839651	0.03327174	0	0
25.49374	0.1082853	0.2709427	0.001569965	-0.001081122	0.04738165	-0.03262833	0	0
25.51031	0.1082853	0.2709427	0	0	-0.04738165	0.03262833	0	0
25.5306	0.1082593	0.2709248	-0.001281887	-0.0008812747	-0.03477946	-0.02391025	0	0
25.54717	0.1082593	0.2709248	0	0	0.03477946	0.02391025	0	0
25.56436	0.1082593	0.2709248	0	0	0	0	0	0
25.58037	0.1082593	0.2709248	0	0	0	0	0	0
25.59687	0.1082333	0.2709069	-0.001576317	-0.001085496	-0.04848601	-0.03338882	0	0
25.61343	0.1082333	0.2709069	0	0	0.04767213	0.03282836	0	0
25.63	0.1081813	0.2709069	-0.003139931	0	-0.09476875	0	0	0
25.64656	0.1081553	0.270889	-0.001569877	-0.001081371	0.04738976	-0.0326396	0	0
25.66343	0.1080772	0.2709427	-0.004627846	0.003185096	-0.09148918	0.1276454	0	0
25.67994	0.1079992	0.2709964	-0.004725674	0.003252426	-0.002931362	0.002017491	0	0
25.69645	0.1073229	0.2714617	-0.04096373	0.02818673	-1.097394	0.7550834	0	0
25.71283	0.1028203	0.2744504	-0.2747797	0.1823911	-7.107725	4.687626	0	0
25.7294	0.1006066	0.275864	-0.1336392	0.08533391	4.283301	-2.945469	0	0
25.74597	0.0874344	0.2833952	-0.794981	0.4545352	-19.95934	11.14252	0	0
25.76253	0.07935929	0.2873832	-0.4874708	0.2407401	9.280677	-6.452346	0	0
25.77951	0.06768592	0.2953567	-0.6877414	0.4697631	-5.971308	6.828594	0	0
25.79567	0.06050501	0.3001823	-0.4443367	0.2985974	7.345967	-5.165791	0	0
25.81223	0.05334408	0.304882	-0.432284	0.2837057	0.3682885	-0.4550365	0	0
25.82904	0.04326246	0.3114209	-0.5996905	0.3889604	-5.01567	3.153537	0	0
25.84537	0.03506457	0.316637	-0.5022268	0.3195493	2.941461	-2.09483	0	0
25.86193	0.02076017	0.3217095	-0.8634151	0.306177	-10.9816	-0.4065744	0	0
25.8785	0.00939446	0.3224239	-0.6861149	0.04312572	5.351237	-7.939359	0	0
25.89507	-0.01065749	0.3227811	-1.210338	0.02155948	-15.822	-0.6509079	0	0
25.91163	-0.03937438	0.3237098	-1.733355	0.05605644	-15.78467	1.04112	0	0
25.9282	-0.06118669	0.324692	-1.316594	0.05929081	12.57788	0.09761353	0	0
25.94477	-0.08795668	0.3266029	-1.61584	0.1153419	-9.031282	1.691624	0	0
25.96164	-0.1064904	0.3285852	-1.098709	0.1175143	15.46638	0.064975	0	0
25.97816	-0.1235258	0.3306925	-1.031108	0.1275452	2.024595	0.3004155	0	0
25.99447	-0.1445119	0.334014	-1.286722	0.2036531	-7.785714	2.318157	0	0
26.01104	-0.1586296	0.3364962	-0.8521481	0.1498244	13.21819	-1.637276	0	0
26.0276	-0.1755683	0.338889	-1.022422	0.1444332	-5.13888	-0.162707	0	0
26.0442	-0.1836696	0.3397105	-0.4882067	0.04950251	16.10967	-2.862707	0	0
26.06074	-0.1936478	0.3409426	-0.6032616	0.07449082	-3.472363	0.7541484	0	0
26.0773	-0.203461	0.3413355	-0.5923235	0.02371453	0.330379	-1.533667	0	0
26.09423	-0.2085543	0.3405497	-0.3008543	-0.04641202	8.701389	-2.093526	0	0
26.11044	-0.2106943	0.3388176	-0.132074	-0.106903	5.094092	-1.825725	0	0
26.127	-0.210644	0.3388533	0.003038294	0.002156847	4.123029	3.328022	0	0
26.14357	-0.2105937	0.3388176	0.003037395	-0.002156847	-2.714469E-05	-0.1301876	0	0
26.16031	-0.2105182	0.338764	0.004509676	-0.003198693	0.04419946	-0.03127733	0	0
26.1767	-0.2103672	0.3386569	0.009213531	-0.006536934	0.1419708	-0.1007541	0	0
26.19653	-0.2102413	0.3385676	0.006348784	-0.004504667	-0.0791126	0.0561229	0	0
26.21309	-0.2100903	0.3384605	0.009115783	-0.006466944	0.07604068	-0.05392589	0	0
26.29593	-0.207975	0.3369247	0.0255376	-0.01854039	0.1652101	-0.1214637	0	0
26.31249	-0.2062359	0.3356926	0.1049548	-0.07436399	0.7989538	-0.5615973	0	0
26.32906	-0.2056056	0.3352462	0.0380594	-0.0269515	-2.019023	1.430994	0	0
26.34591	-0.2056056	0.3352462	0	0	-1.138867	0.8064808	0	0
26.36219	-0.2055803	0.3352283	0.00154877	-0.001098418	0.04674197	-0.03315033	0	0
26.37876	-0.2055803	0.3352283	0	0	-0.04715455	0.03344294	0	0
26.39532	-0.2055551	0.3352104	0.001522745	-0.001077524	0.04595918	-0.03252162	0	0
26.41189	-0.2055299	0.3351926	0.001521845	-0.001077524	-2.714469E-05	0	0	0
26.42846	-0.2055299	0.3351926	0	0	-0.04593468	0.03252349	0	0
26.44502	-0.2055299	0.3351926	0	0	0	0	0	0
26.46159	-0.2055047	0.3351747	0.001521845	-0.001077524	0.04592939	-0.03251974	0	0
26.47816	-0.2055047	0.3351747	0	0	-0.04592939	0.03251974	0	0
26.49472	-0.2054542	0.335139	0.00304549	-0.002156847	0.09191307	-0.06509378	0	0
26.5113	-0.2053786	0.3351212	0.004564334	-0.001077028	0.04582826	0.0325815	0	0
26.52786	-0.2052525	0.3350676	0.00761631	-0.003234434	0.09211411	-0.06511439	0	0
26.54442	-0.2051011	0.3350319	0.00913557	-0.002156847	0.04586457	0.03253101	0	0
26.61032	-0.1869237	0.3231025	0.2758546	-0.1810353	3.234436	-2.169214	0	0
26.62689	-0.1835424	0.3212273	0.2040946	-0.1131922	-0.8702164	0.8227159	0	0
26.64345	-0.1834661	0.3214951	0.004606011	0.01617006	-6.020577	3.904161	0	0
26.66002	-0.1818883	0.3226025	0.09523227	0.06683888	2.735106	1.529188	0	0
26.67664	-0.1802078	0.3237812	0.1010999	0.07091042	0.1767914	0.1226748	0	0
26.69315	-0.1794945	0.3242813	0.04320161	0.03028968	-1.747476	-1.226007	0	0
26.70972	-0.1794436	0.3242455	0.003076071	-0.002156847	-1.213086	-0.9809322	0	0
26.72629	-0.1794436	0.3242455	0	0	-0.092836	0.06509378	0	0
26.74319	-0.1794436	0.3242455	0	0	0	0	0	0
26.7597	-0.1794181	0.3242277	0.001542285	-0.001081134	0.04615569	-0.0323549	0	0
26.77599	-0.1794181	0.3242277	0	0	-0.04702266	0.03296263	0	0
26.79256	-0.1793926	0.3242098	0.001538035	-0.001077524	0.04681414	-0.03279727	0	0
26.80912	-0.1793671	0.324192	0.001538212	-0.001079447	5.344221E-06	-5.804506E-05	0	0
26.82575	-0.1793417	0.3241384	0.00153239	-0.003220707	-0.0001754108	-0.06450824	0	0
26.84225	-0.1792143	0.3240491	0.007718602	-0.005411779	0.186711	-0.06613049	0	0
26.85882	-0.1790869	0.3239241	0.007690177	-0.007544468	-0.0008594978	-0.06448719	0	0
26.87539	-0.1785517	0.3235133	0.03230144	-0.02479565	0.7427694	-0.5206416	0	0
26.89196	-0.1755683	0.3214237	0.1800797	-0.1261279	4.459955	-3.058213	0	0
26.90852	-0.1692596	0.3169763	0.3807915	-0.2684438	6.057494	-4.295103	0	0
26.92509	-0.1663177	0.3149222	0.1775747	-0.123989	-6.133093	4.359654	0	0
26.94613	-0.1643207	0.3135289	0.09490785	-0.06621646	-2.198055	1.536133	0	0
26.9627	-0.1642951	0.313511	0.001545231	-0.001077524	-2.482448	1.731999	0	0
26.97936	-0.1642695	0.3134932	0.001537281	-0.001071357	-0.0002392359	0.0001855893	0	0
26.99583	-0.1642951	0.3134753	-0.001555082	-0.001085572	-0.0933277	-0.0004290098	0	0
27.0124	-0.1643207	0.3134574	-0.001545231	-0.001077524	0.0002981639	0.0002435874	0	0
27.02897	-0.1642951	0.3134395	0.001545409	-0.001079447	0.09328106	-5.804506E-05	0	0
27.04553	-0.1642438	0.3134038	0.003092261	-0.002155048	0.04668677	-0.03246357	0	0
27.06242	-0.1640902	0.3132966	0.009098849	-0.006347049	0.1795327	-0.1252959	0	0
27.07893	-0.1624761	0.3121713	0.09778625	-0.06818017	2.655648	-1.851526	0	0
27.09523	-0.160656	0.3109029	0.1116334	-0.07779415	0.4220376	-0.2930178	0	0
27.1118	-0.1600149	0.3104563	0.03869913	-0.02695789	-2.218786	1.546527	0	0
27.12837	-0.1591171	0.3097953	0.05419101	-0.03989898	0.467546	-0.3905627	0	0
27.14493	-0.1590914	0.3097417	0.001549007	-0.003234744	-1.58883	1.106592	0	0
27.1615	-0.1590401	0.3096702	0.003096758	-0.004313694	0.0467139	-0.03256467	0	0
27.17807	-0.1589888	0.3095273	0.003097657	-0.008627389	2.714469E-05	-0.1301876	0	0
27.19464	-0.1586809	0.3092414	0.01858414	-0.01725298	0.4673831	-0.2603209	0	0
27.2112	-0.1586553	0.3091164	0.001548829	-0.007548066	-0.5141268	0.2928949	0	0
27.22777	-0.1587066	0.308902	-0.003097657	-0.01294108	-0.1402312	-0.1627616	0	0
27.24434	-0.1585783	0.3086697	0.007744135	-0.01402022	0.3272248	-0.03257034	0	0
27.2609	-0.1583473	0.3084375	0.01394036	-0.01401861	0.1870131	4.871288E-05	0	0
27.27747	-0.1562424	0.3068652	0.1270543	-0.09490128	3.413786	-2.441044	0	0
27.29404	-0.1484524	0.301201	0.4702053	-0.3418972	10.35632	-7.45435	0	0
27.3106	-0.1418049	0.2964112	0.401241	-0.2891075	-2.081345	1.593196	0	0
27.32717	-0.1343438	0.2911379	0.4503565	-0.3183013	1.482309	-0.881073	0	0
27.34374	-0.1305946	0.2885097	0.2263026	-0.1586389	-6.761962	4.818623	0	0
27.36031	-0.1300772	0.2880805	0.03123201	-0.02590375	-5.887241	4.005954	0	0
27.37687	-0.130103	0.2880269	-0.001561421	-0.00323617	-0.9897078	0.684109	0	0
27.39344	-0.1301806	0.2879733	-0.004685162	-0.003237969	-0.09427469	-5.429642E-05	0	0
27.41001	-0.1302324	0.2879375	-0.003123741	-0.002158646	0.04712377	0.03257404	0	0
27.42657	-0.1302583	0.2879196	-0.001561421	-0.001079323	0.04715092	0.03257403	0	0
27.4432	-0.1302841	0.287866	-0.001556225	-0.003227195	0.0001565462	-0.06471486	0	0
27.45971	-0.13031	0.2878481	-0.001566651	-0.001082939	-0.000314669	0.06471377	0	0
27.47628	-0.1303359	0.2878302	-0.001561421	-0.001079323	0.0001581255	0.0001093023	0	0
27.50941	-0.1303618	0.2878481	-0.0007811601	0.0005396615	0.01569887	0.03257403	0	0
27.52598	-0.1303618	0.2878481	0	0	0.01571697	-0.01085801	0	0
27.54254	-0.1303876	0.2878302	-0.0015616	-0.001079447	-0.04713191	-0.03257966	0	0
27.55911	-0.1303876	0.2878302	0	0	0.04713191	0.03257966	0	0
27.57579	-0.1303876	0.2878302	0	0	0	0	0	0
27.61332	-0.1303876	0.287866	0	0.0009530344	0	0.01758144	0	0
27.62983	-0.1304135	0.2878838	-0.00156647	0.001082814	-0.02898777	0.002401583	0	0
27.64623	-0.1304394	0.2879017	-0.001577769	0.001090624	-0.0003433166	0.0002373169	0	0
27.66286	-0.1304652	0.2879196	-0.001555689	0.001075361	0.0006685877	-0.0004621596	0	0
27.67936	-0.1305428	0.2879733	-0.004701943	0.003249567	-0.09494865	0.06561388	0	0
27.69593	-0.1306981	0.2881163	-0.009370682	0.008634774	-0.141171	0.1628352	0	0
27.71249	-0.1310602	0.2883666	-0.02185899	0.01511052	-0.3769413	0.195461	0	0
27.72906	-0.1323016	0.2892964	-0.07493021	0.0561212	-1.601692	1.237705	0	0
27.74563	-0.1324567	0.2894752	-0.009364027	0.01079143	1.978791	-1.368055	0	0
27.7622	-0.1324567	0.2894752	0	0	0.2826069	-0.325686	0	0
27.77894	-0.133801	0.2904406	-0.08029306	0.05766547	-2.410484	1.731179	0	0
27.80504	-0.1359974	0.2919603	-0.08413935	0.05821414	-0.0897688	0.01280547	0	0
27.82161	-0.1376503	0.2931401	-0.09976812	0.07121734	-0.3662603	0.3047299	0	0
27.83818	-0.1423981	0.2964291	-0.2865764	0.1985235	-5.637886	3.842108	0	0
27.85475	-0.1443572	0.2977875	-0.1182415	0.08198134	5.080066	-3.517047	0	0
27.87131	-0.1471394	0.2997177	-0.1679512	0.1165191	-1.500242	1.042353	0	0
27.88788	-0.1493274	0.3012367	-0.1320705	0.09168849	1.082945	-0.7494338	0	0
27.90445	-0.1493789	0.3012724	-0.003106652	0.002156847	3.892136	-2.70207	0	0
27.92104	-0.1493789	0.3012724	0	0	0.09368882	-0.0650451	0	0
27.93758	-0.1494046	0.3012546	-0.001555833	-0.001079264	-0.04695785	-0.03257412	0	0
28.05363	-0.1495848	0.3011652	-0.0015521	-0.0007701434	2.815974E-05	0.002331345	0	0
28.07011	-0.1496362	0.3011652	-0.003122287	0	-0.0118476	0.005810994	0	0
28.08668	-0.1498163	0.3012546	-0.01087148	0.005394816	-0.234492	0.1632482	0	0
28.10324	-0.1501765	0.3014333	-0.02174206	0.01078604	-0.3280748	0.1627073	0	0
28.11981	-0.1504338	0.3012546	-0.01552786	-0.01078604	0.187545	-0.6510464	0	0
28.13638	-0.1513083	0.300647	-0.05278609	-0.0366754	-1.124456	-0.7813425	0	0
28.15295	-0.153288	0.2992709	-0.1194937	-0.0830593	-2.013238	-1.399869	0	0
28.16972	-0.1533137	0.299253	-0.001532821	-0.00106631	3.538474	2.459546	0	0
28.18608	-0.1533137	0.299253	0	0	0.04626063	0.03218131	0	0
28.20265	-0.1533137	0.299253	0	0	0	0	0	0
28.21921	-0.1533137	0.299253	0	0	0	0	0	0
28.23578	-0.1533137	0.299253	0	0	0	0	0	0
28.25235	-0.153288	0.2992351	0.001551527	-0.001079323	0.04682517	-0.03257403	0	0
28.26892	-0.153288	0.2992351	0	0	-0.04682517	0.03257403	0	0
28.2858	-0.153288	0.2992351	0	0	0	0	0	0
28.30205	-0.1532623	0.2992173	0.001581942	-0.001098647	0.0477431	-0.03315724	0	0
28.31862	-0.1532623	0.2992173	0	0	-0.04820652	0.03347908	0	0
28.35492	-0.1532623	0.2992173	0	0	0	0	0	0
28.37149	-0.1532623	0.2992173	0	0	0	0	0	0
28.38805	-0.1532623	0.2992173	0	0	0	0	0	0
28.40462	-0.1532623	0.2992173	0	0	0	0	0	0
28.42119	-0.1532623	0.2992173	0	0	0	0	0	0
28.43776	-0.1532623	0.2992173	0	0	0	0	0	0
28.45432	-0.1532623	0.2992173	0	0	0	0	0	0
28.47094	-0.1532623	0.2992173	0	0	0	0	0	0
28.48746	-0.1532623	0.2992173	0	0	0	0	0	0
28.50402	-0.1532623	0.2992173	0	0	0	0	0	0
28.52059	-0.1532623	0.2992173	0	0	0	0	0	0
28.53716	-0.1532623	0.2992173	0	0	0	0	0	0
28.55373	-0.1532623	0.2992173	0	0	0	0	0	0
28.57051	-0.1532623	0.2992173	0	0	0	0	0	0
28.58686	-0.1532623	0.2992173	0	0	0	0	0	0
28.60353	-0.1532623	0.2992173	0	0	0	0	0	0
28.61999	-0.1532623	0.2992173	0	0	0	0	0	0
28.63656	-0.1532623	0.2992173	0	0	0	0	0	0
28.65313	-0.1532623	0.2992173	0	0	0	0	0	0
28.66969	-0.1532623	0.2992173	0	0	0	0	0	0
28.68659	-0.1532623	0.2992173	0	0	0	0	0	0
28.70283	-0.1532623	0.2992173	0	0	0	0	0	0
28.71939	-0.1532366	0.2991994	0.001551527	-0.001079323	0.04729892	-0.0329036	0	0
28.73613	-0.1532366	0.2991994	0	0	-0.04659184	0.03241171	0	0
28.76909	-0.1532366	0.2991994	0	0	0	0	0	0
28.78566	-0.1532366	0.2991994	0	0	0	0	0	0
28.80223	-0.1532366	0.2991994	0	0	0	0	0	0
28.81879	-0.1532366	0.2991994	0	0	0	0	0	0
28.83536	-0.1532366	0.2991994	0	0	0	0	0	0
28.85193	-0.1532366	0.2991994	0	0	0	0	0	0
28.86849	-0.1532366	0.2991994	0	0	0	0	0	0
28.88524	-0.1532366	0.2991994	0	0	0	0	0	0
28.90163	-0.1532623	0.2992173	-0.001568501	0.001091131	-0.04733746	0.03293041	0	0
28.91826	-0.1532623	0.2992173	0	0	0.04750701	-0.03304835	0	0
28.93477	-0.1532623	0.2992173	0	0	0	0	0	0
28.95133	-0.1532623	0.2992173	0	0	0	0	0	0
28.9679	-0.1532623	0.2992173	0	0	0	0	0	0
28.98446	-0.1532366	0.2991994	0.001551527	-0.001079323	0.04682517	-0.03257403	0	0
29.00103	-0.1532366	0.2991994	0	0	-0.04682517	0.03257403	0	0
29.0176	-0.1532366	0.2991994	0	0	0	0	0	0
29.03828	-0.1532366	0.2991994	0	0	0	0	0	0
29.05485	-0.1532366	0.2991994	0	0	0	0	0	0
29.07141	-0.1532366	0.2991994	0	0	0	0	0	0
29.08798	-0.1532366	0.2991994	0	0	0	0	0	0
29.10454	-0.1532109	0.2991815	0.001550806	-0.001079447	0.04680611	-0.03257966	0	0
29.12111	-0.1532109	0.2991815	0	0	-0.04680611	0.03257966	0	0
29.13768	-0.1532109	0.2991815	0	0	0	0	0	0
29.15425	-0.1532109	0.2991815	0	0	0	0	0	0
29.17081	-0.1532109	0.2991815	0	0	0	0	0	0
29.18738	-0.1532109	0.2991815	0	0	0	0	0	0
29.20395	-0.1532109	0.2991815	0	0	0	0	0	0
29.22051	-0.1532109	0.2991815	0	0	0	0	0	0
29.23708	-0.1532109	0.2991815	0	0	0	0	0	0
29.25365	-0.1532109	0.2991815	0	0	0	0	0	0
29.27022	-0.1532109	0.2991815	0	0	0	0	0	0
29.28702	-0.1532109	0.2991815	0	0	0	0	0	0
29.30353	-0.1532109	0.2991815	0	0	0	0	0	0
29.31992	-0.1532109	0.2991815	0	0	0	0	0	0
29.33656	-0.1532109	0.2991815	0	0	0	0	0	0
29.35305	-0.1532109	0.2991815	0	0	0	0	0	0
29.36962	-0.1532109	0.2991815	0	0	0	0	0	0
29.38618	-0.1532109	0.2991815	0	0	0	0	0	0
29.40275	-0.1532366	0.2991994	-0.001550627	0.001079323	-0.04679803	0.03257403	0	0
29.41932	-0.1532366	0.2991994	0	0	0.04679803	-0.03257403	0	0
29.43613	-0.1532366	0.2991994	0	0	0	0	0	0
29.45245	-0.1532366	0.2991994	0	0	0	0	0	0
29.46902	-0.1532366	0.2991994	0	0	0	0	0	0
29.48558	-0.1532366	0.2991994	0	0	0	0	0	0
29.50215	-0.1532366	0.2991636	0	-0.002158646	0	-0.06514806	0	0
29.51872	-0.1532366	0.2991636	0	0	0	0.06514806	0	0
29.53529	-0.1532366	0.2991636	0	0	0	0	0	0
29.55185	-0.1532623	0.2991815	-0.001551527	0.001079323	-0.04682517	0.03257403	0	0
29.56842	-0.1532623	0.2991815	0	0	0.04682517	-0.03257403	0	0
29.58499	-0.1532623	0.2991815	0	0	0	0	0	0
29.60155	-0.1532623	0.2991815	0	0	0	0	0	0
29.62184	-0.1532623	0.2991815	0	0	0	0	0	0
29.6384	-0.1532366	0.2991994	0.001551527	0.001079323	0.04210605	0.02929117	0	0
29.65529	-0.1532109	0.2991815	0.001521549	-0.001059083	-0.0008961741	-0.06392635	0	0
29.6718	-0.1532109	0.2991815	0	0	-0.04556113	0.03171308	0	0
29.68831	-0.1532109	0.2991815	0	0	0	0	0	0
29.70467	-0.1532109	0.2991815	0	0	0	0	0	0
29.72133	-0.1532109	0.2991815	0	0	0	0	0	0
29.73785	-0.1531852	0.2991636	0.001556724	-0.001082939	0.04692261	-0.03264181	0	0
29.75437	-0.1532109	0.2991458	-0.001555646	-0.001080385	-0.09421355	7.73018E-05	0	0
29.77094	-0.1532109	0.2991458	0	0	0.04701174	0.03264931	0	0
29.7875	-0.1532109	0.2991458	0	0	0	0	0	0
29.80407	-0.1532109	0.2991458	0	0	0	0	0	0
29.90347	-0.1532109	0.2991458	0	0	0	0	0	0
29.92004	-0.1532109	0.2991458	0	0	0	0	0	0
29.93661	-0.1532109	0.2991458	0	0	0	0	0	0
29.9535	-0.1532109	0.2991458	0	0	0	0	0	0
29.96978	-0.1532109	0.2991458	0	0	0	0	0	0
29.98631	-0.1532109	0.2991458	0	0	0	0	0	0
30.00287	-0.1532109	0.2991458	0	0	0	0	0	0
30.01944	-0.1532109	0.2991458	0	0	0	0	0	0
30.03606	-0.1531852	0.2991279	0.001546541	-0.001075855	0.0465996	-0.03241712	0	0
30.05257	-0.1531852	0.2991279	0	0	-0.0466774	0.03247124	0	0
30.06914	-0.1531852	0.2991279	0	0	0	0	0	0
30.08571	-0.1531852	0.2991279	0	0	0	0	0	0
30.10228	-0.1531852	0.2991279	0	0	0	0	0	0
30.11912	-0.1531595	0.29911	0.001525879	-0.001061481	0.04566731	-0.03176856	0	0
30.13563	-0.1531595	0.29911	0	0	-0.04574566	0.03182306	0	0
30.15198	-0.1531595	0.29911	0	0	0	0	0	0
30.16866	-0.1531595	0.29911	0	0	0	0	0	0
30.18517	-0.1531595	0.29911	0	0	0	0	0	0
30.20168	-0.1531595	0.29911	0	0	0	0	0	0
30.21824	-0.1531595	0.29911	0	0	0	0	0	0
30.23481	-0.1531595	0.29911	0	0	0	0	0	0
30.25138	-0.1531595	0.29911	0	0	0	0	0	0
30.26794	-0.1531595	0.29911	0	0	0	0	0	0
30.28451	-0.1531595	0.29911	0	0	0	0	0	0
30.30125	-0.1531595	0.29911	0	0	0	0	0	0
30.31765	-0.1531595	0.29911	0	0	0	0	0	0
30.33421	-0.1531595	0.29911	0	0	0	0	0	0
30.35079	-0.1531595	0.29911	0	0	0	0	0	0
30.37037	-0.1531595	0.29911	0	0	0	0	0	0
30.38693	-0.1531595	0.29911	0	0	0	0	0	0
30.4035	-0.1531595	0.29911	0	0	0	0	0	0
30.42034	-0.1531595	0.29911	0	0	0	0	0	0
30.43663	-0.1531595	0.29911	0	0	0	0	0	0
30.4532	-0.1531595	0.29911	0	0	0	0	0	0
30.46988	-0.1531595	0.29911	0	0	0	0	0	0
30.48639	-0.1531595	0.29911	0	0	0	0	0	0
30.5029	-0.1531595	0.29911	0	0	0	0	0	0
30.51947	-0.1531595	0.29911	0	0	0	0	0	0
30.53603	-0.1531852	0.2991279	-0.001551706	0.001079447	-0.04683326	0.03257966	0	0
30.5526	-0.1531852	0.2991279	0	0	0.04683326	-0.03257966	0	0
30.56917	-0.1531852	0.2991279	0	0	0	0	0	0
30.58596	-0.1531852	0.2991279	0	0	0	0	0	0
30.60247	-0.1531852	0.2991279	0	0	0	0	0	0
30.73484	-0.1531595	0.29911	0.0001941924	-0.0001350903	0.001304372	-0.000907389	0	0
30.75158	-0.1531595	0.29911	0	0	-0.001302369	0.0009059961	0	0
30.76797	-0.1531595	0.29911	0	0	0	0	0	0
30.7846	-0.1531338	0.2990922	0.001545655	-0.001073446	0.04680692	-0.03250707	0	0
30.80111	-0.1531338	0.2990922	0	0	-0.04663721	0.0323892	0	0
30.81767	-0.1531338	0.2990922	0	0	0	0	0	0
30.83424	-0.1531081	0.2990743	0.001551527	-0.001079323	0.04683865	-0.03258341	0	0
30.8508	-0.1531081	0.2990743	0	0	-0.04682517	0.03257403	0	0
30.86737	-0.1531338	0.2990922	-0.001551706	0.001079447	-0.04683326	0.03257966	0	0
30.88417	-0.1531338	0.2990922	0	0	0.04650398	-0.03235059	0	0
30.90068	-0.1531338	0.2990922	0	0	0	0	0	0
30.91719	-0.1531338	0.2990922	0	0	0	0	0	0
30.93371	-0.1531338	0.2990922	0	0	0	0	0	0
30.9502	-0.1531338	0.2990922	0	0	0	0	0	0
30.96677	-0.1531338	0.2990922	0	0	0	0	0	0
30.98334	-0.1531338	0.2990922	0	0	0	0	0	0
30.9999	-0.1531338	0.2990922	0	0	0	0	0	0
31.01677	-0.1531338	0.2990922	0	0	0	0	0	0
31.03304	-0.1531338	0.2990922	0	0	0	0	0	0
31.04979	-0.1531338	0.2990922	0	0	0	0	0	0
31.06617	-0.1531338	0.2990922	0	0	0	0	0	0
31.08274	-0.1531338	0.2990922	0	0	0	0	0	0
31.0993	-0.1531338	0.2990922	0	0	0	0	0	0
31.11587	-0.1531338	0.2990922	0	0	0	0	0	0
31.13244	-0.1531338	0.2990922	0	0	0	0	0	0
31.14901	-0.1531081	0.2990743	0.001551527	-0.001079323	0.04682517	-0.03257403	0	0
31.16557	-0.1531081	0.2990743	0	0	-0.04682517	0.03257403	0	0
31.18632	-0.1531081	0.2990743	0	0	0	0	0	0
31.2029	-0.1530824	0.2990564	0.001550099	-0.00107833	0.04152777	-0.02888888	0	0
31.21945	-0.1530824	0.2990564	0	0	-0.04678209	0.03254406	0	0
31.23602	-0.1530824	0.2990564	0	0	0	0	0	0
31.25259	-0.1530824	0.2990564	0	0	0	0	0	0
31.26915	-0.1530567	0.2990386	0.001551884	-0.001077772	0.04683866	-0.03252911	0	0
31.28572	-0.1530567	0.2990386	0	0	-0.04684135	0.03253098	0	0
31.30229	-0.1530567	0.2990386	0	0	0	0	0	0
31.31898	-0.1530567	0.2990386	0	0	0	0	0	0
31.33542	-0.1530567	0.2990386	0	0	0	0	0	0
31.45139	-0.1530824	0.2990564	-0.0002216467	0.000153932	-0.00167399	0.001162574	0	0
31.46796	-0.1530824	0.2990564	0	0	0.001672328	-0.001161419	0	0
31.48461	-0.1531081	0.2990386	-0.001544061	-0.001072339	-0.04648745	-0.0322852	0	0
31.50112	-0.1531081	0.2990386	0	0	0.04656768	0.03234091	0	0
31.51766	-0.1531081	0.2990386	0	0	0	0	0	0
31.53464	-0.1531081	0.2990386	0	0	0	0	0	0
31.55079	-0.1531081	0.2990386	0	0	0	0	0	0
31.56736	-0.1531081	0.2990386	0	0	0	0	0	0
31.58393	-0.1531081	0.2990386	0	0	0	0	0	0
31.60049	-0.1531081	0.2990386	0	0	0	0	0	0
31.6172	-0.1531081	0.2990386	0	0	0	0	0	0
31.63363	-0.1531081	0.2990386	0	0	0	0	0	0
31.65022	-0.1531081	0.2990386	0	0	0	0	0	0
31.66676	-0.1530824	0.2990564	0.00155439	0.001079513	0.04691159	0.03257976	0	0
31.6999	-0.1531081	0.2990386	-0.0007757634	-0.0005387621	-0.04691159	-0.03257976	0	0
31.71646	-0.1530824	0.2990207	0.001551527	-0.001079323	0.04682517	-0.01087611	0	0
31.73303	-0.1530824	0.2990207	0	0	-0.04682517	0.03257403	0	0
31.7496	-0.1530824	0.2990207	0	0	0	0	0	0
31.76631	-0.1530824	0.2990207	0	0	0	0	0	0
31.78273	-0.1530824	0.2990207	0	0	0	0	0	0
31.79933	-0.1530824	0.2990207	0	0	0	0	0	0
31.81586	-0.1530567	0.2990028	0.001554928	-0.001081689	0.04692782	-0.03264544	0	0
31.83243	-0.1530824	0.2990207	-0.001551527	0.001079323	-0.09385564	0.06529088	0	0
31.84937	-0.1530824	0.2990207	0	0	0.0463054	-0.03221245	0	0
31.88695	-0.1531081	0.2990743	-0.0006840201	0.001426727	-0.01254674	0.02616995	0	0
31.90352	-0.1533651	0.2993602	-0.01551437	0.01726018	-0.2738965	0.2924224	0	0
31.92008	-0.1534936	0.2995211	-0.007755836	0.009708511	0.234153	-0.2279097	0	0
31.93665	-0.1569613	0.3026484	-0.2093122	0.1887646	-6.082984	5.403924	0	0
31.95322	-0.1658058	0.3103133	-0.533853	0.4626572	-9.794661	8.266095	0	0
31.96979	-0.180004	0.3265672	-0.8570068	0.9810849	-9.752801	15.64618	0	0
31.98647	-0.1877365	0.3427819	-0.4634812	0.9718957	11.83507	-0.2763599	0	0
32.00292	-0.1925072	0.3664279	-0.2900291	1.437536	5.235096	14.05387	0	0
32.05777	-0.1953705	0.4202096	-0.05220323	0.9805638	3.335721	-6.409448	0	0
32.07433	-0.1949146	0.4321843	0.02751644	0.7227939	1.116288	-3.609468	0	0
32.0909	-0.1936985	0.44852	0.07340206	0.9860246	1.384831	7.944318	0	0
32.10747	-0.193217	0.4527434	0.02906437	0.2549253	-1.338114	-22.06462	0	0
32.12407	-0.1913154	0.4769597	0.1145441	1.458677	2.577114	36.29171	0	0
32.1406	-0.190123	0.4986207	0.07212322	1.310178	-1.280266	-4.481713	0	0
32.15717	-0.1895139	0.515224	0.03676444	1.002177	-1.068237	-9.305149	0	0
32.17374	-0.1892601	0.5361826	0.01532189	1.26506	-0.6471375	7.933841	0	0
32.1903	-0.1894631	0.5408529	-0.01225751	0.2819012	-0.832348	-29.6718	0	0
32.20687	-0.190123	0.5613828	-0.03982882	1.239189	-0.8321037	28.891	0	0
32.22364	-0.1907573	0.574006	-0.03782647	0.7527511	0.06006457	-14.59169	0	0
32.24015	-0.1908588	0.5768047	-0.006144967	0.1694748	0.9518757	-17.52463	0	0
32.25657	-0.1923297	0.5869499	-0.08959235	0.6179172	-2.533908	13.61711	0	0
32.27318	-0.1940026	0.5944581	-0.1007405	0.4521523	-0.3375793	-5.019554	0	0
32.28971	-0.1942053	0.5994977	-0.01226326	0.3048948	2.670249	-4.444238	0	0
32.30628	-0.1934958	0.6023545	0.04280603	0.1723569	1.663527	-4.003691	0	0
32.32284	-0.192203	0.6033754	0.0780881	0.06166115	1.064938	-3.341188	0	0
32.33972	-0.1876857	0.6067188	0.2675472	0.1980273	5.665706	4.077979	0	0
32.35597	-0.1851954	0.6085778	0.1532811	0.1144195	-3.448956	-2.523579	0	0
32.37254	-0.1811246	0.6115918	0.2457169	0.1819235	2.816959	2.05717	0	0
32.3891	-0.1762315	0.6159505	0.2953433	0.2630922	1.497727	2.449676	0	0
32.40567	-0.1752366	0.6216039	0.06005443	0.3412424	-7.10103	2.358577	0	0
32.42228	-0.173986	0.6256968	0.07527626	0.2463691	0.458762	-2.859331	0	0
32.4388	-0.1719942	0.627418	0.1205589	0.1041763	1.366633	-4.291388	0	0
32.45537	-0.1657034	0.6320628	0.3797166	0.2803614	7.832216	5.324632	0	0
32.47194	-0.1630911	0.6339753	0.1576792	0.1154408	-6.701103	-4.977313	0	0
32.48883	-0.1543159	0.6408115	0.5195022	0.4047115	10.81401	8.645602	0	0
32.50507	-0.1512826	0.6437842	0.1867468	0.1830158	-10.04258	-6.690789	0	0
32.52164	-0.1500994	0.6495132	0.0714206	0.3458043	-3.514949	4.96152	0	0
32.53836	-0.153802	0.6566167	-0.2214017	0.4247548	-8.795876	2.371536	0	0
32.55487	-0.1538791	0.6616351	-0.00466981	0.3039618	6.52146	-3.634659	0	0
32.57444	-0.1470621	0.6671576	0.3483476	0.2822003	9.784458	-0.6031567	0	0
32.59102	-0.1453879	0.6683929	0.1010087	0.07452891	-6.843104	-5.745626	0	0
32.60758	-0.1449242	0.668735	0.02800604	0.02066056	-2.203225	-1.62575	0	0
32.62415	-0.1448984	0.6687161	0.001556024	-0.001144082	-0.7984469	-0.6582171	0	0
32.64094	-0.1448211	0.668659	0.004602844	-0.003396893	0.09133282	-0.06753127	0	0
32.65745	-0.1447438	0.668602	0.004682446	-0.003454973	0.002390285	-0.001744025	0	0
32.67384	-0.1440737	0.6681077	0.04086748	-0.03014483	1.099663	-0.8111044	0	0
32.69047	-0.1434551	0.6676517	0.03720212	-0.02742888	-0.1109913	0.0822422	0	0
32.70699	-0.1424239	0.6668536	0.06244947	-0.04832597	0.7617911	-0.6305302	0	0
32.72355	-0.1412117	0.6659229	0.07319832	-0.05620105	0.3249995	-0.2381089	0	0
32.74011	-0.1397411	0.6647649	0.08876443	-0.06990056	0.4698943	-0.4135472	0	0
32.75668	-0.1396637	0.66467	0.004673469	-0.005727608	-2.53787	1.936744	0	0
32.77325	-0.1396637	0.66467	0	0	-0.1410456	0.1728595	0	0
32.78981	-0.1396637	0.66467	0	0	0	0	0	0
32.80638	-0.1396637	0.66467	0	0	0	0	0	0
32.82295	-0.1396637	0.66467	0	0	0	0	0	0
32.83952	-0.1396637	0.66467	0	0	0	0	0	0
32.87265	-0.1396895	0.6646889	-0.0007789115	0.0005720412	-0.01567173	0.01150949	0	0
32.88962	-0.1397411	0.6647269	-0.003042098	0.002237663	-0.04517137	0.03324446	0	0
32.90578	-0.1397669	0.6647459	-0.001595874	0.001176393	0.04365214	-0.03203289	0	0
32.92235	-0.1397927	0.6647649	-0.001557823	0.001144082	0.001162577	-0.000987169	0	0
32.93915	-0.1397927	0.6647649	0	0	0.04668198	-0.03428376	0	0
32.95548	-0.1398185	0.6647838	-0.001580384	0.001160652	-0.04769609	0.03502854	0	0
32.97205	-0.1398185	0.6647838	0	0	0.04803899	-0.03528037	0	0
32.98862	-0.1398185	0.6647838	0	0	0	0	0	0
33.0052	-0.1398185	0.6647838	0	0	0	0	0	0
33.02175	-0.1398443	0.6647649	-0.001558359	-0.001145137	-0.04703136	-0.03456031	0	0
33.03832	-0.1398443	0.6647269	0	-0.002291763	0.04705303	-0.03462116	0	0
33.05489	-0.1398702	0.664708	-0.001557823	-0.001144082	-0.04701519	0.03463705	0	0
33.07145	-0.139896	0.6646889	-0.001558182	-0.001147944	-1.082961E-05	-0.0001165712	0	0
33.08802	-0.139896	0.664651	0	-0.002291763	0.04703143	-0.03452447	0	0
33.10477	-0.1399218	0.664632	-0.001540794	-0.001131576	-0.04624569	0.03482207	0	0
33.12115	-0.1399218	0.6645941	0	-0.002317915	0.0465066	-0.03580789	0	0
33.13771	-0.1399218	0.6645941	0	0	0	0.07035167	0	0
33.1543	-0.1398702	0.6645561	0.003111347	-0.002288601	0.09383583	-0.06902243	0	0
33.17085	-0.1398443	0.6644992	0.001559978	-0.003440598	-0.04682042	-0.03476735	0	0
33.18742	-0.1396379	0.6642714	0.01246078	-0.01374698	0.3292144	-0.3112622	0	0
33.2235	-0.133284	0.6594561	0.1761075	-0.1334651	3.108399	-2.273993	0	0
33.24006	-0.1321723	0.658301	0.06710601	-0.06972067	-2.070436	1.210797	0	0
33.25663	-0.1323274	0.6581495	-0.009364926	-0.009141866	-2.307897	1.828272	0	0
33.2732	-0.1325084	0.658017	-0.01092545	-0.007997784	-0.04709662	0.03452847	0	0
33.2899	-0.1326119	0.6578656	-0.006192183	-0.009068782	0.1422769	-0.03219305	0	0
33.30641	-0.1325084	0.6576385	0.006262272	-0.01375173	0.3749696	-0.1409909	0	0
33.3229	-0.131474	0.6568059	0.06274042	-0.05050107	1.71141	-1.113584	0	0
33.33947	-0.1303618	0.6559546	0.06713749	-0.05138297	0.1330257	-0.02668039	0	0
33.35603	-0.1300254	0.6555197	0.02030207	-0.02625273	-1.413496	0.7584321	0	0
33.37296	-0.1300513	0.6555007	-0.001529222	-0.001119844	-0.6518157	0.7503914	0	0
33.38947	-0.1300513	0.6555007	0	0	0.04573603	0.03349236	0	0
33.40598	-0.1300513	0.6554629	0	-0.002288875	0	-0.06931779	0	0
33.42229	-0.1300513	0.6554629	0	0	0	0.06972862	0	0
33.43886	-0.1300513	0.6554629	0	0	0	0	0	0
33.45543	-0.1300513	0.6553873	0	-0.004565537	0	-0.1377882	0	0
33.472	-0.1300772	0.6553684	-0.001561421	-0.001140485	-0.04712377	0.1033683	0	0
33.48856	-0.1303359	0.655028	-0.01561601	-0.02054312	-0.4241682	-0.5855725	0	0
33.50555	-0.1310085	0.6532514	-0.03959497	-0.1045889	-0.7146364	-2.504786	0	0
33.5217	-0.1291974	0.6517782	0.1121582	-0.09123627	4.579919	0.4029832	0	0
33.53827	-0.1275408	0.6504567	0.09999388	-0.07976197	-0.3718284	0.3507367	0	0
33.55483	-0.1233962	0.647288	0.2501673	-0.1912668	4.532242	-3.365223	0	0
33.5714	-0.1180797	0.6426361	0.3209021	-0.2807859	2.13478	-2.70169	0	0
33.58797	-0.1116651	0.6309758	0.3871851	-0.7038194	2.000425	-12.76718	0	0
33.60463	-0.1115352	0.6238459	0.007800424	-0.4279969	-11.4183	8.301402	0	0
33.62114	-0.1113532	0.611964	0.01101972	-0.7196742	0.09705804	-8.793728	0	0
33.63766	-0.1110154	0.5956802	0.02044223	-0.9851611	0.2851926	-8.035539	0	0
33.65423	-0.1108074	0.5845124	0.01255163	-0.6740912	-0.2384132	9.39893	0	0
33.6708	-0.1112753	0.5745582	-0.02824049	-0.6008375	-1.231108	2.210801	0	0
33.68737	-0.1138736	0.5637867	-0.1568378	-0.6501698	-3.881074	-1.488851	0	0
33.70393	-0.1169377	0.5574409	-0.1849488	-0.3830338	-0.8483911	8.062181	0	0
33.7205	-0.1232407	0.5521848	-0.3804461	-0.3172562	-5.900121	1.98517	0	0
33.73707	-0.1337235	0.5446694	-0.6327446	-0.4536287	-7.614385	-4.115729	0	0
33.75364	-0.1406442	0.5390462	-0.417734	-0.3394183	6.489033	3.446876	0	0
33.77026	-0.145491	0.528913	-0.2915463	-0.6095363	3.801788	-8.138124	0	0
33.78677	-0.1466759	0.5200008	-0.0717831	-0.5399309	6.633229	2.100937	0	0
33.80333	-0.1472681	0.5111591	-0.03575078	-0.5336893	1.089464	0.1887219	0	0
33.82028	-0.1488385	0.5001593	-0.09267275	-0.649148	-1.698549	-3.445285	0	0
33.83646	-0.1501251	0.4948756	-0.0794903	-0.3264439	0.397893	9.740352	0	0
33.85303	-0.153031	0.4880246	-0.175399	-0.4135246	-2.928242	-2.65871	0	0
33.87267	-0.1578854	0.4772122	-0.2471955	-0.550584	-1.983039	-3.785616	0	0
33.88924	-0.1616559	0.4713531	-0.2275879	-0.3536582	0.5415686	5.439143	0	0
33.9058	-0.1648073	0.4631585	-0.1902163	-0.4946286	1.127876	-4.254495	0	0
33.92237	-0.1679297	0.4575445	-0.1884732	-0.3388607	0.0526071	4.701085	0	0
33.93936	-0.1687994	0.4517547	-0.05119354	-0.3408376	4.091296	-0.05891883	0	0
33.9555	-0.1692596	0.4497418	-0.02851138	-0.1246843	0.6846279	6.524271	0	0
33.97207	-0.1705889	0.4416591	-0.08023597	-0.4878756	-1.581259	-11.10302	0	0
34.03834	-0.1776341	0.4049179	-0.1063115	-0.5544253	-0.3147846	-0.8033894	0	0
34.0549	-0.1840002	0.3989061	-0.3842624	-0.3628756	-3.355429	2.312392	0	0
34.07147	-0.1880921	0.3956327	-0.246986	-0.1975809	4.14301	4.988605	0	0
34.08804	-0.1902752	0.3914838	-0.1317737	-0.2504317	3.477115	-1.595042	0	0
34.10461	-0.1912393	0.3866563	-0.0581899	-0.2913831	2.220762	-1.235914	0	0
34.12117	-0.1918987	0.3824378	-0.03980184	-0.2546321	0.5549529	1.109147	0	0
34.13774	-0.1916704	0.3802037	0.01377666	-0.1348506	1.617002	3.615012	0	0
34.15431	-0.1909095	0.3754145	0.04592969	-0.2890787	0.9703804	-4.654612	0	0
34.17103	-0.1910364	0.3752894	-0.007586128	-0.007480964	-1.607707	8.459679	0	0
34.20401	-0.1910617	0.375343	-0.00076905	0.001625759	0.1371704	0.1832417	0	0
34.22057	-0.1910364	0.3753251	0.00153084	-0.001079323	0.04641995	-0.05459817	0	0
34.23714	-0.191011	0.3753073	0.001531739	-0.001077524	2.714469E-05	5.428939E-05	0	0
34.25371	-0.191011	0.3752715	0	-0.002156847	-0.04622798	-0.03257403	0	0
34.27028	-0.1909603	0.3752358	0.00306168	-0.002156847	0.09240168	0	0	0
34.28684	-0.1909349	0.3752179	0.001531739	-0.001079323	-0.04617369	0.03251974	0	0
34.30341	-0.1909349	0.3752179	0	0	-0.04622798	0.03257403	0	0
34.32013	-0.1909349	0.3752179	0	0	0	0	0	0
34.33654	-0.1909349	0.3752179	0	0	0	0	0	0
34.35315	-0.1909349	0.3752179	0	0	0	0	0	0
34.36967	-0.1909095	0.3752	0.001535436	-0.001082564	0.04634488	-0.03267559	0	0
34.38624	-0.1908841	0.3751822	0.001531739	-0.001077524	-0.0001117324	0.0001523169	0	0
34.40281	-0.1908334	0.3751464	0.003062579	-0.002156847	0.04620084	-0.03257403	0	0
34.41937	-0.1907319	0.375075	0.006125158	-0.004315493	0.09242882	-0.06514806	0	0
34.43594	-0.1904528	0.3748784	0.01684553	-0.01186356	0.3235416	-0.2278011	0	0
34.45251	-0.1898692	0.3744317	0.0352282	-0.02696329	0.5547901	-0.4557107	0	0
34.46907	-0.1852208	0.3711621	0.2805763	-0.197356	7.404621	-5.142463	0	0
34.48575	-0.1824737	0.3691969	0.1647542	-0.1178595	-3.484287	2.391499	0	0
34.50227	-0.1770732	0.3654097	0.3268822	-0.2292268	4.884035	-3.354891	0	0
34.51878	-0.1758489	0.3645523	0.0741682	-0.05194491	-7.651587	5.367681	0	0
34.53534	-0.1745221	0.3636234	0.08008847	-0.05606544	0.1790038	-0.1245872	0	0
34.55191	-0.1722241	0.3620159	0.1387038	-0.09703294	1.769014	-1.236402	0	0
34.56881	-0.1716621	0.3616229	0.03325603	-0.02325409	-3.150861	2.204569	0	0
34.6054	-0.1708445	0.3610514	0.0223461	-0.01562011	-0.2039634	0.1427187	0	0
34.62197	-0.1708445	0.3610514	0	0	-0.4203728	0.2938442	0	0
34.63853	-0.1708445	0.3610156	0	-0.002156847	0	-0.06509378	0	0
34.65537	-0.1708189	0.360962	0.001517721	-0.003182346	0.04543352	-0.03069868	0	0
34.67167	-0.1708189	0.3609263	0	-0.002190865	-0.0458049	0.02992296	0	0
34.68824	-0.1708189	0.3608549	0	-0.004313694	0	-0.06459513	0	0
34.7048	-0.1707934	0.3608013	0.001542532	-0.003234371	0.04655372	0.03257403	0	0
34.72137	-0.1707934	0.3607656	0	-0.002155048	-0.04655372	0.03257403	0	0
34.73794	-0.1707423	0.3607298	0.003085065	-0.002156847	0.09310745	-5.428939E-05	0	0
34.75451	-0.1707423	0.3607298	0	0	-0.09310745	0.06509378	0	0
34.77108	-0.1707167	0.360712	0.001542177	-0.001077276	0.04653765	-0.03250851	0	0
34.78764	-0.1707167	0.360712	0	0	-0.04654301	0.03251226	0	0
34.80421	-0.1707167	0.360712	0	0	0	0	0	0
34.82077	-0.1707167	0.360712	0	0	0	0	0	0
34.83734	-0.1706911	0.3606941	0.001542532	-0.001077524	0.04655372	-0.03251974	0	0
34.85391	-0.1706656	0.3606763	0.001542532	-0.001079323	0	-5.428939E-05	0	0
34.87048	-0.17064	0.3606584	0.001542532	-0.001077524	0	5.428939E-05	0	0
34.88704	-0.1705889	0.3606227	0.003085065	-0.002156847	0.04655372	-0.03257403	0	0
34.90361	-0.1705122	0.3605334	0.004629563	-0.005390661	0.04661841	-0.09760793	0	0
34.92017	-0.1702822	0.3603369	0.01388459	-0.01185996	0.2793495	-0.1952664	0	0
34.93674	-0.1701289	0.3601583	0.009256994	-0.01078064	-0.1396612	0.03257405	0	0
34.95331	-0.1692341	0.3592831	0.05400933	-0.05282567	1.350628	-1.268921	0	0
34.96988	-0.1667528	0.3575507	0.1497696	-0.1045702	2.89005	-1.561653	0	0
34.98644	-0.1611688	0.3535859	0.3370501	-0.2393147	5.652138	-4.066597	0	0
35.00313	-0.1528767	0.3477463	0.4969636	-0.3499836	4.809035	-3.328115	0	0
35.01958	-0.1508196	0.3463176	0.1250589	-0.08685065	-11.22411	7.941368	0	0
35.08585	-0.1347831	0.3351033	0.2419919	-0.1692248	1.413636	-0.9958445	0	0
35.10241	-0.134809	0.3350497	-0.001560521	-0.003234371	-2.940171	2.003841	0	0
35.11921	-0.1348348	0.3350319	-0.001538019	-0.001062599	0.0006743697	0.06508712	0	0
35.13555	-0.1348348	0.3349962	0	-0.002185748	0.04641752	-0.03389671	0	0
35.15224	-0.1348348	0.3349962	0	0	0	0.06618699	0	0
35.16875	-0.1348606	0.3349783	-0.001565027	-0.001081259	-0.04714035	-0.03256871	0	0
35.18526	-0.1348865	0.3349247	-0.001564666	-0.003244831	1.094924E-05	-0.06551549	0	0
35.20181	-0.1349898	0.3348533	-0.006244238	-0.004315871	-0.1415231	-0.03239116	0	0
35.21838	-0.1352741	0.3346569	-0.01715584	-0.01185636	-0.3294645	-0.2276774	0	0
35.23495	-0.1386313	0.3323354	-0.2026456	-0.1401249	-5.598092	-3.871153	0	0
35.25502	-0.154059	0.3216023	-0.7684328	-0.5346018	-15.44011	-10.76512	0	0
35.27159	-0.1590145	0.3181552	-0.2991146	-0.2080683	12.80751	8.910972	0	0
35.28816	-0.1682111	0.3117425	-0.5551111	-0.3870704	-7.72599	-5.402295	0	0
35.30473	-0.1740626	0.3076156	-0.3531977	-0.2490988	6.09376	4.163993	0	0
35.32129	-0.1806408	0.3029701	-0.3970569	-0.2804081	-1.323674	-0.9449181	0	0
35.33786	-0.1841274	0.3005219	-0.2104554	-0.1477719	5.631644	4.002968	0	0
35.35443	-0.1903006	0.2961789	-0.3726138	-0.2621424	-4.89395	-3.451708	0	0
35.37099	-0.1942559	0.2933904	-0.2387454	-0.168315	4.040157	2.831715	0	0
35.38756	-0.1962566	0.2919782	-0.1207619	-0.08524314	3.560749	2.507115	0	0
35.40442	-0.1976992	0.2909591	-0.08557507	-0.06045096	1.052728	0.7417392	0	0
35.4207	-0.1976739	0.290977	0.001554444	0.001098547	2.629574	1.857568	0	0
35.47047	-0.1976739	0.290977	0	0	-0.02353518	-0.01663264	0	0
35.48698	-0.1976739	0.290977	0	0	0	0	0	0
35.50353	-0.1976739	0.290977	0	0	0	0	0	0
35.5201	-0.1976739	0.290977	0	0	0	0	0	0
35.53666	-0.1976739	0.290977	0	0	0	0	0	0
35.55323	-0.1976739	0.290977	0	0	0	0	0	0
35.5698	-0.1976739	0.290977	0	0	0	0	0	0
35.58636	-0.1976992	0.2909949	-0.001527242	0.001077524	-0.04609226	0.03251974	0	0
35.60293	-0.1976992	0.2909949	0	0	0.04609226	-0.03251974	0	0
35.6195	-0.1976992	0.2909949	0	0	0	0	0	0
35.63609	-0.1976992	0.2909949	0	0	0	0	0	0
35.66082	-0.1976992	0.2909949	0	0	0	0	0	0
35.67739	-0.1976992	0.2909949	0	0	0	0	0	0
35.69395	-0.1976992	0.2909949	0	0	0	0	0	0
35.71052	-0.1976739	0.290977	0.001527242	-0.001077524	0.04609226	-0.03251974	0	0
35.72715	-0.1976739	0.290977	0	0	-0.04600751	0.03245995	0	0
35.74366	-0.1976739	0.290977	0	0	0	0	0	0
35.76022	-0.1976739	0.290977	0	0	0	0	0	0
35.77679	-0.1976739	0.290977	0	0	0	0	0	0
35.79336	-0.1976739	0.290977	0	0	0	0	0	0
35.80993	-0.1976739	0.290977	0	0	0	0	0	0
35.82649	-0.1976739	0.290977	0	0	0	0	0	0
35.84324	-0.1976739	0.290977	0	0	0	0	0	0
35.90935	-0.1976739	0.290977	0	0	0	0	0	0
35.92629	-0.1976739	0.290977	0	0	0	0	0	0
35.94645	-0.1976739	0.290977	0	0	0	0	0	0
35.96302	-0.1976739	0.290977	0	0	0	0	0	0
35.97958	-0.1976739	0.290977	0	0	0	0	0	0
35.99615	-0.1976739	0.290977	0	0	0	0	0	0
36.01285	-0.1976739	0.290977	0	0	0	0	0	0
36.02928	-0.1976739	0.290977	0	0	0	0	0	0
36.04587	-0.1976739	0.290977	0	0	0	0	0	0
36.06241	-0.1976739	0.290977	0	0	0	0	0	0
36.07898	-0.1976739	0.290977	0	0	0	0	0	0
36.09555	-0.1976739	0.290977	0	0	0	0	0	0
36.11211	-0.1976739	0.290977	0	0	0	0	0	0
36.12868	-0.1976739	0.290977	0	0	0	0	0	0
36.14525	-0.1976739	0.290977	0	0	0	0	0	0
36.16182	-0.1976739	0.290977	0	0	0	0	0	0
36.17838	-0.1976739	0.290977	0	0	0	0	0	0
36.19495	-0.1976739	0.290977	0	0	0	0	0	0
36.21152	-0.1976739	0.290977	0	0	0	0	0	0
36.22808	-0.1976739	0.290977	0	0	0	0	0	0
36.24465	-0.1976486	0.2909591	0.001527242	-0.001079323	0.04609226	-0.03257403	0	0
36.26152	-0.1976486	0.2909591	0	0	-0.04567161	0.03227676	0	0
36.27804	-0.1976486	0.2909591	0	0	0	0	0	0
36.29435	-0.1976486	0.2909234	0	-0.002191957	0	-0.06676835	0	0
36.31106	-0.1976486	0.2909234	0	0	0	0.066375	0	0
36.32758	-0.1976486	0.2909234	0	0	0	0	0	0
36.34406	-0.1976486	0.2909234	0	0	0	0	0	0
36.36062	-0.1976486	0.2909234	0	0	0	0	0	0
36.37719	-0.1976486	0.2909234	0	0	0	0	0	0
36.39412	-0.1976486	0.2909234	0	0	0	0	0	0
36.41063	-0.1976486	0.2909234	0	0	0	0	0	0
36.42689	-0.1976486	0.2909234	0	0	0	0	0	0
36.44345	-0.1976486	0.2909234	0	0	0	0	0	0
36.46017	-0.1976486	0.2909234	0	0	0	0	0	0
36.47659	-0.1976486	0.2909234	0	0	0	0	0	0
36.49316	-0.1976486	0.2909234	0	0	0	0	0	0
36.50972	-0.1976486	0.2909234	0	0	0	0	0	0
36.54286	-0.1976486	0.2909234	0	0	0	0	0	0
36.55975	-0.1976486	0.2909234	0	0	0	0	0	0
36.57958	-0.1976233	0.2909055	0.001275786	-0.0009016157	0.03474337	-0.02455362	0	0
36.59615	-0.1975727	0.2908697	0.003054484	-0.002158646	0.04886555	-0.03453395	0	0
36.61271	-0.197345	0.2907446	0.01374518	-0.007553462	0.3226458	-0.1628159	0	0
36.62929	-0.1933691	0.2879375	0.23982	-0.1693188	6.820597	-4.880401	0	0
36.64585	-0.1870253	0.2834668	0.3831761	-0.2700407	4.326496	-3.039794	0	0
36.66241	-0.1794181	0.2781899	0.4591701	-0.3185118	2.294295	-1.463368	0	0
