Time	Pos X	Pos Y	Vel X	Vel Y	Acc X	Acc YForce X	Force Y
0.01656594	-0.1669575	0.2901009	0.002585911	-0.00449321	-4.006199E-05	6.961065E-05	0	0
0.04329252	-0.1669575	0.2901009	0	0	4.00683E-05	-6.962161E-05	0	0
0.06029744	-0.1669575	0.2901009	0	0	0	0	0	0
0.07642718	-0.1669831	0.2901188	-0.001587142	0.001108598	-0.04789978	0.03345735	0	0
0.09299351	-0.1669831	0.2901188	0	0	0.04854229	-0.03390614	0	0
0.1095606	-0.1670087	0.2901367	-0.001544341	0.00107933	-0.04660971	0.03257522	0	0
0.1261274	-0.1670343	0.2901546	-0.001544377	0.001079355	-1.08918E-06	7.624262E-07	0	0
0.1426937	-0.1670599	0.2901725	-0.001544415	0.001079381	-1.134883E-06	7.905529E-07	0	0
0.1593682	-0.1670599	0.2901725	0	0	0.04646137	-0.03247154	0	0
0.1758489	-0.1670599	0.2901725	0	0	0	0	0	0
0.1923963	-0.1670599	0.2901725	0	0	0	0	0	0
0.2089618	-0.1670855	0.2901903	-0.001544488	0.001079433	-0.04664304	0.03259851	0	0
0.2255294	-0.1670855	0.2901903	0	0	0.0466147	-0.03257871	0	0
0.2420957	-0.1670855	0.2901903	0	0	0	0	0	0
0.3083602	-0.1670855	0.2901903	0	0	0	0	0	0
0.3746268	-0.1676739	0.2906373	-0.008880449	0.006744663	-0.06700654	0.05089118	0	0
0.3945221	-0.1678786	0.2908876	-0.01028647	0.01258134	-0.01631835	0.06774084	0	0
0.41109	-0.1682367	0.2912809	-0.02161435	0.02374053	-0.3106658	0.3060395	0	0
0.4280578	-0.1692596	0.292139	-0.0602877	0.05057215	-1.153199	0.8000909	0	0
0.4442231	-0.1715599	0.2939624	-0.1422995	0.1127972	-2.475224	1.878035	0	0
0.4607898	-0.1775066	0.298413	-0.3589525	0.2686481	-6.619001	4.761427	0	0
0.4773565	-0.1804879	0.3006112	-0.1799592	0.132687	5.402192	-4.103439	0	0
0.4939229	-0.1857801	0.3043638	-0.3194519	0.226519	-4.210075	2.831973	0	0
0.51049	-0.1922537	0.3089913	-0.3907485	0.2793177	-2.1518	1.593517	0	0
0.5270568	-0.1961047	0.311814	-0.2324569	0.1703796	4.777333	-3.287814	0	0
0.5436231	-0.1997477	0.3145292	-0.2199005	0.1639023	0.3789669	-0.195496	0	0
0.5601898	-0.2013903	0.3158332	-0.09915306	0.0787101	3.644317	-2.571211	0	0
0.5771624	-0.2047227	0.3182624	-0.196341	0.1431246	-2.897734	1.920567	0	0
0.5933229	-0.2058073	0.3190661	-0.06711196	0.04973463	3.900302	-2.81863	0	0
0.6101861	-0.2057316	0.319084	0.004486298	0.001060382	2.168086	-1.473918	0	0
0.6264564	-0.2055803	0.3192269	0.009299557	0.008781184	0.1452689	0.2330214	0	0
0.6430235	-0.2047984	0.3197806	0.04719734	0.03342148	1.154104	0.7503731	0	0
0.6597213	-0.2029561	0.3211201	0.1103324	0.08022182	1.897951	1.4069	0	0
0.6927229	-0.1979522	0.3247635	0.1516269	0.1104005	0.8308842	0.6072248	0	0
0.7092896	-0.1949146	0.3269422	0.1833553	0.1315139	0.6400945	0.4259452	0	0
0.7262685	-0.1907319	0.3298889	0.2463447	0.1735479	1.877723	1.253039	0	0
0.7424231	-0.1892093	0.3310318	0.09425467	0.07074704	-4.590226	-3.10263	0	0
0.7592918	-0.1892347	0.3310496	-0.001505247	0.001058266	-2.899769	-2.110291	0	0
0.7755565	-0.1892347	0.3310496	0	0	0.04542984	-0.03193952	0	0
0.7921228	-0.1892601	0.3310318	-0.001531822	-0.001077582	-0.04665769	-0.03282203	0	0
0.8086896	-0.1892601	0.3310318	0	0	0.04623239	0.03252285	0	0
0.8252567	-0.1892347	0.3310139	0.00153175	-0.001077532	0.04622915	-0.03252056	0	0
0.841823	-0.1892347	0.3310139	0	0	-0.04622973	0.03252097	0	0
0.8583902	-0.1892347	0.3310139	0	0	0	0	0	0
0.8749565	-0.1892347	0.3310139	0	0	0	0	0	0
0.8915228	-0.1892347	0.3310139	0	0	0	0	0	0
0.9080896	-0.1892347	0.3309782	0	-0.00215511	0	-0.06504405	0	0
0.9249098	-0.1892347	0.3309782	0	0	0	0.0645495	0	0
0.9412231	-0.1892347	0.3309782	0	0	0	0	0	0
0.9577902	-0.1892093	0.3309603	0.00153265	-0.001079331	0.04661283	-0.03282594	0	0
0.9744438	-0.1892093	0.3309603	0	0	-0.04613537	0.0324897	0	0
0.9909229	-0.1892347	0.3309425	-0.001540838	-0.001083288	-0.04650508	-0.03269548	0	0
1.00749	-0.1892347	0.3309425	0	0	0.04662738	0.03278146	0	0
1.024056	-0.1892093	0.3309246	0.001532683	-0.001077555	0.04625787	-0.03252168	0	0
1.123549	-0.1892093	0.3308175	0	-0.001076854	-0.01320599	6.040454E-06	0	0
1.140024	-0.1892093	0.3308175	0	0	0	0.009285846	0	0
1.161981	-0.1892093	0.3307818	0	-0.001627396	0	-0.04234533	0	0
1.178588	-0.1891839	0.3307639	0.001528067	-0.001074941	0.03962397	0.01432559	0	0
1.195115	-0.1891839	0.3307282	0	-0.002160318	-0.04611798	-0.03275734	0	0
1.211683	-0.1891839	0.3306925	0	-0.002156661	0	0.0001105006	0	0
1.228248	-0.1891839	0.3306925	0	0	0	0.06508932	0	0
1.244815	-0.1891839	0.3306925	0	0	0	0	0	0
1.261647	-0.1891839	0.3306925	0	0	0	0	0	0
1.278159	-0.1891839	0.3306925	0	0	0	0	0	0
1.294515	-0.1891839	0.3306925	0	0	0	0	0	0
1.311082	-0.1891839	0.3306925	0	0	0	0	0	0
1.327649	-0.1891839	0.3306925	0	0	0	0	0	0
1.344215	-0.1891839	0.3306925	0	0	0	0	0	0
1.360782	-0.1891839	0.3306925	0	0	0	0	0	0
1.37735	-0.1891839	0.3306925	0	0	0	0	0	0
1.393916	-0.1891839	0.3306925	0	0	0	0	0	0
1.410752	-0.1891839	0.3306925	0	0	0	0	0	0
1.427048	-0.1892093	0.3306746	-0.001557242	-0.001095465	-0.0470002	-0.03306297	0	0
1.44378	-0.1892093	0.3306746	0	0	0.04714914	0.03316775	0	0
1.460287	-0.1892093	0.3306746	0	0	0	0	0	0
1.530226	-0.1892093	0.3306746	0	0	0	0	0	0
1.546793	-0.1892093	0.3306746	0	0	0	0	0	0
1.563359	-0.1892093	0.3306746	0	0	0	0	0	0
1.579927	-0.1892093	0.3306746	0	0	0	0	0	0
1.596493	-0.1892093	0.3306746	0	0	0	0	0	0
1.61306	-0.1892093	0.3306746	0	0	0	0	0	0
1.629626	-0.1892093	0.3306746	0	0	0	0	0	0
1.646193	-0.1892093	0.3306746	0	0	0	0	0	0
1.66276	-0.1892093	0.3306746	0	0	0	0	0	0
1.679443	-0.1892093	0.3306746	0	0	0	0	0	0
1.695894	-0.1892093	0.3306746	0	0	0	0	0	0
1.712466	-0.1892093	0.3306746	0	0	0	0	0	0
1.729026	-0.1892093	0.3306746	0	0	0	0	0	0
1.745593	-0.1892093	0.3306746	0	0	0	0	0	0
1.76216	-0.1892093	0.3306746	0	0	0	0	0	0
1.778726	-0.1892093	0.3306746	0	0	0	0	0	0
1.795293	-0.1892093	0.3306746	0	0	0	0	0	0
1.81186	-0.1892093	0.3306746	0	0	0	0	0	0
1.847932	-0.1892093	0.3306746	0	0	0	0	0	0
1.8645	-0.1892093	0.3306746	0	0	0	0	0	0
1.881087	-0.1892093	0.3306746	0	0	0	0	0	0
1.897634	-0.1892093	0.3306746	0	0	0	0	0	0
1.914199	-0.1892093	0.3306746	0	0	0	0	0	0
1.930765	-0.1892093	0.3306746	0	0	0	0	0	0
1.947646	-0.1892093	0.3306746	0	0	0	0	0	0
1.963898	-0.1892093	0.3306746	0	0	0	0	0	0
1.980465	-0.1892093	0.3306746	0	0	0	0	0	0
1.997032	-0.1892093	0.3306746	0	0	0	0	0	0
2.046731	-0.1892093	0.3306746	0	0	0	0	0	0
2.063298	-0.1892093	0.3306746	0	0	0	0	0	0
2.079865	-0.1892093	0.3306746	0	0	0	0	0	0
2.096737	-0.1892093	0.3306746	0	0	0	0	0	0
2.113249	-0.1892093	0.3306746	0	0	0	0	0	0
2.129761	-0.1892093	0.3306746	0	0	0	0	0	0
2.146132	-0.1892093	0.3306746	0	0	0	0	0	0
2.163284	-0.1892093	0.3306746	0	0	0	0	0	0
2.179265	-0.1892093	0.3306746	0	0	0	0	0	0
2.195832	-0.1892093	0.3306746	0	0	0	0	0	0
2.212821	-0.1892093	0.3306746	0	0	0	0	0	0
2.228965	-0.1892093	0.3306746	0	0	0	0	0	0
2.245532	-0.1892093	0.3306746	0	0	0	0	0	0
2.262099	-0.1892093	0.3306746	0	0	0	0	0	0
2.278666	-0.1892093	0.3306746	0	0	0	0	0	0
2.295379	-0.1892093	0.3306746	0	0	0	0	0	0
2.311799	-0.1892093	0.3306746	0	0	0	0	0	0
2.328365	-0.1891839	0.3306925	0.001531894	0.001077633	0.04644049	0.03266924	0	0
2.3615	-0.1891839	0.3306925	0	0	-0.03082235	-0.02168243	0	0
2.378068	-0.1891839	0.3306925	0	0	0	0	0	0
2.394632	-0.1892093	0.3306746	-0.001532004	-0.00107771	-0.04623896	-0.03252747	0	0
2.411199	-0.1892093	0.3306746	0	0	0.04624063	0.03252864	0	0
2.427765	-0.1892093	0.3306746	0	0	0	0	0	0
2.444332	-0.1892093	0.3306746	0	0	0	0	0	0
2.460995	-0.1892093	0.3306746	0	0	0	0	0	0
2.498211	-0.1892093	0.3306746	0	0	0	0	0	0
2.514779	-0.1892093	0.3306746	0	0	0	0	0	0
2.531548	-0.1892093	0.3306746	0	0	0	0	0	0
2.548057	-0.1892093	0.3306746	0	0	0	0	0	0
2.56457	-0.1892093	0.3306746	0	0	0	0	0	0
2.581045	-0.1892093	0.3306746	0	0	0	0	0	0
2.597613	-0.1892093	0.3306746	0	0	0	0	0	0
2.614178	-0.1891839	0.3306568	0.001531938	-0.001077664	0.04623597	-0.03252536	0	0
2.630745	-0.1892093	0.3306032	-0.001531783	-0.003234464	-0.09247061	-0.06509753	0	0
2.647311	-0.1891839	0.3305139	0.001531783	-0.005389575	0.09246129	-0.06504323	0	0
2.663878	-0.1891585	0.3303532	0.001532683	-0.009701595	2.714548E-05	-0.1301408	0	0
2.680651	-0.189057	0.330246	0.00605366	-0.006387705	0.1356042	0.09939831	0	0
2.697165	-0.1889808	0.3301924	0.004612786	-0.003244831	-0.04328695	0.09441864	0	0
2.713578	-0.1889808	0.3301924	0	0	-0.1400932	0.09854754	0	0
2.730185	-0.1890062	0.3301746	-0.001528898	-0.001074894	-0.0463015	-0.03255234	0	0
2.763277	-0.1890062	0.3301746	0	0	0.03076268	0.02162775	0	0
2.779844	-0.1889808	0.3301924	0.001532727	0.001077586	0.03086547	0.02170002	0	0
2.79641	-0.1889808	0.3301924	0	0	-0.04625979	-0.03252302	0	0
2.812977	-0.1890062	0.3302103	-0.001532683	0.001079354	-0.04625779	0.03257591	0	0
2.846111	-0.1890062	0.3302103	0	0	0.03083853	-0.02171727	0	0
2.862678	-0.1890316	0.3302282	-0.001532639	0.001077524	-0.03083734	0.02168025	0	0
2.879244	-0.1890316	0.3302282	0	0	0.04625679	-0.03252091	0	0
2.895811	-0.189057	0.330246	-0.001532683	0.001077555	-0.04625879	0.03252232	0	0
2.945838	-0.1892093	0.3303889	-0.003044443	0.002855897	-0.02270119	0.02670428	0	0
2.962349	-0.1894631	0.3306032	-0.0153741	0.01297796	-0.1853023	0.1521244	0	0
2.978645	-0.192203	0.3327104	-0.168126	0.1293067	-4.656027	3.545815	0	0
2.995373	-0.2001774	0.3386212	-0.4767273	0.3533566	-9.344805	6.784489	0	0
3.011886	-0.2110466	0.3467105	-0.6582168	0.4898734	-5.45988	4.106936	0	0
3.028345	-0.2238428	0.3559254	-0.7774602	0.5598727	-3.616496	2.122984	0	0
3.044911	-0.236739	0.365374	-0.7784598	0.5703471	-0.03026683	0.3171646	0	0
3.061478	-0.2523457	0.3783808	-0.9420522	0.7851168	-4.937441	6.482041	0	0
3.078044	-0.258972	0.3903394	-0.3999709	0.7218415	16.36052	-1.909708	0	0
3.094611	-0.2647417	0.407352	-0.3482834	1.026941	1.559998	9.208333	0	0
3.111177	-0.2668242	0.4215176	-0.1257034	0.8550625	6.717769	-5.187539	0	0
3.127744	-0.269858	0.4415334	-0.183125	1.208193	-1.733038	10.65781	0	0
3.144312	-0.2719591	0.4566272	-0.1268204	0.9110489	1.699288	-8.967894	0	0
3.160989	-0.2734967	0.4667954	-0.09219489	0.6096911	1.041523	-9.064733	0	0
3.177444	-0.2763974	0.4866879	-0.1762845	1.208907	-2.537974	18.08541	0	0
3.194013	-0.2781745	0.5012819	-0.1072557	0.8808188	2.090287	-9.934958	0	0
3.210577	-0.2807518	0.5192377	-0.1555897	1.084004	-1.458787	6.132399	0	0
3.227144	-0.283689	0.5319178	-0.1772983	0.7653952	-0.6552331	-9.616596	0	0
3.263565	-0.2902975	0.5564514	-0.18145	0.6736183	-0.078353	-1.732054	0	0
3.279996	-0.2961821	0.5763627	-0.3581181	1.211753	-3.34267	10.18184	0	0
3.296591	-0.2997411	0.5881324	-0.2144699	0.7092475	4.349488	-15.21523	0	0
3.31313	-0.3034362	0.5989044	-0.2234207	0.651327	-0.2701458	-1.748108	0	0
3.329696	-0.3087	0.6069604	-0.317744	0.4862882	-2.849224	-4.985327	0	0
3.346263	-0.317798	0.6141801	-0.5491481	0.4357776	-6.983939	-1.524446	0	0
3.36283	-0.3226108	0.6179643	-0.2905183	0.2284267	7.80563	-6.257998	0	0
3.379398	-0.3261808	0.6207823	-0.2154695	0.1700783	2.26496	-1.760946	0	0
3.395963	-0.3261572	0.6207636	0.001424911	-0.001126256	6.546123	-5.167149	0	0
3.412668	-0.3260863	0.6207076	0.004242368	-0.003353933	0.08468429	-0.06695728	0	0
3.429096	-0.3258974	0.6205583	0.01149986	-0.009088864	0.2190411	-0.173088	0	0
3.445691	-0.3256848	0.6203902	0.01281015	-0.01012528	0.03967882	-0.03138532	0	0
3.462229	-0.325425	0.6201475	0.01571352	-0.01467557	0.08762772	-0.1373338	0	0
3.478796	-0.3252123	0.6199422	0.01283495	-0.01239423	-0.08695123	0.06891097	0	0
3.495363	-0.3250942	0.6198489	0.007131138	-0.005630793	-0.1721464	0.2041267	0	0
3.511929	-0.3250942	0.6198489	0	0	-0.2152275	0.169945	0	0
3.528496	-0.3250942	0.6198489	0	0	0	0	0	0
3.545062	-0.3250942	0.6198489	0	0	0	0	0	0
3.627896	-0.3260155	0.6206516	-0.01112238	0.009690441	-0.1118952	0.0974893	0	0
3.644831	-0.3272195	0.6221642	-0.0710912	0.0893189	-0.6010759	0.7981274	0	0
3.661029	-0.3298364	0.6246123	-0.1615646	0.1511378	-2.73061	1.865779	0	0
3.677596	-0.3344459	0.6302264	-0.2782377	0.3388776	-3.560968	5.729988	0	0
3.694163	-0.3329659	0.6449705	0.08933557	0.8899522	11.09354	16.6317	0	0
3.710729	-0.3282574	0.6523258	0.2842219	0.4439943	5.881851	-13.45942	0	0
3.727296	-0.3228948	0.6586607	0.3236929	0.3823864	1.191288	-1.859411	0	0
3.743901	-0.3223031	0.6599296	0.03563788	0.07641611	-8.683832	-9.223914	0	0
3.760429	-0.3222794	0.6599106	0.001433466	-0.001146772	-1.032336	-2.340954	0	0
3.776996	-0.3222794	0.6599106	0	0	-0.0433135	0.0346508	0	0
3.793936	-0.3222557	0.6598917	0.001396864	-0.00111538	0.04168889	-0.03328811	0	0
3.81013	-0.3222557	0.6598917	0	0	-0.04215836	0.03366297	0	0
3.826696	-0.3222557	0.6598917	0	0	0	0	0	0
3.843471	-0.3222794	0.6599106	-0.001410643	0.001126382	-0.04230903	0.03378328	0	0
3.909529	-0.3222794	0.6599106	0	0	0.01703	-0.01359826	0	0
3.926097	-0.3222794	0.6599106	0	0	0	0	0	0
3.943043	-0.3222794	0.6599106	0	0	0	0	0	0
3.95923	-0.3222794	0.6599106	0	0	0	0	0	0
3.975797	-0.3222794	0.6599106	0	0	0	0	0	0
3.992363	-0.3222557	0.6598917	0.001428407	-0.001140567	0.04311158	-0.03442411	0	0
4.008929	-0.3222557	0.6598917	0	0	-0.0431122	0.0344246	0	0
4.025496	-0.3222557	0.6598917	0	0	0	0	0	0
4.045841	-0.3222321	0.6598728	0.001163077	-0.0009316333	0.03150989	-0.02523966	0	0
4.062408	-0.3222084	0.6598538	0.001430103	-0.001144082	0.007234045	-0.005755486	0	0
4.079139	-0.322161	0.6598159	0.002830464	-0.002265797	0.04205539	-0.03368711	0	0
4.095541	-0.32209	0.6597591	0.004329704	-0.003463037	0.04524846	-0.03613382	0	0
4.112162	-0.3219953	0.6596833	0.005700238	-0.004558039	0.04150195	-0.03315842	0	0
4.128675	-0.3218532	0.6595697	0.008603451	-0.006883482	0.08762166	-0.07018404	0	0
4.145241	-0.3218532	0.6595318	0	-0.002284699	-0.2600868	0.1390236	0	0
4.161808	-0.3218058	0.6594939	0.002860288	-0.002288231	0.0863274	-0.0001066018	0	0
4.178375	-0.3217348	0.6594371	0.004288634	-0.003428748	0.04310879	-0.03442188	0	0
4.194942	-0.3217348	0.6594371	0	0	-0.1294331	0.1034813	0	0
4.211509	-0.3217111	0.6594182	0.001428304	-0.001144082	0.0431063	-0.03452848	0	0
4.228075	-0.3216874	0.6593992	0.001430226	-0.001144181	5.801963E-05	-2.983023E-06	0	0
4.244642	-0.3216874	0.6593992	0	0	-0.04316681	0.03453344	0	0
4.26184	-0.3216874	0.6593992	0	0	0	0	0	0
4.278407	-0.3216874	0.6593992	0	0	0	0	0	0
4.311803	-0.3216637	0.6593803	0.0007094566	-0.0005657804	0.01419964	-0.01132399	0	0
4.328107	-0.3216637	0.6593803	0	0	-0.01427471	0.01138385	0	0
4.344826	-0.3216637	0.6593803	0	0	0	0	0	0
4.361337	-0.3216637	0.6593803	0	0	0	0	0	0
4.377807	-0.32164	0.6593614	0.001438508	-0.001150806	0.04361637	-0.0348931	0	0
4.394374	-0.32164	0.6593614	0	0	-0.04354208	0.03483367	0	0
4.410941	-0.32164	0.6593235	0	-0.002288231	0	-0.06906093	0	0
4.427885	-0.3216164	0.6593046	0.00139655	-0.001115129	0.04167476	0.03500679	0	0
4.444397	-0.3215927	0.6592856	0.001434811	-0.001147849	0.001143596	-0.0009779612	0	0
4.46064	-0.3215453	0.6592477	0.002917303	-0.002333842	0.04525884	-0.03620707	0	0
4.477207	-0.3214742	0.6591909	0.004288634	-0.003428748	0.04179647	-0.03337138	0	0
4.493931	-0.3214031	0.6591341	0.004250064	-0.003396487	-0.00115857	0.0009690651	0	0
4.510443	-0.3213795	0.6591151	0.001434894	-0.001147915	-0.08470237	0.06765466	0	0
4.526907	-0.3213084	0.6590583	0.004317149	-0.003450098	0.08740422	-0.06981359	0	0
4.543474	-0.3212847	0.6590394	0.001430144	-0.001144115	-0.08740292	0.06981272	0	0
4.56004	-0.3212847	0.6590394	0	0	-0.0431637	0.03453096	0	0
4.576607	-0.321261	0.6590205	0.001430144	-0.001140518	0.0431637	-0.03442238	0	0
4.593503	-0.321261	0.6590205	0	0	-0.04273868	0.03408343	0	0
4.609741	-0.3212373	0.6590015	0.001459123	-0.001167298	0.04403767	-0.03523014	0	0
4.626307	-0.3212136	0.6589826	0.001430144	-0.001144115	-0.0008833649	0.0007066933	0	0
4.643037	-0.3212136	0.6589447	0	-0.002262363	-0.04295168	-0.03358445	0	0
4.663263	-0.3210714	0.6588311	0.007028432	-0.005616852	0.1901847	-0.09077021	0	0
4.679831	-0.3209767	0.6587554	0.005720248	-0.004572601	-0.03555457	0.02838124	0	0
4.696398	-0.3208108	0.658585	0.01001252	-0.01028595	0.1295392	-0.1724267	0	0
4.713088	-0.3182254	0.6565221	0.1549143	-0.1236036	4.357092	-3.40738	0	0
4.729598	-0.3170617	0.6555953	0.07048195	-0.05613358	-2.543159	2.032242	0	0
4.746099	-0.3119452	0.6514949	0.3100708	-0.2484937	7.257753	-5.827075	0	0
4.762665	-0.3106337	0.6503812	0.07917339	-0.06722964	-6.982768	5.481762	0	0
4.779232	-0.3102758	0.649985	0.02160327	-0.02391849	-1.73757	1.307209	0	0
4.812365	-0.3100371	0.6495698	0.00720289	-0.0125295	-0.2897446	0.2291534	0	0
4.829169	-0.3096791	0.6475519	0.02130686	-0.1200839	0.2824312	-2.153769	0	0
4.845681	-0.3096313	0.6463079	0.00289153	-0.07533861	-0.552753	1.343069	0	0
4.862065	-0.3078638	0.6422786	0.1078816	-0.2459291	3.191618	-5.185821	0	0
4.878704	-0.3028129	0.6368467	0.3035586	-0.3264601	5.925498	-2.438642	0	0
4.895216	-0.2936524	0.629702	0.5547858	-0.4327026	7.578344	-3.204835	0	0
4.911765	-0.2870328	0.6245749	0.3999824	-0.3098006	-4.682288	3.717373	0	0
4.928332	-0.280849	0.6197742	0.3732694	-0.2897778	-0.8066388	0.6046211	0	0
4.944899	-0.2727891	0.612895	0.4865099	-0.4152419	3.417701	-3.786624	0	0
4.961763	-0.268513	0.6043966	0.2535502	-0.5039124	-6.968263	-2.652302	0	0
4.978274	-0.2676321	0.5962359	0.05335379	-0.4942744	-5.998346	0.2887789	0	0
4.994598	-0.2668977	0.5818183	0.04498868	-0.883186	-0.2547619	-11.84442	0	0
5.011165	-0.2652564	0.5548944	0.09906852	-1.62518	1.6442	-22.55899	0	0
5.027732	-0.2634911	0.5384442	0.106561	-0.9929662	0.2261312	19.0808	0	0
5.044299	-0.2611838	0.5173666	0.1392727	-1.272278	0.9872672	-8.429883	0	0
5.060865	-0.258972	0.5024952	0.1335089	-0.89767	-0.1739555	11.30601	0	0
5.077432	-0.2567083	0.4892533	0.1366412	-0.7993297	0.09453614	2.968045	0	0
5.094356	-0.2524444	0.4749761	0.251937	-0.8435836	3.442626	-1.32138	0	0
5.110565	-0.2483937	0.4663632	0.2499062	-0.5313631	-0.06129067	9.423105	0	0
5.127132	-0.2417563	0.4600271	0.4006357	-0.3824473	4.598726	4.543389	0	0
5.143892	-0.2340017	0.4544154	0.4626864	-0.3348323	1.861867	1.428717	0	0
5.160268	-0.2261434	0.4487536	0.4798825	-0.3457465	0.5189658	-0.3293792	0	0
5.193428	-0.2069166	0.4350006	0.579823	-0.4147481	2.017561	-1.392981	0	0
5.209966	-0.1986351	0.4291176	0.5007488	-0.3557218	-1.591098	1.187703	0	0
5.226532	-0.1888793	0.4222164	0.5888991	-0.4165833	2.662796	-1.83847	0	0
5.243099	-0.1829318	0.4180239	0.3590022	-0.2530654	-6.938602	4.935194	0	0
5.259665	-0.1777361	0.4143701	0.3136316	-0.2205562	-1.369347	0.9811722	0	0
5.276232	-0.1755173	0.4128122	0.1339299	-0.09404053	-5.423642	3.818414	0	0
5.292996	-0.1755428	0.4128301	-0.001521702	0.001068391	-4.063784	2.853434	0	0
5.309509	-0.1754918	0.4127943	0.003090798	-0.00216762	0.1386091	-0.09724456	0	0
5.347104	-0.1749814	0.4123646	0.01357422	-0.01143109	0.1937529	-0.1712059	0	0
5.363673	-0.1722241	0.4103951	0.1664068	-0.1188595	2.821641	-1.983377	0	0
5.380244	-0.1667016	0.4064929	0.3332728	-0.2354932	5.035157	-3.519404	0	0
5.397072	-0.1576801	0.4001583	0.5360864	-0.376415	6.072428	-4.219327	0	0
5.413372	-0.1532366	0.3970636	0.2726188	-0.1898697	-7.953072	5.631083	0	0
5.429942	-0.1469849	0.3926818	0.3772878	-0.2644388	3.184396	-2.268654	0	0
5.446505	-0.139354	0.3870318	0.4607054	-0.3411177	2.517621	-2.314238	0	0
5.463073	-0.1348348	0.3811867	0.2727661	-0.3527906	-5.672509	-0.3523206	0	0
5.479639	-0.1350932	0.3723591	-0.01559801	-0.5328944	-8.703096	-5.435699	0	0
5.496204	-0.1372113	0.3591045	-0.1278622	-0.8001173	-3.388483	-8.065617	0	0
5.512771	-0.1386055	0.3462462	-0.08415876	-0.7761733	1.319069	0.722684	0	0
5.529337	-0.1394315	0.3367105	-0.04985537	-0.5755962	1.035323	6.053691	0	0
5.545904	-0.1403862	0.327228	-0.05763197	-0.5723962	-0.2347086	0.0965802	0	0
5.562687	-0.1411343	0.3181016	-0.04457462	-0.5437632	0.3915249	0.8585609	0	0
5.579038	-0.142166	0.3092414	-0.06309511	-0.5418817	-0.5589494	0.05678139	0	0
5.595603	-0.1446922	0.2980556	-0.1525025	-0.6752573	-2.716224	-4.051988	0	0
5.612224	-0.146341	0.2934798	-0.09920474	-0.2753174	1.606057	12.05165	0	0
5.628736	-0.1503566	0.2855055	-0.2431788	-0.4829104	-4.345333	-6.26544	0	0
5.645303	-0.1524397	0.2832343	-0.1257394	-0.1370978	3.550205	10.45395	0	0
5.678437	-0.1558058	0.2808554	-0.1015909	-0.0717967	0.4858762	1.313885	0	0
5.695005	-0.1558315	0.2808375	-0.001550583	-0.001079292	2.012816	1.422837	0	0
5.71157	-0.1558058	0.2808196	0.001550806	-0.001079447	0.09360415	-4.687106E-06	0	0
5.728136	-0.1558058	0.2808196	0	0	-0.04680813	0.03258107	0	0
5.744703	-0.1557802	0.2808017	0.001549728	-0.001079323	0.0467729	-0.03257544	0	0
5.761328	-0.1558058	0.2808196	-0.00154435	0.001075577	-0.09321713	0.06492197	0	0
5.777839	-0.1557802	0.2808375	0.001555054	0.001083032	0.0935375	0.000224993	0	0
5.794403	-0.1557802	0.2808375	0	0	-0.0470162	-0.03274489	0	0
5.81097	-0.1558058	0.2808554	-0.001549773	0.001079354	-0.04677694	0.03257825	0	0
5.827874	-0.1558058	0.2808912	0	0.002117359	0.0463018	0.03101197	0	0
5.844103	-0.1558058	0.2808912	0	0	0	-0.06390478	0	0
5.86067	-0.1558058	0.2808912	0	0	0	0	0	0
5.877409	-0.1558058	0.2808912	0	0	0	0	0	0
5.89392	-0.1557802	0.2809448	0.001555009	0.003249004	0.04676606	0.09771202	0	0
5.910432	-0.1557031	0.28107	0.004666698	0.0075844	0.09422963	0.1312865	0	0
5.926943	-0.1556774	0.2811237	0.001555009	0.003249004	-0.09422963	-0.1312865	0	0
5.943502	-0.1557031	0.2811416	-0.001550442	0.00108162	-0.09390379	-0.06553815	0	0
5.960069	-0.1557031	0.2811416	0	0	0.04680388	-0.03265134	0	0
5.976636	-0.1557031	0.2811416	0	0	0	0	0	0
6.010003	-0.1558058	0.2812131	-0.003078778	0.002143623	-0.06165765	0.0429296	0	0
6.051411	-0.1560626	0.2813562	-0.00620221	0.003456109	-0.04177122	0.01755253	0	0
6.067977	-0.1560883	0.2813741	-0.001549817	0.001079385	0.08024918	-0.04099613	0	0
6.084555	-0.1561654	0.2814278	-0.004647007	0.003237625	-0.09344514	0.06511611	0	0
6.101111	-0.1562424	0.2814814	-0.004653298	0.003240207	-0.000189854	7.794989E-05	0	0
6.117678	-0.1568073	0.2818749	-0.0340968	0.02375299	-0.8889264	0.6192997	0	0
6.134245	-0.158296	0.2829481	-0.08986084	0.06477737	-1.682986	1.238136	0	0
6.15081	-0.158373	0.2830018	-0.004647021	0.003238342	2.571906	-1.857359	0	0
6.167377	-0.158373	0.2830018	0	0	0.1402575	-0.09774039	0	0
6.183944	-0.158373	0.2830375	0	0.002158646	0	0.065149	0	0
6.200511	-0.1583987	0.2830912	-0.001548873	0.003239861	-0.04674576	0.03263161	0	0
6.217078	-0.1585013	0.28327	-0.006196392	0.01079534	-0.1402664	0.2280314	0	0
6.233644	-0.1585526	0.2834846	-0.003097835	0.01295442	0.09351867	0.06516402	0	0
6.25021	-0.1603996	0.2849154	-0.1114888	0.08636521	-3.271434	2.215669	0	0
6.266778	-0.1659594	0.2888315	-0.3355894	0.2363771	-6.763565	4.5275	0	0
6.283345	-0.1722497	0.293301	-0.3796834	0.2697804	-1.330759	1.008112	0	0
6.300209	-0.179469	0.2983952	-0.4280983	0.3020751	-1.448203	0.9660088	0	0
6.316478	-0.1836187	0.3013082	-0.2550613	0.1790516	5.222492	-3.713016	0	0
6.333044	-0.186822	0.3035955	-0.1933647	0.1380678	1.878963	-1.248158	0	0
6.349611	-0.1900468	0.3058647	-0.1946561	0.1369754	-0.03897784	-0.03296755	0	0
6.366257	-0.1927861	0.3079015	-0.1645591	0.122361	0.9061908	-0.4400262	0	0
6.382744	-0.194332	0.3090985	-0.09375994	0.07260065	2.136785	-1.501814	0	0
6.399311	-0.196687	0.31076	-0.1421518	0.1002882	-1.46401	0.8376368	0	0
6.41629	-0.1985087	0.3120462	-0.1072907	0.0757537	1.039206	-0.7313693	0	0
6.432444	-0.2002027	0.3132431	-0.1048674	0.07409157	0.07313696	-0.05016528	0	0
6.449011	-0.2001016	0.3131716	0.006101949	-0.00431202	3.391426	-2.396156	0	0
6.465578	-0.2001016	0.3131716	0	0	-0.1841625	0.1301408	0	0
6.548411	-0.2000763	0.3131895	0.0003052791	0.0002155123	0.003071217	0.002168131	0	0
6.565396	-0.2000763	0.3131895	0	0	-0.003058335	-0.002159037	0	0
6.581545	-0.2000763	0.3131895	0	0	0	0	0	0
6.598113	-0.2000763	0.3131537	0	-0.002156785	0	-0.06592392	0	0
6.61703	-0.2000763	0.3131537	0	0	0	0.06077974	0	0
6.633597	-0.2000763	0.3131537	0	0	0	0	0	0
6.650165	-0.2000763	0.3131537	0	0	0	0	0	0
6.666732	-0.200051	0.3131359	0.001525487	-0.001077555	0.04603929	-0.03252068	0	0
6.688809	-0.2000258	0.313118	0.001144708	-0.0008099352	-0.009853424	0.006925211	0	0
6.705377	-0.2000005	0.3131002	0.001526343	-0.001077524	0.009875441	-0.006924321	0	0
6.722006	-0.1999752	0.3130823	0.001519713	-0.001073477	-0.0001996988	0.0001219213	0	0
6.73851	-0.1999752	0.3130823	0	0	-0.04586636	0.03239853	0	0
6.755077	-0.1999499	0.3130644	0.001525443	-0.001079323	0.04612625	-0.0326365	0	0
6.771644	-0.1999499	0.3130644	0	0	-0.04603863	0.0325745	0	0
6.78821	-0.1999499	0.3130644	0	0	0	0	0	0
6.805064	-0.1999246	0.3130466	0.001500347	-0.001059172	0.04489356	-0.03169268	0	0
6.821343	-0.1999246	0.3130466	0	0	-0.04528185	0.0319668	0	0
6.837911	-0.1999246	0.3130466	0	0	0	0	0	0
6.88761	-0.1999246	0.3130466	0	0	0	0	0	0
6.904176	-0.1999246	0.3130466	0	0	0	0	0	0
6.920743	-0.1998994	0.3130287	0.001525443	-0.001079323	0.04603929	-0.03257497	0	0
6.977273	-0.1998741	0.3130108	0.000447065	-0.0003157924	-0.01475275	0.01044548	0	0
6.994199	-0.1998741	0.3130108	0	0	-0.006086215	0.004299107	0	0
7.010407	-0.1998488	0.312993	0.00156011	-0.001101362	0.0470842	-0.03323917	0	0
7.026973	-0.1998488	0.312993	0	0	-0.04760141	0.03360429	0	0
7.043733	-0.1998488	0.312993	0	0	0	0	0	0
7.060107	-0.1998235	0.3129751	0.00154348	-0.001092085	0.04658365	-0.03296013	0	0
7.076756	-0.1998235	0.3129751	0	0	-0.0467397	0.03307054	0	0
7.09324	-0.1998235	0.3129751	0	0	0	0	0	0
7.109807	-0.1998235	0.3129751	0	0	0	0	0	0
7.126374	-0.1998235	0.3129751	0	0	0	0	0	0
7.14294	-0.1998235	0.3129751	0	0	0	0	0	0
7.159815	-0.1998235	0.3129751	0	0	0	0	0	0
7.176328	-0.1998235	0.3129751	0	0	0	0	0	0
7.192838	-0.1998235	0.3129751	0	0	0	0	0	0
7.20935	-0.1998235	0.3129751	0	0	0	0	0	0
7.225863	-0.1998235	0.3129751	0	0	0	0	0	0
7.242373	-0.1998235	0.3129751	0	0	0	0	0	0
7.258907	-0.1998235	0.3129751	0	0	0	0	0	0
7.341741	-0.1998235	0.3129394	0	-0.0004313819	0	-0.004341293	0	0
7.39144	-0.1998235	0.3129394	0	0	0	0.003254888	0	0
7.408007	-0.1998235	0.3129394	0	0	0	0	0	0
7.424573	-0.1998235	0.3129394	0	0	0	0	0	0
7.44114	-0.1997982	0.3129215	0.001526387	-0.001077555	0.04606776	-0.03252162	0	0
7.457707	-0.1997982	0.3129215	0	0	-0.04606776	0.03252162	0	0
7.474274	-0.1997982	0.3129215	0	0	0	0	0	0
7.511064	-0.1997982	0.3129215	0	0	0	0	0	0
7.527575	-0.1997982	0.3129215	0	0	0	0	0	0
7.544078	-0.199773	0.3129037	0.001531349	-0.001081696	0.04638443	-0.03276447	0	0
7.560645	-0.1997477	0.3128858	0.001526387	-0.001079354	-0.0001500687	7.081708E-05	0	0
7.577212	-0.1997224	0.3128679	0.001525487	-0.001077555	-2.714548E-05	5.429095E-05	0	0
7.594123	-0.1996971	0.3128501	0.001495312	-0.00105738	-0.0009013396	0.0006026318	0	0
7.610638	-0.1996971	0.3128501	0	0	-0.04473526	0.03163365	0	0
7.627146	-0.1996971	0.3128501	0	0	0	0	0	0
7.643478	-0.1996971	0.3128501	0	0	0	0	0	0
7.660045	-0.1996971	0.3128501	0	0	0	0	0	0
7.676682	-0.1996718	0.3128322	0.001519103	-0.001073046	0.04575182	-0.03231762	0	0
7.693193	-0.1996466	0.3128144	0.001531456	-0.001081134	0.0003726396	-0.0002439896	0	0
7.709745	-0.1996466	0.3128144	0	0	-0.04631808	0.03269832	0	0
7.726312	-0.1996466	0.3128144	0	0	0	0	0	0
7.742879	-0.1996466	0.3128144	0	0	0	0	0	0
7.759446	-0.1996466	0.3128144	0	0	0	0	0	0
7.776012	-0.1996718	0.3127965	-0.001526387	-0.001079354	-0.04606776	-0.03257591	0	0
7.792763	-0.1996466	0.3127786	0.001509615	-0.001065715	0.09112314	0.0004093667	0	0
7.809274	-0.1996466	0.3127786	0	0	-0.04538652	0.03204069	0	0
7.825712	-0.199596	0.3127429	0.003075687	-0.00217374	0.093347	-0.06597292	0	0
7.8423	-0.199596	0.3127429	0	0	-0.09312866	0.06581861	0	0
7.85931	-0.1995707	0.312725	0.001485759	-0.001051245	0.04422235	-0.0312894	0	0
7.875823	-0.1995707	0.312725	0	0	-0.04432111	0.03135928	0	0
7.891979	-0.1995707	0.312725	0	0	0	0	0	0
7.908546	-0.1995707	0.312725	0	0	0	0	0	0
7.925357	-0.1995707	0.312725	0	0	0	0	0	0
7.941679	-0.1995707	0.312725	0	0	0	0	0	0
7.958386	-0.1995707	0.312725	0	0	0	0	0	0
7.974894	-0.1995707	0.312725	0	0	0	0	0	0
7.99138	-0.1995707	0.312725	0	0	0	0	0	0
8.008416	-0.1995707	0.312725	0	0	0	0	0	0
8.024512	-0.1995707	0.312725	0	0	0	0	0	0
8.041079	-0.1995707	0.312725	0	0	0	0	0	0
8.057646	-0.1995707	0.312725	0	0	0	0	0	0
8.074212	-0.1995707	0.312725	0	0	0	0	0	0
8.090778	-0.1995707	0.312725	0	0	0	0	0	0
8.162489	-0.1995707	0.312725	0	0	0	0	0	0
8.179056	-0.1995707	0.312725	0	0	0	0	0	0
8.195625	-0.1995707	0.312725	0	0	0	0	0	0
8.212191	-0.1995707	0.312725	0	0	0	0	0	0
8.228758	-0.1995707	0.312725	0	0	0	0	0	0
8.245582	-0.1995707	0.312725	0	0	0	0	0	0
8.262102	-0.1995707	0.312725	0	0	0	0	0	0
8.278456	-0.1995707	0.312725	0	0	0	0	0	0
8.295021	-0.1995707	0.312725	0	0	0	0	0	0
8.311588	-0.1995707	0.312725	0	0	0	0	0	0
8.328156	-0.1995707	0.312725	0	0	0	0	0	0
8.344722	-0.1995707	0.312725	0	0	0	0	0	0
8.361288	-0.1995707	0.312725	0	0	0	0	0	0
8.378176	-0.1995707	0.312725	0	0	0	0	0	0
8.394422	-0.1995707	0.312725	0	0	0	0	0	0
8.410988	-0.1995707	0.312725	0	0	0	0	0	0
8.427554	-0.1995707	0.312725	0	0	0	0	0	0
8.444219	-0.1995707	0.312725	0	0	0	0	0	0
8.460731	-0.1995707	0.312725	0	0	0	0	0	0
8.477254	-0.1995707	0.312725	0	0	0	0	0	0
8.49382	-0.1995707	0.312725	0	0	0	0	0	0
8.510386	-0.1995707	0.312725	0	0	0	0	0	0
8.526953	-0.1995707	0.312725	0	0	0	0	0	0
8.543519	-0.1995707	0.312725	0	0	0	0	0	0
8.560085	-0.1995707	0.312725	0	0	0	0	0	0
8.576652	-0.1995707	0.312725	0	0	0	0	0	0
8.593324	-0.1995707	0.312725	0	0	0	0	0	0
8.609836	-0.1995707	0.312725	0	0	0	0	0	0
8.626352	-0.1995707	0.312725	0	0	0	0	0	0
8.64292	-0.1995707	0.312725	0	0	0	0	0	0
8.659486	-0.1995707	0.312725	0	0	0	0	0	0
8.676052	-0.1995707	0.312725	0	0	0	0	0	0
8.692894	-0.1995707	0.312725	0	0	0	0	0	0
8.709405	-0.1995707	0.312725	0	0	0	0	0	0
8.725753	-0.1995707	0.312725	0	0	0	0	0	0
8.742319	-0.1995707	0.312725	0	0	0	0	0	0
8.758945	-0.1995707	0.312725	0	0	0	0	0	0
8.777932	-0.1995707	0.312725	0	0	0	0	0	0
8.794499	-0.1995707	0.312725	0	0	0	0	0	0
8.811066	-0.1995707	0.312725	0	0	0	0	0	0
8.827633	-0.1995707	0.312725	0	0	0	0	0	0
8.844199	-0.1995707	0.312725	0	0	0	0	0	0
8.861012	-0.1995707	0.312725	0	0	0	0	0	0
8.910546	-0.1995707	0.312725	0	0	0	0	0	0
8.927058	-0.1995707	0.312725	0	0	0	0	0	0
8.943598	-0.1995707	0.312725	0	0	0	0	0	0
8.960165	-0.1995707	0.312725	0	0	0	0	0	0
8.976731	-0.1995707	0.312725	0	0	0	0	0	0
8.993298	-0.1995707	0.312725	0	0	0	0	0	0
9.009864	-0.1995707	0.312725	0	0	0	0	0	0
9.026628	-0.1995707	0.312725	0	0	0	0	0	0
9.042997	-0.199596	0.3127429	-0.001543839	0.001092339	-0.0465945	0.03296781	0	0
9.059564	-0.199596	0.3127429	0	0	0.04687378	-0.03316541	0	0
9.109262	-0.199596	0.3127429	0	0	0	0	0	0
9.125829	-0.199596	0.3127429	0	0	0	0	0	0
9.142396	-0.199596	0.3127429	0	0	0	0	0	0
9.158962	-0.199596	0.3127429	0	0	0	0	0	0
9.175529	-0.199596	0.3127429	0	0	0	0	0	0
9.192095	-0.199596	0.3127429	0	0	0	0	0	0
9.208661	-0.199596	0.3127429	0	0	0	0	0	0
9.225266	-0.199596	0.3127429	0	0	0	0	0	0
9.241795	-0.199596	0.3127429	0	0	0	0	0	0
9.258362	-0.199596	0.3127429	0	0	0	0	0	0
9.274928	-0.199596	0.3127429	0	0	0	0	0	0
9.291812	-0.199596	0.3127429	0	0	0	0	0	0
9.308061	-0.199596	0.3127429	0	0	0	0	0	0
9.324834	-0.199596	0.3127429	0	0	0	0	0	0
9.341348	-0.199596	0.3127429	0	0	0	0	0	0
9.357858	-0.199596	0.3127429	0	0	0	0	0	0
9.374331	-0.199596	0.3127429	0	0	0	0	0	0
9.390896	-0.199596	0.3127429	0	0	0	0	0	0
9.424029	-0.199596	0.3127429	0	0	0	0	0	0
9.440596	-0.199596	0.3127429	0	0	0	0	0	0
9.457161	-0.199596	0.3127429	0	0	0	0	0	0
9.47394	-0.199596	0.3127429	0	0	0	0	0	0
9.494225	-0.199596	0.3127429	0	0	0	0	0	0
9.510792	-0.199596	0.3127429	0	0	0	0	0	0
9.527358	-0.199596	0.3127429	0	0	0	0	0	0
9.543988	-0.199596	0.3127429	0	0	0	0	0	0
9.5605	-0.199596	0.3127429	0	0	0	0	0	0
9.577058	-0.199596	0.3127429	0	0	0	0	0	0
9.593624	-0.199596	0.3127429	0	0	0	0	0	0
9.610191	-0.199596	0.3127429	0	0	0	0	0	0
9.626758	-0.1996213	0.3127607	-0.001526431	0.001077586	-0.04606909	0.03252255	0	0
9.643324	-0.1996213	0.3127607	0	0	0.04607042	-0.03252349	0	0
9.660069	-0.1996213	0.3127607	0	0	0	0	0	0
9.676457	-0.1996213	0.3127965	0	0.002180444	0	0.06580783	0	0
9.693093	-0.1996213	0.3127965	0	0	0	-0.06602637	0	0
9.709604	-0.1996466	0.3128144	-0.001530642	0.001083001	-0.04617758	0.03267282	0	0
9.726158	-0.1996718	0.3128322	-0.001527574	0.001078393	9.278414E-05	-0.0001393646	0	0
9.742724	-0.1997224	0.3128679	-0.003051962	0.002156971	-0.04602598	0.03256562	0	0
9.759295	-0.1997477	0.3128858	-0.001525092	0.001077276	0.04607704	-0.03258246	0	0
9.775858	-0.1998741	0.3129394	-0.007632111	0.003235303	-0.1843155	0.06513125	0	0
9.792664	-0.1999499	0.312993	-0.004512293	0.003190259	0.09349701	-0.001349887	0	0
9.80899	-0.200051	0.3130644	-0.006192502	0.004375365	-0.05071172	0.03576862	0	0
9.825686	-0.2003291	0.3132609	-0.01665322	0.01176918	-0.316781	0.2239062	0	0
9.842124	-0.2007081	0.3135289	-0.02306086	0.01630033	-0.1933885	0.1367543	0	0
9.85869	-0.2077734	0.3184589	-0.4264849	0.2975919	-12.22321	8.522758	0	0
9.875257	-0.2126815	0.3219059	-0.2962705	0.2080785	3.930103	-2.701676	0	0
9.891823	-0.2230921	0.3292103	-0.6284226	0.4409145	-10.02494	7.027408	0	0
9.908389	-0.2284165	0.3329783	-0.3213995	0.2274516	9.266506	-6.442691	0	0
10.00781	-0.2811404	0.3704832	-0.5302969	0.3772238	-1.801	1.291255	0	0
10.02435	-0.2909497	0.3767904	-0.5929753	0.3812748	-0.5404902	0.0349327	0	0
10.04093	-0.2978423	0.3784702	-0.4159676	0.1013759	5.345642	-8.452963	0	0
10.05749	-0.3211425	0.379185	-1.406646	0.04315519	-29.89873	-1.757105	0	0
10.07436	-0.3316961	0.3792386	-0.6255282	0.003177817	23.3617	-1.195645	0	0
10.09062	-0.3473482	0.3798284	-0.9624952	0.03626591	-10.16998	0.9986292	0	0
10.10739	-0.3662706	0.3805254	-1.128516	0.04156772	-5.026423	0.1605174	0	0
10.1239	-0.3790082	0.3813833	-0.7716398	0.05197079	10.72516	0.3126425	0	0
10.14032	-0.3942678	0.3824199	-0.9289854	0.06310961	-4.777714	0.3382243	0	0
10.16018	-0.4083169	0.3826701	-0.7075309	0.01260146	6.103611	-1.392079	0	0
10.17693	-0.4146171	0.3826165	-0.376062	-0.003200248	9.054139	-0.4316268	0	0
10.19331	-0.4259135	0.3819552	-0.6895922	-0.04037012	-9.462359	-1.121789	0	0
10.20988	-0.4307912	0.3810973	-0.2944347	-0.0517871	11.99354	-0.34652	0	0
10.24301	-0.4428255	0.3753966	-0.3632176	-0.1720567	-1.383995	-2.419968	0	0
10.25958	-0.4460003	0.3727879	-0.191643	-0.1574715	3.452286	0.2934713	0	0
10.27615	-0.4468139	0.372109	-0.04911382	-0.04098246	4.301788	3.515849	0	0
10.29271	-0.4468139	0.372109	0	0	1.482344	1.236924	0	0
10.30928	-0.4468139	0.372109	0	0	0	0	0	0
10.32585	-0.4468353	0.3721268	-0.001291664	0.001079385	-0.03898363	0.03257685	0	0
10.34241	-0.4468353	0.3721268	0	0	0.03898475	-0.03257778	0	0
10.35906	-0.4468353	0.3721268	0	0	0	0	0	0
10.37555	-0.4468353	0.3721268	0	0	0	0	0	0
10.39211	-0.4468353	0.3721268	0	0	0	0	0	0
10.40868	-0.4468353	0.3721268	0	0	0	0	0	0
10.42525	-0.4468353	0.3721268	0	0	0	0	0	0
10.44181	-0.4468567	0.3721447	-0.001291664	0.001077586	-0.03898475	0.03252349	0	0
10.45838	-0.4468781	0.3721626	-0.001291664	0.001079385	0	5.429603E-05	0	0
10.47514	-0.4469423	0.3722162	-0.00382936	0.003196467	-0.07613858	0.06351888	0	0
10.49151	-0.4469637	0.372234	-0.001307166	0.001092339	0.07612218	-0.06350455	0	0
10.50816	-0.4469851	0.3722519	-0.001285007	0.001072032	0.0006710413	-0.0006149593	0	0
10.52468	-0.4469851	0.3722519	0	0	0.03874589	-0.03232422	0	0
10.54121	-0.4469851	0.3722519	0	0	0	0	0	0
10.55778	-0.4469851	0.3722519	0	0	0	0	0	0
10.57471	-0.4469637	0.372234	0.001263586	-0.001054162	0.03771824	-0.03146688	0	0
10.59091	-0.4469637	0.372234	0	0	-0.03813621	0.03181558	0	0
10.60748	-0.4469637	0.372234	0	0	0	0	0	0
10.62404	-0.4469637	0.372234	0	0	0	0	0	0
10.64076	-0.4469637	0.372234	0	0	0	0	0	0
10.65718	-0.4469637	0.372234	0	0	0	0	0	0
10.67378	-0.4469637	0.372234	0	0	0	0	0	0
10.69031	-0.4469637	0.372234	0	0	0	0	0	0
10.70688	-0.4469423	0.3722162	0.00129159	-0.001079323	0.03902519	-0.03261158	0	0
10.72344	-0.4469423	0.3722162	0	0	-0.03898138	0.03257497	0	0
10.77335	-0.4469209	0.372234	0.000428753	0.0003582894	0.006449939	0.00538992	0	0
10.85598	-0.4468995	0.3722162	0.0002589769	-0.0002164152	-0.001281009	-0.004336311	0	0
10.88084	-0.4468995	0.3722162	0	0	-0.002409364	0.002013396	0	0
10.89741	-0.4468995	0.3722162	0	0	0	0	0	0
10.91397	-0.4468781	0.3721983	0.001291664	-0.001077586	0.03898251	-0.03252162	0	0
10.93054	-0.4468781	0.3721983	0	0	-0.03898475	0.03252349	0	0
10.94711	-0.4468567	0.3721804	0.001291664	-0.001079385	0.03898475	-0.03257778	0	0
10.96367	-0.4468139	0.3721804	0.002583329	0	0.03898475	0.03257778	0	0
10.98024	-0.4467925	0.3721626	0.001291664	-0.001077586	-0.03898475	-0.03252349	0	0
10.99701	-0.4467497	0.3721268	0.002553813	-0.002130843	0.03786179	-0.03159549	0	0
11.01355	-0.4467283	0.372109	0.001293451	-0.001080879	-0.03783416	0.03151837	0	0
11.02994	-0.4466213	0.3720196	0.006530421	-0.005450201	0.159027	-0.1326798	0	0
11.04654	-0.4464286	0.3718588	0.01160299	-0.009684413	0.1537453	-0.1283354	0	0
11.06355	-0.4463215	0.3717695	0.006294851	-0.005250673	-0.1579048	0.1318935	0	0
11.07964	-0.4461931	0.3716623	0.007987593	-0.006664665	0.05114743	-0.0427248	0	0
11.09621	-0.4458504	0.3713765	0.02068523	-0.01725478	0.3888788	-0.3243337	0	0
11.11277	-0.4427181	0.3687324	0.1890886	-0.1596161	5.082716	-4.296721	0	0
11.12934	-0.440395	0.3667673	0.1402283	-0.1186172	-1.474733	1.237455	0	0
11.14591	-0.4355173	0.3626232	0.2944026	-0.2501277	4.652988	-3.968994	0	0
11.16247	-0.4281155	0.3551396	0.4468246	-0.4517577	4.600239	-6.085381	0	0
11.17914	-0.4256734	0.3458891	0.1465277	-0.5550433	-9.036449	-3.108042	0	0
11.19565	-0.4248655	0.3307996	0.04893078	-0.9138504	-2.941587	-10.8145	0	0
11.21217	-0.4240569	0.3193876	0.04893861	-0.6907398	0.00023705	6.754099	0	0
11.22874	-0.4220001	0.3062042	0.1241563	-0.7958001	2.27328	-3.175205	0	0
11.2453	-0.418776	0.299539	0.1946185	-0.4023354	2.126678	11.87547	0	0
11.26187	-0.4153884	0.2970011	0.2044859	-0.1531953	0.2978154	7.519496	0	0
11.27871	-0.4085607	0.2926575	0.405519	-0.2579793	6.018342	-3.136926	0	0
11.29522	-0.4037415	0.2894573	0.2918947	-0.1938323	-3.407318	1.923615	0	0
11.31173	-0.3976727	0.2846293	0.3675368	-0.2923971	2.290661	-2.984827	0	0
11.32824	-0.3929436	0.2809627	0.2863937	-0.2220419	-2.457036	2.130373	0	0
11.3447	-0.3883761	0.27751	0.2774662	-0.2097431	-0.2707414	0.3729845	0	0
11.36127	-0.3823199	0.2728935	0.3655505	-0.278656	2.666911	-2.086463	0	0
11.37784	-0.3767348	0.26892	0.3370205	-0.2397728	-0.8609124	1.173331	0	0
11.39441	-0.3729292	0.2665747	0.2297749	-0.1415994	-3.236681	2.962879	0	0
11.41097	-0.371262	0.2659839	0.1006347	-0.03566469	-3.898132	3.197667	0	0
11.54389	-0.3449498	0.2789771	0.1979555	0.09775151	0.6510337	0.8924964	0	0
11.56007	-0.3449498	0.2789771	0	0	-1.327692	-0.6556216	0	0
11.57664	-0.3449498	0.2789771	0	0	0	0	0	0
11.5932	-0.3449264	0.2789949	0.001408598	0.001079385	0.04251401	0.03257778	0	0
11.60977	-0.34474	0.2791381	0.01125374	0.008638182	0.2971356	0.2281315	0	0
11.62955	-0.3425938	0.2807838	0.1084772	0.08318169	2.67449	2.050594	0	0
11.64612	-0.3379168	0.284361	0.2823023	0.2159204	4.7817	3.651466	0	0
11.66269	-0.3296244	0.290673	0.5005289	0.3809956	6.58609	4.981981	0	0
11.67925	-0.3273138	0.2923893	0.1394746	0.1035994	-10.89695	-8.372076	0	0
11.69601	-0.3190323	0.2986454	0.4942409	0.3733619	10.6465	8.095547	0	0
11.71239	-0.3107768	0.304882	0.504078	0.3808049	0.2968926	0.2246361	0	0
11.72896	-0.3026931	0.3109207	0.487935	0.3645	-0.4900031	-0.4949179	0	0
11.74553	-0.2973372	0.3149043	0.3230389	0.24027	-4.974712	-3.747866	0	0
11.76209	-0.2934112	0.3178158	0.2371637	0.1758807	-2.591794	-1.943328	0	0
11.77866	-0.284077	0.3247099	0.5634463	0.4161498	9.851481	7.254466	0	0
11.79522	-0.2801443	0.327603	0.2373809	0.1746291	-9.840956	-7.289319	0	0
11.81179	-0.2764705	0.3302996	0.2217743	0.1627861	-0.4710374	-0.3574438	0	0
11.82835	-0.2689778	0.3357819	0.4522634	0.3309096	6.956575	5.074272	0	0
11.84492	-0.2599799	0.3423355	0.5431448	0.3955983	2.742887	1.952363	0	0
11.86149	-0.2566099	0.3447819	0.2034029	0.1476591	-10.25343	-7.48282	0	0
11.87805	-0.2515807	0.3484249	0.3035982	0.219914	3.023986	2.180721	0	0
11.89464	-0.2470333	0.3517107	0.2741616	0.1981083	-0.8879371	-0.6577558	0	0
11.91119	-0.244285	0.353693	0.1660778	0.1197899	-3.261977	-2.363656	0	0
11.92775	-0.2391995	0.3573542	0.3070002	0.221015	4.255743	3.056917	0	0
11.94468	-0.2385039	0.35789	0.04110864	0.03166389	-7.940294	-5.654574	0	0
11.96119	-0.2384542	0.3579257	0.003009319	0.002163823	-1.139509	-0.8823146	0	0
11.97745	-0.2381063	0.3581758	0.02138944	0.01537306	0.5607329	0.4029818	0	0
11.99421	-0.2342009	0.3609799	0.2330872	0.1673598	6.411195	4.602866	0	0
12.01072	-0.232233	0.362391	0.119181	0.0854565	-3.423998	-2.461996	0	0
12.02723	-0.2323077	0.3623374	-0.004528109	-0.003245581	-3.746272	-2.686157	0	0
12.04374	-0.2322828	0.3623195	0.001508894	-0.001082939	0.182818	0.06549111	0	0
12.06029	-0.2322828	0.3623195	0	0	-0.04564889	0.03276236	0	0
12.07685	-0.2323077	0.3623016	-0.001503943	-0.001077586	-0.0454244	-0.03254691	0	0
12.09342	-0.2323576	0.3622659	-0.003008613	-0.002156847	-0.04541232	-0.0325731	0	0
12.11029	-0.2323825	0.3622481	-0.001476907	-0.001058214	0.04580903	0.03285703	0	0
12.12655	-0.2324324	0.3622123	-0.003064893	-0.002197194	-0.04792829	-0.03437646	0	0
12.14331	-0.2324324	0.3621766	0	-0.002130278	0.0928112	0.002026367	0	0
12.15969	-0.2324822	0.3621052	-0.003043276	-0.004364698	-0.09184888	-0.06743689	0	0
12.17633	-0.2324822	0.3621052	0	0	0.09215657	0.1321719	0	0
12.19284	-0.2324822	0.3620695	0	-0.002162517	0	-0.06521609	0	0
12.20938	-0.2324822	0.3620695	0	0	0	0.06543251	0	0
12.22595	-0.2324822	0.3620695	0	0	0	0	0	0
12.26173	-0.2324822	0.3620695	0	0	0	0	0	0
12.2783	-0.2324822	0.3620695	0	0	0	0	0	0
12.29487	-0.2324822	0.3620695	0	0	0	0	0	0
12.31143	-0.2324822	0.3620695	0	0	0	0	0	0
12.328	-0.2324822	0.3620695	0	0	0	0	0	0
12.34457	-0.2324822	0.3620695	0	0	0	0	0	0
12.36113	-0.2324822	0.3620695	0	0	0	0	0	0
12.37771	-0.2324822	0.3620695	0	0	0	0	0	0
12.45072	-0.2324822	0.3620695	0	0	0	0	0	0
12.46729	-0.2325071	0.3620873	-0.001504756	0.001077524	-0.01679727	0.01202817	0	0
12.48386	-0.2325071	0.3620873	0	0	0.04541494	-0.03252068	0	0
12.50042	-0.2325071	0.3620873	0	0	0	0	0	0
12.51699	-0.2325071	0.3620873	0	0	0	0	0	0
12.53355	-0.2325071	0.3620873	0	0	0	0	0	0
12.55012	-0.2325071	0.3620873	0	0	0	0	0	0
12.56669	-0.2325071	0.3620873	0	0	0	0	0	0
12.58325	-0.2325071	0.3620873	0	0	0	0	0	0
12.59982	-0.2325071	0.3620873	0	0	0	0	0	0
12.61639	-0.2325071	0.3620873	0	0	0	0	0	0
12.69922	-0.2325071	0.3620873	0	0	0	0	0	0
12.71579	-0.2325071	0.3620873	0	0	0	0	0	0
12.73235	-0.2325071	0.3620873	0	0	0	0	0	0
12.74892	-0.2325071	0.3620873	0	0	0	0	0	0
12.76549	-0.2325071	0.3620873	0	0	0	0	0	0
12.78205	-0.2325071	0.3620873	0	0	0	0	0	0
12.79862	-0.2325071	0.3620873	0	0	0	0	0	0
12.81519	-0.2325071	0.3620873	0	0	0	0	0	0
12.83179	-0.2325071	0.3620873	0	0	0	0	0	0
12.84832	-0.2325071	0.3620873	0	0	0	0	0	0
12.86489	-0.2325071	0.3620873	0	0	0	0	0	0
12.88145	-0.2325071	0.3620873	0	0	0	0	0	0
12.89802	-0.2325071	0.3620873	0	0	0	0	0	0
12.91459	-0.2325071	0.3620873	0	0	0	0	0	0
12.93115	-0.2325071	0.3620873	0	0	0	0	0	0
12.94772	-0.2325071	0.3620873	0	0	0	0	0	0
12.96428	-0.2324822	0.3620695	0.001504843	-0.001077586	0.04541886	-0.03252349	0	0
12.98085	-0.2324822	0.3620695	0	0	-0.04541886	0.03252349	0	0
12.99742	-0.2324573	0.3620516	0.001503857	-0.001079323	0.04538779	-0.03257497	0	0
13.01442	-0.2324573	0.3620516	0	0	-0.04479725	0.03215114	0	0
13.03055	-0.2324573	0.3620516	0	0	0	0	0	0
13.04744	-0.2323077	0.3619801	0.008850697	-0.004228647	0.2680171	-0.128052	0	0
13.076	-0.232233	0.3619266	0.002617908	-0.001876419	-0.1371344	0.05175394	0	0
13.09257	-0.2318342	0.3616408	0.0240716	-0.01724938	0.4754381	-0.3406822	0	0
13.10949	-0.2297144	0.3601583	0.1252906	-0.08762189	3.022694	-2.101527	0	0
13.1257	-0.2265932	0.3579257	0.1924948	-0.1376897	2.028284	-1.511092	0	0
13.14227	-0.2212142	0.3541217	0.3246739	-0.2296152	4.032111	-2.80418	0	0
13.15883	-0.2133603	0.3485677	0.4740947	-0.3352552	4.509661	-3.188315	0	0
13.1754	-0.2112982	0.3471034	0.1244738	-0.08839265	-10.55219	7.450757	0	0
13.19197	-0.2092595	0.3456569	0.1230634	-0.08731326	-0.04256848	0.03257787	0	0
13.20856	-0.2068662	0.3439605	0.1442286	-0.1022342	0.6382716	-0.4499648	0	0
13.2251	-0.2047984	0.3424962	0.1250189	-0.08853175	-0.5797665	0.4135523	0	0
13.24167	-0.2045966	0.3423533	0.01218266	-0.008624287	-3.408348	2.413696	0	0
13.25823	-0.2045966	0.3423533	0	0	-0.3676946	0.2602965	0	0
13.2748	-0.2045966	0.3423533	0	0	0	0	0	0
13.29137	-0.2045714	0.3423355	0.001523732	-0.001077586	0.04598897	-0.03252349	0	0
13.30793	-0.2045714	0.3423355	0	0	-0.04598765	0.03252255	0	0
13.32464	-0.2045714	0.3423355	0	0	0	0	0	0
13.34115	-0.2045966	0.3423533	-0.001528748	0.001081134	-0.04602512	0.03254905	0	0
13.35763	-0.2045966	0.3423533	0	0	0.04632974	-0.03276448	0	0
13.3742	-0.2045966	0.3423533	0	0	0	0	0	0
13.39077	-0.2046218	0.3423712	-0.001523008	0.00107771	-0.04596579	0.0325263	0	0
13.40733	-0.204647	0.342389	-0.001522833	0.001079385	5.295336E-06	5.055341E-05	0	0
13.50673	-0.2047227	0.3424069	-0.000761409	0.000179596	0.006565983	-0.007759152	0	0
13.5233	-0.2047227	0.3424069	0	0	0.006565858	-0.00154871	0	0
13.53986	-0.2047227	0.3424069	0	0	0	0	0	0
13.55643	-0.2047227	0.3424069	0	0	0	0	0	0
13.573	-0.2047227	0.3424069	0	0	0	0	0	0
13.58956	-0.2047227	0.3424069	0	0	0	0	0	0
13.60613	-0.2047227	0.3424069	0	0	0	0	0	0
13.6227	-0.2047227	0.3424069	0	0	0	0	0	0
13.63926	-0.2046975	0.342389	0.001522833	-0.001077586	0.04596182	-0.03252349	0	0
13.65583	-0.2046975	0.342389	0	0	-0.04596182	0.03252349	0	0
13.6724	-0.2046975	0.342389	0	0	0	0	0	0
13.68896	-0.2046975	0.342389	0	0	0	0	0	0
13.70553	-0.2047227	0.3423712	-0.001522745	-0.001079323	-0.04595786	-0.03257497	0	0
13.72241	-0.2047227	0.3423712	0	0	0.04552155	0.03226572	0	0
13.73866	-0.204748	0.342389	-0.001552596	0.001100481	-0.04686013	0.0332145	0	0
13.75523	-0.204748	0.342389	0	0	0.04731363	-0.03353594	0	0
13.77471	-0.204748	0.342389	0	0	0	0	0	0
13.79128	-0.2047227	0.3423712	0.001522657	-0.001079261	0.04223532	-0.02993644	0	0
13.80785	-0.2047227	0.3423712	0	0	-0.04595388	0.03257216	0	0
13.82441	-0.2047227	0.3423712	0	0	0	0	0	0
13.84098	-0.2047227	0.3423712	0	0	0	0	0	0
13.85755	-0.2047227	0.3423712	0	0	0	0	0	0
13.87411	-0.2047227	0.3423712	0	0	0	0	0	0
13.89068	-0.2047227	0.3423712	0	0	0	0	0	0
13.90725	-0.2047227	0.3423712	0	0	0	0	0	0
13.92381	-0.2047227	0.3423712	0	0	0	0	0	0
13.94038	-0.204748	0.342389	-0.001522833	0.001079385	-0.04596182	0.03257778	0	0
13.95708	-0.204748	0.342389	0	0	0.04577735	-0.03244703	0	0
13.97359	-0.204748	0.342389	0	0	0	0	0	0
13.99008	-0.204748	0.342389	0	0	0	0	0	0
14.00664	-0.204748	0.342389	0	0	0	0	0	0
14.02362	-0.204748	0.342389	0	0	0	0	0	0
14.03978	-0.204748	0.342389	0	0	0	0	0	0
14.05634	-0.204748	0.342389	0	0	0	0	0	0
14.07291	-0.204748	0.342389	0	0	0	0	0	0
14.08948	-0.204748	0.342389	0	0	0	0	0	0
14.10618	-0.204748	0.342389	0	0	0	0	0	0
14.12269	-0.204748	0.342389	0	0	0	0	0	0
14.13918	-0.204748	0.342389	0	0	0	0	0	0
14.15574	-0.204748	0.342389	0	0	0	0	0	0
14.17231	-0.204748	0.342389	0	0	0	0	0	0
14.18888	-0.204748	0.342389	0	0	0	0	0	0
14.20544	-0.204748	0.342389	0	0	0	0	0	0
14.22201	-0.204748	0.342389	0	0	0	0	0	0
14.23877	-0.204748	0.342389	0	0	0	0	0	0
14.25529	-0.204748	0.342389	0	0	0	0	0	0
14.27172	-0.204748	0.342389	0	0	0	0	0	0
14.28831	-0.204748	0.342389	0	0	0	0	0	0
14.30484	-0.204748	0.342389	0	0	0	0	0	0
14.32141	-0.204748	0.342389	0	0	0	0	0	0
14.33797	-0.204748	0.342389	0	0	0	0	0	0
14.35454	-0.204748	0.342389	0	0	0	0	0	0
14.37111	-0.2047227	0.3423712	0.001522657	-0.001079261	0.04595388	-0.03257216	0	0
14.38767	-0.2047227	0.3423712	0	0	-0.04595521	0.0325731	0	0
14.45394	-0.2047227	0.3423712	0	0	0	0	0	0
14.47246	-0.2047227	0.3423712	0	0	0	0	0	0
14.48902	-0.204748	0.342389	-0.001522745	0.001079323	-0.04340547	0.03076584	0	0
14.50559	-0.204748	0.342389	0	0	0.04595786	-0.03257497	0	0
14.52216	-0.204748	0.342389	0	0	0	0	0	0
14.53899	-0.204748	0.342389	0	0	0	0	0	0
14.5555	-0.204748	0.342389	0	0	0	0	0	0
14.57201	-0.204748	0.342389	0	0	0	0	0	0
14.58842	-0.204748	0.342389	0	0	0	0	0	0
14.60503	-0.204748	0.342389	0	0	0	0	0	0
14.62156	-0.204748	0.342389	0	0	0	0	0	0
14.63812	-0.204748	0.342389	0	0	0	0	0	0
14.65507	-0.204748	0.342389	0	0	0	0	0	0
14.67126	-0.204748	0.342389	0	0	0	0	0	0
14.68782	-0.204748	0.342389	0	0	0	0	0	0
14.70439	-0.204748	0.342389	0	0	0	0	0	0
14.72095	-0.204748	0.342389	0	0	0	0	0	0
14.73752	-0.204748	0.342389	0	0	0	0	0	0
14.75413	-0.204748	0.342389	0	0	0	0	0	0
14.77065	-0.204748	0.342389	0	0	0	0	0	0
14.78722	-0.204748	0.342389	0	0	0	0	0	0
14.80379	-0.204748	0.342389	0	0	0	0	0	0
14.82035	-0.204748	0.342389	0	0	0	0	0	0
14.83692	-0.204748	0.342389	0	0	0	0	0	0
14.85349	-0.204748	0.342389	0	0	0	0	0	0
14.87021	-0.2047732	0.3423712	-0.001507988	-0.001068863	-0.04529087	-0.03210221	0	0
14.88662	-0.2047732	0.3423712	0	0	0.04551248	0.03225929	0	0
14.90324	-0.2047732	0.3423712	0	0	0	0	0	0
14.91975	-0.2047732	0.3423712	0	0	0	0	0	0
14.93632	-0.2047732	0.3423712	0	0	0	0	0	0
14.95288	-0.2047732	0.3423712	0	0	0	0	0	0
14.96945	-0.2047732	0.3423712	0	0	0	0	0	0
14.98602	-0.2047732	0.3423712	0	0	0	0	0	0
15.00281	-0.2047732	0.3423712	0	0	0	0	0	0
15.01915	-0.2047732	0.3423712	0	0	0	0	0	0
15.03572	-0.2047732	0.3423712	0	0	0	0	0	0
15.05228	-0.2047732	0.3423712	0	0	0	0	0	0
15.06885	-0.2047732	0.3423712	0	0	0	0	0	0
15.08542	-0.2047732	0.3423712	0	0	0	0	0	0
15.10198	-0.2047732	0.3423712	0	0	0	0	0	0
15.13766	-0.2047732	0.3423712	0	0	0	0	0	0
15.15422	-0.2047732	0.3423712	0	0	0	0	0	0
15.17093	-0.2047732	0.3423712	0	0	0	0	0	0
15.18744	-0.2047732	0.3423712	0	0	0	0	0	0
15.20392	-0.2047732	0.3423712	0	0	0	0	0	0
15.22049	-0.2047732	0.3423712	0	0	0	0	0	0
15.23706	-0.2047732	0.3423712	0	0	0	0	0	0
15.25362	-0.2047732	0.3423712	0	0	0	0	0	0
15.27019	-0.2047732	0.3423712	0	0	0	0	0	0
15.28676	-0.2047732	0.3423712	0	0	0	0	0	0
15.30352	-0.2047732	0.3423712	0	0	0	0	0	0
15.31989	-0.2047732	0.3423712	0	0	0	0	0	0
15.35306	-0.2047732	0.3423712	0	0	0	0	0	0
15.36959	-0.2047732	0.3423712	0	0	0	0	0	0
15.38616	-0.2047732	0.3423712	0	0	0	0	0	0
15.40309	-0.2047732	0.3423712	0	0	0	0	0	0
15.41929	-0.2047732	0.3423712	0	0	0	0	0	0
15.43611	-0.2047732	0.3423712	0	0	0	0	0	0
15.45243	-0.2047732	0.3423712	0	0	0	0	0	0
15.46914	-0.2047732	0.3423712	0	0	0	0	0	0
15.48565	-0.2047732	0.3423712	0	0	0	0	0	0
15.50212	-0.2047732	0.3423712	0	0	0	0	0	0
15.51869	-0.2047732	0.3423712	0	0	0	0	0	0
15.53526	-0.2047984	0.342389	-0.001522833	0.001079385	-0.04596182	0.03257778	0	0
15.55182	-0.2048489	0.342389	-0.003045665	0	-0.04596182	-0.03257778	0	0
15.56839	-0.2048993	0.342389	-0.00304549	0	5.291365E-06	0	0	0
15.58522	-0.2050254	0.3423355	-0.007494616	-0.003184149	-0.1332243	-0.09534589	0	0
15.60152	-0.2055803	0.3420497	-0.03403192	-0.01752318	-0.8009204	-0.4327652	0	0
15.61824	-0.206362	0.3416747	-0.04675379	-0.02242991	-0.3852329	-0.1485815	0	0
15.63476	-0.2082017	0.3407283	-0.1114154	-0.05731814	-1.945836	-1.049877	0	0
15.65123	-0.2091588	0.3401926	-0.05811107	-0.0325257	1.616172	0.7516991	0	0
15.66779	-0.2110969	0.3398176	-0.1169937	-0.02263651	-1.782364	0.2993437	0	0
15.68436	-0.2134357	0.3414783	-0.1411746	0.1002461	-0.7298238	3.708818	0	0
15.70092	-0.2194351	0.3455319	-0.3621246	0.2446753	-6.668476	4.359008	0	0
15.71749	-0.2272927	0.3495678	-0.4743169	0.243619	-3.38607	-0.03188007	0	0
15.73406	-0.2412352	0.350675	-0.84162	0.06683373	-11.08587	-5.335698	0	0
15.75062	-0.265624	0.3499428	-1.472194	-0.04419722	-19.03186	-3.351114	0	0
15.78536	-0.3147793	0.3496035	-1.415083	-0.00976777	1.113208	0.6711014	0	0
15.80164	-0.3359244	0.3499071	-1.29921	0.01865368	2.271497	0.5571519	0	0
15.8182	-0.3628711	0.3501571	-1.626596	0.0150916	-9.968613	-0.1084622	0	0
15.83477	-0.3760065	0.3502642	-0.792902	0.006467316	25.16238	-0.2602965	0	0
15.85134	-0.3942229	0.3500499	-1.099548	-0.01293569	-9.254853	-0.5856007	0	0
15.8679	-0.4160932	0.3494785	-1.320165	-0.03449355	-6.658445	-0.6506364	0	0
15.88447	-0.4301174	0.3485677	-0.8465546	-0.05497669	14.29443	-0.6182179	0	0
15.90104	-0.4454861	0.3464962	-0.9276566	-0.125036	-2.447734	-2.114454	0	0
15.9176	-0.4544691	0.3448355	-0.5422435	-0.1002479	11.63212	0.7481271	0	0
15.93417	-0.4600623	0.3422998	-0.3376051	-0.153057	6.176179	-1.593828	0	0
15.95074	-0.4644473	0.338264	-0.2646958	-0.24361	2.200469	-2.732975	0	0
15.9673	-0.4646786	0.3380319	-0.01396545	-0.01401402	7.567493	6.92962	0	0
15.984	-0.4645735	0.3380855	0.006296042	0.003208697	0.6090738	0.5177262	0	0
16.00043	-0.4645735	0.3380497	0	-0.00217437	-0.1900204	-0.162466	0	0
16.01702	-0.4645525	0.3380319	0.001268397	-0.001076161	0.03841076	0.03325697	0	0
16.03357	-0.4645525	0.3380319	0	0	-0.0382803	0.03247861	0	0
16.05014	-0.4645104	0.3379962	0.002540007	-0.002155048	0.07670613	-0.06508069	0	0
16.0667	-0.4644683	0.3379605	0.002538208	-0.002156847	-5.428939E-05	-5.428939E-05	0	0
16.08327	-0.4644473	0.3379426	0.001270004	-0.001077524	-0.03827449	0.03257403	0	0
16.16613	-0.4643631	0.3378712	0.001015699	-0.0008621211	-0.002557673	0.002166419	0	0
16.18267	-0.4643631	0.3378712	0	0	-0.01021815	0.008673121	0	0
16.19924	-0.4643421	0.3378533	0.001268205	-0.001077524	0.03830536	-0.03254597	0	0
16.21617	-0.4643421	0.3378533	0	0	-0.0378604	0.03216792	0	0
16.23268	-0.4643421	0.3378533	0	0	0	0	0	0
16.24919	-0.4643631	0.3378712	-0.001272453	0.001081134	-0.03853135	0.03273798	0	0
16.2657	-0.4643421	0.3378533	0.0012726	-0.001081259	0.0770716	-0.06548353	0	0
16.28222	-0.4643631	0.3378712	-0.001272306	0.001081009	-0.0770627	0.06547596	0	0
16.29873	-0.4643421	0.3378533	0.0012726	-0.001081259	0.0770627	-0.06547596	0	0
16.31521	-0.4643211	0.3378712	0.001276765	0.001083261	0.0001262555	0.06561238	0	0
16.33177	-0.4643211	0.3378712	0	0	-0.03863515	-0.03277968	0	0
16.34834	-0.4643211	0.3378712	0	0	0	0	0	0
16.36491	-0.4643	0.3378533	0.001270004	-0.001077524	0.03832878	-0.03251974	0	0
16.38148	-0.464258	0.3378176	0.002540007	-0.002155048	0.03832878	-0.03251974	0	0
16.39804	-0.4641738	0.3377462	0.005080599	-0.004312392	0.07667963	-0.06511251	0	0
16.41481	-0.4641107	0.3376926	0.003764075	-0.003193599	-0.03949405	0.03356237	0	0
16.43132	-0.4640265	0.3376212	0.005099425	-0.00432684	0.0401254	-0.03405229	0	0
16.45062	-0.4639634	0.3375676	0.00326981	-0.002775788	-0.05108618	0.04330819	0	0
16.46735	-0.4639423	0.3375497	0.001259908	-0.001067447	-0.05578737	0.04741716	0	0
16.48376	-0.4639212	0.3375319	0.001282107	-0.001087793	0.0006699673	-0.0006140582	0	0
16.50037	-0.4639002	0.337514	0.001266649	-0.001074678	-0.0004681054	0.0003971604	0	0
16.51689	-0.4639002	0.337514	0	0	-0.03822976	0.03243573	0	0
16.53346	-0.4639002	0.337514	0	0	0	0	0	0
16.55003	-0.4639002	0.337514	0	0	0	0	0	0
16.56659	-0.4639002	0.337514	0	0	0	0	0	0
16.58316	-0.4639002	0.337514	0	0	0	0	0	0
16.59994	-0.4639002	0.337514	0	0	0	0	0	0
16.61629	-0.4639002	0.337514	0	0	0	0	0	0
16.63286	-0.4639002	0.337514	0	0	0	0	0	0
16.64943	-0.4639002	0.337514	0	0	0	0	0	0
16.666	-0.4639002	0.337514	0	0	0	0	0	0
16.68256	-0.4639002	0.337514	0	0	0	0	0	0
16.69952	-0.4639002	0.337514	0	0	0	0	0	0
16.71603	-0.4639002	0.337514	0	0	0	0	0	0
16.73226	-0.4639002	0.337514	0	0	0	0	0	0
16.74883	-0.4639002	0.337514	0	0	0	0	0	0
16.7654	-0.4638792	0.3374962	0.001270004	-0.001079323	0.03832878	-0.03257403	0	0
16.78197	-0.4638792	0.3374962	0	0	-0.03832878	0.03257403	0	0
16.79853	-0.4638792	0.3374962	0	0	0	0	0	0
16.8151	-0.4638792	0.3374962	0	0	0	0	0	0
16.83167	-0.4638792	0.3374962	0	0	0	0	0	0
16.84823	-0.4638792	0.3374962	0	0	0	0	0	0
16.8648	-0.4638792	0.3374962	0	0	0	0	0	0
16.88137	-0.4638792	0.3374962	0	0	0	0	0	0
16.9477	-0.4635845	0.3373533	0.004442785	-0.002153329	0.05359022	-0.0259741	0	0
16.96421	-0.4628894	0.3371212	0.04210661	-0.01406503	0.4546472	-0.1437884	0	0
16.98077	-0.4618565	0.3364605	0.06236684	-0.03989297	0.6126891	-0.7810624	0	0
16.99734	-0.4592379	0.3347819	0.1580597	-0.1013215	2.888514	-1.854236	0	0
17.01391	-0.4563581	0.332639	0.1738268	-0.1293443	0.475852	-0.8457303	0	0
17.04727	-0.4466855	0.3251385	0.2899165	-0.2248117	2.325022	-1.912004	0	0
17.06361	-0.4395117	0.3197448	0.4391273	-0.3301627	3.002243	-2.119748	0	0
17.08017	-0.4318118	0.314815	0.4647673	-0.297564	0.7792456	0.9907333	0	0
17.09681	-0.4246033	0.3122606	0.4334128	-0.1535855	-0.9444337	4.336791	0	0
17.11332	-0.4220001	0.3113852	0.1576542	-0.05301346	-8.320015	3.034397	0	0
17.12987	-0.4014693	0.3121534	1.240096	0.04639797	32.7341	3.0063	0	0
17.14644	-0.3937966	0.3128501	0.4631267	0.04205222	-23.45707	-0.1312001	0	0
17.16571	-0.3739102	0.3138683	1.032198	0.05285059	15.88105	0.3013494	0	0
17.18227	-0.3595779	0.3143863	0.8650954	0.03126799	-4.66333	-0.6023046	0	0
17.19888	-0.3385959	0.3150115	1.263712	0.03765437	12.01712	0.1925307	0	0
17.21541	-0.3217821	0.3155474	1.017224	0.03242016	-7.439428	-0.1579777	0	0
17.23197	-0.3047059	0.3160654	1.030725	0.03126619	0.4079141	-0.03486709	0	0
17.24854	-0.2879524	0.3165655	1.011243	0.03018866	-0.5879613	-0.03251978	0	0
17.26511	-0.2656975	0.3176729	1.343462	0.06685197	10.02697	1.106565	0	0
17.28167	-0.2508153	0.3185839	0.8982936	0.05498431	-13.43599	-0.3581873	0	0
17.29824	-0.2419795	0.3192447	0.5333268	0.03988998	-11.01472	-0.4555479	0	0
17.31481	-0.2340017	0.3198698	0.4815981	0.03773568	-1.561265	-0.0650207	0	0
17.33147	-0.2138629	0.3212451	1.208483	0.08252618	21.87447	1.347901	0	0
17.34794	-0.2063368	0.3215845	0.4570141	0.02060712	-22.68068	-1.868829	0	0
17.36451	-0.2039153	0.3219059	0.1461619	0.01940443	-9.409701	-0.03640622	0	0
17.38107	-0.2039153	0.3218702	0	-0.002156847	-4.411176	-0.6507206	0	0
17.39764	-0.2039153	0.3218702	0	0	0	0.06509753	0	0
17.41421	-0.2038648	0.3218345	0.003046389	-0.002155048	0.0919455	-0.06504323	0	0
17.43077	-0.2037134	0.3217273	0.009140966	-0.006468743	0.1839347	-0.1301876	0	0
17.44734	-0.2025521	0.3209415	0.07009304	-0.04743445	1.839537	-1.236347	0	0
17.46391	-0.2003796	0.3194055	0.131135	-0.09271385	1.842252	-1.366535	0	0
17.48047	-0.1988627	0.3183338	0.09155717	-0.06468563	-1.194463	0.8458934	0	0
17.49704	-0.1984834	0.3180659	0.02289874	-0.01617186	-2.072116	1.464149	0	0
17.51361	-0.1984834	0.3180659	0	0	-0.6910853	0.4880676	0	0
17.53017	-0.1984834	0.3180659	0	0	0	0	0	0
17.54674	-0.1984834	0.3180659	0	0	0	0	0	0
17.56331	-0.1985087	0.318048	-0.001526343	-0.001077524	-0.04606511	-0.03251974	0	0
17.57988	-0.1985087	0.318048	0	0	0.04605716	0.03251413	0	0
17.59644	-0.1985087	0.318048	0	0	0	0	0	0
17.61301	-0.1985087	0.318048	0	0	0	0	0	0
17.62958	-0.1985087	0.318048	0	0	0	0	0	0
17.6462	-0.1985087	0.318048	0	0	0	0	0	0
17.67928	-0.1985087	0.318048	0	0	0	0	0	0
17.69584	-0.1985087	0.318048	0	0	0	0	0	0
17.71241	-0.1985087	0.318048	0	0	0	0	0	0
17.72898	-0.1985087	0.318048	0	0	0	0	0	0
17.74577	-0.1985087	0.318048	0	0	0	0	0	0
17.76211	-0.198534	0.3180302	-0.001548276	-0.001092364	-0.04672974	-0.03296951	0	0
17.77879	-0.198534	0.3180302	0	0	0.04688358	0.03307805	0	0
17.79524	-0.198534	0.3180302	0	0	0	0	0	0
17.83016	-0.198534	0.3180302	0	0	0	0	0	0
17.84673	-0.198534	0.3180302	0	0	0	0	0	0
17.86329	-0.198534	0.3180302	0	0	0	0	0	0
17.87986	-0.198534	0.3180302	0	0	0	0	0	0
17.913	-0.198534	0.3180302	0	0	0	0	0	0
17.92956	-0.198534	0.3180302	0	0	0	0	0	0
17.94613	-0.198534	0.3180302	0	0	0	0	0	0
17.9627	-0.198534	0.3180302	0	0	0	0	0	0
17.97927	-0.198534	0.3180302	0	0	0	0	0	0
17.99583	-0.198534	0.3180302	0	0	0	0	0	0
18.0124	-0.198534	0.3180302	0	0	0	0	0	0
18.02897	-0.198534	0.3180302	0	0	0	0	0	0
18.0621	-0.1985593	0.3180123	-0.0007632153	-0.0005396926	-0.01535592	-0.01085864	0	0
18.07867	-0.1985593	0.3180123	0	0	0.01535651	0.01085905	0	0
18.09523	-0.1985593	0.3180123	0	0	0	0	0	0
18.1118	-0.1985593	0.3180123	0	0	0	0	0	0
18.12837	-0.1985593	0.3180123	0	0	0	0	0	0
18.14494	-0.1985593	0.3180123	0	0	0	0	0	0
18.16157	-0.1985593	0.3180123	0	0	0	0	0	0
18.17807	-0.1985593	0.3180123	0	0	0	0	0	0
18.19464	-0.1985593	0.3180123	0	0	0	0	0	0
18.2112	-0.1985593	0.3180123	0	0	0	0	0	0
18.22777	-0.1985593	0.3180123	0	0	0	0	0	0
18.24438	-0.1985593	0.3180123	0	0	0	0	0	0
18.27747	-0.1985593	0.3180123	0	0	0	0	0	0
18.31068	-0.1985593	0.3180123	0	0	0	0	0	0
18.32719	-0.1985593	0.3180123	0	0	0	0	0	0
18.34374	-0.1985593	0.3180123	0	0	0	0	0	0
18.36031	-0.1985593	0.3180123	0	0	0	0	0	0
18.37687	-0.1985593	0.3180123	0	0	0	0	0	0
18.39344	-0.1985593	0.3180123	0	0	0	0	0	0
18.41025	-0.1985593	0.3180123	0	0	0	0	0	0
18.42657	-0.1985593	0.3180123	0	0	0	0	0	0
18.44314	-0.1985593	0.3180123	0	0	0	0	0	0
18.45978	-0.1985593	0.3180123	0	0	0	0	0	0
18.47629	-0.1985593	0.3180123	0	0	0	0	0	0
18.49284	-0.1985593	0.3180123	0	0	0	0	0	0
18.50941	-0.1985593	0.3180123	0	0	0	0	0	0
18.52597	-0.1985593	0.3180123	0	0	0	0	0	0
18.54284	-0.1985593	0.3180123	0	0	0	0	0	0
18.56255	-0.1985593	0.3180123	0	0	0	0	0	0
18.57912	-0.1985593	0.3180123	0	0	0	0	0	0
18.59569	-0.1985593	0.3180123	0	0	0	0	0	0
18.61226	-0.1985593	0.3180123	0	0	0	0	0	0
18.6289	-0.1985593	0.3180123	0	0	0	0	0	0
18.64691	-0.1985593	0.3180123	0	0	0	0	0	0
18.66348	-0.1985593	0.3180123	0	0	0	0	0	0
18.68005	-0.1985593	0.3180123	0	0	0	0	0	0
18.74632	-0.1985593	0.3180123	0	0	0	0	0	0
18.763	-0.1985593	0.3180123	0	0	0	0	0	0
18.77951	-0.1985593	0.3180123	0	0	0	0	0	0
18.79601	-0.1985593	0.3180123	0	0	0	0	0	0
18.81258	-0.1985593	0.3180123	0	0	0	0	0	0
18.82915	-0.1985593	0.3180123	0	0	0	0	0	0
18.84571	-0.1985593	0.3180123	0	0	0	0	0	0
18.86228	-0.1985593	0.3180123	0	0	0	0	0	0
18.87885	-0.1985593	0.3180123	0	0	0	0	0	0
18.89542	-0.1985593	0.3180123	0	0	0	0	0	0
18.91198	-0.1985593	0.3180123	0	0	0	0	0	0
18.92855	-0.1985593	0.3180123	0	0	0	0	0	0
18.94512	-0.1985593	0.3180123	0	0	0	0	0	0
18.96169	-0.1985593	0.3180123	0	0	0	0	0	0
18.97865	-0.1985593	0.3180123	0	0	0	0	0	0
18.99516	-0.1985593	0.3180123	0	0	0	0	0	0
19.01168	-0.1985593	0.3180123	0	0	0	0	0	0
19.02795	-0.1985593	0.3180123	0	0	0	0	0	0
19.04452	-0.1985593	0.3180123	0	0	0	0	0	0
19.06121	-0.1985593	0.3180123	0	0	0	0	0	0
19.07773	-0.1985593	0.3180123	0	0	0	0	0	0
19.09424	-0.1985593	0.3180123	0	0	0	0	0	0
19.11079	-0.1985593	0.3180123	0	0	0	0	0	0
19.12776	-0.1985593	0.3180123	0	0	0	0	0	0
19.14392	-0.1985593	0.3180123	0	0	0	0	0	0
19.16049	-0.1985593	0.3180123	0	0	0	0	0	0
19.18049	-0.1985593	0.3180123	0	0	0	0	0	0
19.19705	-0.1985593	0.3180123	0	0	0	0	0	0
19.21362	-0.1985593	0.3180123	0	0	0	0	0	0
19.23019	-0.1985593	0.3180123	0	0	0	0	0	0
19.24676	-0.1985593	0.3180123	0	0	0	0	0	0
19.26332	-0.1985593	0.3180123	0	0	0	0	0	0
19.27989	-0.1985593	0.3180123	0	0	0	0	0	0
19.29646	-0.1985593	0.3180123	0	0	0	0	0	0
19.32959	-0.1985593	0.3180123	0	0	0	0	0	0
19.34642	-0.1985593	0.3180123	0	0	0	0	0	0
19.36272	-0.1985593	0.3180123	0	0	0	0	0	0
19.37945	-0.1985593	0.3180123	0	0	0	0	0	0
19.39586	-0.1985593	0.3180123	0	0	0	0	0	0
19.41242	-0.1985593	0.3180123	0	0	0	0	0	0
19.42899	-0.1985593	0.3180123	0	0	0	0	0	0
19.44556	-0.1985593	0.3180123	0	0	0	0	0	0
19.46213	-0.1985593	0.3180123	0	0	0	0	0	0
19.47869	-0.1985593	0.3180123	0	0	0	0	0	0
19.49526	-0.1985593	0.3180123	0	0	0	0	0	0
19.51183	-0.1985593	0.3180123	0	0	0	0	0	0
19.52839	-0.1985593	0.3180123	0	0	0	0	0	0
19.54496	-0.1985593	0.3180123	0	0	0	0	0	0
19.56157	-0.1985593	0.3180123	0	0	0	0	0	0
19.57809	-0.1985593	0.3180123	0	0	0	0	0	0
19.59466	-0.1985593	0.3180123	0	0	0	0	0	0
19.61123	-0.1985593	0.3180123	0	0	0	0	0	0
19.66114	-0.1985593	0.3180123	0	0	0	0	0	0
19.6775	-0.1985593	0.3180123	0	0	0	0	0	0
19.69406	-0.1985593	0.3180123	0	0	0	0	0	0
19.71065	-0.1985593	0.3180123	0	0	0	0	0	0
19.7272	-0.1985593	0.3180123	0	0	0	0	0	0
19.74376	-0.1985593	0.3180123	0	0	0	0	0	0
19.76033	-0.1985593	0.3180123	0	0	0	0	0	0
19.7769	-0.1985593	0.3180123	0	0	0	0	0	0
19.79346	-0.1985593	0.3180123	0	0	0	0	0	0
19.81003	-0.1985593	0.3180123	0	0	0	0	0	0
19.82676	-0.1985593	0.3180123	0	0	0	0	0	0
19.84316	-0.1985593	0.3180123	0	0	0	0	0	0
19.85973	-0.1985845	0.3179944	-0.001526518	-0.001077648	-0.04630766	-0.03269097	0	0
19.87878	-0.1985845	0.3179944	0	0	0.04285597	0.03025425	0	0
19.89535	-0.1985845	0.3179944	0	0	0	0	0	0
19.91192	-0.1985845	0.3179944	0	0	0	0	0	0
19.92848	-0.1985845	0.3179944	0	0	0	0	0	0
19.94505	-0.1985845	0.3179944	0	0	0	0	0	0
19.96162	-0.1985845	0.3179944	0	0	0	0	0	0
19.97819	-0.1985845	0.3179944	0	0	0	0	0	0
19.99475	-0.1985845	0.3179944	0	0	0	0	0	0
20.01132	-0.1985845	0.3179944	0	0	0	0	0	0
20.02789	-0.1985845	0.3179944	0	0	0	0	0	0
20.04445	-0.1985845	0.3179944	0	0	0	0	0	0
20.06102	-0.1985845	0.3179944	0	0	0	0	0	0
20.07759	-0.1985845	0.3179944	0	0	0	0	0	0
20.09446	-0.1985845	0.3179944	0	0	0	0	0	0
20.11072	-0.1985845	0.3179944	0	0	0	0	0	0
20.12729	-0.1985845	0.3179944	0	0	0	0	0	0
20.14399	-0.1985845	0.3179944	0	0	0	0	0	0
20.16042	-0.1985845	0.3179944	0	0	0	0	0	0
20.17699	-0.1985845	0.3179944	0	0	0	0	0	0
20.19356	-0.1985845	0.3179944	0	0	0	0	0	0
20.21012	-0.1985845	0.3179944	0	0	0	0	0	0
20.22669	-0.1985845	0.3179944	0	0	0	0	0	0
20.24326	-0.1985845	0.3179944	0	0	0	0	0	0
20.25982	-0.1985845	0.3179944	0	0	0	0	0	0
20.27639	-0.1985845	0.3179944	0	0	0	0	0	0
20.2931	-0.1985845	0.3179944	0	0	0	0	0	0
20.35965	-0.1985845	0.3179944	0	0	0	0	0	0
20.37616	-0.1985845	0.3179944	0	0	0	0	0	0
20.39236	-0.1985845	0.3179944	0	0	0	0	0	0
20.40968	-0.1985845	0.3179944	0	0	0	0	0	0
20.42549	-0.1985845	0.3179944	0	0	0	0	0	0
20.44221	-0.1985845	0.3179944	0	0	0	0	0	0
20.45862	-0.1985845	0.3179944	0	0	0	0	0	0
20.47519	-0.1985845	0.3179944	0	0	0	0	0	0
20.49176	-0.1985845	0.3179944	0	0	0	0	0	0
20.50876	-0.1985845	0.3179944	0	0	0	0	0	0
20.52489	-0.1985845	0.3179944	0	0	0	0	0	0
20.54146	-0.1985845	0.3179944	0	0	0	0	0	0
20.55803	-0.1985845	0.3179944	0	0	0	0	0	0
20.57783	-0.1985845	0.3179944	0	0	0	0	0	0
20.5944	-0.1985845	0.3179944	0	0	0	0	0	0
20.61097	-0.1985845	0.3179944	0	0	0	0	0	0
20.62753	-0.1985845	0.3179944	0	0	0	0	0	0
20.64435	-0.1985845	0.3179944	0	0	0	0	0	0
20.66067	-0.1985845	0.3179944	0	0	0	0	0	0
20.67723	-0.1985845	0.3179944	0	0	0	0	0	0
20.6938	-0.1985845	0.3179944	0	0	0	0	0	0
20.71037	-0.1985845	0.3179944	0	0	0	0	0	0
20.72694	-0.1985845	0.3179944	0	0	0	0	0	0
20.7435	-0.1985845	0.3179944	0	0	0	0	0	0
20.76007	-0.1985845	0.3179944	0	0	0	0	0	0
20.77664	-0.1985845	0.3179944	0	0	0	0	0	0
20.79321	-0.1985845	0.3179944	0	0	0	0	0	0
20.80977	-0.1985845	0.3179944	0	0	0	0	0	0
20.82648	-0.1985845	0.3179944	0	0	0	0	0	0
20.84299	-0.1985845	0.3179944	0	0	0	0	0	0
20.85947	-0.1985845	0.3179944	0	0	0	0	0	0
20.87604	-0.1985845	0.3179944	0	0	0	0	0	0
20.8926	-0.1985845	0.3179944	0	0	0	0	0	0
20.9092	-0.1985845	0.3179944	0	0	0	0	0	0
20.92574	-0.1985845	0.3179944	0	0	0	0	0	0
20.9423	-0.1985845	0.3179944	0	0	0	0	0	0
20.95907	-0.1985845	0.3179944	0	0	0	0	0	0
20.992	-0.1986351	0.3180302	-0.001536255	0.001085107	-0.03091069	0.02183324	0	0
21.02514	-0.1988122	0.3181552	-0.005342649	0.003773134	-0.05761604	0.04068771	0	0
21.0417	-0.199065	0.3183695	-0.01526608	0.01293898	-0.1996676	0.1844242	0	0
21.05827	-0.1998741	0.3189411	-0.04883397	0.03449876	-1.013139	0.6507131	0	0
21.07484	-0.2022996	0.3206557	-0.1463879	0.1034844	-2.944015	2.08187	0	0
21.09167	-0.2065637	0.3236741	-0.2534408	0.1793979	-3.205766	2.273278	0	0
21.10818	-0.2105182	0.3264779	-0.2394651	0.1697888	0.4192053	-0.288228	0	0
21.12454	-0.2194601	0.3327997	-0.5465981	0.3864332	-9.342972	6.590314	0	0
21.14121	-0.2264932	0.3378176	-0.4219438	0.3010445	3.774239	-2.585369	0	0
21.15771	-0.2340017	0.3430855	-0.4548346	0.3191074	-0.9913907	0.5444505	0	0
21.17424	-0.2464394	0.3518536	-0.7527362	0.5306512	-9.01872	6.404311	0	0
21.19081	-0.2542448	0.3573899	-0.4711335	0.3341728	8.510052	-5.937591	0	0
21.20737	-0.2597341	0.3613729	-0.3313342	0.2404102	4.219152	-2.829761	0	0
21.22394	-0.2714218	0.3698936	-0.7054725	0.5143136	-11.29152	8.266422	0	0
21.24375	-0.2840285	0.3791493	-0.6364513	0.4672725	1.897488	-1.293225	0	0
21.26031	-0.2937488	0.3863346	-0.5867164	0.4337062	1.36728	-0.9227844	0	0
21.27688	-0.3069075	0.3961335	-0.7942612	0.5914654	-6.263715	4.761183	0	0
21.29381	-0.3168954	0.4036295	-0.589897	0.4427224	6.10065	-4.440253	0	0
21.31032	-0.3298835	0.4134569	-0.7866834	0.5952374	-5.884489	4.560646	0	0
21.32658	-0.3362997	0.4183464	-0.3945931	0.3007056	11.96486	-8.987805	0	0
21.40942	-0.386752	0.4576884	-0.609076	0.4749487	-2.16443	1.758354	0	0
21.42599	-0.3924494	0.4622405	-0.3438543	0.2747352	2.668136	-2.014151	0	0
21.44255	-0.3959043	0.4650127	-0.2085858	0.1673678	4.082646	-3.240543	0	0
21.45912	-0.4017592	0.4697315	-0.3534046	0.2848244	-4.371141	3.545255	0	0
21.47569	-0.4045201	0.4719658	-0.1666493	0.1348668	5.636285	-4.525728	0	0
21.49245	-0.4064755	0.4735519	-0.1166196	0.09459426	1.500827	-1.208126	0	0
21.50897	-0.4070083	0.4739846	-0.03225318	0.02619262	2.534658	-2.05502	0	0
21.52548	-0.4069861	0.4739665	0.00134496	-0.001092216	1.017332	-0.8261689	0	0
21.54199	-0.4069861	0.4739665	0	0	-0.04072929	0.03307546	0	0
21.55852	-0.4069861	0.4739665	0	0	0	0	0	0
21.57508	-0.4069861	0.4739665	0	0	0	0	0	0
21.60822	-0.4069861	0.4739665	0	0	0	0	0	0
21.62505	-0.4069639	0.4739485	0.0013192	-0.001071297	0.02640254	-0.02144099	0	0
21.64156	-0.4069639	0.4739485	0	0	-0.0395653	0.03213021	0	0
21.65792	-0.4069639	0.4739485	0	0	0	0	0	0
21.67449	-0.4069639	0.4739485	0	0	0	0	0	0
21.69105	-0.4069639	0.4739485	0	0	0	0	0	0
21.70762	-0.4069639	0.4739485	0	0	0	0	0	0
21.72419	-0.4069417	0.4739665	0.001338361	0.001088317	0.04038948	0.03284359	0	0
21.74113	-0.4069639	0.4739846	-0.001308532	0.001064062	-0.07898316	-0.000723786	0	0
21.75732	-0.4069639	0.4740206	0	0.002227934	0.03949613	0.03512979	0	0
21.77416	-0.4069861	0.4740747	-0.001318603	0.003210665	-0.03992882	0.02975822	0	0
21.79067	-0.4070527	0.4741288	-0.004032142	0.003275889	-0.0813655	0.001955757	0	0
21.80702	-0.4071636	0.474255	-0.006785475	0.007716815	-0.08378059	0.135132	0	0
21.82369	-0.4071858	0.4743091	-0.001329939	0.003244409	0.1651999	-0.1354296	0	0
21.84015	-0.4072302	0.4743451	-0.002695901	0.002190759	-0.04122717	-0.03180104	0	0
21.85672	-0.4072302	0.4743812	0	0.002176635	0.08162557	-0.0004276479	0	0
21.87329	-0.4072302	0.4743812	0	0	0	-0.06569096	0	0
21.88985	-0.4072524	0.4743992	-0.001340159	0.001088317	-0.04044609	0.03284548	0	0
21.90675	-0.4072524	0.4743992	0	0	0.04004728	-0.03252162	0	0
21.92299	-0.4072524	0.4743992	0	0	0	0	0	0
21.93956	-0.4072524	0.4743992	0	0	0	0	0	0
21.95629	-0.4072524	0.4743992	0	0	0	0	0	0
21.97269	-0.4072302	0.4743812	0.001353718	-0.001099328	0.04085766	-0.03317971	0	0
21.99264	-0.4072302	0.4743812	0	0	-0.03724097	0.03024266	0	0
22.00933	-0.4072302	0.4743812	0	0	0	0	0	0
22.02584	-0.407208	0.4743631	0.001342689	-0.001091837	0.04044095	-0.03288545	0	0
22.04235	-0.407208	0.4743631	0	0	-0.04065583	0.03306018	0	0
22.05891	-0.4071858	0.4743451	0.001340931	-0.001088944	0.04054875	-0.03292885	0	0
22.07547	-0.4071636	0.4743271	0.001338515	-0.001088443	-7.296031E-05	1.514105E-05	0	0
22.09204	-0.4071636	0.474291	0	-0.002176635	-0.04039878	-0.03284359	0	0
22.1089	-0.4071414	0.474273	0.00131726	-0.001069721	0.0394124	0.03311885	0	0
22.12517	-0.4071192	0.474255	0.001362198	-0.001107702	0.001356322	-0.00114632	0	0
22.14193	-0.4071192	0.4742189	0	-0.002150817	-0.0412418	-0.03158127	0	0
22.15831	-0.407097	0.4742009	0.001355295	-0.001100608	0.04090287	0.03169535	0	0
22.17495	-0.4070527	0.4741288	0.002667159	-0.004334805	0.03972935	-0.09794652	0	0
22.19144	-0.4070527	0.4741288	0	0	-0.08049501	0.1308247	0	0
22.20801	-0.4070305	0.4741108	0.001340314	-0.001088443	0.04053943	-0.03292128	0	0
22.22458	-0.4070305	0.4740747	0	-0.002176635	-0.04045308	-0.03284359	0	0
22.24114	-0.4069861	0.4740387	0.00267852	-0.002174836	0.0808379	5.428939E-05	0	0
22.25771	-0.4069861	0.4740387	0	0	-0.08084255	0.06564046	0	0
22.27427	-0.4069417	0.4740026	0.00267852	-0.002176635	0.08084255	-0.06569475	0	0
22.29084	-0.4069195	0.4739485	0.001340314	-0.003265328	-0.04038947	-0.03285873	0	0
22.30754	-0.4069195	0.4739485	0	0	-0.04029534	0.09816919	0	0
22.32405	-0.4069195	0.4739485	0	0	0	0	0	0
22.35711	-0.4068529	0.4738944	0.002014093	-0.001636338	0.04063123	-0.0330106	0	0
22.37367	-0.4068085	0.4738584	0.002680319	-0.002174836	0.01342561	-0.01085167	0	0
22.39024	-0.4067864	0.4738404	0.001338515	-0.001088443	-0.04049806	0.0327893	0	0
22.40711	-0.4067864	0.4738404	0	0	-0.04003464	0.03255505	0	0
22.42362	-0.4068085	0.4738584	-0.001342844	0.001091963	-0.04022839	0.0327126	0	0
22.43994	-0.4068085	0.4738584	0	0	0.04089909	-0.033258	0	0
22.45664	-0.4068085	0.4738584	0	0	0	0	0	0
22.47308	-0.4068307	0.4739124	-0.001351204	0.003290046	-0.04077943	0.0992938	0	0
22.48964	-0.4068529	0.4739305	-0.001340159	0.001088317	0.0003347038	-0.06672101	0	0
22.50621	-0.4068751	0.4739485	-0.001340159	0.001088317	0	0	0	0
22.52278	-0.4068973	0.4740026	-0.001338361	0.003264952	5.428939E-05	0.06569097	0	0
22.53934	-0.4069639	0.4741288	-0.004018679	0.007616423	-0.08089218	0.1313276	0	0
22.55622	-0.4070749	0.4744713	-0.006577832	0.02030225	-0.07653051	0.3793651	0	0
22.57248	-0.407097	0.4745615	-0.001363636	0.005542522	0.1573738	-0.4454753	0	0
22.58904	-0.4074077	0.4752826	-0.01874964	0.0435309	-0.529619	1.157216	0	0
22.60561	-0.4112392	0.4823364	-0.2312701	0.4257642	-6.413882	11.53582	0	0
22.62218	-0.4114824	0.4929406	-0.01467879	0.6400728	6.53674	6.467846	0	0
22.63875	-0.4103323	0.5090553	0.06941846	0.9726824	2.53806	10.03818	0	0
22.65531	-0.409779	0.5163316	0.03339965	0.4391981	-1.08705	-16.10059	0	0
22.67188	-0.4086936	0.526456	0.06550951	0.6111127	0.9690775	5.188392	0	0
22.69304	-0.4057426	0.5411267	0.139498	0.6935043	1.961433	2.184201	0	0
22.7096	-0.4046535	0.5458937	0.06573797	0.2877367	-1.955377	-10.75689	0	0
22.72617	-0.3999075	0.5574042	0.2864044	0.6946183	6.658959	12.2783	0	0
22.74286	-0.398746	0.5622084	0.06963183	0.2879924	-6.518942	-12.22835	0	0
22.7593	-0.3964866	0.571375	0.1373565	0.5572748	2.04417	8.127894	0	0
22.77588	-0.3950527	0.5776337	0.08651923	0.3776434	-1.5395	-5.439759	0	0
22.79244	-0.3927414	0.5844755	0.1395579	0.4131133	1.60071	1.070482	0	0
22.809	-0.3920899	0.586008	0.03933146	0.09251224	-3.025536	-9.677987	0	0
22.82591	-0.3902681	0.5874672	0.1077515	0.08631121	2.044094	-0.1852598	0	0
22.84214	-0.3902456	0.5874118	0.001386563	-0.003415903	-3.210101	-2.70797	0	0
22.87545	-0.3902006	0.5873748	0.001350994	-0.001109425	-0.0007180208	0.04656009	0	0
22.89184	-0.3901556	0.5872639	0.002747832	-0.006765014	0.02810661	-0.1137994	0	0
22.90847	-0.3901331	0.5872455	0.001352697	-0.001110824	-0.04224874	0.1712253	0	0
22.92497	-0.3900656	0.5871901	0.004092735	-0.003355826	0.08269449	-0.06775428	0	0
22.94154	-0.3899755	0.5870423	0.005434392	-0.008922404	0.04057303	-0.1683388	0	0
22.95811	-0.3898405	0.5868206	0.008154286	-0.01338001	0.08208658	-0.1345308	0	0
22.97467	-0.3896378	0.5866174	0.01223233	-0.01226471	0.1230755	0.03365984	0	0
22.99124	-0.3882408	0.5853986	0.08433002	-0.07357873	2.176038	-1.850567	0	0
23.0078	-0.3877673	0.5849001	0.02858227	-0.03008793	-1.682567	1.312631	0	0
23.02437	-0.3877673	0.5849001	0	0	-0.8626147	0.9080555	0	0
23.04107	-0.3877673	0.5849001	0	0	0	0	0	0
23.0575	-0.3877448	0.5848816	0.001372491	-0.001124101	0.04142423	-0.03392738	0	0
23.07407	-0.3877673	0.5848631	-0.001361746	-0.0011153	-0.0828437	0.0002666373	0	0
23.0911	-0.3877899	0.5848446	-0.001324686	-0.001084948	0.001103026	0.0009034034	0	0
23.10721	-0.3877899	0.5847709	0	-0.004582198	0.03997912	-0.1055472	0	0
23.12377	-0.3877899	0.5847339	0	-0.002230601	0	0.07197818	0	0
23.14034	-0.3877899	0.584697	0	-0.002226491	0	0.0001240376	0	0
23.15691	-0.3877673	0.5846785	0.001362059	-0.001115557	0.04110704	0.03352803	0	0
23.17367	-0.3877673	0.5846785	0	0	-0.04087644	0.03347873	0	0
23.19004	-0.3877673	0.5846785	0	0	0	0	0	0
23.20661	-0.3877673	0.5846785	0	0	0	0	0	0
23.22318	-0.3877448	0.5846601	0.001361746	-0.0011153	0.04109757	-0.03365983	0	0
23.23974	-0.3877673	0.5846416	-0.001361746	-0.001111703	-0.08219514	0.0001085788	0	0
23.25631	-0.3877673	0.5846416	0	0	0.04109757	0.03355126	0	0
23.27323	-0.3877673	0.5846416	0	0	0	0	0	0
23.35534	-0.3876997	0.5845493	0.0008239349	-0.001124472	0.008319932	-0.01135469	0	0
23.37191	-0.3876771	0.5845308	0.001361589	-0.001115172	0.005448645	9.424201E-05	0	0
23.38848	-0.3876997	0.5845124	-0.001361903	-0.001111831	-0.08219514	0.0001008422	0	0
23.40504	-0.3876997	0.5845124	0	0	0.04110704	0.03355898	0	0
23.42161	-0.3876771	0.5844939	0.001361746	-0.0011153	0.04109994	-0.03366177	0	0
23.43835	-0.387632	0.584457	0.002695255	-0.002207474	0.04003566	-0.0327901	0	0
23.45486	-0.3874515	0.5842355	0.01092739	-0.01341245	0.2475487	-0.336945	0	0
23.47131	-0.3867069	0.5836264	0.0452768	-0.03703032	1.042126	-0.7165423	0	0
23.48788	-0.3835879	0.5810806	0.1882627	-0.1536704	4.33103	-3.533017	0	0
23.50444	-0.3796667	0.5778179	0.2366811	-0.1969333	1.461271	-1.305676	0	0
23.52141	-0.3787129	0.5770442	0.05622014	-0.04560497	-5.381579	4.512805	0	0
23.53792	-0.3757333	0.5744846	0.1804537	-0.1550155	3.710925	-3.268152	0	0
23.55414	-0.3749816	0.5733987	0.04633855	-0.06693856	-4.09713	2.690692	0	0
23.57071	-0.3710107	0.5692789	0.2396835	-0.2486724	5.896598	-5.542486	0	0
23.58728	-0.3653986	0.5643374	0.3387437	-0.2982709	2.989645	-1.496885	0	0
23.60385	-0.3578013	0.5582473	0.4585738	-0.3675994	3.616478	-2.092339	0	0
23.62041	-0.3527586	0.5542168	0.3043763	-0.2432794	-4.653689	3.751986	0	0
23.63699	-0.3481624	0.550483	0.2772094	-0.2251884	-0.8195685	0.5457687	0	0
23.65355	-0.3422903	0.5455465	0.3547674	-0.298247	2.340841	-2.205041	0	0
23.67011	-0.3391343	0.5403783	0.1904933	-0.3119496	-4.960087	-0.413734	0	0
23.68668	-0.3393215	0.5278026	-0.01130051	-0.7590699	-6.09015	-13.49412	0	0
23.70354	-0.3394385	0.5238911	-0.006939338	-0.2319888	0.130464	15.76756	0	0
23.71981	-0.3391811	0.5035457	0.01581915	-1.250363	0.686892	-30.73635	0	0
23.73657	-0.3380339	0.4887654	0.06845763	-0.8819873	1.593678	11.1529	0	0
23.75307	-0.3366983	0.4779517	0.0809275	-0.6552045	0.3748954	6.818025	0	0
23.76959	-0.3345163	0.4632665	0.132142	-0.8893724	1.551192	-7.092515	0	0
23.7861	-0.3319313	0.4512155	0.156555	-0.7298321	0.7392554	4.831067	0	0
23.80311	-0.3300248	0.436759	0.1120694	-0.849801	-1.326996	-3.578646	0	0
23.81921	-0.3287761	0.4260877	0.07755493	-0.6627373	-1.042308	5.64917	0	0
23.83614	-0.3254959	0.4032179	0.1938201	-1.351333	3.52044	-20.85026	0	0
23.85235	-0.3227292	0.3858877	0.1706727	-1.069072	-0.6985909	8.518629	0	0
23.86891	-0.3190798	0.3647309	0.220279	-1.277025	1.513415	-6.344297	0	0
23.88548	-0.3155167	0.3509071	0.2150695	-0.8344049	-0.1572241	13.35829	0	0
23.90205	-0.3112538	0.3393176	0.2573052	-0.6995435	1.274676	4.070126	0	0
23.9187	-0.3026451	0.3273887	0.5171216	-0.716566	7.822363	-0.5125007	0	0
23.93518	-0.2964709	0.3229418	0.3745282	-0.2697504	-4.303726	13.4857	0	0
23.95175	-0.2817476	0.3120641	0.8887038	-0.6565828	15.55636	-11.70359	0	0
23.96832	-0.2758372	0.3077228	0.356754	-0.2620363	-16.05428	11.90744	0	0
23.98488	-0.2644966	0.2994317	0.6845193	-0.5004515	9.891975	-7.195386	0	0
24.00145	-0.2532832	0.2912809	0.6768417	-0.4919842	-0.2317109	0.2555432	0	0
24.01802	-0.2453502	0.2855413	0.4788381	-0.3464447	-5.97576	4.392392	0	0
24.05491	-0.235744	0.2786193	0.2603989	-0.1876398	-4.08624	2.97069	0	0
24.07181	-0.2210138	0.2680607	0.8715562	-0.6247284	11.36169	-8.125677	0	0
24.08832	-0.2154205	0.2641396	0.3387468	-0.2374722	-15.9462	11.59001	0	0
24.10461	-0.2119774	0.2616861	0.2113793	-0.1506239	-3.883075	2.64776	0	0
24.12134	-0.2055803	0.2572436	0.3822533	-0.2654629	5.174262	-3.477459	0	0
24.13774	-0.2014914	0.2544125	0.2493367	-0.1726346	-4.011432	2.801564	0	0
24.15437	-0.1960794	0.2507203	0.3255417	-0.2220951	2.307577	-1.497722	0	0
24.17088	-0.1945599	0.2496805	0.09203334	-0.06297835	-7.047297	4.802155	0	0
24.18744	-0.1939519	0.2493219	0.03670148	-0.02164312	-1.672808	1.249658	0	0
24.20401	-0.1936225	0.2491606	0.01988383	-0.009739092	-0.5075578	0.3592644	0	0
24.22058	-0.1916451	0.2479055	0.119356	-0.07575589	3.002077	-1.992391	0	0
24.23715	-0.1885238	0.2458074	0.1883795	-0.1266251	2.083014	-1.535147	0	0
24.25371	-0.1883207	0.2456998	0.01226393	-0.006496322	-5.315485	3.625702	0	0
24.27028	-0.1883207	0.2456998	0	0	-0.3701689	0.196082	0	0
24.28696	-0.1883207	0.2456998	0	0	0	0	0	0
24.30341	-0.1882953	0.2457178	0.001543657	0.001090706	0.04658767	0.03291758	0	0
24.31998	-0.1882953	0.2457178	0	0	-0.04675454	-0.03303548	0	0
24.33655	-0.1882953	0.2457536	0	0.002164942	0	0.06533808	0	0
24.35312	-0.1882953	0.2457536	0	0	0	-0.06533808	0	0
24.36968	-0.1882699	0.2457716	0.001533538	0.001082021	0.04628228	0.03265547	0	0
24.38625	-0.1882699	0.2457716	0	0	-0.04628494	-0.03265735	0	0
24.40305	-0.1882699	0.2457716	0	0	0	0	0	0
24.41956	-0.1882699	0.2457716	0	0	0	0	0	0
24.43607	-0.1882699	0.2457716	0	0	0	0	0	0
24.45251	-0.1882191	0.2458074	0.003088389	0.002181265	0.09371485	0.06618886	0	0
24.46908	-0.1881937	0.2458612	0.001532639	0.003247863	-0.04712897	0.03231088	0	0
24.48565	-0.1881429	0.2458971	0.003066177	0.002164942	0.04628227	-0.03268261	0	0
24.50221	-0.1881429	0.245933	0	0.002164942	-0.0925374	0	0	0
24.51878	-0.1881429	0.2459688	0	0.002164942	0	0	0	0
24.53535	-0.1881175	0.2460944	0.001532815	0.00757772	0.04626312	0.1633674	0	0
24.55191	-0.1879143	0.2464172	0.01226291	0.01948448	0.3238535	0.3593674	0	0
24.56848	-0.1877111	0.2469193	0.01226471	0.03030739	5.427533E-05	0.3266362	0	0
24.58518	-0.1876604	0.2470627	0.003042707	0.00859259	-0.2772512	-0.6528362	0	0
24.60161	-0.1877365	0.2472959	-0.004635103	0.0141818	-0.2317301	0.1686924	0	0
24.6182	-0.1878381	0.2474393	-0.006125302	0.008648911	-0.04512497	-0.1675423	0	0
24.63475	-0.1881429	0.2476545	-0.01841646	0.01300282	-0.370948	0.1314013	0	0
24.67107	-0.1881175	0.2476365	0.0006990024	-0.000493896	0.3615313	-0.2552638	0	0
24.68764	-0.1881175	0.2476365	0	0	-0.01321548	0.0093377	0	0
24.70426	-0.1881175	0.2476365	0	0	0	0	0	0
24.72077	-0.1880921	0.2476903	0.001537773	0.00325784	0.04641275	0.09832748	0	0
24.73734	-0.1880667	0.2477083	0.001532639	0.001082921	-0.0001552115	-0.06574896	0	0
24.75391	-0.1880413	0.2477262	0.001533538	0.001082021	2.714821E-05	-2.714469E-05	0	0
24.77081	-0.1880159	0.2478159	0.0015022	0.005304425	-0.0009362921	0.1261543	0	0
24.78704	-0.1880159	0.248031	0	0.01325554	-0.0453365	0.2399653	0	0
24.80361	-0.1884984	0.248802	-0.02912284	0.04653591	-0.8879247	1.014683	0	0
24.82018	-0.1896662	0.2514193	-0.07048609	0.1579832	-1.248345	3.363486	0	0
24.83686	-0.1894124	0.2538569	0.01521499	0.1461222	2.577561	-0.3567353	0	0
24.85337	-0.1930142	0.2576557	-0.2181372	0.2300613	-7.030039	2.528775	0	0
24.86988	-0.194484	0.2615249	-0.08901034	0.2343317	3.910112	0.1293124	0	0
24.88644	-0.1965098	0.2700477	-0.1223215	0.5146137	-1.007187	8.474539	0	0
24.90301	-0.1968894	0.2774027	-0.02291583	0.443949	3.000586	-2.133034	0	0
24.91958	-0.199419	0.2808017	-0.1526873	0.2051649	-3.916512	-7.206516	0	0
24.93615	-0.2006323	0.2816603	-0.07323387	0.0518237	2.397911	-4.627848	0	0
24.95294	-0.2063872	0.285738	-0.3425941	0.2427508	-8.073078	5.722333	0	0
24.96928	-0.2090077	0.2875977	-0.1604057	0.113839	5.498457	-3.890565	0	0
24.98585	-0.2095365	0.2879733	-0.03191738	0.02266578	3.904985	-2.770914	0	0
25.00248	-0.2108202	0.2888851	-0.07718159	0.05482727	-1.363408	0.9687394	0	0
25.019	-0.2129329	0.290387	-0.1279242	0.09093501	-1.530797	1.089295	0	0
25.03555	-0.2141896	0.2912809	-0.07592385	0.0540069	1.572541	-1.116742	0	0
25.05252	-0.215094	0.2919245	-0.05329994	0.03792962	0.674943	-0.4796362	0	0
25.06903	-0.2151191	0.2919424	-0.001521529	0.001082939	1.546562	-1.100568	0	0
25.08525	-0.215094	0.2919603	0.001548903	0.001102422	0.09380519	0.0005952502	0	0
25.10205	-0.215094	0.2919603	0	0	-0.04690259	-0.03338263	0	0
25.11838	-0.2151191	0.2919782	-0.001538411	0.001094954	-0.04642934	0.03304579	0	0
25.13507	-0.2152447	0.2921033	-0.007522388	0.007496501	-0.1812018	0.1938462	0	0
25.15159	-0.2152698	0.2921569	-0.001521353	0.003246636	0.1807163	-0.1279812	0	0
25.16808	-0.2152949	0.2922105	-0.001522209	0.003252197	-2.592918E-05	0.0001684692	0	0
25.18465	-0.2152698	0.2921927	0.001515549	-0.001079323	0.09188072	-0.1310121	0	0
25.20122	-0.2152698	0.2921927	0	0	-0.04573938	0.03257403	0	0
25.21778	-0.2152698	0.2921927	0	0	0	0	0	0
25.23435	-0.2152447	0.2921748	0.001516449	-0.001079323	0.04576652	-0.03257403	0	0
25.25092	-0.2152447	0.2921748	0	0	-0.04576652	0.03257403	0	0
25.26749	-0.2152447	0.2921748	0	0	0	0	0	0
25.28419	-0.2152447	0.292139	0	-0.002141633	0	-0.06437892	0	0
25.30667	-0.2152447	0.292139	0	0	0	0.05465768	0	0
25.32324	-0.2152447	0.292139	0	0	0	0	0	0
25.33981	-0.2152447	0.292139	0	0	0	0	0	0
25.35637	-0.2152447	0.292139	0	0	0	0	0	0
25.37326	-0.2152447	0.292139	0	0	0	0	0	0
25.38951	-0.2152447	0.292139	0	0	0	0	0	0
25.40925	-0.2152447	0.292139	0	0	0	0	0	0
25.42581	-0.2152196	0.2921211	0.001515549	-0.001079323	0.04174114	-0.02972663	0	0
25.44238	-0.2152196	0.2921211	0	0	-0.04573938	0.03257403	0	0
25.45895	-0.2152196	0.2921211	0	0	0	0	0	0
25.47552	-0.2152196	0.2921211	0	0	0	0	0	0
25.49233	-0.2152196	0.2921211	0	0	0	0	0	0
25.50884	-0.2152196	0.2921211	0	0	0	0	0	0
25.52536	-0.2151944	0.2921033	0.001521529	-0.001081134	0.04607632	-0.03273987	0	0
25.54187	-0.2152196	0.2921211	-0.001521353	0.001081009	-0.09213667	0.06546841	0	0
25.55838	-0.2152196	0.2921211	0	0	0.04606567	-0.03273232	0	0
25.57492	-0.2152196	0.2921211	0	0	0	0	0	0
25.59148	-0.2152196	0.2921211	0	0	0	0	0	0
25.60805	-0.2152196	0.2921211	0	0	0	0	0	0
25.62493	-0.2152196	0.2921211	0	0	0	0	0	0
25.64144	-0.2152196	0.2921211	0	0	0	0	0	0
25.65795	-0.2152196	0.2921211	0	0	0	0	0	0
25.67432	-0.2152196	0.2921211	0	0	0	0	0	0
25.69088	-0.2152196	0.2921211	0	0	0	0	0	0
25.70749	-0.2152196	0.2921211	0	0	0	0	0	0
25.74058	-0.2152196	0.2921211	0	0	0	0	0	0
25.75715	-0.2151944	0.2921033	0.001516624	-0.001077648	0.03054031	-0.02170065	0	0
25.77372	-0.2151944	0.2921033	0	0	-0.04577442	0.03252536	0	0
25.79028	-0.2151944	0.2921033	0	0	0	0	0	0
25.80685	-0.2151693	0.2920854	0.001515724	-0.001079447	0.04574727	-0.03257966	0	0
25.82357	-0.2151693	0.2920854	0	0	-0.04553756	0.03243031	0	0
25.83998	-0.2151693	0.2920854	0	0	0	0	0	0
25.85655	-0.2151693	0.2920854	0	0	0	0	0	0
25.8736	-0.2151693	0.2920854	0	0	0	0	0	0
25.88968	-0.2151693	0.2920854	0	0	0	0	0	0
25.90625	-0.2151693	0.2920854	0	0	0	0	0	0
25.92316	-0.2151693	0.2920854	0	0	0	0	0	0
25.93938	-0.2151693	0.2920854	0	0	0	0	0	0
25.96079	-0.2151693	0.2920854	0	0	0	0	0	0
25.97735	-0.2151693	0.2920854	0	0	0	0	0	0
26.0107	-0.2151693	0.2920854	0	0	0	0	0	0
26.02706	-0.2151693	0.2920854	0	0	0	0	0	0
26.06019	-0.2151693	0.2920854	0	0	0	0	0	0
26.07676	-0.2151693	0.2920854	0	0	0	0	0	0
26.09332	-0.2151693	0.2920854	0	0	0	0	0	0
26.10989	-0.2151693	0.2920854	0	0	0	0	0	0
26.12646	-0.2151693	0.2920854	0	0	0	0	0	0
26.14303	-0.2151693	0.2920854	0	0	0	0	0	0
26.15959	-0.2151693	0.2920854	0	0	0	0	0	0
26.17632	-0.2151693	0.2920854	0	0	0	0	0	0
26.19272	-0.2151693	0.2920854	0	0	0	0	0	0
26.20929	-0.2151693	0.2920854	0	0	0	0	0	0
26.22586	-0.2151693	0.2920854	0	0	0	0	0	0
26.24243	-0.2151693	0.2920854	0	0	0	0	0	0
26.25899	-0.2151693	0.2920854	0	0	0	0	0	0
26.27556	-0.2151693	0.2920854	0	0	0	0	0	0
26.29213	-0.2151693	0.2920854	0	0	0	0	0	0
26.30891	-0.2151693	0.2920854	0	0	0	0	0	0
26.32526	-0.2151693	0.2920854	0	0	0	0	0	0
26.34183	-0.2151693	0.2920854	0	0	0	0	0	0
26.35845	-0.2151693	0.2920854	0	0	0	0	0	0
26.37497	-0.2151693	0.2920854	0	0	0	0	0	0
26.39198	-0.2151693	0.2920854	0	0	0	0	0	0
26.4081	-0.2151693	0.2920854	0	0	0	0	0	0
26.42466	-0.2151693	0.2920854	0	0	0	0	0	0
26.44151	-0.2151693	0.2920854	0	0	0	0	0	0
26.45802	-0.2151693	0.2920854	0	0	0	0	0	0
26.47453	-0.2151693	0.2920854	0	0	0	0	0	0
26.49093	-0.2151693	0.2920854	0	0	0	0	0	0
26.50756	-0.2151693	0.2920854	0	0	0	0	0	0
26.52407	-0.2151693	0.2920854	0	0	0	0	0	0
26.54063	-0.2151693	0.2920854	0	0	0	0	0	0
26.55759	-0.2151693	0.2920854	0	0	0	0	0	0
26.5741	-0.2151693	0.2920854	0	0	0	0	0	0
26.59033	-0.2151693	0.2920854	0	0	0	0	0	0
26.60713	-0.2151693	0.2920854	0	0	0	0	0	0
26.62605	-0.2151693	0.2920854	0	0	0	0	0	0
26.70888	-0.2151693	0.2920854	0	0	0	0	0	0
26.72545	-0.2151693	0.2920854	0	0	0	0	0	0
26.74202	-0.2151693	0.2920854	0	0	0	0	0	0
26.75858	-0.2151693	0.2920854	0	0	0	0	0	0
26.77525	-0.2151693	0.2920854	0	0	0	0	0	0
26.79172	-0.2151693	0.2920854	0	0	0	0	0	0
26.80828	-0.2151693	0.2920854	0	0	0	0	0	0
26.82486	-0.2151944	0.2921033	-0.001514852	0.001078826	-0.0457078	0.03255155	0	0
26.84142	-0.2151693	0.2920854	0.001516422	-0.001079945	0.09148931	-0.06515558	0	0
26.85798	-0.2151693	0.2920854	0	0	-0.04577889	0.03260218	0	0
26.89112	-0.2151693	0.2920854	0	0	0	0	0	0
26.90768	-0.2151944	0.2921033	-0.001515549	0.001079323	-0.03049409	0.02171686	0	0
26.92436	-0.2151944	0.2921033	0	0	0.04559502	-0.03247123	0	0
26.94087	-0.2151944	0.2921033	0	0	0	0	0	0
26.95738	-0.2151944	0.2921033	0	0	0	0	0	0
26.97395	-0.2151944	0.2921033	0	0	0	0	0	0
26.99052	-0.2151944	0.2921033	0	0	0	0	0	0
27.00708	-0.2151944	0.2921033	0	0	0	0	0	0
27.02365	-0.2151944	0.2921033	0	0	0	0	0	0
27.04022	-0.2151944	0.2921033	0	0	0	0	0	0
27.05695	-0.2151944	0.2921033	0	0	0	0	0	0
27.07335	-0.2151944	0.2921033	0	0	0	0	0	0
27.10648	-0.2151944	0.2921033	0	0	0	0	0	0
27.12305	-0.2151944	0.2921033	0	0	0	0	0	0
27.13962	-0.2151944	0.2921033	0	0	0	0	0	0
27.15618	-0.2151944	0.2921033	0	0	0	0	0	0
27.17275	-0.2151944	0.2921033	0	0	0	0	0	0
27.18931	-0.2151944	0.2921033	0	0	0	0	0	0
27.20588	-0.2151944	0.2921033	0	0	0	0	0	0
27.22256	-0.2151944	0.2921033	0	0	0	0	0	0
27.23901	-0.2151944	0.2921033	0	0	0	0	0	0
27.25559	-0.2151944	0.2921033	0	0	0	0	0	0
27.27506	-0.2151944	0.2921033	0	0	0	0	0	0
27.29163	-0.2151944	0.2921033	0	0	0	0	0	0
27.30819	-0.2151944	0.2921033	0	0	0	0	0	0
27.32513	-0.2151944	0.2921033	0	0	0	0	0	0
27.34138	-0.2151944	0.2921033	0	0	0	0	0	0
27.35789	-0.2151944	0.2921033	0	0	0	0	0	0
27.37468	-0.2151944	0.2921033	0	0	0	0	0	0
27.42385	-0.2151944	0.2921033	0	0	0	0	0	0
27.44041	-0.2151944	0.2921033	0	0	0	0	0	0
27.45698	-0.2151944	0.2921033	0	0	0	0	0	0
27.47355	-0.2151944	0.2921033	0	0	0	0	0	0
27.49012	-0.2151944	0.2921033	0	0	0	0	0	0
27.50668	-0.2151944	0.2921033	0	0	0	0	0	0
27.52325	-0.2151944	0.2921033	0	0	0	0	0	0
27.53982	-0.2151944	0.2921033	0	0	0	0	0	0
27.55639	-0.2151944	0.2921033	0	0	0	0	0	0
27.57295	-0.2151944	0.2921033	0	0	0	0	0	0
27.58952	-0.2151944	0.2921033	0	0	0	0	0	0
27.60634	-0.2151944	0.2921033	0	0	0	0	0	0
27.62265	-0.2151944	0.2921033	0	0	0	0	0	0
27.63936	-0.2151944	0.2921033	0	0	0	0	0	0
27.65587	-0.2151944	0.2921033	0	0	0	0	0	0
27.67239	-0.2151944	0.2921033	0	0	0	0	0	0
27.68892	-0.2151944	0.2921033	0	0	0	0	0	0
27.70548	-0.2151944	0.2921033	0	0	0	0	0	0
27.72205	-0.2151944	0.2921033	0	0	0	0	0	0
27.73862	-0.2151944	0.2921033	0	0	0	0	0	0
27.75518	-0.2151944	0.2921033	0	0	0	0	0	0
27.77175	-0.2151944	0.2921033	0	0	0	0	0	0
27.78832	-0.2151944	0.2921033	0	0	0	0	0	0
27.80489	-0.2151944	0.2921033	0	0	0	0	0	0
27.8215	-0.2151944	0.2921033	0	0	0	0	0	0
27.83802	-0.2151944	0.2921033	0	0	0	0	0	0
27.85459	-0.2151944	0.2921033	0	0	0	0	0	0
27.87115	-0.2152196	0.2921211	-0.001516449	0.001077524	-0.04576652	0.03251974	0	0
27.90429	-0.2152196	0.2921211	0	0	0.03051218	-0.02168066	0	0
27.92085	-0.2152196	0.2921211	0	0	0	0	0	0
27.9405	-0.2152196	0.2921211	0	0	0	0	0	0
27.95709	-0.2152196	0.2921211	0	0	0	0	0	0
27.97364	-0.2151944	0.2921033	0.001517847	-0.001078518	0.04580607	-0.03254785	0	0
27.99021	-0.2151944	0.2921033	0	0	-0.04582981	0.03256472	0	0
28.00677	-0.2151944	0.2921033	0	0	0	0	0	0
28.02334	-0.2151944	0.2921033	0	0	0	0	0	0
28.04015	-0.2151944	0.2921033	0	0	0	0	0	0
28.05647	-0.2151944	0.2921033	0	0	0	0	0	0
28.07317	-0.2151944	0.2921033	0	0	0	0	0	0
28.08968	-0.2151944	0.2921033	0	0	0	0	0	0
28.10618	-0.2151944	0.2921033	0	0	0	0	0	0
28.12321	-0.2151944	0.2921033	0	0	0	0	0	0
28.13931	-0.2151944	0.2921033	0	0	0	0	0	0
28.15587	-0.2151944	0.2921033	0	0	0	0	0	0
28.17274	-0.2151944	0.2921033	0	0	0	0	0	0
28.18901	-0.2151944	0.2921033	0	0	0	0	0	0
28.20577	-0.2151944	0.2921033	0	0	0	0	0	0
28.22214	-0.2151944	0.2921033	0	0	0	0	0	0
28.23871	-0.2151944	0.2921033	0	0	0	0	0	0
28.2553	-0.2151944	0.2921033	0	0	0	0	0	0
28.27184	-0.2151944	0.2921033	0	0	0	0	0	0
28.28841	-0.2151944	0.2921033	0	0	0	0	0	0
28.30534	-0.2151944	0.2921033	0	0	0	0	0	0
28.32154	-0.2151944	0.2921033	0	0	0	0	0	0
28.33836	-0.2151944	0.2921033	0	0	0	0	0	0
28.35467	-0.2151944	0.2921033	0	0	0	0	0	0
28.37138	-0.2151944	0.2921033	0	0	0	0	0	0
28.38781	-0.2151944	0.2921033	0	0	0	0	0	0
28.40441	-0.2151944	0.2921033	0	0	0	0	0	0
28.42094	-0.2151944	0.2921033	0	0	0	0	0	0
28.43751	-0.2151944	0.2921033	0	0	0	0	0	0
28.45444	-0.2151944	0.2921033	0	0	0	0	0	0
28.47064	-0.2151944	0.2921033	0	0	0	0	0	0
28.48721	-0.2151944	0.2921033	0	0	0	0	0	0
28.50377	-0.2151944	0.2921033	0	0	0	0	0	0
28.52049	-0.2151944	0.2921033	0	0	0	0	0	0
28.53691	-0.2151944	0.2921033	0	0	0	0	0	0
28.55351	-0.2151944	0.2921033	0	0	0	0	0	0
28.57004	-0.2151944	0.2921033	0	0	0	0	0	0
28.58961	-0.2151693	0.2920854	0.001282922	-0.0009136536	0.03553575	-0.02530736	0	0
28.60618	-0.2151944	0.2920675	-0.001515549	-0.001079323	-0.07743733	-0.004584285	0	0
28.62275	-0.2151944	0.2920675	0	0	0.04573674	0.03257216	0	0
28.63932	-0.2151944	0.2920675	0	0	0	0	0	0
28.65589	-0.2151944	0.2920675	0	0	0	0	0	0
28.6726	-0.2151944	0.2920675	0	0	0	0	0	0
28.68911	-0.2151944	0.2920675	0	0	0	0	0	0
28.70562	-0.2151944	0.2920675	0	0	0	0	0	0
28.72263	-0.2151944	0.2920675	0	0	0	0	0	0
28.73872	-0.2151944	0.2920675	0	0	0	0	0	0
28.75529	-0.2151944	0.2920675	0	0	0	0	0	0
28.77185	-0.2151944	0.2920675	0	0	0	0	0	0
28.78842	-0.2151944	0.2920675	0	0	0	0	0	0
28.8052	-0.2151944	0.2920675	0	0	0	0	0	0
28.82155	-0.2152196	0.2920496	-0.001536258	-0.001093422	-0.04636702	-0.03300144	0	0
28.83812	-0.2151944	0.2920318	0.001516449	-0.001079323	0.09272871	0.0004282681	0	0
28.85469	-0.2150438	0.2919603	0.009095995	-0.004315493	0.2287512	-0.09766781	0	0
28.87125	-0.2147926	0.2917815	0.01516179	-0.01079143	0.1830661	-0.1954442	0	0
28.88783	-0.2145916	0.2916385	0.0121279	-0.008630798	-0.09155248	0.06520053	0	0
28.90477	-0.2144409	0.2915312	0.008897912	-0.006331274	-0.09638269	0.0686177	0	0
28.92095	-0.2142147	0.2913703	0.01396897	-0.009939834	0.1530714	-0.1089254	0	0
28.93752	-0.2134859	0.2908876	0.04398961	-0.02913633	0.9165236	-0.5860648	0	0
28.95409	-0.2108705	0.2890997	0.1578699	-0.1079179	3.436913	-2.377633	0	0
28.97066	-0.2090077	0.2879196	0.1124385	-0.07122993	-1.371123	1.107246	0	0
28.98722	-0.1951932	0.2846114	0.8338454	-0.1996856	21.7721	-3.876799	0	0
29.00379	-0.1858055	0.283896	0.5666401	-0.04318012	-8.064274	4.723343	0	0
29.02036	-0.1616303	0.2829123	1.459221	-0.05937536	26.93813	-0.4887733	0	0
29.03692	-0.1419597	0.2820001	1.187319	-0.05505987	-8.205999	0.1302419	0	0
29.05349	-0.114497	0.2809448	1.657649	-0.06369985	14.19458	-0.2607552	0	0
29.07006	-0.0954981	0.2800862	1.146778	-0.05182549	-15.41813	0.3583688	0	0
29.08663	-0.0787055	0.2793885	1.013603	-0.04211159	-4.019216	0.2931663	0	0
29.10319	-0.05801377	0.2789592	1.248955	-0.02591455	7.102942	0.4888276	0	0
29.11992	-0.0449434	0.2788518	0.7811948	-0.006416011	-14.0475	0.5855681	0	0
29.13633	-0.03346119	0.2784761	0.6999982	-0.02290334	-2.450518	-0.4975887	0	0
29.15289	-0.01873465	0.2781183	0.8888958	-0.02159726	5.729302	0.03961394	0	0
29.16946	-0.01165737	0.278172	0.4271857	0.003239768	-13.93444	0.7495828	0	0
29.18603	-0.001763156	0.278816	0.5972158	0.03887362	5.131517	1.075432	0	0
29.2026	0.003657878	0.2783151	0.3272143	-0.03023544	-8.148661	-2.085715	0	0
29.21916	0.005315739	0.2772596	0.1000687	-0.06371244	-6.855268	-1.010338	0	0
29.23573	0.01023648	0.2739493	0.2970168	-0.1998079	5.943906	-4.107368	0	0
29.25252	0.01689313	0.269457	0.3964556	-0.2675526	2.980994	-2.030862	0	0
29.26903	0.0215756	0.2663778	0.2835811	-0.1864838	-3.38939	2.434329	0	0
29.28809	0.02746678	0.2631547	0.3092075	-0.1691705	0.7205617	0.4868173	0	0
29.30465	0.03369777	0.2630651	0.3761033	-0.005405609	1.878054	4.597588	0	0
29.32122	0.03908535	0.2633696	0.3251951	0.01837727	-1.536413	0.7177688	0	0
29.37092	0.05413128	0.2629219	0.3027131	-0.009007804	-0.3392439	-0.4132298	0	0
29.40413	0.05428871	0.2628144	0.004741172	-0.003236473	-3.59398	0.06961074	0	0
29.42064	0.05428871	0.2628144	0	0	-0.09536329	0.06509797	0	0
29.43719	0.05428871	0.2628144	0	0	0	0	0	0
29.45376	0.05431494	0.2627965	0.001583682	-0.001081122	0.04782313	-0.03264712	0	0
29.47032	0.05431494	0.2627965	0	0	-0.04779561	0.03262833	0	0
29.48689	0.05428871	0.2627786	-0.001583682	-0.001079323	-0.04779561	-0.03257403	0	0
29.50346	0.05428871	0.2627786	0	0	0.04779561	0.03257403	0	0
29.52003	0.05428871	0.2627786	0	0	0	0	0	0
29.53673	0.05423623	0.2627786	-0.003142265	0	-0.09445315	0	0	0
29.55316	0.05423623	0.2627786	0	0	0.09483375	0	0	0
29.56975	0.05420999	0.2627607	-0.001581497	-0.00107963	-0.04788956	-0.03269246	0	0
29.58629	0.05420999	0.2627607	0	0	0.04773242	0.03258519	0	0
29.60286	0.05420999	0.2627607	0	0	0	0	0	0
29.61943	0.05420999	0.2627607	0	0	0	0	0	0
29.63599	0.05420999	0.2627607	0	0	0	0	0	0
29.65281	0.05420999	0.2627607	0	0	0	0	0	0
29.66913	0.05420999	0.2627607	0	0	0	0	0	0
29.68583	0.05415751	0.2627607	-0.003141189	0	-0.09511884	0	0	0
29.70226	0.05415751	0.2627607	0	0	0.09480672	0	0	0
29.71886	0.05415751	0.2627607	0	0	0	0	0	0
29.73539	0.05413128	0.2627428	-0.001586604	-0.001083117	-0.04788657	-0.03269042	0	0
29.75196	0.05413128	0.2627428	0	0	0.04792795	0.03271867	0	0
29.76853	0.05410504	0.2627249	-0.001583682	-0.001081122	-0.04779561	-0.03262833	0	0
29.7854	0.0540788	0.262707	-0.001554906	-0.001061327	0.0008604133	0.0005918816	0	0
29.80166	0.0540788	0.262707	0	0	0.04692987	0.03203277	0	0
29.81843	0.05405256	0.2626891	-0.001564944	-0.00106833	-0.04739106	-0.03235215	0	0
29.83494	0.05405256	0.2626891	0	0	0.04702708	0.03210368	0	0
29.85629	0.05400008	0.2626891	-0.002457455	0	-0.06489772	0	0	0
29.87286	0.05400008	0.2626891	0	0	0.06480306	0	0	0
29.88943	0.05400008	0.2626891	0	0	0	0	0	0
29.90599	0.05400008	0.2626891	0	0	0	0	0	0
29.92256	0.05400008	0.2626891	0	0	0	0	0	0
29.93913	0.05400008	0.2626891	0	0	0	0	0	0
29.95569	0.05400008	0.2626891	0	0	0	0	0	0
29.97226	0.05400008	0.2626891	0	0	0	0	0	0
29.98905	0.05397384	0.2626711	-0.001563388	-0.001067117	-0.04687553	-0.03199568	0	0
30.00556	0.05397384	0.2626711	0	0	0.0469534	0.03204883	0	0
30.02207	0.05397384	0.2626711	0	0	0	0	0	0
30.03858	0.05394761	0.2626532	-0.00158917	-0.001084869	-0.04811914	-0.03284919	0	0
30.1048	0.05389512	0.2626174	-0.0007926149	-0.0005410126	0.009629119	0.006574378	0	0
30.12136	0.05386889	0.2625995	-0.001583682	-0.001081122	-0.009556158	-0.00652457	0	0
30.13793	0.05386889	0.2625995	0	0	0.04779836	0.03263021	0	0
30.15467	0.05384265	0.2625816	-0.001567485	-0.001069913	-0.04706296	-0.03212361	0	0
30.17106	0.05384265	0.2625816	0	0	0.0473095	0.03229189	0	0
30.2042	0.05384265	0.2625816	0	0	0	0	0	0
30.22076	0.05381641	0.2625637	-0.001584229	-0.001081495	-0.03187597	-0.02176057	0	0
30.23733	0.05381641	0.2625637	0	0	0.04782038	0.03264523	0	0
30.25389	0.05381641	0.2625637	0	0	0	0	0	0
30.27046	0.05379017	0.2625458	-0.001583907	-0.001081122	-0.04780515	-0.03263021	0	0
30.28726	0.05373769	0.26251	-0.003124423	-0.002131004	-0.04617393	-0.03146814	0	0
30.30359	0.05368521	0.26251	-0.003212566	0	-0.002660298	0.06431754	0	0
30.32016	0.05365897	0.2624921	-0.001583907	-0.001081122	0.04949779	-0.03285718	0	0
30.33673	0.05358025	0.2624741	-0.004751495	-0.001081122	-0.09559801	0	0	0
30.35331	0.05344905	0.2624921	-0.007914752	0.0010805	-0.09543981	0.06521911	0	0
30.37032	0.05305542	0.26251	-0.02313577	0.001052761	-0.4531371	-0.0008258132	0	0
30.38643	0.0522419	0.2625279	-0.05049407	0.001111711	-0.825913	0.001779646	0	0
30.403	0.05035214	0.2625279	-0.1140658	0	-1.945362	-0.03401954	0	0
30.41957	0.04772689	0.2628502	-0.1584606	0.0194566	-1.339838	0.5872012	0	0
30.43613	0.04646653	0.2631726	-0.07607541	0.0194584	2.486389	5.430344E-05	0	0
30.4527	0.04294726	0.2650349	-0.2124236	0.1124115	-4.114996	2.80533	0	0
30.46927	0.03685173	0.2691885	-0.3679268	0.2507088	-4.693097	4.17382	0	0
30.4859	0.02972808	0.2739314	-0.4281605	0.2850707	-1.813991	1.034842	0	0
30.5024	0.02323266	0.2780647	-0.3937415	0.2505492	1.038765	-1.041862	0	0
30.51897	0.02070757	0.2797105	-0.152415	0.09934449	7.298794	-4.573107	0	0
30.53554	0.0171036	0.2817318	-0.2175361	0.1220067	-1.965357	0.6839461	0	0
30.55531	0.01528828	0.282644	-0.09180545	0.04613196	3.459773	-2.087871	0	0
30.57188	0.0147884	0.2823042	-0.03017321	-0.02051253	1.695956	-1.833879	0	0
30.58848	0.01434112	0.2820001	-0.02693545	-0.01831172	0.09760341	0.0663442	0	0
30.60501	0.006447279	0.2777426	-0.477573	-0.2575763	-13.60027	-7.22102	0	0
30.62201	-0.01565661	0.2747367	-1.300506	-0.1768565	-24.5465	2.407715	0	0
30.63814	-0.03322461	0.2757387	-1.088734	0.06209922	6.391648	7.212114	0	0
30.65503	-0.05092961	0.2767049	-1.048516	0.0572193	1.217911	-0.147778	0	0
30.67128	-0.07451965	0.2774206	-1.451811	0.04404493	-12.17145	-0.3976034	0	0
30.68785	-0.09116763	0.2778679	-1.004874	0.02699747	13.61951	-0.5194874	0	0
30.70457	-0.1072709	0.2778679	-0.9631219	0	1.254305	-0.8110502	0	0
30.72098	-0.123137	0.2780647	-0.9665849	0.01198837	-0.1045144	0.3618096	0	0
30.73759	-0.1425528	0.2787266	-1.168978	0.0398538	-6.1287	0.8437977	0	0
30.75411	-0.1564735	0.2789592	-0.8423902	0.01407404	9.856442	-0.7780346	0	0
30.77113	-0.1700266	0.2796569	-0.7966954	0.04101146	1.362522	0.8032171	0	0
30.78725	-0.1830335	0.2803009	-0.8067411	0.03994329	-0.30318	-0.03223758	0	0
30.80382	-0.1981293	0.280748	-0.911074	0.02698896	-3.191394	-0.3962542	0	0
30.82038	-0.2084284	0.2805334	-0.6217293	-0.01295877	8.732443	-1.205625	0	0
30.83718	-0.2173534	0.2818034	-0.5312518	0.07559534	2.711728	2.654082	0	0
30.85352	-0.2286662	0.2839496	-0.6926493	0.1314102	-4.871267	1.684593	0	0
30.87008	-0.2336032	0.2874547	-0.298002	0.2115653	11.99541	2.436336	0	0
30.8867	-0.2375346	0.2903155	-0.2366452	0.1722015	1.849197	-1.186363	0	0
30.90322	-0.2389759	0.2913524	-0.08723808	0.06276336	4.509116	-3.30285	0	0
30.91978	-0.2461919	0.2965542	-0.4356083	0.3140184	-10.52899	7.593821	0	0
30.93635	-0.2516547	0.300504	-0.3297729	0.2384355	3.194484	-2.281359	0	0
30.95292	-0.2557972	0.3035061	-0.2500414	0.1812076	2.406442	-1.727243	0	0
30.96948	-0.2581111	0.3051857	-0.139668	0.1013826	3.331075	-2.409122	0	0
30.98605	-0.2605942	0.3069903	-0.1498611	0.1089127	-0.3076119	0.2272467	0	0
31.00278	-0.2681949	0.3125285	-0.4543882	0.3310843	-9.145894	6.672503	0	0
31.01929	-0.2712508	0.3147614	-0.1850724	0.1352302	8.102314	-5.892235	0	0
31.0358	-0.2761782	0.3183695	-0.2984128	0.2185154	-3.432078	2.521973	0	0
31.05232	-0.2770062	0.3189768	-0.05014149	0.03677415	7.517509	-5.503017	0	0
31.06888	-0.2780042	0.3197091	-0.06023702	0.04420188	-0.3051757	0.224531	0	0
31.08545	-0.2780772	0.3197627	-0.004407236	0.003234371	1.684946	-1.236402	0	0
31.10202	-0.2780772	0.3197627	0	0	0.1330106	-0.09761352	0	0
31.11859	-0.2780772	0.3197627	0	0	0	0	0	0
31.13515	-0.2780772	0.3197627	0	0	0	0	0	0
31.15753	-0.2780772	0.3197627	0	0	0	0	0	0
31.1741	-0.2780529	0.3197448	0.001469678	-0.001079323	0.03773801	-0.02771457	0	0
31.19066	-0.2780529	0.3197448	0	0	-0.04435498	0.03257403	0	0
31.20723	-0.2780285	0.319727	0.001467879	-0.001077524	0.04430069	-0.03251974	0	0
31.2238	-0.2780285	0.319727	0	0	-0.04430069	0.03251974	0	0
31.24037	-0.2780042	0.3197091	0.001469678	-0.001077524	0.04435498	-0.03251974	0	0
31.25693	-0.2780042	0.3197091	0	0	-0.04435498	0.03251974	0	0
31.2735	-0.2779799	0.3196912	0.001467879	-0.001079323	0.04430069	-0.03257403	0	0
31.29007	-0.2779799	0.3196912	0	0	-0.04430324	0.03257591	0	0
31.30663	-0.2779069	0.3196734	0.004407236	-0.001077524	0.1330183	-0.03252162	0	0
31.3232	-0.2777365	0.319727	0.01028235	0.003234371	0.1773113	0.1301333	0	0
31.33977	-0.2776635	0.3197448	0.004407236	0.001077524	-0.1773113	-0.06509378	0	0
31.35633	-0.2774201	0.3197806	0.01469139	0.002156847	0.3103763	0.03257403	0	0
31.37291	-0.2771766	0.3199234	0.0146916	0.008621806	6.492055E-06	0.1950904	0	0
31.38947	-0.2767871	0.3201735	0.02352118	0.01509955	0.2664925	0.1955099	0	0
31.40607	-0.2766653	0.3201914	0.007332462	0.001074925	-0.4880706	-0.4228258	0	0
31.4226	-0.2765192	0.3201556	0.008842264	-0.002162324	0.04556854	-0.097706	0	0
31.43917	-0.2761539	0.3199234	0.02205237	-0.01401501	0.3991873	-0.3581683	0	0
31.45573	-0.2750573	0.3191197	0.06618589	-0.04851377	1.331952	-1.041175	0	0
31.50836	-0.255132	0.3057754	0.3786095	-0.2535614	4.515132	-2.963339	0	0
31.52493	-0.2473302	0.3011652	0.4709194	-0.2782711	1.334059	-0.3571035	0	0
31.54167	-0.2424012	0.2990386	0.2944679	-0.1270475	-5.297872	4.540414	0	0
31.55806	-0.2377832	0.2984667	0.2816908	-0.03488583	-0.3856337	2.781604	0	0
31.57463	-0.2336281	0.301201	0.2508005	0.1650429	-0.9371817	6.065635	0	0
31.5912	-0.2300138	0.3037563	0.2181636	0.1542389	-0.9849843	-0.3260662	0	0
31.60776	-0.2260684	0.3062935	0.2381436	0.1531487	0.6029998	-0.03290002	0	0
31.62473	-0.22159	0.3071333	0.2639676	0.04949585	0.7701047	-3.091062	0	0
31.65775	-0.2115246	0.3051857	0.3047899	-0.05897323	0.8166142	-2.169829	0	0
31.67403	-0.1921269	0.3018979	1.191703	-0.2019898	17.9897	-2.900878	0	0
31.6906	-0.1861613	0.301058	0.3600829	-0.0506958	-25.31988	4.606367	0	0
31.70729	-0.1790869	0.2994854	0.423892	-0.09423035	1.918694	-1.309053	0	0
31.7238	-0.1713555	0.2970011	0.4682266	-0.1504527	1.335331	-1.693381	0	0
31.74031	-0.1669831	0.2939445	0.2647741	-0.1850907	-6.160422	-1.04882	0	0
31.75686	-0.1645512	0.2922463	0.1469269	-0.1026014	-3.564022	2.494703	0	0
31.77343	-0.1642182	0.2919782	0.02009699	-0.01618445	-3.829496	2.609271	0	0
31.79	-0.1642182	0.2919782	0	0	-0.6065285	0.4884476	0	0
31.80658	-0.1642438	0.2919603	-0.001545241	-0.001078702	-0.04662204	-0.03254593	0	0
31.84313	-0.1642695	0.2919424	-0.0007007769	-0.0004891985	0.01589454	0.01109566	0	0
31.8597	-0.1642951	0.2919245	-0.00154613	-0.001079323	-0.01591413	-0.01110934	0	0
31.87626	-0.1643207	0.2919066	-0.001545231	-0.001079323	2.714469E-05	0	0	0
31.89292	-0.1643463	0.2918887	-0.001537633	-0.001073391	0.0002286681	0.0001785261	0	0
31.9094	-0.1643463	0.2918887	0	0	0.04640586	0.03239501	0	0
31.94253	-0.1644231	0.2919066	-0.002318746	0.0005396615	-0.04673935	0.01087805	0	0
31.9591	-0.1644487	0.2919245	-0.00154613	0.001079323	0.01554505	0.01085801	0	0
31.97567	-0.1645	0.2919603	-0.003091361	0.002158646	-0.04663516	0.03257403	0	0
31.99223	-0.1645256	0.2919782	-0.00154613	0.001079323	0.04663516	-0.03257403	0	0
32.0088	-0.1645256	0.2919782	0	0	0.0466623	-0.03257403	0	0
32.02537	-0.1645768	0.2919782	-0.003091361	0	-0.09329747	0	0	0
32.04193	-0.1646024	0.291996	-0.00154613	0.001077524	0.04663516	0.03251974	0	0
32.0585	-0.164628	0.2920139	-0.001545231	0.001079323	2.714469E-05	5.428939E-05	0	0
32.07507	-0.1647048	0.2920675	-0.004637491	0.003237969	-0.09332461	0.06514807	0	0
32.09164	-0.1648329	0.2921569	-0.007728852	0.005394816	-0.09329746	0.06509378	0	0
32.10822	-0.1649609	0.2922463	-0.007722619	0.005391093	0.0001880717	-0.0001123485	0	0
32.12477	-0.165217	0.2924251	-0.01546569	0.01079889	-0.2336864	0.1632077	0	0
32.14134	-0.1658826	0.2928899	-0.0401778	0.0280552	-0.7460706	0.5209765	0	0
32.15791	-0.1692596	0.2952852	-0.2038392	0.1445825	-4.93931	3.516801	0	0
32.17639	-0.1697965	0.2956606	-0.02904377	0.02030508	4.986567	-3.54539	0	0
32.19314	-0.1746497	0.2990922	-0.2897342	0.2048686	-7.398335	5.237872	0	0
32.20966	-0.1797748	0.3026841	-0.3103506	0.217512	-0.6197803	0.3800893	0	0
32.22617	-0.1836441	0.3054001	-0.2343651	0.1645066	2.300931	-1.605066	0	0
32.24266	-0.1897423	0.3097595	-0.3697899	0.2643509	-4.103664	3.0255	0	0
32.25922	-0.1970919	0.3149401	-0.4436215	0.3126979	-2.233387	1.462482	0	0
32.27579	-0.2033095	0.3194412	-0.3752977	0.271689	2.062017	-1.237651	0	0
32.29236	-0.2077986	0.3227989	-0.2709605	0.2026735	3.148905	-2.082892	0	0
32.30893	-0.2123043	0.3262815	-0.2719651	0.2102072	-0.03032088	0.227367	0	0
32.32574	-0.2181311	0.3328533	-0.3465988	0.3909122	-2.235974	5.413798	0	0
32.34206	-0.2211642	0.3352283	-0.185813	0.1455016	4.852526	-7.406505	0	0
32.35863	-0.2256435	0.3384247	-0.2703713	0.192938	-2.570919	1.442258	0	0
32.37527	-0.2315101	0.3426212	-0.3524093	0.2520784	-2.469939	1.780558	0	0
32.39178	-0.2363411	0.3460855	-0.2926068	0.209831	1.803595	-1.274151	0	0
32.43018	-0.2367141	0.3463534	-0.009715177	0.006975835	5.152032	-3.694404	0	0
32.44675	-0.2367141	0.3463534	0	0	0.1767489	-0.1269119	0	0
32.46332	-0.2367141	0.3463534	0	0	0	0	0	0
32.47989	-0.2367141	0.3463534	0	0	0	0	0	0
32.49645	-0.2367141	0.3463534	0	0	0	0	0	0
32.51302	-0.2367141	0.3463534	0	0	0	0	0	0
32.52988	-0.2367141	0.3463176	0	-0.002117506	0	-0.06334491	0	0
32.5464	-0.2366893	0.3462998	0.001504763	-0.001080759	0.04508168	0.03106022	0	0
32.5629	-0.2366147	0.3462462	0.004521173	-0.003247082	0.09135094	-0.06560633	0	0
32.57928	-0.2365649	0.3462105	0.00303587	-0.002179133	-0.04516451	0.03247377	0	0
32.59585	-0.2364654	0.3461391	0.006005534	-0.004311895	0.09012265	-0.06472458	0	0
32.61244	-0.2364406	0.3461212	0.001499432	-0.001076285	-0.1359162	0.09759474	0	0
32.62898	-0.2363659	0.3460676	0.004509706	-0.003238846	0.09086069	-0.06527374	0	0
32.64555	-0.2362913	0.3459783	0.004504375	-0.00538942	-0.0001609978	-0.06494931	0	0
32.66212	-0.2361918	0.3459069	0.006005534	-0.004310097	0.04530506	0.03257404	0	0
32.67868	-0.2360923	0.3457998	0.006005534	-0.006468743	0	-0.06514806	0	0
32.69525	-0.2360177	0.3457462	0.004505274	-0.003232572	-0.04527791	0.09766781	0	0
32.71182	-0.2359928	0.3457284	0.001501158	-0.001077524	-0.0906644	0.06503949	0	0
32.72839	-0.2359928	0.3457284	0	0	-0.04530505	0.03251974	0	0
32.74503	-0.2359928	0.3457284	0	0	0	0	0	0
32.76154	-0.2359928	0.3457284	0	0	0	0	0	0
32.77808	-0.2359928	0.3457284	0	0	0	0	0	0
32.79465	-0.2359928	0.3457284	0	0	0	0	0	0
32.81122	-0.2359182	0.3456748	0.004505274	-0.003234371	0.1359694	-0.09761352	0	0
32.82779	-0.2356694	0.3454962	0.01501698	-0.01077884	0.317244	-0.2276925	0	0
32.84435	-0.2353459	0.345264	0.01952495	-0.01401321	0.1360509	-0.09761353	0	0
32.86092	-0.2340515	0.3442998	0.0781313	-0.05820429	1.768743	-1.333689	0	0
32.87749	-0.2315351	0.3424962	0.1518922	-0.1088641	2.22611	-1.528917	0	0
32.89414	-0.2271179	0.3392997	0.2652787	-0.1919656	3.413364	-2.50167	0	0
32.92719	-0.2170774	0.3320675	0.3038276	-0.2188483	0.7756659	-0.5409233	0	0
32.94417	-0.2089573	0.3262993	0.4780196	-0.3395674	3.481502	-2.412762	0	0
32.96032	-0.2049498	0.3234597	0.2481811	-0.1758523	-6.936537	4.940932	0	0
32.97689	-0.1991409	0.3193519	0.3506244	-0.2479511	3.131399	-2.203855	0	0
32.99345	-0.1967123	0.3176372	0.1465928	-0.1034963	-6.157687	4.359655	0	0
33.01002	-0.1967123	0.3176372	0	0	-4.424178	3.123524	0	0
33.02659	-0.196687	0.3176194	0.001528142	-0.001079323	0.0461194	-0.03257403	0	0
33.04316	-0.1965098	0.3175301	0.01069429	-0.00538942	0.276635	-0.130079	0	0
33.06202	-0.1959022	0.3171014	0.03220247	-0.02272196	0.6069804	-0.48914	0	0
33.07859	-0.1923805	0.3146543	0.2125727	-0.1477072	5.090211	-3.527196	0	0
33.09516	-0.1867458	0.3106885	0.3401091	-0.2393741	3.849056	-2.766513	0	0
33.11172	-0.1809973	0.3066508	0.3469817	-0.2437129	0.2074153	-0.1309475	0	0
33.12829	-0.1758489	0.3030415	0.3107551	-0.2178596	-1.09332	0.780257	0	0
33.14532	-0.1724285	0.300647	0.2008621	-0.140618	-3.27101	2.299127	0	0
33.16143	-0.1698221	0.2988241	0.16183	-0.1131813	-1.177992	0.8280402	0	0
33.17799	-0.1689528	0.2982164	0.05247129	-0.036679	-3.347078	2.341463	0	0
33.19456	-0.1690039	0.2982522	-0.003086864	0.002156847	-1.676749	1.172068	0	0
33.21113	-0.1690039	0.2982522	0	0	0.09316174	-0.06509378	0	0
33.2277	-0.1690039	0.2982522	0	0	0	0	0	0
33.24426	-0.1690039	0.2982522	0	0	0	0	0	0
33.26083	-0.1690295	0.2982343	-0.001543432	-0.001077524	-0.04658087	-0.03251974	0	0
33.2774	-0.1690295	0.2982343	0	0	0.04658087	0.03251974	0	0
33.29396	-0.1690295	0.2982343	0	0	0	0	0	0
33.31053	-0.1690551	0.2982522	-0.001543432	0.001077524	-0.04658087	0.03251974	0	0
33.3271	-0.1690551	0.2982522	0	0	0.04658087	-0.03251974	0	0
33.34367	-0.1690806	0.29827	-0.001543432	0.001079323	-0.04658087	0.03257403	0	0
33.36023	-0.1690806	0.29827	0	0	0.04658087	-0.03257403	0	0
33.3768	-0.1691062	0.2982879	-0.001543432	0.001079323	-0.04658087	0.03257403	0	0
33.3935	-0.1691062	0.2982879	0	0	0.04639393	-0.0324433	0	0
33.41001	-0.1691318	0.2983058	-0.001548781	0.001083064	-0.04663493	0.03261184	0	0
33.42649	-0.1691318	0.2983058	0	0	0.04694227	-0.03282676	0	0
33.44306	-0.1691318	0.2983058	0	0	0	0	0	0
33.45963	-0.1691318	0.2983058	0	0	0	0	0	0
33.4762	-0.1691318	0.2983058	0	0	0	0	0	0
33.49307	-0.1691318	0.2983058	0	0	0	0	0	0
33.50958	-0.1691318	0.2983058	0	0	0	0	0	0
33.52589	-0.1691318	0.2983058	0	0	0	0	0	0
33.54246	-0.1691318	0.2983058	0	0	0	0	0	0
33.55903	-0.1691318	0.2983058	0	0	0	0	0	0
33.5756	-0.1691318	0.2983058	0	0	0	0	0	0
33.59216	-0.1691318	0.2983058	0	0	0	0	0	0
33.60873	-0.1691318	0.2983058	0	0	0	0	0	0
33.6253	-0.1691318	0.2983058	0	0	0	0	0	0
33.64186	-0.1691318	0.2983058	0	0	0	0	0	0
33.65843	-0.1691318	0.2983058	0	0	0	0	0	0
33.675	-0.1691318	0.2983058	0	0	0	0	0	0
33.69157	-0.1691318	0.2983058	0	0	0	0	0	0
33.70813	-0.1691318	0.2983058	0	0	0	0	0	0
33.79097	-0.1691318	0.2983058	0	0	0	0	0	0
33.81065	-0.1691318	0.2983058	0	0	0	0	0	0
33.82721	-0.1691318	0.2983058	0	0	0	0	0	0
33.84382	-0.1691318	0.2983058	0	0	0	0	0	0
33.86035	-0.1691318	0.2983058	0	0	0	0	0	0
33.87691	-0.1691318	0.2983058	0	0	0	0	0	0
33.89386	-0.1691318	0.2983058	0	0	0	0	0	0
33.91005	-0.1691318	0.2983058	0	0	0	0	0	0
33.92662	-0.1691318	0.2983058	0	0	0	0	0	0
33.94318	-0.1691318	0.2983058	0	0	0	0	0	0
33.95991	-0.1691318	0.2983058	0	0	0	0	0	0
33.97642	-0.1691318	0.2983058	0	0	0	0	0	0
33.99293	-0.1691318	0.2983058	0	0	0	0	0	0
34.00945	-0.1691318	0.2983058	0	0	0	0	0	0
34.02602	-0.1691318	0.2983058	0	0	0	0	0	0
34.04259	-0.1691318	0.2983058	0	0	0	0	0	0
34.05915	-0.1691318	0.2983058	0	0	0	0	0	0
34.07572	-0.1691318	0.2983058	0	0	0	0	0	0
34.09229	-0.1691318	0.2983058	0	0	0	0	0	0
34.10886	-0.1691318	0.2983058	0	0	0	0	0	0
34.12542	-0.1691318	0.2983058	0	0	0	0	0	0
34.14199	-0.1691318	0.2983058	0	0	0	0	0	0
34.15856	-0.1691318	0.2983058	0	0	0	0	0	0
34.17513	-0.1691318	0.2983058	0	0	0	0	0	0
34.19169	-0.1691318	0.2983058	0	0	0	0	0	0
34.20826	-0.1691318	0.2983058	0	0	0	0	0	0
34.22483	-0.1691318	0.2983058	0	0	0	0	0	0
34.24139	-0.1691574	0.2983237	-0.001543432	0.001077524	-0.04658087	0.03251974	0	0
34.25796	-0.1691574	0.2983237	0	0	0.04658087	-0.03251974	0	0
34.27453	-0.1691574	0.2983237	0	0	0	0	0	0
34.2911	-0.1691574	0.2983237	0	0	0	0	0	0
34.30766	-0.1691574	0.2983237	0	0	0	0	0	0
34.32423	-0.1691829	0.2983415	-0.001543432	0.001079323	-0.04658623	0.03257778	0	0
34.35736	-0.1693108	0.2983952	-0.00385858	0.001618085	-0.04658087	0.01083991	0	0
34.37393	-0.1693875	0.2984488	-0.004629396	0.00323617	-0.01550886	0.03255594	0	0
34.39049	-0.1696431	0.298556	-0.01543607	0.006473831	-0.3261837	0.09772406	0	0
34.40706	-0.1700266	0.2986454	-0.02314518	0.005394816	-0.2326882	-0.03256848	0	0
34.42374	-0.1703333	0.2986811	-0.01838787	0.002142051	0.1430818	-0.09783078	0	0
34.44025	-0.1704611	0.2986632	-0.007738508	-0.001082814	0.3208075	-0.09714764	0	0
34.45676	-0.1710745	0.2988777	-0.03715767	0.01299435	-0.8909494	0.4263222	0	0
34.47538	-0.1745221	0.3010044	-0.1851607	0.1142168	-4.213522	2.881718	0	0
34.49195	-0.1797493	0.3043102	-0.3155149	0.1995399	-3.704637	2.424862	0	0
34.50851	-0.1868728	0.3085268	-0.4299789	0.2545152	-3.45453	1.659158	0	0
34.52508	-0.1924312	0.3109029	-0.3355013	0.1434204	2.85134	-3.352845	0	0
34.54165	-0.2041929	0.3147078	-0.7099382	0.2296674	-11.30053	2.602937	0	0
34.55834	-0.2206381	0.3164226	-0.9853723	0.1027464	-8.282104	-3.816421	0	0
34.57485	-0.2311112	0.3154402	-0.6343514	-0.05950352	10.57314	-4.887148	0	0
34.59135	-0.2410615	0.3136182	-0.6031033	-0.1104353	0.9466641	-1.542987	0	0
34.60791	-0.2528392	0.3097238	-0.7108997	-0.2350658	-3.260057	-3.769165	0	0
34.62448	-0.2591441	0.3076514	-0.3805657	-0.1250917	9.969501	3.319023	0	0
34.65762	-0.2763	0.2976981	-0.5177665	-0.3003891	-2.760486	-3.526989	0	0
34.67418	-0.2834465	0.2924429	-0.4313605	-0.3172041	1.738494	-0.338318	0	0
34.69093	-0.2938935	0.2846829	-0.6238308	-0.4633827	-5.777504	-4.387937	0	0
34.70731	-0.304682	0.2766871	-0.6584728	-0.4880239	-1.045617	-0.7437581	0	0
34.72388	-0.3100371	0.2727145	-0.3232375	-0.2397824	10.17364	7.533574	0	0
34.74045	-0.3175843	0.2671119	-0.4555481	-0.3381771	-3.993142	-2.969557	0	0
34.75702	-0.3278565	0.2599845	-0.6200297	-0.4302074	-4.964065	-2.77748	0	0
34.77358	-0.3377294	0.2569032	-0.595932	-0.1859908	0.7272695	7.370472	0	0
34.79015	-0.3535695	0.2561865	-0.9561129	-0.04326107	-10.87028	4.30759	0	0
34.80672	-0.365697	0.2556489	-0.7320149	-0.03244625	6.763292	0.3263918	0	0
34.82328	-0.3794624	0.2532296	-0.8308809	-0.146027	-2.983781	-3.427874	0	0
34.83985	-0.3875869	0.250774	-0.490394	-0.1482216	10.27591	-0.06623401	0	0
34.85642	-0.3917752	0.248551	-0.252808	-0.1341832	7.17036	0.4236797	0	0
34.87299	-0.3978964	0.2436552	-0.3694775	-0.2955115	-3.52109	-4.868895	0	0
34.88955	-0.4017592	0.2405516	-0.233159	-0.1873345	4.1141	3.264787	0	0
34.90612	-0.4040975	0.2386315	-0.1411395	-0.1158923	2.777153	2.15613	0	0
34.92269	-0.4048092	0.2380573	-0.04295886	-0.03466426	2.963097	2.451468	0	0
34.93925	-0.4088487	0.2347186	-0.2438263	-0.2015213	-6.062191	-5.035756	0	0
34.95582	-0.4106863	0.2331566	-0.1109148	-0.09428336	4.011275	3.236448	0	0
34.97239	-0.4138673	0.2305347	-0.192008	-0.1582557	-2.447396	-1.93069	0	0
34.98915	-0.415102	0.2295289	-0.07367723	-0.0600218	3.550789	2.947738	0	0
35.00566	-0.4150579	0.2295289	0.002669752	0	2.294909	1.804192	0	0
35.02209	-0.4150579	0.2295289	0	0	-0.08104916	0	0	0
35.03868	-0.4150138	0.229493	0.00265625	-0.002164152	0.08043433	-0.06553304	0	0
35.05522	-0.4149918	0.229475	0.001331819	-0.001086721	-0.039976	0.03252067	0	0
35.07178	-0.4149257	0.2294211	0.003991697	-0.00325236	0.08034925	-0.06541935	0	0
35.09117	-0.4148596	0.2293672	0.003410377	-0.002779965	-0.01617036	0.01314045	0	0
35.10773	-0.4148375	0.2293493	0.001331165	-0.00108472	-0.05783668	0.04715601	0	0
35.1243	-0.4148155	0.2293313	0.001331165	-0.00108382	0	2.714469E-05	0	0
35.14087	-0.4148155	0.2293313	0	0	-0.04017464	0.03270976	0	0
35.15744	-0.4147935	0.2293133	0.001329366	-0.00108472	0.04012035	-0.0327369	0	0
35.19057	-0.4147273	0.2292595	0.001995848	-0.00162618	0.01340965	-0.0108942	0	0
35.20714	-0.4146833	0.2292235	0.002660531	-0.00216854	0.01337345	-0.0109123	0	0
35.22371	-0.4146612	0.2292056	0.001331165	-0.00108472	-0.04012035	0.03270976	0	0
35.24033	-0.4146612	0.2292056	0	0	-0.04010999	0.03268423	0	0
35.25684	-0.4146612	0.2292056	0	0	0	0	0	0
35.2734	-0.4146612	0.2292056	0	0	0	0	0	0
35.28997	-0.4146612	0.2292056	0	0	0	0	0	0
35.30654	-0.4146612	0.2292056	0	0	0	0	0	0
35.3231	-0.4146612	0.2292056	0	0	0	0	0	0
35.3399	-0.4146612	0.2292056	0	0	0	0	0	0
35.35624	-0.4146612	0.2292056	0	0	0	0	0	0
35.37292	-0.4146612	0.2292056	0	0	0	0	0	0
35.38943	-0.4146612	0.2292056	0	0	0	0	0	0
35.40594	-0.4146833	0.2292235	-0.001335779	0.001088479	-0.04045827	0.03296803	0	0
35.42295	-0.4146833	0.2292235	0	0	0.03984597	-0.03246908	0	0
35.43907	-0.4146833	0.2292235	0	0	0	0	0	0
35.45598	-0.4146833	0.2292235	0	0	0	0	0	0
35.4722	-0.4146833	0.2292235	0	0	0	0	0	0
35.48877	-0.4146833	0.2292235	0	0	0	0	0	0
35.50536	-0.4146833	0.2292235	0	0	0	0	0	0
35.58817	-0.4146833	0.2292235	0	0	0	0	0	0
35.60474	-0.4146833	0.2292235	0	0	0	0	0	0
35.6213	-0.4146833	0.2292235	0	0	0	0	0	0
35.63811	-0.4146833	0.2292235	0	0	0	0	0	0
35.65444	-0.4146833	0.2292235	0	0	0	0	0	0
35.67101	-0.4146833	0.2292235	0	0	0	0	0	0
35.68764	-0.4146833	0.2292235	0	0	0	0	0	0
35.70415	-0.4146833	0.2292235	0	0	0	0	0	0
35.72071	-0.4146833	0.2292235	0	0	0	0	0	0
35.73727	-0.4146833	0.2292235	0	0	0	0	0	0
35.75384	-0.4146833	0.2292235	0	0	0	0	0	0
35.77041	-0.4146612	0.2292415	0.001331165	0.00108382	0.04017464	0.03270976	0	0
35.78698	-0.4146612	0.2292415	0	0	-0.04017464	-0.03270976	0	0
35.80772	-0.4146612	0.2292415	0	0	0	0	0	0
35.82428	-0.4146612	0.2292415	0	0	0	0	0	0
35.84085	-0.4146612	0.2292415	0	0	0	0	0	0
35.85742	-0.4146391	0.2292595	0.001331165	0.00108472	0.04017464	0.0327369	0	0
35.87399	-0.4146391	0.2292595	0	0	-0.04017464	-0.0327369	0	0
35.89079	-0.414573	0.2293133	0.003935514	0.003206583	0.1179322	0.09608901	0	0
35.92369	-0.4144187	0.2294391	0.004691667	0.003822001	0.01521384	0.01238223	0	0
35.94032	-0.4142864	0.2295469	0.007952233	0.006478768	0.06582502	0.05363538	0	0
35.95682	-0.4142202	0.2296007	0.004011043	0.003266651	-0.118959	-0.09695303	0	0
35.97385	-0.4140217	0.2297265	0.01165575	0.007383722	0.2280397	0.1228113	0	0
35.98995	-0.4138232	0.2298522	0.01232754	0.007806949	0.0202748	0.012773	0	0
36.00652	-0.4134702	0.2301037	0.02131254	0.01518148	0.2750309	0.2257342	0	0
36.02308	-0.413095	0.230409	0.0226478	0.01843034	0.04030268	0.09806222	0	0
36.03965	-0.4126755	0.2307502	0.02532092	0.02059708	0.08067501	0.06539236	0	0
36.0564	-0.4098232	0.2330309	0.1702403	0.1361246	4.349141	3.467069	0	0
36.07278	-0.4052538	0.2366932	0.2789594	0.2235796	3.281148	2.639396	0	0
36.08937	-0.3996842	0.2411795	0.3357165	0.2704223	1.721457	1.420747	0	0
36.10592	-0.3917527	0.2473496	0.4794087	0.3729438	4.336637	3.094105	0	0
36.12249	-0.3858036	0.2518316	0.359089	0.2705323	-3.633765	-3.09292	0	0
36.13905	-0.3773036	0.2577631	0.5130634	0.3580276	4.646958	2.640614	0	0
36.15598	-0.3705763	0.2617219	0.397455	0.2338908	-3.451715	-3.706347	0	0
36.17219	-0.36294	0.2644619	0.4711237	0.1690453	2.223326	-1.957041	0	0
36.18876	-0.3523414	0.2671298	0.6397328	0.1610314	5.144303	-0.2445057	0	0
36.20532	-0.3456488	0.2677385	0.4039708	0.03674016	-7.11531	-3.751117	0	0
36.22189	-0.3326603	0.2676848	0.7839861	-0.003241567	11.46888	-1.206651	0	0
36.23854	-0.3242905	0.2676668	0.5026543	-0.001075673	-8.469161	0.06520167	0	0
36.25502	-0.3155642	0.2689916	0.5294022	0.08036876	0.8072545	2.457998	0	0
36.27159	-0.3106337	0.2699761	0.2976089	0.05942573	-7.013298	-0.6336671	0	0
36.28816	-0.2982992	0.2723566	0.7445098	0.1436849	13.4875	2.542946	0	0
36.30509	-0.2932665	0.2727324	0.2972693	0.02219996	-13.35172	-3.626756	0	0
36.32129	-0.2807761	0.2730187	0.7707874	0.01767008	14.2908	-0.1367122	0	0
