Time	Pos X	Pos Y	Vel X	Vel Y	Acc X	Acc YForce X	Force Y
0.01648305	-0.1315516	0.2986454	0.002121931	-0.004817158	-3.423593E-05	7.77216E-05	0	0
0.0492636	-0.1315516	0.2986454	0	0	3.424492E-05	-7.7742E-05	0	0
0.06583152	-0.1315516	0.2986454	0	0	0	0	0	0
0.08239904	-0.1315516	0.2986454	0	0	0	0	0	0
0.09905815	-0.1315516	0.2986454	0	0	0	0	0	0
0.1155728	-0.1315516	0.2986454	0	0	0	0	0	0
0.1321004	-0.1315516	0.2986454	0	0	0	0	0	0
0.148666	-0.1315516	0.2986454	0	0	0	0	0	0
0.1861694	-0.1315516	0.2986454	0	0	0	0	0	0
0.2024247	-0.1315516	0.2986454	0	0	0	0	0	0
0.2191422	-0.1315516	0.2986454	0	0	0	0	0	0
0.2521687	-0.1315516	0.2986454	0	0	0	0	0	0
0.2686912	-0.1315516	0.2986454	0	0	0	0	0	0
0.2852572	-0.1315516	0.2986454	0	0	0	0	0	0
0.3018255	-0.1315258	0.2986275	0.00156042	-0.001079253	0.04709387	-0.03257213	0	0
0.3183914	-0.1315258	0.2986275	0	0	-0.04709387	0.03257213	0	0
0.3349586	-0.1315258	0.2986275	0	0	0	0	0	0
0.3515257	-0.1315258	0.2986275	0	0	0	0	0	0
0.3680908	-0.1315258	0.2986275	0	0	0	0	0	0
0.384658	-0.1315258	0.2986275	0	0	0	0	0	0
0.4012263	-0.1315258	0.2986275	0	0	0	0	0	0
0.4177914	-0.1315258	0.2986275	0	0	0	0	0	0
0.4843292	-0.1314999	0.2986096	0.0003887779	-0.0002687405	0.004678271	-0.003233828	0	0
0.5006251	-0.1314999	0.2986096	0	0	-0.004693475	0.003244338	0	0
0.5173517	-0.1314999	0.2986096	0	0	0	0	0	0
0.5337602	-0.1314999	0.2986096	0	0	0	0	0	0
0.5503261	-0.1314999	0.2986096	0	0	0	0	0	0
0.566892	-0.1314999	0.2986096	0	0	0	0	0	0
0.5834588	-0.1314999	0.2986096	0	0	0	0	0	0
0.6000243	-0.1314999	0.2986096	0	0	0	0	0	0
0.6165911	-0.1314999	0.2986096	0	0	0	0	0	0
0.6331578	-0.1314999	0.2986096	0	0	0	0	0	0
0.649946	-0.1314999	0.2986096	0	0	0	0	0	0
0.6664567	-0.131474	0.2985918	0.00156677	-0.001081216	0.04705178	-0.03247006	0	0
0.6828576	-0.131474	0.2985918	0	0	-0.04760541	0.03285212	0	0
0.6994796	-0.131474	0.2985918	0	0	0	0	0	0
0.7159935	-0.131474	0.2985918	0	0	0	0	0	0
0.732559	-0.131474	0.2985918	0	0	0	0	0	0
0.7491246	-0.131474	0.2985918	0	0	0	0	0	0
0.7656909	-0.131474	0.2985918	0	0	0	0	0	0
0.782258	-0.131474	0.2985918	0	0	0	0	0	0
0.7990521	-0.131474	0.2985918	0	0	0	0	0	0
0.8153911	-0.131474	0.2985918	0	0	0	0	0	0
0.8358572	-0.131474	0.2985918	0	0	0	0	0	0
0.8525945	-0.131474	0.2985918	0	0	0	0	0	0
0.8691016	-0.131474	0.2985918	0	0	0	0	0	0
0.8856111	-0.131474	0.2985918	0	0	0	0	0	0
0.9021246	-0.131474	0.2985918	0	0	0	0	0	0
0.9186921	-0.131474	0.2985918	0	0	0	0	0	0
0.9352577	-0.131474	0.2985918	0	0	0	0	0	0
0.951824	-0.131474	0.2985918	0	0	0	0	0	0
0.9683911	-0.131474	0.2985918	0	0	0	0	0	0
0.9849575	-0.131474	0.2985918	0	0	0	0	0	0
1.001693	-0.131474	0.2985918	0	0	0	0	0	0
1.018205	-0.131474	0.2985918	0	0	0	0	0	0
1.034658	-0.131474	0.2985918	0	0	0	0	0	0
1.051228	-0.131474	0.2985918	0	0	0	0	0	0
1.067791	-0.131474	0.2985918	0	0	0	0	0	0
1.084751	-0.131474	0.2985918	0	0	0	0	0	0
1.100924	-0.131474	0.2985918	0	0	0	0	0	0
1.117492	-0.131474	0.2985918	0	0	0	0	0	0
1.167191	-0.131474	0.2985918	0	0	0	0	0	0
1.183822	-0.131474	0.2985918	0	0	0	0	0	0
1.200325	-0.131474	0.2985918	0	0	0	0	0	0
1.216891	-0.131474	0.2985918	0	0	0	0	0	0
1.233858	-0.131474	0.2985918	0	0	0	0	0	0
1.250026	-0.131474	0.2985918	0	0	0	0	0	0
1.266592	-0.131474	0.2985918	0	0	0	0	0	0
1.283394	-0.131474	0.2985918	0	0	0	0	0	0
1.299726	-0.131474	0.2985918	0	0	0	0	0	0
1.332858	-0.1314999	0.2985739	-0.0007807806	-0.00053971	-0.0157849	-0.01091122	0	0
1.349445	-0.1314999	0.2985739	0	0	0.01570384	0.01085519	0	0
1.365992	-0.1314999	0.2985739	0	0	0	0	0	0
1.382558	-0.1314999	0.2985739	0	0	0	0	0	0
1.399125	-0.131474	0.298556	0.001561466	-0.001079354	0.04712699	-0.03257626	0	0
1.415692	-0.131474	0.298556	0	0	-0.04712598	0.03257556	0	0
1.432503	-0.1314482	0.2985381	0.001537881	-0.001061891	0.04607434	-0.03181387	0	0
1.448825	-0.1314482	0.2985381	0	0	-0.04641584	0.03204967	0	0
1.465392	-0.1313964	0.2985024	0.003122864	-0.002158662	0.09495263	-0.06563546	0	0
1.485646	-0.1312154	0.2983773	0.008938714	-0.006176909	0.1579467	-0.1091274	0	0
1.502547	-0.1308791	0.2981449	0.01989624	-0.01374733	0.2949128	-0.2037516	0	0
1.518781	-0.1255467	0.2944629	0.3284733	-0.2268083	9.312841	-6.430169	0	0
1.535347	-0.1241477	0.2934977	0.08444959	-0.05826839	-7.439676	5.138361	0	0
1.551915	-0.1175347	0.2889388	0.3991635	-0.2751754	9.498359	-6.546454	0	0
1.568481	-0.1143152	0.2867216	0.1943388	-0.1338392	-6.181801	4.265657	0	0
1.585047	-0.1125487	0.2855055	0.1066344	-0.07340306	-2.647056	1.824058	0	0
1.601616	-0.1115872	0.2848439	0.05803154	-0.0399351	-1.466811	1.010047	0	0
1.618181	-0.1114312	0.2847365	0.009414019	-0.006478716	-1.467327	1.009748	0	0
1.634748	-0.1114052	0.2847187	0.001569077	-0.001079331	-0.2367796	0.1629667	0	0
1.651314	-0.1113792	0.2847008	0.001568695	-0.001079377	-1.152787E-05	-1.405409E-06	0	0
1.667881	-0.1113532	0.2846829	0.001569111	-0.001079354	1.255044E-05	7.027121E-07	0	0
1.684676	-0.1113532	0.2846829	0	0	-0.04703385	0.03235346	0	0
1.701014	-0.1113273	0.284665	0.001590568	-0.001094427	0.04800532	-0.03303118	0	0
1.717581	-0.1113273	0.284665	0	0	-0.04833767	0.03325986	0	0
1.734211	-0.1113532	0.2846829	-0.001562668	0.00107523	-0.0470725	0.03238934	0	0
1.750723	-0.1113532	0.2846829	0	0	0.04715039	-0.03244293	0	0
1.767281	-0.1113532	0.2846829	0	0	0	0	0	0
1.783848	-0.1113532	0.2846829	0	0	0	0	0	0
1.800758	-0.1113532	0.2846829	0	0	0	0	0	0
1.816981	-0.1113532	0.2846829	0	0	0	0	0	0
1.833548	-0.1113532	0.2846829	0	0	0	0	0	0
1.850114	-0.1113532	0.2846829	0	0	0	0	0	0
1.899816	-0.1113792	0.2847008	-0.0005230258	0.0003597769	-0.007892573	0.005429113	0	0
1.916385	-0.1113792	0.2847008	0	0	0.007892247	-0.005428888	0	0
1.932949	-0.1113792	0.2847008	0	0	0	0	0	0
1.949515	-0.1113792	0.2847008	0	0	0	0	0	0
1.966082	-0.1113792	0.2847008	0	0	0	0	0	0
1.982649	-0.1113792	0.2847008	0	0	0	0	0	0
1.999215	-0.1113792	0.2847008	0	0	0	0	0	0
2.015782	-0.1113792	0.2847008	0	0	0	0	0	0
2.032348	-0.1113792	0.2847008	0	0	0	0	0	0
2.048937	-0.1113532	0.2846829	0.001567014	-0.001077911	0.04726332	-0.03251131	0	0
2.065483	-0.1113532	0.2846829	0	0	-0.04729223	0.0325312	0	0
2.082048	-0.1113532	0.2846829	0	0	0	0	0	0
2.098973	-0.1113532	0.2846829	0	0	0	0	0	0
2.115485	-0.1113532	0.2846829	0	0	0	0	0	0
2.131749	-0.1113532	0.2846829	0	0	0	0	0	0
2.148316	-0.1113532	0.2846829	0	0	0	0	0	0
2.168361	-0.1113532	0.2846829	0	0	0	0	0	0
2.184929	-0.1113532	0.2846829	0	0	0	0	0	0
2.201545	-0.1113532	0.2846829	0	0	0	0	0	0
2.218062	-0.1113532	0.2846829	0	0	0	0	0	0
2.267762	-0.1116651	0.284969	-0.006275275	0.005757182	-0.09476773	0.08694362	0	0
2.317463	-0.1170675	0.288903	-0.1086994	0.07915443	-1.03042	0.7384008	0	0
2.334138	-0.122489	0.2926396	-0.3251112	0.2240717	-3.260394	2.18328	0	0
2.350651	-0.1234739	0.2933189	-0.05964838	0.04113906	7.998674	-5.511956	0	0
2.367162	-0.1275667	0.2961431	-0.247872	0.1710479	-5.699587	3.933762	0	0
2.383729	-0.1300254	0.2978411	-0.1484148	0.1024919	3.006729	-2.072544	0	0
2.400686	-0.1300772	0.2979126	-0.003051974	0.004216346	4.336139	-2.931536	0	0
2.416863	-0.1301289	0.2979841	-0.003198231	0.004419676	-0.004414179	0.006136662	0	0
2.433429	-0.1301806	0.2980198	-0.003123831	0.002156909	0.002272227	-0.06910591	0	0
2.449996	-0.1301548	0.298002	0.001561511	-0.001077586	0.14141	-0.09762148	0	0
2.466562	-0.1301548	0.298002	0	0	-0.0471292	0.03252349	0	0
2.483244	-0.1301548	0.2979662	0	-0.002143837	0	-0.06448029	0	0
2.499769	-0.1301548	0.2979662	0	0	0	0.06455991	0	0
2.516265	-0.1301289	0.2979484	0.001569049	-0.001082165	0.04751605	-0.03277158	0	0
2.53283	-0.130103	0.2979305	0.00156169	-0.00107951	-0.0002225799	8.032383E-05	0	0
2.549397	-0.1300772	0.2979126	0.001561421	-0.001079323	-8.1413E-06	5.628987E-06	0	0
2.565963	-0.1300513	0.2978947	0.001561511	-0.001079385	2.715953E-06	-1.876221E-06	0	0
2.58253	-0.1299478	0.2978233	0.006247482	-0.004313694	0.141427	-0.09761445	0	0
2.599097	-0.1297925	0.297716	0.009370592	-0.006474326	0.09425702	-0.06520893	0	0
2.615664	-0.1294303	0.2974658	0.02186771	-0.01510376	0.3771748	-0.2604444	0	0
2.665986	-0.1288351	0.2970189	0.011828	-0.00887929	-0.1500951	0.09305667	0	0
2.682554	-0.1286021	0.2968581	0.01406068	-0.009708371	0.03337852	-0.01239474	0	0
2.699122	-0.1286021	0.2968581	0	0	-0.4243338	0.2929866	0	0
2.715688	-0.1286021	0.2968223	0	-0.00215877	0	-0.06515135	0	0
2.732256	-0.1286021	0.2968223	0	0	0	0.06515323	0	0
2.748821	-0.1286021	0.2968223	0	0	0	0	0	0
2.765388	-0.1286021	0.2968223	0	0	0	0	0	0
2.781957	-0.1285762	0.2968045	0.00156214	-0.0010774	0.04714345	-0.0325146	0	0
2.798521	-0.1285762	0.2968045	0	0	-0.04714752	0.03251741	0	0
2.815088	-0.1285762	0.2968045	0	0	0	0	0	0
2.831656	-0.1285762	0.2968045	0	0	0	0	0	0
2.848504	-0.1285762	0.2968045	0	0	0	0	0	0
2.886293	-0.1285762	0.2968045	0	0	0	0	0	0
2.902858	-0.1285762	0.2968045	0	0	0	0	0	0
2.919427	-0.1285503	0.2967866	0.001562208	-0.001079245	0.0471482	-0.03257216	0	0
2.936064	-0.1285503	0.2967866	0	0	-0.04704563	0.0325013	0	0
2.952559	-0.1285503	0.2967866	0	0	0	0	0	0
2.969125	-0.1285245	0.2967687	0.001562478	-0.001079432	0.04726177	-0.03265062	0	0
2.985692	-0.1285245	0.2967687	0	0	-0.04715804	0.03257896	0	0
3.002258	-0.1285245	0.2967687	0	0	0	0	0	0
3.018825	-0.1285245	0.2967687	0	0	0	0	0	0
3.035393	-0.1285245	0.2967687	0	0	0	0	0	0
3.051959	-0.1285245	0.2967687	0	0	0	0	0	0
3.068526	-0.1285503	0.2967508	-0.001562365	-0.001079354	-0.04715431	-0.03257638	0	0
3.085092	-0.1285503	0.2967508	0	0	0.04715363	0.03257591	0	0
3.101659	-0.1285503	0.2967508	0	0	0	0	0	0
3.118225	-0.1285503	0.2967508	0	0	0	0	0	0
3.135205	-0.1285503	0.2967508	0	0	0	0	0	0
3.201256	-0.1285503	0.2967508	0	0	0	0	0	0
3.217763	-0.1285245	0.296733	0.001567939	-0.001081399	0.01899187	-0.0130986	0	0
3.234274	-0.1285245	0.296733	0	0	-0.0474862	0.03275099	0	0
3.250786	-0.1284986	0.2967151	0.001567554	-0.001082939	0.04746871	-0.03279359	0	0
3.267325	-0.1284986	0.2967151	0	0	-0.047429	0.03276614	0	0
3.283892	-0.1284727	0.2966972	0.001562365	-0.001079354	0.0471937	-0.03260359	0	0
3.300458	-0.1284727	0.2966972	0	0	-0.04715431	0.03257638	0	0
3.317025	-0.1284727	0.2966972	0	0	0	0	0	0
3.333846	-0.1284468	0.2966793	0.00153878	-0.001063061	0.04608797	-0.0318397	0	0
3.350357	-0.1284468	0.2966793	0	0	-0.0461661	0.03189368	0	0
3.366725	-0.1284468	0.2966793	0	0	0	0	0	0
3.383293	-0.1284209	0.2966615	0.00156232	-0.001077524	0.04743489	-0.0327156	0	0
3.399859	-0.128395	0.2966436	0.00156241	-0.001079385	2.712439E-06	-5.616717E-05	0	0
3.416425	-0.128395	0.2966436	0	0	-0.04715634	0.03257778	0	0
3.432992	-0.128395	0.2966436	0	0	0	0	0	0
3.449559	-0.128395	0.2966436	0	0	0	0	0	0
3.466125	-0.128395	0.2966436	0	0	0	0	0	0
3.482692	-0.128395	0.2966436	0	0	0	0	0	0
3.499259	-0.1284209	0.2966615	-0.001562365	0.001079354	-0.04715261	0.0325752	0	0
3.518953	-0.1284209	0.2966615	0	0	0.04308684	-0.02976638	0	0
3.535521	-0.1284209	0.2966615	0	0	0	0	0	0
3.552088	-0.1284209	0.2966615	0	0	0	0	0	0
3.568655	-0.1284209	0.2966615	0	0	0	0	0	0
3.585524	-0.1284209	0.2966615	0	0	0	0	0	0
3.601788	-0.1284209	0.2966615	0	0	0	0	0	0
3.618355	-0.128395	0.2966436	0.001562365	-0.001079354	0.04758852	-0.03287635	0	0
3.634921	-0.128395	0.2966436	0	0	-0.04715431	0.03257638	0	0
3.65157	-0.128395	0.2966436	0	0	0	0	0	0
3.668083	-0.128395	0.2966436	0	0	0	0	0	0
3.684621	-0.1283692	0.2966257	0.001565045	-0.001081206	0.04735173	-0.03271277	0	0
3.701188	-0.1283433	0.2965721	0.001562365	-0.003236264	-8.096115E-05	-0.06509738	0	0
3.717754	-0.1282656	0.2965185	0.00468723	-0.003236357	0.09431268	-2.810858E-06	0	0
3.734321	-0.1282138	0.2964827	0.00312563	-0.002158708	-0.04713123	0.0325249	0	0
3.750888	-0.1281362	0.2964291	0.004687095	-0.003236264	0.04712648	-0.03252162	0	0
3.767455	-0.1280326	0.2963219	0.00625036	-0.006472527	0.04718078	-0.09767344	0	0
3.784021	-0.1276184	0.2960359	0.02500234	-0.01726247	0.5659521	-0.3256505	0	0
3.817186	-0.1256762	0.2946953	0.05856185	-0.04042209	0.6748109	-0.4656911	0	0
3.833721	-0.1244586	0.2938552	0.07363838	-0.05081144	0.303352	-0.2090421	0	0
3.850288	-0.1244586	0.2938552	0	0	-2.22462	1.535017	0	0
3.866855	-0.1244586	0.2938552	0	0	0	0	0	0
3.883424	-0.1244586	0.2938552	0	0	0	0	0	0
3.899988	-0.1244586	0.2938552	0	0	0	0	0	0
3.916761	-0.1244586	0.2938552	0	0	0	0	0	0
3.933273	-0.1244586	0.2938552	0	0	0	0	0	0
3.949782	-0.1244586	0.2938552	0	0	0	0	0	0
3.966255	-0.1244586	0.2938552	0	0	0	0	0	0
3.982822	-0.1244586	0.2938552	0	0	0	0	0	0
3.999389	-0.1244586	0.2938552	0	0	0	0	0	0
4.01599	-0.1244845	0.293873	-0.001560907	0.001077106	-0.04706051	0.03247419	0	0
4.032522	-0.1244845	0.293873	0	0	0.04710995	-0.03250831	0	0
4.082223	-0.1245105	0.2938909	-0.000521383	0.0003597813	-0.00787199	0.00543208	0	0
4.098789	-0.1245105	0.2938909	0	0	0.007867969	-0.005429305	0	0
4.115357	-0.1245105	0.2938909	0	0	0	0	0	0
4.131923	-0.1245105	0.2938909	0	0	0	0	0	0
4.148489	-0.1245105	0.2938909	0	0	0	0	0	0
4.184947	-0.1245105	0.2938909	0	0	0	0	0	0
4.201305	-0.1245105	0.2938909	0	0	0	0	0	0
4.217872	-0.1245105	0.2938909	0	0	0	0	0	0
4.23444	-0.1245105	0.2938909	0	0	0	0	0	0
4.251005	-0.1245105	0.2938909	0	0	0	0	0	0
4.267571	-0.1245105	0.2938909	0	0	0	0	0	0
4.284139	-0.1245105	0.2938909	0	0	0	0	0	0
4.30103	-0.1245105	0.2938909	0	0	0	0	0	0
4.31754	-0.1244845	0.293873	0.001569495	-0.001083032	0.04698876	-0.03242468	0	0
4.334052	-0.1244845	0.293873	0	0	-0.04752818	0.0327969	0	0
4.350406	-0.1244845	0.293873	0	0	0	0	0	0
4.366971	-0.1244845	0.293873	0	0	0	0	0	0
4.383538	-0.1244845	0.293873	0	0	0	0	0	0
4.400105	-0.1244845	0.293873	0	0	0	0	0	0
4.416672	-0.1244845	0.293873	0	0	0	0	0	0
4.433239	-0.1244845	0.293873	0	0	0	0	0	0
4.449806	-0.1244845	0.293873	0	0	0	0	0	0
4.466372	-0.1244845	0.293873	0	0	0	0	0	0
4.482938	-0.1244845	0.293873	0	0	0	0	0	0
4.499669	-0.1244845	0.293873	0	0	0	0	0	0
4.516182	-0.1244845	0.293873	0	0	0	0	0	0
4.532639	-0.1244845	0.293873	0	0	0	0	0	0
4.549205	-0.1245105	0.2938909	-0.001564209	0.001079385	-0.04736743	0.03268598	0	0
4.565773	-0.1245105	0.2938909	0	0	0.04720928	-0.03257685	0	0
4.598906	-0.1245105	0.2938909	0	0	0	0	0	0
4.615472	-0.1245105	0.2938909	0	0	0	0	0	0
4.63204	-0.1245105	0.2938909	0	0	0	0	0	0
4.648605	-0.1245105	0.2938909	0	0	0	0	0	0
4.665172	-0.1245105	0.2938909	0	0	0	0	0	0
4.681739	-0.1245105	0.2938909	0	0	0	0	0	0
4.698311	-0.1245105	0.2938909	0	0	0	0	0	0
4.714872	-0.1244845	0.293873	0.001564704	-0.001079727	0.04722491	-0.03258764	0	0
4.73144	-0.1244845	0.293873	0	0	-0.04723103	0.03259186	0	0
4.748005	-0.1244845	0.2938373	0	-0.002157096	0	-0.06510408	0	0
4.764572	-0.1244586	0.2938194	0.001564209	-0.001079385	0.047212	0.03252817	0	0
4.781139	-0.1244327	0.2937658	0.001563669	-0.003237969	-1.628869E-05	-0.06514807	0	0
4.797706	-0.1243291	0.2936585	0.006256206	-0.006474326	0.1416231	-0.09767485	0	0
4.814393	-0.1241736	0.2935513	0.009316956	-0.006427704	0.09204245	0.001402011	0	0
4.830839	-0.1169896	0.2885633	0.4368182	-0.3032908	12.90257	-8.959733	0	0
4.847415	-0.1103655	0.2839675	0.3996047	-0.2772426	-1.126899	0.788792	0	0
4.897451	-0.09547202	0.2736988	0.2976582	-0.2052287	-1.530447	1.081091	0	0
4.918221	-0.09557633	0.2737704	-0.005021924	0.003446475	-4.27478	2.947139	0	0
4.934789	-0.09555025	0.2737525	0.001573968	-0.001081091	0.1766524	-0.1212581	0	0
4.951355	-0.09555025	0.2737525	0	0	-0.04750312	0.03262785	0	0
4.967923	-0.09555025	0.2737525	0	0	0	0	0	0
4.984511	-0.09555025	0.2737525	0	0	0	0	0	0
5.001056	-0.09555025	0.2737525	0	0	0	0	0	0
5.017622	-0.09555025	0.2737525	0	0	0	0	0	0
5.034189	-0.09555025	0.2737525	0	0	0	0	0	0
5.050756	-0.09555025	0.2737525	0	0	0	0	0	0
5.067569	-0.09557633	0.2737346	-0.001550935	-0.001063498	-0.04646228	-0.03185985	0	0
5.083889	-0.09557633	0.2737346	0	0	0.04680865	0.03209735	0	0
5.100592	-0.09557633	0.2737346	0	0	0	0	0	0
5.117105	-0.09557633	0.2737346	0	0	0	0	0	0
5.133615	-0.09557633	0.2737346	0	0	0	0	0	0
5.150158	-0.09560241	0.2737167	-0.001576372	-0.001082742	-0.04769237	-0.03275784	0	0
5.166723	-0.09565455	0.2736809	-0.003147938	-0.002160694	-0.04746822	-0.03255887	0	0
5.200164	-0.09581101	0.2735735	-0.004678588	-0.003211001	-0.03060937	-0.02100366	0	0
5.216422	-0.09648892	0.2731082	-0.04169615	-0.02861773	-0.7448377	-0.5112138	0	0
5.233187	-0.1057097	0.2667717	-0.5500162	-0.3779705	-15.39296	-10.57911	0	0
5.249556	-0.1170675	0.2589456	-0.6938444	-0.478098	-4.340806	-3.021896	0	0
5.266123	-0.1254949	0.2530863	-0.5086787	-0.3536672	5.621887	3.777892	0	0
5.282722	-0.1371339	0.2448748	-0.7012159	-0.4947167	-5.805355	-4.252905	0	0
5.299256	-0.1455683	0.2382906	-0.5101007	-0.3982077	5.768119	2.912773	0	0
5.315823	-0.1495076	0.2323845	-0.2377904	-0.3565128	8.226629	1.259622	0	0
5.33239	-0.1522855	0.2215682	-0.1676737	-0.6528699	2.116185	-8.944332	0	0
5.348956	-0.1537249	0.2038237	-0.0868905	-1.071122	2.438113	-12.62322	0	0
5.365523	-0.1544701	0.1891264	-0.04498028	-0.8871562	1.264908	5.552324	0	0
5.382292	-0.1556004	0.1680457	-0.06740148	-1.257095	-0.6725787	-11.09721	0	0
5.398836	-0.1564478	0.1516716	-0.05122554	-0.9897686	0.4855774	8.024722	0	0
5.415223	-0.1575261	0.1294016	-0.06579904	-1.359003	-0.4425552	-11.21258	0	0
5.43179	-0.1581934	0.113149	-0.04027738	-0.9809811	0.7744471	11.47096	0	0
5.448356	-0.159271	0.09214048	-0.06505282	-1.268186	-0.7477459	-8.668122	0	0
5.465351	-0.1602457	0.0771953	-0.05735392	-0.8794139	0.2294052	11.5843	0	0
5.481491	-0.1607842	0.06754144	-0.03336417	-0.5981154	0.7240017	8.489482	0	0
5.498056	-0.1632448	0.04548927	-0.1485374	-1.331225	-3.521493	-22.41529	0	0
5.514623	-0.1643207	0.03719181	-0.06494204	-0.50085	2.523093	25.06257	0	0
5.531191	-0.1664969	0.02123279	-0.1313516	-0.963261	-2.004246	-13.95559	0	0
5.568424	-0.1723263	-0.005019224	-0.1565666	-0.705076	-0.4686741	4.798925	0	0
5.584563	-0.173501	-0.01090623	-0.07278433	-0.3647575	1.569768	6.376304	0	0
5.60113	-0.1766396	-0.01818545	-0.1894536	-0.4393874	-3.567185	-2.281822	0	0
5.617697	-0.1818374	-0.02868942	-0.3137476	-0.6340389	-3.751306	-5.874765	0	0
5.634264	-0.1839494	-0.0317867	-0.1274779	-0.1869522	5.621709	13.4933	0	0
5.650981	-0.1896662	-0.03602916	-0.3419664	-0.2537749	-6.444062	-2.00761	0	0
5.667397	-0.1935718	-0.03892429	-0.2379225	-0.1763642	3.140188	2.336359	0	0
5.683964	-0.1941799	-0.03941979	-0.03670793	-0.02990913	6.100673	4.440409	0	0
5.70053	-0.194408	-0.03959132	-0.01376396	-0.01035445	0.6924804	0.5901867	0	0
5.717097	-0.194408	-0.03959132	0	0	0.4154151	0.3125115	0	0
5.733664	-0.194408	-0.03959132	0	0	0	0	0	0
5.750229	-0.194408	-0.03959132	0	0	0	0	0	0
5.766797	-0.194408	-0.03959132	0	0	0	0	0	0
5.783576	-0.194408	-0.03959132	0	0	0	0	0	0
5.79993	-0.194408	-0.03959132	0	0	0	0	0	0
5.816598	-0.194408	-0.03959132	0	0	0	0	0	0
5.833064	-0.194408	-0.03959132	0	0	0	0	0	0
5.84963	-0.194408	-0.03959132	0	0	0	0	0	0
5.866197	-0.194408	-0.03959132	0	0	0	0	0	0
5.882765	-0.194408	-0.03959132	0	0	0	0	0	0
5.89933	-0.194408	-0.03959132	0	0	0	0	0	0
5.915897	-0.194408	-0.03959132	0	0	0	0	0	0
5.932464	-0.194408	-0.03959132	0	0	0	0	0	0
5.94903	-0.194408	-0.03959132	0	0	0	0	0	0
5.965705	-0.194408	-0.03959132	0	0	0	0	0	0
5.982217	-0.194408	-0.03959132	0	0	0	0	0	0
5.998731	-0.194408	-0.03959132	0	0	0	0	0	0
6.015297	-0.194408	-0.03959132	0	0	0	0	0	0
6.031865	-0.194408	-0.03959132	0	0	0	0	0	0
6.048432	-0.194408	-0.03959132	0	0	0	0	0	0
6.064998	-0.194408	-0.03959132	0	0	0	0	0	0
6.081565	-0.194408	-0.03959132	0	0	0	0	0	0
6.098299	-0.194408	-0.03959132	0	0	0	0	0	0
6.114809	-0.194408	-0.03959132	0	0	0	0	0	0
6.135091	-0.194408	-0.03959132	0	0	0	0	0	0
6.151659	-0.194408	-0.03959132	0	0	0	0	0	0
6.168225	-0.194408	-0.03959132	0	0	0	0	0	0
6.184859	-0.194408	-0.03959132	0	0	0	0	0	0
6.20137	-0.194408	-0.03959132	0	0	0	0	0	0
6.218384	-0.194408	-0.03959132	0	0	0	0	0	0
6.234492	-0.194408	-0.03959132	0	0	0	0	0	0
6.251059	-0.194408	-0.03959132	0	0	0	0	0	0
6.267625	-0.194408	-0.03959132	0	0	0	0	0	0
6.28443	-0.194408	-0.03959132	0	0	0	0	0	0
6.300941	-0.194408	-0.03959132	0	0	0	0	0	0
6.317452	-0.194408	-0.03959132	0	0	0	0	0	0
6.333892	-0.194408	-0.03959132	0	0	0	0	0	0
6.350478	-0.194408	-0.03959132	0	0	0	0	0	0
6.367026	-0.194408	-0.03959132	0	0	0	0	0	0
6.383592	-0.194408	-0.03959132	0	0	0	0	0	0
6.400159	-0.194408	-0.03959132	0	0	0	0	0	0
6.417023	-0.194408	-0.03959132	0	0	0	0	0	0
6.433292	-0.194408	-0.03959132	0	0	0	0	0	0
6.449859	-0.194408	-0.03959132	0	0	0	0	0	0
6.516127	-0.194408	-0.03959132	0	0	0	0	0	0
6.533105	-0.194484	-0.03949602	-0.004476071	0.005613081	-0.05376875	0.06742706	0	0
6.549259	-0.1946359	-0.03938166	-0.009409316	0.007079357	-0.1488985	0.04425612	0	0
6.565826	-0.1950159	-0.03890523	-0.02293316	0.02875684	-0.4133071	0.6624935	0	0
6.582393	-0.1954211	-0.03780019	-0.02445977	0.06670398	-0.04607393	1.145264	0	0
6.598959	-0.1984834	-0.03279446	-0.1848448	0.3021551	-4.840639	7.106235	0	0
6.632093	-0.210644	-0.01826117	-0.3670186	0.4386284	-3.665451	2.745929	0	0
6.648687	-0.2168264	-0.002211525	-0.37257	0.9671993	-0.1116365	10.62936	0	0
6.665226	-0.2183067	0.01377949	-0.08950543	0.9668893	8.543399	-0.009354671	0	0
6.681832	-0.2196356	0.03737805	-0.08002233	1.421017	0.2861058	13.70108	0	0
6.698404	-0.2198612	0.05497386	-0.01361303	1.06181	2.001586	-10.82656	0	0
6.750185	-0.2184321	0.1120697	0.02759875	1.102637	0.6029284	0.5972943	0	0
6.766753	-0.2175792	0.1230712	0.05147863	0.6640304	0.3493822	-6.417171	0	0
6.78332	-0.215546	0.1501098	0.1227226	1.632054	2.150117	29.21459	0	0
6.799886	-0.214064	0.1667417	0.08946394	1.003965	-1.003778	-18.95631	0	0
6.816807	-0.2121534	0.1898485	0.112909	1.365562	0.7001165	10.79804	0	0
6.83302	-0.2112227	0.2014092	0.05740625	0.7130772	-1.675124	-19.69261	0	0
6.849586	-0.2097631	0.2182237	0.08810858	1.014956	0.93664	9.209465	0	0
6.866342	-0.2074458	0.2385598	0.1382993	1.213721	1.506242	5.964987	0	0
6.882855	-0.2057821	0.2521543	0.1007486	0.8232198	-1.128704	-11.7377	0	0
6.919869	-0.2020723	0.2759892	0.1002272	0.643953	-0.0097401	-3.34907	0	0
6.936436	-0.1998488	0.294302	0.134212	1.105363	0.6342723	8.611496	0	0
6.953403	-0.1989386	0.3016656	0.05364696	0.434008	-2.402519	-20.0204	0	0
6.969569	-0.1967629	0.3191376	0.1345804	1.080741	2.44268	19.51928	0	0
6.986426	-0.1949399	0.3281745	0.1081458	0.5361022	-0.8004803	-16.49253	0	0
7.002937	-0.1930396	0.3358712	0.1150926	0.4661427	0.2081873	-2.096597	0	0
7.019269	-0.1910617	0.3423355	0.1211049	0.3958139	0.1830612	-2.141358	0	0
7.035836	-0.1872539	0.3460498	0.2298391	0.224197	3.305102	-5.216493	0	0
7.052403	-0.1861867	0.3464784	0.06441675	0.02587032	-4.992529	-5.985597	0	0
7.06897	-0.1853988	0.3466748	0.04756264	0.0118567	-0.5086727	-0.4229439	0	0
7.085536	-0.1851954	0.3465319	0.01227621	-0.008624287	-1.064993	-0.6181443	0	0
7.102103	-0.1849412	0.3463534	0.01534618	-0.01077884	0.09265448	-0.0650264	0	0
7.135236	-0.1843817	0.3459605	0.01688473	-0.01185705	0.03095704	-0.02169438	0	0
7.151803	-0.1824992	0.3446033	0.113632	-0.08191882	1.946634	-1.4097	0	0
7.16837	-0.1765121	0.3402998	0.3613893	-0.2597718	7.477438	-5.36769	0	0
7.184937	-0.1724029	0.337389	0.2480383	-0.1756973	-3.42104	2.537446	0	0
7.201579	-0.1682367	0.3344783	0.2503438	-0.1749019	0.06942585	0.02395172	0	0
7.218091	-0.1663433	0.3331569	0.1146603	-0.08002455	-4.092403	2.861632	0	0
7.234636	-0.1663945	0.3331926	-0.003093747	0.002157968	-3.562078	2.486033	0	0
7.251204	-0.1663945	0.3331926	0	0	0.09343267	-0.06517167	0	0
7.26777	-0.1663689	0.3331747	0.00154442	-0.001077586	0.04661204	-0.03252255	0	0
7.300903	-0.1663689	0.3331747	0	0	-0.03107529	0.02168212	0	0
7.317469	-0.1663433	0.3331211	0.00154532	-0.003234558	0.03109339	-0.06508255	0	0
7.334037	-0.1663433	0.3331211	0	0	-0.04663851	0.09762055	0	0
7.350604	-0.1662153	0.3330318	0.007724578	-0.005389575	0.2331282	-0.1626577	0	0
7.367169	-0.1656778	0.3326568	0.03244995	-0.02263716	0.7462562	-0.5205631	0	0
7.383737	-0.1619635	0.3300317	0.2241952	-0.1584518	5.787133	-4.099072	0	0
7.400303	-0.1603996	0.3289067	0.09440303	-0.06791132	-3.917248	2.732597	0	0
7.416869	-0.1605022	0.328871	-0.006191174	-0.002156971	-3.036114	1.984584	0	0
7.433742	-0.1604765	0.3288531	0.001519888	-0.001058005	0.2305998	0.03286466	0	0
7.450003	-0.1605022	0.3288352	-0.00157707	-0.00109781	-0.09346774	-0.001201326	0	0
7.46657	-0.1605278	0.3288174	-0.001547974	-0.001077555	0.0008863356	0.0006169848	0	0
7.483136	-0.1605022	0.3287995	0.001548018	-0.001079385	0.09344126	-5.522986E-05	0	0
7.499789	-0.1604765	0.3287817	0.001539995	-0.001072001	-0.0002415263	0.0002222796	0	0
7.516269	-0.1604509	0.3287281	0.001555176	-0.003251403	0.0004581875	-0.06577732	0	0
7.532836	-0.1604509	0.3287281	0	0	-0.04705925	0.09838665	0	0
7.570339	-0.1602201	0.3285674	0.006154641	-0.004285601	0.1138273	-0.07926024	0	0
7.5869	-0.159861	0.3283173	0.02168092	-0.01509638	0.2871819	-0.1999617	0	0
7.603862	-0.1592967	0.3279245	0.0332706	-0.02316318	0.3457275	-0.2406375	0	0
7.620033	-0.155061	0.3249778	0.2619254	-0.1822146	6.901114	-4.800388	0	0
7.6366	-0.1502537	0.3216023	0.2901745	-0.2037497	0.8628772	-0.6577971	0	0
7.653167	-0.1440737	0.3172443	0.3730347	-0.2630602	2.500799	-1.790046	0	0
7.669734	-0.1395347	0.3140648	0.273986	-0.19192	-2.989383	2.147078	0	0
7.6863	-0.1373146	0.3124928	0.1340111	-0.09489055	-4.224633	2.92848	0	0
7.702867	-0.1322757	0.3089377	0.3041566	-0.21459	5.135224	-3.612692	0	0
7.719433	-0.1301289	0.3073119	0.129591	-0.0981395	-5.268628	3.514634	0	0
7.736001	-0.1264532	0.3044174	0.2218575	-0.1747086	2.784648	-2.310893	0	0
7.752566	-0.1263755	0.3015762	0.004689299	-0.1715134	-6.554431	0.09643583	0	0
7.769132	-0.1327153	0.2950528	-0.3826897	-0.3937759	-11.69213	-6.708476	0	0
7.785699	-0.1357908	0.2894573	-0.1856408	-0.3377569	5.947205	1.690731	0	0
7.802501	-0.1385023	0.2850406	-0.1613778	-0.2628629	0.7271118	2.244414	0	0
7.818833	-0.139225	0.2844325	-0.04425274	-0.03723175	3.534891	6.809659	0	0
7.835399	-0.1390701	0.2846114	0.009347476	0.01079565	1.629287	1.45989	0	0
7.852036	-0.1390959	0.2846293	-0.001551304	0.001074807	-0.3282456	-0.292769	0	0
7.86855	-0.1390701	0.2846114	0.001562816	-0.001082782	0.09393702	-0.06508338	0	0
7.885101	-0.1390959	0.2846293	-0.001559394	0.001080411	-0.09442687	0.06542277	0	0
7.901666	-0.1390959	0.284665	0	0.002158895	0.04708903	0.03256697	0	0
7.918234	-0.1390959	0.284665	0	0	0	-0.06515838	0	0
7.9348	-0.1390959	0.284665	0	0	0	0	0	0
7.968119	-0.1390959	0.284665	0	0	0	0	0	0
7.984633	-0.1391476	0.2847008	-0.003125632	0.002165565	-0.06272115	0.04345576	0	0
8.001065	-0.1391734	0.2847187	-0.001570662	0.001088218	0.04719738	-0.03270026	0	0
8.017654	-0.1391992	0.2847365	-0.001555763	0.001077896	0.0004511825	-0.0003125952	0	0
8.0342	-0.139225	0.2847545	-0.001559888	0.001082555	-0.0001244911	0.0001406142	0	0
8.051178	-0.1392508	0.2847723	-0.001520109	0.001053193	0.001186602	-0.0008758593	0	0
8.067692	-0.1392508	0.2847723	0	0	0.04538711	-0.03144603	0	0
8.083899	-0.1392766	0.2847902	-0.00159238	0.001103266	-0.04866461	0.03371682	0	0
8.100466	-0.1393024	0.2848081	-0.001557913	0.001079385	0.001051674	-0.0007286425	0	0
8.117228	-0.1393282	0.284826	-0.001539742	0.001066796	0.0005452139	-0.0003777449	0	0
8.133599	-0.1393282	0.284826	0	0	0.04647083	-0.03219688	0	0
8.150248	-0.1393282	0.2848617	0	0.002148135	0	0.06505554	0	0
8.166733	-0.1393798	0.2848975	-0.003131147	0.002169386	-0.09450091	0.0006413514	0	0
8.183299	-0.1394057	0.2849869	-0.001557913	0.005396926	0.04759949	0.09765188	0	0
8.199865	-0.1394573	0.2850227	-0.003114926	0.002160569	-0.04699345	-0.09767906	0	0
8.216432	-0.1394831	0.2850763	-0.001557913	0.003238156	0.04699345	0.03252348	0	0
8.235869	-0.1395605	0.2852015	-0.003983294	0.006439506	-0.0673641	0.08891635	0	0
8.252437	-0.1396379	0.2853267	-0.004672569	0.00755706	-0.01914386	0.03103885	0	0
8.269004	-0.1397153	0.2854161	-0.004673469	0.005396615	-2.715172E-05	-0.06520236	0	0
8.28557	-0.1397411	0.285434	-0.001557913	0.001079385	0.09403038	-0.130298	0	0
8.302353	-0.1397669	0.2854519	-0.001536929	0.001065462	0.0006292124	-0.000417498	0	0
8.318874	-0.1397927	0.2854698	-0.001562139	0.001082314	-0.0007569708	0.0005059895	0	0
8.335269	-0.1398185	0.2854877	-0.001574225	0.001090687	-0.0003671659	0.0002543865	0	0
8.434945	-0.1398185	0.2854877	0	0	0.01356263	-0.009396743	0	0
8.451235	-0.1397927	0.2854698	0.001584363	-0.001097711	0.01366232	-0.009465813	0	0
8.467802	-0.1397927	0.2854698	0	0	-0.04822003	0.0334088	0	0
8.484368	-0.1397927	0.2854698	0	0	0	0	0	0
8.500991	-0.1397927	0.2854698	0	0	0	0	0	0
8.517503	-0.1397927	0.2854698	0	0	0	0	0	0
8.534068	-0.1397927	0.2854698	0	0	0	0	0	0
8.550634	-0.1397927	0.2854698	0	0	0	0	0	0
8.567538	-0.1397927	0.2854698	0	0	0	0	0	0
8.583768	-0.1397927	0.2854698	0	0	0	0	0	0
8.600334	-0.1397927	0.2854698	0	0	0	0	0	0
8.6169	-0.1397927	0.2854698	0	0	0	0	0	0
8.633467	-0.1397927	0.2854698	0	0	0	0	0	0
8.650033	-0.1397927	0.2854698	0	0	0	0	0	0
8.666599	-0.1397927	0.2854698	0	0	0	0	0	0
8.683166	-0.1397927	0.2854698	0	0	0	0	0	0
8.699732	-0.1397927	0.2854698	0	0	0	0	0	0
8.716298	-0.1397669	0.2854519	0.001557913	-0.001079385	0.0470206	-0.03257778	0	0
8.733151	-0.1397927	0.2854698	-0.001531377	0.001061	-0.09243944	0.0640458	0	0
8.749431	-0.1397927	0.2854698	0	0	0.04621972	-0.0320229	0	0
8.766176	-0.1397669	0.2854519	0.001541232	-0.001067829	0.04666896	-0.03233415	0	0
8.782564	-0.1397669	0.2854519	0	0	-0.04651583	0.03222806	0	0
8.79913	-0.1397669	0.2854519	0	0	0	0	0	0
8.815697	-0.1397669	0.2854519	0	0	0	0	0	0
8.832263	-0.1397669	0.2854519	0	0	0	0	0	0
8.848829	-0.1397669	0.2854519	0	0	0	0	0	0
8.865396	-0.1397669	0.2854519	0	0	0	0	0	0
8.881964	-0.1397669	0.2854519	0	0	0	0	0	0
8.898529	-0.1397669	0.2854519	0	0	0	0	0	0
8.915095	-0.1397669	0.2854519	0	0	0	0	0	0
8.934477	-0.1397669	0.2854519	0	0	0	0	0	0
8.951044	-0.1397669	0.2854519	0	0	0	0	0	0
8.967611	-0.1397669	0.2854519	0	0	0	0	0	0
8.984326	-0.1397669	0.2854519	0	0	0	0	0	0
9.000838	-0.1397669	0.2854519	0	0	0	0	0	0
9.017312	-0.1397669	0.2854519	0	0	0	0	0	0
9.033877	-0.1397669	0.2854519	0	0	0	0	0	0
9.050445	-0.1397669	0.2854519	0	0	0	0	0	0
9.149944	-0.1397411	0.285434	0.0002592361	-0.000179713	0.002233505	-0.001548357	0	0
9.166454	-0.1397411	0.285434	0	0	-0.002234607	0.001549121	0	0
9.182978	-0.1397153	0.2854161	0.001561959	-0.001082189	0.04728427	-0.03276046	0	0
9.199544	-0.1397153	0.2854161	0	0	-0.04720387	0.03270476	0	0
9.21611	-0.1397153	0.2854161	0	0	0	0	0	0
9.232677	-0.1397411	0.285434	-0.001557913	0.001079385	-0.0470206	0.03257778	0	0
9.265809	-0.1397411	0.285434	0	0	0.03134707	-0.02171852	0	0
9.282375	-0.1397411	0.285434	0	0	0	0	0	0
9.299047	-0.1397411	0.285434	0	0	0	0	0	0
9.31551	-0.1397411	0.285434	0	0	0	0	0	0
9.332076	-0.1397411	0.285434	0	0	0	0	0	0
9.349083	-0.1397411	0.285434	0	0	0	0	0	0
9.365211	-0.1397411	0.285434	0	0	0	0	0	0
9.381777	-0.1397411	0.285434	0	0	0	0	0	0
9.398343	-0.1397411	0.285434	0	0	0	0	0	0
9.415129	-0.1397411	0.285434	0	0	0	0	0	0
9.431476	-0.1397411	0.285434	0	0	0	0	0	0
9.448654	-0.1397411	0.285434	0	0	0	0	0	0
9.522868	-0.1397411	0.285434	0	0	0	0	0	0
9.539435	-0.1397411	0.285434	0	0	0	0	0	0
9.556003	-0.1397411	0.285434	0	0	0	0	0	0
9.572569	-0.1397411	0.285434	0	0	0	0	0	0
9.589135	-0.1397411	0.285434	0	0	0	0	0	0
9.605765	-0.1397411	0.285434	0	0	0	0	0	0
9.622274	-0.1397411	0.285434	0	0	0	0	0	0
9.675902	-0.1397411	0.285434	0	0	0	0	0	0
9.692469	-0.1397411	0.285434	0	0	0	0	0	0
9.709035	-0.1397411	0.285434	0	0	0	0	0	0
9.725602	-0.1397411	0.285434	0	0	0	0	0	0
9.742359	-0.1397411	0.285434	0	0	0	0	0	0
9.758736	-0.1397153	0.2854161	0.001575967	-0.001091894	0.04756414	-0.03295437	0	0
9.775302	-0.1397153	0.2854161	0	0	-0.04783953	0.03314517	0	0
9.791868	-0.1397153	0.2854161	0	0	0	0	0	0
9.808906	-0.1397153	0.2854161	0	0	0	0	0	0
9.825002	-0.1397153	0.2854161	0	0	0	0	0	0
9.841569	-0.1397153	0.2854161	0	0	0	0	0	0
9.858135	-0.1397153	0.2854161	0	0	0	0	0	0
9.874704	-0.1397153	0.2854161	0	0	0	0	0	0
9.891269	-0.1397153	0.2854161	0	0	0	0	0	0
9.907835	-0.1397153	0.2854161	0	0	0	0	0	0
9.924488	-0.1397153	0.2854161	0	0	0	0	0	0
9.940969	-0.1397153	0.2854161	0	0	0	0	0	0
9.957535	-0.1397153	0.2854161	0	0	0	0	0	0
9.974101	-0.1397153	0.2854161	0	0	0	0	0	0
9.990667	-0.1397153	0.2854161	0	0	0	0	0	0
10.00723	-0.1397153	0.2854161	0	0	0	0	0	0
10.0238	-0.1397153	0.2854161	0	0	0	0	0	0
10.04057	-0.1397153	0.2854161	0	0	0	0	0	0
10.05693	-0.1397153	0.2854161	0	0	0	0	0	0
10.07359	-0.1397153	0.2854161	0	0	0	0	0	0
10.0901	-0.1397153	0.2854161	0	0	0	0	0	0
10.10663	-0.1397153	0.2854161	0	0	0	0	0	0
10.1232	-0.1397153	0.2854161	0	0	0	0	0	0
10.13977	-0.1397153	0.2854161	0	0	0	0	0	0
10.15665	-0.1397153	0.2854161	0	0	0	0	0	0
10.1729	-0.1396895	0.2853982	0.001588268	-0.001100417	0.04793679	-0.03321255	0	0
10.18947	-0.1396895	0.2853982	0	0	-0.0483993	0.033533	0	0
10.20603	-0.1396895	0.2853982	0	0	0	0	0	0
10.2227	-0.1396637	0.2853804	0.001548729	-0.001073023	0.04660527	-0.03229002	0	0
10.24527	-0.1396637	0.2853804	0	0	-0.03947113	0.0273472	0	0
10.26184	-0.1396637	0.2853804	0	0	0	0	0	0
10.27841	-0.1396637	0.2853804	0	0	0	0	0	0
10.29497	-0.1396895	0.2853982	-0.001558002	0.001079447	-0.04702466	0.0325806	0	0
10.31154	-0.1396895	0.2853982	0	0	0.04702331	-0.03257966	0	0
10.32827	-0.1396895	0.2853982	0	0	0	0	0	0
10.34467	-0.1396895	0.2853982	0	0	0	0	0	0
10.36124	-0.1396895	0.2853982	0	0	0	0	0	0
10.3778	-0.1396895	0.2853982	0	0	0	0	0	0
10.39437	-0.1396895	0.2853982	0	0	0	0	0	0
10.41093	-0.1396895	0.2853982	0	0	0	0	0	0
10.4275	-0.1396895	0.2853982	0	0	0	0	0	0
10.44435	-0.1396895	0.2853982	0	0	0	0	0	0
10.46064	-0.1396895	0.2853982	0	0	0	0	0	0
10.4772	-0.1396895	0.2853982	0	0	0	0	0	0
10.49377	-0.1396637	0.2853804	0.001557913	-0.001079385	0.0470206	-0.03257778	0	0
10.5104	-0.1396895	0.2853625	-0.001552105	-0.001075361	-0.09369063	0.0001212216	0	0
10.5269	-0.1396895	0.2853625	0	0	0.04684531	0.03245633	0	0
10.54347	-0.1396895	0.2853625	0	0	0	0	0	0
10.56003	-0.1396895	0.2853625	0	0	0	0	0	0
10.5766	-0.1396895	0.2853625	0	0	0	0	0	0
10.59317	-0.1396895	0.2853625	0	0	0	0	0	0
10.60973	-0.1396895	0.2853625	0	0	0	0	0	0
10.6263	-0.1396895	0.2853625	0	0	0	0	0	0
10.64287	-0.1396895	0.2853625	0	0	0	0	0	0
10.65943	-0.1396895	0.2853625	0	0	0	0	0	0
10.676	-0.1396895	0.2853625	0	0	0	0	0	0
10.69256	-0.1396895	0.2853625	0	0	0	0	0	0
10.70953	-0.1396895	0.2853625	0	0	0	0	0	0
10.7257	-0.1396895	0.2853625	0	0	0	0	0	0
10.74226	-0.1396895	0.2853625	0	0	0	0	0	0
10.75883	-0.1396895	0.2853625	0	0	0	0	0	0
10.7754	-0.1396895	0.2853625	0	0	0	0	0	0
10.79196	-0.1396637	0.2853804	0.001557913	0.001079385	0.0470206	0.03257778	0	0
10.83577	-0.1396637	0.2853804	0	0	-0.02580303	-0.01787739	0	0
10.86891	-0.1396379	0.2853625	0.0007788891	-0.000539646	0.01012251	-0.007013285	0	0
10.88548	-0.1396379	0.2853625	0	0	-0.01567158	0.01085791	0	0
10.92346	-0.1396637	0.2853446	-0.000679399	-0.0004707152	-0.01245392	-0.008628581	0	0
10.9402	-0.1396637	0.2853446	0	0	0.0124155	0.008601964	0	0
10.97316	-0.1396637	0.2853446	0	0	0	0	0	0
10.98973	-0.1396637	0.2853446	0	0	0	0	0	0
11.0063	-0.1396637	0.2853446	0	0	0	0	0	0
11.02286	-0.1396637	0.2853446	0	0	0	0	0	0
11.03943	-0.1396637	0.2853446	0	0	0	0	0	0
11.05628	-0.1396637	0.2853446	0	0	0	0	0	0
11.07256	-0.1396637	0.2853446	0	0	0	0	0	0
11.08913	-0.1396637	0.2853446	0	0	0	0	0	0
11.1057	-0.1396637	0.2853446	0	0	0	0	0	0
11.12226	-0.1396637	0.2853446	0	0	0	0	0	0
11.13884	-0.1396637	0.2853446	0	0	0	0	0	0
11.1554	-0.1396637	0.2853446	0	0	0	0	0	0
11.17196	-0.1396637	0.2853446	0	0	0	0	0	0
11.18853	-0.1396637	0.2853446	0	0	0	0	0	0
11.2051	-0.1396637	0.2853446	0	0	0	0	0	0
11.22166	-0.1396379	0.2853267	0.001557823	-0.001079323	0.04701654	-0.03257497	0	0
11.23823	-0.1396379	0.2853267	0	0	-0.04701654	0.03257497	0	0
11.2548	-0.1396379	0.2853267	0	0	0	0	0	0
11.27136	-0.1396121	0.2853088	0.001557013	-0.001079385	0.0469921	-0.03257685	0	0
11.28793	-0.1396121	0.2853088	0	0	-0.04699345	0.03257778	0	0
11.30449	-0.1395863	0.285291	0.001557913	-0.001079385	0.0470206	-0.03257778	0	0
11.32106	-0.1395863	0.285291	0	0	-0.0470206	0.03257778	0	0
11.33763	-0.1395863	0.285291	0	0	0	0	0	0
11.35419	-0.1395863	0.285291	0	0	0	0	0	0
11.371	-0.1395863	0.285291	0	0	0	0	0	0
11.38733	-0.1395605	0.2852731	0.001580753	-0.00109521	0.04770861	-0.03305446	0	0
11.40402	-0.1395605	0.2852731	0	0	-0.04787119	0.03316711	0	0
11.42046	-0.1395863	0.285291	-0.001569933	0.001087713	-0.04738203	0.03282819	0	0
11.43703	-0.1395605	0.2852731	0.001557913	-0.001079385	0.09476678	-0.06565827	0	0
11.45359	-0.1395863	0.285291	-0.001557913	0.001079385	-0.0940412	0.06515557	0	0
11.47016	-0.1395863	0.285291	0	0	0.0470206	-0.03257778	0	0
11.48673	-0.1395863	0.285291	0	0	0	0	0	0
11.50329	-0.1395863	0.285291	0	0	0	0	0	0
11.51986	-0.1395863	0.285291	0	0	0	0	0	0
11.53643	-0.1395863	0.285291	0	0	0	0	0	0
11.55597	-0.1395863	0.285291	0	0	0	0	0	0
11.57254	-0.1395863	0.285291	0	0	0	0	0	0
11.58915	-0.1395863	0.285291	0	0	0	0	0	0
11.60567	-0.1395863	0.285291	0	0	0	0	0	0
11.62224	-0.1395863	0.285291	0	0	0	0	0	0
11.63881	-0.1395863	0.285291	0	0	0	0	0	0
11.65537	-0.1395863	0.285291	0	0	0	0	0	0
11.67194	-0.1395863	0.285291	0	0	0	0	0	0
11.68851	-0.1395863	0.285291	0	0	0	0	0	0
11.70523	-0.1395863	0.285291	0	0	0	0	0	0
11.72164	-0.1395863	0.285291	0	0	0	0	0	0
11.73821	-0.1395863	0.285291	0	0	0	0	0	0
11.7879	-0.1395863	0.285291	0	0	0	0	0	0
11.8048	-0.1395863	0.285291	0	0	0	0	0	0
11.82131	-0.1395863	0.285291	0	0	0	0	0	0
11.83782	-0.1395863	0.285291	0	0	0	0	0	0
11.85417	-0.1395863	0.285291	0	0	0	0	0	0
11.87074	-0.1395863	0.285291	0	0	0	0	0	0
11.88736	-0.1395605	0.2852731	0.001552728	-0.001075793	0.04678468	-0.03241432	0	0
11.90387	-0.1395605	0.2852731	0	0	-0.04686413	0.03246937	0	0
11.92044	-0.1395605	0.2852731	0	0	0	0	0	0
11.93739	-0.1395605	0.2852731	0	0	0	0	0	0
11.95357	-0.1395605	0.2852731	0	0	0	0	0	0
11.97014	-0.1395605	0.2852731	0	0	0	0	0	0
11.9867	-0.1395605	0.2852731	0	0	0	0	0	0
12.00327	-0.1395605	0.2852731	0	0	0	0	0	0
12.01984	-0.1395605	0.2852731	0	0	0	0	0	0
12.05297	-0.1395605	0.2852731	0	0	0	0	0	0
12.06954	-0.1395605	0.2852731	0	0	0	0	0	0
12.0861	-0.1395605	0.2852731	0	0	0	0	0	0
12.10267	-0.1395605	0.2852731	0	0	0	0	0	0
12.11924	-0.1395605	0.2852731	0	0	0	0	0	0
12.13603	-0.1395605	0.2852731	0	0	0	0	0	0
12.15237	-0.1395605	0.2852731	0	0	0	0	0	0
12.16905	-0.1395605	0.2852731	0	0	0	0	0	0
12.18557	-0.1395605	0.2852731	0	0	0	0	0	0
12.20208	-0.1395605	0.2852731	0	0	0	0	0	0
12.21863	-0.1395605	0.2852731	0	0	0	0	0	0
12.2356	-0.1395605	0.2852731	0	0	0	0	0	0
12.25177	-0.1395605	0.2852731	0	0	0	0	0	0
12.26863	-0.1395605	0.2852731	0	0	0	0	0	0
12.2849	-0.1395605	0.2852731	0	0	0	0	0	0
12.3208	-0.1395605	0.2852731	0	0	0	0	0	0
12.33736	-0.1395605	0.2852731	0	0	0	0	0	0
12.35393	-0.1395347	0.2852552	0.001557823	-0.001081122	0.04701654	-0.03262927	0	0
12.3705	-0.1395347	0.2852552	0	0	-0.04701789	0.03263021	0	0
12.38706	-0.1395347	0.2852552	0	0	0	0	0	0
12.40363	-0.1395089	0.2852373	0.001557913	-0.001079385	0.04701925	-0.03257685	0	0
12.42023	-0.1395347	0.2852194	-0.001554691	-0.001077153	-0.09384672	6.730399E-05	0	0
12.43676	-0.1395089	0.2852015	0.001561148	-0.001081627	0.09404161	-0.0001350286	0	0
12.45333	-0.1395089	0.2852015	0	0	-0.04716577	0.03267836	0	0
12.4699	-0.1395089	0.2852015	0	0	0	0	0	0
12.48646	-0.1394831	0.2851836	0.001557913	-0.001079385	0.0470206	-0.03257778	0	0
12.50303	-0.1394831	0.2851836	0	0	-0.0470206	0.03257778	0	0
12.5196	-0.1395089	0.2852015	-0.001557913	0.001079385	-0.0470206	0.03257778	0	0
12.55282	-0.1395089	0.2852015	0	0	0.03128643	-0.02167651	0	0
12.56933	-0.1395089	0.2852015	0	0	0	0	0	0
12.58586	-0.1395089	0.2852015	0	0	0	0	0	0
12.60243	-0.1395089	0.2852015	0	0	0	0	0	0
12.61899	-0.1395089	0.2852015	0	0	0	0	0	0
12.63556	-0.1395089	0.2852015	0	0	0	0	0	0
12.65213	-0.1395089	0.2852015	0	0	0	0	0	0
12.66869	-0.1395089	0.2852015	0	0	0	0	0	0
12.68526	-0.1395089	0.2852015	0	0	0	0	0	0
12.70193	-0.1394831	0.2851836	0.001548375	-0.001072777	0.04658926	-0.03227893	0	0
12.71839	-0.1394831	0.2851836	0	0	-0.0467314	0.03237741	0	0
12.73496	-0.1394831	0.2851836	0	0	0	0	0	0
12.75153	-0.1394831	0.2851836	0	0	0	0	0	0
12.76809	-0.1394831	0.2851836	0	0	0	0	0	0
12.78466	-0.1394831	0.2851836	0	0	0	0	0	0
12.80123	-0.1394831	0.2851836	0	0	0	0	0	0
12.81779	-0.1394831	0.2851836	0	0	0	0	0	0
12.83436	-0.1394831	0.2851836	0	0	0	0	0	0
12.85093	-0.1395089	0.2852015	-0.001557913	0.001079385	-0.0470206	0.03257778	0	0
12.86755	-0.1395089	0.2852015	0	0	0.04694223	-0.03252349	0	0
12.93376	-0.1395089	0.2852015	0	0	0	0	0	0
12.95032	-0.1395089	0.2852015	0	0	0	0	0	0
12.97085	-0.1394831	0.2851836	0.001257259	-0.0008710801	0.03389376	-0.02348297	0	0
12.98742	-0.1394831	0.2851836	0	0	-0.03389289	0.02348237	0	0
13.00414	-0.1394831	0.2851836	0	0	0	0	0	0
13.02055	-0.1394831	0.2851836	0	0	0	0	0	0
13.03716	-0.1394573	0.2851658	0.001553976	-0.001076658	0.04705893	-0.03260434	0	0
13.05369	-0.1394573	0.2851658	0	0	-0.04690045	0.03249454	0	0
13.07025	-0.1394315	0.2851479	0.001557013	-0.001079385	0.04705169	-0.03261815	0	0
13.08682	-0.1394057	0.28513	0.001557913	-0.001079385	2.714626E-05	0	0	0
13.10371	-0.1394057	0.28513	0	0	-0.04656623	0.03226297	0	0
13.11995	-0.1394057	0.28513	0	0	0	0	0	0
13.13652	-0.1393798	0.2851121	0.001557913	-0.001079385	0.04748255	-0.03289784	0	0
13.15308	-0.1393798	0.2851121	0	0	-0.0470206	0.03257778	0	0
13.16975	-0.1394057	0.28513	-0.001548464	0.001072839	-0.04659326	0.0322817	0	0
13.18622	-0.1394057	0.28513	0	0	0.04673407	-0.03237926	0	0
13.20278	-0.1394057	0.28513	0	0	0	0	0	0
13.21935	-0.1394057	0.28513	0	0	0	0	0	0
13.23592	-0.1394057	0.28513	0	0	0	0	0	0
13.25249	-0.1394057	0.28513	0	0	0	0	0	0
13.26905	-0.1394057	0.28513	0	0	0	0	0	0
13.28584	-0.1394057	0.28513	0	0	0	0	0	0
13.30218	-0.1394057	0.28513	0	0	0	0	0	0
13.31886	-0.1394057	0.28513	0	0	0	0	0	0
13.33532	-0.1394057	0.28513	0	0	0	0	0	0
13.35188	-0.1394057	0.28513	0	0	0	0	0	0
13.36845	-0.1394057	0.28513	0	0	0	0	0	0
13.38502	-0.1394057	0.28513	0	0	0	0	0	0
13.40158	-0.1394057	0.28513	0	0	0	0	0	0
13.41815	-0.1394057	0.28513	0	0	0	0	0	0
13.43494	-0.1394057	0.28513	0	0	0	0	0	0
13.45145	-0.1394057	0.28513	0	0	0	0	0	0
13.46796	-0.1394057	0.28513	0	0	0	0	0	0
13.48442	-0.1393798	0.2851121	0.001568568	-0.001086768	0.04758325	-0.03296761	0	0
13.50099	-0.1393798	0.2851121	0	0	-0.04749805	0.03290858	0	0
13.51755	-0.1393798	0.2851121	0	0	0	0	0	0
13.53412	-0.1393798	0.2851121	0	0	0	0	0	0
13.55068	-0.1393798	0.2851121	0	0	0	0	0	0
13.56725	-0.1394057	0.28513	-0.001557913	0.001079385	-0.0470206	0.03257778	0	0
13.58382	-0.1394057	0.28513	0	0	0.0470206	-0.03257778	0	0
13.60056	-0.1394315	0.2851479	-0.001541671	0.001068133	-0.04628661	0.03206924	0	0
13.63622	-0.1395089	0.2852373	-0.002170487	0.002506819	-0.01199885	0.02745253	0	0
13.65279	-0.1395863	0.2853625	-0.004673738	0.007557495	-0.04792581	0.09669737	0	0
13.66935	-0.1396379	0.2855413	-0.003114926	0.01079385	0.04704776	0.09767906	0	0
13.68612	-0.1395347	0.2857559	0.006158428	0.01280405	0.2782526	0.06031733	0	0
13.70249	-0.140025	0.2863103	-0.02994579	0.03385841	-1.089659	0.6354402	0	0
13.71905	-0.1404636	0.2866143	-0.02647732	0.01835135	0.1053001	-0.470782	0	0
13.8022	-0.1427333	0.288152	-0.02729832	0.01849543	-0.008233899	0.001445047	0	0
13.81845	-0.1427075	0.2881342	0.001586792	-0.001100029	0.2905987	-0.1971402	0	0
13.83502	-0.1426044	0.2880626	0.006224995	-0.004317292	0.1413112	-0.09801971	0	0
13.85173	-0.1426044	0.2880269	0	-0.002138139	-0.1870524	0.06548049	0	0
13.86815	-0.1425786	0.288009	0.001569759	-0.00108885	0.04737542	0.03166761	0	0
13.88476	-0.1425786	0.288009	0	0	-0.04753275	0.03297069	0	0
13.90129	-0.1425528	0.2879911	0.001560427	-0.001081752	0.04709648	-0.0326492	0	0
13.91785	-0.1425786	0.288009	-0.001556923	0.001079323	-0.09418754	0.06529465	0	0
13.93442	-0.1425786	0.288009	0	0	0.0469894	-0.03257497	0	0
13.95099	-0.1425786	0.288009	0	0	0	0	0	0
13.96781	-0.1425786	0.2880448	0	0.002125368	0	0.06364731	0	0
13.98433	-0.1425786	0.2880448	0	0	0	-0.06374926	0	0
14.00084	-0.1425786	0.2880448	0	0	0	0	0	0
14.01735	-0.1425786	0.2880448	0	0	0	0	0	0
14.03382	-0.1425528	0.2880626	0.001566028	0.001083825	0.04748011	0.0328603	0	0
14.05039	-0.1425012	0.2880626	0.003112048	0	0.046795	-0.03280528	0	0
14.06695	-0.1421402	0.2880626	0.02179063	0	0.5637208	0	0	0
14.08352	-0.1396379	0.2884024	0.1510483	0.02050832	3.901115	0.6189601	0	0
14.10009	-0.1361524	0.2892785	0.2103974	0.05288628	1.791263	0.9772249	0	0
14.11692	-0.1271783	0.2910843	0.5331472	0.1072787	9.663565	1.628582	0	0
14.13322	-0.1178202	0.2930329	0.574075	0.1195391	1.23524	0.3700298	0	0
14.14979	-0.1069587	0.2948919	0.6556406	0.1122183	2.481655	-0.2227367	0	0
14.16635	-0.09163737	0.2968223	0.9248492	0.1165268	8.125197	0.1300396	0	0
14.18296	-0.08053596	0.2997713	0.6683128	0.1775283	-7.732268	1.838646	0	0
14.19998	-0.06999075	0.3035776	0.6198467	0.2237356	-1.441427	1.374248	0	0
14.21605	-0.06055744	0.3086519	0.5867914	0.3156404	-0.9989913	2.77753	0	0
14.23262	-0.04867205	0.3167799	0.7174448	0.4906345	4.002573	5.360952	0	0
14.24919	-0.04013633	0.3225846	0.5152173	0.3503752	-6.103415	-4.233156	0	0
14.26603	-0.02812416	0.3307461	0.7132721	0.4846201	5.928335	4.018325	0	0
14.28254	-0.01897141	0.3369605	0.5544401	0.3764461	-4.762717	-3.243693	0	0
14.29889	-0.009710222	0.3432462	0.5664076	0.3844306	0.3642088	0.2429945	0	0
14.31556	0.002999991	0.3518715	0.7622755	0.5172873	5.930936	4.022938	0	0
14.33202	0.01220992	0.3581222	0.5595521	0.3797656	-6.11838	-4.15053	0	0
14.34859	0.02152299	0.3644451	0.5621705	0.3816742	0.07928458	0.05779039	0	0
14.36843	0.03587933	0.3741994	0.7233885	0.4915005	4.427577	3.016191	0	0
14.38511	0.04084569	0.3775766	0.2978157	0.202521	-11.65253	-7.912498	0	0
14.40162	0.04982714	0.383689	0.5439061	0.3701541	7.414858	5.050893	0	0
14.41813	0.05512829	0.3873357	0.3210315	0.2208418	-6.748512	-4.521091	0	0
14.4347	0.06034769	0.3908579	0.3150432	0.2126015	-0.1810251	-0.2491013	0	0
14.45127	0.06066232	0.3910367	0.01899246	0.01079385	-8.935085	-6.090741	0	0
14.46783	0.06066232	0.3910367	0	0	-0.5732265	-0.3257778	0	0
14.48468	0.06066232	0.3910367	0	0	0	0	0	0
14.50097	0.06066232	0.3910367	0	0	0	0	0	0
14.5177	0.06066232	0.3910367	0	0	0	0	0	0
14.5341	0.06066232	0.3910367	0	0	0	0	0	0
14.55067	0.0606361	0.3910546	-0.001582648	0.001079385	-0.04801039	0.03274366	0	0
14.56723	0.0606361	0.3910546	0	0	0.04776718	-0.03257778	0	0
14.5838	0.06060988	0.3910367	-0.001582648	-0.001079385	-0.04776718	-0.03257778	0	0
14.60037	0.06058366	0.3910188	-0.001582873	-0.001079385	-6.788321E-06	0	0	0
14.6335	0.06042635	0.3909115	-0.004747921	-0.003238062	-0.06368333	-0.04343434	0	0
14.65007	0.06034769	0.3908579	-0.004747897	-0.003237969	4.872038E-07	1.873861E-06	0	0
14.66663	0.06026903	0.3908043	-0.00474817	-0.003238156	-8.249751E-06	-5.621636E-06	0	0
14.6832	0.06021659	0.3907685	-0.003165522	-0.00215877	0.04776717	0.03257778	0	0
14.69983	0.06019036	0.3907506	-0.001576792	-0.001075238	0.04785844	0.03264001	0	0
14.71633	0.06016415	0.3907327	-0.001588776	-0.001083564	-0.0003617205	-0.0002513084	0	0
14.7329	0.0601117	0.390697	-0.003165564	-0.002158646	-0.04768088	-0.03250965	0	0
14.74946	0.06008548	0.3906433	-0.001582648	-0.003238156	0.04777388	-0.0325806	0	0
14.76638	0.06003304	0.3906076	-0.003101296	-0.002114821	-0.04536415	0.03355559	0	0
14.7826	0.06000682	0.3905897	-0.001616142	-0.001102228	0.04482335	0.03056099	0	0
14.79916	0.0599806	0.3905718	-0.001582873	-0.001079385	0.001014612	0.000696655	0	0
14.81573	0.05995438	0.3905539	-0.001582782	-0.001079323	2.751088E-06	1.876221E-06	0	0
14.8323	0.05992816	0.3905718	-0.001582648	0.001079385	4.037037E-06	0.06515182	0	0
14.84886	0.05992816	0.3905718	0	0	0.04776718	-0.03257778	0	0
14.86543	0.05992816	0.3905718	0	0	0	0	0	0
14.93123	0.05977083	0.3904645	-0.002391047	-0.001630529	-0.02902954	-0.01979615	0	0
14.9478	0.05969216	0.3904109	-0.004748347	-0.003237969	-0.02861949	-0.0195156	0	0
14.96437	0.05963971	0.3903751	-0.003165382	-0.002156723	0.04777258	0.03263114	0	0
14.98093	0.05953483	0.3903036	-0.006331494	-0.004317541	-0.09555343	-0.06521361	0	0
14.9975	0.05929882	0.3901427	-0.01424631	-0.009714467	-0.2388834	-0.1628889	0	0
15.01406	0.05903658	0.3899639	-0.01582963	-0.01079385	-0.04778756	-0.03257778	0	0
15.03063	0.05861698	0.3896778	-0.02532822	-0.01726836	-0.2866845	-0.1954124	0	0
15.05358	0.05672854	0.3883905	-0.08228105	-0.05608794	-1.441209	-0.9823414	0	0
15.07016	0.05644	0.3881938	-0.01740566	-0.01186324	1.641217	1.118796	0	0
15.08672	0.05630883	0.3881044	-0.007922076	-0.005400035	0.286215	0.19506	0	0
15.10328	0.05630883	0.3881044	0	0	0.2391713	0.1630297	0	0
15.11985	0.05630883	0.3881044	0	0	0	0	0	0
15.13663	0.05630883	0.3881044	0	0	0	0	0	0
15.15315	0.05630883	0.3881044	0	0	0	0	0	0
15.16966	0.05630883	0.3881044	0	0	0	0	0	0
15.18612	0.05630883	0.3881044	0	0	0	0	0	0
15.20268	0.05630883	0.3881044	0	0	0	0	0	0
15.21925	0.05630883	0.3881044	0	0	0	0	0	0
15.23582	0.05633507	0.3880866	0.001583457	-0.001079323	0.0477902	-0.03257497	0	0
15.25238	0.05633507	0.3880866	0	0	-0.0477902	0.03257497	0	0
15.26895	0.05630883	0.3880687	-0.001583548	-0.001079385	-0.04779433	-0.03257778	0	0
15.28551	0.05630883	0.3880687	0	0	0.04779433	0.03257778	0	0
15.30208	0.05625637	0.3880329	-0.003166871	-0.002156971	-0.09558186	-0.06510127	0	0
15.33527	0.05612521	0.3879435	-0.003951592	-0.002693579	-0.01577046	-0.01078414	0	0
15.35178	0.05607274	0.3879078	-0.003178073	-0.002166253	0.01556323	0.01060982	0	0
15.36835	0.05602027	0.387872	-0.003167461	-0.00215722	0.0003208746	0.0002731165	0	0
15.38491	0.05591534	0.3878005	-0.006334192	-0.004317541	-0.09558315	-0.06520613	0	0
15.40148	0.05578417	0.3877111	-0.00791774	-0.005395127	-0.04779433	-0.03252349	0	0
15.41805	0.055653	0.3876217	-0.007917965	-0.005396926	-6.774266E-06	-5.429251E-05	0	0
15.43461	0.05536442	0.3874608	-0.01741892	-0.009712108	-0.2867478	-0.1302362	0	0
15.45118	0.05510206	0.3872821	-0.01583683	-0.01079025	0.04774911	-0.03253943	0	0
15.46787	0.0548397	0.3871033	-0.01572121	-0.01071311	0.003476753	0.002319721	0	0
15.48438	0.0514283	0.3848151	-0.2066143	-0.1385863	-5.749911	-3.851681	0	0
15.50089	0.04783191	0.3823305	-0.2178182	-0.1504794	-0.3392858	-0.3601593	0	0
15.5179	0.04179144	0.3782557	-0.3550385	-0.2395039	-4.093134	-2.655505	0	0
15.53401	0.04047788	0.3773265	-0.08153502	-0.05767922	8.256966	5.489218	0	0
15.55093	0.04047788	0.3773265	0	0	2.469046	1.746644	0	0
15.56715	0.04047788	0.3773265	0	0	0	0	0	0
15.58371	0.04047788	0.3773265	0	0	0	0	0	0
15.60028	0.04047788	0.3773265	0	0	0	0	0	0
15.61685	0.04047788	0.3773265	0	0	0	0	0	0
15.63348	0.04047788	0.3773265	0	0	0	0	0	0
15.65	0.04047788	0.3773265	0	0	0	0	0	0
15.66655	0.0404516	0.3773086	-0.001587484	-0.00108038	-0.048014	-0.03267648	0	0
15.68578	0.04037279	0.3773265	-0.004097399	0.0009295984	-0.07013556	0.05616564	0	0
15.70235	0.04026769	0.3772907	-0.006343496	-0.002158646	-0.06273518	-0.08625697	0	0
15.71892	0.03932182	0.3767189	-0.05709282	-0.03451495	-1.531618	-0.9765153	0	0
15.73548	0.03262001	0.372234	-0.4045459	-0.2707224	-10.48646	-7.12896	0	0
15.75205	0.030622	0.3708762	-0.1206066	-0.08196491	8.5698	5.69704	0	0
15.76862	0.01923447	0.3631054	-0.6873925	-0.4690702	-17.10662	-11.68353	0	0
15.78518	0.01157843	0.3579079	-0.4621461	-0.3137431	6.798343	4.688052	0	0
15.8021	0.001105263	0.3508357	-0.6190131	-0.4180007	-4.684637	-3.113523	0	0
15.81832	-0.007605116	0.3449248	-0.5372012	-0.3645472	2.469159	1.613276	0	0
15.83488	-0.01928708	0.3370319	-0.7051654	-0.4764424	-5.123884	-3.413454	0	0
15.85145	-0.02517889	0.333139	-0.3556302	-0.2349776	10.5493	7.287632	0	0
15.86815	-0.03879631	0.3241027	-0.815192	-0.5409483	-13.81236	-9.196099	0	0
15.88466	-0.04347259	0.3210308	-0.2832717	-0.1860828	16.01559	10.68464	0	0
15.90117	-0.05347528	0.3145471	-0.6058562	-0.3927153	-9.769924	-6.258155	0	0
15.91772	-0.06053123	0.3100632	-0.4265113	-0.2710339	5.425914	3.681359	0	0
15.93428	-0.06645463	0.3062756	-0.3575583	-0.2286336	2.082565	1.280602	0	0
15.95085	-0.0732372	0.3020051	-0.4094198	-0.2577842	-1.565275	-0.8798172	0	0
15.96741	-0.07742387	0.2994317	-0.2527082	-0.155329	4.729702	3.092193	0	0
15.98398	-0.08100656	0.2973049	-0.2162638	-0.1283821	1.099925	0.8132825	0	0
16.00055	-0.084352	0.2956963	-0.2019431	-0.09710329	0.4322259	0.9440498	0	0
16.01725	-0.08450877	0.2958393	-0.009384723	0.008560031	5.787602	3.175854	0	0
16.03368	-0.08458716	0.2958929	-0.004771584	0.003265413	0.1392328	-0.1598011	0	0
16.05028	-0.08456103	0.295875	0.001574442	-0.001077462	0.192165	-0.1315073	0	0
16.06681	-0.08458716	0.2958572	-0.001579889	-0.00108119	-0.09519789	-0.0001125068	0	0
16.08338	-0.08458716	0.2958572	0	0	0.04772235	0.03265858	0	0
16.09995	-0.08463941	0.2958214	-0.003153872	-0.002156847	-0.09518404	-0.06509378	0	0
16.11683	-0.08469167	0.2957857	-0.003096568	-0.002119123	0.001713447	0.001127998	0	0
16.13308	-0.08487456	0.2956248	-0.01125035	-0.009896017	-0.2460957	-0.2347206	0	0
16.14985	-0.08680761	0.2943378	-0.1152988	-0.07676337	-3.15089	-2.024938	0	0
16.16621	-0.09048904	0.2918172	-0.224931	-0.154003	-3.308896	-2.331232	0	0
16.18287	-0.1004242	0.2850048	-0.5965281	-0.4090325	-11.25304	-7.723035	0	0
16.19938	-0.104018	0.2825367	-0.2176463	-0.1494744	11.4235	7.825821	0	0
16.21591	-0.1077131	0.2799252	-0.2235008	-0.1579589	-0.1771677	-0.2567559	0	0
16.23248	-0.1123148	0.2767586	-0.2777611	-0.1911355	-1.639279	-1.002312	0	0
16.24905	-0.1131203	0.2761682	-0.04861856	-0.03563925	6.915536	4.692887	0	0
16.26562	-0.1131203	0.2761682	0	0	1.467311	1.075595	0	0
16.28244	-0.1130943	0.2761503	0.001543992	-0.001062684	0.04623579	-0.03182274	0	0
16.29877	-0.1130943	0.2761503	0	0	-0.04657363	0.03205527	0	0
16.3879	-0.1130164	0.2760966	0.0008745573	-0.0006025434	0.008293299	-0.005713831	0	0
16.40453	-0.1129904	0.2760787	0.001561873	-0.001074991	0.006498671	-0.004467066	0	0
16.42103	-0.1129644	0.2760608	0.001574693	-0.001083815	0.0003869308	-0.0002663116	0	0
16.45416	-0.1128085	0.2759534	0.004704724	-0.003240668	0.06306348	-0.043456	0	0
16.47073	-0.1127825	0.2758998	0.001568616	-0.003239768	-0.06309862	1.809646E-05	0	0
16.4873	-0.1127565	0.2758819	0.001568166	-0.001079323	-1.357235E-05	0.06520236	0	0
16.50386	-0.1127565	0.2758819	0	0	-0.04732736	0.03257403	0	0
16.52043	-0.1127565	0.2758819	0	0	0	0	0	0
16.53712	-0.1127565	0.2758819	0	0	0	0	0	0
16.55356	-0.1127565	0.2758819	0	0	0	0	0	0
16.57013	-0.1127565	0.2758819	0	0	0	0	0	0
16.5867	-0.1127565	0.2758819	0	0	0	0	0	0
16.60327	-0.1127565	0.2758819	0	0	0	0	0	0
16.61983	-0.1127565	0.2758819	0	0	0	0	0	0
16.6364	-0.1127565	0.2758819	0	0	0	0	0	0
16.65297	-0.1127565	0.2758819	0	0	0	0	0	0
16.66953	-0.1127306	0.275864	0.001568166	-0.001081122	0.04732736	-0.03262833	0	0
16.6861	-0.1127306	0.275864	0	0	-0.04732736	0.03262833	0	0
16.70267	-0.1126526	0.2758103	0.004704949	-0.003239768	0.1419956	-0.0977764	0	0
16.71924	-0.1125227	0.2757208	0.007842181	-0.005400213	0.09468186	-0.06520236	0	0
16.7358	-0.1124187	0.2756493	0.006273565	-0.004319091	-0.04734092	0.03262833	0	0
16.75237	-0.1121589	0.2754703	0.01568481	-0.01080043	0.284032	-0.1956071	0	0
16.76894	-0.112003	0.275363	0.009411247	-0.006481335	-0.1893366	0.1303504	0	0
16.78551	-0.1110414	0.2747009	0.05804374	-0.03996193	1.467732	-1.010447	0	0
16.80232	-0.1110154	0.274683	0.001545929	-0.00106518	-1.692442	1.165187	0	0
16.81883	-0.1110154	0.274683	0	0	-0.04638653	0.03196137	0	0
16.83521	-0.1109894	0.2746651	0.001587525	-0.001092021	0.04827286	-0.03320575	0	0
16.85177	-0.1110154	0.2746472	-0.001569066	-0.001079323	-0.09582322	0.0003854675	0	0
16.86837	-0.1110154	0.2746472	0	0	0.04731365	0.03254593	0	0
16.88491	-0.1110154	0.2746472	0	0	0	0	0	0
16.90458	-0.1110154	0.2746472	0	0	0	0	0	0
16.92115	-0.1110154	0.2746472	0	0	0	0	0	0
16.93771	-0.1110154	0.2746472	0	0	0	0	0	0
16.95443	-0.1110154	0.2746472	0	0	0	0	0	0
16.97094	-0.1110154	0.2746472	0	0	0	0	0	0
16.98741	-0.1110154	0.2746472	0	0	0	0	0	0
17.00398	-0.1110154	0.2746472	0	0	0	0	0	0
17.02055	-0.1110154	0.2746472	0	0	0	0	0	0
17.03749	-0.1110154	0.2746472	0	0	0	0	0	0
17.05368	-0.1110154	0.2746472	0	0	0	0	0	0
17.07051	-0.1110154	0.2746472	0	0	0	0	0	0
17.08681	-0.1110154	0.2746472	0	0	0	0	0	0
17.10354	-0.1110154	0.2746472	0	0	0	0	0	0
17.11995	-0.1110154	0.2746472	0	0	0	0	0	0
17.13652	-0.1110154	0.2746472	0	0	0	0	0	0
17.15308	-0.1110154	0.2746472	0	0	0	0	0	0
17.16965	-0.1110154	0.2746472	0	0	0	0	0	0
17.18622	-0.1109894	0.2746293	0.001569066	-0.001081122	0.0473545	-0.03262833	0	0
17.20278	-0.1109894	0.2746293	0	0	-0.04735723	0.03263021	0	0
17.21962	-0.1110154	0.2746114	-0.001543827	-0.001061962	-0.04621767	-0.03179204	0	0
17.23592	-0.1110414	0.2746293	-0.001595144	0.001097261	-0.001548734	0.06516548	0	0
17.25264	-0.1110154	0.2746114	0.001554037	-0.001068985	0.09536085	-0.06559645	0	0
17.26905	-0.1110154	0.2746114	0	0	-0.04690364	0.03226389	0	0
17.28562	-0.1110154	0.2746114	0	0	0	0	0	0
17.31875	-0.1110154	0.2746114	0	0	0	0	0	0
17.33532	-0.1109894	0.2745935	0.001569066	-0.001081122	0.03156967	-0.02175222	0	0
17.35188	-0.1109634	0.2745757	0.001568616	-0.001079323	-1.357235E-05	5.42929E-05	0	0
17.36845	-0.1109634	0.2745757	0	0	-0.04734093	0.03257403	0	0
17.38524	-0.1109374	0.2745577	0.001548387	-0.001066874	0.04642046	-0.03198475	0	0
17.40158	-0.1109374	0.2745577	0	0	-0.04673311	0.03220018	0	0
17.41826	-0.1109374	0.2745577	0	0	0	0	0	0
17.43477	-0.1109114	0.2745399	0.001574322	-0.001082939	0.04743395	-0.03262869	0	0
17.45128	-0.1109114	0.2745399	0	0	-0.04767505	0.03279453	0	0
17.46785	-0.1108854	0.2745219	0.001569066	-0.001081122	0.04743642	-0.03268477	0	0
17.48442	-0.1108594	0.2744683	0.001568616	-0.003239768	-1.357235E-05	-0.06514806	0	0
17.50132	-0.1108594	0.2744683	0	0	-0.04686612	0.09679573	0	0
17.51783	-0.1108334	0.2744504	0.001574322	-0.001082939	0.04711446	-0.03240891	0	0
17.55389	-0.1108594	0.2744325	-0.0007210299	-0.0004968059	-0.04366724	0.01115071	0	0
17.57045	-0.1108594	0.2744325	0	0	0.0137026	0.009441401	0	0
17.58702	-0.1108854	0.2744146	-0.001568616	-0.001079323	-0.04734093	-0.03257403	0	0
17.60359	-0.1108594	0.2743967	0.001568616	-0.001081122	0.09468186	-5.42929E-05	0	0
17.62041	-0.1108854	0.2743788	-0.001545135	-0.001063166	-0.09326453	0.0005378166	0	0
17.63692	-0.1108854	0.2743788	0	0	0.04635741	0.0318973	0	0
17.65329	-0.1108854	0.2743788	0	0	0	0	0	0
17.66994	-0.1108594	0.2743609	0.001560353	-0.001073637	0.04724929	-0.03251098	0	0
17.68642	-0.1108594	0.2743609	0	0	-0.04709425	0.0324043	0	0
17.70299	-0.1108594	0.2743609	0	0	0	0	0	0
17.71955	-0.1108334	0.274343	0.001569066	-0.001081122	0.0473545	-0.03262833	0	0
17.73612	-0.1108334	0.274343	0	0	-0.04735723	0.03263021	0	0
17.75269	-0.1108074	0.2743251	0.001569066	-0.001079323	0.04735723	-0.03257591	0	0
17.76925	-0.1108074	0.2743251	0	0	-0.0473545	0.03257403	0	0
17.78602	-0.1107554	0.2742893	0.003100297	-0.002134398	0.09299969	-0.06402559	0	0
17.80239	-0.1107554	0.2742893	0	0	-0.09357254	0.06441996	0	0
17.81895	-0.1107554	0.2742535	0	-0.002160445	0	-0.06560645	0	0
17.83552	-0.1107294	0.2742356	0.001569247	-0.001081246	0.04736268	0.03257215	0	0
17.85209	-0.1107034	0.2742178	0.001569066	-0.001079323	-5.453144E-06	5.805209E-05	0	0
17.86865	-0.1107294	0.2741999	-0.001569066	-0.001079323	-0.094709	0	0	0
17.88522	-0.1107554	0.274182	-0.001569247	-0.001081246	-5.453144E-06	-5.805209E-05	0	0
17.90179	-0.1107554	0.2741462	0	-0.002160445	0.04736268	-0.03257215	0	0
17.91835	-0.1108334	0.2740925	-0.004707198	-0.003239768	-0.1420635	-0.03257404	0	0
17.93492	-0.1126006	0.2729114	-0.1066827	-0.0713011	-3.077803	-2.054213	0	0
17.95164	-0.1157695	0.2707279	-0.1895262	-0.1305933	-2.488904	-1.781343	0	0
17.96806	-0.1234998	0.2654288	-0.4708334	-0.3227485	-8.48889	-5.798585	0	0
17.98462	-0.1252618	0.2641396	-0.1063869	-0.07784608	11.05054	7.425792	0	0
18.00119	-0.1268417	0.2631189	-0.09536269	-0.06161136	0.3327703	0.4900495	0	0
18.01775	-0.1291974	0.2614533	-0.1421909	-0.1005353	-1.413279	-1.174728	0	0
18.03432	-0.1312154	0.2600562	-0.1218079	-0.08432931	0.6151606	0.4890991	0	0
18.05089	-0.1311895	0.2600741	0.001561421	0.001081122	3.723294	2.577692	0	0
18.07306	-0.1311895	0.2600741	0	0	-0.04030893	-0.02790976	0	0
18.10619	-0.1311895	0.2600741	0	0	0	0	0	0
18.12276	-0.1311895	0.2600741	0	0	0	0	0	0
18.13933	-0.1311895	0.2600741	0	0	0	0	0	0
18.15997	-0.1311895	0.2600741	0	0	0	0	0	0
18.1768	-0.1311895	0.2600741	0	0	0	0	0	0
18.24285	-0.1311895	0.2600741	0	0	0	0	0	0
18.25937	-0.1311895	0.2600741	0	0	0	0	0	0
18.27594	-0.1311895	0.2600741	0	0	0	0	0	0
18.29289	-0.1312154	0.260092	-0.001526277	0.001056789	-0.04554145	0.03153273	0	0
18.30907	-0.1312154	0.260092	0	0	0.04606579	-0.03189578	0	0
18.32564	-0.1312154	0.260092	0	0	0	0	0	0
18.34242	-0.1312154	0.260092	0	0	0	0	0	0
18.35893	-0.1312154	0.260092	0	0	0	0	0	0
18.37534	-0.1312154	0.260092	0	0	0	0	0	0
18.3919	-0.1312154	0.260092	0	0	0	0	0	0
18.40897	-0.1312154	0.260092	0	0	0	0	0	0
18.4416	-0.1312154	0.260092	0	0	0	0	0	0
18.45817	-0.1311895	0.2600741	0.0015616	-0.001081246	0.03173858	-0.02197568	0	0
18.47474	-0.1311895	0.2600741	0	0	-0.04713191	0.03263396	0	0
18.4913	-0.1311895	0.2600741	0	0	0	0	0	0
18.50804	-0.1311895	0.2600741	0	0	0	0	0	0
18.52455	-0.1311895	0.2600741	0	0	0	0	0	0
18.54106	-0.1311895	0.2600741	0	0	0	0	0	0
18.55758	-0.1311895	0.2600741	0	0	0	0	0	0
18.57414	-0.1311895	0.2600741	0	0	0	0	0	0
18.59071	-0.1311895	0.2600741	0	0	0	0	0	0
18.60727	-0.1311895	0.2600741	0	0	0	0	0	0
18.62384	-0.1311895	0.2600741	0	0	0	0	0	0
18.64041	-0.1311895	0.2600741	0	0	0	0	0	0
18.65697	-0.1311895	0.2600741	0	0	0	0	0	0
18.67366	-0.1311895	0.2600741	0	0	0	0	0	0
18.69017	-0.1311895	0.2600741	0	0	0	0	0	0
18.70668	-0.1311895	0.2600741	0	0	0	0	0	0
18.72324	-0.1311895	0.2600741	0	0	0	0	0	0
18.73981	-0.1311895	0.2600741	0	0	0	0	0	0
18.75638	-0.1311895	0.2600741	0	0	0	0	0	0
18.77323	-0.1311895	0.2600741	0	0	0	0	0	0
18.78951	-0.1311895	0.2600741	0	0	0	0	0	0
18.80625	-0.1311895	0.2600741	0	0	0	0	0	0
18.82277	-0.1311895	0.2600741	0	0	0	0	0	0
18.83921	-0.1311895	0.2600741	0	0	0	0	0	0
18.86201	-0.1311895	0.2600741	0	0	0	0	0	0
18.87881	-0.1311895	0.2600741	0	0	0	0	0	0
18.89532	-0.1311637	0.2600562	0.001565749	-0.001084744	0.04701084	-0.03256889	0	0
18.91183	-0.1311637	0.2600562	0	0	-0.04741269	0.03284729	0	0
18.92834	-0.1311895	0.2600383	-0.001565749	-0.001084744	-0.04741269	-0.03284729	0	0
18.94485	-0.1311895	0.2600383	0	0	0.04742091	0.03285298	0	0
18.96142	-0.1311895	0.2600383	0	0	0	0	0	0
19.0268	-0.1311895	0.2600383	0	0	0	0	0	0
19.04337	-0.1311895	0.2600383	0	0	0	0	0	0
19.05994	-0.1311895	0.2600383	0	0	0	0	0	0
19.0765	-0.1311895	0.2600741	0	0.002162742	0	0.06527168	0	0
19.09307	-0.1311895	0.2600741	0	0	0	-0.06527919	0	0
19.10963	-0.1311895	0.2600741	0	0	0	0	0	0
19.1262	-0.1311895	0.2600741	0	0	0	0	0	0
19.14277	-0.1311895	0.2600741	0	0	0	0	0	0
19.15951	-0.1311895	0.2600741	0	0	0	0	0	0
19.19253	-0.1311895	0.2600741	0	0	0	0	0	0
19.20903	-0.1311895	0.2600741	0	0	0	0	0	0
19.2256	-0.1311895	0.2600741	0	0	0	0	0	0
19.24216	-0.1311895	0.2600741	0	0	0	0	0	0
19.25873	-0.1311895	0.2600741	0	0	0	0	0	0
19.2753	-0.1311895	0.2600741	0	0	0	0	0	0
19.29186	-0.1311637	0.2600562	0.001560521	-0.001081122	0.04709933	-0.03263021	0	0
19.30861	-0.1311637	0.2600562	0	0	-0.04684316	0.03245272	0	0
19.32512	-0.1311895	0.2600741	-0.00156593	0.001084869	-0.04708638	0.03262123	0	0
19.34156	-0.1311895	0.2600741	0	0	0.04751697	-0.03291954	0	0
19.35813	-0.1311895	0.2600741	0	0	0	0	0	0
19.3747	-0.1312154	0.2600562	-0.001561421	-0.001081122	-0.04712648	-0.03263021	0	0
19.39126	-0.1312154	0.2600562	0	0	0.04712377	0.03262833	0	0
19.40783	-0.1312154	0.2600562	0	0	0	0	0	0
19.4244	-0.1312154	0.2600562	0	0	0	0	0	0
19.44097	-0.1311895	0.2600741	0.001561421	0.001081122	0.04712377	0.03262833	0	0
19.45753	-0.1311895	0.2600741	0	0	-0.04712377	-0.03262833	0	0
19.49067	-0.1311895	0.2600741	0	0	0	0	0	0
19.50723	-0.1312154	0.2600562	-0.001561421	-0.001081122	-0.03141585	-0.02175222	0	0
19.52712	-0.1311895	0.2600741	0.001300834	0.000900693	0.07851852	0.05436594	0	0
19.54369	-0.1311637	0.2600562	0.001560521	-0.001081122	0.00712383	-0.05436594	0	0
19.56029	-0.1311637	0.2600562	0	0	-0.04704517	0.03259268	0	0
19.57682	-0.1311637	0.2600562	0	0	0	0	0	0
19.59339	-0.1311637	0.2600562	0	0	0	0	0	0
19.60995	-0.1311637	0.2600562	0	0	0	0	0	0
19.62652	-0.1311637	0.2600562	0	0	0	0	0	0
19.64335	-0.1311637	0.2600562	0	0	0	0	0	0
19.65965	-0.1311637	0.2600562	0	0	0	0	0	0
19.67622	-0.1311637	0.2600562	0	0	0	0	0	0
19.69279	-0.1311895	0.2600383	-0.001560701	-0.001081246	-0.04710747	-0.03263584	0	0
19.70939	-0.1311895	0.2600383	0	0	0.04704788	0.03259456	0	0
19.72592	-0.1311895	0.2600383	0	0	0	0	0	0
19.74249	-0.1311895	0.2600383	0	0	0	0	0	0
19.75905	-0.1311895	0.2600383	0	0	0	0	0	0
19.77562	-0.1311895	0.2600383	0	0	0	0	0	0
19.79219	-0.1311895	0.2600383	0	0	0	0	0	0
19.80897	-0.1311895	0.2600383	0	0	0	0	0	0
19.82532	-0.1311895	0.2600383	0	0	0	0	0	0
19.84199	-0.1311895	0.2600383	0	0	0	0	0	0
19.8585	-0.1311895	0.2600383	0	0	0	0	0	0
19.87502	-0.1311637	0.2600562	0.001564845	0.001084117	0.04736617	0.03281507	0	0
19.89159	-0.1311637	0.2600562	0	0	-0.0472979	-0.03276777	0	0
19.90816	-0.1311637	0.2600562	0	0	0	0	0	0
19.92472	-0.1311637	0.2600562	0	0	0	0	0	0
19.94129	-0.1311895	0.2600383	-0.001560701	-0.001081246	-0.04710747	-0.03263584	0	0
19.95785	-0.1311895	0.2600383	0	0	0.04710476	0.03263396	0	0
19.97442	-0.1311895	0.2600383	0	0	0	0	0	0
19.99099	-0.1311895	0.2600383	0	0	0	0	0	0
20.00761	-0.1311895	0.2600383	0	0	0	0	0	0
20.02412	-0.1311637	0.2600203	0.001565568	-0.001084618	0.04725165	-0.03273573	0	0
20.04069	-0.1311637	0.2600203	0	0	-0.04732521	0.03278669	0	0
20.05725	-0.1311378	0.2600024	0.001561421	-0.001081122	0.04712377	-0.03262833	0	0
20.10696	-0.1311119	0.2599845	0.0005204736	-0.000360374	-0.01570792	0.01087611	0	0
20.12352	-0.1311119	0.2599845	0	0	-0.007853962	0.005438054	0	0
20.14009	-0.1311119	0.2599845	0	0	0	0	0	0
20.16133	-0.1311119	0.2599845	0	0	0	0	0	0
20.1779	-0.1311119	0.2599845	0	0	0	0	0	0
20.19447	-0.1311119	0.2599845	0	0	0	0	0	0
20.21103	-0.1311119	0.2599845	0	0	0	0	0	0
20.2276	-0.1311119	0.2599845	0	0	0	0	0	0
20.24428	-0.1311119	0.2599845	0	0	0	0	0	0
20.26073	-0.1311119	0.2599845	0	0	0	0	0	0
20.2773	-0.1311119	0.2599845	0	0	0	0	0	0
20.29387	-0.1311119	0.2599845	0	0	0	0	0	0
20.31043	-0.1311119	0.2599845	0	0	0	0	0	0
20.327	-0.1311119	0.2599845	0	0	0	0	0	0
20.34357	-0.1311119	0.2599845	0	0	0	0	0	0
20.36013	-0.1311119	0.2599845	0	0	0	0	0	0
20.37687	-0.1311119	0.2599845	0	0	0	0	0	0
20.39338	-0.1311119	0.2599845	0	0	0	0	0	0
20.40983	-0.1311119	0.2599845	0	0	0	0	0	0
20.42641	-0.1311119	0.2599845	0	0	0	0	0	0
20.44297	-0.1311119	0.2599845	0	0	0	0	0	0
20.45993	-0.1311119	0.2599845	0	0	0	0	0	0
20.4761	-0.1311119	0.2599845	0	0	0	0	0	0
20.49267	-0.1311119	0.2599845	0	0	0	0	0	0
20.50947	-0.1311119	0.2599845	0	0	0	0	0	0
20.5258	-0.1311119	0.2599845	0	0	0	0	0	0
20.54237	-0.1311119	0.2599845	0	0	0	0	0	0
20.55893	-0.1311119	0.2599845	0	0	0	0	0	0
20.57551	-0.1311119	0.2599845	0	0	0	0	0	0
20.59207	-0.1311119	0.2599845	0	0	0	0	0	0
20.60863	-0.1311119	0.2599845	0	0	0	0	0	0
20.6252	-0.1311119	0.2599845	0	0	0	0	0	0
20.64177	-0.1311378	0.2600024	-0.001561241	0.001080998	-0.04711564	0.03262269	0	0
20.65833	-0.1311378	0.2600024	0	0	0.04711835	-0.03262457	0	0
20.6749	-0.1311378	0.2600024	0	0	0	0	0	0
20.6916	-0.1311378	0.2600024	0	0	0	0	0	0
20.70803	-0.1311378	0.2600024	0	0	0	0	0	0
20.7246	-0.1311378	0.2600024	0	0	0	0	0	0
20.74117	-0.1311378	0.2600024	0	0	0	0	0	0
20.79087	-0.1311378	0.2600383	0	0.0007208033	0	0.01087757	0	0
20.80768	-0.1311378	0.2600383	0	0	0	-0.01083764	0	0
20.824	-0.1311378	0.2600383	0	0	0	0	0	0
20.84057	-0.1311378	0.2600383	0	0	0	0	0	0
20.86111	-0.1311378	0.2600383	0	0	0	0	0	0
20.87773	-0.1311378	0.2600383	0	0	0	0	0	0
20.89424	-0.1311637	0.2600562	-0.00156647	0.001084618	-0.04727617	0.03273384	0	0
20.91081	-0.1311637	0.2600562	0	0	0.04735249	-0.03278669	0	0
20.92738	-0.1311637	0.2600562	0	0	0	0	0	0
20.94394	-0.1311637	0.2600562	0	0	0	0	0	0
20.99382	-0.1311378	0.2600383	0.0005186226	-0.0003590924	0.007805139	-0.005404249	0	0
21.01021	-0.1311378	0.2600383	0	0	-0.007826257	0.005418871	0	0
21.02683	-0.1311637	0.2600562	-0.001556046	0.001077401	-0.04713522	0.03263626	0	0
21.04335	-0.1311637	0.2600562	0	0	0.04695887	-0.03251415	0	0
21.05991	-0.1311637	0.2600562	0	0	0	0	0	0
21.07687	-0.1311637	0.2600562	0	0	0	0	0	0
21.09304	-0.1311637	0.2600562	0	0	0	0	0	0
21.1099	-0.1311637	0.260092	0	0.002125778	0	0.06436731	0	0
21.12618	-0.1311637	0.2601278	0	0.002199983	0	0.00223949	0	0
21.14292	-0.1312154	0.2601995	-0.003089926	0.004280139	-0.09357194	0.0629932	0	0
21.15943	-0.131474	0.2605577	-0.015662	0.02169417	-0.3780765	0.5236875	0	0
21.17588	-0.1321723	0.2613637	-0.04244967	0.04900024	-0.8126637	0.8283907	0	0
21.19245	-0.1363332	0.2644977	-0.251154	0.1891693	-6.321269	4.245464	0	0
21.20901	-0.1400508	0.2676131	-0.2244189	0.1880685	0.8069128	-0.03322528	0	0
21.22558	-0.1470106	0.2738419	-0.4200494	0.3759281	-5.90414	5.669614	0	0
21.24215	-0.1560626	0.285899	-0.5463174	0.7276786	-3.810338	10.61463	0	0
21.25872	-0.1599636	0.3034883	-0.2354886	1.061815	9.380831	10.08424	0	0
21.29185	-0.1630911	0.3301746	-0.09439313	0.8054417	2.839065	-5.158627	0	0
21.32498	-0.1702822	0.3807398	-0.2170414	1.52615	-1.850873	10.87613	0	0
21.34155	-0.1743434	0.4073341	-0.2451341	1.60523	-0.5652467	1.591166	0	0
21.35812	-0.1754662	0.4139583	-0.06777429	0.399837	5.352728	-36.37885	0	0
21.37468	-0.182601	0.4520603	-0.4306526	2.299845	-10.95169	57.34235	0	0
21.3916	-0.1869999	0.4693891	-0.2600695	1.024503	5.09483	-38.09082	0	0
21.40861	-0.1921776	0.485225	-0.304331	0.9307788	-1.304574	-2.762465	0	0
21.42438	-0.1962313	0.5004128	-0.2570208	0.962966	1.443028	0.9817525	0	0
21.44095	-0.1999246	0.5145524	-0.2229288	0.8534675	1.054204	-3.385946	0	0
21.45752	-0.2045714	0.5312803	-0.2804765	1.009699	-1.736793	4.715089	0	0
21.47408	-0.2092091	0.5414918	-0.2799691	0.61644	0.01531468	-11.86928	0	0
21.49065	-0.21532	0.5532464	-0.3688542	0.709511	-2.682712	2.80905	0	0
21.50722	-0.2209136	0.5605941	-0.337632	0.4435082	0.9422859	-8.027979	0	0
21.52778	-0.2246933	0.5710072	-0.1838242	0.5064414	4.142587	1.695011	0	0
21.54435	-0.2264183	0.5786471	-0.1041196	0.461148	2.146726	-1.219911	0	0
21.56122	-0.2291903	0.5871162	-0.1642957	0.5019465	-1.799543	1.220065	0	0
21.57748	-0.2308868	0.5924407	-0.1043188	0.3274213	1.810106	-5.267182	0	0
21.59424	-0.2323576	0.5949395	-0.08774839	0.1490776	0.5017706	-5.400454	0	0
21.61061	-0.2350971	0.5974216	-0.1673189	0.1516011	-2.401444	0.07615973	0	0
21.62718	-0.2369131	0.5988859	-0.1096151	0.08838217	1.751789	-1.91922	0	0
21.64375	-0.2377086	0.599813	-0.04801998	0.0559593	1.858946	-0.978524	0	0
21.66032	-0.2377086	0.5998501	0	0.002237797	1.449246	-1.621318	0	0
21.67688	-0.2376838	0.5999057	0.001500259	0.003356695	0.04527791	0.03376841	0	0
21.69345	-0.2376341	0.5999427	0.003000518	0.002237797	0.04527791	-0.03376841	0	0
21.71033	-0.2376092	0.5999984	0.00147279	0.003298768	-0.04568092	0.03172434	0	0
21.72658	-0.2375346	0.600017	0.00458777	0.001140297	0.09401568	-0.06514654	0	0
21.74315	-0.2374849	0.600054	0.003000518	0.002237797	-0.04835709	0.03343634	0	0
21.75972	-0.2374352	0.600017	0.003001417	-0.002237797	2.714469E-05	-0.1350737	0	0
21.77629	-0.2373855	0.600017	0.003000518	0	-2.714469E-05	0.06753683	0	0
21.79289	-0.2373358	0.5999799	0.002994866	-0.002232912	-0.0001703832	-0.0673158	0	0
21.8099	-0.237112	0.5998501	0.01315545	-0.007632036	0.3022796	-0.1606251	0	0
21.82599	-0.2366644	0.5995163	0.02782028	-0.02074689	0.44307	-0.3962404	0	0
21.84255	-0.235545	0.5987191	0.0675761	-0.04812536	1.217494	-0.8384465	0	0
21.85912	-0.2340764	0.5976996	0.0886337	-0.06152513	0.6355196	-0.4044057	0	0
21.87595	-0.2286911	0.5945507	0.3199716	-0.1870998	6.926372	-3.759768	0	0
21.89225	-0.2266182	0.5940508	0.127173	-0.03066493	-5.819345	4.721757	0	0
21.90882	-0.2102413	0.595884	0.9883959	0.1106359	26.20141	4.298863	0	0
21.92539	-0.201744	0.5984595	0.5129597	0.15548	-14.34869	1.353399	0	0
21.94195	-0.196282	0.6013154	0.3297262	0.1723985	-5.530634	0.5106614	0	0
21.95852	-0.189057	0.6023731	0.4361005	0.06384196	3.210567	-3.276433	0	0
21.97509	-0.1794945	0.6027443	0.5771905	0.02240675	4.258104	-1.250517	0	0
21.99165	-0.1735265	0.6029299	0.3602295	0.01120337	-6.547896	-0.3381185	0	0
22.00822	-0.1640133	0.6039695	0.5742179	0.06275184	6.458182	1.555736	0	0
22.02479	-0.1588092	0.604508	0.3141208	0.03250561	-7.849746	-0.9128331	0	0
22.04136	-0.1567046	0.6053253	0.1270217	0.04932298	-5.646336	0.50752	0	0
22.05792	-0.1524911	0.6078527	0.2543538	0.1525727	3.842889	3.116082	0	0
22.07449	-0.1519255	0.6074437	0.03414169	-0.02468772	-6.646396	-5.350038	0	0
22.09106	-0.1513083	0.6070348	0.03725284	-0.02468052	0.0938947	0.0002172138	0	0
22.10762	-0.1512055	0.6069976	0.006209521	-0.00224525	-0.9369431	0.6771367	0	0
22.12419	-0.1511797	0.606979	0.001552426	-0.001122496	-0.1405595	0.03388675	0	0
22.14076	-0.1511797	0.606979	0	0	-0.04685232	0.033877	0	0
22.15733	-0.1511797	0.606979	0	0	0	0	0	0
22.17808	-0.1511797	0.606979	0	0	0	0	0	0
22.19468	-0.1511797	0.606979	0	0	0	0	0	0
22.21121	-0.1511797	0.606979	0	0	0	0	0	0
22.22778	-0.1511797	0.606979	0	0	0	0	0	0
22.24435	-0.1512055	0.6069976	-0.001552426	0.001122496	-0.04685232	0.033877	0	0
22.26092	-0.1512055	0.6069976	0	0	0.04685232	-0.033877	0	0
22.27748	-0.1512055	0.6069976	0	0	0	0	0	0
22.29405	-0.151154	0.6070348	0.003104853	0.002244992	0.09370464	0.06775399	0	0
22.31062	-0.1508968	0.607295	0.01552695	0.01570596	0.3749212	0.4062761	0	0
22.32727	-0.1497134	0.6083361	0.07105242	0.06251074	1.671432	1.408921	0	0
22.34378	-0.142888	0.6137145	0.4133658	0.3257263	10.32094	7.936096	0	0
22.36032	-0.1408248	0.6155777	0.1247927	0.112699	-8.73278	-6.446618	0	0
22.37688	-0.1331031	0.6239207	0.4660823	0.5035834	10.31082	11.80915	0	0
22.39345	-0.1305946	0.6303388	0.1514137	0.3873978	-9.496716	-3.506487	0	0
22.41002	-0.1363849	0.6384808	-0.3495028	0.4914518	-15.11769	3.140354	0	0
22.42658	-0.1396637	0.6408679	-0.197911	0.144086	4.575051	-10.48352	0	0
22.44315	-0.1448469	0.6447633	-0.3128553	0.2351269	-3.469026	2.74762	0	0
22.45972	-0.1477316	0.6475142	-0.1741236	0.1660466	4.186931	-2.084847	0	0
22.47633	-0.1469076	0.6533648	0.04959247	0.3521266	6.742061	5.607835	0	0
22.49285	-0.1447695	0.6584145	0.1294272	0.3056842	2.409416	-1.401634	0	0
22.50942	-0.140799	0.6623555	0.2396913	0.2379066	3.332765	-2.048599	0	0
22.52599	-0.1405926	0.6625831	0.01245719	0.01373618	-6.858333	-6.765866	0	0
22.54255	-0.1405926	0.662621	0	0.002288165	-0.3759587	-0.3455019	0	0
22.55912	-0.1406958	0.6629624	-0.006228594	0.02060428	-0.1879793	0.5527813	0	0
22.57569	-0.1421918	0.6668347	-0.09029797	0.233731	-2.537219	6.432177	0	0
22.59225	-0.1419855	0.6726547	0.01245269	0.3512981	3.101021	3.548181	0	0
22.60898	-0.1430684	0.6788327	-0.06476346	0.3694572	-2.319572	0.5454999	0	0
22.62549	-0.1429395	0.6815646	0.007806183	0.165455	2.18362	-6.138424	0	0
22.64195	-0.1420886	0.6834961	0.05167671	0.1173006	1.330294	-1.460194	0	0
22.65852	-0.1431973	0.6844338	-0.06692252	0.0565961	-3.590285	-1.837672	0	0
22.67509	-0.1459804	0.6869233	-0.1679876	0.1502706	-3.050151	2.827101	0	0
22.69166	-0.146238	0.6888019	-0.01554765	0.1133937	4.600648	-1.112946	0	0
22.70822	-0.1419339	0.6920452	0.2597966	0.195764	8.309908	2.485942	0	0
22.72479	-0.1383732	0.6949664	0.2149247	0.1763218	-1.354238	-0.5867673	0	0
22.74157	-0.1353257	0.6976219	0.1815831	0.1582282	-0.9997471	-0.5425369	0	0
22.75792	-0.1357132	0.6980648	-0.02370181	0.02709038	-6.195868	-3.957975	0	0
22.77768	-0.1380376	0.6997988	-0.1176612	0.08777578	-2.602451	1.68084	0	0
22.79461	-0.1409796	0.7020357	-0.173778	0.132133	-1.529732	1.209169	0	0
22.81081	-0.1419597	0.702769	-0.06048251	0.04525291	3.419264	-2.622046	0	0
22.84414	-0.1418823	0.7027497	0.002321173	-0.0005793991	1.267846	-0.925237	0	0
22.86051	-0.1418565	0.7027304	0.001575791	-0.001179795	-0.0149977	-0.01208045	0	0
22.87708	-0.1418307	0.7027112	0.001556024	-0.001162071	-0.0006001578	0.0005381259	0	0
22.89364	-0.1417792	0.7026725	0.003114206	-0.002331606	0.04702872	-0.03529867	0	0
22.91021	-0.1417534	0.7026532	0.001556923	-0.001165669	-0.04700157	0.03519008	0	0
22.92678	-0.1416502	0.702576	0.006226794	-0.004659078	0.140937	-0.1054313	0	0
22.94335	-0.1416244	0.7025567	0.001556923	-0.001165669	-0.140937	0.1054313	0	0
22.95991	-0.1415728	0.7025182	0.003112948	-0.00232774	0.0469609	-0.03507137	0	0
22.97648	-0.141547	0.7024989	0.001556923	-0.001165669	-0.0469609	0.03507137	0	0
22.99305	-0.1414955	0.7024602	0.003113847	-0.002331338	0.04698804	-0.03517996	0	0
23.00976	-0.1414439	0.7024217	0.003086486	-0.002307286	-0.0008221155	0.0007226767	0	0
23.02618	-0.1414181	0.7024024	0.001570849	-0.001176095	-0.04574202	0.03413943	0	0
23.04275	-0.1413923	0.702383	0.001557103	-0.001165803	-0.0004167289	0.0003120049	0	0
23.05931	-0.1413923	0.7023445	0	-0.00232774	-0.04699616	-0.03506934	0	0
23.11259	-0.1413923	0.7023445	0	0	0	0.03333077	0	0
23.12935	-0.1413923	0.7023445	0	0	0	0	0	0
23.14586	-0.1414181	0.7023252	-0.001562139	-0.001169574	-0.04694816	-0.0351501	0	0
23.16229	-0.1414181	0.7023252	0	0	0.0474239	0.03550628	0	0
23.17885	-0.1414181	0.7023252	0	0	0	0	0	0
23.21199	-0.1414181	0.7023252	0	0	0	0	0	0
23.22856	-0.1414181	0.7023252	0	0	0	0	0	0
23.24543	-0.1414181	0.7023252	0	0	0	0	0	0
23.26169	-0.1414181	0.7023252	0	0	0	0	0	0
23.27845	-0.1414181	0.7023252	0	0	0	0	0	0
23.29482	-0.1413923	0.7023059	0.001575791	-0.001179795	0.04755747	-0.03560628	0	0
23.31139	-0.1413923	0.7023059	0	0	-0.04784389	0.03582073	0	0
23.32796	-0.1413923	0.7023059	0	0	0	0	0	0
23.34452	-0.1413923	0.7023059	0	0	0	0	0	0
23.36109	-0.1413923	0.7022673	0	-0.00232774	0	-0.07025133	0	0
23.37766	-0.1413149	0.7022094	0.00467077	-0.003493409	0.1409641	-0.03517996	0	0
23.39454	-0.1412633	0.7021322	0.003055799	-0.004572223	-0.04828136	-0.03225235	0	0
23.41105	-0.1411085	0.7019007	0.009372834	-0.01402406	0.1891676	-0.283041	0	0
23.44819	-0.1393798	0.7002999	0.04655277	-0.04310699	0.6930597	-0.5421259	0	0
23.46475	-0.1385023	0.6994519	0.05297048	-0.0511887	0.1195072	-0.1504934	0	0
23.48132	-0.1390701	0.69845	-0.03428055	-0.06048143	-2.633393	-0.2804715	0	0
23.49789	-0.1399992	0.6977181	-0.05607713	-0.0441731	-0.65786	0.4922149	0	0
23.51463	-0.1401282	0.6975449	-0.007707455	-0.01035138	1.452276	1.01548	0	0
23.53114	-0.1401024	0.6974871	0.001563222	-0.003498296	0.2788266	0.2061147	0	0
23.56415	-0.1396637	0.6966209	0.01328667	-0.02623664	0.2367119	-0.4591174	0	0
23.58072	-0.1371855	0.6941589	0.1495852	-0.1486084	2.748872	-2.467997	0	0
23.59729	-0.1324309	0.6886677	0.2869902	-0.3314493	4.146892	-5.518151	0	0
23.61385	-0.132043	0.6783172	0.02341232	-0.6247554	-7.954796	-8.851995	0	0
23.63042	-0.1338786	0.6601948	-0.1107961	-1.093869	-4.050418	-14.15787	0	0
23.64722	-0.1351449	0.6470241	-0.07538304	-0.7840638	1.061376	9.285257	0	0
23.66373	-0.1362041	0.6271373	-0.06414787	-1.20439	0.3372916	-12.61865	0	0
23.68012	-0.1365657	0.619289	-0.02206374	-0.4788527	1.279084	22.05163	0	0
23.69675	-0.137108	0.6031898	-0.03260449	-0.9678506	-0.319186	-14.80742	0	0
23.71325	-0.1370822	0.5990898	0.001565029	-0.2484756	1.031238	21.71078	0	0
23.76295	-0.1357649	0.5457475	0.02650469	-1.073291	0.3767307	-12.4594	0	0
23.77952	-0.1335942	0.5206369	0.1310226	-1.515679	1.577224	-6.675836	0	0
23.79633	-0.1325084	0.5116307	0.06461673	-0.5359606	-1.98993	29.3584	0	0
23.81284	-0.1309309	0.4995438	0.09554136	-0.7320088	0.9282309	-5.884566	0	0
23.82935	-0.128188	0.4819032	0.1661174	-1.06836	2.137124	-10.18512	0	0
23.84579	-0.1262202	0.4715153	0.1197001	-0.6318889	-1.40866	13.24594	0	0
23.86237	-0.1247955	0.4646526	0.08591548	-0.4138486	-1.023097	6.602892	0	0
23.87892	-0.1226186	0.4541456	0.1315175	-0.6347877	1.376271	-6.667953	0	0
23.8959	-0.1199218	0.4403845	0.1588824	-0.8107442	0.8162434	-5.248443	0	0
23.91206	-0.1181316	0.4304984	0.110785	-0.6117984	-1.451667	6.00454	0	0
23.92862	-0.1162887	0.4180419	0.1112359	-0.751878	0.01377956	-4.280339	0	0
23.94519	-0.1149385	0.410055	0.08149879	-0.4820904	-0.8974688	8.142205	0	0
23.96195	-0.1141074	0.40286	0.04960071	-0.4293931	-0.9572309	1.581396	0	0
23.97832	-0.1139256	0.3930753	0.01110274	-0.5974879	-1.161938	-5.073403	0	0
23.99497	-0.1143152	0.3854765	-0.02340706	-0.4565071	-1.045057	4.269309	0	0
24.01146	-0.1140814	0.3788097	0.01417727	-0.4043161	1.134297	1.575129	0	0
24.02802	-0.1135619	0.3717338	0.03135883	-0.4271043	0.5197672	-0.689378	0	0
24.04459	-0.1162368	0.3676784	-0.1614573	-0.2447851	-5.819201	5.502406	0	0
24.06116	-0.1218668	0.3637663	-0.3398249	-0.2361307	-5.383144	0.2611894	0	0
24.08236	-0.1264273	0.3596582	-0.2150795	-0.1937447	3.302655	1.122178	0	0
24.09895	-0.1274113	0.3566934	-0.05931141	-0.1787067	4.121491	0.3978922	0	0
24.11555	-0.1254172	0.3532466	0.1201154	-0.2076219	5.405777	-0.8711575	0	0
24.13206	-0.1209592	0.3502464	0.2700159	-0.18172	4.527134	0.7822585	0	0
24.14863	-0.1178721	0.3481213	0.1863397	-0.1282703	-2.529721	1.615906	0	0
24.1652	-0.1173011	0.3477284	0.03446458	-0.02371453	-4.583601	3.155501	0	0
24.18177	-0.117379	0.347782	-0.004700002	0.003234371	-1.18199	0.8133193	0	0
24.19862	-0.117379	0.347782	0	0	0.1406401	-0.09678341	0	0
24.2149	-0.117379	0.347782	0	0	0	0	0	0
24.23147	-0.117379	0.347782	0	0	0	0	0	0
24.24815	-0.117379	0.347782	0	0	0	0	0	0
24.26466	-0.117379	0.347782	0	0	0	0	0	0
24.28118	-0.117379	0.347782	0	0	0	0	0	0
24.29773	-0.1174049	0.3477998	-0.00156772	0.001078145	-0.04740666	0.03260228	0	0
24.3143	-0.1174049	0.3477998	0	0	0.0473275	-0.03254784	0	0
24.33087	-0.1174309	0.3478177	-0.001566368	0.001077524	-0.04727307	0.03251974	0	0
24.34743	-0.1174309	0.3478177	0	0	0.04727307	-0.03251974	0	0
24.364	-0.1174309	0.3478177	0	0	0	0	0	0
24.38057	-0.1174309	0.3478177	0	0	0	0	0	0
24.39713	-0.1174309	0.3478177	0	0	0	0	0	0
24.41377	-0.1174309	0.3478177	0	0	0	0	0	0
24.44683	-0.1174309	0.3478177	0	0	0	0	0	0
24.4638	-0.1174049	0.3477998	0.00152922	-0.00105197	0.03056388	-0.02102528	0	0
24.47997	-0.1174049	0.3477998	0	0	-0.0461546	0.03175034	0	0
24.49653	-0.1174309	0.347782	-0.001566368	-0.001077524	-0.04785709	-0.0329215	0	0
24.5131	-0.1174049	0.3477641	0.001566368	-0.001079323	0.09454613	-5.428939E-05	0	0
24.52967	-0.1174049	0.3477641	0	0	-0.04727307	0.03257403	0	0
24.54624	-0.1174049	0.3477641	0	0	0	0	0	0
24.5628	-0.1174049	0.3477641	0	0	0	0	0	0
24.57937	-0.1174049	0.3477641	0	0	0	0	0	0
24.59594	-0.1174049	0.3477641	0	0	0	0	0	0
24.6125	-0.1174049	0.3477641	0	0	0	0	0	0
24.62907	-0.1174049	0.3477641	0	0	0	0	0	0
24.64594	-0.1174049	0.3477641	0	0	0	0	0	0
24.6622	-0.1174049	0.3477641	0	0	0	0	0	0
24.68207	-0.1174049	0.3477641	0	0	0	0	0	0
24.69897	-0.1174049	0.3477641	0	0	0	0	0	0
24.71548	-0.1174049	0.3477641	0	0	0	0	0	0
24.73177	-0.1174309	0.347782	-0.001593893	0.00109829	-0.0486046	0.03349154	0	0
24.74851	-0.1174309	0.347782	0	0	0.04826771	-0.0332594	0	0
24.7649	-0.1174309	0.347782	0	0	0	0	0	0
24.78147	-0.1174309	0.347782	0	0	0	0	0	0
24.79803	-0.1174309	0.347782	0	0	0	0	0	0
24.8146	-0.1174309	0.347782	0	0	0	0	0	0
24.83117	-0.1174569	0.3477998	-0.001566817	0.001077524	-0.04728664	0.03251974	0	0
24.84773	-0.1174569	0.3477998	0	0	0.04728664	-0.03251974	0	0
24.8643	-0.1174569	0.3477998	0	0	0	0	0	0
24.88087	-0.1174569	0.3477998	0	0	0	0	0	0
24.89762	-0.1174569	0.3477998	0	0	0	0	0	0
24.91413	-0.1174569	0.3477998	0	0	0	0	0	0
24.93064	-0.1174569	0.3477998	0	0	0	0	0	0
24.94715	-0.1174569	0.3477998	0	0	0	0	0	0
24.96371	-0.1174309	0.347782	0.001568081	-0.001078393	0.04742853	-0.03261732	0	0
24.98027	-0.1174309	0.347782	0	0	-0.04734658	0.03256097	0	0
25.01341	-0.1174049	0.3477641	0.0007831387	-0.0005396305	0.01575678	-0.01085739	0	0
25.02997	-0.1174049	0.3477641	0	0	-0.01575678	0.01085739	0	0
25.04654	-0.1174049	0.3477641	0	0	0	0	0	0
25.06323	-0.117379	0.3477463	0.001554824	-0.001069276	0.0467444	-0.03214684	0	0
25.07967	-0.117379	0.3477463	0	0	-0.04692739	0.03227268	0	0
25.09624	-0.117379	0.3477463	0	0	0	0	0	0
25.11281	-0.117379	0.3477463	0	0	0	0	0	0
25.12937	-0.117353	0.3477284	0.001566368	-0.001077524	0.04727307	-0.03251974	0	0
25.16281	-0.1173271	0.3476748	0.000776392	-0.001602701	-0.01579915	-0.0105033	0	0
25.17907	-0.1172492	0.3475855	0.00478708	-0.005489271	0.0806983	-0.07820093	0	0
25.19564	-0.1170156	0.3473177	0.01410046	-0.01616826	0.2836582	-0.3252507	0	0
25.21221	-0.115354	0.3457819	0.1002929	-0.09269766	2.601295	-2.309662	0	0
25.22878	-0.1130943	0.3414783	0.1363976	-0.2597661	1.089642	-5.042135	0	0
25.24537	-0.1136139	0.333514	-0.03131511	-0.4800085	-5.057796	-6.641959	0	0
25.26203	-0.1152242	0.3276209	-0.09665319	-0.3537153	-1.964895	3.797981	0	0
25.27847	-0.1158733	0.319852	-0.03946884	-0.4723559	1.727219	-3.583468	0	0
25.2954	-0.1166003	0.3138147	-0.04294366	-0.3566514	-0.104115	3.466824	0	0
25.31161	-0.1183911	0.30515	-0.1104995	-0.5346354	-2.038839	-5.371567	0	0
25.32843	-0.1199477	0.2996819	-0.09256222	-0.3251496	0.543161	6.343473	0	0
25.34474	-0.1229556	0.2960002	-0.1843541	-0.225662	-2.770443	3.002714	0	0
25.36145	-0.1242514	0.2951779	-0.07756218	-0.04921545	3.233969	5.343314	0	0
25.39851	-0.1241218	0.2952316	0.003495743	0.001446625	1.507545	0.942232	0	0
25.41508	-0.1241218	0.2952316	0	0	-0.06518392	-0.02697472	0	0
25.43164	-0.1241218	0.2952316	0	0	0	0	0	0
25.48135	-0.1241477	0.2952137	-0.0005212231	-0.0003591747	-0.007865272	-0.005419957	0	0
25.49792	-0.1241218	0.2951958	0.001563489	-0.001079199	0.03145747	-0.01086487	0	0
25.51456	-0.1241218	0.2951958	0	0	-0.0470751	0.0324936	0	0
25.53105	-0.1241218	0.2951958	0	0	0	0	0	0
25.54761	-0.1241218	0.2951958	0	0	0	0	0	0
25.56418	-0.1241218	0.2951958	0	0	0	0	0	0
25.58111	-0.1240959	0.2951779	0.001530982	-0.001056457	0.04571046	-0.03154258	0	0
25.59731	-0.1240959	0.2951779	0	0	-0.0462078	0.03188577	0	0
25.61388	-0.1240959	0.2951779	0	0	0	0	0	0
25.63045	-0.1240959	0.2951779	0	0	0	0	0	0
25.64715	-0.1240959	0.2951779	0	0	0	0	0	0
25.66358	-0.1241218	0.2951601	-0.001577376	-0.001088471	-0.04760804	-0.03285201	0	0
25.68018	-0.1241218	0.2951601	0	0	0.04776477	0.03296016	0	0
25.69671	-0.1241218	0.2951601	0	0	0	0	0	0
25.71328	-0.1241218	0.2951601	0	0	0	0	0	0
25.72985	-0.1241218	0.2951601	0	0	0	0	0	0
25.74641	-0.1241477	0.2951422	-0.001563669	-0.001079323	-0.04719435	-0.03257591	0	0
25.76298	-0.1241477	0.2951422	0	0	0.04719163	0.03257403	0	0
25.77954	-0.1241477	0.2951422	0	0	0	0	0	0
25.79611	-0.1241736	0.2951601	-0.001564119	0.001079323	-0.04720792	0.03257591	0	0
25.81277	-0.1241736	0.2951601	0	0	0.04707783	-0.03248614	0	0
25.82928	-0.1241995	0.2951422	-0.001569359	-0.001082939	-0.04731431	-0.03264932	0	0
25.84581	-0.1241995	0.2951422	0	0	0.04749183	0.03277182	0	0
25.86238	-0.1242254	0.2951601	-0.001564119	0.001079323	-0.04725417	0.03260782	0	0
25.87895	-0.1243032	0.2952137	-0.004691907	0.003237969	-0.09439684	0.06514807	0	0
25.89583	-0.1243291	0.2952316	-0.001535134	0.001057556	0.0943806	-0.06518957	0	0
25.91208	-0.1244327	0.295303	-0.006377168	0.004399058	-0.1461413	0.1008525	0	0
25.92865	-0.1244586	0.2953209	-0.001563669	0.001079323	0.1466647	-0.1011505	0	0
25.94536	-0.1244845	0.2953388	-0.001550198	0.001069717	0.0004047383	-0.0002886141	0	0
25.96188	-0.1244845	0.2953388	0	0	0.04665349	-0.03219332	0	0
25.97839	-0.1244845	0.2953388	0	0	0	0	0	0
25.99491	-0.1245623	0.2953567	-0.004703821	0.001082064	-0.1423796	0.03275291	0	0
26.01992	-0.1245623	0.2953567	0	0	0.1132668	-0.02605581	0	0
26.03648	-0.1245882	0.2953745	-0.001563669	0.001077524	-0.03761473	0.0259203	0	0
26.05964	-0.12464	0.2954103	-0.002237704	0.001544354	-0.01696781	0.01175172	0	0
26.07621	-0.12464	0.2954103	0	0	0.0563308	-0.03887675	0	0
26.09278	-0.12464	0.2954103	0	0	0	0	0	0
26.10948	-0.12464	0.2954103	0	0	0	0	0	0
26.12591	-0.1247177	0.2954639	-0.004730575	0.003262841	-0.142769	0.09847274	0	0
26.1425	-0.1247436	0.2954818	-0.001561332	0.00107771	0.09596834	-0.0661683	0	0
26.15904	-0.1247436	0.2954818	0	0	0.04712382	-0.03252723	0	0
26.17561	-0.1247695	0.2954997	-0.001563669	0.001079323	-0.0472297	0.03260031	0	0
26.19218	-0.1248473	0.2955533	-0.004691457	0.00323617	-0.09439684	0.06509378	0	0
26.20874	-0.1248473	0.2955533	0	0	0.1415885	-0.09766781	0	0
26.22531	-0.1248473	0.2955533	0	0	0	0	0	0
26.24188	-0.1248732	0.2955712	-0.001563669	0.001079323	-0.04719163	0.03257403	0	0
26.25845	-0.1248991	0.2955891	-0.001564119	0.001079323	-1.357235E-05	0	0	0
26.37441	-0.124925	0.2956069	-0.0002233887	0.0001539371	0.01011612	-0.006982252	0	0
26.39098	-0.124925	0.2956069	0	0	0.001685519	-0.001161491	0	0
26.40755	-0.1249509	0.2955891	-0.001563669	-0.001077524	-0.04719163	-0.03251974	0	0
26.42411	-0.124925	0.2955712	0.001563669	-0.001079323	0.09438327	-5.428939E-05	0	0
26.45725	-0.1249768	0.2955354	-0.001563759	-0.001079385	-0.0629264	-1.250826E-06	0	0
26.47381	-0.1250027	0.2955176	-0.001563669	-0.001077524	1.810653E-06	3.744514E-05	0	0
26.49038	-0.1250027	0.2954818	0	-0.002158646	0.04719163	-0.03262832	0	0
26.50695	-0.1250286	0.2954639	-0.001564299	-0.001079447	-0.04721336	0.03257215	0	0
26.52378	-0.1250804	0.2954282	-0.003078429	-0.002123116	-0.04533899	-0.03125153	0	0
26.54008	-0.1251063	0.2954103	-0.001588642	-0.001096876	0.04496446	0.03097377	0	0
26.55665	-0.1251322	0.2953924	-0.001564119	-0.001079323	0.0007460825	0.0005340267	0	0
26.57321	-0.1251322	0.2953924	0	0	0.04720792	0.03257591	0	0
26.58982	-0.1251322	0.2953924	0	0	0	0	0	0
26.60635	-0.1251322	0.2953924	0	0	0	0	0	0
26.62334	-0.1251322	0.2953924	0	0	0	0	0	0
26.63948	-0.1251322	0.2953924	0	0	0	0	0	0
26.65605	-0.1251322	0.2953924	0	0	0	0	0	0
26.67261	-0.1251581	0.2953745	-0.00156322	-0.001079323	-0.04717806	-0.03257403	0	0
26.68918	-0.1251581	0.2953745	0	0	0.04717806	0.03257403	0	0
26.70575	-0.1251841	0.2953567	-0.001564299	-0.001077648	-0.04721336	-0.03252536	0	0
26.72231	-0.1251581	0.2953388	0.001564119	-0.001079323	0.09442128	-5.054699E-05	0	0
26.73893	-0.1251841	0.2953209	-0.001559809	-0.001076349	-0.09415027	8.963003E-05	0	0
26.75545	-0.1251841	0.2953209	0	0	0.04707784	0.03248615	0	0
26.77201	-0.12521	0.295303	-0.00156322	-0.001079323	-0.04724605	-0.03262098	0	0
26.78858	-0.12521	0.295303	0	0	0.04717806	0.03257403	0	0
26.80518	-0.12521	0.295303	0	0	0	0	0	0
26.82171	-0.12521	0.295303	0	0	0	0	0	0
26.84219	-0.12521	0.295303	0	0	0	0	0	0
26.85901	-0.12521	0.295303	0	0	0	0	0	0
26.87533	-0.1252359	0.2952852	-0.001588256	-0.001094152	-0.04793089	-0.03301967	0	0
26.89189	-0.1252359	0.2952852	0	0	0.04830346	0.03327633	0	0
26.90846	-0.1252359	0.2952852	0	0	0	0	0	0
26.92506	-0.1252359	0.2952852	0	0	0	0	0	0
26.94159	-0.1252359	0.2952852	0	0	0	0	0	0
26.95819	-0.1252618	0.2952673	-0.001560166	-0.001077215	-0.04708862	-0.03251228	0	0
26.97473	-0.1252618	0.2952673	0	0	0.0470859	0.0325104	0	0
26.99129	-0.1252618	0.2952673	0	0	0	0	0	0
27.00786	-0.1252877	0.2952494	-0.001564119	-0.001079323	-0.04720521	-0.03257403	0	0
27.02464	-0.1252877	0.2952494	0	0	0.04691355	0.03237277	0	0
27.1404	-0.1252618	0.2952316	0.0002238506	-0.0001544685	0.001689004	-0.0011655	0	0
27.20798	-0.1252877	0.2952494	-0.0003834478	0.0002645988	-0.003312415	0.002285737	0	0
27.22454	-0.1252877	0.2952494	0	0	0.004556907	-0.003144501	0	0
27.24111	-0.1252877	0.2952494	0	0	0	0	0	0
27.2578	-0.1252877	0.2952494	0	0	0	0	0	0
27.27424	-0.1252877	0.2952494	0	0	0	0	0	0
27.29082	-0.1252618	0.2952316	0.00156286	-0.001078454	0.04732247	-0.03265495	0	0
27.30738	-0.1252618	0.2952316	0	0	-0.04716719	0.03254781	0	0
27.32395	-0.1252877	0.2952137	-0.001564119	-0.001077524	-0.04722423	-0.03253285	0	0
27.34051	-0.1252618	0.2951958	0.001564119	-0.001079323	0.09441041	-5.428939E-05	0	0
27.35708	-0.1252618	0.2951958	0	0	-0.04720792	0.03257591	0	0
27.37365	-0.1252877	0.2951779	-0.001564119	-0.001079323	-0.04720792	-0.03257591	0	0
27.39021	-0.1252877	0.2951779	0	0	0.04720792	0.03257591	0	0
27.40678	-0.1252877	0.2951779	0	0	0	0	0	0
27.42335	-0.1252877	0.2951779	0	0	0	0	0	0
27.43991	-0.1252877	0.2951779	0	0	0	0	0	0
27.45648	-0.1252877	0.2951779	0	0	0	0	0	0
27.47305	-0.1252877	0.2951779	0	0	0	0	0	0
27.48961	-0.1252877	0.2951779	0	0	0	0	0	0
27.50618	-0.1252877	0.2951779	0	0	0	0	0	0
27.52275	-0.1252877	0.2951779	0	0	0	0	0	0
27.53932	-0.1252877	0.2951779	0	0	0	0	0	0
27.55588	-0.1252877	0.2951779	0	0	0	0	0	0
27.57253	-0.1252877	0.2951779	0	0	0	0	0	0
27.58901	-0.1252877	0.2951779	0	0	0	0	0	0
27.60558	-0.1252877	0.2951779	0	0	0	0	0	0
27.62215	-0.1252877	0.2951779	0	0	0	0	0	0
27.63871	-0.1253136	0.2951601	-0.00156322	-0.001079323	-0.04718078	-0.03257591	0	0
27.65963	-0.1252877	0.2951422	0.001238202	-0.0008549152	0.07473803	0.005986888	0	0
27.6766	-0.1252877	0.2951422	0	0	-0.03268425	0.0225668	0	0
27.69276	-0.1253136	0.2951243	-0.00160195	-0.001104221	-0.04834693	-0.03332545	0	0
27.70962	-0.1253136	0.2951243	0	0	0.04850609	0.03343515	0	0
27.7259	-0.1253136	0.2950886	0	-0.002197352	0	-0.0663162	0	0
27.74247	-0.1253136	0.2950886	0	0	0	0.06690545	0	0
27.75903	-0.1253395	0.2950707	-0.001564119	-0.001079323	-0.04720521	-0.03257403	0	0
27.77567	-0.1253395	0.2950707	0	0	0.04710217	0.03250293	0	0
27.79217	-0.1253395	0.2950707	0	0	0	0	0	0
27.80873	-0.1253395	0.2950707	0	0	0	0	0	0
27.8253	-0.1253395	0.2950707	0	0	0	0	0	0
27.84187	-0.1253395	0.2950707	0	0	0	0	0	0
27.85843	-0.1253395	0.2950707	0	0	0	0	0	0
27.875	-0.1253395	0.2950707	0	0	0	0	0	0
27.89157	-0.1253395	0.2950707	0	0	0	0	0	0
27.90813	-0.1253395	0.2950707	0	0	0	0	0	0
27.92478	-0.1253395	0.2950707	0	0	0	0	0	0
27.94129	-0.1253395	0.2950707	0	0	0	0	0	0
27.95784	-0.1253654	0.2950528	-0.001565202	-0.001078891	-0.0473469	-0.03263613	0	0
27.9744	-0.1253654	0.2950528	0	0	0.04726781	0.03258161	0	0
27.99097	-0.1253654	0.2950528	0	0	0	0	0	0
28.00784	-0.1253654	0.2950528	0	0	0	0	0	0
28.02435	-0.1253654	0.2950528	0	0	0	0	0	0
28.04067	-0.1253654	0.2950528	0	0	0	0	0	0
28.05737	-0.1253654	0.2950528	0	0	0	0	0	0
28.07388	-0.1253654	0.2950528	0	0	0	0	0	0
28.09037	-0.1253654	0.2950528	0	0	0	0	0	0
28.10693	-0.1253654	0.2950528	0	0	0	0	0	0
28.1235	-0.1253654	0.2950528	0	0	0	0	0	0
28.14007	-0.1253654	0.2950528	0	0	0	0	0	0
28.15663	-0.1253913	0.2950349	-0.001564119	-0.001079323	-0.04720792	-0.03257591	0	0
28.1732	-0.1253913	0.2950349	0	0	0.04720521	0.03257403	0	0
28.18977	-0.1253913	0.2950349	0	0	0	0	0	0
28.20647	-0.1254172	0.2950171	-0.001550191	-0.001070328	-0.04658909	-0.03216738	0	0
28.22299	-0.1254172	0.2950171	0	0	0.04666398	0.03221909	0	0
28.2395	-0.1254172	0.2950171	0	0	0	0	0	0
28.25603	-0.1254431	0.2949992	-0.001566285	-0.00108144	-0.04739608	-0.03272457	0	0
28.2726	-0.1254431	0.2949992	0	0	0.04731961	0.03267177	0	0
28.28917	-0.125469	0.2949813	-0.001564119	-0.001079323	-0.04720792	-0.03257591	0	0
28.32648	-0.125469	0.2949813	0	0	0.02902725	0.0200303	0	0
28.34307	-0.125469	0.2949813	0	0	0	0	0	0
28.35962	-0.125469	0.2949813	0	0	0	0	0	0
28.37619	-0.1254431	0.2949634	0.001564119	-0.001077524	0.04723239	-0.03253847	0	0
28.39275	-0.125469	0.2949456	-0.001564299	-0.001079447	-0.09442128	-5.804506E-05	0	0
28.40932	-0.125469	0.2949456	0	0	0.04721064	0.03257779	0	0
28.42613	-0.1255208	0.2949098	-0.003081036	-0.002127297	-0.09230044	-0.06372873	0	0
28.44264	-0.1257539	0.2947489	-0.01412044	-0.009743963	-0.331301	-0.228582	0	0
28.45902	-0.1269711	0.2939088	-0.07432612	-0.05130081	-1.830711	-1.263644	0	0
28.47559	-0.1344213	0.28876	-0.4496937	-0.3107839	-11.3942	-7.876554	0	0
28.49215	-0.1389669	0.2856844	-0.2743711	-0.1856436	5.291245	3.776742	0	0
28.50872	-0.1465986	0.2803903	-0.4607036	-0.3195884	-5.623849	-4.042695	0	0
28.52528	-0.150974	0.2773848	-0.2641282	-0.1814317	5.933342	4.170056	0	0
28.54185	-0.1540333	0.2752556	-0.1846392	-0.1285038	2.398981	1.597368	0	0
28.55872	-0.1590914	0.2717302	-0.2998224	-0.2089705	-3.444512	-2.406326	0	0
28.57499	-0.1614252	0.2701014	-0.1435096	-0.1001587	4.717804	3.284134	0	0
28.59175	-0.1614252	0.2701014	0	0	4.345385	3.032747	0	0
28.60812	-0.1614252	0.2701014	0	0	0	0	0	0
28.62527	-0.1614252	0.2701014	0	0	0	0	0	0
28.64125	-0.1614252	0.2701014	0	0	0	0	0	0
28.65782	-0.1614252	0.2701014	0	0	0	0	0	0
28.67439	-0.1614252	0.2701014	0	0	0	0	0	0
28.69099	-0.1614252	0.2701014	0	0	0	0	0	0
28.70752	-0.1614252	0.2701014	0	0	0	0	0	0
28.72409	-0.1614252	0.2701014	0	0	0	0	0	0
28.74066	-0.1614252	0.2701014	0	0	0	0	0	0
28.75737	-0.1614252	0.2701014	0	0	0	0	0	0
28.77388	-0.1614252	0.2701014	0	0	0	0	0	0
28.7904	-0.1614252	0.2701014	0	0	0	0	0	0
28.80692	-0.1614252	0.2701014	0	0	0	0	0	0
28.82349	-0.1614252	0.2701014	0	0	0	0	0	0
28.90632	-0.1614252	0.2701014	0	0	0	0	0	0
28.92289	-0.1614252	0.2701014	0	0	0	0	0	0
28.93951	-0.1614252	0.2701014	0	0	0	0	0	0
28.96706	-0.1614252	0.2701014	0	0	0	0	0	0
28.98363	-0.1614252	0.2701014	0	0	0	0	0	0
29.00055	-0.1614252	0.2701014	0	0	0	0	0	0
29.01705	-0.1614252	0.2701014	0	0	0	0	0	0
29.03333	-0.1613996	0.2700835	0.001574215	-0.00109829	0.04801571	-0.03349933	0	0
29.0499	-0.1613996	0.2700835	0	0	-0.04792371	0.03343514	0	0
29.06659	-0.1613996	0.2700835	0	0	0	0	0	0
29.08303	-0.1613996	0.2700835	0	0	0	0	0	0
29.0996	-0.1613996	0.2700835	0	0	0	0	0	0
29.11617	-0.1613996	0.2700835	0	0	0	0	0	0
29.13273	-0.1613996	0.2700835	0	0	0	0	0	0
29.1493	-0.1613996	0.2700835	0	0	0	0	0	0
29.16616	-0.1613996	0.2700835	0	0	0	0	0	0
29.18243	-0.1613996	0.2700835	0	0	0	0	0	0
29.199	-0.1613996	0.2700835	0	0	0	0	0	0
29.21557	-0.1613739	0.2700656	0.001547929	-0.001081122	0.04671659	-0.03262833	0	0
29.23221	-0.1613739	0.2700656	0	0	-0.04661731	0.03255898	0	0
29.2487	-0.1613739	0.2700656	0	0	0	0	0	0
29.26527	-0.1613739	0.2700656	0	0	0	0	0	0
29.28184	-0.1613739	0.2700656	0	0	0	0	0	0
29.2984	-0.1613739	0.2700656	0	0	0	0	0	0
29.31527	-0.1613739	0.2700656	0	0	0	0	0	0
29.33154	-0.1613739	0.2700656	0	0	0	0	0	0
29.3481	-0.1613739	0.2700656	0	0	0	0	0	0
29.36467	-0.1613739	0.2700656	0	0	0	0	0	0
29.38124	-0.1613739	0.2700656	0	0	0	0	0	0
29.3978	-0.1613739	0.2700656	0	0	0	0	0	0
29.41437	-0.1613739	0.2700656	0	0	0	0	0	0
29.43094	-0.1613739	0.2700656	0	0	0	0	0	0
29.44751	-0.1613739	0.2700656	0	0	0	0	0	0
29.46407	-0.1613739	0.2700656	0	0	0	0	0	0
29.48064	-0.1613739	0.2700656	0	0	0	0	0	0
29.49721	-0.1613739	0.2700656	0	0	0	0	0	0
29.51391	-0.1613739	0.2700656	0	0	0	0	0	0
29.53034	-0.1613739	0.2700656	0	0	0	0	0	0
29.54694	-0.1613739	0.2700656	0	0	0	0	0	0
29.56348	-0.1613739	0.2700656	0	0	0	0	0	0
29.58004	-0.1613483	0.2700477	0.00154703	-0.001081122	0.04673788	-0.03266217	0	0
29.59661	-0.1613483	0.2700477	0	0	-0.04668945	0.03262833	0	0
29.61632	-0.1613483	0.2700477	0	0	0	0	0	0
29.63289	-0.1613483	0.2700477	0	0	0	0	0	0
29.64951	-0.1613483	0.2700477	0	0	0	0	0	0
29.66602	-0.1613483	0.2700477	0	0	0	0	0	0
29.68259	-0.1613483	0.2700477	0	0	0	0	0	0
29.69915	-0.1613483	0.2700477	0	0	0	0	0	0
29.71572	-0.1613739	0.2700656	-0.00154703	0.001081122	-0.04668945	0.03262833	0	0
29.73229	-0.1613739	0.2700656	0	0	0.04668945	-0.03262833	0	0
29.74886	-0.1613483	0.2700477	0.00154703	-0.001081122	0.04668945	-0.03262833	0	0
29.76559	-0.1613483	0.2700477	0	0	-0.04644881	0.03246016	0	0
29.84826	-0.1613483	0.2700119	0	-0.0004329963	0	-0.004356035	0	0
29.86482	-0.1612714	0.2699582	0.004642888	-0.003241567	0.04678924	-0.0283037	0	0
29.88168	-0.1611688	0.2698508	0.006082772	-0.006369145	0.04307641	-0.09356643	0	0
29.89796	-0.1613483	0.2694749	-0.01102704	-0.02309783	-0.5163752	-0.5048726	0	0
29.91453	-0.1659338	0.2660913	-0.2767816	-0.2042313	-8.091755	-5.515193	0	0
29.93109	-0.1709467	0.2618294	-0.3025801	-0.2572513	-0.7786012	-1.600145	0	0
29.94766	-0.1792907	0.2545021	-0.5036454	-0.4422796	-6.068163	-5.584167	0	0
29.96424	-0.1824483	0.2458254	-0.190437	-0.5233036	9.448842	-2.444323	0	0
29.98079	-0.1823974	0.2384341	0.003074951	-0.4464962	5.840202	2.31805	0	0
29.99776	-0.181812	0.2203097	0.03450111	-1.068169	0.9374883	-18.5454	0	0
30.01393	-0.181481	0.205499	0.0204729	-0.9162297	-0.4233966	4.585793	0	0
30.03049	-0.1811755	0.1854068	0.01844326	-1.212907	-0.06201149	-9.064368	0	0
30.0473	-0.1809973	0.1709605	0.01060553	-0.85961	-0.2348666	10.58697	0	0
30.06363	-0.1809209	0.1572072	0.004678739	-0.8422762	-0.1788709	0.5231335	0	0
30.08019	-0.180437	0.1452036	0.02920558	-0.7245343	0.7455865	3.579213	0	0
30.09676	-0.1798512	0.1322268	0.03536042	-0.7832818	0.1857534	-1.773004	0	0
30.11335	-0.1782968	0.1222496	0.09372304	-0.6016011	1.760475	5.480295	0	0
30.12989	-0.1775321	0.1160016	0.04621315	-0.3775659	-1.433934	6.761786	0	0
30.14646	-0.1773536	0.1091782	0.01077254	-0.4118643	-1.070216	-1.035724	0	0
30.16303	-0.1787811	0.1042695	-0.08616056	-0.2962868	-2.925447	3.488137	0	0
30.1796	-0.1784753	0.1015566	0.01845912	-0.1637535	3.157428	3.999861	0	0
30.19641	-0.1777106	0.09539151	0.0454921	-0.3667611	0.8099358	-6.082315	0	0
30.21273	-0.1751856	0.09173623	0.15467	-0.2239072	3.294995	4.311339	0	0
30.22943	-0.1737563	0.09074383	0.08559127	-0.05942899	-2.091783	4.980591	0	0
30.24594	-0.1651401	0.08454547	0.5216944	-0.3753004	13.12987	-9.510027	0	0
30.26245	-0.1632448	0.08318324	0.1148126	-0.08251914	-12.32085	8.865757	0	0
30.279	-0.1593993	0.08042061	0.2324367	-0.1669829	3.558712	-2.555448	0	0
30.29556	-0.1542902	0.07675278	0.3083833	-0.2213907	2.293656	-1.643165	0	0
30.33172	-0.1508711	0.07429965	0.09455729	-0.06784199	-4.055361	2.912161	0	0
30.34851	-0.1508968	0.0743181	-0.001531793	0.001098702	-1.814717	1.301998	0	0
30.36503	-0.1508711	0.07429965	0.001557267	-0.001116974	0.09274752	-0.06652459	0	0
30.38154	-0.1508711	0.07429965	0	0	-0.04715858	0.03382521	0	0
30.39799	-0.1508711	0.07429965	0	0	0	0	0	0
30.41456	-0.1508454	0.07428119	0.001552248	-0.001113823	0.04700386	-0.03372786	0	0
30.43112	-0.1508454	0.07428119	0	0	-0.04684962	0.03361718	0	0
30.44769	-0.1508454	0.07428119	0	0	0	0	0	0
30.46426	-0.1508196	0.07426275	0.001552426	-0.001113502	0.04685232	-0.03360555	0	0
30.48083	-0.1508196	0.07426275	0	0	-0.04685232	0.03360555	0	0
30.49762	-0.1507939	0.0742443	0.001531271	-0.001098328	0.04589682	-0.0329202	0	0
30.51396	-0.1505624	0.07407824	0.0141703	-0.01016373	0.3814467	-0.2735943	0	0
30.53065	-0.1485296	0.07262035	0.1218296	-0.08737443	3.260049	-2.33803	0	0
30.54716	-0.1410054	0.06722727	0.4556862	-0.3266179	10.05671	-7.206692	0	0
30.56366	-0.1361266	0.06373275	0.2956074	-0.2117338	-4.848491	3.479627	0	0
30.58023	-0.1281362	0.05801295	0.4823009	-0.3452476	5.645145	-4.037121	0	0
30.5968	-0.1169118	0.0499839	0.6775068	-0.4846349	5.891325	-4.206719	0	0
30.61336	-0.1066465	0.0426449	0.6196151	-0.442983	-1.747176	1.257059	0	0
30.63022	-0.097271	0.03594374	0.5562346	-0.3975711	-1.896343	1.358722	0	0
30.6465	-0.09307242	0.03294291	0.2579104	-0.1843347	-9.003441	6.435487	0	0
30.66306	-0.08722548	0.02876375	0.352922	-0.2522545	2.892597	-2.067798	0	0
30.67963	0	0	5.264941	-1.736184	148.245	-44.78507	0	0
30.6962	-0.07713612	0.02155079	-4.655946	1.300808	-299.413	91.65659	0	0
30.71277	-0.07098579	0.01715229	0.371235	-0.2654938	151.7206	-47.27109	0	0
30.72933	-0.06603543	0.01361076	0.2988043	-0.2137671	-2.185962	1.561115	0	0
30.7459	-0.06459422	0.01254197	0.08699119	-0.06451232	-6.392532	4.504517	0	0
30.76247	-0.06462043	0.01256073	-0.001581658	0.001131996	-2.673134	1.981149	0	0
30.77904	-0.06462043	0.01256073	0	0	0.04773453	-0.03416372	0	0
30.79584	-0.06462043	0.01256073	0	0	0	0	0	0
30.81217	-0.06462043	0.01256073	0	0	0	0	0	0
30.82874	-0.06462043	0.01256073	0	0	0	0	0	0
30.8453	-0.06462043	0.01256073	0	0	0	0	0	0
30.86189	-0.06462043	0.01256073	0	0	0	0	0	0
30.87844	-0.06462043	0.01256073	0	0	0	0	0	0
30.895	-0.06462043	0.01256073	0	0	0	0	0	0
30.91157	-0.06462043	0.01256073	0	0	0	0	0	0
30.92814	-0.06462043	0.01256073	0	0	0	0	0	0
30.94815	-0.06462043	0.01256073	0	0	0	0	0	0
30.96497	-0.06464663	0.01257948	-0.001557982	0.001114996	-0.04230313	0.03027494	0	0
30.98148	-0.06464663	0.01257948	0	0	0.04674551	-0.03345421	0	0
30.99799	-0.06464663	0.01257948	0	0	0	0	0	0
31.01441	-0.06464663	0.01257948	0	0	0	0	0	0
31.03101	-0.06464663	0.01257948	0	0	0	0	0	0
31.04755	-0.06464663	0.01257948	0	0	0	0	0	0
31.06411	-0.06464663	0.01257948	0	0	0	0	0	0
31.08068	-0.06464663	0.01257948	0	0	0	0	0	0
31.09725	-0.06464663	0.01257948	0	0	0	0	0	0
31.11381	-0.06464663	0.01257948	0	0	0	0	0	0
31.13058	-0.06464663	0.01257948	0	0	0	0	0	0
31.14695	-0.06464663	0.01257948	0	0	0	0	0	0
31.1636	-0.06467284	0.01256073	-0.001573593	-0.001125848	-0.04765022	-0.03409198	0	0
31.18008	-0.06467284	0.01256073	0	0	0.04749113	0.03397816	0	0
31.19713	-0.06467284	0.01256073	0	0	0	0	0	0
31.21321	-0.06464663	0.01254197	0.00162938	-0.001165819	0.04917761	-0.03518652	0	0
31.22978	-0.06469905	0.01254197	-0.003163766	0	-0.1467867	0.0357024	0	0
31.24635	-0.06469905	0.01254197	0	0	0.09548264	0	0	0
31.26291	-0.06469905	0.01254197	0	0	0	0	0	0
31.27948	-0.06469905	0.01254197	0	0	0	0	0	0
31.29605	-0.06472525	0.01252322	-0.001581658	-0.00113194	-0.04773728	-0.03416399	0	0
31.31261	-0.06472525	0.01252322	0	0	0.04773453	0.03416202	0	0
31.32918	-0.06472525	0.01252322	0	0	0	0	0	0
31.34575	-0.06472525	0.01252322	0	0	0	0	0	0
31.36231	-0.06472525	0.01252322	0	0	0	0	0	0
31.37888	-0.06472525	0.01252322	0	0	0	0	0	0
31.39545	-0.06475146	0.01250447	-0.001582108	-0.001131996	-0.04774811	-0.03416372	0	0
31.42858	-0.06477766	0.01248571	-0.000790829	-0.0005659981	0.01592056	0.01138791	0	0
31.4453	-0.06477766	0.01248571	0	0	0.0158622	0.01135262	0	0
31.46172	-0.06480387	0.01246696	-0.001596732	-0.001142785	-0.04819224	-0.0344913	0	0
31.47833	-0.06480387	0.01246696	0	0	0.04835369	0.03460684	0	0
31.49485	-0.06483007	0.0124482	-0.00158604	-0.001135133	-0.04786955	-0.03426035	0	0
31.51142	-0.06485628	0.01242945	-0.001581658	-0.001131996	0.0001324422	9.478955E-05	0	0
31.52798	-0.06490869	0.01239194	-0.003163766	-0.002263993	-0.0477481	-0.03416372	0	0
31.54755	-0.0649873	0.01233568	-0.004017433	-0.002875381	-0.02362457	-0.0169197	0	0
31.56412	-0.06532796	0.01212937	-0.020562	-0.0124528	-0.457858	-0.2650476	0	0
31.58068	-0.07051447	0.008451257	-0.3130586	-0.2220114	-8.827563	-6.32449	0	0
31.59725	-0.07478134	0.005389397	-0.257549	-0.1848143	1.675283	1.122611	0	0
31.61382	-0.08202606	0.0001797362	-0.4372922	-0.3144557	-5.424663	-3.912587	0	0
31.66353	-0.1080512	-0.0186587	-0.5234864	-0.3789284	-1.30041	-0.9726982	0	0
31.68009	-0.1161589	-0.02460878	-0.4897778	-0.3594371	0.5086638	0.2941236	0	0
31.69699	-0.1181835	-0.02608858	-0.1198177	-0.08757646	11.05974	8.127111	0	0
31.7135	-0.1253654	-0.03134947	-0.434951	-0.3186117	-9.432555	-6.915336	0	0
31.72979	-0.1295079	-0.03439236	-0.2542575	-0.1867653	5.508196	4.019156	0	0
31.74636	-0.1326377	-0.03669556	-0.1889384	-0.1390375	1.987927	1.452552	0	0
31.76292	-0.1367206	-0.03970568	-0.2464454	-0.1816914	-1.735667	-1.287372	0	0
31.77949	-0.1379343	-0.04060168	-0.07325725	-0.05408263	5.22683	3.851241	0	0
31.79606	-0.1406184	-0.04258527	-0.1620118	-0.1197295	-2.678617	-1.981227	0	0
31.81262	-0.1416502	-0.04331037	-0.06227964	-0.043767	3.009922	2.292554	0	0
31.82919	-0.1419081	-0.04350121	-0.01556744	-0.01151953	1.409777	0.9732307	0	0
31.84576	-0.1418823	-0.0435203	0.001557103	-0.001152085	0.5168494	0.312908	0	0
31.86232	-0.1419081	-0.04350121	-0.001556923	0.001151953	-0.09398691	0.06953999	0	0
31.87912	-0.1419081	-0.04350121	0	0	0.04666569	-0.03452749	0	0
31.89546	-0.1418823	-0.0435203	0.001578734	-0.00116809	0.0476463	-0.03525303	0	0
31.91203	-0.1419081	-0.04350121	-0.001556923	0.001151953	-0.09529259	0.07050606	0	0
31.92866	-0.1419081	-0.04350121	0	0	0.04689895	-0.03470008	0	0
31.94517	-0.1419081	-0.04350121	0	0	0	0	0	0
31.96173	-0.1419339	-0.04348213	-0.001557641	0.001152483	-0.04710188	0.03485022	0	0
31.97829	-0.1419855	-0.04344396	-0.003112948	0.002303905	-0.04695006	0.03475798	0	0
31.99486	-0.1420886	-0.04332945	-0.006225895	0.006911715	-0.09394895	0.139064	0	0
32.01171	-0.1422434	-0.04313862	-0.00918223	0.01132459	-0.0884636	0.1320482	0	0
32.02799	-0.1424496	-0.04287147	-0.0126706	0.01640822	-0.1052853	0.1534331	0	0
32.04473	-0.1426301	-0.04254711	-0.01077979	0.01937327	0.05725593	0.08978532	0	0
32.06113	-0.1429653	-0.04168868	-0.0204485	0.05236984	-0.2918021	0.9958383	0	0
32.07776	-0.1440737	-0.03854319	-0.06664367	0.1891216	-1.398843	4.141003	0	0
32.09427	-0.145053	-0.03287053	-0.05931218	0.3435889	0.2212138	4.660758	0	0
32.11082	-0.1437902	-0.01521504	0.07627268	1.066424	4.100457	21.86051	0	0
32.12739	-0.1428622	-0.006678587	0.05601687	0.5152617	-0.6115329	-16.63986	0	0
32.14396	-0.1411085	0.01164168	0.1058501	1.105814	1.50397	17.8229	0	0
32.16053	-0.1395863	0.0263735	0.09188277	0.8892142	-0.421535	-6.536988	0	0
32.17733	-0.1379601	0.0417149	0.09677479	0.912975	0.1465951	0.7120199	0	0
32.19384	-0.1354291	0.06256724	0.1532687	1.262721	1.695618	10.49733	0	0
32.23022	-0.1325084	0.08881353	0.08028786	0.7215087	-1.37984	-10.23263	0	0
32.24679	-0.1295079	0.1202957	0.1811131	1.900267	1.904369	22.26416	0	0
32.26336	-0.1287056	0.1309693	0.04842473	0.6442628	-4.004543	-37.90627	0	0
32.27992	-0.1279809	0.1471666	0.04374766	0.9776688	-0.1411542	10.06221	0	0
32.29649	-0.1279809	0.1697658	0	1.36409	-1.320307	11.66221	0	0
32.31306	-0.1282397	0.1874835	-0.015625	1.069446	-0.4715634	-8.892359	0	0
32.32962	-0.1298702	0.2121608	-0.09841357	1.489521	-2.498564	12.67787	0	0
32.34645	-0.1315258	0.2315405	-0.09839216	1.151726	0.0006412247	-10.11546	0	0
32.36276	-0.1334392	0.2515627	-0.1173291	1.227771	-0.5715189	2.29504	0	0
32.37933	-0.1361782	0.2787445	-0.1653316	1.640693	-1.460149	12.56034	0	0
32.39589	-0.1379859	0.2979484	-0.1091133	1.159148	1.696673	-14.53307	0	0
32.41246	-0.140412	0.3206021	-0.1464372	1.367385	-1.126437	6.284617	0	0
32.42903	-0.1427591	0.3350497	-0.1416683	0.872057	0.1439228	-14.94904	0	0
32.44559	-0.1448469	0.3471034	-0.12602	0.7275609	0.4722695	-4.360902	0	0
32.46216	-0.1472681	0.3563541	-0.1461493	0.5583734	-0.607506	-5.106089	0	0
32.47873	-0.1522855	0.3623374	-0.3028454	0.3611523	-4.729098	-5.952145	0	0
32.4953	-0.1563451	0.3670889	-0.2450414	0.2867995	1.744529	-2.243971	0	0
32.51207	-0.1580394	0.3709477	-0.1009878	0.2300051	4.32019	-1.703273	0	0
32.52859	-0.1580651	0.3709655	-0.001553837	0.001082814	2.986826	-6.876431	0	0
32.545	-0.1579881	0.3707333	0.004691677	-0.01415403	0.1896911	-0.4627791	0	0
32.56157	-0.1580137	0.3706439	-0.001548829	-0.005391219	-0.189232	0.2657163	0	0
32.57813	-0.1580651	0.3705367	-0.003098557	-0.006470541	-0.04677088	-0.03257402	0	0
32.5947	-0.1580394	0.3704117	0.001548829	-0.007548066	0.1402584	-0.03251975	0	0
32.61127	-0.1580394	0.370233	0	-0.01078424	-0.04674374	-0.09766781	0	0
32.62816	-0.1580137	0.3698936	0.001519636	-0.02008954	0.04541308	-0.2780813	0	0
32.6444	-0.1578597	0.3695363	0.009482544	-0.0220042	0.240321	-0.05778459	0	0
32.66119	-0.156191	0.3676962	0.09941761	-0.1096271	2.723338	-2.653324	0	0
32.67754	-0.1530053	0.3654811	0.1948513	-0.1354811	2.880196	-0.7802737	0	0
32.69421	-0.1460062	0.3605512	0.4197579	-0.2956632	6.810431	-4.8505	0	0
32.71072	-0.1419597	0.3576757	0.245038	-0.1741291	-5.264571	3.662005	0	0
32.72724	-0.1384248	0.3552289	0.2140551	-0.148165	-0.9380897	0.7861313	0	0
32.7438	-0.1370047	0.3540681	0.08571624	-0.07006785	-3.879528	2.360781	0	0
32.76037	-0.1370564	0.3540324	-0.003117445	-0.002156847	-2.681006	2.049558	0	0
32.77727	-0.1372113	0.3538895	-0.009168665	-0.00845443	-0.1808151	-0.1881766	0	0
32.79379	-0.1371855	0.3538716	0.001563763	-0.001081009	0.3212058	0.2206757	0	0
32.81007	-0.1369272	0.353443	0.01585462	-0.02631367	0.4356625	-0.769228	0	0
32.83488	-0.1282397	0.347157	0.3501511	-0.2533597	8.133824	-5.524295	0	0
32.85145	-0.1216594	0.3419783	0.3971918	-0.3125845	1.136852	-1.431312	0	0
32.86802	-0.117353	0.3355854	0.2599298	-0.3858742	-4.142576	-2.211885	0	0
32.88458	-0.1187803	0.3238526	-0.08617096	-0.7083573	-10.44654	-9.733682	0	0
32.90115	-0.1213482	0.3125107	-0.1549975	-0.684602	-2.07743	0.7170193	0	0
32.91772	-0.1223594	0.3073119	-0.06103347	-0.313797	2.835841	11.19092	0	0
32.95089	-0.1285245	0.2890818	-0.1858276	-0.54949	-2.508745	-4.738152	0	0
32.96741	-0.1299478	0.2823758	-0.08615036	-0.4059001	2.005664	2.889256	0	0
32.98442	-0.1309309	0.2777247	-0.05782162	-0.273555	0.8450397	3.947824	0	0
33.00055	-0.1316034	0.2730725	-0.04168576	-0.2883827	0.4869812	-0.4475017	0	0
33.01744	-0.1320171	0.2719271	-0.0244961	-0.0678089	0.5205226	6.67923	0	0
33.03368	-0.1316034	0.2716407	0.02547411	-0.01763042	1.508104	1.51439	0	0
33.05046	-0.1316034	0.2716407	0	0	-0.7713855	0.5338694	0	0
33.06682	-0.1315775	0.2716228	0.001581817	-0.001093422	0.04773934	-0.03299954	0	0
33.08349	-0.1315258	0.271587	0.003101943	-0.002148393	0.04602586	-0.03194205	0	0
33.09995	-0.131474	0.2715512	0.003143105	-0.002174464	0.001242276	-0.0007868307	0	0
33.11702	-0.131474	0.2715512	0	0	-0.09375811	0.06486376	0	0
33.13309	-0.131474	0.2715512	0	0	0	0	0	0
33.14965	-0.131474	0.2715512	0	0	0	0	0	0
33.16622	-0.131474	0.2715512	0	0	0	0	0	0
33.18279	-0.1314482	0.2715691	0.001560521	0.001081122	0.04709662	0.03262833	0	0
33.19936	-0.1314482	0.2715691	0	0	-0.04709662	-0.03262833	0	0
33.21592	-0.1314482	0.2715691	0	0	0	0	0	0
33.23249	-0.1314482	0.2715691	0	0	0	0	0	0
33.24906	-0.131474	0.271587	-0.001560521	0.001079323	-0.04709662	0.03257403	0	0
33.26562	-0.131474	0.2716228	0	0.002162742	0.04710205	0.03270141	0	0
33.34868	-0.131474	0.2716228	0	0	0	-0.02170891	0	0
33.38159	-0.1314223	0.271587	0.001571646	-0.001088516	0.01355211	-0.009386134	0	0
33.39822	-0.1314223	0.271587	0	0	-0.0317263	0.0219735	0	0
33.41473	-0.1314223	0.271587	0	0	0	0	0	0
33.43129	-0.1314223	0.271587	0	0	0	0	0	0
33.44786	-0.1314223	0.271587	0	0	0	0	0	0
33.46442	-0.1314223	0.271587	0	0	0	0	0	0
33.48099	-0.1314223	0.271587	0	0	0	0	0	0
33.49756	-0.1314223	0.271587	0	0	0	0	0	0
33.51413	-0.1314223	0.271587	0	0	0	0	0	0
33.53069	-0.1314223	0.271587	0	0	0	0	0	0
33.54733	-0.1314223	0.271587	0	0	0	0	0	0
33.56384	-0.1314223	0.271587	0	0	0	0	0	0
33.58341	-0.1314223	0.271587	0	0	0	0	0	0
33.60036	-0.1314223	0.271587	0	0	0	0	0	0
33.61654	-0.1314482	0.2715691	-0.001598974	-0.001105282	-0.04825714	-0.03335747	0	0
33.63311	-0.1314482	0.2715691	0	0	0.04883056	0.03375384	0	0
33.64968	-0.1314482	0.2715691	0	0	0	0	0	0
33.66624	-0.1314482	0.2715691	0	0	0	0	0	0
33.68281	-0.1314482	0.2715691	0	0	0	0	0	0
33.69938	-0.1314482	0.2715691	0	0	0	0	0	0
33.71595	-0.1314223	0.2715512	0.001561421	-0.001081122	0.04712377	-0.03262833	0	0
33.73251	-0.1314223	0.2715512	0	0	-0.04712377	0.03262833	0	0
33.74908	-0.1314223	0.2715512	0	0	0	0	0	0
33.76565	-0.1314223	0.2715512	0	0	0	0	0	0
33.7825	-0.1313964	0.2715691	0.001535262	0.001063009	0.04594288	0.03181068	0	0
33.79878	-0.1313964	0.2715691	0	0	-0.04633429	-0.03208169	0	0
33.81535	-0.1313964	0.2715691	0	0	0	0	0	0
33.83204	-0.1313964	0.2715691	0	0	0	0	0	0
33.84848	-0.1314223	0.2715512	-0.001572646	-0.001088894	-0.04746255	-0.03286289	0	0
33.86505	-0.1314223	0.2715512	0	0	0.04763255	0.0329806	0	0
33.88162	-0.1314223	0.2715512	0	0	0	0	0	0
33.89818	-0.1314223	0.2715512	0	0	0	0	0	0
33.91475	-0.1314223	0.2715512	0	0	0	0	0	0
33.93132	-0.1314223	0.2715512	0	0	0	0	0	0
33.94788	-0.1314223	0.2715512	0	0	0	0	0	0
33.96445	-0.1314223	0.2715512	0	0	0	0	0	0
33.98114	-0.1314223	0.2715512	0	0	0	0	0	0
33.99765	-0.1314223	0.2715512	0	0	0	0	0	0
34.01415	-0.1314223	0.2715512	0	0	0	0	0	0
34.03072	-0.1314223	0.2715512	0	0	0	0	0	0
34.04729	-0.1314223	0.2715512	0	0	0	0	0	0
34.06385	-0.1314223	0.2715512	0	0	0	0	0	0
34.08042	-0.1314223	0.2715512	0	0	0	0	0	0
34.10349	-0.1314223	0.2715512	0	0	0	0	0	0
34.12025	-0.1314223	0.271587	0	0.002135369	0	0.05361822	0	0
34.21946	-0.1314482	0.2715691	-0.0002607471	-0.0001802399	-0.002248389	-0.01996721	0	0
34.23602	-0.1314223	0.2715512	0.001561421	-0.001081122	0.01573873	-0.007781246	0	0
34.25259	-0.1314223	0.2715512	0	0	-0.04712377	0.03262833	0	0
34.26935	-0.1314223	0.2715512	0	0	0	0	0	0
34.28572	-0.1314223	0.2715512	0	0	0	0	0	0
34.30229	-0.1314223	0.2715512	0	0	0	0	0	0
34.32292	-0.1314223	0.2715512	0	0	0	0	0	0
34.33949	-0.1314223	0.2715512	0	0	0	0	0	0
34.35641	-0.1314223	0.2715512	0	0	0	0	0	0
34.37262	-0.1313964	0.2715691	0.001596339	0.0011053	0.04818317	0.03336185	0	0
34.38943	-0.1313964	0.2715691	0	0	-0.04834459	-0.03347362	0	0
34.40577	-0.1313964	0.2715691	0	0	0	0	0	0
34.42245	-0.1313964	0.2715691	0	0	0	0	0	0
34.43888	-0.1313964	0.2715691	0	0	0	0	0	0
34.45545	-0.1313964	0.2715691	0	0	0	0	0	0
34.47202	-0.1313964	0.2715691	0	0	0	0	0	0
34.48858	-0.1314223	0.271587	-0.00156178	0.001079572	-0.04714005	0.03258529	0	0
34.50551	-0.1314223	0.271587	0	0	0.04663	-0.03223271	0	0
34.52172	-0.1314223	0.271587	0	0	0	0	0	0
34.53828	-0.1313964	0.2715691	0.001561421	-0.001079323	0.04764486	-0.03293424	0	0
34.55485	-0.1314223	0.2715512	-0.001561421	-0.001081122	-0.09424753	-5.42929E-05	0	0
34.57142	-0.1314223	0.2715512	0	0	0.04712377	0.03262833	0	0
34.58799	-0.1314223	0.2715512	0	0	0	0	0	0
34.60455	-0.1314223	0.2715512	0	0	0	0	0	0
34.6216	-0.1314223	0.2715512	0	0	0	0	0	0
34.63811	-0.1314223	0.2715512	0	0	0	0	0	0
34.65425	-0.1314223	0.2715512	0	0	0	0	0	0
34.67081	-0.1314223	0.2715512	0	0	0	0	0	0
34.68764	-0.1314223	0.2715512	0	0	0	0	0	0
34.70415	-0.1314223	0.2715512	0	0	0	0	0	0
34.72051	-0.1314223	0.2715512	0	0	0	0	0	0
34.73708	-0.1314223	0.2715512	0	0	0	0	0	0
34.75368	-0.1314223	0.2715512	0	0	0	0	0	0
34.77069	-0.1314223	0.2715512	0	0	0	0	0	0
34.78678	-0.1314223	0.2715512	0	0	0	0	0	0
34.80334	-0.1314223	0.2715512	0	0	0	0	0	0
34.81991	-0.1314223	0.2715512	0	0	0	0	0	0
34.83648	-0.1313964	0.2715333	0.001561421	-0.001079323	0.04712377	-0.03257403	0	0
34.93588	-0.1313964	0.2715333	0	0	-0.01346393	0.009306867	0	0
34.95245	-0.1313964	0.2715333	0	0	0	0	0	0
34.99662	-0.1314223	0.2715512	-0.0005856507	0.0004048277	-0.009642308	0.00666519	0	0
35.01337	-0.1314223	0.2715512	0	0	0.009613327	-0.006645157	0	0
35.02988	-0.1314223	0.2715512	0	0	0	0	0	0
35.04639	-0.1314223	0.2715512	0	0	0	0	0	0
35.07945	-0.1314223	0.2715512	0	0	0	0	0	0
35.09602	-0.1314223	0.2715512	0	0	0	0	0	0
35.11259	-0.1314223	0.2715512	0	0	0	0	0	0
35.12915	-0.1314223	0.2715512	0	0	0	0	0	0
35.14572	-0.1314223	0.2715512	0	0	0	0	0	0
35.16229	-0.1314223	0.2715512	0	0	0	0	0	0
35.17901	-0.1313964	0.2715333	0.001547171	-0.001069473	0.04647967	-0.0321288	0	0
35.19542	-0.1313964	0.2715333	0	0	-0.04669371	0.03227676	0	0
35.21201	-0.1313964	0.2715333	0	0	0	0	0	0
35.22856	-0.1313964	0.2715333	0	0	0	0	0	0
35.24512	-0.1313964	0.2715333	0	0	0	0	0	0
35.26205	-0.1313964	0.2715333	0	0	0	0	0	0
35.27826	-0.1313964	0.2715333	0	0	0	0	0	0
35.29483	-0.1313706	0.2715154	0.001560521	-0.001081122	0.04761188	-0.03298529	0	0
35.31139	-0.1313706	0.2715154	0	0	-0.04709662	0.03262833	0	0
35.3281	-0.1313447	0.2714975	0.001548231	-0.001070205	0.0465275	-0.03216187	0	0
35.37855	-0.1313189	0.2714796	0.0005127599	-0.0003550331	-0.01541849	0.01064914	0	0
35.39515	-0.1313189	0.2714796	0	0	-0.007647754	0.005295277	0	0
35.42825	-0.131293	0.2714617	0.00078143	-0.000540159	0.0157224	-0.01086802	0	0
35.44482	-0.131293	0.2714617	0	0	-0.01573206	0.0108747	0	0
35.4617	-0.131293	0.2714617	0	0	0	0	0	0
35.47795	-0.131293	0.2714617	0	0	0	0	0	0
35.49452	-0.131293	0.2714617	0	0	0	0	0	0
35.51123	-0.131293	0.2714617	0	0	0	0	0	0
35.52775	-0.131293	0.2714617	0	0	0	0	0	0
35.54426	-0.131293	0.2714617	0	0	0	0	0	0
35.56079	-0.131293	0.2714617	0	0	0	0	0	0
35.57735	-0.131293	0.2714617	0	0	0	0	0	0
35.5943	-0.131293	0.2714617	0	0	0	0	0	0
35.61049	-0.131293	0.2714617	0	0	0	0	0	0
35.62732	-0.131293	0.2714617	0	0	0	0	0	0
35.69333	-0.1312671	0.2714438	0.000391686	-0.0002713583	0.004728443	-0.003275844	0	0
35.70989	-0.1312671	0.2714438	0	0	-0.004743516	0.003286286	0	0
35.72646	-0.1312671	0.2714438	0	0	0	0	0	0
35.74303	-0.1312671	0.2714438	0	0	0	0	0	0
35.75959	-0.1312671	0.2714438	0	0	0	0	0	0
35.77961	-0.1312671	0.2714438	0	0	0	0	0	0
35.79618	-0.1312671	0.2714438	0	0	0	0	0	0
35.81275	-0.1312671	0.2714438	0	0	0	0	0	0
35.82932	-0.1312671	0.2714438	0	0	0	0	0	0
35.84588	-0.1312671	0.2714438	0	0	0	0	0	0
35.87902	-0.1312671	0.2714438	0	0	0	0	0	0
35.89558	-0.1312671	0.2714438	0	0	0	0	0	0
35.91215	-0.1312671	0.2714438	0	0	0	0	0	0
35.92872	-0.1312413	0.2714259	0.001561421	-0.001081122	0.04712377	-0.03262833	0	0
35.94529	-0.1312413	0.2714259	0	0	-0.04712377	0.03262833	0	0
35.96185	-0.1312413	0.2714259	0	0	0	0	0	0
35.97842	-0.1312413	0.2714259	0	0	0	0	0	0
35.99499	-0.1312413	0.2714259	0	0	0	0	0	0
36.01155	-0.1312413	0.2714259	0	0	0	0	0	0
36.02812	-0.1312154	0.271408	0.001561421	-0.001079323	0.04712377	-0.03257403	0	0
36.04469	-0.1312154	0.271408	0	0	-0.04712377	0.03257403	0	0
36.06126	-0.1312154	0.271408	0	0	0	0	0	0
36.07782	-0.1312413	0.2714259	-0.001561421	0.001079323	-0.04712377	0.03257403	0	0
36.09466	-0.1312413	0.2714259	0	0	0.0467417	-0.03230993	0	0
36.11096	-0.1312413	0.2714259	0	0	0	0	0	0
36.12769	-0.1312413	0.2714259	0	0	0	0	0	0
36.1442	-0.1312413	0.2714259	0	0	0	0	0	0
36.16066	-0.1312413	0.2714259	0	0	0	0	0	0
36.17722	-0.1312413	0.2714259	0	0	0	0	0	0
36.19379	-0.1312413	0.2714259	0	0	0	0	0	0
36.21036	-0.1312413	0.2714259	0	0	0	0	0	0
36.22692	-0.1312413	0.2714259	0	0	0	0	0	0
36.24349	-0.1312413	0.2714259	0	0	0	0	0	0
36.26006	-0.1312154	0.271408	0.001561421	-0.001079323	0.04712377	-0.03257403	0	0
36.27663	-0.1312154	0.271408	0	0	-0.04712377	0.03257403	0	0
36.29319	-0.1312154	0.271408	0	0	0	0	0	0
36.32633	-0.1311895	0.2713901	0.0007807103	-0.000540561	0.01570792	-0.01087611	0	0
36.3429	-0.1311637	0.2713722	0.001560521	-0.001079323	0.01568983	-0.01083991	0	0
36.35946	-0.1310343	0.2712827	0.007807103	-0.005402012	0.1885222	-0.130459	0	0
36.37637	-0.1306981	0.2710501	0.01989446	-0.01376488	0.3611383	-0.2498605	0	0
36.3926	-0.1306204	0.2709606	0.00478114	-0.005513734	-0.4561208	0.2490201	0	0
36.40916	-0.1305946	0.2709427	0.001561421	-0.001081122	-0.09816587	0.1351457	0	0
36.42573	-0.1304652	0.2708532	0.007808003	-0.005402012	0.1885222	-0.1304047	0	0
36.44549	-0.1304394	0.2708353	0.001309374	-0.0009050975	-0.1789095	0.1238016	0	0
36.46206	-0.1304394	0.2708353	0	0	-0.03604754	0.02491765	0	0
36.47862	-0.1304394	0.2708353	0	0	0	0	0	0
36.49519	-0.1304394	0.2708353	0	0	0	0	0	0
36.51196	-0.1304394	0.2708353	0	0	0	0	0	0
36.52833	-0.1304394	0.2708353	0	0	0	0	0	0
36.54499	-0.1304394	0.2708353	0	0	0	0	0	0
