Time	Pos X	Pos Y	Vel X	Vel Y	Acc X	Acc YForce X	Force Y
0.01650792	-0.2205128	0.3179409	0.003359409	-0.004843681	-5.119191E-05	7.380978E-05	0	0
0.06261939	-0.2205128	0.3179409	0	0	5.121501E-05	-7.384309E-05	0	0
0.0791877	-0.2205128	0.3179409	0	0	0	0	0	0
0.129092	-0.2205128	0.3179409	0	0	0	0	0	0
0.1456027	-0.2205128	0.3179409	0	0	0	0	0	0
0.1620202	-0.2205128	0.3179409	0	0	0	0	0	0
0.1786252	-0.2205128	0.3179409	0	0	0	0	0	0
0.1951533	-0.2205128	0.3179409	0	0	0	0	0	0
0.2117236	-0.2205128	0.3179409	0	0	0	0	0	0
0.2282883	-0.2205128	0.3179409	0	0	0	0	0	0
0.2448558	-0.2205128	0.3179409	0	0	0	0	0	0
0.2614202	-0.2205128	0.3179409	0	0	0	0	0	0
0.2779885	-0.2205378	0.3179587	-0.001512753	0.001079253	-0.04565747	0.0325737	0	0
0.2947068	-0.2205378	0.3179587	0	0	0.04544627	-0.03242302	0	0
0.31112	-0.2205378	0.3179587	0	0	0	0	0	0
0.3276867	-0.2205378	0.3179587	0	0	0	0	0	0
0.3442539	-0.2205378	0.3179587	0	0	0	0	0	0
0.3608202	-0.2205629	0.3179766	-0.001512933	0.001077582	-0.04566176	0.03252247	0	0
0.3773865	-0.2205629	0.3179766	0	0	0.04566287	-0.03252326	0	0
0.3939533	-0.2205629	0.3179766	0	0	0	0	0	0
0.41052	-0.2205378	0.3179944	0.001512897	0.001077557	0.04566073	0.03252173	0	0
0.4299988	-0.2205629	0.3180123	-0.001286716	0.0009164599	-0.07766869	-0.004469264	0	0
0.4465687	-0.2205629	0.3180123	0	0	0.03569378	-0.0254228	0	0
0.4631339	-0.2205629	0.318048	0	0.002157119	0	0.06510086	0	0
0.4797046	-0.2205629	0.318048	0	0	0	-0.06509928	0	0
0.496267	-0.2205629	0.3180838	0	0.002157476	0	0.06511545	0	0
0.5128653	-0.2205879	0.3181016	-0.001509118	0.001075504	-0.04550916	-0.03262809	0	0
0.5294017	-0.2205879	0.3181016	0	0	0.04554493	-0.03245855	0	0
0.5459672	-0.2205879	0.3181016	0	0	0	0	0	0
0.5625336	-0.2205629	0.3180838	0.001512033	-0.001077582	0.04563678	-0.03252402	0	0
0.5791015	-0.2205629	0.3180838	0	0	-0.0456335	0.03252168	0	0
0.5956671	-0.2205629	0.3180838	0	0	0	0	0	0
0.6124355	-0.2205629	0.3180838	0	0	0	0	0	0
0.6288002	-0.2205378	0.3180659	0.00153158	-0.001092685	0.0462251	-0.03297867	0	0
0.6453669	-0.2205378	0.3180659	0	0	-0.04650823	0.03318066	0	0
0.6619332	-0.2205378	0.3180659	0	0	0	0	0	0
0.6785004	-0.2205378	0.3180659	0	0	0	0	0	0
0.6950884	-0.2205378	0.3180659	0	0	0	0	0	0
0.7116338	-0.2205378	0.3180659	0	0	0	0	0	0
0.7282001	-0.2205378	0.3180659	0	0	0	0	0	0
0.7450246	-0.2205378	0.3180659	0	0	0	0	0	0
0.7613332	-0.2205378	0.3180659	0	0	0	0	0	0
0.7778999	-0.2205128	0.318048	0.001512895	-0.001077555	0.04601919	-0.03277705	0	0
0.7945606	-0.2205128	0.318048	0	0	-0.04553148	0.03242968	0	0
0.8110709	-0.2205128	0.318048	0	0	0	0	0	0
0.8275998	-0.2205128	0.318048	0	0	0	0	0	0
0.8441665	-0.2205378	0.3180659	-0.001512895	0.001077555	-0.04571287	0.03255887	0	0
0.8607336	-0.2205378	0.3180659	0	0	0.04566007	-0.03252127	0	0
0.8773004	-0.2205128	0.318048	0.001512895	-0.001077555	0.04566007	-0.03252127	0	0
0.8938667	-0.2205128	0.318048	0	0	-0.04566114	0.03252203	0	0
0.9601771	-0.2205128	0.3180123	0	-0.0005388749	0	-0.00650213	0	0
1.009834	-0.2205128	0.3179766	0	-0.0007189996	0	-0.001553239	0	0
1.0264	-0.2205128	0.3179766	0	0	0	0.0108573	0	0
1.043235	-0.2205128	0.3179766	0	0	0	0	0	0
1.059534	-0.2205128	0.3179766	0	0	0	0	0	0
1.07626	-0.2205128	0.3179766	0	0	0	0	0	0
1.113789	-0.2205128	0.3179766	0	0	0	0	0	0
1.130345	-0.2205128	0.3179766	0	0	0	0	0	0
1.146912	-0.2205128	0.3179766	0	0	0	0	0	0
1.163479	-0.2205128	0.3179766	0	0	0	0	0	0
1.180046	-0.2205128	0.3179766	0	0	0	0	0	0
1.196612	-0.2205128	0.3179766	0	0	0	0	0	0
1.213369	-0.2205128	0.3179766	0	0	0	0	0	0
1.229748	-0.2205128	0.3179766	0	0	0	0	0	0
1.246315	-0.2205128	0.3179766	0	0	0	0	0	0
1.262879	-0.2204877	0.3179587	0.001512213	-0.00107771	0.04564278	-0.03252829	0	0
1.279446	-0.2204877	0.3179587	0	0	-0.04564376	0.03252899	0	0
1.296014	-0.2204877	0.3179587	0	0	0	0	0	0
1.312579	-0.2204877	0.3179587	0	0	0	0	0	0
1.329147	-0.2204877	0.3179587	0	0	0	0	0	0
1.345713	-0.2204877	0.3179587	0	0	0	0	0	0
1.36228	-0.2204877	0.3179587	0	0	0	0	0	0
1.378981	-0.2204877	0.3179587	0	0	0	0	0	0
1.395412	-0.2204877	0.3179587	0	0	0	0	0	0
1.411999	-0.2204877	0.3179587	0	0	0	0	0	0
1.428544	-0.2204877	0.3179587	0	0	0	0	0	0
1.445524	-0.2204877	0.3179587	0	0	0	0	0	0
1.461679	-0.2204877	0.3179587	0	0	0	0	0	0
1.478543	-0.2204877	0.3179587	0	0	0	0	0	0
1.495054	-0.2204877	0.3179587	0	0	0	0	0	0
1.511378	-0.2204877	0.3179587	0	0	0	0	0	0
1.527944	-0.2205128	0.3179766	-0.001511995	0.001077555	-0.04597083	0.03276208	0	0
1.544589	-0.2205128	0.3179766	0	0	0.04552597	-0.03244504	0	0
1.561101	-0.2205128	0.3179766	0	0	0	0	0	0
1.577645	-0.2205128	0.3179766	0	0	0	0	0	0
1.594211	-0.2205128	0.3179766	0	0	0	0	0	0
1.610778	-0.2205128	0.3179766	0	0	0	0	0	0
1.627344	-0.2205128	0.3179766	0	0	0	0	0	0
1.643911	-0.2204877	0.3179587	0.001511995	-0.001077555	0.04563342	-0.03252162	0	0
1.660672	-0.2204877	0.3179587	0	0	-0.04536801	0.03233247	0	0
1.677045	-0.2205128	0.3179409	-0.001529862	-0.001092108	-0.04617216	-0.03296049	0	0
1.693612	-0.2205128	0.3179409	0	0	0.04644385	0.03315445	0	0
1.710209	-0.2205128	0.3179409	0	0	0	0	0	0
1.726745	-0.2204877	0.317923	0.001514775	-0.001079536	0.0457178	-0.03258175	0	0
1.743311	-0.2204877	0.317923	0	0	-0.04575978	0.03261167	0	0
1.759879	-0.2204877	0.317923	0	0	0	0	0	0
1.866088	-0.2205378	0.3178873	-0.0004718289	-0.0003364394	-0.003842994	-0.002740261	0	0
1.882654	-0.2205378	0.3178873	0	0	0.003843016	0.002740277	0	0
1.899341	-0.2205128	0.3179052	0.001501979	0.001071566	0.04516747	0.03222412	0	0
1.915853	-0.2205378	0.3178873	-0.001517963	-0.00108297	-0.09096595	-0.06489842	0	0
1.932365	-0.2205378	0.3178873	0	0	0.04596634	0.03279406	0	0
1.948922	-0.2205378	0.3178873	0	0	0	0	0	0
1.965488	-0.2205378	0.3178873	0	0	0	0	0	0
1.982054	-0.2205128	0.3178694	0.001512971	-0.001077609	0.04566402	-0.03252408	0	0
1.998621	-0.2205128	0.3178694	0	0	-0.04566402	0.03252408	0	0
2.015188	-0.2205128	0.3178694	0	0	0	0	0	0
2.031754	-0.2204877	0.3178516	0.001511995	-0.001077555	0.04563342	-0.03252162	0	0
2.048321	-0.2204877	0.3178516	0	0	-0.04563342	0.03252162	0	0
2.064888	-0.2204877	0.3178516	0	0	0	0	0	0
2.081454	-0.2204877	0.3178516	0	0	0	0	0	0
2.098021	-0.2204877	0.3178516	0	0	0	0	0	0
2.114587	-0.2204877	0.3178516	0	0	0	0	0	0
2.131155	-0.2204877	0.3178516	0	0	0	0	0	0
2.148017	-0.2204877	0.3178516	0	0	0	0	0	0
2.164289	-0.2204877	0.3178516	0	0	0	0	0	0
2.180854	-0.2204877	0.3178516	0	0	0	0	0	0
2.197552	-0.2205128	0.3178694	-0.0015001	0.001069078	-0.04509787	0.03213995	0	0
2.213988	-0.2205128	0.3178694	0	0	0.04527343	-0.03226506	0	0
2.230577	-0.2205128	0.3178694	0	0	0	0	0	0
2.247122	-0.2205128	0.3178694	0	0	0	0	0	0
2.263688	-0.2205128	0.3178694	0	0	0	0	0	0
2.280255	-0.2205128	0.3178694	0	0	0	0	0	0
2.296822	-0.2205128	0.3178694	0	0	0	0	0	0
2.313388	-0.2205128	0.3178694	0	0	0	0	0	0
2.329956	-0.2205128	0.3178694	0	0	0	0	0	0
2.346522	-0.2204877	0.3178516	0.001512039	-0.001077586	0.04563474	-0.03252255	0	0
2.363172	-0.2204877	0.3178516	0	0	-0.04552107	0.03244155	0	0
2.379665	-0.2204877	0.3178516	0	0	0	0	0	0
2.396224	-0.2204877	0.3178516	0	0	0	0	0	0
2.413211	-0.2204877	0.3178516	0	0	0	0	0	0
2.429357	-0.2204877	0.3178516	0	0	0	0	0	0
2.450531	-0.2204877	0.3178516	0	0	0	0	0	0
2.4671	-0.2204877	0.3178516	0	0	0	0	0	0
2.483754	-0.2204877	0.3178516	0	0	0	0	0	0
2.500233	-0.2204877	0.3178516	0	0	0	0	0	0
2.516799	-0.2204877	0.3178516	0	0	0	0	0	0
2.533365	-0.2204877	0.3178516	0	0	0	0	0	0
2.583065	-0.2205128	0.3178694	-0.0005040008	0.0003591868	-0.007605688	0.005420354	0	0
2.599838	-0.2205128	0.3178694	0	0	0.007582092	-0.005403537	0	0
2.616199	-0.2205128	0.3178694	0	0	0	0	0	0
2.632859	-0.2205128	0.3178694	0	0	0	0	0	0
2.649377	-0.2205128	0.3178694	0	0	0	0	0	0
2.665905	-0.2205128	0.3178694	0	0	0	0	0	0
2.682466	-0.2204877	0.3178516	0.001512539	-0.001077943	0.04571201	-0.03257763	0	0
2.699033	-0.2204877	0.3178516	0	0	-0.04565806	0.03253917	0	0
2.715599	-0.2204877	0.3178516	0	0	0	0	0	0
2.73243	-0.2204877	0.3178516	0	0	0	0	0	0
2.748732	-0.2204627	0.3178337	0.001537432	-0.00109686	0.04640213	-0.03310497	0	0
2.825118	-0.2204376	0.3178158	0.0003279237	-0.0002337017	-0.01304917	0.009312458	0	0
2.858252	-0.2204376	0.3178158	0	0	-0.002994198	0.002133878	0	0
2.875032	-0.2204627	0.3178337	-0.001492747	0.001063837	-0.02990644	0.02131345	0	0
2.891543	-0.2204627	0.3178337	0	0	0.04483921	-0.03195561	0	0
2.908055	-0.2204627	0.3178337	0	0	0	0	0	0
2.924573	-0.2204627	0.3178337	0	0	0	0	0	0
2.941086	-0.2204627	0.3178337	0	0	0	0	0	0
2.957652	-0.2204877	0.3178516	-0.001512938	0.001079385	-0.04573626	0.03262991	0	0
2.97422	-0.2204877	0.3178516	0	0	0.04566188	-0.03257685	0	0
2.990786	-0.2204877	0.3178516	0	0	0	0	0	0
3.007352	-0.2204877	0.3178516	0	0	0	0	0	0
3.023919	-0.2204877	0.3178516	0	0	0	0	0	0
3.040648	-0.2204877	0.3178516	0	0	0	0	0	0
3.057161	-0.2204877	0.3178516	0	0	0	0	0	0
3.073619	-0.2204627	0.3178337	0.001522844	-0.001086453	0.04618652	-0.03295114	0	0
3.090185	-0.2204627	0.3178337	0	0	-0.04611216	0.03289809	0	0
3.106752	-0.2204627	0.3178337	0	0	0	0	0	0
3.123318	-0.2204627	0.3178337	0	0	0	0	0	0
3.159307	-0.2204376	0.3178158	0.0006960271	-0.0004960383	0.01324376	-0.009438446	0	0
3.175874	-0.2204376	0.3178158	0	0	-0.01324376	0.009438446	0	0
3.19244	-0.2204376	0.3178158	0	0	0	0	0	0
3.209008	-0.2204376	0.3178158	0	0	0	0	0	0
3.225573	-0.2204376	0.3178158	0	0	0	0	0	0
3.24229	-0.2204376	0.3178158	0	0	0	0	0	0
3.258706	-0.2204376	0.3178158	0	0	0	0	0	0
3.275273	-0.2204376	0.3178158	0	0	0	0	0	0
3.29184	-0.2204376	0.3178158	0	0	0	0	0	0
3.308407	-0.2204376	0.3178158	0	0	0	0	0	0
3.324974	-0.2204627	0.3178337	-0.001511952	0.001077524	-0.04563145	0.03252021	0	0
3.383331	-0.2204627	0.3178337	0	0	0.02017981	-0.01438156	0	0
3.399906	-0.2204627	0.3178337	0	0	0	0	0	0
3.416468	-0.2204627	0.3178337	0	0	0	0	0	0
3.433034	-0.2204627	0.3178337	0	0	0	0	0	0
3.449599	-0.2204376	0.3178158	0.001512104	-0.001077633	0.04563999	-0.0325263	0	0
3.466165	-0.2204376	0.3178158	0	0	-0.04563933	0.03252583	0	0
3.482731	-0.2204125	0.317798	0.00151296	-0.001077602	0.04566451	-0.03252443	0	0
3.499298	-0.2204125	0.317798	0	0	-0.04566352	0.03252372	0	0
3.515865	-0.2203374	0.3177444	0.004537654	-0.003234371	0.1369486	-0.09761492	0	0
3.532432	-0.2202872	0.3176729	0.00302489	-0.004313819	-0.04565597	-0.03257825	0	0
3.549008	-0.2201118	0.3175479	0.01058237	-0.007542143	0.2280262	-0.09740578	0	0
3.565566	-0.2199865	0.3174586	0.007568831	-0.005394479	-0.09095147	0.06481847	0	0
3.582132	-0.2195855	0.3171728	0.02420791	-0.01725037	0.5023347	-0.3579301	0	0
3.598699	-0.2155209	0.3142791	0.2453435	-0.1746683	6.674173	-4.751087	0	0
3.615265	-0.2112479	0.3112423	0.2579362	-0.1833138	0.3800645	-0.2609331	0	0
3.664966	-0.201946	0.3045782	0.1871573	-0.1340845	-1.068086	0.7428931	0	0
3.681532	-0.2015166	0.3042745	0.02592054	-0.01833516	-2.433138	1.746711	0	0
3.698114	-0.2014408	0.3041137	0.004570453	-0.009698059	-0.644078	0.2605594	0	0
3.714665	-0.2013145	0.3038813	0.007631877	-0.01403574	0.09239727	-0.1309161	0	0
3.731232	-0.2026026	0.3023625	-0.07775307	-0.09168034	-2.578203	-2.344483	0	0
3.747799	-0.2081009	0.2984667	-0.331887	-0.2351607	-7.669998	-4.330369	0	0
3.764365	-0.2165503	0.2923178	-0.51002	-0.3711557	-5.37622	-4.104456	0	0
3.780932	-0.2226916	0.287866	-0.3707131	-0.2687291	4.204474	3.091374	0	0
3.797498	-0.2264932	0.2850048	-0.2294716	-0.1727038	4.26286	2.898174	0	0
3.814066	-0.2355947	0.278333	-0.5493683	-0.4027098	-9.65464	-6.941694	0	0
3.830707	-0.2391746	0.2756851	-0.2151265	-0.159124	10.06506	7.335127	0	0
3.847218	-0.2457216	0.270889	-0.3965078	-0.2904724	-5.471144	-3.961965	0	0
3.863783	-0.2502472	0.2675415	-0.2732079	-0.2020802	3.727743	2.672375	0	0
3.880333	-0.2565852	0.2628323	-0.3829611	-0.2845435	-3.314313	-2.490219	0	0
3.903105	-0.262755	0.2581573	-0.2709385	-0.2052988	2.848861	2.015282	0	0
3.919672	-0.2688799	0.2534268	-0.3697005	-0.2855331	-2.510534	-2.039557	0	0
3.936239	-0.2735943	0.2497163	-0.2845581	-0.2239631	2.569603	1.858186	0	0
3.952806	-0.2749842	0.2486227	-0.0839	-0.0660142	6.055961	4.766977	0	0
3.969373	-0.2808975	0.2440498	-0.3569388	-0.2760295	-8.240564	-6.338458	0	0
3.98594	-0.2859189	0.2400851	-0.3031006	-0.2393189	1.624887	1.107961	0	0
4.002506	-0.28921	0.2368906	-0.1986608	-0.1928259	3.152135	1.403223	0	0
4.019341	-0.2887506	0.2292235	0.02728744	-0.4554081	6.76452	-7.861281	0	0
4.035639	-0.2837133	0.2202378	0.3090805	-0.5513473	8.504777	-2.895535	0	0
4.052364	-0.2793177	0.2132406	0.2628175	-0.4183788	-1.400957	4.026614	0	0
4.068876	-0.2720079	0.2079123	0.4426871	-0.322682	5.411731	2.879227	0	0
4.08534	-0.2628532	0.2011749	0.5560539	-0.409225	3.437843	-2.624412	0	0
4.101906	-0.2586523	0.1981286	0.2535818	-0.1838886	-9.157489	6.822169	0	0
4.118473	-0.2492094	0.1912201	0.5699862	-0.4170085	9.549518	-7.035876	0	0
4.13504	-0.2459444	0.1888376	0.1970856	-0.1438122	-11.25449	8.245316	0	0
4.151606	-0.2413097	0.185461	0.2797748	-0.2038289	2.495709	-1.81141	0	0
4.168446	-0.2358436	0.1814864	0.3245834	-0.2360133	1.341324	-0.9634249	0	0
4.184957	-0.2322081	0.1788475	0.2201868	-0.1598302	-3.1302	2.284252	0	0
4.201306	-0.2282417	0.1759724	0.2426054	-0.1758599	0.6822506	-0.4878192	0	0
4.217873	-0.2265182	0.1747243	0.1040344	-0.07533622	-4.209888	3.053983	0	0
4.234492	-0.2259434	0.1743082	0.03458723	-0.0250364	-2.092669	1.515696	0	0
4.251015	-0.2259184	0.1742901	0.001512359	-0.001094814	-0.9979574	0.7223818	0	0
4.267573	-0.2259184	0.1742901	0	0	-0.04571676	0.0330949	0	0
4.284139	-0.2259184	0.1742901	0	0	0	0	0	0
4.300706	-0.2259184	0.1742901	0	0	0	0	0	0
4.317273	-0.2259184	0.1742901	0	0	0	0	0	0
4.333839	-0.2258934	0.174272	0.001509297	-0.001091947	0.04555198	-0.03295596	0	0
4.350408	-0.2258934	0.174272	0	0	-0.04555001	0.03295454	0	0
4.366973	-0.2258934	0.174272	0	0	0	0	0	0
4.383554	-0.2258934	0.174272	0	0	0	0	0	0
4.400113	-0.2258934	0.174272	0	0	0	0	0	0
4.416673	-0.2258934	0.174272	0	0	0	0	0	0
4.433239	-0.2258684	0.174254	0.001508397	-0.001091947	0.04553466	-0.03296308	0	0
4.449806	-0.2258684	0.174254	0	0	-0.04552549	0.03295644	0	0
4.466373	-0.2258684	0.174254	0	0	0	0	0	0
4.48294	-0.2258934	0.1742359	-0.001508397	-0.001091947	-0.04552352	-0.03295501	0	0
4.52009	-0.2258684	0.1742178	0.0006726684	-0.0004869526	0.04060351	0.01126279	0	0
4.536656	-0.2257934	0.1741635	0.004527121	-0.003275934	0.07175653	-0.05192116	0	0
4.553222	-0.2255185	0.1739645	0.01659825	-0.01201356	0.3643282	-0.2637172	0	0
4.56979	-0.2250184	0.1736026	0.0301833	-0.02184037	0.4100037	-0.2965781	0	0
4.586355	-0.2217903	0.1712682	0.1948708	-0.1409218	4.970494	-3.594041	0	0
4.602921	-0.2151944	0.1665063	0.3981492	-0.2874493	6.135484	-4.422588	0	0
4.619488	-0.2096623	0.1625201	0.3339279	-0.2406132	-1.938288	1.413576	0	0
4.636275	-0.2021228	0.1570983	0.4491265	-0.3229735	3.453839	-2.469291	0	0
4.652622	-0.1969654	0.1533963	0.31551	-0.2264693	-4.03267	2.912586	0	0
4.669299	-0.1919241	0.1497828	0.3022847	-0.2166717	-0.4004797	0.2966814	0	0
4.68581	-0.1858563	0.14544	0.3675063	-0.263037	1.965226	-1.397055	0	0
4.702322	-0.1831353	0.1434946	0.1647822	-0.1178097	-6.138811	4.397714	0	0
4.718889	-0.1768181	0.138983	0.381327	-0.2723343	6.546264	-4.671359	0	0
4.735456	-0.1756959	0.1381822	0.06774386	-0.04833977	-9.464366	6.760459	0	0
4.752358	-0.1722752	0.1357426	0.2023752	-0.1443352	4.022544	-2.868173	0	0
4.768589	-0.1708189	0.1347045	0.08972508	-0.06395885	-3.399934	2.425868	0	0
4.78538	-0.1703845	0.1343948	0.02587483	-0.01843993	-1.933571	1.378445	0	0
4.801722	-0.1703845	0.1343948	0	0	-0.7809376	0.5565423	0	0
4.818288	-0.1703845	0.1343948	0	0	0	0	0	0
4.851424	-0.1703845	0.1343948	0	0	0	0	0	0
4.867989	-0.1703845	0.1343948	0	0	0	0	0	0
4.884555	-0.1703845	0.1343948	0	0	0	0	0	0
4.901122	-0.1703845	0.1343948	0	0	0	0	0	0
4.917689	-0.1703589	0.1343766	0.001542532	-0.00110001	0.04655439	-0.03319885	0	0
4.934487	-0.1703589	0.1343766	0	0	-0.04623171	0.03296874	0	0
4.951001	-0.1703589	0.1343766	0	0	0	0	0	0
4.967511	-0.1703589	0.1343766	0	0	0	0	0	0
4.983956	-0.1703589	0.1343766	0	0	0	0	0	0
5.000523	-0.1703589	0.1343766	0	0	0	0	0	0
5.017089	-0.1703589	0.1343766	0	0	0	0	0	0
5.034056	-0.1703589	0.1343766	0	0	0	0	0	0
5.050222	-0.1703589	0.1343766	0	0	0	0	0	0
5.066789	-0.1703589	0.1343766	0	0	0	0	0	0
5.083591	-0.1703845	0.1343584	-0.001520951	-0.001083733	-0.04557902	-0.03247672	0	0
5.099922	-0.1703845	0.1343584	0	0	0.04590438	0.03270854	0	0
5.119877	-0.1703845	0.1343584	0	0	0	0	0	0
5.136628	-0.1703845	0.1343584	0	0	0	0	0	0
5.153012	-0.1703845	0.1343584	0	0	0	0	0	0
5.169578	-0.1703589	0.1343402	0.001542621	-0.001100073	0.04681714	-0.03338622	0	0
5.186144	-0.1703589	0.1343402	0	0	-0.04655908	0.03320219	0	0
5.235846	-0.1703845	0.134322	-0.0005141775	-0.0003663702	-0.007759065	-0.005528617	0	0
5.252411	-0.1703589	0.1343038	0.00154271	-0.001099237	0.03103939	-0.0110593	0	0
5.268979	-0.1703589	0.1343038	0	0	-0.04656176	0.03317695	0	0
5.285545	-0.1703589	0.1343038	0	0	0	0	0	0
5.302248	-0.1703589	0.1343038	0	0	0	0	0	0
5.318678	-0.1703589	0.1343038	0	0	0	0	0	0
5.335246	-0.1703589	0.1343038	0	0	0	0	0	0
5.351812	-0.1703589	0.1343038	0	0	0	0	0	0
5.368794	-0.1703333	0.1342855	0.001504851	-0.001073138	0.04485616	-0.03198781	0	0
5.384945	-0.1703589	0.1342673	-0.001582243	-0.001127406	-0.09317137	-0.001637853	0	0
5.418078	-0.1703589	0.1342309	0	-0.001099608	0.03210431	0.0005640389	0	0
5.434841	-0.1703333	0.1342127	0.001524585	-0.001086323	0.0305557	0.0002662616	0	0
5.451212	-0.1703589	0.1341945	-0.001560998	-0.001113178	-0.09312578	-0.000810531	0	0
5.467865	-0.1703333	0.1341763	0.001534626	-0.001093477	0.09373909	0.0005965751	0	0
5.484345	-0.1703333	0.1341398	0	-0.002210637	-0.04631644	-0.03371692	0	0
5.501388	-0.1703333	0.1341398	0	0	0	0.06594373	0	0
5.517478	-0.1703078	0.1341216	0.001589124	-0.001132575	0.04796194	-0.03418266	0	0
5.534046	-0.1703333	0.1341034	-0.001543432	-0.001099111	-0.09591974	0.001024696	0	0
5.550923	-0.1703333	0.1341034	0	0	0.04614918	0.03286381	0	0
5.567179	-0.1703078	0.1340852	0.001572996	-0.001120164	0.04747516	-0.03380807	0	0
5.583745	-0.1703078	0.1340852	0	0	-0.04792415	0.03412781	0	0
5.600312	-0.1703078	0.1340852	0	0	0	0	0	0
5.61697	-0.1703078	0.1340852	0	0	0	0	0	0
5.633481	-0.1703078	0.1340852	0	0	0	0	0	0
5.650012	-0.1703333	0.134067	-0.001546816	-0.001102422	-0.04681301	-0.03336382	0	0
5.666579	-0.1703333	0.134067	0	0	0.04673477	0.03330806	0	0
5.683145	-0.1703333	0.134067	0	0	0	0	0	0
5.699713	-0.1703333	0.1340305	0	-0.002199057	0	-0.06636864	0	0
5.716279	-0.1703589	0.1340123	-0.001542621	-0.001099174	-0.04655707	0.03319503	0	0
5.733051	-0.1705378	0.1338848	-0.01066692	-0.007603488	-0.27369	-0.1951017	0	0
5.749563	-0.1717643	0.1329739	-0.07428147	-0.0551667	-1.911282	-1.429024	0	0
5.765979	-0.1777616	0.1286905	-0.3653159	-0.2609186	-8.838383	-6.248451	0	0
5.782588	-0.1856276	0.1229799	-0.4735947	-0.3438222	-3.27862	-2.510272	0	0
5.818646	-0.2070426	0.1060834	-0.5939137	-0.4685994	-2.284538	-2.369187	0	0
5.835212	-0.2110718	0.09353669	-0.2432222	-0.757385	6.66419	-5.487793	0	0
5.868345	-0.2111221	0.07892806	-0.001518291	-0.440902	4.863325	6.367957	0	0
5.884912	-0.2113737	0.06053142	-0.01518651	-1.110456	-0.2750131	-13.47184	0	0
5.901478	-0.2127066	0.04664129	-0.08046277	-0.8384579	-1.970126	8.209267	0	0
5.918182	-0.2138378	0.03385647	-0.0677177	-0.7653712	0.3830757	2.196751	0	0
5.934612	-0.2145162	0.02805431	-0.04129179	-0.3531459	0.797547	12.44116	0	0
5.95118	-0.2164499	0.01689008	-0.1167171	-0.6738744	-2.285814	-9.719891	0	0
5.967746	-0.2176043	0.009427467	-0.06968331	-0.4504701	1.419523	6.742549	0	0
5.984313	-0.2194351	0.003396762	-0.1105056	-0.3640141	-1.232054	2.609324	0	0
6.000879	-0.2204125	-0.003888319	-0.05900539	-0.4397664	1.554346	-2.286307	0	0
6.017446	-0.2220908	-0.007716116	-0.101299	-0.2310463	-1.276478	6.299457	0	0
6.034012	-0.2224663	-0.009924323	-0.02266979	-0.1332953	2.373102	2.950216	0	0
6.050579	-0.2193599	-0.01226629	0.1875126	-0.1413652	6.343591	-0.2435607	0	0
6.067288	-0.2186829	-0.01277645	0.04051682	-0.03053282	-4.417524	3.33074	0	0
6.083713	-0.2179806	-0.0133056	0.04275657	-0.03221678	0.06759759	-0.05082358	0	0
6.100279	-0.2179806	-0.0133056	0	0	-1.29601	0.9765344	0	0
6.116845	-0.2179806	-0.0133056	0	0	0	0	0	0
6.133412	-0.2179806	-0.0133056	0	0	0	0	0	0
6.149979	-0.2179806	-0.0133056	0	0	0	0	0	0
6.166546	-0.2179806	-0.0133056	0	0	0	0	0	0
6.183113	-0.2179806	-0.0133056	0	0	0	0	0	0
6.199887	-0.2179806	-0.0133056	0	0	0	0	0	0
6.216395	-0.2179806	-0.0133056	0	0	0	0	0	0
6.299079	-0.2179806	-0.0133056	0	0	0	0	0	0
6.315646	-0.2179806	-0.0133056	0	0	0	0	0	0
6.332476	-0.2179806	-0.0133056	0	0	0	0	0	0
6.34878	-0.2179806	-0.0133056	0	0	0	0	0	0
6.365501	-0.2179806	-0.0133056	0	0	0	0	0	0
6.382011	-0.2179806	-0.0133056	0	0	0	0	0	0
6.398479	-0.2179806	-0.0133056	0	0	0	0	0	0
6.415046	-0.2179806	-0.0133056	0	0	0	0	0	0
6.431613	-0.2179806	-0.0133056	0	0	0	0	0	0
6.44818	-0.2179806	-0.0133056	0	0	0	0	0	0
6.464747	-0.2179806	-0.0133056	0	0	0	0	0	0
6.481312	-0.2179806	-0.0133056	0	0	0	0	0	0
6.498093	-0.2179806	-0.0133056	0	0	0	0	0	0
6.535666	-0.2179806	-0.0133056	0	0	0	0	0	0
6.552232	-0.2179806	-0.0133056	0	0	0	0	0	0
6.568799	-0.2179806	-0.0133056	0	0	0	0	0	0
6.585365	-0.2179806	-0.0133056	0	0	0	0	0	0
6.601933	-0.2179806	-0.0133056	0	0	0	0	0	0
6.618679	-0.2179806	-0.0133056	0	0	0	0	0	0
6.635191	-0.2179806	-0.0133056	0	0	0	0	0	0
6.651632	-0.2179806	-0.0133056	0	0	0	0	0	0
6.6682	-0.2179806	-0.0133056	0	0	0	0	0	0
6.684766	-0.2179806	-0.0133056	0	0	0	0	0	0
6.701736	-0.2180308	-0.01323001	-0.002956413	0.00445465	-0.08815402	0.1328283	0	0
6.718249	-0.218106	-0.01309771	-0.004557235	0.00801171	-0.04780994	0.1062347	0	0
6.734466	-0.2181562	-0.01253081	-0.003092931	0.034958	0.04474005	0.8233117	0	0
6.751032	-0.2188835	-0.01164286	-0.04390093	0.05359842	-1.244772	0.5685913	0	0
6.767599	-0.2193097	-0.01117064	-0.0257282	0.02850377	0.5484697	-0.7573797	0	0
6.784295	-0.2217652	-0.008716229	-0.1470733	0.1470062	-3.64808	3.562617	0	0
6.800733	-0.2263183	-0.003586811	-0.276984	0.3120463	-3.920768	4.980992	0	0
6.817323	-0.2277673	-0.001703003	-0.08733958	0.11355	5.741906	-6.009916	0	0
6.833866	-0.2345743	0.01124773	-0.4114899	0.7828797	-9.783439	20.20157	0	0
6.850432	-0.2351468	0.01441683	-0.03455642	0.1912924	11.38456	-17.86777	0	0
6.866999	-0.2367639	0.03066736	-0.09760779	0.9809123	-1.902949	23.83146	0	0
6.883565	-0.2361918	0.04015198	0.03453043	0.5725258	3.988112	-12.32566	0	0
6.900132	-0.235321	0.05206228	0.05256275	0.7189279	0.5442399	4.418614	0	0
6.916698	-0.234176	0.06054993	0.06911843	0.5123448	0.4996732	-6.234959	0	0
6.933266	-0.2326815	0.06876095	0.09020622	0.4956186	0.636449	-0.5048112	0	0
6.949834	-0.2310115	0.07966519	0.1007994	0.6581432	0.3196928	4.904861	0	0
6.966399	-0.2289158	0.09081735	0.1265103	0.673223	0.7759803	0.4551204	0	0
6.982966	-0.2277173	0.09992437	0.07234011	0.5497168	-1.634978	-3.727691	0	0
6.999533	-0.2260184	0.1127466	0.1025512	0.7739725	0.9117999	6.768243	0	0
7.016099	-0.2256435	0.1161296	0.02263291	0.2042093	-2.412044	-17.19623	0	0
7.032665	-0.2243682	0.1302402	0.07698175	0.8517694	1.640346	19.54453	0	0
7.049232	-0.2240179	0.1447673	0.02113854	0.8768582	-1.6854	0.7572047	0	0
7.065799	-0.2235426	0.1562638	0.02869545	0.6939655	0.2280747	-5.519873	0	0
7.082366	-0.2231171	0.1674119	0.02567963	0.6729206	-0.09102161	-0.6351623	0	0
7.099017	-0.2226666	0.1896138	0.02705738	1.333357	0.04147607	19.88195	0	0
7.11864	-0.2227167	0.1966861	-0.002551454	0.3604028	-0.8162453	-26.82205	0	0
7.13523	-0.2225414	0.2068318	0.01056308	0.6115707	0.3621506	6.935865	0	0
7.151774	-0.2225414	0.2196084	0	0.7722417	-0.3187943	4.849059	0	0
7.168341	-0.2224663	0.2259178	0.004533418	0.3808557	0.1369154	-11.82039	0	0
7.185078	-0.2223412	0.2416639	0.007478632	0.9408004	0.08843622	16.81351	0	0
7.20159	-0.2225414	0.2506306	-0.01212856	0.5430266	-0.5897011	-11.96334	0	0
7.218102	-0.2226416	0.2593038	-0.006064281	0.5252534	0.1836282	-0.5381779	0	0
7.234613	-0.2225414	0.2701551	0.006064982	0.6572365	0.3672988	3.996715	0	0
7.251175	-0.2219405	0.277528	0.03628124	0.4451674	0.9136378	-6.412252	0	0
7.267742	-0.2220407	0.2846114	-0.006046182	0.4275681	-1.277665	-0.5312392	0	0
7.30116	-0.2204627	0.3017549	0.04722101	0.5129933	1.065655	1.709003	0	0
7.317443	-0.2198361	0.308634	0.03847794	0.4224822	-0.1759126	-1.821105	0	0
7.334007	-0.2180809	0.3179944	0.1059619	0.5650944	2.0545	4.341721	0	0
7.350574	-0.2165503	0.3247992	0.09238915	0.4107346	-0.4096632	-4.658991	0	0
7.367141	-0.2142901	0.3309425	0.1364304	0.3708211	1.329185	-1.204609	0	0
7.383718	-0.2134859	0.3347283	0.04851103	0.228381	-2.652685	-4.297675	0	0
7.400274	-0.2103923	0.3433533	0.1868547	0.5209528	4.1754	8.830215	0	0
7.416841	-0.2090329	0.3468891	0.08206206	0.2134304	-3.163786	-9.284383	0	0
7.433407	-0.2070678	0.3556754	0.1186147	0.5303586	1.103209	9.565325	0	0
7.449974	-0.2067401	0.358658	0.01977826	0.1800363	-2.982976	-10.57305	0	0
7.466541	-0.2054542	0.3623552	0.07761995	0.2231709	1.745716	1.301842	0	0
7.483108	-0.2052525	0.3632483	0.01217871	0.05390834	-1.975078	-5.1085	0	0
7.499674	-0.2052272	0.3632305	0.001522789	-0.001077555	-0.3216057	-1.659525	0	0
7.51624	-0.2052272	0.3631947	0	-0.002157033	-0.0459605	-0.03258059	0	0
7.532807	-0.2052272	0.3631947	0	0	0	0.06510314	0	0
7.549374	-0.205202	0.3631411	0.001522745	-0.003234371	0.04595719	-0.09761492	0	0
7.565941	-0.2050759	0.362909	0.007612145	-0.01401541	0.1837811	-0.3253772	0	0
7.582507	-0.204975	0.3627303	0.00609133	-0.01078306	-0.04590026	0.09755689	0	0
7.59937	-0.20442	0.3621587	0.03291301	-0.03389474	0.8023328	-0.6913534	0	0
7.615643	-0.2031076	0.3611943	0.08064965	-0.05927116	1.440632	-0.7658287	0	0
7.632207	-0.2023754	0.3605334	0.04420501	-0.03989687	-1.109868	0.5900154	0	0
7.648774	-0.2024006	0.3605512	-0.001524588	0.001077555	-1.380261	1.236735	0	0
7.665341	-0.2024006	0.3605512	0	0	0.04601347	-0.03252162	0	0
7.681929	-0.2024006	0.3605512	0	0	0	0	0	0
7.698475	-0.2024006	0.3605512	0	0	0	0	0	0
7.715042	-0.2024006	0.3605512	0	0	0	0	0	0
7.731608	-0.2024259	0.3605334	-0.001524632	-0.001077586	-0.04601612	-0.03252349	0	0
7.75137	-0.2024511	0.3605155	-0.001277326	-0.0009048355	0.006807513	0.004755264	0	0
7.767938	-0.2024511	0.3605155	0	0	0.03515923	0.02490619	0	0
7.784505	-0.2024764	0.3604977	-0.001524544	-0.001077524	-0.04601016	-0.03251928	0	0
7.801071	-0.2024764	0.3604977	0	0	0.04601281	0.03252115	0	0
7.817637	-0.2024764	0.3604619	0	-0.002156909	0	-0.0650994	0	0
7.834205	-0.2025016	0.3604441	-0.001523601	-0.001077493	-0.04598236	0.03257684	0	0
7.85077	-0.2025521	0.3603726	-0.003049439	-0.004312392	-0.04605187	-0.09763365	0	0
7.867559	-0.2027289	0.3601761	-0.01052732	-0.01170333	-0.2241954	-0.2215888	0	0
7.883904	-0.2029561	0.3599797	-0.01390277	-0.01202007	-0.1018757	-0.009559758	0	0
7.900471	-0.2032843	0.3597118	-0.01980918	-0.01617186	-0.1794644	-0.1261508	0	0
7.933605	-0.2050759	0.3584437	-0.05407171	-0.03827155	-0.6893703	-0.4446509	0	0
7.950171	-0.2050759	0.3584437	0	0	1.087956	0.7700472	0	0
7.966738	-0.2050759	0.358408	0	-0.00215511	0	-0.06504417	0	0
7.983304	-0.2050507	0.3583901	0.001522833	-0.001079385	0.04596116	0.03246685	0	0
8.000154	-0.2050507	0.3583901	0	0	-0.04557094	0.03230073	0	0
8.016437	-0.2050507	0.3583901	0	0	0	0	0	0
8.049569	-0.2050507	0.3583901	0	0	0	0	0	0
8.066136	-0.2050507	0.3583901	0	0	0	0	0	0
8.08271	-0.2050507	0.3583901	0	0	0	0	0	0
8.09927	-0.2050507	0.3583901	0	0	0	0	0	0
8.115837	-0.2050254	0.3583722	0.001522745	-0.001077524	0.04596712	-0.03252723	0	0
8.132403	-0.2050254	0.3583722	0	0	-0.04595786	0.03252068	0	0
8.14897	-0.2050254	0.3583722	0	0	0	0	0	0
8.165536	-0.2050254	0.3583722	0	0	0	0	0	0
8.182102	-0.2050254	0.3583722	0	0	0	0	0	0
8.198668	-0.2050254	0.3583722	0	0	0	0	0	0
8.253933	-0.2048993	0.358283	0.002282179	-0.001615645	0.03177162	-0.02249238	0	0
8.2705	-0.2048993	0.3582472	0	-0.002156847	-0.0317712	-0.007534311	0	0
8.287067	-0.2048741	0.3582294	0.001522745	-0.001077524	0.04595653	0.03257403	0	0
8.303634	-0.2048741	0.3582294	0	0	-0.04595786	0.03252068	0	0
8.3202	-0.2048489	0.3582115	0.001522833	-0.001079385	0.04596182	-0.03257778	0	0
8.336766	-0.2048489	0.3582115	0	0	-0.04596182	0.03257778	0	0
8.353399	-0.2048236	0.3581936	0.001516721	-0.001073261	0.04568531	-0.03232782	0	0
8.3699	-0.2048236	0.3581936	0	0	-0.04577604	0.03239202	0	0
8.386466	-0.2048236	0.3581579	0	-0.002155172	0	-0.06517642	0	0
8.403032	-0.2048236	0.3581579	0	0	0	0.06504697	0	0
8.419599	-0.2048236	0.3581579	0	0	0	0	0	0
8.436166	-0.2048236	0.3581579	0	0	0	0	0	0
8.456657	-0.2048236	0.3581579	0	0	0	0	0	0
8.473227	-0.2048236	0.3581579	0	0	0	0	0	0
8.489997	-0.2047984	0.3581401	0.001504301	-0.00106625	0.04512067	-0.03198157	0	0
8.506508	-0.2047984	0.3581401	0	0	-0.04519954	0.03203747	0	0
8.522925	-0.2047984	0.3581401	0	0	0	0	0	0
8.539531	-0.2047984	0.3581401	0	0	0	0	0	0
8.556059	-0.2047984	0.3581401	0	0	0	0	0	0
8.638891	-0.2047984	0.3581401	0	0	0	0	0	0
8.655457	-0.2047984	0.3581401	0	0	0	0	0	0
8.672024	-0.2047984	0.3581401	0	0	0	0	0	0
8.688598	-0.2047984	0.3581401	0	0	0	0	0	0
8.705157	-0.2047984	0.3581401	0	0	0	0	0	0
8.721724	-0.2047984	0.3581401	0	0	0	0	0	0
8.738293	-0.2047984	0.3581401	0	0	0	0	0	0
8.754858	-0.2047984	0.3581043	0	-0.002155297	0	-0.06504698	0	0
8.771424	-0.2047984	0.3581043	0	0	0	0.06505259	0	0
8.787991	-0.2047732	0.3580865	0.001522833	-0.001079385	0.04596182	-0.03257778	0	0
8.804717	-0.2047732	0.3580865	0	0	-0.04574064	0.03242101	0	0
8.821229	-0.2047732	0.3580865	0	0	0	0	0	0
8.83774	-0.2047732	0.3580865	0	0	0	0	0	0
8.854257	-0.2047732	0.3580865	0	0	0	0	0	0
8.903957	-0.2047732	0.3580865	0	0	0	0	0	0
8.920798	-0.2047732	0.3580865	0	0	0	0	0	0
8.937093	-0.2047732	0.3580865	0	0	0	0	0	0
8.953658	-0.2047732	0.3580865	0	0	0	0	0	0
8.970224	-0.2047732	0.3580865	0	0	0	0	0	0
8.986792	-0.2047732	0.3580865	0	0	0	0	0	0
9.00336	-0.2047732	0.3580865	0	0	0	0	0	0
9.019925	-0.2047732	0.3580865	0	0	0	0	0	0
9.036491	-0.2047732	0.3580865	0	0	0	0	0	0
9.053058	-0.2047732	0.3580865	0	0	0	0	0	0
9.069624	-0.2047732	0.3580865	0	0	0	0	0	0
9.08619	-0.2047732	0.3580865	0	0	0	0	0	0
9.102757	-0.2047732	0.3580865	0	0	0	0	0	0
9.119439	-0.2047732	0.3580865	0	0	0	0	0	0
9.135891	-0.2047732	0.3580865	0	0	0	0	0	0
9.152459	-0.2047732	0.3580865	0	0	0	0	0	0
9.169024	-0.2047732	0.3580865	0	0	0	0	0	0
9.185592	-0.2047732	0.3580865	0	0	0	0	0	0
9.222157	-0.2047732	0.3580865	0	0	0	0	0	0
9.238723	-0.2047732	0.3580865	0	0	0	0	0	0
9.255289	-0.2047732	0.3580865	0	0	0	0	0	0
9.271855	-0.2047732	0.3580865	0	0	0	0	0	0
9.288422	-0.2047732	0.3580865	0	0	0	0	0	0
9.305069	-0.2047732	0.3580865	0	0	0	0	0	0
9.321581	-0.2047732	0.3580865	0	0	0	0	0	0
9.338122	-0.2047732	0.3580865	0	0	0	0	0	0
9.35469	-0.2047984	0.3580686	-0.001522745	-0.001077524	-0.04599227	-0.03254503	0	0
9.371256	-0.2047984	0.3580686	0	0	0.04595786	0.03252068	0	0
9.387822	-0.2047732	0.3580508	0.001522833	-0.001077586	0.04596182	-0.03252349	0	0
9.404389	-0.2047984	0.3580329	-0.001522745	-0.001077524	-0.09191836	1.872707E-06	0	0
9.420956	-0.2047984	0.3580329	0	0	0.04595786	0.03252068	0	0
9.437522	-0.2047732	0.358015	0.001522833	-0.001079385	0.04596182	-0.03257778	0	0
9.454175	-0.2047984	0.3579972	-0.001514897	-0.001071971	-0.09144461	0.0002232016	0	0
9.470687	-0.2047732	0.3579793	0.001527846	-0.001081134	0.09174565	-0.0002762904	0	0
9.487224	-0.2047732	0.3579793	0	0	-0.04623024	0.03271342	0	0
9.50379	-0.2047732	0.3579793	0	0	0	0	0	0
9.520356	-0.204748	0.3579614	0.001522833	-0.001079385	0.04596182	-0.03257778	0	0
9.536922	-0.2047732	0.3579793	-0.001522833	0.001079385	-0.09192365	0.06515557	0	0
9.55349	-0.2047732	0.3579793	0	0	0.0459605	-0.03257685	0	0
9.570256	-0.2047732	0.3579793	0	0	0	0	0	0
9.586768	-0.2047732	0.3579793	0	0	0	0	0	0
9.60328	-0.2047732	0.3579793	0	0	0	0	0	0
9.619794	-0.2047732	0.3579793	0	0	0	0	0	0
9.636322	-0.2047732	0.3579793	0	0	0	0	0	0
9.652888	-0.2047732	0.3579436	0	-0.002156971	0	-0.06517632	0	0
9.735873	-0.204748	0.35789	0.000304003	-0.0006457146	0.003053735	0.0151807	0	0
9.752287	-0.2047227	0.3578722	0.001536989	-0.001087604	0.01240446	-0.004445628	0	0
9.768895	-0.2046723	0.3578364	0.00303797	-0.002151522	0.04545406	-0.03221852	0	0
9.78542	-0.204647	0.3578186	0.001526612	-0.00108026	-0.04561421	0.03233166	0	0
9.801987	-0.2045714	0.3577293	0.004569397	-0.00538973	0.09195055	-0.1302287	0	0
9.818553	-0.2042686	0.3575149	0.01827669	-0.01293823	0.4137107	-0.2278273	0	0
9.835122	-0.2018955	0.3558719	0.1432214	-0.09916578	3.77073	-2.602278	0	0
9.851688	-0.1965098	0.3520322	0.3251027	-0.2317764	5.489032	-4.002081	0	0
9.868468	-0.1936225	0.3500321	0.1720686	-0.1191976	-4.589255	3.376064	0	0
9.884981	-0.190808	0.3480498	0.1704393	-0.1200404	-0.04893879	-0.02531644	0	0
9.905178	-0.190808	0.3480498	0	0	-4.642884	3.269984	0	0
9.921748	-0.190808	0.3480498	0	0	0	0	0	0
9.938315	-0.190808	0.3480498	0	0	0	0	0	0
9.954882	-0.190808	0.3480498	0	0	0	0	0	0
9.971447	-0.190808	0.3480498	0	0	0	0	0	0
9.988014	-0.190808	0.3480498	0	0	0	0	0	0
10.00458	-0.190808	0.3480498	0	0	0	0	0	0
10.02115	-0.190808	0.3480498	0	0	0	0	0	0
10.03772	-0.190808	0.3480498	0	0	0	0	0	0
10.05428	-0.190808	0.3480498	0	0	0	0	0	0
10.07085	-0.190808	0.3480498	0	0	0	0	0	0
10.08741	-0.1908334	0.3480677	-0.00153084	0.001077524	-0.04620217	0.03252068	0	0
10.10398	-0.1908334	0.3480677	0	0	0.04620217	-0.03252068	0	0
10.12055	-0.1908334	0.3480677	0	0	0	0	0	0
10.13711	-0.1908334	0.3480677	0	0	0	0	0	0
10.15368	-0.1908334	0.3480677	0	0	0	0	0	0
10.17025	-0.190808	0.3480498	0.001530928	-0.001077586	0.04620616	-0.03252349	0	0
10.18681	-0.190808	0.3480498	0	0	-0.04620483	0.03252255	0	0
10.2037	-0.190808	0.3480498	0	0	0	0	0	0
10.21995	-0.190808	0.3480498	0	0	0	0	0	0
10.23673	-0.190808	0.3480498	0	0	0	0	0	0
10.25308	-0.190808	0.3480498	0	0	0	0	0	0
10.26965	-0.190808	0.3480498	0	0	0	0	0	0
10.28621	-0.190808	0.3480498	0	0	0	0	0	0
10.30278	-0.190808	0.3480498	0	0	0	0	0	0
10.31935	-0.190808	0.3480498	0	0	0	0	0	0
10.33591	-0.1907827	0.348032	0.001531827	-0.001077586	0.04623198	-0.03252255	0	0
10.35281	-0.1906305	0.3479963	0.009006284	-0.002114251	0.2233362	-0.03097545	0	0
10.36905	-0.1903767	0.3478534	0.01563051	-0.008801627	0.1999252	-0.2018312	0	0
10.38561	-0.1875841	0.3461391	0.1685703	-0.1034825	4.662973	-2.886719	0	0
10.40218	-0.182041	0.3424605	0.3346013	-0.2220547	5.011115	-3.578724	0	0
10.41875	-0.1770732	0.3391926	0.2998629	-0.1972481	-1.048437	0.7486872	0	0
10.43537	-0.1624248	0.329996	0.8811815	-0.5532277	17.51449	-10.72527	0	0
10.45188	-0.1552665	0.3261922	0.4335775	-0.2303965	-13.50911	9.743345	0	0
10.46844	-0.1374695	0.3196377	1.074472	-0.3957224	19.37792	-4.998752	0	0
10.48501	-0.1195327	0.3168334	1.082733	-0.1692728	0.2493559	6.835247	0	0
10.50599	-0.08388166	0.3151723	1.698987	-0.07916534	16.41159	2.399667	0	0
10.52292	-0.07684836	0.3150472	0.4154201	-0.007384315	-33.85446	1.893245	0	0
10.58897	0.003421039	0.3153687	1.215378	0.00486802	9.640903	0.1476623	0	0
10.60548	0.01405171	0.3149043	0.6438178	-0.02812572	-6.923239	-0.3996494	0	0
10.62199	0.02525778	0.3140469	0.6785877	-0.05192091	1.052812	-0.7205043	0	0
10.63853	0.02854488	0.3125285	0.1988328	-0.09184634	-14.51789	-1.208186	0	0
10.65509	0.0316999	0.310885	0.1904378	-0.09920238	-0.2536308	-0.2222424	0	0
10.67166	0.03937438	0.309563	0.4632589	-0.07980075	8.233994	0.5855592	0	0
10.68823	0.04449692	0.3081159	0.3092153	-0.08735284	-4.649312	-0.2279358	0	0
10.70505	0.04743807	0.3062578	0.1748108	-0.1104396	-4.025172	-0.6914059	0	0
10.72156	0.04906585	0.30515	0.09858239	-0.06708986	-2.286625	1.300363	0	0
10.73793	0.04906585	0.30515	0	0	-2.998611	2.040693	0	0
10.75449	0.04906585	0.30515	0	0	0	0	0	0
10.7711	0.04906585	0.30515	0	0	0	0	0	0
10.78763	0.0490921	0.3051679	0.001588147	0.001079949	0.04793036	0.03259291	0	0
10.80419	0.04911835	0.3051857	0.001584672	0.001079385	-0.0001049719	-1.702456E-05	0	0
10.82076	0.04914461	0.3052036	0.001584672	0.001079385	0	0	0	0
10.83733	0.04919711	0.3052393	0.003169162	0.002156847	0.04782137	0.0325188	0	0
10.85389	0.04924962	0.3052751	0.003169345	0.002156971	5.509203E-06	3.752442E-06	0	0
10.87067	0.04969589	0.3055431	0.02660336	0.01597676	0.7028502	0.4144933	0	0
10.88703	0.0501684	0.3058647	0.0288812	0.01965717	0.06874342	0.1110717	0	0
10.90369	0.05045713	0.3060255	0.01732763	0.009650604	-0.3498557	-0.3030104	0	0
10.92021	0.05056213	0.3059898	0.006358881	-0.002164072	-0.3306282	-0.3561269	0	0
10.93673	0.05066713	0.305954	0.006354617	-0.002162698	-0.0001290515	4.159109E-05	0	0
10.95329	0.05090336	0.3058647	0.01425898	-0.005393018	0.2388773	-0.09762328	0	0
10.96987	0.0510346	0.3057754	0.00791791	-0.005388737	-0.1913299	0.0001291517	0	0
10.98643	0.05360649	0.30406	0.1553291	-0.1035973	4.449135	-2.964111	0	0
11.00299	0.05638753	0.3021659	0.1678736	-0.1143357	0.3787141	-0.3241874	0	0
11.01956	0.05877433	0.3005397	0.1440761	-0.09816289	-0.7182521	0.4881236	0	0
11.03613	0.06341486	0.2973764	0.2801026	-0.1909376	4.105404	-2.800028	0	0
11.05778	0.06469905	0.2964649	0.0593046	-0.04209515	-5.776821	3.894223	0	0
11.07435	0.06467284	0.296447	-0.001581658	-0.001079323	-1.59299	1.073113	0	0
11.09091	0.06464663	0.2964291	-0.001582199	-0.001079385	-1.632031E-05	-1.876221E-06	0	0
11.10748	0.06462043	0.2964112	-0.001581749	-0.001079385	1.357313E-05	0	0	0
11.12405	0.06454181	0.2963934	-0.004745697	-0.001077586	-0.09549363	5.429603E-05	0	0
11.14061	0.06454181	0.2963934	0	0	0.1432295	0.03252255	0	0
11.15718	0.06448939	0.2963934	-0.003163948	0	-0.09549088	0	0	0
11.17388	0.06448939	0.2963934	0	0	0.09510764	0	0	0
11.19039	0.06448939	0.2963934	0	0	0	0	0	0
11.20688	0.06446319	0.2964112	-0.001589251	0.001082697	-0.04815913	0.03280901	0	0
11.22345	0.06446319	0.2964112	0	0	0.04807855	-0.03275411	0	0
11.24002	0.06443699	0.2964291	-0.001581749	0.001079385	-0.04773866	0.03257685	0	0
11.25658	0.06441078	0.2964112	-0.001582199	-0.001079385	-1.357313E-05	-0.06515557	0	0
11.27345	0.06441078	0.2964112	0	0	0.04731777	0.03228046	0	0
11.28971	0.06441078	0.2964112	0	0	0	0	0	0
11.30648	0.06438457	0.2963934	-0.0015633	-0.001065018	-0.04733854	-0.03224997	0	0
11.32285	0.06438457	0.2963576	0	-0.002184424	0.04718185	-0.03378471	0	0
11.33941	0.06433216	0.2963219	-0.003163948	-0.002156971	-0.09605767	0.0008334485	0	0
11.35601	0.06430595	0.296304	-0.00157938	-0.001077462	0.04778246	0.03255248	0	0
11.37255	0.06425353	0.2962683	-0.003169422	-0.002162505	-0.04798893	-0.03274759	0	0
11.38953	0.06420112	0.2962325	-0.003085174	-0.002103568	0.002513003	0.001758031	0	0
11.40568	0.0641225	0.2962146	-0.004869489	-0.001107436	-0.05385226	0.03006418	0	0
11.42225	0.06367695	0.296304	-0.02689468	0.005395127	-0.6732869	0.1987765	0	0
11.43882	0.06252366	0.2961968	-0.06961274	-0.00647414	-1.289271	-0.3582255	0	0
11.48851	0.02575746	0.2963398	-0.7397658	0.002877106	-10.11292	0.1411146	0	0
11.50508	-0.005342055	0.2989849	-1.877279	0.1596735	-17.16584	2.366164	0	0
11.52165	-0.02396909	0.3005933	-1.12433	0.09708331	22.72468	-1.889029	0	0
11.53821	-0.05504959	0.303792	-1.87613	0.193084	-22.69002	2.897391	0	0
11.55478	-0.1030286	0.3094915	-2.896188	0.3440432	-30.78716	4.55622	0	0
11.57135	-0.1426301	0.3150651	-2.390489	0.336439	15.2629	-0.2295106	0	0
11.58791	-0.1831608	0.322531	-2.446575	0.4506721	-1.692785	3.447761	0	0
11.60469	-0.2326566	0.3357997	-2.951052	0.7911081	-15.13195	10.21148	0	0
11.62105	-0.263442	0.3471391	-1.881606	0.6930629	32.27689	-2.959096	0	0
11.63761	-0.294737	0.3617301	-1.889077	0.8807639	-0.2268985	5.70043	0	0
11.65418	-0.3109199	0.3711085	-0.9768598	0.5661141	27.53235	-9.496696	0	0
11.67075	-0.3272431	0.3775052	-0.9852672	0.3861062	-0.2537436	-5.432806	0	0
11.70712	-0.3314843	0.3795782	-0.1166141	0.05699681	16.40903	-6.216942	0	0
11.72368	-0.3314843	0.3795782	0	0	2.202904	-1.076701	0	0
11.74028	-0.3314608	0.3795961	0.001416782	0.0010774	0.04272166	0.03248795	0	0
11.75682	-0.3314373	0.3796139	0.001423731	0.001079513	0.0002097468	6.374935E-05	0	0
11.77338	-0.3313902	0.3796139	0.002840582	0	0.04280129	-0.03261073	0	0
11.78995	-0.3313432	0.3796139	0.002840582	0	0	0	0	0
11.80652	-0.3311079	0.3794352	0.01420471	-0.01078666	0.3429898	-0.3255607	0	0
11.82308	-0.3300248	0.3786131	0.065371	-0.04962008	1.544246	-1.172029	0	0
11.83965	-0.3281159	0.3771299	0.1152316	-0.0895332	1.504838	-1.204615	0	0
11.85622	-0.3258738	0.3753966	0.1353405	-0.1046284	0.6069241	-0.4556004	0	0
11.87278	-0.3202419	0.3710727	0.3399418	-0.2609893	6.175057	-4.719117	0	0
11.88935	-0.3142319	0.3665529	0.3627432	-0.2727994	0.6881278	-0.3564182	0	0
11.90592	-0.3103951	0.363677	0.2316188	-0.1736111	-3.957456	2.993594	0	0
11.92248	-0.3082939	0.3621052	0.1268186	-0.09487243	-3.162969	2.376406	0	0
11.93905	-0.3055199	0.3598189	0.1674601	-0.1380127	1.226598	-1.302014	0	0
11.95562	-0.3048256	0.3555861	0.04190713	-0.2555085	-3.789522	-3.546334	0	0
11.97218	-0.3091061	0.3513893	-0.2583814	-0.2533353	-9.063249	0.06558974	0	0
11.98895	-0.3148506	0.3456569	-0.3425044	-0.3417759	-2.523295	-2.652803	0	0
12.00531	-0.3181779	0.3362997	-0.2033755	-0.5719451	4.199162	-6.946921	0	0
12.02198	-0.3198862	0.319334	-0.1025248	-1.018192	3.053965	-13.51325	0	0
12.03849	-0.3203367	0.2991279	-0.02728441	-1.2238	2.268082	-6.197973	0	0
12.05501	-0.3205501	0.2886348	-0.01291008	-0.6349364	0.4350955	17.82428	0	0
12.07158	-0.3207634	0.2729472	-0.01287453	-0.9469081	0.001074329	-9.426992	0	0
12.08815	-0.3211188	0.2574227	-0.02145638	-0.9371096	-0.2590083	0.2957268	0	0
12.10471	-0.3212847	0.2318278	-0.0100113	-1.545003	0.3454331	-18.34732	0	0
12.12155	-0.3213321	0.2212985	-0.002815156	-0.6255365	0.2154622	27.53007	0	0
12.13785	-0.3214979	0.2057332	-0.01017229	-0.9548618	-0.2220452	-9.939343	0	0
12.15441	-0.3220426	0.1867432	-0.03288347	-1.146303	-0.6909934	-5.824634	0	0
12.17098	-0.3224451	0.1751223	-0.02429376	-0.7014422	0.2592453	13.4263	0	0
12.18755	-0.3231078	0.1654194	-0.04000381	-0.5857014	-0.4741439	3.493164	0	0
12.20411	-0.3244324	0.1524342	-0.07995366	-0.7838351	-1.205758	-5.980031	0	0
12.22068	-0.3264877	0.1459126	-0.1240628	-0.3936444	-1.331255	11.77632	0	0
12.23725	-0.3279744	0.1412029	-0.08973829	-0.2842939	1.035945	3.300301	0	0
12.25414	-0.3312491	0.1298574	-0.1938439	-0.6715927	-3.111375	-11.5751	0	0
12.27038	-0.3322841	0.1244218	-0.06373319	-0.3346997	3.926861	10.16774	0	0
12.28695	-0.3329424	0.1161661	-0.03973757	-0.4983436	0.7314312	-4.98817	0	0
12.30368	-0.3329659	0.1060834	-0.001403694	-0.6026638	1.151285	-3.133061	0	0
12.36094	-0.3350093	0.08664323	-0.03568819	-0.3395149	-0.4633734	3.556599	0	0
12.44865	-0.3083656	0.06589638	0.3037532	-0.2365253	2.341399	0.7104022	0	0
12.46522	-0.3055438	0.06371425	0.1703324	-0.131721	-1.27943	1.005014	0	0
12.4818	-0.3044904	0.06290027	0.06352436	-0.04908365	-3.221988	2.492851	0	0
12.49835	-0.3020216	0.06099419	0.1491713	-0.1151707	2.584904	-1.994568	0	0
12.51492	-0.3005817	0.05988343	0.08691749	-0.06704938	-1.879852	1.453098	0	0
12.53148	-0.2997651	0.05925386	0.04928833	-0.03800313	-1.135716	0.8766682	0	0
12.54805	-0.2997651	0.05925386	0	0	-1.48761	1.147003	0	0
12.56462	-0.2997651	0.05925386	0	0	0	0	0	0
12.58137	-0.2997651	0.05925386	0	0	0	0	0	0
12.59788	-0.2997411	0.05923535	0.001454748	-0.001121518	0.04373193	-0.03371455	0	0
12.63091	-0.2997171	0.05921683	0.0007273738	-0.0005606464	-0.01468381	0.01132257	0	0
12.64745	-0.2997171	0.05921683	0	0	-0.01467449	0.01131083	0	0
12.66402	-0.2997171	0.05921683	0	0	0	0	0	0
12.68058	-0.2997171	0.05921683	0	0	0	0	0	0
12.69715	-0.2996931	0.05919831	0.001449891	-0.001117774	0.04375905	-0.03373545	0	0
12.71372	-0.2996931	0.05919831	0	0	-0.04376031	0.03373643	0	0
12.73028	-0.2996691	0.05917979	0.001449974	-0.001117838	0.04376408	-0.03373934	0	0
12.74699	-0.2996691	0.05917979	0	0	-0.04357969	0.03359718	0	0
12.76342	-0.2996691	0.05917979	0	0	0	0	0	0
12.78001	-0.2996691	0.05917979	0	0	0	0	0	0
12.79655	-0.2996691	0.05917979	0	0	0	0	0	0
12.81312	-0.2996691	0.05917979	0	0	0	0	0	0
12.82968	-0.299645	0.05916127	0.001449974	-0.001118063	0.04376283	-0.03374515	0	0
12.84625	-0.299645	0.05916127	0	0	-0.04376283	0.03374515	0	0
12.86307	-0.299645	0.05916127	0	0	0	0	0	0
12.87958	-0.2996691	0.05917979	-0.001454664	0.001121679	-0.04364057	0.03365089	0	0
12.8961	-0.2996691	0.05917979	0	0	0.04404381	-0.03396183	0	0
12.91251	-0.2996691	0.05917979	0	0	0	0	0	0
12.92908	-0.2996691	0.05917979	0	0	0	0	0	0
12.94565	-0.299645	0.05916127	0.001449724	-0.00111787	0.04375149	-0.03373642	0	0
12.96221	-0.299645	0.05916127	0	0	-0.04375401	0.03373836	0	0
12.97878	-0.299645	0.05916127	0	0	0	0	0	0
12.99535	-0.299621	0.05914275	0.001449891	-0.001117774	0.04375905	-0.03373545	0	0
13.01191	-0.299621	0.05914275	0	0	-0.04375905	0.03373545	0	0
13.02869	-0.299621	0.05914275	0	0	0	0	0	0
13.0452	-0.299597	0.05912424	0.001454832	-0.001121583	0.04371065	-0.03369814	0	0
13.06171	-0.299597	0.05912424	0	0	-0.04405526	0.03396382	0	0
13.07822	-0.299597	0.05912424	0	0	0	0	0	0
13.09773	-0.299597	0.05912424	0	0	0	0	0	0
13.11474	-0.299597	0.05912424	0	0	0	0	0	0
13.13087	-0.299597	0.05912424	0	0	0	0	0	0
13.14743	-0.299597	0.05912424	0	0	0	0	0	0
13.164	-0.299597	0.05912424	0	0	0	0	0	0
13.18057	-0.299597	0.05912424	0	0	0	0	0	0
13.19713	-0.299597	0.05912424	0	0	0	0	0	0
13.21382	-0.299597	0.05912424	0	0	0	0	0	0
13.23033	-0.299597	0.05912424	0	0	0	0	0	0
13.24683	-0.299597	0.05912424	0	0	0	0	0	0
13.2634	-0.299597	0.05912424	0	0	0	0	0	0
13.28036	-0.299621	0.05910572	-0.001416301	-0.001091879	-0.04224433	-0.03256771	0	0
13.29687	-0.299621	0.05910572	0	0	0.04231535	0.03262246	0	0
13.3131	-0.299621	0.05910572	0	0	0	0	0	0
13.34623	-0.299621	0.05910572	0	0	0	0	0	0
13.3628	-0.299621	0.05910572	0	0	0	0	0	0
13.37937	-0.299621	0.05910572	0	0	0	0	0	0
13.39594	-0.299621	0.05910572	0	0	0	0	0	0
13.4125	-0.299621	0.05910572	0	0	0	0	0	0
13.42907	-0.299621	0.05910572	0	0	0	0	0	0
13.44563	-0.299621	0.05914275	0	0.002235677	0	0.0674748	0	0
13.4622	-0.2996691	0.05917979	-0.002899781	0.002235773	-0.0875181	2.90217E-06	0	0
13.47877	-0.2996691	0.05932794	0	0.008942481	0.0875181	0.2024147	0	0
13.49551	-0.2997892	0.05953163	-0.007172656	0.01216459	-0.2153247	0.0967285	0	0
13.51202	-0.299573	0.0598464	0.01309273	0.01906333	0.6093656	0.20744	0	0
13.52847	-0.2994769	0.06025372	0.005845102	0.02477122	-0.2199238	0.1732018	0	0
13.54505	-0.3001975	0.06143841	-0.04346169	0.07145027	-1.493067	1.413496	0	0
13.5616	-0.3023334	0.06486094	-0.129033	0.206763	-2.58262	4.083863	0	0
13.57857	-0.304179	0.06750448	-0.1087481	0.1557627	0.6050752	-1.521283	0	0
13.59473	-0.3102996	0.07843042	-0.3787064	0.67603	-8.147592	15.70215	0	0
13.6113	-0.3116353	0.08436141	-0.08062828	0.3580159	9.107686	-9.716825	0	0
13.62811	-0.312827	0.09759427	-0.07090746	0.7874053	0.2912873	12.86679	0	0
13.64462	-0.3122312	0.1077317	0.0360781	0.6139486	3.211086	-5.206164	0	0
13.66113	-0.3108722	0.1206975	0.0823117	0.7852815	1.400048	5.188309	0	0
13.67764	-0.3096552	0.1311516	0.07370481	0.6331252	-0.2606343	-4.607602	0	0
13.69415	-0.3088672	0.13871	0.04771874	0.4577281	-0.7868655	-5.311073	0	0
13.7107	-0.3058549	0.1609067	0.1820515	1.341497	4.06341	26.73297	0	0
13.72727	-0.3047777	0.1709605	0.06502396	0.6068825	-3.534238	-22.18539	0	0
13.74383	-0.3022134	0.1916532	0.154791	1.249084	2.709332	19.3828	0	0
13.76325	-0.2987079	0.2123408	0.1805247	1.065341	0.7151221	-5.106117	0	0
13.77982	-0.2957728	0.2274091	0.1771637	0.9095275	-0.09339762	-4.329835	0	0
13.79639	-0.2920844	0.2414307	0.2226302	0.8463458	1.372181	-1.906829	0	0
13.81295	-0.2868391	0.2583365	0.3166232	1.020491	2.836798	5.255872	0	0
13.82952	-0.2825244	0.2706205	0.260452	0.7415088	-1.695348	-8.42019	0	0
13.84608	-0.2765923	0.2866143	0.3580842	0.9654417	2.946715	6.758696	0	0
13.89578	-0.265967	0.3252992	0.2137891	0.7783729	-2.177511	-2.822996	0	0
13.91235	-0.2622641	0.3356747	0.2235191	0.6263025	0.1468318	-2.294846	0	0
13.92892	-0.261061	0.3389783	0.07262823	0.1994164	-4.554157	-12.88419	0	0
13.94549	-0.2563144	0.353068	0.286488	0.8504055	6.454301	19.64689	0	0
13.96205	-0.2518275	0.367857	0.2708603	0.8927695	-0.4716589	1.278587	0	0
13.97885	-0.247726	0.3822948	0.2440955	0.8592499	-0.8021075	-1.004539	0	0
13.99518	-0.245152	0.3925567	0.157615	0.6283779	-2.610061	-6.967932	0	0
14.01175	-0.24255	0.4018759	0.1570703	0.5625432	-0.01655765	-2.001239	0	0
14.02832	-0.23833	0.4130808	0.254734	0.6763679	2.947665	3.435436	0	0
14.04488	-0.2351219	0.4209084	0.193648	0.4724991	-1.843686	-6.153129	0	0
14.06145	-0.2294898	0.4299783	0.3399757	0.5474966	4.416434	2.263559	0	0
14.07802	-0.2260184	0.436454	0.2095464	0.3908921	-3.936591	-4.726603	0	0
14.12772	-0.2121283	0.4487356	0.2794804	0.2471163	1.055351	-2.169676	0	0
14.14428	-0.2100399	0.4499755	0.1260523	0.07483846	-2.315301	-2.599753	0	0
14.16085	-0.2086551	0.4508201	0.08359478	0.05098656	-1.281408	-0.7198725	0	0
14.17741	-0.2082773	0.4505146	0.02280651	-0.01844309	-1.834699	-2.095512	0	0
14.194	-0.2074206	0.4499036	0.05164731	-0.03683806	0.8699413	-0.5548577	0	0
14.21055	-0.2056308	0.4485559	0.1081727	-0.08144813	1.706039	-1.346412	0	0
14.22711	-0.2037891	0.4471007	0.1111631	-0.08783891	0.09030613	-0.1929963	0	0
14.24368	-0.2013903	0.4453942	0.1447995	-0.1030075	1.015179	-0.4578029	0	0
14.26025	-0.1973956	0.4425209	0.2411382	-0.1734428	2.907676	-2.125864	0	0
14.27706	-0.1962313	0.4416232	0.06925721	-0.05340352	-5.149732	3.596501	0	0
14.29357	-0.1946866	0.4405281	0.09355146	-0.06632097	0.729068	-0.3876516	0	0
14.30995	-0.1917973	0.4382665	0.1764122	-0.1380866	2.519305	-2.18197	0	0
14.32651	-0.1911632	0.4376742	0.038275	-0.03574924	-4.193005	3.106341	0	0
14.34308	-0.1912139	0.4376742	-0.003062403	0	-1.247565	1.078914	0	0
14.35965	-0.1912393	0.4376563	-0.001531016	-0.001083045	0.04621867	-0.03268732	0	0
14.37622	-0.1912646	0.4376383	-0.001530752	-0.001082858	7.97921E-06	5.646231E-06	0	0
14.39278	-0.1913154	0.4376025	-0.003062932	-0.002166091	-0.04624262	-0.03269297	0	0
14.42591	-0.1913407	0.4375486	-0.000765442	-0.001625327	0.04622825	0.01088081	0	0
14.44248	-0.1913407	0.4374768	0	-0.004333482	0.01540102	-0.05448923	0	0
14.46229	-0.1913154	0.437423	0.001280269	-0.002716999	0.03519451	0.04443702	0	0
14.47886	-0.1912646	0.4373512	0.003062579	-0.004333482	0.04899558	-0.04443702	0	0
14.49571	-0.1909856	0.437082	0.01655415	-0.01596979	0.4036678	-0.3481581	0	0
14.51199	-0.1879905	0.434893	0.1839931	-0.1344762	5.053463	-3.576635	0	0
14.52856	-0.1843817	0.432274	0.2178397	-0.1580939	1.03051	-0.7190753	0	0
14.54525	-0.175951	0.4261953	0.5051318	-0.3642042	8.638668	-6.197587	0	0
14.56176	-0.1692085	0.4213563	0.4083392	-0.2930613	-2.915251	2.14272	0	0
14.57826	-0.1628605	0.4167701	0.3847625	-0.2779769	-0.7142188	0.4569575	0	0
14.59528	-0.1557802	0.4116842	0.4159011	-0.2987473	0.9288836	-0.6195939	0	0
14.61139	-0.1514883	0.4085155	0.2664159	-0.1967	-4.511602	3.079882	0	0
14.62796	-0.1484267	0.4059201	0.1848141	-0.1566638	-2.497319	1.225258	0	0
14.64453	-0.1471136	0.4042916	0.07925835	-0.098305	-3.185863	1.761372	0	0
14.66109	-0.1497906	0.4013571	-0.1615921	-0.1771379	-7.269298	-2.379318	0	0
14.67786	-0.1576544	0.3958831	-0.46907	-0.3265171	-9.225007	-4.4817	0	0
14.69435	-0.1628348	0.3922705	-0.3140292	-0.2189885	4.661295	3.232845	0	0
14.71079	-0.1683646	0.3883726	-0.3363708	-0.237107	-0.6783293	-0.5501112	0	0
14.72738	-0.1722752	0.3855301	-0.2358154	-0.1714069	3.045021	1.989534	0	0
14.74393	-0.1747007	0.3832957	-0.1465642	-0.1350145	2.693762	1.098387	0	0
14.76049	-0.1768181	0.3803109	-0.1278154	-0.1801746	0.5661651	-1.36372	0	0
14.77706	-0.1781694	0.3775052	-0.08156644	-0.1693645	1.395877	0.3262666	0	0
14.79362	-0.17794	0.3773801	0.01384682	-0.007551664	2.879661	4.883662	0	0
14.81019	-0.1779145	0.3773622	0.001539023	-0.001077586	-0.3714606	0.1953937	0	0
14.82695	-0.17794	0.3773801	-0.001521679	0.001065442	-0.09185401	0.06431391	0	0
14.84332	-0.17794	0.3773801	0	0	0.04592568	-0.03215603	0	0
14.85997	-0.17794	0.3773801	0	0	0	0	0	0
14.87646	-0.17794	0.3773801	0	0	0	0	0	0
14.89349	-0.17794	0.3773801	0	0	0	0	0	0
14.90959	-0.17794	0.3773801	0	0	0	0	0	0
15.01459	-0.17794	0.3774158	0	0.0003405964	0	0.002812534	0	0
15.03116	-0.17794	0.3774158	0	0	0	-0.0028017	0	0
15.04773	-0.17794	0.3774158	0	0	0	0	0	0
15.06429	-0.17794	0.3774158	0	0	0	0	0	0
15.08086	-0.1779145	0.377398	0.001539023	-0.001079385	0.04645049	-0.03257778	0	0
15.09763	-0.1779145	0.377398	0	0	-0.0461582	0.03237279	0	0
15.11415	-0.1779145	0.377398	0	0	0	0	0	0
15.13056	-0.1779145	0.377398	0	0	0	0	0	0
15.15011	-0.1779145	0.377398	0	0	0	0	0	0
15.16668	-0.1779145	0.377398	0	0	0	0	0	0
15.18324	-0.1779145	0.377398	0	0	0	0	0	0
15.21672	-0.177889	0.3773801	0.0007616631	-0.0005341881	0.01522101	-0.01067517	0	0
15.23294	-0.1779145	0.3773622	-0.001571316	-0.001100197	-0.04694144	-0.01138856	0	0
15.24951	-0.177889	0.3773443	0.001539023	-0.001079385	0.09485029	0.0006346556	0	0
15.26608	-0.177889	0.3773443	0	0	-0.04644915	0.03257685	0	0
15.28276	-0.177889	0.3773443	0	0	0	0	0	0
15.29928	-0.177889	0.3773443	0	0	0	0	0	0
15.31579	-0.177889	0.3773443	0	0	0	0	0	0
15.33235	-0.1778635	0.3773265	0.001539187	-0.001078331	0.04654386	-0.03260792	0	0
15.34891	-0.1778635	0.3773265	0	0	-0.04647283	0.03255815	0	0
15.36548	-0.1778635	0.3773265	0	0	0	0	0	0
15.38204	-0.1778635	0.3773265	0	0	0	0	0	0
15.39861	-0.1778635	0.3773265	0	0	0	0	0	0
15.41536	-0.1778635	0.3773265	0	0	0	0	0	0
15.43174	-0.1778635	0.3773265	0	0	0	0	0	0
15.44831	-0.1778635	0.3773265	0	0	0	0	0	0
15.46488	-0.1778635	0.3773265	0	0	0	0	0	0
15.48144	-0.1778635	0.3773265	0	0	0	0	0	0
15.49801	-0.1778635	0.3773265	0	0	0	0	0	0
15.51458	-0.1778635	0.3773265	0	0	0	0	0	0
15.53114	-0.1778635	0.3773265	0	0	0	0	0	0
15.54771	-0.1778635	0.3773265	0	0	0	0	0	0
15.56427	-0.1778635	0.3773265	0	0	0	0	0	0
15.58084	-0.1778635	0.3773265	0	0	0	0	0	0
15.59741	-0.1778635	0.3773265	0	0	0	0	0	0
15.61397	-0.1778635	0.3773265	0	0	0	0	0	0
15.63054	-0.1778635	0.3773265	0	0	0	0	0	0
15.64711	-0.177838	0.3773086	0.001539023	-0.001079385	0.04644915	-0.03257685	0	0
15.66367	-0.177838	0.3773086	0	0	-0.04645049	0.03257778	0	0
15.68024	-0.177838	0.3773086	0	0	0	0	0	0
15.69681	-0.177838	0.3773086	0	0	0	0	0	0
15.71356	-0.177838	0.3772729	0	-0.002132177	0	-0.06398094	0	0
15.7631	-0.177838	0.3772729	0	0	0	0.03216258	0	0
15.86267	-0.1777106	0.3771478	0.001280146	-0.001256501	0.008585532	-0.008426949	0	0
15.88415	-0.1776596	0.3770763	0.002374384	-0.003327745	0.009039843	-0.01711121	0	0
15.90071	-0.1776086	0.3770406	0.00307697	-0.002156847	0.0184682	0.03077827	0	0
15.91728	-0.1774811	0.3769512	0.007695117	-0.005393328	0.13938	-0.09768	0	0
15.93422	-0.1762571	0.3760935	0.07224562	-0.05062514	1.926349	-1.34983	0	0
15.95041	-0.1703589	0.371966	0.3642971	-0.2549295	8.814384	-6.166094	0	0
15.96698	-0.1653706	0.3684823	0.3011134	-0.210293	-1.928872	1.362662	0	0
15.98355	-0.1626298	0.3665708	0.1654401	-0.1153827	-4.094865	2.864564	0	0
16.00011	-0.1575774	0.3630518	0.3049663	-0.2124054	4.211032	-2.928235	0	0
16.01668	-0.1563708	0.3622123	0.07283092	-0.05067242	-7.005861	4.881111	0	0
16.03329	-0.1563965	0.3622302	-0.001545813	0.001076596	-2.241855	1.559813	0	0
16.04981	-0.1563708	0.3622123	0.001553842	-0.001082189	0.09355316	-0.06515601	0	0
16.06638	-0.1563708	0.3622123	0	0	-0.04695723	0.03270381	0	0
16.08294	-0.1563708	0.3622123	0	0	0	0	0	0
16.09951	-0.1563451	0.3621945	0.001549728	-0.001077524	0.04677358	-0.03252162	0	0
16.11608	-0.1563451	0.3621945	0	0	-0.04677088	0.03251974	0	0
16.13265	-0.1563451	0.3621945	0	0	0	0	0	0
16.14921	-0.1563451	0.3621945	0	0	0	0	0	0
16.16578	-0.1563451	0.3621945	0	0	0	0	0	0
16.1824	-0.1563451	0.3621945	0	0	0	0	0	0
16.19891	-0.1563451	0.3621945	0	0	0	0	0	0
16.21548	-0.1563451	0.3621945	0	0	0	0	0	0
16.23243	-0.1563451	0.3621945	0	0	0	0	0	0
16.24894	-0.1563451	0.3621945	0	0	0	0	0	0
16.26518	-0.1563451	0.3621945	0	0	0	0	0	0
16.28197	-0.1563451	0.3621945	0	0	0	0	0	0
16.29831	-0.1563451	0.3621945	0	0	0	0	0	0
16.31488	-0.1563451	0.3621945	0	0	0	0	0	0
16.33145	-0.1563708	0.3622123	-0.001549728	0.001077524	-0.04677088	0.03251974	0	0
16.34801	-0.1563708	0.3622123	0	0	0.04677088	-0.03251974	0	0
16.36458	-0.1563451	0.3621945	0.001549728	-0.001077524	0.04677088	-0.03251974	0	0
16.38115	-0.1563451	0.3621945	0	0	-0.04677088	0.03251974	0	0
16.39772	-0.1563451	0.3621945	0	0	0	0	0	0
16.41428	-0.1563451	0.3621945	0	0	0	0	0	0
16.43107	-0.1563451	0.3621945	0	0	0	0	0	0
16.44758	-0.1563451	0.3621945	0	0	0	0	0	0
16.4641	-0.1563708	0.3621766	-0.001554919	-0.001081134	-0.04708476	-0.03273798	0	0
16.48061	-0.1563708	0.3621766	0	0	0.04708476	0.03273798	0	0
16.49712	-0.1563708	0.3621766	0	0	0	0	0	0
16.51368	-0.1563708	0.3621766	0	0	0	0	0	0
16.53025	-0.1563708	0.3621766	0	0	0	0	0	0
16.5661	-0.1563708	0.3621766	0	0	0	0	0	0
16.58266	-0.1563708	0.3621766	0	0	0	0	0	0
16.59923	-0.1563708	0.3621766	0	0	0	0	0	0
16.6158	-0.1563708	0.3621766	0	0	0	0	0	0
16.63272	-0.1563708	0.3621766	0	0	0	0	0	0
16.64893	-0.1563708	0.3621766	0	0	0	0	0	0
16.66549	-0.1563708	0.3621766	0	0	0	0	0	0
16.68206	-0.1563708	0.3621766	0	0	0	0	0	0
16.69863	-0.1563708	0.3621766	0	0	0	0	0	0
16.71528	-0.1563708	0.3621766	0	0	0	0	0	0
16.73176	-0.1563708	0.3621766	0	0	0	0	0	0
16.74833	-0.1563708	0.3621766	0	0	0	0	0	0
16.7649	-0.1563708	0.3621766	0	0	0	0	0	0
16.78146	-0.1563708	0.3621766	0	0	0	0	0	0
16.79803	-0.1563708	0.3621766	0	0	0	0	0	0
16.8146	-0.1563708	0.3621766	0	0	0	0	0	0
16.83137	-0.1563708	0.3621766	0	0	0	0	0	0
16.84773	-0.1563708	0.3621766	0	0	0	0	0	0
16.86438	-0.1563708	0.3621766	0	0	0	0	0	0
16.88086	-0.1563708	0.3621766	0	0	0	0	0	0
16.89743	-0.1563708	0.3621766	0	0	0	0	0	0
16.914	-0.1563708	0.3621766	0	0	0	0	0	0
16.93056	-0.1563708	0.3621766	0	0	0	0	0	0
16.94744	-0.1563708	0.3621766	0	0	0	0	0	0
16.9637	-0.1563708	0.3621766	0	0	0	0	0	0
16.98026	-0.1563451	0.3621587	0.001549728	-0.001079323	0.04721937	-0.03288639	0	0
16.99683	-0.1563451	0.3621587	0	0	-0.04677088	0.03257403	0	0
17.01349	-0.1563708	0.3621766	-0.001540858	0.001073146	-0.04636973	0.03229465	0	0
17.02996	-0.1563708	0.3621766	0	0	0.04650319	-0.0323876	0	0
17.04653	-0.1563451	0.3621587	0.001549728	-0.001079323	0.04690589	-0.03266806	0	0
17.0631	-0.1563451	0.3621587	0	0	-0.04677088	0.03257403	0	0
17.07967	-0.1563451	0.3621587	0	0	0	0	0	0
17.09623	-0.1563451	0.3621587	0	0	0	0	0	0
17.1128	-0.1563451	0.3621587	0	0	0	0	0	0
17.12958	-0.1563451	0.3621587	0	0	0	0	0	0
17.14609	-0.1563451	0.3621587	0	0	0	0	0	0
17.17911	-0.1563451	0.3621587	0	0	0	0	0	0
17.20019	-0.1563451	0.3621587	0	0	0	0	0	0
17.21676	-0.1563451	0.3621587	0	0	0	0	0	0
17.23333	-0.1563451	0.3621587	0	0	0	0	0	0
17.24989	-0.1563451	0.3621587	0	0	0	0	0	0
17.26667	-0.1563451	0.3621587	0	0	0	0	0	0
17.28318	-0.1563708	0.3621409	-0.001555099	-0.001081259	-0.04671249	-0.03247914	0	0
17.29959	-0.1563708	0.3621409	0	0	0.04724027	0.0328461	0	0
17.31621	-0.1563451	0.362123	0.001545103	-0.001074308	0.04678481	-0.03252942	0	0
17.33273	-0.1563451	0.362123	0	0	-0.0466313	0.03242269	0	0
17.34929	-0.1563451	0.362123	0	0	0	0	0	0
17.36586	-0.1563708	0.3621052	-0.001549728	-0.001079323	-0.04677088	-0.03257403	0	0
17.38243	-0.1563708	0.3621052	0	0	0.04677088	0.03257403	0	0
17.39899	-0.1563965	0.3620873	-0.001549728	-0.001077524	-0.04677088	-0.03251974	0	0
17.41578	-0.1563965	0.3620873	0	0	0.0464633	0.03230589	0	0
17.43213	-0.1563965	0.3620873	0	0	0	0	0	0
17.4488	-0.1563965	0.3620873	0	0	0	0	0	0
17.46526	-0.1563965	0.3620873	0	0	0	0	0	0
17.48183	-0.1563965	0.3620873	0	0	0	0	0	0
17.4984	-0.1563965	0.3620873	0	0	0	0	0	0
17.51496	-0.1563965	0.3620873	0	0	0	0	0	0
17.53153	-0.1563965	0.3620873	0	0	0	0	0	0
17.5481	-0.1563965	0.3620873	0	0	0	0	0	0
17.56466	-0.1563965	0.3620873	0	0	0	0	0	0
17.5814	-0.1563965	0.3620873	0	0	0	0	0	0
17.5978	-0.1563965	0.3620873	0	0	0	0	0	0
17.61442	-0.1563965	0.3620873	0	0	0	0	0	0
17.63094	-0.1564221	0.3621052	-0.001554919	0.001081134	-0.04692216	0.03262493	0	0
17.6475	-0.1564221	0.3621052	0	0	0.04701145	-0.03268701	0	0
17.66407	-0.1564221	0.3621052	0	0	0	0	0	0
17.68063	-0.1564478	0.362123	-0.001549728	0.001079323	-0.04677088	0.03257403	0	0
17.6972	-0.1564478	0.3621587	0	0.002155048	0.04677088	0.03246545	0	0
17.71377	-0.1564478	0.3621587	0	0	0	-0.06503949	0	0
17.73051	-0.1564992	0.3621945	-0.003068211	0.002134485	-0.09211626	0.0640832	0	0
17.78536	-0.1565505	0.3622302	-0.00093612	0.0006514265	0.0297802	-0.02071477	0	0
17.80193	-0.1565762	0.3622481	-0.001549728	0.001077524	-0.008591462	0.005966027	0	0
17.8185	-0.1566276	0.3623195	-0.003099456	0.004311895	-0.04677088	0.09761352	0	0
17.83508	-0.1567302	0.362391	-0.006192496	0.00430923	-0.09329978	-8.041569E-05	0	0
17.87193	-0.1571667	0.3627661	-0.01184554	0.01018048	-0.1058055	0.1098895	0	0
17.88849	-0.1575261	0.3630518	-0.02169169	0.01724938	-0.1843453	0.132348	0	0
17.90506	-0.158373	0.3639985	-0.05112124	0.05714296	-0.8881854	1.203991	0	0
17.92163	-0.1600662	0.3654633	-0.1022011	0.08841275	-1.541593	0.943724	0	0
17.9382	-0.1637316	0.3680893	-0.2212169	0.1584857	-3.591697	2.114685	0	0
17.95476	-0.167853	0.3709655	-0.2487991	0.1736327	-0.8324338	0.457136	0	0
17.97133	-0.1709978	0.3731274	-0.1898214	0.1304884	1.780052	-1.302174	0	0
17.9879	-0.1714066	0.3734133	-0.02467692	0.01725658	4.984071	-3.417342	0	0
18.0047	-0.1713044	0.3732346	0.006081019	-0.01063181	0.9215922	-0.8356124	0	0
18.02122	-0.1708189	0.3727164	0.02940359	-0.03137995	0.6999682	-0.6227033	0	0
18.0376	-0.17018	0.371841	0.03900701	-0.05344485	0.2919662	-0.6708241	0	0
18.05424	-0.1643463	0.3665887	0.350548	-0.3156125	9.434367	-7.939198	0	0
18.07073	-0.1620917	0.3579793	0.1367197	-0.5220658	-6.453723	-6.231133	0	0
18.0873	-0.1619635	0.3447462	0.007736048	-0.798753	-3.901717	-8.369708	0	0
18.10386	-0.1622711	0.3355319	-0.01856526	-0.556177	-0.7937749	7.32096	0	0
18.12043	-0.162963	0.3251207	-0.04176261	-0.6284233	-0.7000974	-2.180398	0	0
18.137	-0.1636547	0.3177444	-0.04175451	-0.4452316	0.0002443093	5.528737	0	0
18.15356	-0.1643207	0.3128858	-0.04019759	-0.2932665	0.04698799	4.586315	0	0
18.17013	-0.1653194	0.3019336	-0.06028109	-0.6610746	-0.6061213	-11.10047	0	0
18.1867	-0.1656778	0.2922463	-0.02163413	-0.5847287	1.166368	2.304124	0	0
18.20335	-0.1648585	0.2776532	0.04921007	-0.8765018	2.132803	-8.783988	0	0
18.21983	-0.1647048	0.266163	0.009320223	-0.6970019	-1.203878	5.417316	0	0
18.2364	-0.1648841	0.2585514	-0.01082021	-0.4594336	-0.6093478	7.187616	0	0
18.25297	-0.1655242	0.244552	-0.03863617	-0.8450065	-0.8394871	-11.63661	0	0
18.26954	-0.1670599	0.2317739	-0.09269406	-0.771287	-1.63147	2.224861	0	0
18.2861	-0.1691062	0.2231501	-0.1235177	-0.5205332	-0.9302602	7.567763	0	0
18.30292	-0.172173	0.2125027	-0.1823634	-0.6331288	-1.762675	-3.372709	0	0
18.31943	-0.1761805	0.2027968	-0.2426757	-0.5877485	-1.809498	1.361508	0	0
18.33595	-0.17794	0.1985252	-0.1065567	-0.2586951	4.121603	9.963544	0	0
18.41864	-0.1854242	0.1838353	-0.0905038	-0.1776392	0.1618118	0.8170384	0	0
18.43521	-0.1894631	0.1809624	-0.2437894	-0.173413	-1.544249	0.04257604	0	0
18.45203	-0.1909095	0.179896	-0.08597825	-0.06338932	4.726293	3.295105	0	0
18.46854	-0.1908841	0.179914	0.001537048	0.001094797	2.625499	1.934553	0	0
18.48491	-0.1908841	0.179914	0	0	-0.04675423	-0.03330174	0	0
18.50147	-0.1908841	0.179914	0	0	0	0	0	0
18.51808	-0.1908841	0.179914	0	0	0	0	0	0
18.53461	-0.1908841	0.179914	0	0	0	0	0	0
18.55117	-0.1908588	0.1799321	0.00153084	0.001091016	0.04625409	0.03296487	0	0
18.56774	-0.1908588	0.1799321	0	0	-0.04620084	-0.03292692	0	0
18.58431	-0.1908588	0.1799683	0	0.002182032	0	0.06585384	0	0
18.62168	-0.1908588	0.1799683	0	0	0	-0.04045164	0	0
18.63825	-0.1908588	0.1799683	0	0	0	0	0	0
18.65482	-0.1908588	0.1800044	0	0.002182032	0	0.06585384	0	0
18.67138	-0.1908588	0.1800044	0	0	0	-0.06585384	0	0
18.6882	-0.1908588	0.1800044	0	0	0	0	0	0
18.70473	-0.1908588	0.1800044	0	0	0	0	0	0
18.72108	-0.1908588	0.1800044	0	0	0	0	0	0
18.73774	-0.1908588	0.1800044	0	0	0	0	0	0
18.75422	-0.1908588	0.1800044	0	0	0	0	0	0
18.77078	-0.1908588	0.1800044	0	0	0	0	0	0
18.78777	-0.1909603	0.1802575	-0.005973852	0.01489691	-0.1780365	0.4439672	0	0
18.80392	-0.1909856	0.1807816	-0.001570621	0.0324598	0.1328898	0.5300491	0	0
18.8208	-0.1912646	0.1814503	-0.01653357	0.03962319	-0.4530956	0.2169155	0	0
18.83705	-0.1939266	0.1835644	-0.1637472	0.1300443	-4.443172	2.72907	0	0
18.85382	-0.1967376	0.1856777	-0.1676648	0.126055	-0.1186365	-0.1208061	0	0
18.87018	-0.2087055	0.1942693	-0.731223	0.5249333	-17.0092	12.03887	0	0
18.88684	-0.2143404	0.1983089	-0.3382921	0.2425167	11.89841	-8.551904	0	0
18.90335	-0.2203624	0.2026346	-0.3646682	0.2619452	-0.7951626	0.5857138	0	0
18.91988	-0.2366893	0.2144102	-0.9877647	0.7124151	-18.85719	13.63288	0	0
18.93645	-0.2479486	0.2225749	-0.6796138	0.4928261	9.310732	-6.634848	0	0
18.95339	-0.2561666	0.2285948	-0.4850416	0.355303	5.806354	-4.103918	0	0
18.98615	-0.2988281	0.2600383	-1.302293	0.9598499	-16.44312	12.16351	0	0
19.00272	-0.3037956	0.2637456	-0.2998431	0.2237778	20.32297	-14.92262	0	0
19.01929	-0.3279036	0.2818928	-1.455161	1.095365	-34.86757	26.30457	0	0
19.03595	-0.3461146	0.2958214	-1.092924	0.8359214	10.90098	-7.807564	0	0
19.05242	-0.3551204	0.3027556	-0.5467411	0.4209722	16.48382	-12.52319	0	0
19.06899	-0.3723585	0.3163333	-1.040493	0.8195516	-14.94446	12.06387	0	0
19.08556	-0.3844475	0.3260136	-0.7296943	0.5843023	9.379912	-7.099837	0	0
19.1025	-0.3991258	0.3377819	-0.8663353	0.6945816	-4.077592	3.290917	0	0
19.11871	-0.4055871	0.3430319	-0.3984936	0.3237873	14.10974	-11.18287	0	0
19.13526	-0.4141099	0.3500142	-0.5152088	0.4220858	-3.563085	3.000858	0	0
19.16839	-0.4298565	0.3642129	-0.4752322	0.4285173	0.8047322	0.1294676	0	0
19.18496	-0.4329834	0.367857	-0.1887376	0.2199588	5.764283	-4.196205	0	0
19.20157	-0.4351062	0.3700722	-0.1277952	0.1333588	1.836813	-2.610138	0	0
19.21809	-0.4354091	0.3702866	-0.0183362	0.01297694	3.303671	-3.633341	0	0
19.23466	-0.4354091	0.3702866	0	0	0.5541531	-0.3921866	0	0
19.25122	-0.4354091	0.3702866	0	0	0	0	0	0
19.28436	-0.4354091	0.3702866	0	0	0	0	0	0
19.30735	-0.4354091	0.3702866	0	0	0	0	0	0
19.32416	-0.4354091	0.3702866	0	0	0	0	0	0
19.34048	-0.4354308	0.3702688	-0.001325514	-0.001095466	-0.0400041	-0.03306124	0	0
19.35705	-0.4354524	0.3702509	-0.001306131	-0.001077648	0.000589354	0.0005417697	0	0
19.37361	-0.4354308	0.370233	0.001305981	-0.001079323	0.07883824	-5.054699E-05	0	0
19.39021	-0.4354308	0.3701973	0	-0.002152387	-0.03937378	-0.03235161	0	0
19.40675	-0.4353659	0.3701437	0.003926079	-0.003241088	0.1184893	-0.03285707	0	0
19.42332	-0.4353009	0.3700901	0.003917943	-0.003234371	-0.0002458007	0.0002029206	0	0
19.43988	-0.4351711	0.3699472	0.007835886	-0.008627389	0.1182437	-0.1627616	0	0
19.45645	-0.4348032	0.3696435	0.02221143	-0.01833441	0.4338797	-0.2929754	0	0
19.47301	-0.4342619	0.3691611	0.03267291	-0.02911474	0.3157463	-0.3253697	0	0
19.48958	-0.4342403	0.3691432	0.001305981	-0.001079323	-0.9466557	0.8461106	0	0
19.50615	-0.4342403	0.3691432	0	0	-0.03941458	0.03257403	0	0
19.53931	-0.4342186	0.3691611	0.0006532882	0.0005391649	0.01313612	0.01084136	0	0
19.55585	-0.4342186	0.3691611	0	0	-0.01314418	-0.01084802	0	0
19.57242	-0.4342186	0.3691611	0	0	0	0	0	0
19.58899	-0.4342186	0.3691611	0	0	0	0	0	0
19.60587	-0.4342403	0.3691432	-0.0012834	-0.001059202	-0.03836867	-0.03166603	0	0
19.62237	-0.4342403	0.3691432	0	0	0.03843881	0.03172391	0	0
19.63869	-0.4342403	0.3691432	0	0	0	0	0	0
19.65525	-0.4342403	0.3691432	0	0	0	0	0	0
19.67182	-0.4342403	0.3691432	0	0	0	0	0	0
19.68842	-0.4342403	0.3691432	0	0	0	0	0	0
19.70495	-0.4342403	0.3691432	0	0	0	0	0	0
19.72152	-0.4342403	0.3691432	0	0	0	0	0	0
19.73809	-0.4342403	0.3691432	0	0	0	0	0	0
19.77122	-0.4342186	0.3691254	0.0006538899	-0.0005387621	0.01315629	-0.01083991	0	0
19.78779	-0.4342186	0.3691254	0	0	-0.01315629	0.01083991	0	0
19.80436	-0.4342186	0.3691254	0	0	0	0	0	0
19.82092	-0.4342186	0.3691254	0	0	0	0	0	0
19.83749	-0.4341969	0.3691075	0.00130778	-0.001077524	0.03946887	-0.03251974	0	0
19.85406	-0.4341753	0.3690897	0.00130778	-0.001079323	0	-5.428939E-05	0	0
19.87062	-0.4341753	0.3690539	0	-0.002156847	-0.03946887	-0.03251974	0	0
19.88757	-0.434132	0.3690182	0.002555795	-0.002109014	0.07626914	0.001427408	0	0
19.90408	-0.4340453	0.368911	0.005247444	-0.006491162	0.08046065	-0.1309942	0	0
19.92032	-0.434002	0.3688396	0.002667146	-0.004398773	-0.07877135	0.06387648	0	0
19.93689	-0.4339803	0.3687502	0.00130778	-0.005391219	-0.04142638	-0.03024456	0	0
19.95346	-0.4339803	0.3686788	0	-0.004313694	-0.03946887	0.03251975	0	0
19.99061	-0.434067	0.3685716	-0.002332078	-0.002885615	-0.04341442	0.02658541	0	0
20.00718	-0.4340886	0.3685537	-0.00130778	-0.001077524	0.01906853	0.03365978	0	0
20.02374	-0.4340886	0.3685537	0	0	0.03947115	0.03252162	0	0
20.04031	-0.4340886	0.3685537	0	0	0	0	0	0
20.05688	-0.4340886	0.3685537	0	0	0	0	0	0
20.07344	-0.4340886	0.3685537	0	0	0	0	0	0
20.09001	-0.4340886	0.3685537	0	0	0	0	0	0
20.10672	-0.4340886	0.3685537	0	0	0	0	0	0
20.12323	-0.4340886	0.3685537	0	0	0	0	0	0
20.13975	-0.4340886	0.3685537	0	0	0	0	0	0
20.15627	-0.4340886	0.3685537	0	0	0	0	0	0
20.17284	-0.4340886	0.3685537	0	0	0	0	0	0
20.18941	-0.4340886	0.3685537	0	0	0	0	0	0
20.20629	-0.4340886	0.3685537	0	0	0	0	0	0
20.2228	-0.4340886	0.368518	0	-0.002164322	0	-0.06480829	0	0
20.25567	-0.4341536	0.3683572	-0.001977378	-0.004891312	-0.04004308	-0.05522317	0	0
20.27234	-0.4341753	0.3683394	-0.001298358	-0.001071234	0.01370767	0.07711759	0	0
20.28885	-0.4341969	0.3682857	-0.001312009	-0.003246636	-0.0004114601	-0.06556695	0	0
20.30537	-0.4342186	0.3682679	-0.001311403	-0.00108051	1.834226E-05	0.06557009	0	0
20.32194	-0.4341969	0.36825	0.00130778	-0.001077524	0.07915646	9.022986E-05	0	0
20.33889	-0.4341969	0.36825	0	0	-0.03901965	0.03214961	0	0
20.35508	-0.4341969	0.3682143	0	-0.00220768	0	-0.06662793	0	0
20.37164	-0.4341536	0.3681786	0.002613761	-0.002156847	0.0798022	0.001552018	0	0
20.38821	-0.4341103	0.3681428	0.00261556	-0.002156847	5.428939E-05	0	0	0
20.40478	-0.434067	0.3680714	0.00261556	-0.004313694	0	-0.06509378	0	0
20.42145	-0.433872	0.3679106	0.01169685	-0.009646055	0.2732402	-0.1604415	0	0
20.43791	-0.433677	0.3677498	0.01184365	-0.009763815	0.004430735	-0.003554185	0	0
20.45448	-0.4325713	0.3668388	0.06673994	-0.05499331	1.661939	-1.369285	0	0
20.47104	-0.4307043	0.3653025	0.1126939	-0.09272644	1.386894	-1.138788	0	0
20.48761	-0.4274619	0.362641	0.19571	-0.1606482	2.505432	-2.049884	0	0
20.50451	-0.4239257	0.3597475	0.2092988	-0.1712629	0.4060888	-0.3172105	0	0
20.52102	-0.4200273	0.3565684	0.2361259	-0.1925561	0.8030803	-0.6374195	0	0
20.53731	-0.4163133	0.3535502	0.2279278	-0.1852302	-0.2499082	0.2233192	0	0
20.55388	-0.4125871	0.3505321	0.2249129	-0.1821717	-0.09174484	0.09307119	0	0
20.57045	-0.4094025	0.3479963	0.1922238	-0.1530624	-0.9865593	0.8785217	0	0
20.59345	-0.403608	0.3434426	0.2519293	-0.1979784	1.508936	-1.135162	0	0
20.61001	-0.4003093	0.3409069	0.1991063	-0.153057	-1.334995	1.135298	0	0
20.62658	-0.3976056	0.3389247	0.1631954	-0.119643	-1.083792	1.008438	0	0
20.64315	-0.3930558	0.3362997	0.2746266	-0.1584446	3.362998	-1.171037	0	0
20.65972	-0.3898179	0.3352283	0.1954402	-0.06467304	-2.389848	2.830032	0	0
20.67628	-0.3857584	0.3339069	0.2450315	-0.07976197	1.496668	-0.4553851	0	0
20.69285	-0.3777584	0.3362105	0.4828855	0.1390456	7.178449	6.603626	0	0
20.70966	-0.3691351	0.3382819	0.513061	0.1232446	0.9041408	-0.4734416	0	0
20.72598	-0.3575242	0.3409783	0.7111456	0.1651522	5.978203	1.264776	0	0
20.74255	-0.3510891	0.3420855	0.3884286	0.06682628	-9.810777	-2.989164	0	0
20.75912	-0.3380105	0.3434605	0.7894241	0.08299635	12.10207	0.4880134	0	0
20.7757	-0.3312726	0.3439069	0.4062805	0.02691921	-11.55731	-1.691535	0	0
20.80882	-0.3054002	0.3442998	0.7812788	0.01186319	7.545269	-0.3029392	0	0
20.82539	-0.2937488	0.3442462	0.7032815	-0.003234371	-1.569911	-0.3038802	0	0
20.84195	-0.2740333	0.3448355	1.190029	0.03557089	14.69008	1.171145	0	0
20.85852	-0.2662854	0.3450319	0.4676617	0.01185636	-21.8011	-0.7157058	0	0
20.89165	-0.2387524	0.347532	0.8309984	0.07545622	7.31063	1.279681	0	0
20.9083	-0.226943	0.3491035	0.7093845	0.09439806	-2.443033	0.3805119	0	0
20.92479	-0.2124049	0.3518536	0.881784	0.1668065	5.203026	2.18529	0	0
20.94136	-0.2060342	0.3536216	0.3844013	0.1066794	-15.04482	-1.818721	0	0
20.95795	-0.1921269	0.3576578	0.8383871	0.2433203	13.69029	4.120508	0	0
20.97485	-0.1866187	0.3612478	0.3259435	0.2124348	-15.30262	-0.9223044	0	0
20.99105	-0.182041	0.3644272	0.2824563	0.1961795	-1.31358	-0.4910073	0	0
21.00762	-0.1782459	0.3670531	0.2290773	0.1584986	-1.6287	-1.149722	0	0
21.02419	-0.1737563	0.3700544	0.270991	0.1811572	1.264958	0.6838375	0	0
21.0409	-0.1725306	0.3706261	0.07335635	0.03421625	-5.939327	-4.415875	0	0
21.05732	-0.169592	0.3685716	0.1789001	-0.1250762	3.185316	-4.807456	0	0
21.07392	-0.1643207	0.3648559	0.3176296	-0.2238895	4.201134	-2.992354	0	0
21.09093	-0.1563708	0.3592117	0.4672681	-0.331751	4.452282	-3.209266	0	0
21.10702	-0.1524397	0.3564076	0.244312	-0.174268	-6.735032	4.757227	0	0
21.12359	-0.1493532	0.3541931	0.1863037	-0.1336706	-1.776253	1.243123	0	0
21.15672	-0.1423207	0.3491035	0.2122403	-0.1536057	0.5218452	-0.4010947	0	0
21.17329	-0.1412375	0.3483534	0.0653818	-0.04527221	-2.9548	2.179673	0	0
21.18986	-0.1412375	0.3483534	0	0	-1.973113	1.366239	0	0
21.20642	-0.1412375	0.3483177	0	-0.002155545	0	-0.06505822	0	0
21.22299	-0.1412633	0.3482999	-0.001556923	-0.001077524	-0.04699345	0.03253847	0	0
21.23956	-0.1412633	0.3482999	0	0	0.04698804	0.03251974	0	0
21.25613	-0.1412891	0.348282	-0.001556744	-0.001079199	-0.04697993	-0.03256841	0	0
21.28044	-0.1412633	0.3482999	0.001061161	0.0007356403	0.06404444	0.04439823	0	0
21.297	-0.1412633	0.3482999	0	0	-0.02596146	-0.01799754	0	0
21.31357	-0.1412633	0.3482999	0	0	0	0	0	0
21.33014	-0.1412633	0.3482999	0	0	0	0	0	0
21.3467	-0.1412891	0.348282	-0.001556923	-0.001079323	-0.04698804	-0.03257403	0	0
21.36363	-0.1412891	0.348282	0	0	0.04648234	0.03222346	0	0
21.37984	-0.1412891	0.348282	0	0	0	0	0	0
21.3964	-0.1413149	0.3482641	-0.001556923	-0.001077524	-0.04750764	-0.03287935	0	0
21.41297	-0.1413149	0.3482641	0	0	0.04698804	0.03251974	0	0
21.42954	-0.1413407	0.3482463	-0.001556923	-0.001077524	-0.04698804	-0.03251974	0	0
21.44619	-0.1413665	0.3482284	-0.001548899	-0.001071971	0.0002415544	0.0001671747	0	0
21.4627	-0.1413665	0.3482284	0	0	0.04670285	0.03232237	0	0
21.47924	-0.1414439	0.3481748	-0.00467993	-0.003240714	-0.1416156	-0.09806462	0	0
21.49581	-0.1414955	0.3481391	-0.003113847	-0.002155048	0.04731077	0.03279755	0	0
21.51237	-0.1415212	0.3481213	-0.001556923	-0.001077524	0.04698804	0.03251974	0	0
21.52894	-0.1415728	0.3480856	-0.003113847	-0.002156847	-0.04698804	-0.03257403	0	0
21.54551	-0.141676	0.3480498	-0.006226794	-0.002155048	-0.09394894	5.428939E-05	0	0
21.56207	-0.1417792	0.3479784	-0.006226794	-0.004311895	0	-0.06509378	0	0
21.57879	-0.1424496	0.3475141	-0.0401154	-0.02777837	-1.018247	-0.7050944	0	0
21.59521	-0.14312	0.3470498	-0.04082866	-0.02828038	-0.02152755	-0.01515148	0	0
21.62834	-0.1447438	0.3459605	-0.04900621	-0.03287528	-0.1650266	-0.09272716	0	0
21.64491	-0.1447438	0.3459605	0	0	0.986007	0.6614519	0	0
21.66148	-0.1447438	0.3459605	0	0	0	0	0	0
21.67804	-0.1447695	0.3459783	-0.001555125	0.001077524	-0.04693376	0.03251974	0	0
21.69461	-0.1447695	0.3459783	0	0	0.04693376	-0.03251974	0	0
21.71118	-0.1447953	0.3459962	-0.001555125	0.001079323	-0.04693376	0.03257403	0	0
21.72775	-0.1448211	0.3460141	-0.001556024	0.001077524	-2.714469E-05	-5.428939E-05	0	0
21.74431	-0.1447953	0.3460319	0.001556024	0.001077524	0.0939218	0	0	0
21.76092	-0.1447953	0.3460319	0	0	-0.0469015	-0.03247861	0	0
21.77744	-0.1448211	0.3460498	-0.001560155	0.001080385	-0.04708829	0.03260796	0	0
21.79401	-0.1448211	0.3460498	0	0	0.047148	-0.03264931	0	0
21.81058	-0.1448211	0.3460498	0	0	0	0	0	0
21.82715	-0.1448211	0.3460498	0	0	0	0	0	0
21.84371	-0.1448211	0.3460498	0	0	0	0	0	0
21.86049	-0.1447953	0.3460319	0.001536216	-0.001063807	0.04606609	-0.0319001	0	0
21.89352	-0.1447953	0.3460319	0	0	-0.0308448	0.02135958	0	0
21.91003	-0.1447953	0.3460319	0	0	0	0	0	0
21.94906	-0.1447953	0.3460319	0	0	0	0	0	0
21.96557	-0.1447953	0.3460319	0	0	0	0	0	0
21.98206	-0.1447953	0.3460319	0	0	0	0	0	0
21.99863	-0.1447953	0.3460319	0	0	0	0	0	0
22.01519	-0.1447953	0.3460319	0	0	0	0	0	0
22.03176	-0.1447953	0.3460319	0	0	0	0	0	0
22.04863	-0.1447953	0.3460319	0	0	0	0	0	0
22.06489	-0.1447953	0.3460319	0	0	0	0	0	0
22.08146	-0.1447953	0.3460319	0	0	0	0	0	0
22.09803	-0.1447953	0.3460319	0	0	0	0	0	0
22.11468	-0.1447953	0.3460319	0	0	0	0	0	0
22.13116	-0.1447953	0.3460319	0	0	0	0	0	0
22.14773	-0.1447953	0.3460319	0	0	0	0	0	0
22.1643	-0.1447953	0.3460319	0	0	0	0	0	0
22.18122	-0.1447953	0.3460319	0	0	0	0	0	0
22.19743	-0.1447953	0.3460319	0	0	0	0	0	0
22.214	-0.1447953	0.3460319	0	0	0	0	0	0
22.23076	-0.1447953	0.3460319	0	0	0	0	0	0
22.24713	-0.1447953	0.3460319	0	0	0	0	0	0
22.2637	-0.1447953	0.3460319	0	0	0	0	0	0
22.28026	-0.1447953	0.3460319	0	0	0	0	0	0
22.29683	-0.1447953	0.3460319	0	0	0	0	0	0
22.3134	-0.1447953	0.3460319	0	0	0	0	0	0
22.32996	-0.1447953	0.3460319	0	0	0	0	0	0
22.34653	-0.1447953	0.3460319	0	0	0	0	0	0
22.36336	-0.1447953	0.3460319	0	0	0	0	0	0
22.37966	-0.1447953	0.3460319	0	0	0	0	0	0
22.39638	-0.1447953	0.3460319	0	0	0	0	0	0
22.41289	-0.1447953	0.3460319	0	0	0	0	0	0
22.42936	-0.1447953	0.3460319	0	0	0	0	0	0
22.44593	-0.1447953	0.3460319	0	0	0	0	0	0
22.4625	-0.1447953	0.3460319	0	0	0	0	0	0
22.47906	-0.1447953	0.3460319	0	0	0	0	0	0
22.49563	-0.1447953	0.3460319	0	0	0	0	0	0
22.51246	-0.1447953	0.3460319	0	0	0	0	0	0
22.52876	-0.1447953	0.3460319	0	0	0	0	0	0
22.54548	-0.1447953	0.3460319	0	0	0	0	0	0
22.5619	-0.1447953	0.3460319	0	0	0	0	0	0
22.57851	-0.1447953	0.3460319	0	0	0	0	0	0
22.59503	-0.1447953	0.3460319	0	0	0	0	0	0
22.61684	-0.1448211	0.3460141	-0.001182056	-0.0008185565	-0.03083732	-0.0213544	0	0
22.63354	-0.1447953	0.3460319	0.001543056	0.001068544	0.07075438	0.04899639	0	0
22.64997	-0.1447953	0.3460319	0	0	-0.0465722	-0.03225057	0	0
22.66654	-0.1447953	0.3460319	0	0	0	0	0	0
22.68311	-0.1447953	0.3460319	0	0	0	0	0	0
22.69967	-0.1447953	0.3460319	0	0	0	0	0	0
22.71624	-0.1447953	0.3460319	0	0	0	0	0	0
22.73312	-0.1447953	0.3460319	0	0	0	0	0	0
22.74963	-0.1447953	0.3460319	0	0	0	0	0	0
22.76594	-0.1447953	0.3460319	0	0	0	0	0	0
22.78251	-0.1447953	0.3460319	0	0	0	0	0	0
22.79907	-0.1447953	0.3460319	0	0	0	0	0	0
22.81564	-0.1447953	0.3460319	0	0	0	0	0	0
22.83221	-0.1447953	0.3460319	0	0	0	0	0	0
22.84878	-0.1447953	0.3460319	0	0	0	0	0	0
22.86534	-0.1447953	0.3460319	0	0	0	0	0	0
22.88191	-0.1447953	0.3460319	0	0	0	0	0	0
22.89848	-0.1447953	0.3460319	0	0	0	0	0	0
22.91504	-0.1447953	0.3460319	0	0	0	0	0	0
22.93176	-0.1447953	0.3460319	0	0	0	0	0	0
22.94828	-0.1448211	0.3460141	-0.001561056	-0.001081009	-0.04697217	-0.03252755	0	0
22.96479	-0.1448211	0.3460141	0	0	0.04727059	0.0327342	0	0
22.98131	-0.1448211	0.3460141	0	0	0	0	0	0
22.99788	-0.1448211	0.3460141	0	0	0	0	0	0
23.01445	-0.1448211	0.3460141	0	0	0	0	0	0
23.03101	-0.1448726	0.3460141	-0.003110249	0	-0.09386751	0	0	0
23.04758	-0.1448726	0.3460141	0	0	0.09386751	0	0	0
23.06415	-0.1449242	0.3460141	-0.003111149	0	-0.09389465	0	0	0
23.08072	-0.1449242	0.3460141	0	0	0.09389465	0	0	0
23.09728	-0.1449757	0.3460498	-0.003110249	0.002155048	-0.09386751	0.06503949	0	0
23.11385	-0.1450272	0.3460855	-0.003110607	0.002155297	-1.080791E-05	7.491045E-06	0	0
23.13041	-0.1450015	0.3461034	0.001555125	0.001079323	0.1408202	-0.03247482	0	0
23.14742	-0.145053	0.3461391	-0.003030696	0.002099927	-0.1366074	0.03040287	0	0
23.16355	-0.1451045	0.3461748	-0.003195015	0.002213141	-0.004959152	0.003416816	0	0
23.1832	-0.1451303	0.3461927	-0.001310929	0.0009098409	0.05264917	-0.03641962	0	0
23.25418	-0.1454395	0.3464069	-0.004356071	0.003019101	-0.03360058	0.0232739	0	0
23.27101	-0.1455425	0.3464784	-0.006123024	0.004244942	-0.02012408	0.01396129	0	0
23.28731	-0.1456456	0.3465498	-0.006320184	0.004380995	-0.005950302	0.004106079	0	0
23.30388	-0.1458001	0.3466569	-0.009328949	0.006466944	-0.09152653	0.06345448	0	0
23.32045	-0.1459289	0.3467462	-0.007774724	0.00538942	0.04690662	-0.03251974	0	0
23.33701	-0.1460062	0.3467998	-0.004664475	0.003232572	0.0938675	-0.06509379	0	0
23.35358	-0.1460835	0.3468534	-0.004665012	0.003234744	-1.620483E-05	6.553611E-05	0	0
23.37015	-0.1460835	0.3468534	0	0	0.1407984	-0.09763038	0	0
23.38671	-0.146135	0.3468534	-0.00310935	0	-0.09384037	0	0	0
23.40328	-0.1461608	0.3468355	-0.001555125	-0.001077524	0.04690661	-0.03251974	0	0
23.41985	-0.1462638	0.3467998	-0.0062187	-0.002156847	-0.140747	-0.03257403	0	0
23.43662	-0.1463153	0.3467641	-0.003070465	-0.002128098	0.09441606	0.0008621941	0	0
23.45298	-0.1464183	0.3467998	-0.006299198	0.002182945	-0.09744896	0.130115	0	0
23.46965	-0.1465213	0.3468355	-0.006180091	0.002143766	0.003606708	-0.001186361	0	0
23.48611	-0.1468304	0.3470498	-0.01876882	0.01301329	-0.3799287	0.3280429	0	0
23.58552	-0.1714322	0.3638199	-0.2474948	0.1687078	-1.973996	1.343705	0	0
23.60209	-0.1743945	0.3658563	-0.1788025	0.1229151	0.5923252	-0.3948646	0	0
23.61876	-0.1753387	0.3665172	-0.05662767	0.03963803	3.675395	-2.505231	0	0
23.63527	-0.1753642	0.3664994	-0.001544992	-0.001081134	1.659819	-1.227	0	0
23.65178	-0.1753642	0.3664994	0	0	0.04678146	0.03273609	0	0
23.66879	-0.1753897	0.3665172	-0.001499944	0.00104961	-0.04474552	0.03131142	0	0
23.68492	-0.1753897	0.3665172	0	0	0.045271	-0.03167913	0	0
23.70148	-0.1753897	0.3665172	0	0	0	0	0	0
23.71805	-0.1753642	0.3664994	0.001539834	-0.001077524	0.04647229	-0.03251974	0	0
23.73619	-0.1753642	0.3664994	0	0	-0.04436537	0.03104539	0	0
23.75276	-0.1753642	0.3664994	0	0	0	0	0	0
23.76936	-0.1753642	0.3664994	0	0	0	0	0	0
23.78589	-0.1753642	0.3664636	0	-0.002161575	0	-0.06523648	0	0
23.80246	-0.1753642	0.3664636	0	0	0	0.06530791	0	0
23.81903	-0.1753387	0.3664458	0.001539834	-0.001077524	0.04647229	-0.03251974	0	0
23.8356	-0.1753387	0.3664458	0	0	-0.04647229	0.03251974	0	0
23.85216	-0.1753642	0.3663922	-0.001539834	-0.00323617	-0.04647229	-0.09766781	0	0
23.86873	-0.1753642	0.3663922	0	0	0.04647229	0.09766781	0	0
23.8853	-0.1753387	0.3663743	0.001539834	-0.001077524	0.04647229	-0.03251974	0	0
23.90187	-0.1753387	0.3663386	0	-0.002156847	-0.04647229	-0.03257403	0	0
23.91843	-0.1753387	0.3663386	0	0	0	0.06509378	0	0
23.935	-0.1753387	0.3663028	0	-0.002156847	0	-0.06509378	0	0
23.97383	-0.1753387	0.3662671	0	-0.0009194788	0	0.02233636	0	0
23.9904	-0.1753642	0.3662493	-0.001539834	-0.001079323	-0.02779633	-0.002885428	0	0
24.00696	-0.1753642	0.3662493	0	0	0.04647229	0.03257403	0	0
24.02356	-0.1753642	0.3662493	0	0	0	0	0	0
24.0401	-0.1753642	0.3662493	0	0	0	0	0	0
24.05666	-0.1753642	0.3662493	0	0	0	0	0	0
24.07323	-0.1753642	0.3662493	0	0	0	0	0	0
24.0898	-0.1753642	0.3662493	0	0	0	0	0	0
24.10637	-0.1753897	0.3662314	-0.001539657	-0.0010774	-0.04646426	-0.03251413	0	0
24.12312	-0.1753897	0.3662314	0	0	0.04620099	0.0323299	0	0
24.1395	-0.1753897	0.3662314	0	0	0	0	0	0
24.15606	-0.1753642	0.3662135	0.001540011	-0.001079447	0.04674944	-0.0327683	0	0
24.17263	-0.1753642	0.3662135	0	0	-0.04648031	0.03257966	0	0
24.1892	-0.1753642	0.3662135	0	0	0	0	0	0
24.20577	-0.1753387	0.3661957	0.001539834	-0.001077524	0.04647229	-0.03251974	0	0
24.22233	-0.1753387	0.3661957	0	0	-0.04647496	0.03252162	0	0
24.2389	-0.1753387	0.3661599	0	-0.002156847	0	-0.06509753	0	0
24.27203	-0.1753132	0.3661421	0.0007699171	-0.0005387621	0.01549076	0.03255594	0	0
24.2886	-0.1752876	0.3661242	0.001540734	-0.001079323	0.01550886	-0.01087611	0	0
24.30517	-0.1752876	0.3660885	0	-0.002155048	-0.04649943	-0.03246545	0	0
24.32177	-0.1752876	0.3660885	0	0	0	0.06497964	0	0
24.3383	-0.1752876	0.3660528	0	-0.002160828	0	-0.0652139	0	0
24.35487	-0.1752621	0.3660349	0.001540011	-0.001079447	0.04652316	0.03266809	0	0
24.3718	-0.1752876	0.366017	-0.001506533	-0.001054221	-0.09094498	0.0007530507	0	0
24.38831	-0.1752876	0.366017	0	0	0.04504461	0.0315207	0	0
24.40483	-0.1752876	0.3659813	0	-0.002163823	0	-0.06551927	0	0
24.42134	-0.1752876	0.3659813	0	0	0	0.06552306	0	0
24.4377	-0.1752876	0.3659813	0	0	0	0	0	0
24.45436	-0.1753132	0.3659635	-0.001532266	-0.001071602	-0.04639612	-0.03244749	0	0
24.47087	-0.1753387	0.3659456	-0.001544992	-0.001082939	-0.0003836606	-0.0003417562	0	0
24.4874	-0.1753387	0.3659456	0	0	0.04675986	0.0327756	0	0
24.50397	-0.1753642	0.3659277	-0.001539834	-0.001077524	-0.04652585	-0.03255723	0	0
24.52091	-0.1753642	0.3659277	0	0	0.04595381	0.03215693	0	0
24.5371	-0.1753642	0.3659277	0	0	0	0	0	0
24.55367	-0.1753897	0.3659099	-0.001539834	-0.001077524	-0.04700533	-0.03289275	0	0
24.57044	-0.1753897	0.3659099	0	0	0.0461878	0.03232067	0	0
24.59172	-0.1753897	0.3659099	0	0	0	0	0	0
24.60829	-0.1753897	0.3659099	0	0	0	0	0	0
24.62486	-0.1753897	0.3659099	0	0	0	0	0	0
24.64151	-0.1753897	0.3659099	0	0	0	0	0	0
24.65801	-0.1754152	0.365892	-0.001546967	-0.00108369	-0.04666875	-0.03269265	0	0
24.67456	-0.1754152	0.365892	0	0	0.04680341	0.03278698	0	0
24.69112	-0.1754152	0.365892	0	0	0	0	0	0
24.70769	-0.1754407	0.3658741	-0.001539834	-0.001077524	-0.04647496	-0.03252162	0	0
24.72426	-0.1754662	0.3658563	-0.001539834	-0.001077524	0	0	0	0
24.74083	-0.1754662	0.3658563	0	0	0.04647229	0.03251974	0	0
24.75758	-0.1755173	0.3658206	-0.003046893	-0.00213327	-0.09145004	-0.06402838	0	0
24.77396	-0.1755683	0.3657848	-0.003114449	-0.002181206	-0.002038956	-0.001446791	0	0
24.7906	-0.1762571	0.3653025	-0.04137841	-0.02897437	-1.158543	-0.8112345	0	0
24.80709	-0.1789085	0.3634805	-0.1608187	-0.1105102	-3.604924	-2.460897	0	0
24.82366	-0.1864663	0.3581401	-0.4561894	-0.3223524	-8.935907	-6.408906	0	0
24.84023	-0.1915183	0.354586	-0.3049384	-0.2145226	4.564762	3.254309	0	0
24.85679	-0.1963073	0.3512464	-0.2890643	-0.201578	0.4790827	0.3906709	0	0
24.87336	-0.2003291	0.348407	-0.242755	-0.1713875	1.397616	0.9111501	0	0
24.89017	-0.2025774	0.3468177	-0.1337236	-0.09452815	3.266321	2.302522	0	0
24.9065	-0.2025774	0.3468534	0	0.002187281	4.035553	2.918709	0	0
24.92319	-0.2025521	0.3468355	0.001511636	-0.001069032	0.04577674	-0.09861063	0	0
24.93974	-0.2025521	0.3468355	0	0	-0.04547468	0.03215978	0	0
24.95622	-0.2025521	0.3468355	0	0	0	0	0	0
24.97276	-0.2025521	0.3468355	0	0	0	0	0	0
24.98933	-0.2025521	0.3468355	0	0	0	0	0	0
25.02246	-0.2025774	0.3468534	-0.0007618222	0.0005387621	-0.01532848	0.01084033	0	0
25.03903	-0.2025774	0.3468534	0	0	0.01532789	-0.01083991	0	0
25.0556	-0.2025774	0.3468534	0	0	0	0	0	0
25.0728	-0.2025774	0.3468534	0	0	0	0	0	0
25.08882	-0.2026026	0.3468712	-0.00157739	0.001114875	-0.04748544	0.03356199	0	0
25.10533	-0.2026026	0.3468712	0	0	0.04849909	-0.03427842	0	0
25.12186	-0.2025774	0.3468891	0.001527533	0.001079637	0.04622345	0.03267002	0	0
25.13843	-0.2025774	0.3468891	0	0	-0.04614621	-0.03261543	0	0
25.15617	-0.2025774	0.3468891	0	0	0	0	0	0
25.17189	-0.2025774	0.3468891	0	0	0	0	0	0
25.18839	-0.2025774	0.3468891	0	0	0	0	0	0
25.2049	-0.2025774	0.3468891	0	0	0	0	0	0
25.22127	-0.2025521	0.3468712	0.001542648	-0.001090963	0.04692456	-0.03318514	0	0
25.23783	-0.2025774	0.3468891	-0.00152382	0.001077648	-0.09312513	0.06585826	0	0
25.2544	-0.2025774	0.3468891	0	0	0.04599162	-0.03252536	0	0
25.27097	-0.2025521	0.3468712	0.001523644	-0.001077524	0.04598368	-0.03251974	0	0
25.28796	-0.2025521	0.3468712	0	0	-0.04539829	0.03210576	0	0
25.30792	-0.2025521	0.3468712	0	0	0	0	0	0
25.32449	-0.2025521	0.3468712	0	0	0	0	0	0
25.34105	-0.2025521	0.3468712	0	0	0	0	0	0
25.35801	-0.2025521	0.3468712	0	0	0	0	0	0
25.37419	-0.2025521	0.3468712	0	0	0	0	0	0
25.39103	-0.2025521	0.3468712	0	0	0	0	0	0
25.40754	-0.2025521	0.3468712	0	0	0	0	0	0
25.42406	-0.2025521	0.3468712	0	0	0	0	0	0
25.44046	-0.2025521	0.3468712	0	0	0	0	0	0
25.45702	-0.2025521	0.3468712	0	0	0	0	0	0
25.47359	-0.2025521	0.3468712	0	0	0	0	0	0
25.49016	-0.2025521	0.3468712	0	0	0	0	0	0
25.50672	-0.2025521	0.3468712	0	0	0	0	0	0
25.55642	-0.2025521	0.3468712	0	0	0	0	0	0
25.57299	-0.2025521	0.3468712	0	0	0	0	0	0
25.58956	-0.2025521	0.3468712	0	0	0	0	0	0
25.60619	-0.2025521	0.3468712	0	0	0	0	0	0
25.62269	-0.2025521	0.3468712	0	0	0	0	0	0
25.63926	-0.2025521	0.3468712	0	0	0	0	0	0
25.65582	-0.2025521	0.3468712	0	0	0	0	0	0
25.67239	-0.2025521	0.3468712	0	0	0	0	0	0
25.68924	-0.2025521	0.3468712	0	0	0	0	0	0
25.70552	-0.2025521	0.3468712	0	0	0	0	0	0
25.72209	-0.2025521	0.3468712	0	0	0	0	0	0
25.73866	-0.2025521	0.3468712	0	0	0	0	0	0
25.75522	-0.2025521	0.3468712	0	0	0	0	0	0
25.77179	-0.2025521	0.3468712	0	0	0	0	0	0
25.78836	-0.2025521	0.3468712	0	0	0	0	0	0
25.80492	-0.2025521	0.3468712	0	0	0	0	0	0
25.82184	-0.2025521	0.3468712	0	0	0	0	0	0
25.83835	-0.2025521	0.3468712	0	0	0	0	0	0
25.85486	-0.2025269	0.3468534	0.001529474	-0.001081009	0.04631158	-0.03273232	0	0
25.87119	-0.2025269	0.3468534	0	0	-0.04656978	0.0329148	0	0
25.88776	-0.2025269	0.3468534	0	0	0	0	0	0
25.90791	-0.2025269	0.3468534	0	0	0	0	0	0
25.92447	-0.2025269	0.3468534	0	0	0	0	0	0
25.94104	-0.2025269	0.3468534	0	0	0	0	0	0
25.95761	-0.2025269	0.3468534	0	0	0	0	0	0
25.97445	-0.2025269	0.3468534	0	0	0	0	0	0
25.99074	-0.2025269	0.3468534	0	0	0	0	0	0
26.00747	-0.2025269	0.3468534	0	0	0	0	0	0
26.02387	-0.2025521	0.3468712	-0.00153961	0.001088173	-0.0464682	0.03284301	0	0
26.04049	-0.2025521	0.3468712	0	0	0.04662118	-0.03295114	0	0
26.05701	-0.2025521	0.3468712	0	0	0	0	0	0
26.07402	-0.2025521	0.3468712	0	0	0	0	0	0
26.09014	-0.2025521	0.3468712	0	0	0	0	0	0
26.10671	-0.2025521	0.3468712	0	0	0	0	0	0
26.12355	-0.2025521	0.3468712	0	0	0	0	0	0
26.13984	-0.2025521	0.3468712	0	0	0	0	0	0
26.15641	-0.2025521	0.3468712	0	0	0	0	0	0
26.17309	-0.2025521	0.3468712	0	0	0	0	0	0
26.23924	-0.2025521	0.3468355	0	-0.0005396941	0	-0.00651535	0	0
26.25581	-0.2025521	0.3468355	0	0	0	0.006524214	0	0
26.27266	-0.2025269	0.3468177	0.001498833	-0.001059352	0.04485018	-0.03169942	0	0
26.28894	-0.2025269	0.3468177	0	0	-0.04523486	0.03197131	0	0
26.30551	-0.2025269	0.3468177	0	0	0	0	0	0
26.32208	-0.2025269	0.3468177	0	0	0	0	0	0
26.33865	-0.2025269	0.3468177	0	0	0	0	0	0
26.35521	-0.2025269	0.3468177	0	0	0	0	0	0
26.37178	-0.2025269	0.3468177	0	0	0	0	0	0
26.38835	-0.2025269	0.3468177	0	0	0	0	0	0
26.40491	-0.2025269	0.3468534	0	0.002155297	0	0.06505072	0	0
26.42148	-0.2025269	0.3468534	0	0	0	-0.06505072	0	0
26.43828	-0.2025269	0.3468534	0	0	0	0	0	0
26.45479	-0.2025269	0.3468534	0	0	0	0	0	0
26.4713	-0.2025269	0.3468534	0	0	0	0	0	0
26.48775	-0.2025269	0.3468534	0	0	0	0	0	0
26.50432	-0.2025269	0.3468534	0	0	0	0	0	0
26.52088	-0.2025269	0.3468534	0	0	0	0	0	0
26.53744	-0.2025269	0.3468534	0	0	0	0	0	0
26.55401	-0.2025269	0.3468534	0	0	0	0	0	0
26.5742	-0.2025269	0.3468534	0	0	0	0	0	0
26.59088	-0.2025269	0.3468534	0	0	0	0	0	0
26.6074	-0.2025269	0.3468534	0	0	0	0	0	0
26.62391	-0.2025269	0.3468534	0	0	0	0	0	0
26.64047	-0.2025269	0.3468534	0	0	0	0	0	0
26.65704	-0.2025269	0.3468534	0	0	0	0	0	0
26.67394	-0.2025269	0.3468534	0	0	0	0	0	0
26.69017	-0.2025269	0.3468534	0	0	0	0	0	0
26.70674	-0.2025269	0.3468534	0	0	0	0	0	0
26.7233	-0.2025269	0.3468534	0	0	0	0	0	0
26.73999	-0.2025521	0.3468355	-0.001513739	-0.001069887	-0.04552226	-0.03217444	0	0
26.7565	-0.2025269	0.3468534	0.001529828	0.001081259	0.09168612	0.06480235	0	0
26.77301	-0.2025269	0.3468534	0	0	-0.04632763	-0.03274366	0	0
26.78957	-0.2025269	0.3468534	0	0	0	0	0	0
26.80614	-0.2025269	0.3468534	0	0	0	0	0	0
26.8227	-0.2025269	0.3468534	0	0	0	0	0	0
26.83956	-0.2025269	0.3468534	0	0	0	0	0	0
26.85607	-0.2025269	0.3468534	0	0	0	0	0	0
26.8724	-0.2025269	0.3468534	0	0	0	0	0	0
26.88897	-0.2025269	0.3468534	0	0	0	0	0	0
26.90554	-0.2025269	0.3468534	0	0	0	0	0	0
26.92211	-0.2025016	0.3468355	0.001524544	-0.001077524	0.04601083	-0.03251974	0	0
26.93867	-0.2025016	0.3468355	0	0	-0.04601083	0.03251974	0	0
26.98837	-0.2025016	0.3468355	0	0	0	0	0	0
27.00494	-0.2025016	0.3468355	0	0	0	0	0	0
27.02151	-0.2025269	0.3468177	-0.001524544	-0.001077524	-0.04601083	-0.03251974	0	0
27.03807	-0.2025269	0.3468177	0	0	0.04601083	0.03251974	0	0
27.05464	-0.2025269	0.3468177	0	0	0	0	0	0
27.07121	-0.2025269	0.3468177	0	0	0	0	0	0
27.08777	-0.2025269	0.3468177	0	0	0	0	0	0
27.10434	-0.2025016	0.3468355	0.001524544	0.001077524	0.04601083	0.03251974	0	0
27.12128	-0.2025269	0.3468534	-0.001491069	0.001053865	-0.09000113	-0.0007061101	0	0
27.13778	-0.2025269	0.3468534	0	0	0.04459497	-0.03151904	0	0
27.15429	-0.2025269	0.3468534	0	0	0	0	0	0
27.17061	-0.2025269	0.3468534	0	0	0	0	0	0
27.23688	-0.2025269	0.3468534	0	0	0	0	0	0
27.25345	-0.2025269	0.3468534	0	0	0	0	0	0
27.27001	-0.2025016	0.3468355	0.001524719	-0.001077648	0.04601877	-0.03252536	0	0
27.28658	-0.2025016	0.3468355	0	0	-0.04601877	0.03252536	0	0
27.35552	-0.2025016	0.3467998	0	-0.0005183117	0	-0.006061533	0	0
27.37209	-0.2025016	0.3467998	0	0	0	0.006061533	0	0
27.38865	-0.2025016	0.3467998	0	0	0	0	0	0
27.40547	-0.2025016	0.3467998	0	0	0	0	0	0
27.42179	-0.2024764	0.3468177	0.001546975	0.00109585	0.04668781	0.03307283	0	0
27.43835	-0.2024764	0.3468177	0	0	-0.04704255	-0.03332412	0	0
27.45492	-0.2024764	0.3468177	0	0	0	0	0	0
27.47149	-0.2025016	0.3468355	-0.001523644	0.001077524	-0.04598368	0.03251974	0	0
27.48806	-0.2025016	0.3468355	0	0	0.04598368	-0.03251974	0	0
27.50462	-0.2025016	0.3468355	0	0	0	0	0	0
27.52155	-0.2025016	0.3468355	0	0	0	0	0	0
27.53775	-0.2025016	0.3468355	0	0	0	0	0	0
27.57089	-0.2025016	0.3468355	0	0	0	0	0	0
27.58745	-0.2025016	0.3468355	0	0	0	0	0	0
27.60402	-0.2024764	0.3468177	0.001523644	-0.001077524	0.04598368	-0.03251974	0	0
27.62059	-0.2024764	0.3468177	0	0	-0.04598368	0.03251974	0	0
27.63716	-0.2025016	0.3467998	-0.001523644	-0.001079323	-0.04598368	-0.03257403	0	0
27.65372	-0.2025016	0.3467998	0	0	0.04598632	0.03257591	0	0
27.67029	-0.2024764	0.3467819	0.001523644	-0.001077524	0.04598632	-0.03252162	0	0
27.68717	-0.2024764	0.3467819	0	0	-0.04555103	0.03221378	0	0
27.70342	-0.2024511	0.3467641	0.001553883	-0.00109826	0.04689357	-0.03314366	0	0
27.71999	-0.2024259	0.3467462	0.001523995	-0.001077772	-0.000910703	0.0006242961	0	0
27.7367	-0.2024006	0.3467284	0.001510975	-0.001067934	-0.000391233	0.0002956224	0	0
27.75312	-0.2023754	0.3467105	0.001538537	-0.00108923	0.0008318609	-0.0006427366	0	0
27.76973	-0.2023754	0.3467105	0	0	-0.04659138	0.03298504	0	0
27.78625	-0.2023754	0.3467105	0	0	0	0	0	0
27.80282	-0.2023754	0.3467105	0	0	0	0	0	0
27.81939	-0.2023754	0.3467105	0	0	0	0	0	0
27.83595	-0.2023501	0.3466927	0.001523644	-0.001077524	0.04598368	-0.03251974	0	0
27.85252	-0.2023501	0.3466927	0	0	-0.04598632	0.03252162	0	0
27.8693	-0.2022996	0.3466569	0.003011299	-0.00212834	0.09031968	-0.06383657	0	0
27.88581	-0.2019713	0.3464248	0.01988366	-0.01406015	0.5068746	-0.3584521	0	0
27.90232	-0.2015924	0.3461569	0.02294566	-0.01622242	0.09272115	-0.06547596	0	0
27.91879	-0.2005818	0.3454426	0.06136984	-0.04337503	1.165076	-0.8233062	0	0
27.93535	-0.1967882	0.342764	0.2289811	-0.161679	5.073705	-3.58114	0	0
27.95192	-0.1885746	0.3369783	0.4957744	-0.3492276	8.05184	-5.660227	0	0
27.96849	-0.1830081	0.3331033	0.3359933	-0.2338983	-4.822206	3.480645	0	0
27.98506	-0.1706911	0.3244777	0.743453	-0.5206385	12.29716	-8.653836	0	0
28.00542	-0.157218	0.3154402	0.6615893	-0.4437825	-2.216607	2.081014	0	0
28.02241	-0.1505367	0.3109743	0.3933251	-0.2629021	-7.182133	4.842639	0	0
28.10497	-0.08016991	0.2876872	0.8523151	-0.2820651	4.610813	-0.192503	0	0
28.13796	-0.04470703	0.2868467	1.074975	-0.02547554	1.926969	2.220611	0	0
28.15452	-0.03537997	0.2862924	0.5629828	-0.03346081	-10.33143	-0.1611339	0	0
28.17109	-0.01889249	0.2844862	0.9951862	-0.1090224	13.04393	-2.280454	0	0
28.18766	-0.004526285	0.2810879	0.8672456	-0.2051436	-3.861477	-2.901109	0	0
28.20422	0.001947366	0.2786193	0.3907503	-0.1490077	-14.38148	1.69428	0	0
28.22079	0.01349918	0.2713722	0.6972689	-0.4374316	9.250749	-8.704651	0	0
28.23736	0.02273292	0.2650886	0.5572858	-0.379234	-4.224456	1.756306	0	0
28.25393	0.03580049	0.2561865	0.7888504	-0.5373992	6.988635	-4.773435	0	0
28.27049	0.04520602	0.2497343	0.5677192	-0.3894548	-6.674137	4.465228	0	0
28.28706	0.05644	0.2420945	0.678084	-0.4611363	3.330816	-2.16335	0	0
28.32019	0.06923129	0.2333362	0.3860641	-0.2643432	-5.875677	3.959636	0	0
28.33676	0.07407475	0.2300139	0.2923517	-0.2005337	-1.88557	1.283899	0	0
28.35332	0.07622048	0.2285409	0.1295314	-0.08891677	-4.914209	3.3688	0	0
28.37016	0.07650826	0.2283433	0.01709527	-0.01173911	-3.366394	2.310737	0	0
28.38646	0.07650826	0.2283433	0	0	-0.5159659	0.3543074	0	0
28.40302	0.07650826	0.2283433	0	0	0	0	0	0
28.41969	0.07650826	0.2283433	0	0	0	0	0	0
28.43616	0.07650826	0.2283433	0	0	0	0	0	0
28.45272	0.0764821	0.2283613	-0.00157896	0.00108472	-0.04780168	0.03283898	0	0
28.46929	0.07645594	0.2283433	-0.001579409	-0.00108472	-1.357235E-05	-0.06547381	0	0
28.48624	0.07642978	0.2283613	-0.001543074	0.001060067	0.00108399	0.06398576	0	0
28.50242	0.07635129	0.2284152	-0.004850122	0.003330718	-0.0998069	0.06852838	0	0
28.51926	0.07629897	0.2284511	-0.003107918	0.0021339	0.0527651	-0.03624731	0	0
28.53556	0.0762728	0.2284691	-0.001605659	0.001101833	0.04534088	-0.03114964	0	0
28.55212	0.07624664	0.228487	-0.00157896	0.00108472	0.0008124264	-0.0005207436	0	0
28.5688	0.07616815	0.228505	-0.004707967	0.001077001	-0.0941356	-0.0002322257	0	0
28.58531	0.07614198	0.228523	-0.0015847	0.001088353	0.09411952	0.0003421133	0	0
28.60182	0.07608966	0.228523	-0.003168217	0	-0.0479452	-0.0329528	0	0
28.61839	0.07606349	0.2285409	-0.001579409	0.00108472	0.04802496	0.03278786	0	0
28.63496	0.07606349	0.2285409	0	0	0.04766667	-0.0327369	0	0
28.65586	0.07603733	0.2285589	-0.00125124	0.0008588689	-0.03338984	0.02291926	0	0
28.67243	0.07603733	0.2285589	0	0	0.03338984	-0.02291926	0	0
28.689	0.07606349	0.2285409	0.00157896	-0.00108382	0.0476531	-0.03270976	0	0
28.70557	0.07603733	0.228523	-0.00157896	-0.00108472	-0.0953062	-2.714469E-05	0	0
28.72213	0.07595884	0.2284691	-0.004737779	-0.003253259	-0.09533335	-0.06544667	0	0
28.73892	0.07585418	0.2283972	-0.00623606	-0.004281382	-0.044926	-0.03082826	0	0
28.7553	0.07569719	0.2282894	-0.009581909	-0.006578325	-0.1008792	-0.06925413	0	0
28.77183	0.07556636	0.2281996	-0.007914359	-0.005433685	0.05066213	0.03477552	0	0
28.7884	0.0755402	0.2281457	-0.001578778	-0.003252885	0.1914065	0.06588494	0	0
28.80497	0.07551403	0.2281277	-0.001579591	-0.001084845	-2.454828E-05	0.06543159	0	0
28.82153	0.07548787	0.2281098	-0.001579409	-0.00108382	5.491794E-06	3.091637E-05	0	0
28.8381	0.07540937	0.2280918	-0.004737137	-0.00108447	-0.09528945	-1.960615E-05	0	0
28.855	0.0753832	0.2280738	-0.001548566	-0.001063537	0.09527153	0.0006254547	0	0
28.87151	0.07535703	0.2280559	-0.0015847	-0.001087451	-0.001081555	-0.0007157867	0	0
28.8878	0.0753047	0.22802	-0.003212822	-0.002205613	-0.04963684	-0.03408962	0	0
28.90437	0.07527854	0.228002	-0.001579409	-0.00108472	0.0497143	0.03411536	0	0
28.92105	0.07527854	0.228002	0	0	0.0475026	0.03262423	0	0
28.93751	0.07527854	0.228002	0	0	0	0	0	0
28.95407	0.07527854	0.228002	0	0	0	0	0	0
28.97064	0.07527854	0.228002	0	0	0	0	0	0
28.98721	0.07525236	0.227984	-0.001579859	-0.00108472	-0.04768024	-0.0327369	0	0
29.00377	0.0752262	0.2279661	-0.001579591	-0.001083945	8.081334E-06	2.337965E-05	0	0
29.07004	0.07483368	0.2276966	-0.005923123	-0.004066574	-0.05243642	-0.0360072	0	0
29.08668	0.07451965	0.227481	-0.01887648	-0.01295933	-0.1562437	-0.1072646	0	0
29.10319	0.07425794	0.2273013	-0.01585337	-0.01088334	0.09121123	0.06263535	0	0
29.11974	0.0740224	0.2271396	-0.01422557	-0.0097654	0.04922912	0.03380959	0	0
29.13631	0.0738392	0.2270138	-0.01105811	-0.007592138	0.09562156	0.06560804	0	0
29.15322	0.07381302	0.2269959	-0.001547784	-0.001061816	0.2840788	0.1950644	0	0
29.16944	0.07381302	0.2269959	0	0	0.04671492	0.03204752	0	0
29.18601	0.07381302	0.2269959	0	0	0	0	0	0
29.20276	0.07381302	0.2269959	0	0	0	0	0	0
29.21914	0.07381302	0.2269959	0	0	0	0	0	0
29.23578	0.07381302	0.2269959	0	0	0	0	0	0
29.25229	0.07381302	0.2269959	0	0	0	0	0	0
29.2693	0.07381302	0.2269959	0	0	0	0	0	0
29.28541	0.07381302	0.2269959	0	0	0	0	0	0
29.30665	0.07381302	0.2269959	0	0	0	0	0	0
29.32322	0.07381302	0.2269959	0	0	0	0	0	0
29.33986	0.07381302	0.2269959	0	0	0	0	0	0
29.35636	0.07381302	0.2269959	0	0	0	0	0	0
29.37292	0.07381302	0.2269959	0	0	0	0	0	0
29.38949	0.07378685	0.2269779	-0.001579859	-0.00108472	-0.04769397	-0.03274633	0	0
29.40606	0.07378685	0.2269779	0	0	0.04768024	0.0327369	0	0
29.42262	0.07378685	0.2269779	0	0	0	0	0	0
29.43919	0.07378685	0.2269779	0	0	0	0	0	0
29.45576	0.07378685	0.2269779	0	0	0	0	0	0
29.47245	0.07378685	0.2269779	0	0	0	0	0	0
29.50546	0.07378685	0.2269779	0	0	0	0	0	0
29.52203	0.07378685	0.2269779	0	0	0	0	0	0
29.53859	0.07378685	0.2269779	0	0	0	0	0	0
29.55551	0.07378685	0.2269779	0	0	0	0	0	0
29.57173	0.07378685	0.2269779	0	0	0	0	0	0
29.58853	0.07378685	0.2269779	0	0	0	0	0	0
29.60505	0.07376067	0.2269599	-0.001585151	-0.001088353	-0.04757432	-0.03266418	0	0
29.62143	0.07376067	0.2269599	0	0	0.04818949	0.03308655	0	0
29.63799	0.07370833	0.2269599	-0.003159269	0	-0.09588229	0	0	0
29.65456	0.0733419	0.2271037	-0.02211803	0.008675958	-0.5721765	0.2618409	0	0
29.67113	0.07205923	0.2279481	-0.07742209	0.05096833	-1.66908	1.276386	0	0
29.6877	0.07033117	0.2291337	-0.1043058	0.07156541	-0.8113514	0.6216211	0	0
29.70426	0.06286442	0.23418	-0.4506938	0.304594	-10.45401	7.032815	0	0
29.72083	0.0575679	0.237806	-0.3197357	0.2188903	3.952552	-2.586689	0	0
29.7374	0.05179574	0.2416819	-0.3484084	0.2339496	-0.8653944	0.4545152	0	0
29.75397	0.03535368	0.2528353	-0.99233	0.6731458	-19.43247	13.2542	0	0
29.77067	0.02044452	0.2629935	-0.8926225	0.6081777	2.996758	-1.952647	0	0
29.7871	0.008157713	0.2712827	-0.7478321	0.5045202	4.370037	-3.128569	0	0
29.80366	-0.009131325	0.2828587	-1.043689	0.6988054	-8.966649	5.888281	0	0
29.8865	-0.06870747	0.3229954	-0.7192046	0.4845315	3.264379	-2.155641	0	0
29.91977	-0.1023256	0.3456212	-1.010351	0.6799907	-2.507507	1.683399	0	0
29.9362	-0.1125227	0.3523358	-0.6207876	0.4087755	7.838329	-5.457069	0	0
29.95277	-0.1223334	0.3582651	-0.59211	0.3578515	0.8691416	-1.543375	0	0
29.96933	-0.1397153	0.3616944	-1.049415	0.2070403	-13.80227	-4.551755	0	0
29.9859	-0.1445892	0.3616765	-0.2941857	-0.001079323	22.79548	-6.281785	0	0
30.00283	-0.1655242	0.3608727	-1.236312	-0.04746459	-28.1226	-1.384607	0	0
30.02394	-0.1925579	0.3609978	-1.280581	0.005922197	-1.163629	1.403292	0	0
30.04051	-0.2024511	0.3616586	-0.5971544	0.03988998	18.13872	0.9015339	0	0
30.05708	-0.2111976	0.3620695	-0.5279365	0.02479745	2.089001	-0.4554935	0	0
30.07364	-0.216224	0.3626767	-0.3033941	0.03665561	6.776701	0.35788	0	0
30.09039	-0.22164	0.3613193	-0.3233775	-0.08105035	-0.5998204	-3.533052	0	0
30.10678	-0.2225414	0.3607477	-0.05501033	-0.03488207	8.099339	1.393361	0	0
30.12335	-0.2224914	0.3607834	0.003022105	0.002156847	1.761053	1.123983	0	0
30.13993	-0.2224914	0.3607834	0	0	-0.09116007	-0.06506007	0	0
30.15648	-0.2224914	0.3607834	0	0	0	0	0	0
30.17305	-0.2224914	0.3607834	0	0	0	0	0	0
30.18961	-0.2224663	0.3607656	0.001511052	-0.001077524	0.04560365	-0.03251974	0	0
30.20618	-0.2224163	0.3607298	0.003022105	-0.002156847	0.04560365	-0.03257403	0	0
30.22275	-0.2223662	0.3606941	0.003022105	-0.002155048	0	5.428939E-05	0	0
30.23932	-0.2223412	0.3606763	0.001511052	-0.001079323	-0.04560365	0.03246545	0	0
30.25588	-0.222241	0.3606048	0.006045804	-0.004312392	0.136867	-0.09757983	0	0
30.27245	-0.2221909	0.3605691	0.003022105	-0.002156847	-0.09126069	0.06505822	0	0
30.28904	-0.2220908	0.3604977	0.006037667	-0.004305947	0.09094703	-0.06481518	0	0
30.30558	-0.2219155	0.3603726	0.0105938	-0.007556707	0.1375044	-0.09810814	0	0
30.32256	-0.22164	0.3601761	0.01622441	-0.01157219	0.1679597	-0.1197809	0	0
30.33907	-0.219786	0.3588545	0.1122845	-0.08004361	2.868224	-2.044464	0	0
30.35528	-0.2191593	0.358408	0.03866535	-0.02754692	-2.249935	1.604394	0	0
30.37185	-0.2191844	0.3584258	-0.001513751	0.001077524	-1.225874	0.8733388	0	0
30.38842	-0.2191844	0.3584258	0	0	0.04568508	-0.03251974	0	0
30.40498	-0.2191844	0.3584258	0	0	0	0	0	0
30.42155	-0.2191844	0.3584258	0	0	0	0	0	0
30.43815	-0.2191844	0.3584258	0	0	0	0	0	0
30.45469	-0.2191844	0.3584258	0	0	0	0	0	0
30.47125	-0.2191844	0.3584258	0	0	0	0	0	0
30.48782	-0.2191844	0.3584258	0	0	0	0	0	0
30.50439	-0.2191844	0.3584258	0	0	0	0	0	0
30.52121	-0.2191593	0.3584437	0.001491091	0.001061394	0.0446644	0.0317932	0	0
30.53772	-0.2191593	0.3584437	0	0	-0.0447334	-0.03184232	0	0
30.55408	-0.2191593	0.3584437	0	0	0	0	0	0
30.57074	-0.2191342	0.3584258	0.001504709	-0.001071725	0.04556697	-0.03245495	0	0
30.58722	-0.2190841	0.3583901	0.003043068	-0.002168581	0.04642776	-0.03310319	0	0
30.60378	-0.2190841	0.3583901	0	0	-0.09209444	0.06562925	0	0
30.62035	-0.2190841	0.3583901	0	0	0	0	0	0
30.63692	-0.219059	0.358408	0.001513751	0.001079323	0.04568771	0.03257591	0	0
30.65348	-0.2190089	0.3584437	0.003026602	0.002155048	0.04565794	0.03246545	0	0
30.67005	-0.2189838	0.3584616	0.001513925	0.001079447	-0.0456553	-0.03246357	0	0
30.78602	-0.2127318	0.3544788	0.05391203	-0.03434365	0.3953616	-0.2672793	0	0
30.80621	-0.2037639	0.348157	0.4441494	-0.3130993	2.866063	-2.047295	0	0
30.82291	-0.2014408	0.3465141	0.1390498	-0.09833992	-8.268806	5.820406	0	0
30.83934	-0.1887015	0.3375319	0.775463	-0.5467607	19.20699	-13.53337	0	0
30.85594	-0.1848903	0.3348533	0.2296494	-0.1614021	-16.52787	11.66911	0	0
30.87247	-0.1786027	0.3304782	0.3802218	-0.2645689	4.544546	-3.113761	0	0
30.88904	-0.1752111	0.3280673	0.2047179	-0.1455197	-5.301602	3.596224	0	0
30.90561	-0.1722241	0.3260493	0.1802928	-0.121807	-0.7371507	0.7156517	0	0
30.92249	-0.1701289	0.3245849	0.1241418	-0.08676651	-1.678887	1.047694	0	0
30.939	-0.1701289	0.3246206	0	0.002163823	-3.717718	2.663226	0	0
30.95531	-0.1701289	0.3246206	0	0	0	-0.06592284	0	0
30.97202	-0.1701033	0.3246385	0.001528978	0.001068056	0.04629924	0.03234197	0	0
30.98844	-0.1701033	0.3246385	0	0	-0.04614731	-0.03223585	0	0
31.00501	-0.1701033	0.3246385	0	0	0	0	0	0
31.02158	-0.1701033	0.3246385	0	0	0	0	0	0
31.03815	-0.1701289	0.3246563	-0.001542532	0.001077524	-0.0465564	0.03252162	0	0
31.05471	-0.1701544	0.3247099	-0.00154271	0.003234744	-5.36179E-06	0.06510877	0	0
31.07128	-0.17018	0.324692	-0.001543432	-0.001077524	-2.178798E-05	-0.130152	0	0
31.08784	-0.17018	0.324692	0	0	0.04658087	0.03251974	0	0
31.10462	-0.17018	0.324692	0	0	0	0	0	0
31.12098	-0.17018	0.324692	0	0	0	0	0	0
31.13754	-0.17018	0.324692	0	0	0	0	0	0
31.15415	-0.17018	0.324692	0	0	0	0	0	0
31.17068	-0.17018	0.324692	0	0	0	0	0	0
31.18724	-0.17018	0.324692	0	0	0	0	0	0
31.20381	-0.17018	0.324692	0	0	0	0	0	0
31.22038	-0.17018	0.324692	0	0	0	0	0	0
31.23695	-0.17018	0.324692	0	0	0	0	0	0
31.25351	-0.17018	0.324692	0	0	0	0	0	0
31.27008	-0.1701544	0.3246742	0.001543432	-0.001079323	0.04658355	-0.03257591	0	0
31.28665	-0.17018	0.3246563	-0.001543432	-0.001077524	-0.09316174	5.428939E-05	0	0
31.30321	-0.17018	0.3246563	0	0	0.04658355	0.03252162	0	0
31.31978	-0.17018	0.3246563	0	0	0	0	0	0
31.33635	-0.17018	0.3246563	0	0	0	0	0	0
31.35291	-0.17018	0.3246563	0	0	0	0	0	0
31.36948	-0.17018	0.3246563	0	0	0	0	0	0
31.42505	-0.17018	0.3246563	0	0	0	0	0	0
31.44162	-0.17018	0.3246563	0	0	0	0	0	0
31.46187	-0.17018	0.3246563	0	0	0	0	0	0
31.47844	-0.17018	0.3246563	0	0	0	0	0	0
31.495	-0.17018	0.3246563	0	0	0	0	0	0
31.51157	-0.17018	0.3246563	0	0	0	0	0	0
31.52814	-0.17018	0.3246563	0	0	0	0	0	0
31.5447	-0.17018	0.3246563	0	0	0	0	0	0
31.56127	-0.17018	0.3246563	0	0	0	0	0	0
31.57784	-0.17018	0.3246563	0	0	0	0	0	0
31.59441	-0.17018	0.3246563	0	0	0	0	0	0
31.61098	-0.17018	0.3246563	0	0	0	0	0	0
31.62799	-0.17018	0.3246563	0	0	0	0	0	0
31.64411	-0.17018	0.3246563	0	0	0	0	0	0
31.66067	-0.17018	0.3246563	0	0	0	0	0	0
31.67724	-0.17018	0.3246563	0	0	0	0	0	0
31.69404	-0.17018	0.3246563	0	0	0	0	0	0
31.74351	-0.17018	0.3246563	0	0	0	0	0	0
31.77664	-0.17018	0.3246563	0	0	0	0	0	0
31.79321	-0.17018	0.3246563	0	0	0	0	0	0
31.81012	-0.17018	0.3246563	0	0	0	0	0	0
31.82634	-0.17018	0.3246563	0	0	0	0	0	0
31.84291	-0.17018	0.3246563	0	0	0	0	0	0
31.85966	-0.17018	0.3246563	0	0	0	0	0	0
31.87604	-0.17018	0.3246563	0	0	0	0	0	0
31.89268	-0.17018	0.3246563	0	0	0	0	0	0
31.90918	-0.17018	0.3246563	0	0	0	0	0	0
31.92574	-0.17018	0.3246563	0	0	0	0	0	0
31.94231	-0.17018	0.3246563	0	0	0	0	0	0
31.95888	-0.17018	0.3246563	0	0	0	0	0	0
31.97544	-0.17018	0.3246563	0	0	0	0	0	0
31.99201	-0.17018	0.3246563	0	0	0	0	0	0
32.00858	-0.17018	0.3246563	0	0	0	0	0	0
32.02515	-0.17018	0.3246563	0	0	0	0	0	0
32.04171	-0.17018	0.3246563	0	0	0	0	0	0
32.0583	-0.17018	0.3246563	0	0	0	0	0	0
32.07485	-0.17018	0.3246563	0	0	0	0	0	0
32.09142	-0.17018	0.3246563	0	0	0	0	0	0
32.10798	-0.17018	0.3246563	0	0	0	0	0	0
32.12455	-0.17018	0.3246563	0	0	0	0	0	0
32.14112	-0.17018	0.3246563	0	0	0	0	0	0
32.17689	-0.17018	0.3246563	0	0	0	0	0	0
32.19313	-0.17018	0.3246563	0	0	0	0	0	0
32.2097	-0.1702055	0.3246742	-0.001542532	0.001077524	-0.04701379	0.03284112	0	0
32.22626	-0.1702055	0.3246742	0	0	0.04655372	-0.03251974	0	0
32.24283	-0.1702055	0.3246742	0	0	0	0	0	0
32.2594	-0.1702055	0.3246742	0	0	0	0	0	0
32.27597	-0.17018	0.3246563	0.001542532	-0.001077524	0.04655372	-0.03251974	0	0
32.29253	-0.17018	0.3246563	0	0	-0.04655372	0.03251974	0	0
32.3091	-0.17018	0.3246563	0	0	0	0	0	0
32.326	-0.17018	0.3246563	0	0	0	0	0	0
32.34251	-0.1702055	0.3246742	-0.001547879	0.001081259	-0.04633631	0.03236787	0	0
32.3588	-0.1702055	0.3246742	0	0	0.04718771	-0.03296261	0	0
32.37553	-0.1702055	0.3246742	0	0	0	0	0	0
32.39193	-0.1702055	0.3246742	0	0	0	0	0	0
32.4085	-0.1702055	0.3246742	0	0	0	0	0	0
32.42507	-0.1702311	0.324692	-0.001542532	0.001079323	-0.04655372	0.03257403	0	0
32.44287	-0.1702311	0.324692	0	0	0.04487467	-0.03139918	0	0
32.45944	-0.1702311	0.324692	0	0	0	0	0	0
32.4761	-0.1702311	0.324692	0	0	0	0	0	0
32.49258	-0.1702311	0.324692	0	0	0	0	0	0
32.50914	-0.1702311	0.324692	0	0	0	0	0	0
32.52571	-0.1702055	0.3246742	0.001542532	-0.001079323	0.04655372	-0.03257403	0	0
32.62521	-0.1702055	0.3246742	0	0	-0.01329013	0.00929922	0	0
32.64168	-0.1702055	0.3246742	0	0	0	0	0	0
32.65825	-0.1702055	0.3246742	0	0	0	0	0	0
32.67525	-0.1702055	0.3246742	0	0	0	0	0	0
32.69138	-0.1702055	0.3246742	0	0	0	0	0	0
32.70795	-0.1702055	0.3246742	0	0	0	0	0	0
32.72451	-0.1702055	0.3246742	0	0	0	0	0	0
32.74108	-0.1702055	0.3246742	0	0	0	0	0	0
32.75765	-0.1702055	0.3246742	0	0	0	0	0	0
32.77422	-0.1702055	0.3246742	0	0	0	0	0	0
32.79078	-0.1702055	0.3246742	0	0	0	0	0	0
32.80735	-0.1702055	0.3246742	0	0	0	0	0	0
32.82392	-0.1702055	0.3246742	0	0	0	0	0	0
32.84087	-0.1702055	0.3246742	0	0	0	0	0	0
32.85705	-0.1702055	0.3246742	0	0	0	0	0	0
32.87818	-0.1702055	0.3246742	0	0	0	0	0	0
32.89474	-0.1702055	0.3246742	0	0	0	0	0	0
32.91141	-0.1702055	0.3246742	0	0	0	0	0	0
32.92793	-0.1702055	0.3246742	0	0	0	0	0	0
32.94445	-0.1702055	0.3246742	0	0	0	0	0	0
32.96101	-0.1702055	0.3246742	0	0	0	0	0	0
32.97758	-0.1702055	0.3246742	0	0	0	0	0	0
32.99415	-0.1702055	0.3246742	0	0	0	0	0	0
33.01072	-0.1702055	0.3246742	0	0	0	0	0	0
33.02728	-0.1702055	0.3246742	0	0	0	0	0	0
33.04385	-0.1702055	0.3246742	0	0	0	0	0	0
33.06052	-0.1702055	0.3246742	0	0	0	0	0	0
33.07698	-0.17018	0.3246563	0.001552542	-0.001084516	0.04685581	-0.03273076	0	0
33.09355	-0.17018	0.3246563	0	0	-0.04700734	0.03283662	0	0
33.11012	-0.17018	0.3246563	0	0	0	0	0	0
33.12669	-0.17018	0.3246563	0	0	0	0	0	0
33.14325	-0.17018	0.3246563	0	0	0	0	0	0
33.15982	-0.17018	0.3246563	0	0	0	0	0	0
33.17639	-0.17018	0.3246563	0	0	0	0	0	0
33.19296	-0.17018	0.3246563	0	0	0	0	0	0
33.20964	-0.17018	0.3246563	0	0	0	0	0	0
33.22615	-0.17018	0.3246563	0	0	0	0	0	0
33.24266	-0.1702055	0.3246742	-0.001547879	0.001081259	-0.04687697	0.03274555	0	0
33.25922	-0.1702055	0.3246742	0	0	0.04680128	-0.03269267	0	0
33.27579	-0.1702055	0.3246742	0	0	0	0	0	0
33.29235	-0.1702055	0.3246742	0	0	0	0	0	0
33.3092	-0.1702055	0.3246742	0	0	0	0	0	0
33.32549	-0.17018	0.3246563	0.001569271	-0.001096202	0.0473607	-0.03308345	0	0
33.34206	-0.17018	0.3246563	0	0	-0.04776765	0.03336773	0	0
33.44146	-0.17018	0.3246563	0	0	0	0	0	0
33.45803	-0.17018	0.3246563	0	0	0	0	0	0
33.47459	-0.17018	0.3246563	0	0	0	0	0	0
33.49116	-0.17018	0.3246563	0	0	0	0	0	0
33.50772	-0.17018	0.3246563	0	0	0	0	0	0
33.52436	-0.17018	0.3246563	0	0	0	0	0	0
33.54087	-0.17018	0.3246563	0	0	0	0	0	0
33.55743	-0.17018	0.3246563	0	0	0	0	0	0
33.5744	-0.17018	0.3246563	0	0	0	0	0	0
33.59056	-0.17018	0.3246563	0	0	0	0	0	0
33.60742	-0.17018	0.3246563	0	0	0	0	0	0
33.62679	-0.1702055	0.3246742	-0.001319783	0.0009219242	-0.03643357	0.02545039	0	0
33.64335	-0.1702055	0.3246742	0	0	0.03673141	-0.02565845	0	0
33.65992	-0.1702055	0.3246742	0	0	0	0	0	0
33.67649	-0.1702055	0.3246742	0	0	0	0	0	0
33.69348	-0.1702055	0.3246742	0	0	0	0	0	0
33.70962	-0.1702055	0.3246742	0	0	0	0	0	0
33.72618	-0.1702055	0.3246742	0	0	0	0	0	0
33.74275	-0.1702055	0.3246742	0	0	0	0	0	0
33.75932	-0.1702055	0.3246742	0	0	0	0	0	0
33.77604	-0.1702055	0.3246742	0	0	0	0	0	0
33.79255	-0.1702055	0.3246742	0	0	0	0	0	0
33.80906	-0.1702055	0.3246742	0	0	0	0	0	0
33.82558	-0.1702055	0.3246742	0	0	0	0	0	0
33.84215	-0.1702055	0.3246742	0	0	0	0	0	0
33.85872	-0.1702055	0.3246742	0	0	0	0	0	0
33.87528	-0.1702055	0.3246742	0	0	0	0	0	0
33.89185	-0.1702055	0.3246742	0	0	0	0	0	0
33.90842	-0.1702055	0.3246742	0	0	0	0	0	0
33.92498	-0.1702055	0.3246742	0	0	0	0	0	0
33.94155	-0.1702055	0.3246742	0	0	0	0	0	0
33.95812	-0.1702055	0.3246742	0	0	0	0	0	0
33.97469	-0.1702055	0.3246742	0	0	0	0	0	0
33.99125	-0.1702055	0.3246742	0	0	0	0	0	0
34.00782	-0.1702055	0.3246742	0	0	0	0	0	0
34.02472	-0.1702055	0.3246742	0	0	0	0	0	0
34.04095	-0.1702055	0.3246742	0	0	0	0	0	0
34.17349	-0.1702055	0.3246742	0	0	0	0	0	0
34.19006	-0.1702055	0.3246742	0	0	0	0	0	0
34.20662	-0.1702055	0.3246742	0	0	0	0	0	0
34.22336	-0.1702055	0.3246742	0	0	0	0	0	0
34.23987	-0.1702055	0.3246742	0	0	0	0	0	0
34.25638	-0.1702055	0.3246742	0	0	0	0	0	0
34.27289	-0.1702055	0.3246742	0	0	0	0	0	0
34.30602	-0.1702055	0.3246742	0	0	0	0	0	0
34.32259	-0.1702055	0.3246742	0	0	0	0	0	0
34.33944	-0.1702055	0.3246742	0	0	0	0	0	0
34.35572	-0.1702055	0.3246742	0	0	0	0	0	0
34.37247	-0.1702055	0.3246742	0	0	0	0	0	0
34.38885	-0.1702055	0.3246742	0	0	0	0	0	0
34.40549	-0.1702055	0.3246742	0	0	0	0	0	0
34.422	-0.1702055	0.3246742	0	0	0	0	0	0
34.4587	-0.1702055	0.3246742	0	0	0	0	0	0
34.47527	-0.1702055	0.3246742	0	0	0	0	0	0
34.49184	-0.1702055	0.3246742	0	0	0	0	0	0
34.50856	-0.1702055	0.3246742	0	0	0	0	0	0
34.52497	-0.1702055	0.3246742	0	0	0	0	0	0
34.54158	-0.1702055	0.3246742	0	0	0	0	0	0
34.5581	-0.1702055	0.3246742	0	0	0	0	0	0
34.57467	-0.1702055	0.3246742	0	0	0	0	0	0
34.59124	-0.1702055	0.3246742	0	0	0	0	0	0
34.6078	-0.1702055	0.3246742	0	0	0	0	0	0
34.62437	-0.1702055	0.3246742	0	0	0	0	0	0
34.64115	-0.1702055	0.3246742	0	0	0	0	0	0
34.6575	-0.1702055	0.3246742	0	0	0	0	0	0
34.67417	-0.1702055	0.3246742	0	0	0	0	0	0
34.69068	-0.1702055	0.3246742	0	0	0	0	0	0
34.7072	-0.1702055	0.3246742	0	0	0	0	0	0
34.72377	-0.1702055	0.3246742	0	0	0	0	0	0
34.74033	-0.1702055	0.3246742	0	0	0	0	0	0
34.7569	-0.1702055	0.3246742	0	0	0	0	0	0
34.77347	-0.1702055	0.3246742	0	0	0	0	0	0
34.79004	-0.1702055	0.3246742	0	0	0	0	0	0
34.8066	-0.1702055	0.3246742	0	0	0	0	0	0
34.82331	-0.1702055	0.3246742	0	0	0	0	0	0
34.92257	-0.1702055	0.3246742	0	0	0	0	0	0
34.93914	-0.1702055	0.3246742	0	0	0	0	0	0
34.95571	-0.1702055	0.3246742	0	0	0	0	0	0
34.97239	-0.1702055	0.3246742	0	0	0	0	0	0
34.9889	-0.1702055	0.3246742	0	0	0	0	0	0
35.00541	-0.1702055	0.3246742	0	0	0	0	0	0
35.02198	-0.1702055	0.3246742	0	0	0	0	0	0
35.03854	-0.1702055	0.3246742	0	0	0	0	0	0
35.05511	-0.1702055	0.3246742	0	0	0	0	0	0
35.07168	-0.1702055	0.3246742	0	0	0	0	0	0
35.08847	-0.1702055	0.3246742	0	0	0	0	0	0
35.10498	-0.1702055	0.3246742	0	0	0	0	0	0
35.12149	-0.1702055	0.3246742	0	0	0	0	0	0
35.138	-0.1702055	0.3246742	0	0	0	0	0	0
35.17107	-0.1702055	0.3246742	0	0	0	0	0	0
35.19203	-0.1702055	0.3246742	0	0	0	0	0	0
35.2086	-0.1702055	0.3246742	0	0	0	0	0	0
35.22557	-0.1702055	0.3246742	0	0	0	0	0	0
35.24173	-0.1702055	0.3246742	0	0	0	0	0	0
35.25829	-0.1702055	0.3246742	0	0	0	0	0	0
35.27486	-0.1702055	0.3246742	0	0	0	0	0	0
35.29161	-0.1702055	0.3246742	0	0	0	0	0	0
35.30812	-0.1702055	0.3246742	0	0	0	0	0	0
35.32463	-0.1702055	0.3246742	0	0	0	0	0	0
35.34113	-0.1702055	0.3246742	0	0	0	0	0	0
35.35769	-0.1702055	0.3246742	0	0	0	0	0	0
35.37467	-0.1702055	0.3246742	0	0	0	0	0	0
35.39083	-0.1702055	0.3246742	0	0	0	0	0	0
35.4074	-0.1702055	0.3246742	0	0	0	0	0	0
35.42396	-0.1702055	0.3246742	0	0	0	0	0	0
35.44053	-0.1702055	0.3246742	0	0	0	0	0	0
35.45723	-0.1702055	0.3246742	0	0	0	0	0	0
35.47374	-0.1702055	0.3246742	0	0	0	0	0	0
35.49025	-0.1702055	0.3246742	0	0	0	0	0	0
35.50679	-0.1702055	0.3246742	0	0	0	0	0	0
35.52336	-0.1702055	0.3246742	0	0	0	0	0	0
35.55649	-0.1702055	0.3246742	0	0	0	0	0	0
35.57331	-0.1702055	0.3246742	0	0	0	0	0	0
35.58963	-0.1702055	0.3246742	0	0	0	0	0	0
35.60633	-0.1702055	0.3246742	0	0	0	0	0	0
35.62284	-0.1702055	0.3246742	0	0	0	0	0	0
35.63933	-0.1702055	0.3246742	0	0	0	0	0	0
35.6559	-0.1702055	0.3246742	0	0	0	0	0	0
35.67246	-0.1702055	0.3246742	0	0	0	0	0	0
35.68903	-0.1702055	0.3246742	0	0	0	0	0	0
35.7056	-0.1702055	0.3246742	0	0	0	0	0	0
35.72242	-0.1702055	0.3246742	0	0	0	0	0	0
35.73893	-0.1702055	0.3246742	0	0	0	0	0	0
35.75529	-0.1702055	0.3246742	0	0	0	0	0	0
35.77186	-0.1702055	0.3246742	0	0	0	0	0	0
35.78843	-0.1702055	0.3246742	0	0	0	0	0	0
35.805	-0.1702055	0.3246742	0	0	0	0	0	0
35.84481	-0.1702055	0.3246742	0	0	0	0	0	0
35.86152	-0.1702055	0.3246742	0	0	0	0	0	0
35.87794	-0.1702055	0.3246742	0	0	0	0	0	0
35.89454	-0.1702055	0.3246742	0	0	0	0	0	0
35.91108	-0.1702055	0.3246742	0	0	0	0	0	0
35.92764	-0.1702055	0.3246742	0	0	0	0	0	0
35.94421	-0.1702055	0.3246742	0	0	0	0	0	0
35.96109	-0.1702055	0.3246742	0	0	0	0	0	0
36.04365	-0.1702055	0.3246742	0	0	0	0	0	0
36.06018	-0.1702055	0.3246742	0	0	0	0	0	0
36.07674	-0.1702055	0.3246742	0	0	0	0	0	0
36.09331	-0.1702055	0.3246742	0	0	0	0	0	0
36.1102	-0.1702055	0.3246742	0	0	0	0	0	0
36.12671	-0.1702055	0.3246742	0	0	0	0	0	0
36.14301	-0.1702055	0.3246742	0	0	0	0	0	0
36.15958	-0.1702055	0.3246742	0	0	0	0	0	0
36.17615	-0.1702055	0.3246742	0	0	0	0	0	0
36.20928	-0.1702055	0.3246742	0	0	0	0	0	0
36.22585	-0.1702055	0.3246742	0	0	0	0	0	0
36.24242	-0.1702055	0.3246742	0	0	0	0	0	0
36.25898	-0.17018	0.3246563	0.001542532	-0.001077524	0.04655372	-0.03251974	0	0
36.27555	-0.17018	0.3246563	0	0	-0.04655372	0.03251974	0	0
36.29212	-0.17018	0.3246563	0	0	0	0	0	0
36.30869	-0.1701544	0.3246742	0.001543432	0.001077524	0.04658087	0.03251974	0	0
36.32536	-0.1701544	0.3246742	0	0	-0.04643653	-0.03241897	0	0
36.34182	-0.1701544	0.3246742	0	0	0	0	0	0
36.35838	-0.1701544	0.3246742	0	0	0	0	0	0
36.37495	-0.1701544	0.3246742	0	0	0	0	0	0
36.39152	-0.1701544	0.3246742	0	0	0	0	0	0
36.40808	-0.1701033	0.3247099	0.003085065	0.002156847	0.09310745	0.06509378	0	0
36.42465	-0.1700777	0.3247277	0.001543432	0.001077524	-0.04652657	-0.03257403	0	0
36.44122	-0.170001	0.3247813	0.004628497	0.003234371	0.09310745	0.06509378	0	0
36.45779	-0.1696943	0.3249956	0.01851669	0.01293569	0.4191464	0.2927863	0	0
36.47435	-0.1692852	0.3252456	0.02469131	0.01509073	0.1863506	0.06503947	0	0
36.49092	-0.1686971	0.3256564	0.03550074	0.02479385	0.326229	0.2928405	0	0
36.52728	-0.165345	0.3279245	0.09220676	0.06238769	1.071516	0.7103727	0	0
36.54384	-0.1603483	0.3312996	0.3015997	0.2037258	3.956686	2.670723	0	0
36.56052	-0.1530053	0.336264	0.4401861	0.297595	4.168147	2.823225	0	0
36.57704	-0.1508968	0.3375854	0.1276782	0.08001992	-9.414165	-6.554354	0	0
36.59355	-0.1368756	0.3464069	0.8492547	0.5343115	21.85017	13.75648	0	0
36.61011	-0.1281362	0.3508	0.5276334	0.2652256	-9.724462	-8.136016	0	0
36.62668	-0.1147308	0.3527822	0.8091527	0.1196502	8.497248	-4.393981	0	0
36.64325	-0.09875663	0.3537109	0.9642007	0.05605464	4.679357	-1.919316	0	0
36.65981	-0.07734539	0.3556754	1.292385	0.1185762	9.904622	1.886905	0	0
36.67661	-0.06359833	0.3576578	0.8184671	0.1180303	-14.20475	-0.01636261	0	0
36.69295	-0.05691216	0.3601404	0.4092317	0.1519488	-12.35075	1.023663	0	0
36.70963	-0.04625645	0.3637842	0.6386212	0.2183785	6.946182	2.011567	0	0
36.72608	-0.04150247	0.3655883	0.2890138	0.1096812	-10.55117	-3.280491	0	0
36.74265	-0.0382445	0.3663028	0.1966515	0.04312795	-2.797483	-2.015775	0	0
36.75922	-0.03661521	0.3657312	0.09834432	-0.03450236	-2.966918	-2.342887	0	0
36.77578	-0.03653637	0.3657848	0.004758915	0.003234371	-2.824413	1.138897	0	0
36.79235	-0.0357742	0.3655883	0.04600412	-0.01185996	1.244783	-0.4555479	0	0
36.80892	-0.03130556	0.363159	0.269728	-0.1466332	6.752	-4.067465	0	0
36.82549	-0.0247318	0.360837	0.396793	-0.1401573	3.834829	0.1954443	0	0
36.84224	-0.01370967	0.3611049	0.6580245	0.01599508	7.840653	4.686788	0	0
36.85862	-0.003394724	0.3626053	0.6295694	0.0915745	-0.8587778	2.280992	0	0
36.87526	0.006763055	0.3652847	0.6105941	0.1610582	-0.5746592	2.104291	0	0
36.89177	0.00994704	0.3675176	0.1928518	0.1352476	-12.60314	-0.7786983	0	0
36.90831	0.01249935	0.369179	0.1542352	0.1003973	-1.16814	-1.054211	0	0
36.92488	0.01463053	0.3705189	0.1286386	0.08087727	-0.7729529	-0.5894545	0	0
36.94145	0.01557769	0.3698757	0.05717022	-0.03882145	-2.15692	-3.612515	0	0
36.95831	0.02070757	0.3667137	0.3042459	-0.1875336	7.391238	-4.448704	0	0
36.99115	0.03422347	0.3576757	0.4116071	-0.27524	2.160277	-1.764791	0	0
37.00784	0.04084569	0.3532823	0.3966129	-0.2631261	-0.3027075	0.2445568	0	0
37.02436	0.04911835	0.3478713	0.5009538	-0.3276666	3.141781	-1.943361	0	0
37.04087	0.0548397	0.3444426	0.3465378	-0.2076703	-4.675896	3.633629	0	0
37.05741	0.06139642	0.3422998	0.3963124	-0.1295232	1.505841	2.364198	0	0
37.07398	0.0715618	0.3425855	0.6135832	0.01724578	6.56178	4.432559	0	0
