Time	Pos X	Pos Y	Vel X	Vel Y	Acc X	Acc YForce X	Force Y
0.01681464	-0.1238886	0.3020408	0.001833626	-0.004470387	-2.714543E-05	6.618066E-05	0	0
0.102954	-0.1239145	0.3020587	-0.0003009144	0.0002072408	3.163282E-05	-6.93201E-05	0	0
0.1195215	-0.1239145	0.3020587	0	0	0.002929836	-0.002017789	0	0
0.1564127	-0.1239145	0.3020587	0	0	0	0	0	0
0.1728547	-0.1239145	0.3020587	0	0	0	0	0	0
0.1894352	-0.1239145	0.3020587	0	0	0	0	0	0
0.2059877	-0.1239145	0.3020587	0	0	0	0	0	0
0.2225549	-0.1239404	0.3020766	-0.001564129	0.00107933	-0.04722661	0.03258881	0	0
0.2391208	-0.1239404	0.3020766	0	0	0.04720747	-0.0325756	0	0
0.2556883	-0.1239404	0.3020766	0	0	0	0	0	0
0.2722551	-0.1239404	0.3020766	0	0	0	0	0	0
0.288821	-0.1239404	0.3020766	0	0	0	0	0	0
0.3053877	-0.1239404	0.3020766	0	0	0	0	0	0
0.3219545	-0.1239404	0.3020766	0	0	0	0	0	0
0.3385208	-0.1239404	0.3020766	0	0	0	0	0	0
0.3550871	-0.1239404	0.3020766	0	0	0	0	0	0
0.3716543	-0.1239145	0.3020587	0.001564127	-0.001079329	0.04720686	-0.03257518	0	0
0.388221	-0.1239145	0.3020587	0	0	-0.04720631	0.0325748	0	0
0.4047873	-0.1238886	0.3020408	0.001564653	-0.001077582	0.04722332	-0.03252288	0	0
0.4213545	-0.1238886	0.3020408	0	0	-0.04722273	0.03252247	0	0
0.4379212	-0.1238886	0.3020408	0	0	0	0	0	0
0.4544875	-0.1238886	0.3020408	0	0	0	0	0	0
0.4710539	-0.1238886	0.3020408	0	0	0	0	0	0
0.4876206	-0.1238886	0.3020408	0	0	0	0	0	0
0.5041877	-0.1238886	0.3020408	0	0	0	0	0	0
0.5207545	-0.1238886	0.3020408	0	0	0	0	0	0
0.5373208	-0.1238886	0.3020408	0	0	0	0	0	0
0.5538875	-0.1238886	0.3020408	0	0	0	0	0	0
0.5704539	-0.1238886	0.3020408	0	0	0	0	0	0
0.5872164	-0.1238886	0.3020408	0	0	0	0	0	0
0.6035877	-0.1238886	0.3020408	0	0	0	0	0	0
0.6201549	-0.1239145	0.3020587	-0.00156458	0.001077532	-0.04750015	0.03271353	0	0
0.636754	-0.1239145	0.3020587	0	0	0.04717389	-0.03248883	0	0
0.6533093	-0.1239145	0.3020587	0	0	0	0	0	0
0.6698543	-0.1239145	0.3020587	0	0	0	0	0	0
0.6867877	-0.1239145	0.3020587	0	0	0	0	0	0
0.7205334	-0.1239145	0.3020587	0	0	0	0	0	0
0.7370998	-0.1239145	0.3020587	0	0	0	0	0	0
0.7536665	-0.1239145	0.3020587	0	0	0	0	0	0
0.7703465	-0.1239145	0.3020587	0	0	0	0	0	0
0.7868	-0.1239145	0.3020587	0	0	0	0	0	0
0.8033695	-0.1239145	0.3020587	0	0	0	0	0	0
0.8199326	-0.1239145	0.3020587	0	0	0	0	0	0
0.8364998	-0.1239145	0.3020587	0	0	0	0	0	0
0.8530673	-0.1239145	0.3020587	0	0	0	0	0	0
0.8696336	-0.1239145	0.3020587	0	0	0	0	0	0
0.8862031	-0.1239145	0.3020587	0	0	0	0	0	0
0.9027687	-0.1239145	0.3020587	0	0	0	0	0	0
0.9193354	-0.1238886	0.3020408	0.001564614	-0.001077555	0.0472232	-0.03252279	0	0
0.9856028	-0.1239145	0.3020587	-0.0003911513	0.0002693874	-0.02361062	0.01626072	0	0
1.002169	-0.1239145	0.3020587	0	0	0.004722127	-0.003252147	0	0
1.018736	-0.1239145	0.3020587	0	0	0	0	0	0
1.035302	-0.1239145	0.3020587	0	0	0	0	0	0
1.051869	-0.1239145	0.3020587	0	0	0	0	0	0
1.068436	-0.1238886	0.3020408	0.001564614	-0.001077555	0.0472215	-0.03252162	0	0
1.085003	-0.1238886	0.3020408	0	0	-0.0472215	0.03252162	0	0
1.101592	-0.1238886	0.3020408	0	0	0	0	0	0
1.118136	-0.1238886	0.3020051	0	-0.002159893	0	-0.06518759	0	0
1.134702	-0.1239145	0.3019515	-0.001564648	-0.003236333	-0.04725567	-0.03251077	0	0
1.15127	-0.1239404	0.3018622	-0.00156413	-0.005393056	1.561409E-05	-0.0650919	0	0
1.167836	-0.1240441	0.3017549	-0.006256791	-0.006472667	-0.1416289	-0.03258365	0	0
1.184403	-0.1241736	0.3016298	-0.007820371	-0.007550082	-0.04719079	-0.03251775	0	0
1.201156	-0.1246141	0.3012903	-0.02629227	-0.02026676	-0.5543755	-0.3816508	0	0
1.217537	-0.1287833	0.2984488	-0.2545225	-0.1734712	-6.888127	-4.623802	0	0
1.234185	-0.1328446	0.2956427	-0.2439484	-0.1685541	0.320151	0.1488745	0	0
1.250669	-0.1395863	0.290977	-0.408972	-0.2830319	-4.98069	-3.455135	0	0
1.267236	-0.1485811	0.2847008	-0.5429304	-0.3788361	-4.052991	-2.898614	0	0
1.283803	-0.1533651	0.2814099	-0.2887722	-0.1986461	7.670647	5.438243	0	0
1.300367	-0.1623223	0.2750946	-0.5407515	-0.3812576	-7.605515	-5.511779	0	0
1.316935	-0.1687994	0.2704952	-0.3909382	-0.2776079	4.521665	3.128356	0	0
1.333504	-0.1803351	0.2621518	-0.6962568	-0.5035759	-9.214036	-6.819361	0	0
1.35007	-0.1873555	0.2571361	-0.4237848	-0.3027723	8.223282	6.060309	0	0
1.366773	-0.1946106	0.2519392	-0.4343482	-0.3111288	-0.3175131	-0.2511789	0	0
1.383284	-0.1995202	0.2484255	-0.297342	-0.2128036	4.124852	2.960283	0	0
1.417309	-0.2155712	0.2369983	-0.4717439	-0.3358473	-3.451024	-2.434761	0	0
1.433842	-0.2233674	0.2314148	-0.4715526	-0.3377208	0.003785565	-0.03705634	0	0
1.450409	-0.2293151	0.2271396	-0.3590148	-0.2580547	3.399944	2.40684	0	0
1.467344	-0.2369131	0.2215502	-0.4486541	-0.3300492	-2.675661	-2.14898	0	0
1.48386	-0.2422523	0.2171086	-0.3232822	-0.2689307	3.747946	1.827116	0	0
1.500362	-0.2443842	0.2089746	-0.1291817	-0.4928981	5.878586	-6.783145	0	0
1.516674	-0.2436655	0.2044543	0.0440559	-0.2771306	5.279433	6.575539	0	0
1.53324	-0.2424508	0.1975877	0.07332841	-0.4144899	0.8903457	-4.17789	0	0
1.549807	-0.2398452	0.192808	0.1572772	-0.2885087	2.533679	3.802273	0	0
1.566409	-0.2383548	0.1868516	0.08977181	-0.3587803	-2.035215	-2.118614	0	0
1.58294	-0.231909	0.1809081	0.3899181	-0.3595285	9.058791	-0.02258123	0	0
1.599507	-0.2277423	0.1779254	0.2515075	-0.1800417	-4.181844	5.422893	0	0
1.616073	-0.2257684	0.1764969	0.1191463	-0.0862296	-3.994784	2.831335	0	0
1.63264	-0.2229169	0.1744349	0.1721237	-0.1244666	1.598907	-1.154029	0	0
1.649207	-0.2223161	0.1740007	0.0362645	-0.02620852	-4.100357	2.965521	0	0
1.665979	-0.2223161	0.1740007	0	0	-1.087757	0.7861269	0	0
1.68234	-0.2223161	0.1740007	0	0	0	0	0	0
1.698907	-0.222266	0.1739645	0.003023026	-0.002184745	0.09180652	-0.06634871	0	0
1.715474	-0.222216	0.1739283	0.003022257	-0.00218394	-2.321033E-05	2.429952E-05	0	0
1.73204	-0.2221909	0.1739102	0.001511128	-0.00109197	-0.04560824	0.03295738	0	0
1.748607	-0.2221659	0.1738921	0.001511963	-0.001091923	2.51779E-05	1.422977E-06	0	0
1.765174	-0.2220908	0.1738378	0.004534187	-0.003276739	0.09121255	-0.06593907	0	0
1.782063	-0.2220407	0.1738017	0.00296449	-0.002142197	-0.0469183	0.03391152	0	0
1.798307	-0.2219906	0.1737655	0.003083192	-0.00222731	0.003582601	-0.002568844	0	0
1.814874	-0.2219656	0.1737474	0.001511995	-0.001092846	-0.04788691	0.03457619	0	0
1.83144	-0.2219656	0.1737474	0	0	-0.04563342	0.03298311	0	0
1.88114	-0.2219656	0.1737474	0	0	0	0	0	0
1.897707	-0.2219656	0.1737474	0	0	0	0	0	0
1.914274	-0.2219405	0.1737293	0.001511096	-0.001091947	0.04560627	-0.03295596	0	0
1.930841	-0.2219405	0.1737293	0	0	-0.04560578	0.03295561	0	0
1.94741	-0.2219405	0.1737293	0	0	0	0	0	0
1.964193	-0.2219155	0.1737112	0.001491657	-0.0010779	0.04472449	-0.03231877	0	0
1.980703	-0.2218905	0.1736931	0.001517236	-0.001095731	0.0007682979	-0.0005355944	0	0
1.997215	-0.2218404	0.1736569	0.003032999	-0.002191051	0.0459014	-0.03316923	0	0
2.074272	-0.221615	0.1734579	0.002924867	-0.002582971	-0.001155646	-0.004188566	0	0
2.090472	-0.2214397	0.1733312	0.01082214	-0.007817213	0.0846826	-0.05612688	0	0
2.1073	-0.2207132	0.1728065	0.04317087	-0.03118359	0.9794228	-0.7074638	0	0
2.123605	-0.2169268	0.1700736	0.2322187	-0.1676095	5.705721	-4.117519	0	0
2.158966	-0.1992168	0.1573341	0.5008411	-0.3602719	5.199209	-3.728996	0	0
2.175531	-0.1914929	0.1517624	0.4662722	-0.3363561	-0.6657395	0.4605765	0	0
2.192098	-0.1782968	0.1422943	0.7965161	-0.5714952	9.967427	-7.096972	0	0
2.208864	-0.1731691	0.1386372	0.3058431	-0.2181225	-14.7202	10.60119	0	0
2.225379	-0.1639621	0.1320446	0.5575147	-0.3992065	7.562161	-5.441164	0	0
2.2418	-0.1592967	0.128727	0.2841116	-0.2020345	-8.301196	5.986632	0	0
2.258366	-0.1527225	0.1240203	0.3968471	-0.2841149	3.41756	-2.488256	0	0
2.291512	-0.140154	0.1151423	0.3791872	-0.2678452	-0.3552435	0.3272804	0	0
2.308065	-0.1378569	0.1134782	0.1387711	-0.1005298	-4.837415	3.366554	0	0
2.324632	-0.1334909	0.1104228	0.263532	-0.1844244	3.766865	-2.533002	0	0
2.3412	-0.1317585	0.1091599	0.1045639	-0.07623348	-4.797667	3.265208	0	0
2.357765	-0.1295855	0.1076219	0.131179	-0.0928455	0.8032975	-0.5013841	0	0
2.374488	-0.1295855	0.1076219	0	0	-3.940673	2.789118	0	0
2.390899	-0.1296114	0.1076402	-0.001576256	0.001115909	-0.04757116	0.03367797	0	0
2.407467	-0.1295855	0.1076219	0.001561398	-0.001105391	0.09514163	-0.06735545	0	0
2.424032	-0.1296114	0.1076402	-0.001561645	0.001105566	-0.09425975	0.06673113	0	0
2.440598	-0.1295855	0.1076219	0.001561466	-0.001105438	0.09426382	-0.066734	0	0
2.457166	-0.1295855	0.1076219	0	0	-0.04712547	0.03336244	0	0
2.473732	-0.1296114	0.1076402	-0.001561511	0.00110547	-0.0471275	0.03336388	0	0
2.490299	-0.1296114	0.1076402	0	0	0.0471292	-0.03336508	0	0
2.506866	-0.1296114	0.1076402	0	0	0	0	0	0
2.523433	-0.1296114	0.1076402	0	0	0	0	0	0
2.539998	-0.1296114	0.1076402	0	0	0	0	0	0
2.556565	-0.1296114	0.1076402	0	0	0	0	0	0
2.573133	-0.1296114	0.1076402	0	0	0	0	0	0
2.589699	-0.1296114	0.1076402	0	0	0	0	0	0
2.606266	-0.1296114	0.1076402	0	0	0	0	0	0
2.622832	-0.1296114	0.1076402	0	0	0	0	0	0
2.672531	-0.1296114	0.1076402	0	0	0	0	0	0
2.722232	-0.1296373	0.1076219	-0.0005207859	-0.0003684777	-0.005239292	-0.003707018	0	0
2.738799	-0.1296373	0.1076219	0	0	0.007858872	0.00556048	0	0
2.755365	-0.1296114	0.1076036	0.001562433	-0.001105036	0.04715668	-0.03335175	0	0
2.771931	-0.1296114	0.1076036	0	0	-0.04715668	0.03335175	0	0
2.788498	-0.1296114	0.1076036	0	0	0	0	0	0
2.805064	-0.1296373	0.1075852	-0.001562365	-0.001105438	-0.04715431	-0.03336364	0	0
2.839607	-0.1296373	0.1075852	0	0	0.03056937	0.02162911	0	0
2.856324	-0.1296373	0.1075852	0	0	0	0	0	0
2.872835	-0.1296632	0.1075669	-0.001566697	-0.001109142	-0.04714865	-0.03337885	0	0
2.889306	-0.1296632	0.1075669	0	0	0.04750106	0.03362834	0	0
2.905874	-0.1296632	0.1075669	0	0	0	0	0	0
2.922871	-0.1296632	0.1075669	0	0	0	0	0	0
2.93901	-0.1296632	0.1075669	0	0	0	0	0	0
2.955574	-0.1296632	0.1075669	0	0	0	0	0	0
2.972139	-0.1296632	0.1075669	0	0	0	0	0	0
2.988706	-0.1296632	0.1075669	0	0	0	0	0	0
3.005438	-0.1296632	0.1075669	0	0	0	0	0	0
3.021944	-0.1296632	0.1075669	0	0	0	0	0	0
3.038451	-0.1296632	0.1075669	0	0	0	0	0	0
3.054973	-0.1296632	0.1075669	0	0	0	0	0	0
3.071539	-0.1296632	0.1075669	0	0	0	0	0	0
3.088106	-0.129689	0.1075486	-0.00156241	-0.00110547	-0.04715566	-0.0333646	0	0
3.104672	-0.129689	0.1075486	0	0	0.04715566	0.0333646	0	0
3.121239	-0.129896	0.1072922	-0.01249442	-0.01547569	-0.3770933	-0.4670707	0	0
3.138022	-0.1316034	0.1056437	-0.1017312	-0.09822672	-2.675804	-2.481326	0	0
3.154532	-0.1390959	0.09625439	-0.4538274	-0.5687137	-10.57583	-14.13191	0	0
3.170939	-0.1404894	0.09276515	-0.08492905	-0.2126641	11.20692	10.81658	0	0
3.187507	-0.1473711	0.07057107	-0.415353	-1.339541	-10.02023	-34.17297	0	0
3.204074	-0.1493274	0.06010561	-0.1180892	-0.6317329	8.971373	21.36154	0	0
3.220639	-0.1498935	0.05376869	-0.03417309	-0.3825466	2.532831	7.521161	0	0
3.23759	-0.1531595	0.04201252	-0.1926671	-0.6935255	-4.728848	-9.278409	0	0
3.254102	-0.1556004	0.03875596	-0.1478235	-0.1972217	1.340075	14.83121	0	0
3.270339	-0.159861	0.03570153	-0.2624022	-0.1881156	-3.498673	0.2780572	0	0
3.287144	-0.1647048	0.03217833	-0.2882345	-0.2096493	-0.7817991	-0.6517053	0	0
3.303472	-0.1654474	0.03160014	-0.04547777	-0.03541178	7.32673	5.258727	0	0
3.320039	-0.1654474	0.03160014	0	0	1.38255	1.076538	0	0
3.33666	-0.1654474	0.03160014	0	0	0	0	0	0
3.353172	-0.1654474	0.03160014	0	0	0	0	0	0
3.369739	-0.1654474	0.03160014	0	0	0	0	0	0
3.386695	-0.1654474	0.03160014	0	0	0	0	0	0
3.403207	-0.1654474	0.03160014	0	0	0	0	0	0
3.419439	-0.1654474	0.03160014	0	0	0	0	0	0
3.535406	-0.1654474	0.03160014	0	0	0	0	0	0
3.552313	-0.1654474	0.03160014	0	0	0	0	0	0
3.568539	-0.1654474	0.03160014	0	0	0	0	0	0
3.585337	-0.1654474	0.03160014	0	0	0	0	0	0
3.620188	-0.1654474	0.03160014	0	0	0	0	0	0
3.636874	-0.1654474	0.03160014	0	0	0	0	0	0
3.653385	-0.1654474	0.03160014	0	0	0	0	0	0
3.669888	-0.1654474	0.03160014	0	0	0	0	0	0
3.686455	-0.1654474	0.03160014	0	0	0	0	0	0
3.703021	-0.1654474	0.03160014	0	0	0	0	0	0
3.719588	-0.1654474	0.03160014	0	0	0	0	0	0
3.736444	-0.1654474	0.03160014	0	0	0	0	0	0
3.752722	-0.1654474	0.03160014	0	0	0	0	0	0
3.769288	-0.1654474	0.03160014	0	0	0	0	0	0
3.785978	-0.1654474	0.03160014	0	0	0	0	0	0
3.802491	-0.1654474	0.03160014	0	0	0	0	0	0
3.818988	-0.1654474	0.03163744	0	0.002261338	0	0.06850561	0	0
3.835555	-0.165473	0.0316934	-0.001545231	0.003377607	-0.04673436	0.03376072	0	0
3.852122	-0.1654986	0.03182397	-0.001545231	0.007881082	0	0.1359151	0	0
3.868688	-0.1655242	0.03202913	-0.001545342	0.01238477	-3.355438E-06	0.1359266	0	0
3.885256	-0.165473	0.03229024	0.003090462	0.01576014	0.1399139	0.1018724	0	0
3.901822	-0.1656522	0.03268186	-0.01081739	0.02364	-0.419755	0.2378232	0	0
3.918573	-0.165985	0.03337175	-0.01986611	0.04118416	-0.2715898	0.526574	0	0
3.934955	-0.1664713	0.0340988	-0.02968593	0.04438086	-0.2963714	0.09647919	0	0
3.951524	-0.1688505	0.03657714	-0.1435928	0.1495758	-3.456844	3.192456	0	0
3.96811	-0.1744455	0.04266349	-0.3373467	0.3669714	-5.843973	6.557049	0	0
3.984656	-0.1770222	0.04695711	-0.1557241	0.2594916	5.481856	-3.244027	0	0
4.001224	-0.1810482	0.06190109	-0.2430044	0.9019945	-2.635757	19.40278	0	0
4.017791	-0.1815829	0.07396753	-0.03227266	0.7283322	6.359805	-5.241063	0	0
4.034356	-0.1806153	0.08671682	0.05841058	0.7696591	2.737022	1.247339	0	0
4.051168	-0.1794181	0.1034815	0.07120699	0.9971355	0.3833828	6.81523	0	0
4.06749	-0.1782204	0.1159468	0.07338382	0.7637506	0.06569754	-7.04367	0	0
4.084191	-0.1764866	0.1314614	0.1038116	0.9289534	0.9214274	5.002749	0	0
4.100703	-0.1756959	0.139165	0.04788887	0.4665327	-1.683728	-13.92262	0	0
4.117189	-0.1748794	0.1511631	0.04952602	0.7277696	0.04961265	7.916614	0	0
4.133756	-0.1738329	0.1636256	0.06316922	0.7522793	0.4127744	0.7415388	0	0
4.150322	-0.172786	0.1820647	0.06318989	1.113019	0.0006237857	10.88762	0	0
4.16689	-0.1719942	0.2027968	0.04779242	1.251389	-0.4647031	4.176062	0	0
4.183456	-0.1711	0.2245161	0.0539767	1.31102	0.1866445	1.799686	0	0
4.200022	-0.1705378	0.2353649	0.03393865	0.6548908	-0.6047845	-19.80314	0	0
4.216785	-0.1691318	0.2558639	0.08387737	1.222894	1.498377	17.04256	0	0
4.233298	-0.1669319	0.2750946	0.1332208	1.164585	1.482872	-1.752329	0	0
4.24981	-0.1652426	0.2840391	0.1023124	0.5417004	-0.9359151	-18.86111	0	0
4.26632	-0.1628092	0.3009686	0.1473809	1.025383	1.364784	14.64709	0	0
4.382257	-0.1455683	0.3402462	0.14871	0.338784	0.01003523	-5.18394	0	0
4.398823	-0.1455683	0.3402462	0	0	-1.122314	-2.556802	0	0
4.41539	-0.1455683	0.3402105	0	-0.00215511	0	-0.06504417	0	0
4.431957	-0.1455683	0.3402105	0	0	0	0.06504323	0	0
4.448527	-0.145594	0.3402283	-0.001554856	0.001077338	-0.04692227	0.03251179	0	0
4.481659	-0.145594	0.3402283	0	0	0.03128317	-0.02167567	0	0
4.498226	-0.1456198	0.3402462	-0.001555214	0.001077586	-0.03129277	0.02168233	0	0
4.514791	-0.145594	0.3402283	0.001555349	-0.001077679	0.09388643	-0.06505259	0	0
4.531508	-0.145594	0.3402283	0	0	-0.04673136	0.0323795	0	0
4.548021	-0.145594	0.3402283	0	0	0	0	0	0
4.56449	-0.145594	0.3401926	0	-0.002167902	0	-0.0657301	0	0
4.581057	-0.145594	0.3401926	0	0	0	0.06562384	0	0
4.597623	-0.1456198	0.3400319	-0.001555214	-0.009701874	-0.04693916	-0.29282	0	0
4.61419	-0.1456198	0.3397105	0	-0.01940083	0.04693781	-0.2927235	0	0
4.631078	-0.1453106	0.3389962	0.018306	-0.04229607	0.5471768	-0.6843518	0	0
4.647591	-0.1444603	0.3382283	0.05149586	-0.04650185	0.9936923	-0.1259194	0	0
4.66389	-0.1443057	0.338014	0.009486623	-0.01314615	-1.280296	1.016566	0	0
4.680614	-0.1443572	0.3379783	-0.003082053	-0.002134894	-0.3805996	0.3334385	0	0
4.697023	-0.1444603	0.3379069	-0.006282146	-0.00435337	-0.09658318	-0.06695662	0	0
4.71359	-0.1445634	0.3378355	-0.006222476	-0.00431202	0.001809485	0.00125393	0	0
4.730157	-0.1446407	0.3377819	-0.004666408	-0.003234464	0.0469636	0.03252162	0	0
4.747163	-0.1446922	0.3377105	-0.003030016	-0.004198912	0.04874176	-0.02872716	0	0
4.76329	-0.144718	0.3376926	-0.001598442	-0.001106898	0.04320624	0.09331986	0	0
4.779857	-0.1447438	0.3376747	-0.001555169	-0.001079354	0.001323547	0.0008424623	0	0
4.796424	-0.1447695	0.3376926	-0.001555169	0.001079354	0	0.06515182	0	0
4.81299	-0.1447695	0.3376926	0	0	0.0469378	-0.03257685	0	0
4.829557	-0.1447695	0.3376926	0	0	0	0	0	0
4.846124	-0.1447695	0.3376926	0	0	0	0	0	0
4.86269	-0.1447695	0.3376926	0	0	0	0	0	0
4.879257	-0.1447695	0.3376926	0	0	0	0	0	0
4.895823	-0.1447695	0.3376926	0	0	0	0	0	0
4.91239	-0.1447953	0.3376747	-0.001555169	-0.001079354	-0.04693713	-0.03257638	0	0
4.928957	-0.1447953	0.3376747	0	0	0.04693646	0.03257591	0	0
4.945525	-0.1448211	0.3376569	-0.001555935	-0.001077462	-0.04695752	-0.0325174	0	0
4.96209	-0.1448211	0.3376569	0	0	0.04695955	0.03251881	0	0
4.999339	-0.1447953	0.337639	0.0006920797	-0.0004792552	0.0128606	-0.008905783	0	0
5.015854	-0.1448211	0.3376212	-0.001560966	-0.001080946	-0.04190669	-0.01119147	0	0
5.03234	-0.1448211	0.3376212	0	0	0.04730065	0.03275501	0	0
5.048908	-0.1448211	0.3375854	0	-0.002156785	0	-0.0652506	0	0
5.065474	-0.1448469	0.3375676	-0.001555259	-0.001077617	-0.04693916	0.0325703	0	0
5.08204	-0.1448211	0.3375497	0.001555214	-0.001077586	0.09388102	9.346373E-07	0	0
5.098607	-0.1448211	0.3375497	0	0	-0.04693848	0.03252302	0	0
5.115173	-0.1448211	0.3375497	0	0	0	0	0	0
5.13174	-0.1448211	0.3375497	0	0	0	0	0	0
5.148307	-0.1448211	0.337514	0	-0.00215511	0	-0.06504323	0	0
5.164874	-0.1448211	0.337514	0	0	0	0.06504323	0	0
5.181468	-0.1448211	0.337514	0	0	0	0	0	0
5.198007	-0.1448211	0.337514	0	0	0	0	0	0
5.214573	-0.1448211	0.337514	0	0	0	0	0	0
5.23114	-0.1448211	0.337514	0	0	0	0	0	0
5.247707	-0.1448211	0.337514	0	0	0	0	0	0
5.264526	-0.1448211	0.337514	0	0	0	0	0	0
5.28084	-0.1448211	0.337514	0	0	0	0	0	0
5.297407	-0.1448211	0.337514	0	0	0	0	0	0
5.313973	-0.1448211	0.337514	0	0	0	0	0	0
5.330573	-0.1448211	0.337514	0	0	0	0	0	0
5.347106	-0.1448469	0.3374962	-0.001558309	-0.001081533	-0.04703122	-0.03264168	0	0
5.363674	-0.1448469	0.3374962	0	0	0.04707796	0.03267412	0	0
5.39712	-0.1448469	0.3374962	0	0	0	0	0	0
5.413373	-0.1448211	0.3374783	0.001585191	-0.001098357	0.03189564	-0.02210005	0	0
5.430143	-0.1448211	0.3374783	0	0	-0.04800282	0.03326048	0	0
5.446507	-0.1448211	0.3374783	0	0	0	0	0	0
5.463166	-0.1448211	0.3374783	0	0	0	0	0	0
5.479677	-0.1448211	0.3374783	0	0	0	0	0	0
5.496207	-0.1448211	0.3374783	0	0	0	0	0	0
5.512773	-0.1448211	0.3374783	0	0	0	0	0	0
5.545907	-0.1448211	0.3374783	0	0	0	0	0	0
5.562737	-0.1448211	0.3374783	0	0	0	0	0	0
5.57904	-0.1448211	0.3374783	0	0	0	0	0	0
5.595761	-0.1448211	0.3374783	0	0	0	0	0	0
5.612272	-0.1448211	0.3374783	0	0	0	0	0	0
5.628784	-0.1448211	0.3374783	0	0	0	0	0	0
5.645307	-0.1448211	0.3374783	0	0	0	0	0	0
5.67844	-0.1448211	0.3374783	0	0	0	0	0	0
5.695006	-0.1448211	0.3374783	0	0	0	0	0	0
5.711573	-0.1448211	0.3374783	0	0	0	0	0	0
5.72814	-0.1448211	0.3374783	0	0	0	0	0	0
5.744864	-0.1448211	0.3374783	0	0	0	0	0	0
5.761376	-0.1448469	0.3374605	-0.001560379	-0.001081165	-0.0469491	-0.03253038	0	0
5.77784	-0.1448211	0.3374426	0.001564899	-0.001084296	0.09477662	-9.496044E-05	0	0
5.794406	-0.1448211	0.3374426	0	0	-0.04737737	0.03282712	0	0
5.810974	-0.1448469	0.3374248	-0.001555125	-0.001077524	-0.04693443	-0.03252021	0	0
5.82754	-0.1448211	0.3374069	0.001555214	-0.001077586	0.09387292	-1.872707E-06	0	0
5.844107	-0.1448469	0.337389	-0.001555169	-0.001079354	-0.09387562	-5.335712E-05	0	0
5.860674	-0.1448211	0.3373712	0.00155508	-0.001077493	0.0938675	5.616204E-05	0	0
5.87724	-0.1448469	0.3373533	-0.001555304	-0.001077648	-0.09387562	-4.680079E-06	0	0
5.893807	-0.1448469	0.3373533	0	0	0.04694186	0.03252536	0	0
5.910373	-0.1448469	0.3373533	0	0	0	0	0	0
5.926939	-0.1448469	0.3373533	0	0	0	0	0	0
5.943507	-0.1448469	0.3373533	0	0	0	0	0	0
5.960074	-0.1448469	0.3373533	0	0	0	0	0	0
5.97664	-0.1448469	0.3373533	0	0	0	0	0	0
5.993207	-0.1448469	0.3373533	0	0	0	0	0	0
6.009773	-0.1448469	0.3373533	0	0	0	0	0	0
6.026564	-0.1448469	0.3373533	0	0	0	0	0	0
6.043077	-0.1448469	0.3373533	0	0	0	0	0	0
6.059588	-0.1448469	0.3373533	0	0	0	0	0	0
6.076099	-0.1448469	0.3373533	0	0	0	0	0	0
6.092609	-0.1448469	0.3373533	0	0	0	0	0	0
6.109173	-0.1448469	0.3373533	0	0	0	0	0	0
6.12574	-0.1448469	0.3373533	0	0	0	0	0	0
6.142307	-0.1448726	0.3373355	-0.001555169	-0.001077555	-0.04693646	-0.03252162	0	0
6.158874	-0.1449757	0.337264	-0.006221398	-0.004311895	-0.1408291	-0.09761399	0	0
6.17544	-0.1451303	0.3371569	-0.009332453	-0.006467503	-0.09389588	-0.06505916	0	0
6.192007	-0.1454137	0.3368176	-0.01710686	-0.02048074	-0.2346457	-0.4229448	0	0
6.208574	-0.1455425	0.3363355	-0.007774724	-0.02910215	0.2816486	-0.2601982	0	0
6.22514	-0.1502537	0.3321747	-0.2843856	-0.2511604	-8.348374	-6.701923	0	0
6.241707	-0.1564735	0.3243527	-0.375438	-0.4721473	-2.748086	-6.669686	0	0
6.261603	-0.1599636	0.3073834	-0.1754122	-0.8528795	5.485681	-10.44153	0	0
6.278171	-0.1610663	0.2931401	-0.06655544	-0.8596992	2.985304	-0.1870251	0	0
6.294753	-0.162963	0.2799431	-0.1143859	-0.7958892	-1.442883	1.924932	0	0
6.311304	-0.1653706	0.2658049	-0.1454618	-0.8541961	-0.9379126	-1.759781	0	0
6.327871	-0.1690806	0.2585156	-0.2239406	-0.4399807	-2.369621	12.50699	0	0
6.344438	-0.1719176	0.2547709	-0.171249	-0.2260448	1.590284	6.456781	0	0
6.361004	-0.1809718	0.2476545	-0.546544	-0.429571	-11.32708	-6.142785	0	0
6.377812	-0.1864409	0.2437628	-0.325375	-0.231531	6.62683	5.93382	0	0
6.394137	-0.1937745	0.2385777	-0.4492424	-0.3176254	-3.738487	-2.598447	0	0
6.410704	-0.1978004	0.2357239	-0.2430076	-0.1722613	6.270198	4.419535	0	0
6.427356	-0.2055047	0.2302474	-0.4626491	-0.3288699	-6.611856	-4.714381	0	0
6.443837	-0.2113485	0.2260076	-0.3545919	-0.2572578	3.261312	2.161352	0	0
6.46087	-0.2174788	0.2215862	-0.3598964	-0.2595722	-0.1582757	-0.06905732	0	0
6.47697	-0.2263183	0.2152378	-0.5490543	-0.394325	-5.709043	-4.067022	0	0
6.493537	-0.2326566	0.2106669	-0.3825805	-0.275901	5.096134	3.62522	0	0
6.510103	-0.2385287	0.2064536	-0.3544629	-0.2543256	0.8486143	0.6511663	0	0
6.526917	-0.2460681	0.2009767	-0.4483943	-0.3257331	-2.813961	-2.139196	0	0
6.543237	-0.2509387	0.1974615	-0.2984565	-0.2154035	4.525263	3.32985	0	0
6.559803	-0.2550088	0.1945218	-0.2456861	-0.1774464	1.604669	1.154217	0	0
6.57637	-0.2606188	0.1905163	-0.3386258	-0.2417834	-2.805047	-1.941778	0	0
6.592937	-0.2633439	0.1885488	-0.1644918	-0.1187622	5.255526	3.712893	0	0
6.609503	-0.2692223	0.1843231	-0.3548341	-0.2550703	-5.744708	-4.113904	0	0
6.62607	-0.2711776	0.1829139	-0.118022	-0.0850576	7.14721	5.13114	0	0
6.642637	-0.2730087	0.1815587	-0.1105313	-0.08180335	0.2260768	0.09821628	0	0
6.659203	-0.2730331	0.1815768	-0.001473361	0.001091079	3.291516	2.501867	0	0
6.67577	-0.2730331	0.1815768	0	0	0.04446804	-0.03293024	0	0
6.692337	-0.2730331	0.1815768	0	0	0	0	0	0
6.708903	-0.2730331	0.1815768	0	0	0	0	0	0
6.72547	-0.2730331	0.1815407	0	-0.002181195	0	-0.06583048	0	0
6.74207	-0.2730331	0.1815407	0	0	0	0.06576423	0	0
6.758603	-0.2730087	0.1815226	0.001476335	-0.001093281	0.04455781	-0.03299672	0	0
6.791737	-0.2729843	0.1814684	0.0007366592	-0.001636571	-0.01489289	-0.01093877	0	0
6.808616	-0.2729355	0.1814322	0.002892031	-0.002140774	0.04309617	-0.01008143	0	0
6.82487	-0.2729111	0.1814142	0.001499839	-0.001112044	-0.04201765	0.03104801	0	0
6.841644	-0.2729111	0.181378	0	-0.002154223	-0.04541095	-0.03155428	0	0
6.858005	-0.2728623	0.1813419	0.002983824	-0.002209633	0.09005199	-0.001672269	0	0
6.895399	-0.272667	0.1810527	0.005221749	-0.007732604	0.0416321	-0.1027438	0	0
6.911966	-0.2724718	0.1807635	0.01178621	-0.01745445	0.1216502	-0.1801618	0	0
6.928533	-0.2721544	0.1802755	0.01915494	-0.02945647	0.2223919	-0.3622269	0	0
6.945101	-0.2716172	0.1772745	0.0324246	-0.1811342	0.4004733	-4.577576	0	0
6.961667	-0.2764705	0.1720826	-0.2929716	-0.3134067	-9.820617	-3.992051	0	0
6.978233	-0.2828884	0.1657092	-0.3874205	-0.3847336	-2.85072	-2.152837	0	0
6.9948	-0.2873717	0.1580779	-0.2706079	-0.4606308	3.525563	-2.29068	0	0
7.01176	-0.2887506	0.1553746	-0.08130606	-0.1593902	5.646267	8.985044	0	0
7.027933	-0.2960135	0.1400203	-0.4490683	-0.9493623	-11.09957	-23.84243	0	0
7.0445	-0.2988281	0.1326824	-0.1698903	-0.44293	8.527092	15.46825	0	0
7.061067	-0.3020216	0.1231442	-0.1927654	-0.5757419	-0.6903918	-4.008385	0	0
7.077633	-0.3056156	0.1177014	-0.216951	-0.3285451	-0.7299539	7.460737	0	0
7.0942	-0.3101087	0.1104594	-0.2712093	-0.4371389	-1.637589	-3.277509	0	0
7.110767	-0.31123	0.1088303	-0.0676788	-0.09833024	6.142562	10.22526	0	0
7.16047	-0.3275734	0.09447338	-0.3288207	-0.2888542	-3.940526	-2.87493	0	0
7.177033	-0.3300248	0.09252632	-0.1480124	-0.1175586	2.72854	2.584986	0	0
7.1936	-0.3350563	0.08855609	-0.3036981	-0.2396434	-4.699281	-3.685057	0	0
7.210182	-0.3353379	0.08815151	-0.01698239	-0.02439836	8.64924	6.493212	0	0
7.226911	-0.3353379	0.08815151	0	0	0.5098149	0.732444	0	0
7.243424	-0.335244	0.08807795	0.005683295	-0.004454682	0.1709686	-0.1340086	0	0
7.25987	-0.3351502	0.08800439	0.005708176	-0.004473217	0.0007549145	-0.0005623712	0	0
7.276433	-0.3349859	0.08787565	0.009919464	-0.007772466	0.1275779	-0.09994838	0	0
7.292999	-0.3349624	0.08785725	0.001415834	-0.001110449	-0.2566807	0.2010919	0	0
7.309566	-0.3349624	0.08785725	0	0	-0.04273243	0.03351536	0	0
7.326133	-0.3349624	0.08785725	0	0	0	0	0	0
7.3427	-0.3349624	0.08785725	0	0	0	0	0	0
7.359266	-0.3349624	0.08785725	0	0	0	0	0	0
7.376017	-0.3349624	0.08785725	0	0	0	0	0	0
7.392399	-0.3349624	0.08785725	0	0	0	0	0	0
7.408966	-0.3349624	0.08785725	0	0	0	0	0	0
7.425552	-0.3349624	0.08785725	0	0	0	0	0	0
7.4421	-0.3349624	0.08785725	0	0	0	0	0	0
7.458666	-0.3349624	0.08785725	0	0	0	0	0	0
7.475233	-0.3349624	0.08785725	0	0	0	0	0	0
7.491799	-0.3349624	0.08785725	0	0	0	0	0	0
7.527124	-0.3349624	0.08785725	0	0	0	0	0	0
7.543499	-0.3349624	0.08785725	0	0	0	0	0	0
7.560061	-0.3349624	0.08785725	0	0	0	0	0	0
7.576659	-0.3349389	0.08783887	0.001414823	-0.001107799	0.0426663	-0.03340749	0	0
7.593194	-0.3349389	0.08783887	0	0	-0.04270068	0.03343442	0	0
7.60976	-0.3349155	0.08782047	0.001415834	-0.001110449	0.04277367	-0.03354771	0	0
7.626327	-0.3349155	0.08782047	0	0	-0.04273181	0.03351488	0	0
7.642893	-0.3349155	0.08782047	0	0	0	0	0	0
7.659461	-0.3349155	0.08782047	0	0	0	0	0	0
7.676027	-0.3349155	0.08782047	0	0	0	0	0	0
7.692741	-0.3349155	0.08782047	0	0	0	0	0	0
7.709253	-0.3349155	0.08782047	0	0	0	0	0	0
7.725727	-0.3349155	0.08782047	0	0	0	0	0	0
7.742776	-0.3349155	0.08782047	0	0	0	0	0	0
7.75886	-0.3349155	0.08782047	0	0	0	0	0	0
7.775426	-0.3349155	0.08782047	0	0	0	0	0	0
7.791993	-0.3349155	0.08782047	0	0	0	0	0	0
7.808559	-0.3349155	0.08782047	0	0	0	0	0	0
7.825126	-0.3349155	0.08782047	0	0	0	0	0	0
7.841693	-0.3349155	0.08782047	0	0	0	0	0	0
7.85826	-0.3349155	0.08782047	0	0	0	0	0	0
7.874826	-0.3349155	0.08782047	0	0	0	0	0	0
7.891393	-0.3349155	0.08782047	0	0	0	0	0	0
7.90796	-0.3349155	0.08782047	0	0	0	0	0	0
7.924527	-0.3349155	0.08782047	0	0	0	0	0	0
7.941093	-0.3349155	0.08782047	0	0	0	0	0	0
7.957661	-0.3349155	0.08782047	0	0	0	0	0	0
7.974439	-0.3349155	0.08782047	0	0	0	0	0	0
7.990794	-0.3349155	0.08782047	0	0	0	0	0	0
8.00736	-0.3349155	0.08782047	0	0	0	0	0	0
8.023927	-0.3349155	0.08782047	0	0	0	0	0	0
8.073627	-0.3349389	0.08787565	-0.0004719221	0.001110246	-0.007121627	0.01675437	0	0
8.090193	-0.3350093	0.0879676	-0.004250979	0.005550738	-0.05702854	0.06701005	0	0
8.123432	-0.3340702	0.0891445	0.02825447	0.03540662	0.6526458	0.5994478	0	0
8.139998	-0.3339997	0.08971444	0.004252777	0.0344036	-0.4819071	-0.02013867	0	0
8.156568	-0.3337883	0.08984312	0.01275973	0.007766634	0.2567329	-0.8038822	0	0
8.173132	-0.3333889	0.09026593	0.02411264	0.025525	0.3426416	0.535964	0	0
8.189698	-0.3328954	0.09079897	0.02979103	0.03217602	0.1713938	0.2007513	0	0
8.206264	-0.3313432	0.09208535	0.09369603	0.07765097	1.928768	1.372516	0	0
8.222831	-0.3281159	0.09482229	0.194811	0.1652111	3.051832	2.642723	0	0
8.239397	-0.3231788	0.0989888	0.2980182	0.2515057	3.114979	2.604526	0	0
8.255965	-0.3145175	0.1075852	0.5227688	0.5188524	6.782985	8.068539	0	0
8.272533	-0.3082222	0.115636	0.379961	0.4859156	-4.3097	-0.9939768	0	0
8.289098	-0.3010618	0.1236918	0.4322806	0.486333	1.579098	0.01259553	0	0
8.305672	-0.2927118	0.1362888	0.5038049	0.7600535	2.158359	8.259951	0	0
8.322231	-0.2876863	0.1423306	0.3034799	0.3648524	-6.045993	-11.92754	0	0
8.338799	-0.274838	0.1523434	0.7755242	0.6043696	14.24961	7.230309	0	0
8.355366	-0.2652074	0.1596013	0.5813018	0.4380873	-5.861643	-5.01841	0	0
8.372221	-0.2544174	0.1700916	0.64016	0.6223805	1.761035	5.51405	0	0
8.388498	-0.2494566	0.1800948	0.3047662	0.6145464	-10.12279	-0.2364465	0	0
8.405065	-0.2459196	0.1944497	0.2135042	0.8665115	-2.778687	7.671668	0	0
8.421633	-0.2445823	0.2059133	0.08071343	0.6919061	-4.007634	-5.269602	0	0
8.438198	-0.2437151	0.2132406	0.05235229	0.4423251	-0.8559654	-7.532586	0	0
8.454765	-0.2395224	0.2255943	0.2530743	0.7456755	6.05815	9.15566	0	0
8.471332	-0.232831	0.232977	0.403914	0.4456457	4.552485	-9.055177	0	0
8.4879	-0.2206882	0.2416281	0.7329018	0.5221474	9.928871	2.308823	0	0
8.504465	-0.2101155	0.2491785	0.638243	0.4557975	-2.85689	-2.0025	0	0
8.521031	-0.194408	0.2602532	0.9481616	0.6685082	9.354169	6.420177	0	0
8.537845	-0.1815065	0.2693138	0.7673391	0.5388967	-5.417165	-3.882961	0	0
8.554349	-0.1676995	0.2786729	0.8365686	0.5670721	2.077869	0.8456606	0	0
8.570733	-0.1497649	0.2909949	1.094634	0.7520645	7.846699	5.624851	0	0
8.587373	-0.1414955	0.2966615	0.4969696	0.3405494	-18.09797	-12.46115	0	0
8.603888	-0.1264014	0.3069546	0.9139709	0.6232658	12.57752	8.527244	0	0
8.620433	-0.1170935	0.3133324	0.5625739	0.3854743	-10.62905	-7.192709	0	0
8.636997	-0.1068026	0.3204057	0.6212671	0.427018	1.772694	1.254729	0	0
8.670131	-0.09904329	0.3257279	0.2341825	0.1606286	-7.788755	-5.360176	0	0
8.686697	-0.09182003	0.3307103	0.4360217	0.3007599	4.061168	2.819556	0	0
8.703263	-0.08257496	0.3370319	0.5580655	0.3815933	3.683503	2.439697	0	0
8.719964	-0.08071897	0.3383355	0.1111323	0.07805362	-13.43472	-9.124341	0	0
8.736476	-0.08009146	0.338764	0.03800347	0.02595623	-2.201835	-1.5686	0	0
8.752985	-0.08009146	0.338764	0	0	-1.150889	-0.7860529	0	0
8.769529	-0.08009146	0.338764	0	0	0	0	0	0
8.857034	-0.07959464	0.3375319	0.005677654	-0.01408098	0.05456726	-0.1353306	0	0
8.8736	-0.07972539	0.3373712	-0.007892555	-0.009701874	-0.1303942	0.04207816	0	0
8.890166	-0.07975154	0.3372462	-0.001578151	-0.007544903	0.19058	0.06510127	0	0
8.9071	-0.08001302	0.336639	-0.01544196	-0.03585584	-0.4138486	-0.8451096	0	0
8.923615	-0.08024835	0.3363355	-0.01424946	-0.0183815	0.03565237	0.5224294	0	0
8.945291	-0.08330674	0.3337461	-0.1410956	-0.119455	-3.321375	-2.646539	0	0
8.96483	-0.08283632	0.3334961	0.02407504	-0.01279498	4.007449	2.587838	0	0
8.982092	-0.08267951	0.333389	0.009084513	-0.006206837	-0.4073364	0.179019	0	0
9.00094	-0.08267951	0.333389	0	0	-0.2515794	0.1718873	0	0
9.020785	-0.08270565	0.3333711	-0.001317038	-0.0008995507	-0.03403778	-0.02324815	0	0
9.040075	-0.08270565	0.3333711	0	0	0.03365374	0.02298585	0	0
9.056961	-0.08267951	0.3333533	0.001547851	-0.001057198	0.042787	-0.02922396	0	0
9.073889	-0.08270565	0.3333354	-0.001544014	-0.001054577	-0.09143884	7.750584E-05	0	0
9.090787	-0.08267951	0.3333175	0.001546715	-0.001058186	0.09137175	-0.0001066863	0	0
9.107816	-0.0826011	0.3331569	0.004604544	-0.009436604	0.09012976	-0.2469545	0	0
9.124848	-0.08252269	0.332639	0.004603514	-0.03040488	-3.026808E-05	-0.6156018	0	0
9.142076	-0.08607626	0.3284959	-0.206277	-0.2404939	-6.155334	-6.132231	0	0
9.160006	-0.09302025	0.3236026	-0.3872824	-0.2729127	-5.14846	-0.9221103	0	0
9.178305	-0.1033671	0.3165119	-0.5654303	-0.3874883	-4.917254	-3.162526	0	0
9.196946	-0.1141334	0.3091164	-0.577545	-0.3967249	-0.3279527	-0.2500395	0	0
9.214801	-0.1220742	0.3036491	-0.444745	-0.3062123	3.638741	2.480058	0	0
9.232071	-0.1323016	0.2966257	-0.592203	-0.4066762	-4.198119	-2.860202	0	0
9.249817	-0.1393798	0.2919424	-0.3988657	-0.2639104	5.521388	4.077154	0	0
9.268417	-0.1469334	0.286954	-0.4060946	-0.2681854	-0.1988875	-0.1176188	0	0
9.286348	-0.1531595	0.2828766	-0.3472254	-0.2273977	1.611467	1.116509	0	0
9.304358	-0.1553692	0.2813741	-0.1226933	-0.08342269	6.24722	4.005857	0	0
9.322426	-0.1599636	0.2782078	-0.254292	-0.1752491	-3.647669	-2.545254	0	0
9.340092	-0.1614765	0.277188	-0.08563805	-0.05772747	4.719809	3.288861	0	0
9.356659	-0.1635522	0.2757745	-0.1252941	-0.08531868	-1.158413	-0.8059806	0	0
9.373225	-0.1679042	0.272804	-0.2626981	-0.1793111	-4.146978	-2.836777	0	0
9.389791	-0.1707167	0.2710501	-0.1697747	-0.1058733	2.804594	2.216484	0	0
9.406446	-0.1735521	0.269099	-0.1702501	-0.117153	-0.01431163	-0.3395441	0	0
9.422961	-0.1736031	0.2690274	-0.003091978	-0.004336168	5.039476	3.401198	0	0
9.439491	-0.1735776	0.2690095	0.0015442	-0.001081752	0.1402957	0.09848208	0	0
9.456059	-0.1735776	0.2690095	0	0	-0.04665643	0.03268401	0	0
9.473003	-0.1735776	0.2690095	0	0	0	0	0	0
9.489504	-0.1735776	0.2690095	0	0	0	0	0	0
9.584637	-0.1735521	0.2689916	0.0002684729	-0.0001882757	0.002404954	-0.001686555	0	0
9.601985	-0.1735521	0.2689916	0	0	-0.002386827	0.001673842	0	0
9.618596	-0.1735521	0.2689916	0	0	0	0	0	0
9.635118	-0.1735265	0.2689737	0.001544913	-0.001084055	0.04662692	-0.03271778	0	0
9.651686	-0.173501	0.2689558	0.001540734	-0.001079323	-0.0001263168	0.000143	0	0
9.668252	-0.1734755	0.2689379	0.001541722	-0.001081184	2.982629E-05	-5.617068E-05	0	0
9.684818	-0.1734499	0.26892	0.001540822	-0.001081184	-2.714977E-05	0	0	0
9.701653	-0.1734499	0.26892	0	0	-0.04613035	0.03236934	0	0
9.717952	-0.1734499	0.26892	0	0	0	0	0	0
9.734526	-0.1734499	0.26892	0	0	0	0	0	0
9.7677	-0.1734499	0.26892	0	0	0	0	0	0
9.785159	-0.1734499	0.26892	0	0	0	0	0	0
9.802558	-0.1734499	0.26892	0	0	0	0	0	0
9.819124	-0.1734499	0.26892	0	0	0	0	0	0
9.835691	-0.1734499	0.2689558	0	0.002162244	0	0.06525853	0	0
9.852259	-0.1734499	0.2689558	0	0	0	-0.06525666	0	0
9.868825	-0.1734499	0.2689916	0	0.002160569	0	0.06520799	0	0
9.885392	-0.1734244	0.2690095	0.001541633	0.001081122	0.04652792	-0.03257873	0	0
9.902334	-0.1734499	0.2690274	-0.001507529	0.001055446	-0.09099462	-0.000766232	0	0
9.918807	-0.1734499	0.2690274	0	0	0.04511555	-0.03158615	0	0
9.935679	-0.1734499	0.2690274	0	0	0	0	0	0
9.952247	-0.1734499	0.2690274	0	0	0	0	0	0
9.97117	-0.1734244	0.2690095	0.001349657	-0.0009449176	0.03802817	-0.02662415	0	0
9.987737	-0.1734244	0.2690095	0	0	-0.03802919	0.02662487	0	0
10.0043	-0.1734244	0.2690095	0	0	0	0	0	0
10.02138	-0.1733989	0.2689916	0.001494618	-0.001048763	0.04442236	-0.03117086	0	0
10.03744	-0.1733989	0.2689916	0	0	-0.04510767	0.03165174	0	0
10.054	-0.1733733	0.2689737	0.001541811	-0.001081246	0.0472638	-0.03314533	0	0
10.07057	-0.1733478	0.2689558	0.001540734	-0.001079323	-3.250453E-05	5.805209E-05	0	0
10.08743	-0.1732967	0.26892	0.003029869	-0.002125417	0.04455619	-0.03130003	0	0
10.10371	-0.1732201	0.2688663	0.004705532	-0.003298723	0.0505716	-0.03541043	0	0
10.12027	-0.173118	0.2687589	0.006165443	-0.00648388	0.04444786	-0.09697395	0	0
10.13684	-0.1730414	0.268741	0.004624266	-0.001079385	-0.04651684	0.1631221	0	0
10.15347	-0.1730414	0.268741	0	0	-0.139268	0.03250761	0	0
10.16997	-0.1730414	0.268741	0	0	0	0	0	0
10.18702	-0.1730414	0.268741	0	0	0	0	0	0
10.2031	-0.1730414	0.268741	0	0	0	0	0	0
10.22968	-0.1730669	0.2687589	-0.0009611416	0.0006729113	-0.0225299	0.01577356	0	0
10.24624	-0.1730669	0.2687589	0	0	0.02227938	-0.01559817	0	0
10.26281	-0.1730925	0.2687768	-0.001540822	0.001081184	-0.04650345	0.03263114	0	0
10.32697	-0.1731435	0.2688126	-0.0007961842	0.0005578864	0.009224522	-0.006482574	0	0
10.34725	-0.1731691	0.2688305	-0.001258256	0.0008829095	-0.00547193	0.003848976	0	0
10.36412	-0.1731691	0.2688305	0	0	0.03386666	-0.02376399	0	0
10.38039	-0.1731946	0.2688484	-0.001570103	0.001101088	-0.04738717	0.03323184	0	0
10.39695	-0.1732201	0.2688663	-0.001540822	0.001079385	0.0008918103	-0.0006609908	0	0
10.41365	-0.1732457	0.2688842	-0.001529309	0.001072479	0.0003461033	-0.0002076032	0	0
10.43017	-0.1732457	0.2688842	0	0	0.0460433	-0.03228941	0	0
10.44665	-0.1732457	0.2688842	0	0	0	0	0	0
10.46322	-0.1732457	0.2688842	0	0	0	0	0	0
10.47979	-0.1732457	0.2688842	0	0	0	0	0	0
10.49635	-0.1732457	0.2688842	0	0	0	0	0	0
10.51322	-0.1732457	0.2688842	0	0	0	0	0	0
10.52949	-0.1732201	0.2689021	0.001570471	0.001101346	0.04739829	0.03323964	0	0
10.54605	-0.1732201	0.2689021	0	0	-0.04783752	-0.03354766	0	0
10.56262	-0.1732201	0.2689021	0	0	0	0	0	0
10.61232	-0.1732201	0.2689021	0	0	0	0	0	0
10.62889	-0.1732201	0.2689021	0	0	0	0	0	0
10.64545	-0.1732201	0.2689379	0	0.002160569	0	0.06520987	0	0
10.66202	-0.1732201	0.2690453	0	0.006483507	0	0.130474	0	0
10.67859	-0.1732967	0.2692064	-0.004624266	0.009725261	-0.1395687	0.09784196	0	0
10.69515	-0.173501	0.2694928	-0.01233018	0.01728815	-0.2325782	0.2282617	0	0
10.71172	-0.1742668	0.2701372	-0.04622827	0.03889744	-1.023105	0.6522073	0	0
10.72829	-0.1763846	0.2716586	-0.1278352	0.09183769	-2.463043	1.597832	0	0
10.74485	-0.1782968	0.273144	-0.1154312	0.08966633	0.374373	-0.06553555	0	0
10.76142	-0.1813792	0.2753093	-0.1860608	0.1307027	-2.131727	1.238553	0	0
10.77798	-0.1849666	0.2778679	-0.2165489	0.1544456	-0.9201866	0.7166029	0	0
10.79455	-0.1866187	0.2790307	-0.09972405	0.07019018	3.525884	-2.542908	0	0
10.81112	-0.1874571	0.2796211	-0.05060877	0.0356341	1.482345	-1.042934	0	0
10.82768	-0.18992	0.281392	-0.1486646	0.1068987	-2.959502	2.150894	0	0
10.84425	-0.18992	0.281392	0	0	4.486966	-3.226395	0	0
10.86082	-0.18992	0.281392	0	0	0	0	0	0
10.89816	-0.1898692	0.2813562	0.001359251	-0.000957781	0.025215	-0.01776747	0	0
10.91472	-0.1898692	0.2813562	0	0	-0.02521545	0.01776778	0	0
10.93129	-0.1898438	0.2813383	0.001531827	-0.001079385	0.04623331	-0.03257778	0	0
10.94803	-0.1898692	0.2813205	-0.001515772	-0.001068072	-0.09149744	0.0003396586	0	0
10.96442	-0.1898438	0.2813025	0.001548137	-0.001092696	0.09247161	-0.0007431663	0	0
10.98105	-0.1898185	0.2812847	0.001526205	-0.001075423	-0.0006642313	0.0005231081	0	0
10.99756	-0.1898185	0.2812489	0	-0.002165627	-0.04605167	-0.0328958	0	0
11.01412	-0.1897931	0.281231	0.001533433	-0.001079882	0.04636585	0.03282926	0	0
11.03069	-0.1897931	0.281231	0	0	-0.04629243	0.0326003	0	0
11.0476	-0.1897931	0.281231	0	0	0	0	0	0
11.06382	-0.1897931	0.281231	0	0	0	0	0	0
11.08039	-0.1897931	0.281231	0	0	0	0	0	0
11.09696	-0.1897931	0.281231	0	0	0	0	0	0
11.11367	-0.1897931	0.281231	0	0	0	0	0	0
11.13009	-0.1897931	0.281231	0	0	0	0	0	0
11.14665	-0.1898185	0.2812489	-0.001532727	0.001079385	-0.04646643	0.03272283	0	0
11.16322	-0.1898185	0.2812489	0	0	0.04625912	-0.03257685	0	0
11.17979	-0.1898185	0.2812489	0	0	0	0	0	0
11.19635	-0.1898185	0.2812489	0	0	0	0	0	0
11.21321	-0.1898185	0.2812489	0	0	0	0	0	0
11.22949	-0.1898185	0.2812489	0	0	0	0	0	0
11.24605	-0.1897931	0.2812668	0.001532727	0.001079385	0.04667152	0.03286727	0	0
11.26262	-0.1898185	0.2812847	-0.001532727	0.001079385	-0.09252091	0	0	0
11.27919	-0.1898185	0.2812847	0	0	0.04626045	-0.03257778	0	0
11.29575	-0.1898438	0.2813025	-0.001531827	0.001079385	-0.04623331	0.03257778	0	0
11.31278	-0.1898692	0.2813205	-0.00149022	0.001051817	0.001238487	-0.0008205916	0	0
11.32889	-0.1898692	0.2813205	0	0	0.04497623	-0.03174482	0	0
11.34545	-0.1898692	0.2813562	0	0.00215877	0	0.06607609	0	0
11.36202	-0.18992	0.2814278	-0.003063655	0.00431934	-0.09246662	0.06520986	0	0
11.37859	-0.1899453	0.2815172	-0.001531827	0.005398725	0.04623331	0.03257778	0	0
11.41172	-0.1900215	0.2817855	-0.002297675	0.008096955	-0.01540947	0.05429058	0	0
11.46142	-0.1900468	0.2819107	-0.0005105993	0.002519716	0.02157436	-0.06733088	0	0
11.47799	-0.1900468	0.2819107	0	0	0.007705292	-0.03802424	0	0
11.49455	-0.1900468	0.2819107	0	0	0	0	0	0
11.51112	-0.1900468	0.2819107	0	0	0	0	0	0
11.52769	-0.1900215	0.2818928	0.001531827	-0.001081184	0.04623331	-0.03263208	0	0
11.56137	-0.1899961	0.2818392	0.0007534011	-0.001592627	-0.01549135	-0.01017815	0	0
11.57797	-0.1899961	0.2818034	0	-0.00215573	-0.01498224	-0.01119793	0	0
11.5945	-0.1899707	0.2817855	0.001535186	-0.001081752	0.04633333	0.03241365	0	0
11.61149	-0.1899707	0.2817497	0	-0.002104732	-0.04579684	-0.03051699	0	0
11.62764	-0.1899707	0.2817497	0	0	0	0.06352275	0	0
11.64452	-0.1899707	0.2817497	0	0	0	0	0	0
11.66077	-0.1899707	0.2817497	0	0	0	0	0	0
11.67733	-0.1899707	0.2817497	0	0	0	0	0	0
11.6939	-0.1899707	0.2817497	0	0	0	0	0	0
11.71047	-0.1899961	0.2817318	-0.001531739	-0.001079323	-0.04622931	-0.03257497	0	0
11.72703	-0.1899961	0.2817318	0	0	0.04622931	0.03257497	0	0
11.7436	-0.1899961	0.2817318	0	0	0	0	0	0
11.76017	-0.1899961	0.2817318	0	0	0	0	0	0
11.77673	-0.1899961	0.2817318	0	0	0	0	0	0
11.79362	-0.1899961	0.2817318	0	0	0	0	0	0
11.80987	-0.1899961	0.2817318	0	0	0	0	0	0
11.82646	-0.1899961	0.2817318	0	0	0	0	0	0
11.84316	-0.1899961	0.2817318	0	0	0	0	0	0
11.85967	-0.1899961	0.2816961	0	-0.002167807	0	-0.06528363	0	0
11.87613	-0.1899961	0.2816603	0	-0.002171773	0	-0.0001202417	0	0
11.8927	-0.1899707	0.2816066	0.001531827	-0.003238156	0.04637212	-0.03228198	0	0
11.90927	-0.18992	0.2815351	0.003063655	-0.00431934	0.04623331	-0.03263208	0	0
11.92583	-0.1898438	0.2814457	0.004595482	-0.005398725	0.0462333	-0.03257778	0	0
11.94272	-0.1897677	0.2813205	0.004508145	-0.007412413	-0.002610458	-0.06018771	0	0
11.95897	-0.1897169	0.2812489	0.003124633	-0.00440531	-0.04175567	0.09075715	0	0
11.97575	-0.1896916	0.2811952	0.001512326	-0.003198707	-0.04882394	0.0365384	0	0
11.9921	-0.1896916	0.2811952	0	0	-0.04564472	0.09654272	0	0
12.00867	-0.1896916	0.2811952	0	0	0	0	0	0
12.02523	-0.1896916	0.2811952	0	0	0	0	0	0
12.0418	-0.1896916	0.2811952	0	0	0	0	0	0
12.05836	-0.1896916	0.2811952	0	0	0	0	0	0
12.07493	-0.1896662	0.2811773	0.001532727	-0.001079385	0.04626045	-0.03257778	0	0
12.09183	-0.1896662	0.2811773	0	0	-0.04580298	0.03225562	0	0
12.10806	-0.1896662	0.2811773	0	0	0	0	0	0
12.12485	-0.1896662	0.2811773	0	0	0	0	0	0
12.2406	-0.185958	0.2779573	0.03203712	-0.02781983	0.241731	-0.2099101	0	0
12.25716	-0.180004	0.2735556	0.3594047	-0.2657014	2.474213	-1.797886	0	0
12.27373	-0.1781439	0.2722134	0.1122821	-0.08102225	-7.458602	5.57395	0	0
12.29047	-0.1667272	0.2640322	0.6820465	-0.4887566	17.10739	-12.24238	0	0
12.3069	-0.1579624	0.2577631	0.5332818	-0.3814281	-4.484308	3.235271	0	0
12.34058	-0.1498678	0.2488916	0.2403998	-0.2634733	-5.84513	2.354057	0	0
12.35714	-0.1531338	0.2427045	-0.1971348	-0.3734593	-8.70913	-2.189271	0	0
12.37403	-0.157295	0.2386136	-0.2464644	-0.2422943	-1.474681	3.921098	0	0
12.39028	-0.1652426	0.2332643	-0.4891163	-0.3292117	-7.323668	-2.623324	0	0
12.40684	-0.1753642	0.2260795	-0.6109427	-0.4336765	-3.712418	-3.183356	0	0
12.42341	-0.1859072	0.2186014	-0.6364127	-0.4514052	-0.768707	-0.5350673	0	0
12.43997	-0.1935718	0.2130966	-0.462665	-0.3322896	5.244019	3.595121	0	0
12.45658	-0.2014156	0.2074081	-0.4722552	-0.3424913	-0.2890771	-0.3075053	0	0
12.47311	-0.212078	0.1992824	-0.6452547	-0.4917443	-5.221284	-4.504594	0	0
12.49011	-0.2179304	0.1921946	-0.3442584	-0.4169253	8.978394	2.231771	0	0
12.50624	-0.2196607	0.1827875	-0.107247	-0.5830849	7.153225	-5.014852	0	0
12.52281	-0.2199865	0.172897	-0.0196682	-0.597025	2.678284	-0.4263099	0	0
12.53937	-0.2198863	0.160943	0.006051753	-0.7215843	0.7762743	-3.759421	0	0
12.55594	-0.2201369	0.1506365	-0.01512848	-0.6221405	-0.6392576	3.001391	0	0
12.57267	-0.2208385	0.1442401	-0.04194342	-0.3823885	-0.8054051	7.201118	0	0
12.58907	-0.22159	0.1422761	-0.04580415	-0.1197111	-0.1165204	7.927846	0	0
12.60564	-0.2262183	0.1390194	-0.2793863	-0.1965857	-7.084185	-2.331488	0	0
12.62221	-0.2273926	0.1380912	-0.07088502	-0.05603179	6.292942	4.242171	0	0
12.63877	-0.2273926	0.1380912	0	0	2.139437	1.69114	0	0
12.65534	-0.2273926	0.1380912	0	0	0	0	0	0
12.67224	-0.2273926	0.1380912	0	0	0	0	0	0
12.68847	-0.2273926	0.1380912	0	0	0	0	0	0
12.70504	-0.2273926	0.1380912	0	0	0	0	0	0
12.72161	-0.2273926	0.1380912	0	0	0	0	0	0
12.73829	-0.2273926	0.1380912	0	0	0	0	0	0
12.75474	-0.2273926	0.1380912	0	0	0	0	0	0
12.77131	-0.2273926	0.1380912	0	0	0	0	0	0
12.78787	-0.2273926	0.1380912	0	0	0	0	0	0
12.80444	-0.2273926	0.1380912	0	0	0	0	0	0
12.82101	-0.2273926	0.1380912	0	0	0	0	0	0
12.83757	-0.2273926	0.1380912	0	0	0	0	0	0
12.85414	-0.2273926	0.1380912	0	0	0	0	0	0
12.8707	-0.2273926	0.1380912	0	0	0	0	0	0
12.88727	-0.2273926	0.1380912	0	0	0	0	0	0
12.90384	-0.2273926	0.1380912	0	0	0	0	0	0
12.94061	-0.2273926	0.1380912	0	0	0	0	0	0
12.95718	-0.2273926	0.1380912	0	0	0	0	0	0
12.97395	-0.2273926	0.1380912	0	0	0	0	0	0
13.00759	-0.2273926	0.1380912	0	0	0	0	0	0
13.02415	-0.2273926	0.1380912	0	0	0	0	0	0
13.04072	-0.2273926	0.1380912	0	0	0	0	0	0
13.05729	-0.2273677	0.1381094	0.001507541	0.001099174	0.045499	0.03317409	0	0
13.07385	-0.2272927	0.1380548	0.004523524	-0.003296622	0.09102777	-0.132673	0	0
13.09042	-0.2266931	0.1376543	0.03619358	-0.02417373	0.9558593	-0.6301087	0	0
13.10699	-0.2231171	0.135087	0.2158599	-0.1549736	5.422654	-3.947776	0	0
13.12356	-0.2193599	0.1323544	0.2267509	-0.1649101	0.3286705	-0.2998655	0	0
13.14012	-0.2121031	0.1270856	0.438118	-0.3180976	6.379257	-4.623342	0	0
13.15669	-0.2014661	0.1193824	0.6420885	-0.4649951	6.156726	-4.434013	0	0
13.17358	-0.1937239	0.1137526	0.4581717	-0.3331593	-5.495889	3.939579	0	0
13.18982	-0.1832625	0.1062116	0.6443929	-0.4645062	5.620492	-3.964285	0	0
13.20639	-0.1733478	0.09908053	0.5984885	-0.430457	-1.399496	1.038064	0	0
13.22297	-0.1665992	0.0941979	0.4068051	-0.2943267	-5.781355	4.105823	0	0
13.23952	-0.1577314	0.08783887	0.5360356	-0.3843852	3.900408	-2.718127	0	0
13.25608	-0.1558829	0.08651444	0.1115832	-0.07994691	-12.81959	9.194846	0	0
13.27265	-0.1486841	0.08132327	0.434497	-0.313322	9.745556	-7.043275	0	0
13.28922	-0.1467274	0.07992315	0.1181194	-0.08452073	-9.548568	6.905436	0	0
13.30579	-0.1453879	0.07892806	0.08084849	-0.06006388	-1.124904	0.7381517	0	0
13.32235	-0.1447438	0.07846729	0.03888305	-0.02781396	-1.266556	0.9733325	0	0
13.33892	-0.1447438	0.07846729	0	0	-1.17356	0.8394752	0	0
13.35548	-0.1447438	0.07846729	0	0	0	0	0	0
13.37205	-0.1447438	0.07846729	0	0	0	0	0	0
13.38874	-0.1447438	0.07846729	0	0	0	0	0	0
13.42176	-0.1447438	0.07846729	0	0	0	0	0	0
13.43832	-0.1447438	0.07846729	0	0	0	0	0	0
13.45488	-0.1447438	0.07846729	0	0	0	0	0	0
13.47145	-0.1447438	0.07846729	0	0	0	0	0	0
13.48802	-0.1447438	0.07846729	0	0	0	0	0	0
13.50458	-0.1447438	0.07846729	0	0	0	0	0	0
13.52115	-0.1447438	0.07846729	0	0	0	0	0	0
13.53772	-0.1447438	0.07846729	0	0	0	0	0	0
13.55435	-0.1447438	0.07846729	0	0	0	0	0	0
13.57085	-0.1447438	0.07846729	0	0	0	0	0	0
13.58745	-0.1447438	0.07846729	0	0	0	0	0	0
13.60398	-0.1447438	0.07846729	0	0	0	0	0	0
13.62055	-0.1447438	0.07846729	0	0	0	0	0	0
13.65492	-0.1447438	0.07846729	0	0	0	0	0	0
13.67138	-0.1447438	0.07846729	0	0	0	0	0	0
13.70451	-0.1447438	0.07846729	0	0	0	0	0	0
13.72108	-0.1447438	0.07846729	0	0	0	0	0	0
13.73764	-0.1447438	0.07846729	0	0	0	0	0	0
13.75421	-0.1447438	0.07846729	0	0	0	0	0	0
13.771	-0.1447438	0.07846729	0	0	0	0	0	0
13.78734	-0.1447438	0.07846729	0	0	0	0	0	0
13.80402	-0.1447438	0.07846729	0	0	0	0	0	0
13.82048	-0.1447438	0.07846729	0	0	0	0	0	0
13.83704	-0.1447438	0.07846729	0	0	0	0	0	0
13.85361	-0.1447438	0.07846729	0	0	0	0	0	0
13.87018	-0.1447438	0.07846729	0	0	0	0	0	0
13.88674	-0.1447438	0.07846729	0	0	0	0	0	0
13.90331	-0.1447695	0.07848572	-0.001555214	0.001112666	-0.04693916	0.03358227	0	0
13.91988	-0.1448726	0.07863317	-0.00621925	0.008897294	-0.1407406	0.2349067	0	0
13.93664	-0.1451045	0.07913078	-0.01384175	0.02970066	-0.2287178	0.6242177	0	0
13.95314	-0.1453106	0.07990473	-0.01248628	0.04688538	0.04075223	0.5166581	0	0
13.96958	-0.1480405	0.08277816	-0.1661057	0.1748399	-4.663357	3.884257	0	0
13.98616	-0.1528767	0.08623847	-0.2916786	0.2086966	-3.803482	1.025486	0	0
14.03584	-0.1678018	0.09741075	-0.3003975	0.2248642	-0.1315757	0.2439847	0	0
14.08554	-0.1823719	0.1112829	-0.2931617	0.2791198	0.07280651	0.5459164	0	0
14.10224	-0.1869491	0.1223592	-0.2741309	0.66337	0.2866219	5.787187	0	0
14.11868	-0.1875841	0.1293104	-0.03863643	0.4228899	7.107238	-7.257704	0	0
14.13526	-0.1883968	0.1449309	-0.04899511	0.9417168	-0.3136637	15.71023	0	0
14.15181	-0.1883714	0.1596194	0.001534582	0.8877215	1.525033	-1.629629	0	0
14.16838	-0.1885492	0.1702908	-0.01072909	0.6441627	-0.3703635	-7.355489	0	0
14.18494	-0.1887269	0.1805105	-0.01072785	0.6168291	3.727037E-05	-0.8249302	0	0
14.20151	-0.1881429	0.1899568	0.03525452	0.5702086	1.387751	-1.407009	0	0
14.21808	-0.1873555	0.1986334	0.04752529	0.5237226	0.3703433	-1.40299	0	0
14.23464	-0.1877111	0.2100188	-0.02146874	0.6873453	-2.082424	4.938567	0	0
14.25121	-0.1874317	0.2183496	0.01686629	0.5028766	1.157087	-5.567917	0	0
14.26786	-0.1858818	0.2290439	0.09309042	0.6422914	2.294769	4.197159	0	0
14.28434	-0.18517	0.234575	0.0431787	0.3355366	-1.506339	-9.257879	0	0
14.30091	-0.1845343	0.2456102	0.03837124	0.6661246	-0.1454577	10.0025	0	0
14.34391	-0.17952	0.2720702	0.1166088	0.6153332	1.313428	-0.8526701	0	0
14.36042	-0.1778635	0.277027	0.1003323	0.3002271	-0.2735029	-5.294906	0	0
14.37693	-0.1753132	0.2839675	0.1544649	0.4203597	1.639338	3.63807	0	0
14.39327	-0.1726583	0.2910843	0.1624437	0.4354576	0.2428556	0.4595455	0	0
14.40984	-0.1699243	0.297287	0.1650326	0.3744225	0.0786688	-1.854641	0	0
14.42641	-0.1665737	0.3020587	0.2022597	0.2880339	1.123581	-2.607363	0	0
14.44298	-0.163501	0.308241	0.1854344	0.3730971	-0.5077603	2.567064	0	0
14.45954	-0.1603483	0.3118318	0.1903411	0.216796	0.1480892	-4.717314	0	0
14.47611	-0.1581677	0.3133145	0.1316207	0.08949567	-1.772387	-3.842374	0	0
14.49267	-0.1580394	0.3134038	0.007745488	0.005391529	-3.73867	-2.538341	0	0
14.50924	-0.1580651	0.3133502	-0.001548918	-0.003236357	-0.2805219	-0.2604051	0	0
14.52581	-0.1580651	0.3132788	0	-0.004312144	0.04674912	-0.03246919	0	0
14.54237	-0.1580907	0.3132252	-0.001548918	-0.003234558	-0.04674912	0.03252348	0	0
14.55894	-0.1580651	0.3131359	0.001548918	-0.005391529	0.09349824	-0.06510127	0	0
14.57551	-0.1580651	0.3131359	0	0	-0.04674912	0.162726	0	0
14.59207	-0.1580651	0.3131002	0	-0.002156971	0	-0.06510127	0	0
14.60864	-0.1580651	0.3131002	0	0	0	0.0650994	0	0
14.62521	-0.1580651	0.3131002	0	0	0	0	0	0
14.64177	-0.1580651	0.3131002	0	0	0	0	0	0
14.65834	-0.1580907	0.3130823	-0.001548918	-0.001077586	-0.04674777	-0.03252255	0	0
14.6749	-0.1580907	0.3130823	0	0	0.04674912	0.03252349	0	0
14.69147	-0.1580907	0.3130823	0	0	0	0	0	0
14.70804	-0.1580907	0.3130823	0	0	0	0	0	0
14.72467	-0.1580907	0.3130823	0	0	0	0	0	0
14.74117	-0.1580907	0.3130823	0	0	0	0	0	0
14.75774	-0.1580907	0.3130823	0	0	0	0	0	0
14.7743	-0.1580907	0.3130823	0	0	0	0	0	0
14.79122	-0.1580907	0.3130823	0	0	0	0	0	0
14.80744	-0.1581164	0.3130644	-0.001583081	-0.001102552	-0.04777885	-0.03327604	0	0
14.824	-0.158142	0.3130466	-0.001548918	-0.001077586	0.001042056	0.0007615146	0	0
14.84057	-0.158142	0.3130466	0	0	0.04674912	0.03252349	0	0
14.8737	-0.158142	0.3130466	0	0	0	0	0	0
14.89029	-0.1581677	0.3130287	-0.001547048	-0.001078082	-0.03111531	-0.02168315	0	0
14.90684	-0.1581677	0.3130287	0	0	0.04669133	0.03253751	0	0
14.95654	-0.1581934	0.3130108	-0.000516296	-0.0003591885	-0.007793502	-0.00542196	0	0
14.98967	-0.1581934	0.3129751	0	-0.001078455	0.006232953	-0.008683298	0	0
15.00637	-0.1581934	0.3129394	0	-0.002139482	0	-0.02129072	0	0
15.02281	-0.1581934	0.3129037	0	-0.002172557	0	-0.0009981694	0	0
15.0394	-0.158219	0.3128858	-0.001546603	-0.001077772	-0.04683157	0.0331504	0	0
15.05594	-0.158219	0.3128858	0	0	0.0466806	0.03253003	0	0
15.0725	-0.158219	0.3128858	0	0	0	0	0	0
15.08907	-0.158219	0.3128858	0	0	0	0	0	0
15.10594	-0.158219	0.3128858	0	0	0	0	0	0
15.1222	-0.1582447	0.3128679	-0.00157881	-0.001097745	-0.04764996	-0.03313097	0	0
15.13877	-0.1582447	0.3128679	0	0	0.04809292	0.03343896	0	0
15.15548	-0.1582447	0.3128679	0	0	0	0	0	0
15.1719	-0.1582447	0.3128679	0	0	0	0	0	0
15.20504	-0.1582447	0.3128679	0	0	0	0	0	0
15.2216	-0.1582704	0.3128501	-0.001549007	-0.001079447	-0.03116728	-0.02171936	0	0
15.23817	-0.1582704	0.3128501	0	0	0.04675316	0.0325806	0	0
15.25505	-0.1582704	0.3128144	0	-0.002115591	0	-0.06326056	0	0
15.2713	-0.1582704	0.3128144	0	0	0	0.06385051	0	0
15.28787	-0.1583217	0.3127429	-0.003098014	-0.004314191	-0.09438658	-0.1314396	0	0
15.30458	-0.1584756	0.3125285	-0.009212366	-0.01282705	-0.1837383	-0.2558142	0	0
15.321	-0.158527	0.3124928	-0.003125907	-0.002175885	0.1836897	0.3214529	0	0
15.33757	-0.1585783	0.3124571	-0.003097835	-0.002156971	0.0008509597	0.0005733504	0	0
15.35414	-0.158604	0.3124392	-0.001548918	-0.001077586	0.04674912	0.03257779	0	0
15.3707	-0.158604	0.3124392	0	0	0.04674912	0.03252349	0	0
15.38727	-0.158604	0.3124392	0	0	0	0	0	0
15.40415	-0.158604	0.3124392	0	0	0	0	0	0
15.4204	-0.1586296	0.3124214	-0.001578088	-0.001098518	-0.04762817	-0.0331543	0	0
15.43697	-0.1586553	0.3124035	-0.001548829	-0.001079323	0.0008915794	0.0005848996	0	0
15.45354	-0.1586809	0.3123856	-0.001548918	-0.001077586	-2.691358E-06	5.241824E-05	0	0
15.47014	-0.1586809	0.3123856	0	0	0.04669804	0.03248795	0	0
15.48667	-0.1586809	0.3123856	0	0	0	0	0	0
15.50324	-0.1586809	0.3123856	0	0	0	0	0	0
15.51981	-0.1586809	0.3123856	0	0	0	0	0	0
15.53678	-0.1586809	0.3123856	0	0	0	0	0	0
15.55326	-0.1586809	0.3123856	0	0	0	0	0	0
15.63582	-0.1588092	0.3122606	-0.001554071	-0.001514723	-0.0156921	-0.01529478	0	0
15.67085	-0.1589632	0.3121177	-0.004393986	-0.004078824	-0.02415061	-0.02180509	0	0
15.68742	-0.159348	0.311814	-0.02322793	-0.0183323	-0.3649822	-0.2762176	0	0
15.70398	-0.1603483	0.3111173	-0.0603826	-0.04205465	-1.121363	-0.7159624	0	0
15.72087	-0.1611688	0.3105099	-0.04858131	-0.03596308	0.3527423	0.1820776	0	0
15.73712	-0.1611688	0.3105099	0	0	1.466229	1.085399	0	0
15.75368	-0.1611688	0.3105099	0	0	0	0	0	0
15.77025	-0.1611432	0.310492	0.001547119	-0.001077586	0.04669483	-0.03252349	0	0
15.78682	-0.1611432	0.310492	0	0	-0.04669483	0.03252349	0	0
15.81995	-0.1611432	0.310492	0	0	0	0	0	0
15.83652	-0.1611432	0.310492	0	0	0	0	0	0
15.85309	-0.1611432	0.310492	0	0	0	0	0	0
15.86965	-0.1611432	0.310492	0	0	0	0	0	0
15.88622	-0.1611432	0.310492	0	0	0	0	0	0
15.90279	-0.1611432	0.310492	0	0	0	0	0	0
15.91935	-0.1611432	0.310492	0	0	0	0	0	0
15.93592	-0.1611432	0.310492	0	0	0	0	0	0
15.95249	-0.1611432	0.310492	0	0	0	0	0	0
15.96905	-0.1611432	0.310492	0	0	0	0	0	0
15.98562	-0.1611432	0.310492	0	0	0	0	0	0
16.00218	-0.1611432	0.310492	0	0	0	0	0	0
16.01875	-0.1611432	0.310492	0	0	0	0	0	0
16.03532	-0.1611432	0.310492	0	0	0	0	0	0
16.05211	-0.1611432	0.310492	0	0	0	0	0	0
16.06845	-0.1611688	0.3105099	-0.001568336	0.001092364	-0.04733519	0.03296951	0	0
16.08502	-0.1611688	0.3105099	0	0	0.04765617	-0.03319308	0	0
16.10158	-0.1611688	0.3105099	0	0	0	0	0	0
16.11816	-0.1611688	0.3105099	0	0	0	0	0	0
16.13472	-0.1611688	0.3105099	0	0	0	0	0	0
16.15128	-0.1611945	0.3105277	-0.001548107	0.001079447	-0.04674081	0.03259092	0	0
16.16785	-0.1611945	0.3105277	0	0	0.04672197	-0.03257779	0	0
16.1847	-0.1611945	0.3105634	0	0.002118704	0	0.06339522	0	0
16.20099	-0.1612201	0.3105813	-0.001574031	0.001098161	-0.04750434	-0.03080005	0	0
16.21773	-0.1612201	0.3106171	0	0.002134485	0.04766348	0.03138109	0	0
16.23424	-0.1612457	0.3106349	-0.001553115	0.001081134	-0.0467064	-0.03167715	0	0
16.25078	-0.1612714	0.3106528	-0.001549885	0.001081315	9.772952E-05	5.481082E-06	0	0
16.26726	-0.1612457	0.3106706	0.001554906	0.00108301	0.09402753	5.134681E-05	0	0
16.35252	-0.168518	0.3175301	-0.08529521	0.08045262	-0.8536167	0.7800937	0	0
16.36909	-0.177838	0.3271565	-0.562491	0.5809885	-4.686222	4.915429	0	0
16.38566	-0.1844835	0.334889	-0.4011187	0.4667335	4.869945	-3.448025	0	0
16.40222	-0.1885238	0.3456569	-0.2438757	0.6499522	4.745603	5.529552	0	0
16.41879	-0.1903006	0.3508357	-0.1072478	0.3125899	4.123438	-10.18161	0	0
16.43538	-0.1923805	0.3598725	-0.1253385	0.5445869	-0.5455388	6.996044	0	0
16.45192	-0.1924058	0.3661778	-0.001532587	0.3812475	3.736686	-4.929877	0	0
16.46849	-0.1941546	0.3739493	-0.1055578	0.4690864	-3.1422	2.653274	0	0
16.48506	-0.1962313	0.3809186	-0.1253508	0.4206662	-0.5973533	-1.461325	0	0
16.50163	-0.1996718	0.3913228	-0.2076707	0.6280023	-2.484422	6.257419	0	0
16.51819	-0.2016177	0.3961335	-0.1174501	0.2903739	2.722864	-10.18965	0	0
16.53476	-0.2033095	0.4047032	-0.102121	0.5172656	0.4626327	6.847604	0	0
16.55132	-0.2060595	0.4173253	-0.1660046	0.7619639	-1.928121	7.385436	0	0
16.56798	-0.2075466	0.4266972	-0.08928239	0.5626431	2.309366	-5.999627	0	0
16.58446	-0.210191	0.4385895	-0.1604823	0.7217252	-2.148816	4.801108	0	0
16.60103	-0.2137875	0.4510717	-0.2170887	0.7534286	-1.713022	0.9594066	0	0
16.61759	-0.2161989	0.460351	-0.1455644	0.5601594	2.158734	-5.833213	0	0
16.63416	-0.2168264	0.4633205	-0.03787794	0.1792396	3.25017	-11.49684	0	0
16.65072	-0.2216651	0.4815783	-0.2920975	1.102173	-7.672804	27.8558	0	0
16.66729	-0.2231422	0.4877356	-0.08915748	0.3716523	6.125096	-22.04844	0	0
16.68386	-0.2258434	0.4968112	-0.1630479	0.547805	-2.230019	5.316299	0	0
16.70043	-0.2317345	0.5081124	-0.3555848	0.6821448	-5.810773	4.054382	0	0
16.71699	-0.2360923	0.5157868	-0.26304	0.4632275	2.793006	-6.606937	0	0
16.7336	-0.2447062	0.5236911	-0.5187994	0.476059	-7.710399	0.3868344	0	0
16.75013	-0.2517288	0.5288584	-0.4248617	0.3126226	2.835207	-4.932805	0	0
16.76669	-0.2597587	0.5350887	-0.4846862	0.3760577	-1.807588	1.916683	0	0
16.78326	-0.2647907	0.5395206	-0.3037359	0.2675138	5.461092	-3.275862	0	0
16.79983	-0.2672404	0.5432447	-0.1478637	0.224787	4.704233	-1.289497	0	0
16.81639	-0.2669466	0.5504465	0.01773328	0.4346974	4.997725	6.335107	0	0
16.83296	-0.2655015	0.5596955	0.08722909	0.5582762	2.097388	3.729618	0	0
16.84953	-0.2647172	0.5685804	0.04734091	0.536294	-1.203828	-0.6634239	0	0
16.86619	-0.2650604	0.5753867	-0.0205931	0.4084282	-2.044251	-3.847702	0	0
16.8827	-0.267118	0.5841986	-0.1246318	0.5337302	-3.136102	3.777056	0	0
16.89923	-0.2674608	0.5865251	-0.02073956	0.1407837	3.144886	-11.89475	0	0
16.9158	-0.2713241	0.5974402	-0.2331931	0.6588368	-6.419992	15.6547	0	0
16.93236	-0.2714463	0.6010557	-0.007371776	0.2182319	6.815302	-13.29748	0	0
16.96647	-0.2741309	0.6132861	-0.07870251	0.3585467	-1.407522	2.768738	0	0
16.98304	-0.2757153	0.6174794	-0.09563702	0.2531084	-0.3341573	-2.080543	0	0
16.99961	-0.2778582	0.6193076	-0.1293443	0.1103536	-1.017287	-4.30835	0	0
17.0163	-0.2779069	0.6193823	-0.002915738	0.004474489	3.801397	-3.183526	0	0
17.03274	-0.2779069	0.6194569	0	0.004538863	0.08800222	0.001942936	0	0
17.08244	-0.2838345	0.6244627	-0.1192692	0.1007203	-1.803253	1.454185	0	0
17.09901	-0.2871296	0.6278297	-0.1988941	0.2032329	-1.201576	1.546963	0	0
17.11558	-0.2867423	0.631613	0.02337994	0.228356	6.708242	0.758215	0	0
17.13214	-0.2827671	0.635101	0.2399425	0.21054	6.535872	-0.5376886	0	0
17.1489	-0.2798526	0.6373537	0.1739778	0.1344714	-1.979765	-2.283005	0	0
17.16541	-0.2784421	0.6384808	0.0854204	0.06825762	-2.662246	-1.990545	0	0
17.18192	-0.2774444	0.6392512	0.06042437	0.04665661	-0.7569088	-0.6541038	0	0
17.19843	-0.2774444	0.6392888	0	0.002277781	-1.82972	-1.343842	0	0
17.21498	-0.2774201	0.6393076	0.001469741	0.001134726	0.04445923	-0.03457708	0	0
17.23154	-0.2773958	0.6394016	0.001469678	0.005673641	-1.884387E-06	0.1370715	0	0
17.24811	-0.2773958	0.6394767	0	0.004536754	-0.04435498	-0.03431131	0	0
17.26468	-0.2773714	0.6395707	0.001469678	0.005673641	0.04435498	0.03431131	0	0
17.28149	-0.2773958	0.6396647	-0.001448335	0.005591247	-0.08742168	-0.002468485	0	0
17.29781	-0.2774201	0.6399466	-0.001491834	0.01727387	-0.001312883	0.3526025	0	0
17.31451	-0.2774444	0.6400406	-0.001455978	0.005627641	0.001085766	-0.3526613	0	0
17.33103	-0.2774444	0.6400406	0	0	0.04383552	-0.1694329	0	0
17.34754	-0.2774444	0.6400782	0	0.002277781	0	0.06897385	0	0
17.36408	-0.2774444	0.6400782	0	0	0	-0.06891415	0	0
17.38106	-0.2774444	0.6400782	0	0	0	0	0	0
17.39757	-0.2774444	0.6400782	0	0	0	0	0	0
17.43035	-0.2774201	0.6400594	0.0007420557	-0.0005747293	0.01505673	-0.01166159	0	0
17.49661	-0.277274	0.6399466	0.002204131	-0.001701782	0.01476261	-0.01137988	0	0
17.51318	-0.2772497	0.6399279	0.001469678	-0.001133289	-0.008866536	0.006863012	0	0
17.52975	-0.2771766	0.6398715	0.004409035	-0.003403465	0.08870996	-0.06851405	0	0
17.54631	-0.2771523	0.6398526	0.001469678	-0.001136887	-0.08870996	0.06840547	0	0
17.56288	-0.2771523	0.6398526	0	0	-0.04435498	0.03431131	0	0
17.57945	-0.2771523	0.6398526	0	0	0	0	0	0
17.59602	-0.2771766	0.6398715	-0.001469678	0.001136887	-0.04435498	0.03431131	0	0
17.61258	-0.2771766	0.6398715	0	0	0.04435498	-0.03431131	0	0
17.62924	-0.2771766	0.6398715	0	0	0	0	0	0
17.64572	-0.277201	0.6398903	-0.001478016	0.001139719	-0.04460919	0.03439876	0	0
17.66228	-0.2772497	0.6399654	-0.002939356	0.004536754	-0.04422809	0.1028127	0	0
17.71405	-0.2757397	0.6425608	0.029171	0.05014002	0.4699254	0.6673899	0	0
17.73061	-0.2744479	0.6483815	0.07797389	0.3513376	0.7142155	4.407936	0	0
17.74718	-0.2747892	0.6566167	-0.02060248	0.497075	-2.975041	4.398363	0	0
17.76375	-0.2765436	0.6602895	-0.1058924	0.2216929	-2.574054	-8.311048	0	0
17.78035	-0.277274	0.660858	-0.04400602	0.03424466	1.865908	-5.65167	0	0
17.79688	-0.2772497	0.6608769	0.00147273	0.001146458	1.37263	-0.9989631	0	0
17.81345	-0.277201	0.6609527	0.002939356	0.00457633	0.04430878	0.1036211	0	0
17.83002	-0.2768115	0.6613318	0.02351305	0.02287805	0.6209154	0.5523471	0	0
17.84658	-0.2722276	0.6650876	0.2766791	0.226701	7.640566	6.151389	0	0
17.86315	-0.2708355	0.6664737	0.0840271	0.08366913	-5.814248	-4.31671	0	0
17.87971	-0.2708355	0.6665117	0	0.002292027	-2.536089	-2.456107	0	0
17.89643	-0.2708111	0.6665307	0.001461947	0.001137466	0.04392694	-0.03469095	0	0
17.91344	-0.2705912	0.6667396	0.01292711	0.01228067	0.3399336	0.3303877	0	0
17.92945	-0.2694913	0.6675946	0.0686923	0.05339488	1.688635	1.244986	0	0
17.94598	-0.267167	0.6695527	0.1406178	0.1184622	2.210285	1.999533	0	0
17.96255	-0.2674363	0.6697619	-0.01625461	0.01262808	-4.739875	-3.197763	0	0
17.97912	-0.2692712	0.6711888	-0.1107693	0.0861399	-2.852623	2.218719	0	0
17.99568	-0.2725206	0.6737213	-0.196131	0.1528609	-2.57637	2.013761	0	0
18.01252	-0.2730087	0.6741405	-0.02899965	0.02490085	5.003995	-3.831188	0	0
18.02882	-0.2730087	0.6741405	0	0	0.875211	-0.7515091	0	0
18.04554	-0.2730087	0.6741405	0	0	0	0	0	0
18.06205	-0.2730087	0.6741405	0	0	0	0	0	0
18.07852	-0.2730087	0.6741405	0	0	0	0	0	0
18.09509	-0.2730087	0.6741405	0	0	0	0	0	0
18.11165	-0.2730087	0.6741405	0	0	0	0	0	0
18.12822	-0.2730087	0.6741405	0	0	0	0	0	0
18.16162	-0.2730087	0.6741405	0	0	0	0	0	0
18.17792	-0.2729843	0.6741214	0.001497762	-0.001166754	0.03013618	-0.02347605	0	0
18.19465	-0.2729843	0.6741214	0	0	-0.04535396	0.03533068	0	0
18.21105	-0.2729843	0.6741214	0	0	0	0	0	0
18.22762	-0.2729599	0.6741024	0.001473276	-0.001151278	0.0446796	-0.03491446	0	0
18.24419	-0.2729599	0.6741024	0	0	-0.04446356	0.03474564	0	0
18.26076	-0.2729599	0.6741024	0	0	0	0	0	0
18.27732	-0.2729599	0.6741024	0	0	0	0	0	0
18.29389	-0.2729355	0.6740833	0.001473446	-0.001151411	0.04447123	-0.03475164	0	0
18.31073	-0.2729355	0.6740833	0	0	-0.04410562	0.03446593	0	0
18.35707	-0.2729355	0.6740833	0	0	0	0	0	0
18.3927	-0.2729355	0.6740833	0	0	0	0	0	0
18.4093	-0.2729111	0.6740643	0.001468603	-0.001145438	0.02812165	-0.02193351	0	0
18.444	-0.2729111	0.6740643	0	0	-0.02862451	0.02232572	0	0
18.46083	-0.2729111	0.6740643	0	0	0	0	0	0
18.47734	-0.2729111	0.6740643	0	0	0	0	0	0
18.4937	-0.2729111	0.6740643	0	0	0	0	0	0
18.51027	-0.2729111	0.6740643	0	0	0	0	0	0
18.52688	-0.2728867	0.6740452	0.001469385	-0.001148237	0.0442875	-0.03460805	0	0
18.5434	-0.2728623	0.6740261	0.001477358	-0.001154468	0.0002406375	-0.0001880421	0	0
18.55997	-0.2728623	0.6740261	0	0	-0.04464844	0.03489011	0	0
18.57654	-0.2728623	0.6740261	0	0	0	0	0	0
18.5931	-0.2728379	0.6740071	0.001473276	-0.00114768	0.04446356	-0.03463706	0	0
18.60994	-0.2728379	0.6740071	0	0	-0.04410306	0.03435623	0	0
18.62624	-0.2728379	0.6740071	0	0	0	0	0	0
18.64281	-0.2728379	0.6740071	0	0	0	0	0	0
18.65937	-0.2728135	0.673988	0.001473276	-0.001151278	0.04446356	-0.03474564	0	0
18.67594	-0.2728135	0.673988	0	0	-0.04446356	0.03474564	0	0
18.69251	-0.2727891	0.673969	0.001473276	-0.001151278	0.04446356	-0.03474564	0	0
18.70907	-0.2727891	0.673969	0	0	-0.04446356	0.03474564	0	0
18.72564	-0.2727891	0.673969	0	0	0	0	0	0
18.74254	-0.2727647	0.67395	0.001444506	-0.001125268	0.04316786	-0.03362771	0	0
18.77534	-0.272667	0.6738737	0.002976191	-0.0023239	0.03081756	-0.02411652	0	0
18.79191	-0.2721544	0.6734737	0.03094059	-0.02414805	0.5664053	-0.4420376	0	0
18.80848	-0.2719591	0.6732832	0.01178981	-0.01149839	-0.577972	0.3817677	0	0
18.82504	-0.2717393	0.6731117	0.01326668	-0.01034711	0.04457213	0.03474563	0	0
18.84161	-0.2713241	0.6727499	0.02506008	-0.0218419	0.3559256	-0.3469135	0	0
18.85818	-0.2695402	0.671322	0.1076787	-0.08618394	2.493434	-1.941847	0	0
18.87474	-0.2685619	0.6704848	0.05905476	-0.05054332	-1.467557	1.075698	0	0
18.89131	-0.2676321	0.668735	0.0561248	-0.1056154	-0.08843155	-1.662173	0	0
18.90788	-0.2658935	0.6668916	0.1049287	-0.1112546	1.47282	-0.170183	0	0
18.92444	-0.2625096	0.6640437	0.2043017	-0.1719398	2.999257	-1.831588	0	0
18.94101	-0.258849	0.6610665	0.2209536	-0.1797073	0.5026127	-0.234451	0	0
18.97414	-0.2527652	0.6555197	0.1836099	-0.167403	-0.7513564	0.2475628	0	0
18.99072	-0.2500249	0.6533081	0.1653664	-0.1334599	-0.3670328	0.6828833	0	0
19.00728	-0.2474539	0.6511551	0.1552387	-0.129999	-0.305672	0.1044575	0	0
19.02384	-0.2436408	0.6477593	0.230162	-0.2049742	2.261582	-2.263148	0	0
19.04041	-0.2397955	0.6434454	0.2320976	-0.2603867	0.05841611	-1.672351	0	0
19.05726	-0.240168	0.6372598	-0.02209799	-0.3670213	-7.605964	-3.190688	0	0
19.07355	-0.2438886	0.6279607	-0.2285239	-0.5711582	-6.229945	-6.160864	0	0
19.09029	-0.247726	0.6229302	-0.2291987	-0.30046	-0.02043505	8.197056	0	0
19.12342	-0.2560681	0.6163606	-0.2517511	-0.1982602	-0.4521412	2.04895	0	0
19.13999	-0.2543188	0.6148509	0.1055902	-0.09112725	7.189445	2.155437	0	0
19.15656	-0.248814	0.6106985	0.3323088	-0.2506693	6.842775	-4.815265	0	0
19.17312	-0.2438142	0.6069047	0.3017841	-0.2289928	-0.9212885	0.6542356	0	0
19.18969	-0.2423764	0.6058269	0.08679107	-0.06505439	-6.488503	4.94767	0	0
19.2394	-0.2359431	0.6009815	0.1294332	-0.09748671	0.6434519	-0.4893906	0	0
19.25596	-0.2359431	0.6009815	0	0	-1.95315	1.471077	0	0
19.27253	-0.2358684	0.6008887	0.004505274	-0.005601686	0.1359773	-0.169069	0	0
19.28909	-0.2348233	0.6000726	0.0630937	-0.04926598	1.768304	-1.317867	0	0
19.30594	-0.2315101	0.5975699	0.1966302	-0.1485312	3.996324	-2.970694	0	0
19.32223	-0.2272428	0.5943285	0.2620436	-0.1990403	1.97418	-1.524367	0	0
19.33896	-0.2251934	0.5927738	0.122443	-0.09289174	-4.227511	3.214488	0	0
19.35548	-0.2232423	0.5913308	0.1181667	-0.08739315	-0.1286167	0.1653765	0	0
19.37199	-0.2227918	0.590517	0.02728464	-0.04928454	-2.752013	1.153973	0	0
19.38849	-0.2233174	0.5901287	-0.03184589	-0.02352869	-1.790955	0.7800972	0	0
19.40506	-0.2270929	0.5873379	-0.2279181	-0.1684729	-5.929076	-4.383005	0	0
19.42163	-0.2347735	0.5815417	-0.4636007	-0.349859	-7.113325	-5.474556	0	0
19.43819	-0.239572	0.5776153	-0.2896417	-0.2369978	5.250093	3.406158	0	0
19.45476	-0.2395472	0.5722212	0.00149846	-0.3255886	8.786629	-2.673676	0	0
19.47133	-0.2342258	0.5682864	0.3212011	-0.237505	9.648646	2.658367	0	0
19.48789	-0.2278922	0.5636215	0.3822989	-0.2815738	1.843934	-1.329998	0	0
19.50446	-0.2242431	0.5609059	0.2202837	-0.1639285	-4.88991	3.550748	0	0
19.52109	-0.2228919	0.5599156	0.08123173	-0.05953661	-4.1884	3.144398	0	0
19.53759	-0.2229419	0.5597689	-0.003034682	-0.008890896	-2.543312	1.528579	0	0
19.55416	-0.2245933	0.5585222	-0.09967368	-0.0752504	-2.922627	-2.006893	0	0
19.57073	-0.2300387	0.5544549	-0.3286881	-0.2455064	-6.911667	-5.138337	0	0
19.58733	-0.2345245	0.5511234	-0.2702053	-0.2006692	1.763186	1.351789	0	0
19.60386	-0.2368882	0.5489466	-0.1429831	-0.1316812	3.839796	2.082182	0	0
19.62043	-0.2373358	0.546314	-0.02701456	-0.1589051	3.503769	-0.8225185	0	0
19.63699	-0.2326566	0.5415283	0.2824337	-0.2888664	9.339166	-3.92224	0	0
19.65356	-0.2283666	0.5379881	0.2589467	-0.213688	-0.7088382	2.26889	0	0
19.67013	-0.2270179	0.5368572	0.08140434	-0.06825639	-5.358239	4.389134	0	0
19.68671	-0.2219906	0.5321729	0.3031349	-0.2824576	6.688376	-6.461257	0	0
19.70326	-0.2207884	0.530825	0.07265193	-0.08145314	-6.95639	6.066675	0	0
19.71983	-0.2186327	0.5291133	0.1301151	-0.1033164	1.735241	-0.6602143	0	0
19.75336	-0.2139634	0.5256554	0.1392518	-0.1031232	0.1823754	0.003855834	0	0
19.76993	-0.2139886	0.5256373	-0.001516449	-0.001097312	-2.809834	2.03651	0	0
19.78678	-0.2139886	0.5256373	0	0	0.04536955	0.03282968	0	0
19.80306	-0.2139886	0.5256373	0	0	0	0	0	0
19.81981	-0.2139634	0.525619	0.001500214	-0.001089123	0.04543083	-0.03298181	0	0
19.83619	-0.2139886	0.5256009	-0.001533039	-0.001109317	-0.09154376	-0.0006094521	0	0
19.85283	-0.2139634	0.525619	0.00151019	0.001092783	0.09215251	0.06668212	0	0
19.86933	-0.2139634	0.525619	0	0	-0.04558024	-0.03298214	0	0
19.88589	-0.2139886	0.5256009	-0.001516449	-0.001097312	-0.0458642	-0.03318762	0	0
19.90246	-0.2139634	0.525619	0.001516274	0.001097185	0.0915225	0.06622624	0	0
19.91903	-0.2139634	0.525619	0	0	-0.04575862	-0.03311121	0	0
19.93559	-0.2139634	0.525619	0	0	0	0	0	0
19.95216	-0.2139886	0.5256009	-0.001516274	-0.001097185	-0.04576388	-0.03311503	0	0
19.96873	-0.2139886	0.5256009	0	0	0.04576388	0.03311503	0	0
19.98529	-0.2139886	0.5256009	0	0	0	0	0	0
20.00195	-0.2140137	0.5255827	-0.001508837	-0.001091156	-0.0454087	-0.03283853	0	0
20.01843	-0.2140137	0.5255463	0	-0.002210692	0.04553678	-0.03378766	0	0
20.03499	-0.2140137	0.5255463	0	0	0	0.06691141	0	0
20.05156	-0.2140388	0.5255281	-0.001516449	-0.001097312	-0.04576916	-0.03311884	0	0
20.06813	-0.2140388	0.5255281	0	0	0.04576652	0.03311693	0	0
20.15104	-0.2140388	0.5255281	0	0	0	0	0	0
20.16753	-0.214064	0.5255463	-0.001523993	0.001102771	-0.0153317	0.01109411	0	0
20.1841	-0.214064	0.5255463	0	0	0.04610568	-0.03336236	0	0
20.20066	-0.214064	0.5255463	0	0	0	0	0	0
20.21759	-0.214064	0.5255463	0	0	0	0	0	0
20.2338	-0.214064	0.5255463	0	0	0	0	0	0
20.25036	-0.214064	0.5255463	0	0	0	0	0	0
20.26693	-0.214064	0.5255463	0	0	0	0	0	0
20.28364	-0.214064	0.5255463	0	0	0	0	0	0
20.30006	-0.214064	0.5255463	0	0	0	0	0	0
20.31716	-0.214064	0.5255463	0	0	0	0	0	0
20.33319	-0.214064	0.5255463	0	0	0	0	0	0
20.34976	-0.214064	0.5255463	0	0	0	0	0	0
20.36633	-0.214064	0.5255463	0	0	0	0	0	0
20.38289	-0.214064	0.5255463	0	0	0	0	0	0
20.39946	-0.214064	0.5255463	0	0	0	0	0	0
20.41603	-0.214064	0.5255463	0	0	0	0	0	0
20.43274	-0.214064	0.5255463	0	0	0	0	0	0
20.44925	-0.214064	0.5255463	0	0	0	0	0	0
20.4828	-0.214064	0.5255463	0	0	0	0	0	0
20.49936	-0.214064	0.5255463	0	0	0	0	0	0
20.51595	-0.214064	0.5255463	0	0	0	0	0	0
20.5325	-0.214064	0.5255463	0	0	0	0	0	0
20.54906	-0.214064	0.5255463	0	0	0	0	0	0
20.56584	-0.214064	0.5255463	0	0	0	0	0	0
20.58235	-0.214064	0.5255463	0	0	0	0	0	0
20.59876	-0.214064	0.5255463	0	0	0	0	0	0
20.61533	-0.214064	0.5255463	0	0	0	0	0	0
20.6319	-0.214064	0.5255463	0	0	0	0	0	0
20.64846	-0.214064	0.5255463	0	0	0	0	0	0
20.66503	-0.214064	0.5255463	0	0	0	0	0	0
20.6816	-0.214064	0.5255463	0	0	0	0	0	0
20.69817	-0.214064	0.5255463	0	0	0	0	0	0
20.71473	-0.214064	0.5255463	0	0	0	0	0	0
20.7313	-0.2140388	0.5255281	0.001516624	-0.001097438	0.04577442	-0.03312266	0	0
20.74797	-0.2139886	0.5254553	0.003015053	-0.004365704	0.04508514	-0.09833643	0	0
20.76443	-0.2139383	0.5254189	0.00305313	-0.002208608	0.001149222	0.06510501	0	0
20.86383	-0.1807426	0.5004128	0.3339557	-0.2515675	2.855962	-2.152172	0	0
20.8804	-0.175007	0.4957257	0.3462055	-0.2829103	0.1056299	-0.2702703	0	0
20.89697	-0.1736286	0.4875549	0.08319512	-0.4931895	-7.937668	-6.346237	0	0
20.91359	-0.1762826	0.4828959	-0.1596949	-0.2803462	-7.319061	6.413655	0	0
20.9301	-0.1855259	0.476058	-0.5597325	-0.4140733	-12.07385	-4.036125	0	0
20.94667	-0.1886	0.4738404	-0.1855518	-0.1338576	11.31103	8.470579	0	0
20.96323	-0.1934704	0.4704161	-0.2939815	-0.2066886	-3.272415	-2.198042	0	0
20.9798	-0.1939012	0.4700738	-0.02600269	-0.02066364	8.087618	5.614244	0	0
20.99664	-0.1938759	0.4700557	0.001503935	-0.001070448	0.8232799	0.5864289	0	0
21.01293	-0.1938759	0.4700557	0	0	-0.04539146	0.03230804	0	0
21.0295	-0.1938252	0.4700197	0.003058981	-0.002174836	0.09310271	-0.06619298	0	0
21.04618	-0.1938252	0.4700197	0	0	-0.09201304	0.06541827	0	0
21.06269	-0.1937999	0.4700017	0.001535243	-0.001090284	0.04625916	-0.03285189	0	0
21.0792	-0.1937745	0.4699837	0.001533986	-0.001091837	-3.806149E-05	-4.702252E-05	0	0
21.09577	-0.1936985	0.4699296	0.004589979	-0.003263905	0.09238958	-0.06566653	0	0
21.11233	-0.1916197	0.4684164	0.1254758	-0.09133951	3.648762	-2.658433	0	0
21.16732	-0.1804115	0.4604769	0.2038334	-0.1443875	1.09508	-0.7413678	0	0
21.18428	-0.1766651	0.4577963	0.2209444	-0.1580902	0.2378398	-0.1904656	0	0
21.20045	-0.1725306	0.454739	0.2555614	-0.1889774	1.044745	-0.9321771	0	0
21.21702	-0.1674948	0.4491129	0.3039617	-0.339591	1.47808	-4.59954	0	0
21.23359	-0.1681088	0.4416052	-0.03706372	-0.4532168	-10.29276	-3.42943	0	0
21.25032	-0.1702311	0.4313592	-0.126802	-0.6121777	-2.694657	-4.773272	0	0
21.26683	-0.1718665	0.4270916	-0.09905611	-0.2584858	0.8345382	10.63831	0	0
21.28335	-0.1780929	0.4222164	-0.3770874	-0.2952542	-8.419595	-1.113454	0	0
21.29986	-0.1809718	0.4201558	-0.1743504	-0.1247942	6.13911	5.161725	0	0
21.31642	-0.1817865	0.4196183	-0.04918142	-0.03244639	3.784143	2.791885	0	0
21.33299	-0.1845597	0.417594	-0.1674124	-0.1222024	-3.568629	-2.709155	0	0
21.34956	-0.1866696	0.4161074	-0.1273493	-0.08973492	1.209175	0.979928	0	0
21.36612	-0.1866696	0.4160357	0	-0.004324488	3.84341	2.577692	0	0
21.38269	-0.1866696	0.4160357	0	0	0	0.1305133	0	0
21.39926	-0.186695	0.4160536	-0.001533715	0.001081246	-0.04629027	0.03263396	0	0
21.41594	-0.1866696	0.4160357	0.001522669	-0.00107346	0.09191909	-0.06480161	0	0
21.43246	-0.1866696	0.4160357	0	0	-0.04586449	0.03233379	0	0
21.44897	-0.186695	0.4160536	-0.001538498	0.001084618	-0.04658211	0.0328397	0	0
21.46552	-0.186695	0.4160536	0	0	0.04652569	-0.03279993	0	0
21.48249	-0.186695	0.4160536	0	0	0	0	0	0
21.49866	-0.186695	0.4160536	0	0	0	0	0	0
21.51522	-0.186695	0.4160536	0	0	0	0	0	0
21.54854	-0.186695	0.4160536	0	0	0	0	0	0
21.56505	-0.186695	0.4160536	0	0	0	0	0	0
21.58149	-0.186695	0.4160536	0	0	0	0	0	0
21.59807	-0.186695	0.4160536	0	0	0	0	0	0
21.61462	-0.186695	0.4160536	0	0	0	0	0	0
21.63119	-0.186695	0.4160536	0	0	0	0	0	0
21.64775	-0.186695	0.4160536	0	0	0	0	0	0
21.66432	-0.186695	0.4160536	0	0	0	0	0	0
21.68089	-0.186695	0.4160536	0	0	0	0	0	0
21.69746	-0.186695	0.4160536	0	0	0	0	0	0
21.71415	-0.186695	0.4160536	0	0	0	0	0	0
21.73066	-0.1866696	0.4160357	0.001538675	-0.001084744	0.04633596	-0.03266617	0	0
21.74718	-0.1866696	0.4160357	0	0	-0.04659018	0.0328454	0	0
21.76372	-0.186695	0.4160536	-0.001535483	0.001082493	-0.04644523	0.0327432	0	0
21.78029	-0.1866696	0.4160357	0.001533538	-0.001081122	0.09268191	-0.06533939	0	0
21.79686	-0.1866696	0.4160357	0	0	-0.04628228	0.03262833	0	0
21.83123	-0.1866696	0.4160357	0	0	0	0	0	0
21.84755	-0.1866696	0.4160357	0	0	0	0	0	0
21.86412	-0.1866696	0.4160357	0	0	0	0	0	0
21.88077	-0.1866696	0.4160357	0	0	0	0	0	0
21.89725	-0.1866696	0.4160357	0	0	0	0	0	0
21.91382	-0.1866696	0.4160357	0	0	0	0	0	0
21.93038	-0.1866696	0.4160357	0	0	0	0	0	0
21.94695	-0.186695	0.4160536	-0.001533538	0.001081122	-0.04628228	0.03262833	0	0
21.96352	-0.186695	0.4160536	0	0	0.04628228	-0.03262833	0	0
21.98009	-0.186695	0.4160536	0	0	0	0	0	0
21.99665	-0.186695	0.4160536	0	0	0	0	0	0
22.01322	-0.186695	0.4160536	0	0	0	0	0	0
22.02988	-0.186695	0.4160536	0	0	0	0	0	0
22.04635	-0.186695	0.4160536	0	0	0	0	0	0
22.06292	-0.186695	0.4160536	0	0	0	0	0	0
22.07948	-0.186695	0.4160536	0	0	0	0	0	0
22.09605	-0.186695	0.4160536	0	0	0	0	0	0
22.11262	-0.186695	0.4160536	0	0	0	0	0	0
22.12919	-0.186695	0.4160536	0	0	0	0	0	0
22.14596	-0.186695	0.4160536	0	0	0	0	0	0
22.16232	-0.1866696	0.4160357	0.001553208	-0.001094989	0.04687861	-0.03304873	0	0
22.17898	-0.186695	0.4160536	-0.001524587	0.001074811	-0.09320458	0.06570785	0	0
22.19545	-0.186695	0.4160536	0	0	0.04601476	-0.03243973	0	0
22.21202	-0.186695	0.4160536	0	0	0	0	0	0
22.22859	-0.186695	0.4160536	0	0	0	0	0	0
22.24515	-0.1866696	0.4160357	0.001533538	-0.001081122	0.04628228	-0.03262833	0	0
22.26172	-0.186695	0.4160536	-0.001533538	0.001081122	-0.09256455	0.06525666	0	0
22.27855	-0.186695	0.4160536	0	0	0.04591227	-0.03236748	0	0
22.29507	-0.1866696	0.4160357	0.001538675	-0.001084744	0.04614248	-0.03252977	0	0
22.31142	-0.1866696	0.4160357	0	0	-0.04681731	0.03300551	0	0
22.32809	-0.1866187	0.4159999	0.003048671	-0.002148639	0.09231197	-0.06505951	0	0
22.34455	-0.1865171	0.4159282	0.006174862	-0.004352549	0.09435406	-0.06651798	0	0
22.36112	-0.1861359	0.4156238	0.02300847	-0.01837727	0.5096823	-0.4246359	0	0
22.37769	-0.1839239	0.4140657	0.1335159	-0.09404682	3.33512	-2.283711	0	0
22.39425	-0.1802078	0.4114156	0.2243067	-0.1599593	2.740073	-1.989242	0	0
22.41082	-0.17018	0.4040589	0.6052799	-0.4440497	11.49779	-8.573865	0	0
22.42739	-0.1616559	0.3973498	0.5145142	-0.4049638	-2.739313	1.179614	0	0
22.46169	-0.1580651	0.372502	0.1046958	-0.7244684	-8.056953	-6.281402	0	0
22.4781	-0.1596815	0.3603012	-0.09846183	-0.7432032	-4.005909	-0.3694173	0	0
22.49471	-0.1625273	0.3444248	-0.1713636	-0.9559926	-2.207549	-6.443511	0	0
22.51124	-0.1642695	0.3327461	-0.1054097	-0.7066323	1.990492	7.525711	0	0
22.52781	-0.165985	0.3213344	-0.1035485	-0.6888114	0.05624045	0.5384866	0	0
22.54475	-0.1686459	0.3073655	-0.1570707	-0.8245592	-1.597282	-4.051169	0	0
22.56094	-0.1702311	0.2976803	-0.09790152	-0.5981693	1.785831	6.832852	0	0
22.57751	-0.1716366	0.2889388	-0.08483569	-0.5276361	0.3988503	2.153115	0	0
22.59429	-0.1729392	0.2816961	-0.07762773	-0.4316073	0.2161434	2.879587	0	0
22.61079	-0.1757724	0.2710142	-0.1716412	-0.6471393	-2.824326	-6.47495	0	0
22.6272	-0.1760785	0.2668254	-0.01865195	-0.2552186	4.647455	11.90563	0	0
22.64382	-0.1770732	0.259895	-0.05987102	-0.4171696	-1.248089	-4.903779	0	0
22.66034	-0.1773536	0.2491606	-0.01697699	-0.6497245	1.294544	-7.018523	0	0
22.67691	-0.1780165	0.2401209	-0.04000871	-0.5456338	-0.6960602	3.145811	0	0
22.69347	-0.1785262	0.2278762	-0.0307697	-0.7390916	0.2788337	-5.838569	0	0
22.71004	-0.1786537	0.2219637	-0.007691076	-0.35688	0.6965143	11.53517	0	0
22.79288	-0.1874826	0.1811431	-0.1065826	-0.4927878	-0.9948508	-1.367235	0	0
22.80944	-0.1875587	0.1762798	-0.004598815	-0.2935453	1.025959	2.004384	0	0
22.82601	-0.1880921	0.1660534	-0.03219441	-0.6172684	-0.8328367	-9.769984	0	0
22.84258	-0.1890316	0.1594018	-0.05670673	-0.401492	-0.7397834	6.512147	0	0
22.85915	-0.1906812	0.1537231	-0.09957025	-0.3427687	-1.293624	1.772271	0	0
22.87571	-0.1907573	0.1496738	-0.004594848	-0.2444409	2.866529	2.967712	0	0
22.8925	-0.1908841	0.14504	-0.007553385	-0.2759488	-0.08869149	-0.94455	0	0
22.90885	-0.1904782	0.1393652	0.02483897	-0.3472514	0.9776033	-2.151917	0	0
22.92552	-0.1914676	0.1333747	-0.05932014	-0.3591874	-2.54873	-0.3614762	0	0
22.94198	-0.1918733	0.1316619	-0.02466004	-0.1040918	1.046104	7.699242	0	0
22.95854	-0.1920508	0.1276328	-0.01071531	-0.2432265	0.4223114	-4.213645	0	0
22.97511	-0.1917973	0.1236918	0.0153057	-0.2378792	0.785361	0.1613901	0	0
22.99168	-0.1915436	0.1235823	0.0153084	-0.006610404	8.142705E-05	6.979706	0	0
23.00825	-0.191569	0.1236005	-0.00153084	0.001101359	-0.5082092	0.2327415	0	0
23.02481	-0.1915436	0.1236188	0.00153084	0.001101809	0.09240168	1.357235E-05	0	0
23.04138	-0.1915436	0.1236188	0	0	-0.04620084	-0.03325266	0	0
23.05795	-0.1915436	0.1236188	0	0	0	0	0	0
23.07451	-0.1915436	0.1236188	0	0	0	0	0	0
23.09108	-0.1915436	0.1236188	0	0	0	0	0	0
23.12422	-0.1915436	0.1236188	0	0	0	0	0	0
23.14078	-0.1915436	0.1235823	0	-0.002203422	0	-0.04433464	0	0
23.1747	-0.1915436	0.1235823	0	0	0	0.0436462	0	0
23.19095	-0.1915436	0.1235823	0	0	0	0	0	0
23.20752	-0.1915436	0.1235823	0	0	0	0	0	0
23.22424	-0.1915436	0.1235823	0	0	0	0	0	0
23.24075	-0.1915436	0.1235823	0	0	0	0	0	0
23.25726	-0.1915436	0.1235823	0	0	0	0	0	0
23.27378	-0.1915436	0.1235823	0	0	0	0	0	0
23.29035	-0.1915436	0.1235823	0	0	0	0	0	0
23.30692	-0.1915436	0.1235823	0	0	0	0	0	0
23.32348	-0.1915436	0.1235823	0	0	0	0	0	0
23.34005	-0.1915436	0.1235823	0	0	0	0	0	0
23.35662	-0.1915436	0.1235823	0	0	0	0	0	0
23.37334	-0.1915436	0.1235823	0	0	0	0	0	0
23.38975	-0.1915436	0.1235823	0	0	0	0	0	0
23.40632	-0.1915436	0.1235823	0	0	0	0	0	0
23.42288	-0.1915436	0.1235823	0	0	0	0	0	0
23.43945	-0.1915436	0.1235823	0	0	0	0	0	0
23.45602	-0.1915436	0.1235823	0	0	0	0	0	0
23.47259	-0.1915436	0.1235823	0	0	0	0	0	0
23.48915	-0.1915436	0.1235823	0	0	0	0	0	0
23.50572	-0.1915183	0.1236005	0.00153084	0.001101359	0.04620084	0.03323909	0	0
23.60512	-0.1915436	0.1235823	-0.00025514	-0.0001835599	-0.01540028	-0.0110797	0	0
23.62169	-0.1915436	0.1235823	0	0	0.00220004	0.001582814	0	0
23.63826	-0.1915436	0.1235823	0	0	0	0	0	0
23.65505	-0.1915436	0.1235823	0	0	0	0	0	0
23.67156	-0.1915436	0.1235823	0	0	0	0	0	0
23.68796	-0.1915436	0.1235823	0	0	0	0	0	0
23.70452	-0.1915436	0.1235823	0	0	0	0	0	0
23.72109	-0.1915436	0.1235823	0	0	0	0	0	0
23.73811	-0.1915436	0.1235823	0	0	0	0	0	0
23.75422	-0.1915183	0.1236005	0.001573967	0.001132387	0.04750516	0.03417748	0	0
23.77079	-0.1915183	0.1236005	0	0	-0.04816226	-0.03465023	0	0
23.78736	-0.1914676	0.1236735	0.00306168	0.004407236	0.09240168	0.1330106	0	0
23.80416	-0.1913915	0.1238013	0.004528909	0.007604947	0.04397225	0.0958341	0	0
23.86084	-0.1920508	0.1255532	-0.01163291	0.03090823	-0.2199468	0.3171352	0	0
23.87741	-0.1925072	0.1266113	-0.02754792	0.06386984	-0.2172759	0.4500006	0	0
23.89397	-0.194332	0.1300397	-0.1101413	0.2069359	-2.492674	4.317743	0	0
23.91054	-0.1958769	0.1353783	-0.09325171	0.3222418	0.5097294	3.479938	0	0
23.92711	-0.1963326	0.1437855	-0.02750565	0.5074572	1.98422	5.589812	0	0
23.94376	-0.1965351	0.1573704	-0.01216173	0.8158541	0.4619105	9.283922	0	0
23.97692	-0.196687	0.1795706	-0.004580625	0.6695789	0.1522108	-2.936865	0	0
23.99348	-0.196282	0.1903719	0.02444577	0.6519669	0.5837657	-0.3542042	0	0
24.01005	-0.196282	0.201265	0	0.6575119	-0.7377747	0.167349	0	0
24.02662	-0.196611	0.2151478	-0.01986224	0.8379666	-0.5994437	5.446135	0	0
24.04318	-0.1960794	0.2219997	0.03208737	0.4135786	1.567842	-12.80806	0	0
24.05975	-0.1953705	0.2392058	0.04279336	1.038563	0.3231073	18.86208	0	0
24.07632	-0.1952945	0.2461482	0.004585324	0.4190436	-1.153121	-18.69715	0	0
24.09289	-0.1948133	0.260504	0.02904638	0.8665174	0.7382362	13.50479	0	0
24.10945	-0.1950919	0.2752019	-0.01681675	0.8871711	-1.384152	0.6233307	0	0
24.12602	-0.1947119	0.2867752	0.02293292	0.698563	1.199647	-5.692204	0	0
24.1429	-0.1943066	0.2981092	0.02400947	0.6713684	0.03218474	-0.813015	0	0
24.15915	-0.1939519	0.3127607	0.02182732	0.9015992	-0.06586127	6.94878	0	0
24.17572	-0.1937745	0.3226382	0.01070599	0.5962037	-0.3388807	-9.305777	0	0
24.19244	-0.1930396	0.333764	0.04396303	0.665502	0.9991558	2.08196	0	0
24.30852	-0.194332	0.35764	-0.01113352	0.2056834	-0.4148863	-3.462512	0	0
24.32503	-0.1941799	0.3574614	0.00920572	-0.0108137	0.1533936	-1.632769	0	0
24.34139	-0.1941293	0.3573899	0.003098029	-0.004370043	-0.1858281	0.1960499	0	0
24.35795	-0.1940279	0.3572114	0.006117963	-0.01077884	0.0917332	-0.194673	0	0
24.37452	-0.1937745	0.3568899	0.01529401	-0.01940443	0.2769336	-0.2603208	0	0
24.39109	-0.1939519	0.3565862	-0.01070599	-0.0183269	-0.7846813	0.03251978	0	0
24.40766	-0.1943066	0.3562648	-0.02141017	-0.01940443	-0.323053	-0.03251978	0	0
24.42422	-0.1944586	0.3560505	-0.009175145	-0.01293569	0.3692538	0.1952271	0	0
24.44079	-0.1945346	0.3559612	-0.004587123	-0.00538942	0.1384668	0.2277468	0	0
24.45763	-0.1952945	0.3553897	-0.04513318	-0.03394592	-1.21383	-0.854898	0	0
24.47392	-0.1952945	0.3553897	0	0	1.362201	1.024549	0	0
24.49049	-0.1952945	0.3553897	0	0	0	0	0	0
24.50706	-0.1952945	0.3553897	0	0	0	0	0	0
24.52362	-0.1952945	0.3553897	0	0	0	0	0	0
24.54019	-0.1953198	0.3553718	-0.001528142	-0.001077524	-0.0461194	-0.03251974	0	0
24.55676	-0.1952945	0.3553182	0.001528317	-0.003234744	0.09224943	-0.06510877	0	0
24.57332	-0.1952945	0.3552825	0	-0.002155048	-0.04612737	0.03258715	0	0
24.58989	-0.1952945	0.3552825	0	0	0	0.06503949	0	0
24.60646	-0.1952945	0.3552825	0	0	0	0	0	0
24.62325	-0.1952945	0.3552825	0	0	0	0	0	0
24.63959	-0.1953198	0.3552646	-0.001548826	-0.001093932	-0.04674366	-0.03301494	0	0
24.65616	-0.1953198	0.3552646	0	0	0.04705788	0.03323688	0	0
24.67273	-0.1953705	0.3552289	-0.003057183	-0.002155048	-0.09226595	-0.06503949	0	0
24.70899	-0.1953451	0.3552111	0.000698161	-0.0004922877	0.07108389	0.03147395	0	0
24.72556	-0.1953451	0.3552111	0	0	-0.0132153	0.009318382	0	0
24.74212	-0.1953451	0.3552111	0	0	0	0	0	0
24.75884	-0.1953705	0.3551932	-0.001514195	-0.001069473	-0.04548903	-0.0321288	0	0
24.77526	-0.1953705	0.3551932	0	0	0.04569851	0.03227676	0	0
24.79187	-0.1953705	0.3551575	0	-0.00214911	0	-0.06507003	0	0
24.80839	-0.1953705	0.3551218	0	-0.002162823	0	-0.00041386	0	0
24.82496	-0.1953705	0.3551218	0	0	0	0.06536444	0	0
24.84153	-0.1953705	0.3551218	0	0	0	0	0	0
24.85842	-0.1953705	0.3551218	0	0	0	0	0	0
24.87466	-0.1953705	0.3551218	0	0	0	0	0	0
24.89123	-0.1953705	0.3551218	0	0	0	0	0	0
24.90779	-0.1953451	0.3551039	0.001528142	-0.001077524	0.0461194	-0.03251974	0	0
24.92447	-0.1953451	0.3551039	0	0	-0.04597649	0.03241897	0	0
24.94098	-0.1953451	0.3551039	0	0	0	0	0	0
24.95749	-0.1953451	0.3550682	0	-0.002161269	0	-0.06543439	0	0
24.9745	-0.1953451	0.3550682	0	0	0	0.06446648	0	0
24.99063	-0.1953198	0.3550503	0.00157063	-0.00110868	0.04740172	-0.03346004	0	0
25.00752	-0.1953198	0.3550503	0	0	-0.04756051	0.03357213	0	0
25.02376	-0.1953198	0.3550146	0	-0.002198585	0	-0.06635342	0	0
25.04033	-0.1952945	0.3549968	0.001528142	-0.001077524	0.0465806	0.03417201	0	0
25.05706	-0.1952945	0.3549968	0	0	-0.04589484	0.0323614	0	0
25.07346	-0.1952945	0.354961	0	-0.002178416	0	-0.0657485	0	0
25.09003	-0.1953198	0.3549432	-0.001528142	-0.001077524	-0.04634885	0.03339027	0	0
25.1066	-0.1953198	0.3549432	0	0	0.0461194	0.03251974	0	0
25.12316	-0.1953198	0.3549432	0	0	0	0	0	0
25.13973	-0.1953198	0.3549432	0	0	0	0	0	0
25.1563	-0.1953451	0.354961	-0.001529041	0.001077524	-0.04614655	0.03251974	0	0
25.17286	-0.1953451	0.354961	0	0	0.04614655	-0.03251974	0	0
25.18943	-0.1953451	0.354961	0	0	0	0	0	0
25.206	-0.1953451	0.354961	0	0	0	0	0	0
25.22268	-0.1953451	0.354961	0	0	0	0	0	0
25.23913	-0.1953451	0.354961	0	0	0	0	0	0
25.2557	-0.1953451	0.354961	0	0	0	0	0	0
25.27227	-0.1953451	0.354961	0	0	0	0	0	0
25.28883	-0.1953451	0.354961	0	0	0	0	0	0
25.3054	-0.1953451	0.354961	0	0	0	0	0	0
25.33926	-0.1953451	0.354961	0	0	0	0	0	0
25.35554	-0.1953198	0.3549432	0.001556457	-0.001096845	0.03104317	-0.02187631	0	0
25.37229	-0.1953198	0.3549432	0	0	-0.04713133	0.03321372	0	0
25.38867	-0.1953198	0.3549432	0	0	0	0	0	0
25.40524	-0.1953198	0.3549432	0	0	0	0	0	0
25.42183	-0.1953451	0.3549253	-0.001527458	-0.001076409	-0.04607226	-0.0324674	0	0
25.43837	-0.1953451	0.3549253	0	0	0.04610409	0.03248983	0	0
25.45494	-0.1953451	0.3549253	0	0	0	0	0	0
25.47151	-0.1953451	0.3549253	0	0	0	0	0	0
25.48837	-0.1953451	0.3549253	0	0	0	0	0	0
25.50464	-0.1953451	0.3549253	0	0	0	0	0	0
25.52139	-0.1953198	0.3549075	0.001511982	-0.001067281	0.04578722	-0.03232039	0	0
25.53777	-0.1953198	0.3549075	0	0	-0.04563171	0.03221062	0	0
25.55434	-0.1953198	0.3549075	0	0	0	0	0	0
25.57091	-0.1952945	0.3548896	0.001528317	-0.001077648	0.04612471	-0.03252349	0	0
25.58747	-0.1952945	0.3548896	0	0	-0.04612737	0.03252536	0	0
25.60404	-0.1952945	0.3548896	0	0	0	0	0	0
25.62096	-0.1953198	0.3548717	-0.001496104	-0.001054934	-0.0446742	-0.0315007	0	0
25.63717	-0.1953198	0.3548717	0	0	0.04515772	0.03184164	0	0
25.65374	-0.1953451	0.3548539	-0.001529041	-0.001077524	-0.04665141	-0.03287552	0	0
25.67031	-0.1953451	0.3548539	0	0	0.04614655	0.03251974	0	0
25.70344	-0.1953451	0.3548539	0	0	0	0	0	0
25.72007	-0.1953705	0.354836	-0.001522707	-0.001075485	-0.03060052	-0.02161308	0	0
25.73657	-0.1953958	0.3548182	-0.001534695	-0.001081509	-0.0003618154	-0.0001818125	0	0
25.75314	-0.1953958	0.3548182	0	0	0.04640266	0.03270023	0	0
25.77007	-0.1953705	0.3548003	0.00149631	-0.001054459	0.04467017	-0.03147933	0	0
25.78628	-0.1952692	0.3546931	0.006251103	-0.006613406	0.1434999	-0.1677694	0	0
25.80284	-0.1948892	0.3543895	0.02293112	-0.01832511	0.5089705	-0.3573684	0	0
25.81941	-0.1931156	0.3531394	0.1070695	-0.07546596	2.539447	-1.724614	0	0
25.83598	-0.1922283	0.3524072	0.05355601	-0.04419648	-1.615133	0.9437692	0	0
25.85254	-0.192279	0.3524072	-0.00306078	0	-1.708698	1.333852	0	0
25.88568	-0.1923297	0.3523715	-0.00153039	-0.001077524	0.03079151	-0.02167983	0	0
25.90224	-0.1923805	0.3523358	-0.00306078	-0.002156847	-0.03079151	-0.02171602	0	0
25.91881	-0.1924058	0.3523179	-0.00152994	-0.001077524	0.04620084	0.03257403	0	0
25.93538	-0.1924058	0.3523179	0	0	0.04617369	0.03251974	0	0
25.95195	-0.1924312	0.3523001	-0.001530664	-0.0010774	-0.04619286	-0.03251413	0	0
25.98508	-0.1924819	0.3522286	-0.001530566	-0.002156196	1.958222E-06	-0.02170625	0	0
26.00175	-0.1924058	0.3520322	0.004564296	-0.01178759	0.122394	-0.193413	0	0
26.01821	-0.1915436	0.3512464	0.05235995	-0.04772023	1.442559	-1.084512	0	0
26.03478	-0.1869237	0.3478177	0.2788629	-0.2069584	6.856791	-4.820524	0	0
26.05135	-0.1784753	0.3399248	0.509946	-0.4764186	6.974102	-8.132325	0	0
26.06791	-0.175951	0.3288352	0.1523671	-0.6693638	-10.79175	-5.823098	0	0
26.08448	-0.1757724	0.3138861	0.01077884	-0.9023303	-4.273143	-7.030942	0	0
26.10105	-0.1759765	0.2906194	-0.01231867	-1.404381	-0.6970843	-15.15192	0	0
26.11782	-0.1751345	0.2654826	0.0501835	-1.498289	1.87445	-2.816329	0	0
26.13418	-0.1741903	0.2469013	0.05772742	-1.135951	0.2276758	10.9354	0	0
26.15085	-0.1737818	0.2351674	0.02450963	-0.7041274	-1.005931	13.07687	0	0
26.16732	-0.1730414	0.2130426	0.04495693	-1.343343	0.6171009	-19.29156	0	0
26.18388	-0.1728882	0.197804	0.009249064	-0.9199086	-1.080901	12.81764	0	0
26.20045	-0.1728626	0.1878988	0.001541633	-0.5978802	-0.2326241	9.719396	0	0
26.21702	-0.1736542	0.1642236	-0.04777803	-1.42904	-1.48847	-25.08445	0	0
26.23391	-0.173935	0.1508181	-0.0166245	-0.7936251	0.9311038	18.99102	0	0
26.25015	-0.173986	0.1386008	-0.003142981	-0.7521568	0.406873	1.251515	0	0
26.26693	-0.1746752	0.1244401	-0.04106757	-0.8438628	-1.148401	-2.776963	0	0
26.28329	-0.175007	0.1126917	-0.02028662	-0.7183965	0.6271703	3.78658	0	0
26.29988	-0.1741903	0.1059551	0.04922171	-0.4060116	2.109789	9.481832	0	0
26.3165	-0.1740116	0.099851	0.01074768	-0.3671369	-1.158215	1.170276	0	0
26.33298	-0.1714322	0.09781449	0.1565022	-0.1235643	4.40243	7.356965	0	0
26.34955	-0.1709978	0.0974291	0.02621946	-0.02326166	-3.942154	3.035	0	0
26.36612	-0.1711	0.09735569	-0.006169231	-0.004431521	-0.9774925	0.5682947	0	0
26.38268	-0.1716366	0.09697026	-0.03239062	-0.02326704	-0.7914086	-0.5684898	0	0
26.39925	-0.1754152	0.094253	-0.2281052	-0.1640333	-5.907358	-4.248823	0	0
26.41582	-0.1766906	0.09333463	-0.07698452	-0.05543268	4.561094	3.277761	0	0
26.43255	-0.1809209	0.09028431	-0.2528339	-0.1823126	-5.281002	-3.81038	0	0
26.44956	-0.1844326	0.0877469	-0.2064308	-0.1491571	1.375197	0.9825922	0	0
26.46552	-0.1843817	0.08778369	0.003187575	0.002305458	6.358505	4.594422	0	0
26.48208	-0.1843817	0.08778369	0	0	-0.09801227	-0.07088874	0	0
26.49909	-0.1843817	0.08778369	0	0	0	0	0	0
26.51521	-0.1843817	0.08778369	0	0	0	0	0	0
26.53178	-0.1843563	0.0877653	0.001535337	-0.001109904	0.04697198	-0.03395631	0	0
26.54835	-0.1843309	0.0877469	0.001534438	-0.001110354	-2.714469E-05	-1.357235E-05	0	0
26.56492	-0.1843054	0.08772851	0.00153516	-0.001110226	2.181006E-05	3.857514E-06	0	0
26.59916	-0.1809209	0.08524483	0.09882998	-0.07252354	1.914665	-1.405343	0	0
26.61535	-0.1777616	0.08296229	0.195191	-0.1410218	1.910704	-1.358224	0	0
26.63191	-0.1701033	0.07743498	0.4623066	-0.3336675	8.155931	-5.882118	0	0
26.64848	-0.1641926	0.07317404	0.3567693	-0.2571905	-3.185304	2.308213	0	0
26.66505	-0.1573977	0.06824363	0.410141	-0.2976004	1.610759	-1.219572	0	0
26.68162	-0.152851	0.06489792	0.2744386	-0.2019472	-4.095507	2.88682	0	0
26.69818	-0.1462638	0.0600871	0.3976073	-0.2903822	3.717241	-2.668974	0	0
26.71475	-0.1414697	0.05638251	0.289407	-0.2236347	-3.26568	2.014559	0	0
26.73132	-0.1386572	0.05169122	0.1697631	-0.2831669	-3.611068	-1.796789	0	0
26.74788	-0.1423465	0.0425705	-0.2226895	-0.5505278	-11.84424	-8.068968	0	0
26.76445	-0.144718	0.03713594	-0.1431452	-0.328031	2.400652	6.714967	0	0
26.78102	-0.1500736	0.02661633	-0.3233026	-0.6350376	-5.437472	-9.266011	0	0
26.79758	-0.1548811	0.0152227	-0.2901814	-0.687721	0.9996564	-1.59008	0	0
26.81415	-0.1577057	0.006667073	-0.1704935	-0.5164187	3.612189	5.169914	0	0
26.83072	-0.1634498	-0.003040396	-0.3467101	-0.5859439	-5.318227	-2.098276	0	0
26.84728	-0.1662409	-0.007848189	-0.168476	-0.290199	5.379114	8.9256	0	0
26.86385	-0.171611	-0.01582025	-0.3241023	-0.4811394	-4.696539	-5.76226	0	0
26.88042	-0.1775321	-0.02036299	-0.3574786	-0.2742633	-1.007356	6.243893	0	0
26.94669	-0.1933944	-0.03220498	-0.2393626	-0.178696	1.425964	1.153744	0	0
26.96343	-0.1952185	-0.03361233	-0.1089487	-0.08405758	1.571032	1.140062	0	0
26.97982	-0.1977245	-0.03549615	-0.1528988	-0.1149384	-1.326494	-0.9320399	0	0
26.99639	-0.1977498	-0.03547712	-0.001526343	0.001148804	4.593019	3.522377	0	0
27.01296	-0.1977245	-0.03549615	0.00152564	-0.001148276	0.09208782	-0.06931005	0	0
27.02952	-0.1977245	-0.03549615	0	0	-0.04604656	0.03465702	0	0
27.04609	-0.1977498	-0.03547712	-0.001526343	0.001148804	-0.04607838	0.03468097	0	0
27.063	-0.1977498	-0.03547712	0	0	0.04559271	-0.03431543	0	0
27.07922	-0.1977498	-0.03547712	0	0	0	0	0	0
27.09602	-0.1977498	-0.03547712	0	0	0	0	0	0
27.11235	-0.1977498	-0.03547712	0	0	0	0	0	0
27.12904	-0.1977498	-0.03547712	0	0	0	0	0	0
27.14548	-0.1977751	-0.03545808	-0.001538936	0.001157827	-0.04644784	0.0349453	0	0
27.16206	-0.1977751	-0.03545808	0	0	0.04660344	-0.03506237	0	0
27.17862	-0.1977751	-0.03545808	0	0	0	0	0	0
27.19518	-0.1977751	-0.03545808	0	0	0	0	0	0
27.21175	-0.1977751	-0.03545808	0	0	0	0	0	0
27.22832	-0.1977751	-0.03545808	0	0	0	0	0	0
27.24488	-0.1977751	-0.03545808	0	0	0	0	0	0
27.26145	-0.1977751	-0.03545808	0	0	0	0	0	0
27.27815	-0.1977751	-0.03545808	0	0	0	0	0	0
27.29466	-0.1977751	-0.03545808	0	0	0	0	0	0
27.32866	-0.1977751	-0.03545808	0	0	0	0	0	0
27.34523	-0.1977751	-0.03545808	0	0	0	0	0	0
27.3618	-0.1977751	-0.03545808	0	0	0	0	0	0
27.37836	-0.1977751	-0.03545808	0	0	0	0	0	0
27.39493	-0.1977751	-0.03545808	0	0	0	0	0	0
27.4115	-0.1977751	-0.03545808	0	0	0	0	0	0
27.42807	-0.1977498	-0.03547712	0.001527242	-0.001149029	0.04609226	-0.03467777	0	0
27.44463	-0.1977498	-0.03547712	0	0	-0.04609226	0.03467777	0	0
27.4612	-0.1977498	-0.03547712	0	0	0	0	0	0
27.47779	-0.1977498	-0.03547712	0	0	0	0	0	0
27.49433	-0.1977498	-0.03547712	0	0	0	0	0	0
27.5109	-0.1977498	-0.03547712	0	0	0	0	0	0
27.52747	-0.1977498	-0.03547712	0	0	0	0	0	0
27.54403	-0.1977498	-0.03547712	0	0	0	0	0	0
27.5606	-0.1977751	-0.03545808	-0.001527242	0.001149029	-0.04609226	0.03467777	0	0
27.57717	-0.1977751	-0.03545808	0	0	0.04609226	-0.03467777	0	0
27.59374	-0.1977751	-0.03545808	0	0	0	0	0	0
27.6103	-0.1977751	-0.03545808	0	0	0	0	0	0
27.6269	-0.1977751	-0.03545808	0	0	0	0	0	0
27.64344	-0.1977751	-0.03545808	0	0	0	0	0	0
27.66	-0.1977751	-0.03545808	0	0	0	0	0	0
27.67657	-0.1977751	-0.03545808	0	0	0	0	0	0
27.69314	-0.1977751	-0.03545808	0	0	0	0	0	0
27.70971	-0.1977751	-0.03545808	0	0	0	0	0	0
27.72647	-0.1977751	-0.03545808	0	0	0	0	0	0
27.74299	-0.1977751	-0.03545808	0	0	0	0	0	0
27.7595	-0.1977751	-0.03545808	0	0	0	0	0	0
27.77601	-0.1977751	-0.03545808	0	0	0	0	0	0
27.79254	-0.1977751	-0.03545808	0	0	0	0	0	0
27.8091	-0.1977751	-0.03545808	0	0	0	0	0	0
27.82567	-0.1977751	-0.03545808	0	0	0	0	0	0
27.84224	-0.1979775	-0.03522968	-0.01221704	0.01378633	-0.3687109	0.4160722	0	0
27.85881	-0.1982051	-0.03486808	-0.01374158	0.02182616	-0.04601084	0.2426426	0	0
27.89196	-0.2008597	-0.03093131	-0.0800606	0.11873	-1.333727	1.948812	0	0
27.9086	-0.2055803	-0.02684772	-0.2837598	0.2454685	-4.0909	2.545295	0	0
27.92511	-0.2113737	-0.02024934	-0.3508577	0.3996132	-2.024202	4.65022	0	0
27.94166	-0.2154958	-0.00603737	-0.249043	0.8586272	3.079331	13.88264	0	0
27.95823	-0.2157469	0.009352384	-0.01515555	0.9288204	7.061583	2.11929	0	0
27.9748	-0.2149684	0.03312937	0.04699824	1.435347	1.875805	15.287	0	0
27.99136	-0.214466	0.052693	0.03032977	1.180999	-0.5031132	-7.67713	0	0
28.00793	-0.2127821	0.08032849	0.1016408	1.668082	2.152294	14.70104	0	0
28.0245	-0.211424	0.1019049	0.08197369	1.302357	-0.5935532	-11.03761	0	0
28.04119	-0.2107195	0.1162575	0.04219321	0.859595	-1.195896	-13.31047	0	0
28.05763	-0.2095616	0.1371628	0.0704485	1.271947	0.8527952	12.44553	0	0
28.1239	-0.2036882	0.2299241	0.08863341	1.399811	0.2198831	1.546066	0	0
28.14046	-0.2027794	0.2407669	0.05485389	0.6544736	-0.4077965	-8.997935	0	0
28.15728	-0.2001016	0.2666822	0.1592669	1.54136	3.127963	26.56898	0	0
28.1736	-0.1989386	0.2820001	0.07125562	0.9385317	-2.656185	-18.19338	0	0
28.19017	-0.1977751	0.2920854	0.07023065	0.608749	-0.03116527	-10.02732	0	0
28.20673	-0.1959781	0.3126536	0.108463	1.241497	1.153854	19.09636	0	0
28.2233	-0.1949399	0.3281388	0.0626682	0.9346884	-1.382089	-9.259493	0	0
28.23987	-0.1941799	0.3433533	0.04587213	0.9183528	-0.5069063	-0.4930096	0	0
28.25644	-0.1935465	0.3635163	0.03823682	1.217037	-0.2304341	9.01432	0	0
28.273	-0.1927354	0.3778447	0.04895629	0.864867	0.3235144	-10.62853	0	0
28.28988	-0.1916451	0.3948458	0.06462049	1.007624	0.4684319	4.269083	0	0
28.30639	-0.1893616	0.4059022	0.138294	0.6696063	2.206829	-10.12503	0	0
28.3227	-0.1865425	0.4153372	0.1727856	0.5782839	1.050696	-2.781896	0	0
28.33927	-0.181481	0.4265359	0.3055123	0.6759548	4.03637	2.970284	0	0
28.35584	-0.1747007	0.4320587	0.4092595	0.3333579	3.131097	-10.33959	0	0
28.3724	-0.165857	0.4381947	0.5338089	0.3703679	3.758908	1.116964	0	0
28.38897	-0.160297	0.4419464	0.3356011	0.226451	-5.981922	-4.343422	0	0
28.40554	-0.1579367	0.4433828	0.1424661	0.08670382	-5.828825	-4.217577	0	0
28.42211	-0.1574747	0.4434546	0.02788701	0.004335281	-3.458005	-2.485887	0	0
28.43867	-0.1574491	0.4434367	0.001548829	-0.001082921	-0.7948878	-0.1635217	0	0
28.45524	-0.1574747	0.4434187	-0.001548829	-0.00108472	-0.09348748	-5.428939E-05	0	0
28.47201	-0.1574491	0.4434367	0.001530329	0.001071764	0.09237086	0.06469179	0	0
28.48852	-0.1570127	0.4431314	0.02642697	-0.01848543	0.7480663	-0.5876327	0	0
28.50494	-0.1563194	0.4426107	0.04222181	-0.0317165	0.4796157	-0.4017659	0	0
28.52155	-0.1559086	0.4422875	0.02474407	-0.01946215	-0.5292461	0.3710758	0	0
28.55708	-0.1553949	0.4418207	0.01445388	-0.013136	-0.1973452	0.1213229	0	0
28.57365	-0.1553435	0.4417489	0.003101255	-0.004335281	-0.21788	0.1689037	0	0
28.59059	-0.1553435	0.4417129	0	-0.002119568	-0.09254657	0.06612054	0	0
28.60678	-0.1553435	0.4414975	0	-0.01330739	0	-0.3376686	0	0
28.62335	-0.1551894	0.4406717	0.009302865	-0.04984673	0.2839979	-1.115473	0	0
28.63992	-0.1545985	0.4395049	0.03566353	-0.07042763	0.7955664	-0.6211326	0	0
28.65648	-0.1539048	0.4371538	0.04187503	-0.1419112	0.1874636	-2.157378	0	0
28.67315	-0.1518483	0.4346059	0.1233606	-0.1528407	2.451619	-0.3288324	0	0
28.69016	-0.1477316	0.4310544	0.2420228	-0.2087965	3.523228	-1.661395	0	0
28.70619	-0.1442799	0.4286156	0.2154371	-0.1522173	-0.8048594	1.712888	0	0
28.72275	-0.1419855	0.4268048	0.1384933	-0.1092976	-2.361038	1.316999	0	0
28.73932	-0.1422434	0.4267331	-0.01556564	-0.004329884	-4.649509	3.167933	0	0
28.75589	-0.1425012	0.4263029	-0.01556474	-0.02596851	2.715172E-05	-0.6530551	0	0
28.77273	-0.1419081	0.425532	0.03522439	-0.04577764	1.520391	-0.5929934	0	0
28.78902	-0.1352999	0.4205858	0.4055495	-0.3035508	11.17708	-7.780056	0	0
28.80559	-0.1273077	0.4143701	0.482407	-0.3751799	2.338817	-2.179713	0	0
28.82215	-0.1237072	0.4110575	0.2173311	-0.19995	-8.000007	5.288449	0	0
28.83872	-0.1226704	0.4017149	0.06257735	-0.5639229	-4.670479	-10.98472	0	0
28.85529	-0.1252877	0.3942556	-0.1579774	-0.450245	-6.656355	3.430805	0	0
28.87186	-0.1290162	0.3874608	-0.2250541	-0.410132	-2.024381	1.210614	0	0
28.90499	-0.1430169	0.3769155	-0.422541	-0.3182591	-3.973444	1.848486	0	0
28.92156	-0.1447438	0.3756825	-0.1042365	-0.07442292	6.404299	4.905993	0	0
28.93813	-0.1540076	0.3692147	-0.559164	-0.3903965	-13.72974	-9.536102	0	0
28.95469	-0.158219	0.366285	-0.2541738	-0.1768177	9.204092	6.44545	0	0
28.97137	-0.1619122	0.3637128	-0.2214691	-0.1542484	0.9837448	0.6788771	0	0
28.98783	-0.1640646	0.3622123	-0.130803	-0.09118538	2.736624	1.903465	0	0
29.02096	-0.1646792	0.3617837	-0.01855087	-0.01293749	2.263643	1.577923	0	0
29.03792	-0.1646792	0.3617837	0	0	0.3703307	0.2582709	0	0
29.05409	-0.1646792	0.3617837	0	0	0	0	0	0
29.07066	-0.1647048	0.3618015	-0.001545231	0.001079323	-0.0471948	0.03296494	0	0
29.08723	-0.1647048	0.3618015	0	0	0.04663516	-0.03257403	0	0
29.10379	-0.1647048	0.3618015	0	0	0	0	0	0
29.12048	-0.1647048	0.3618015	0	0	0	0	0	0
29.13693	-0.1647048	0.3618015	0	0	0	0	0	0
29.1535	-0.1647048	0.3618015	0	0	0	0	0	0
29.17006	-0.1647048	0.3618015	0	0	0	0	0	0
29.18703	-0.1646792	0.3618194	0.001508754	0.001052088	0.04500066	0.03137997	0	0
29.2032	-0.1647048	0.3618372	-0.001583515	0.001104221	-0.09332487	0.00157337	0	0
29.23698	-0.1646792	0.3618551	0.0007576987	0.0005292424	0.0468679	-0.01151028	0	0
29.25357	-0.1646792	0.3618551	0	0	-0.0150406	-0.01050566	0	0
29.27012	-0.1646792	0.3618551	0	0	0	0	0	0
29.31806	-0.1646792	0.3618551	0	0	0	0	0	0
29.33463	-0.1646792	0.3618551	0	0	0	0	0	0
29.35119	-0.1646792	0.3618551	0	0	0	0	0	0
29.36776	-0.1646792	0.3618551	0	0	0	0	0	0
29.38467	-0.1646792	0.3618551	0	0	0	0	0	0
29.4009	-0.1646792	0.3618551	0	0	0	0	0	0
29.41746	-0.1646792	0.3618551	0	0	0	0	0	0
29.43403	-0.1646792	0.3618551	0	0	0	0	0	0
29.45072	-0.1646792	0.3618551	0	0	0	0	0	0
29.46716	-0.1646792	0.3618551	0	0	0	0	0	0
29.48374	-0.1646792	0.3618551	0	0	0	0	0	0
29.5003	-0.1646792	0.3618551	0	0	0	0	0	0
29.51686	-0.1646792	0.3618551	0	0	0	0	0	0
29.53343	-0.1646792	0.3618551	0	0	0	0	0	0
29.55029	-0.1646792	0.3618551	0	0	0	0	0	0
29.56656	-0.1646792	0.3618551	0	0	0	0	0	0
29.63283	-0.1647048	0.3618372	-0.0003863077	-0.0002698308	-0.004679895	-0.003268844	0	0
29.6494	-0.1647048	0.3618372	0	0	0.004663516	0.003257403	0	0
29.66637	-0.1647048	0.3618372	0	0	0	0	0	0
29.68253	-0.1647048	0.3618372	0	0	0	0	0	0
29.6991	-0.1647048	0.3618372	0	0	0	0	0	0
29.71591	-0.1647048	0.3618372	0	0	0	0	0	0
29.73223	-0.1647048	0.3618372	0	0	0	0	0	0
29.74893	-0.1647048	0.3618372	0	0	0	0	0	0
29.76544	-0.1647048	0.3618372	0	0	0	0	0	0
29.78195	-0.1647048	0.3618372	0	0	0	0	0	0
29.7985	-0.1647048	0.3618372	0	0	0	0	0	0
29.8482	-0.1647048	0.3618372	0	0	0	0	0	0
29.86477	-0.1647048	0.3618372	0	0	0	0	0	0
29.88153	-0.1647048	0.361873	0	0.002132541	0	0.06399918	0	0
29.8979	-0.1647048	0.3618372	0	-0.002181968	0	-0.1302196	0	0
29.91447	-0.1647304	0.3618551	-0.00154613	0.001079323	-0.04693247	0.0989958	0	0
29.93104	-0.1647304	0.3618551	0	0	0.0466623	-0.03257403	0	0
29.94761	-0.1647048	0.361873	0.001545596	0.001077152	0.04663814	0.0325029	0	0
29.96458	-0.1646792	0.3618551	0.001508076	-0.001051615	-0.001118402	-0.0634537	0	0
29.9811	-0.1647304	0.3618551	-0.003101717	0	-0.1376579	0.03140339	0	0
29.9973	-0.1647048	0.3618372	0.001580521	-0.001103331	0.143106	-0.03372176	0	0
30.01387	-0.1647048	0.3618372	0	0	-0.04822489	0.03366484	0	0
30.04775	-0.1647048	0.3618372	0	0	0	0	0	0
30.08817	-0.1647048	0.3618372	0	0	0	0	0	0
30.10468	-0.1647048	0.3618372	0	0	0	0	0	0
30.12104	-0.1647048	0.3618372	0	0	0	0	0	0
30.13761	-0.1647048	0.3618372	0	0	0	0	0	0
30.15418	-0.1647048	0.3618372	0	0	0	0	0	0
30.17074	-0.1647048	0.3618372	0	0	0	0	0	0
30.18731	-0.1647048	0.3618372	0	0	0	0	0	0
30.20388	-0.1647048	0.3618372	0	0	0	0	0	0
30.22045	-0.1647048	0.3618372	0	0	0	0	0	0
30.23701	-0.1647048	0.3618372	0	0	0	0	0	0
30.27031	-0.1647048	0.3618372	0	0	0	0	0	0
30.28671	-0.1647048	0.3618372	0	0	0	0	0	0
30.30328	-0.1647048	0.3618372	0	0	0	0	0	0
30.31985	-0.1647048	0.3618372	0	0	0	0	0	0
30.33642	-0.1647048	0.3618372	0	0	0	0	0	0
30.35298	-0.1647048	0.3618372	0	0	0	0	0	0
30.36955	-0.1647048	0.3618372	0	0	0	0	0	0
30.38639	-0.1647048	0.3618372	0	0	0	0	0	0
30.40268	-0.1647048	0.3618372	0	0	0	0	0	0
30.41925	-0.1647048	0.3618372	0	0	0	0	0	0
30.43582	-0.1647048	0.3618372	0	0	0	0	0	0
30.45238	-0.1647048	0.3618372	0	0	0	0	0	0
30.46895	-0.1647048	0.3618372	0	0	0	0	0	0
30.48552	-0.1647048	0.3618372	0	0	0	0	0	0
30.50209	-0.1647048	0.3618372	0	0	0	0	0	0
30.51865	-0.1647048	0.3618372	0	0	0	0	0	0
30.53522	-0.1647048	0.3618372	0	0	0	0	0	0
30.55179	-0.1647048	0.3618372	0	0	0	0	0	0
30.56835	-0.1647048	0.3618372	0	0	0	0	0	0
30.58492	-0.1647048	0.3618372	0	0	0	0	0	0
30.60155	-0.1647048	0.3618372	0	0	0	0	0	0
30.61806	-0.1647048	0.3618372	0	0	0	0	0	0
30.63462	-0.1647048	0.3618372	0	0	0	0	0	0
30.65119	-0.1647048	0.3618372	0	0	0	0	0	0
30.75059	-0.1647048	0.3618372	0	0	0	0	0	0
30.7842	-0.1647048	0.3618372	0	0	0	0	0	0
30.80077	-0.1647048	0.3618372	0	0	0	0	0	0
30.81734	-0.1647048	0.3618372	0	0	0	0	0	0
30.83422	-0.1647048	0.3618372	0	0	0	0	0	0
30.85052	-0.1646792	0.3618194	0.001569626	-0.001094536	0.04729247	-0.0329781	0	0
30.86703	-0.1646536	0.3618015	0.001551489	-0.001081259	-0.0005526401	0.0004045446	0	0
30.88363	-0.1646536	0.3618015	0	0	-0.04686719	0.03266253	0	0
30.90018	-0.164628	0.3617837	0.001547199	-0.001080069	0.04667306	-0.03258155	0	0
30.91677	-0.1646536	0.3617658	-0.001543997	-0.001076038	-0.09326027	0.0001216278	0	0
30.9333	-0.1646536	0.3617658	0	0	0.04662208	0.03249171	0	0
30.94987	-0.1646536	0.3617658	0	0	0	0	0	0
30.96644	-0.1646536	0.3617658	0	0	0	0	0	0
30.983	-0.164628	0.361748	0.00154613	-0.001077524	0.04666499	-0.03252162	0	0
31.01634	-0.1646024	0.3616586	0.0007678418	-0.002678955	-0.01559456	-0.03208785	0	0
31.03286	-0.1645	0.36148	0.006204336	-0.01081675	0.1090519	-0.1632379	0	0
31.04927	-0.1643207	0.3607834	0.01092297	-0.04244262	0.1433163	-0.9605528	0	0
31.06584	-0.1640902	0.3558004	0.01391337	-0.300775	0.09067322	-7.833008	0	0
31.0829	-0.1639109	0.342889	0.01051071	-0.7568517	-0.1011897	-13.56299	0	0
31.09897	-0.1628605	0.3316211	0.06535077	-0.7010391	1.655172	1.684525	0	0
31.11554	-0.1621685	0.3201378	0.0417644	-0.6931341	-0.7226114	0.2421843	0	0
31.1321	-0.1609893	0.3047033	0.07117686	-0.9316267	0.8876696	-7.197721	0	0
31.14869	-0.1601944	0.2929614	0.04793805	-0.7080925	-0.7010257	6.743169	0	0
31.16524	-0.1595019	0.2813562	0.04184374	-0.7012144	-0.1839374	0.2075928	0	0
31.1818	-0.156987	0.2674341	0.1518005	-0.8403394	3.320221	-4.200975	0	0
31.19837	-0.1545215	0.2588381	0.1488189	-0.5188594	-0.08998541	9.702285	0	0
31.21499	-0.1501508	0.2529967	0.2630262	-0.3515356	3.441633	5.042295	0	0
31.2315	-0.1420113	0.2473317	0.4927784	-0.3429624	6.933935	0.258738	0	0
31.24807	-0.1360233	0.2431709	0.3613958	-0.2511215	-3.970849	2.775761	0	0
31.26464	-0.1290162	0.2382726	0.4229949	-0.2956921	1.859066	-1.345145	0	0
31.28121	-0.1241736	0.2347725	0.2922996	-0.2112703	-3.944621	2.548002	0	0
31.29777	-0.1191176	0.2309119	0.3051808	-0.233024	0.3887578	-0.6565297	0	0
31.31456	-0.1157435	0.2238331	0.2009994	-0.4216921	-3.123524	-5.656569	0	0
31.33091	-0.1149645	0.2184755	0.04765807	-0.327764	-4.628118	2.83492	0	0
31.34747	-0.1175607	0.2140863	-0.1567051	-0.2649333	-6.209154	1.90898	0	0
31.36404	-0.119403	0.2117648	-0.1112022	-0.1401231	1.373281	3.76678	0	0
31.38061	-0.1211926	0.2076422	-0.1080103	-0.2488147	0.09632741	-3.280129	0	0
31.39717	-0.1245364	0.2026166	-0.2018522	-0.3033823	-2.832154	-1.646853	0	0
31.41374	-0.1278773	0.1995708	-0.2016598	-0.1838438	0.005805293	3.607886	0	0
31.43031	-0.1314999	0.1970467	-0.2186601	-0.1523518	-0.5130684	0.950429	0	0
31.44687	-0.1359199	0.1938905	-0.2668232	-0.190535	-1.453649	-1.152438	0	0
31.46344	-0.1428364	0.1889098	-0.4174803	-0.3006328	-4.547104	-3.322949	0	0
31.48001	-0.1480148	0.1852443	-0.3125675	-0.2212522	3.166277	2.395711	0	0
31.54628	-0.1663177	0.1722455	-0.2761998	-0.1961571	0.439042	0.302956	0	0
31.62911	-0.1914929	0.1535416	-0.3039296	-0.2258053	-0.1859823	-0.1988488	0	0
31.6458	-0.1916958	0.152997	-0.01215575	-0.03262752	2.931707	1.941026	0	0
31.66224	-0.1921269	0.1518168	-0.02621687	-0.0717697	-0.4243653	-1.181313	0	0
31.67881	-0.1904528	0.1481115	0.1010462	-0.2236546	3.855233	-4.601112	0	0
31.69538	-0.185958	0.1418395	0.2713085	-0.3785753	5.138526	-4.675514	0	0
31.71194	-0.1817356	0.1385644	0.2548659	-0.1976879	-0.4962386	5.459191	0	0
31.72851	-0.1802333	0.1374905	0.09068023	-0.06482324	-4.955135	4.009864	0	0
31.74537	-0.1751856	0.1338848	0.2994733	-0.2139203	6.247087	-4.460984	0	0
31.76164	-0.1715344	0.1312427	0.2243114	-0.1623158	-2.268521	1.557517	0	0
31.77821	-0.1679809	0.1287087	0.2144885	-0.1529518	-0.2990731	0.2851022	0	0
31.7949	-0.1648073	0.1264472	0.190139	-0.1354952	-0.7321299	0.5248753	0	0
31.81135	-0.1626555	0.1249145	0.1308614	-0.09320627	-1.789	1.276283	0	0
31.82791	-0.1608611	0.123637	0.1083056	-0.07711133	-0.6832933	0.4875705	0	0
31.84448	-0.1577827	0.1214462	0.1858136	-0.1322364	2.339196	-1.663678	0	0
31.86105	-0.1556517	0.1198938	0.1286274	-0.09370233	-1.725881	1.162961	0	0
31.87761	-0.1556261	0.1199121	0.001549728	0.001102708	-3.835212	2.861222	0	0
31.89418	-0.1556261	0.1199121	0	0	-0.04677088	-0.03327981	0	0
31.91077	-0.1556517	0.1199304	-0.001548124	0.001101118	-0.04669828	0.03321459	0	0
31.92732	-0.1556517	0.1199304	0	0	0.04672247	-0.0332318	0	0
31.94401	-0.1556517	0.1199304	0	0	0	0	0	0
31.96053	-0.1556517	0.1199304	0	0	0	0	0	0
31.97704	-0.1556517	0.1199304	0	0	0	0	0	0
31.9936	-0.1556517	0.1199304	0	0	0	0	0	0
32.01015	-0.1556517	0.1199304	0	0	0	0	0	0
32.02707	-0.1556517	0.1199304	0	0	0	0	0	0
32.04328	-0.1556517	0.1199304	0	0	0	0	0	0
32.05985	-0.1556517	0.1199304	0	0	0	0	0	0
32.07642	-0.1556517	0.1199304	0	0	0	0	0	0
32.09298	-0.1556517	0.1199304	0	0	0	0	0	0
32.10963	-0.1556517	0.1199304	0	0	0	0	0	0
32.12617	-0.1556517	0.1199304	0	0	0	0	0	0
32.14268	-0.1556517	0.1199304	0	0	0	0	0	0
32.15925	-0.1556517	0.1199304	0	0	0	0	0	0
32.19344	-0.1556517	0.1199304	0	0	0	0	0	0
32.21001	-0.1556517	0.1199304	0	0	0	0	0	0
32.22657	-0.1556517	0.1199304	0	0	0	0	0	0
32.24323	-0.1556517	0.1199304	0	0	0	0	0	0
32.32597	-0.1556517	0.1199304	0	0	0	0	0	0
32.34254	-0.1556517	0.1199304	0	0	0	0	0	0
32.35931	-0.1556517	0.1199304	0	0	0	0	0	0
32.37567	-0.1556517	0.1199304	0	0	0	0	0	0
32.39224	-0.1556517	0.1199304	0	0	0	0	0	0
32.40882	-0.1556517	0.1199304	0	0	0	0	0	0
32.42537	-0.1556517	0.1199304	0	0	0	0	0	0
32.44194	-0.1556517	0.1199304	0	0	0	0	0	0
32.4585	-0.1556517	0.1199304	0	0	0	0	0	0
32.49164	-0.1556517	0.1199304	0	0	0	0	0	0
32.50841	-0.1556517	0.1199304	0	0	0	0	0	0
32.52477	-0.1556774	0.1199121	-0.001570517	-0.001116397	-0.04740374	-0.0336968	0	0
32.54144	-0.1556774	0.1199121	0	0	0.04755706	0.03380579	0	0
32.55795	-0.1556517	0.1198938	0.001555642	-0.001106275	0.0468846	-0.03334137	0	0
32.57447	-0.1556517	0.1198938	0	0	-0.04709033	0.03348767	0	0
32.59104	-0.1556517	0.1199304	0	0.002204967	0	0.0666381	0	0
32.60798	-0.1556517	0.1199304	0	0	0	-0.06579611	0	0
32.62417	-0.1556517	0.1199304	0	0	0	0	0	0
32.64101	-0.1556774	0.1199121	-0.001526031	-0.001084774	-0.04620999	-0.03284823	0	0
32.65752	-0.1556774	0.1199121	0	0	0.04576068	0.03252884	0	0
32.67387	-0.1556774	0.1199121	0	0	0	0	0	0
32.69054	-0.1556774	0.1199121	0	0	0	0	0	0
32.70706	-0.1556517	0.1199304	0.001555642	0.001105823	0.04687921	0.03332394	0	0
32.72358	-0.1556517	0.1199304	0	0	-0.04709577	-0.03347788	0	0
32.74014	-0.1556517	0.1199304	0	0	0	0	0	0
32.7571	-0.1556517	0.1199304	0	0	0	0	0	0
32.77328	-0.1556517	0.1199304	0	0	0	0	0	0
32.78984	-0.1556517	0.1199304	0	0	0	0	0	0
32.80663	-0.1556517	0.1199304	0	0	0	0	0	0
32.82298	-0.1556774	0.1199852	-0.001571616	0.003352447	-0.04743147	0.101177	0	0
32.83955	-0.1557545	0.1200765	-0.004650083	0.005512643	-0.09353288	0.0656331	0	0
32.85617	-0.1557802	0.1201678	-0.001545645	0.005494929	0.09354137	-0.0005337419	0	0
32.87268	-0.1559086	0.1204418	-0.007775504	0.01659051	-0.1880175	0.3348653	0	0
32.90642	-0.1578341	0.1226513	-0.05706747	0.06548367	-0.9808404	0.9729049	0	0
32.92321	-0.1609124	0.1256079	-0.1833196	0.176071	-2.498394	2.188405	0	0
32.93956	-0.1660362	0.1328646	-0.3135295	0.4440441	-3.929743	8.087447	0	0
32.95624	-0.1670855	0.1353237	-0.06290019	0.1474156	7.589345	-8.982256	0	0
32.97269	-0.1688505	0.1513084	-0.1073041	0.9717748	-1.340267	24.88207	0	0
32.98925	-0.1690551	0.1651658	-0.01234835	0.8364313	2.876035	-4.099307	0	0
33.00582	-0.1684157	0.1740188	0.0385903	0.5343692	1.537332	-9.11625	0	0
33.02239	-0.1684669	0.1792271	-0.003086864	0.314378	-1.257819	-6.639348	0	0
33.03896	-0.1693619	0.1867974	-0.05402372	0.4569413	-1.537277	4.302568	0	0
33.05552	-0.1701544	0.1937461	-0.0478356	0.4194276	0.1867578	-1.132165	0	0
33.07209	-0.1700777	0.2023463	0.004628497	0.5191049	1.583369	3.008266	0	0
33.08866	-0.1687738	0.2115849	0.07870603	0.5576413	2.235665	1.16303	0	0
33.10522	-0.169413	0.219015	-0.0385858	0.4484857	-3.539875	-3.294322	0	0
33.12179	-0.1709211	0.2292774	-0.0910292	0.6194397	-1.582745	5.159401	0	0
33.13836	-0.1711	0.237124	-0.01079683	0.4736196	2.421418	-4.40086	0	0
33.15493	-0.17133	0.2478696	-0.01388099	0.6486093	-0.09308031	5.2812	0	0
33.17149	-0.1723263	0.2565627	-0.06013718	0.5247165	-1.396015	-3.739092	0	0
33.18806	-0.1730414	0.2627249	-0.04316303	0.3719473	0.512281	-4.610583	0	0
33.20463	-0.1731946	0.2782257	-0.009248	0.935631	1.023558	17.012	0	0
33.2212	-0.1734755	0.2845756	-0.01695257	0.383282	-0.2325243	-16.66993	0	0
33.23776	-0.1749304	0.2991815	-0.08782002	0.8816144	-2.138784	15.0397	0	0
33.25433	-0.1755683	0.3038456	-0.03850395	0.2815252	1.488362	-18.11073	0	0
33.2709	-0.17794	0.31076	-0.143156	0.4173508	-3.158406	4.099225	0	0
33.28746	-0.1817101	0.3135825	-0.2275663	0.1703675	-2.547507	-7.45397	0	0
33.30403	-0.1853225	0.316119	-0.2180439	0.153102	0.2873846	-0.5210756	0	0
33.3206	-0.1891077	0.3187803	-0.2284765	0.160641	-0.3148552	0.2275294	0	0
33.35373	-0.190529	0.3197806	-0.0428923	0.03018687	3.733961	-2.624743	0	0
33.42	-0.1904275	0.3194948	0.001531514	-0.004312345	0.4469045	-0.3470628	0	0
33.43659	-0.1904528	0.3193698	-0.001529626	-0.007535856	-0.03694395	-0.03890355	0	0
33.45361	-0.1904782	0.3192804	-0.001491557	-0.00524979	0.001132888	0.06803025	0	0
33.4697	-0.190529	0.3191018	-0.003151844	-0.01109486	-0.0501422	-0.1765265	0	0
33.48627	-0.1906305	0.3189947	-0.006126058	-0.006468743	-0.09105131	0.141622	0	0
33.50284	-0.1908841	0.3187446	-0.0153129	-0.01509253	-0.2772593	-0.2602665	0	0
33.51941	-0.1909095	0.3185124	-0.001531739	-0.01401501	0.4159161	0.03251975	0	0
33.53597	-0.190808	0.3183695	0.006125158	-0.00862559	0.2310856	0.162653	0	0
33.55254	-0.190808	0.3183695	0	0	-0.1848576	0.2603208	0	0
33.58603	-0.1907827	0.3183517	0.0007577564	-0.0005330548	0.01513803	-0.01064907	0	0
33.60271	-0.190808	0.3183695	-0.001520883	0.001069887	-0.04541411	0.03194721	0	0
33.61916	-0.190808	0.3183695	0	0	0.04590035	-0.03228927	0	0
33.63573	-0.190808	0.3183695	0	0	0	0	0	0
33.6523	-0.1907827	0.3183517	0.001531739	-0.001077524	0.04622798	-0.03251974	0	0
33.66887	-0.190808	0.3183338	-0.001531739	-0.001079323	-0.09245597	-5.428939E-05	0	0
33.68543	-0.1908334	0.318316	-0.00153084	-0.001077524	2.714469E-05	5.428939E-05	0	0
33.70229	-0.1907827	0.3182802	0.003010589	-0.002120233	0.1358873	-0.03119961	0	0
33.71857	-0.190808	0.3182624	-0.001558656	-0.001096459	-0.1379001	0.03089755	0	0
33.73531	-0.1908334	0.3182445	-0.001514795	-0.001066231	0.001328147	0.000915344	0	0
33.75182	-0.1908334	0.3182088	0	-0.002163823	0.04554881	-0.03300379	0	0
33.76827	-0.1907827	0.3181373	0.003085312	-0.004343902	0.09361066	-0.06614523	0	0
33.78484	-0.1907573	0.3180838	0.00153084	-0.003234371	-0.04708754	0.03360953	0	0
33.8014	-0.1904782	0.3178516	0.01684553	-0.01401501	0.4621984	-0.3253603	0	0
33.81797	-0.1898185	0.3173514	0.03982342	-0.03018866	0.6934741	-0.4881219	0	0
33.83454	-0.1888539	0.3166727	0.05822228	-0.0409693	0.5552787	-0.3253604	0	0
33.8511	-0.1880159	0.3159761	0.05057888	-0.04204683	-0.2306784	-0.03251978	0	0
33.86767	-0.1880921	0.3159939	-0.004598815	0.001077524	-1.665266	1.301496	0	0
33.88424	-0.1880921	0.3159939	0	0	0.1387925	-0.03251974	0	0
33.90081	-0.1880921	0.3159939	0	0	0	0	0	0
33.93394	-0.1880921	0.3159939	0	0	0	0	0	0
33.95097	-0.1880921	0.3159939	0	0	0	0	0	0
33.96708	-0.1881175	0.3159761	-0.001576937	-0.001108668	-0.04759204	-0.03345966	0	0
33.98399	-0.1881175	0.3159761	0	0	0.04775699	0.03357563	0	0
34.00021	-0.1881175	0.3159761	0	0	0	0	0	0
34.01677	-0.1881175	0.3159761	0	0	0	0	0	0
34.03353	-0.1881175	0.3159761	0	0	0	0	0	0
34.0499	-0.1881175	0.3159761	0	0	0	0	0	0
34.06647	-0.1880921	0.3159582	0.001532639	-0.001079323	0.04652293	-0.03276263	0	0
34.08304	-0.1880921	0.3159582	0	0	-0.04625513	0.03257403	0	0
34.09961	-0.1880921	0.3159582	0	0	0	0	0	0
34.13274	-0.1880921	0.3159582	0	0	0	0	0	0
34.14931	-0.1880921	0.3159582	0	0	0	0	0	0
34.16587	-0.1880921	0.3159582	0	0	0	0	0	0
34.20079	-0.1880921	0.3159582	0	0	0	0	0	0
34.21736	-0.1880921	0.3159582	0	0	0	0	0	0
34.23392	-0.1880921	0.3159582	0	0	0	0	0	0
34.25049	-0.1880921	0.3159582	0	0	0	0	0	0
34.26706	-0.1880921	0.3159582	0	0	0	0	0	0
34.28363	-0.1880921	0.3159582	0	0	0	0	0	0
34.30019	-0.1881175	0.3159404	-0.001532992	-0.001077772	-0.04627111	-0.03253098	0	0
34.31676	-0.1881175	0.3159404	0	0	0.04627111	0.03253098	0	0
34.33374	-0.1881175	0.3159404	0	0	0	0	0	0
34.35025	-0.1881175	0.3159404	0	0	0	0	0	0
34.36646	-0.1881175	0.3159404	0	0	0	0	0	0
34.38302	-0.1881175	0.3159404	0	0	0	0	0	0
34.39959	-0.1881175	0.3159404	0	0	0	0	0	0
34.41616	-0.1881175	0.3159404	0	0	0	0	0	0
34.43272	-0.1881175	0.3159404	0	0	0	0	0	0
34.44932	-0.1881175	0.3159404	0	0	0	0	0	0
34.46586	-0.1881175	0.3159404	0	0	0	0	0	0
34.48243	-0.1881175	0.3159404	0	0	0	0	0	0
34.49899	-0.1881175	0.3159404	0	0	0	0	0	0
34.51556	-0.1881175	0.3159404	0	0	0	0	0	0
34.53213	-0.1881175	0.3159404	0	0	0	0	0	0
34.5489	-0.1881175	0.3159404	0	0	0	0	0	0
34.56526	-0.1881175	0.3159404	0	0	0	0	0	0
34.58183	-0.1881175	0.3159404	0	0	0	0	0	0
34.5984	-0.1881175	0.3159404	0	0	0	0	0	0
34.61496	-0.1881175	0.3159404	0	0	0	0	0	0
34.63153	-0.1881175	0.3159404	0	0	0	0	0	0
34.6481	-0.1881175	0.3159404	0	0	0	0	0	0
34.66498	-0.1881683	0.3159046	-0.003008677	-0.0021164	-0.0899426	-0.06326852	0	0
34.68123	-0.1881937	0.3158868	-0.001562867	-0.001098776	0.04363967	0.03071549	0	0
34.698	-0.1881937	0.3158868	0	0	0.04733089	0.03327606	0	0
34.71436	-0.1881937	0.3158868	0	0	0	0	0	0
34.78582	-0.1892347	0.3147614	-0.01456717	-0.01574761	-0.1658788	-0.1793207	0	0
34.80239	-0.1923297	0.311546	-0.1868191	-0.1940839	-1.956787	-2.025905	0	0
34.81895	-0.1935211	0.3058111	-0.0719117	-0.3461587	3.467913	-4.589627	0	0
34.8523	-0.1927354	0.2826262	0.02356172	-0.695241	1.912708	-6.993492	0	0
34.86887	-0.1934451	0.2770449	-0.04283743	-0.3368855	-1.330236	7.17927	0	0
34.88544	-0.1957756	0.2704236	-0.14067	-0.3996625	-2.952592	-1.894614	0	0
34.902	-0.2020723	0.2663599	-0.380071	-0.2452852	-7.225138	4.659118	0	0
34.91866	-0.2101155	0.2612204	-0.4829274	-0.3085848	-3.096013	-1.905342	0	0
34.93514	-0.2166758	0.2567598	-0.3980912	-0.270676	2.560362	1.144091	0	0
34.95171	-0.2214146	0.2540182	-0.2860359	-0.1654854	3.390814	3.183086	0	0
34.96827	-0.2271179	0.2503259	-0.3443276	-0.2229207	-1.759449	-1.733601	0	0
34.98484	-0.229889	0.2486227	-0.1672681	-0.1028028	5.344281	3.625584	0	0
35.0014	-0.2340515	0.2472779	-0.2512466	-0.08117049	-2.534478	0.652865	0	0
35.01797	-0.2374849	0.2474572	-0.2072417	0.01082291	1.328071	2.776366	0	0
35.03474	-0.2419299	0.2506306	-0.2650049	0.1891933	-1.732526	5.349968	0	0
35.0511	-0.2473055	0.25452	-0.3286324	0.2377729	-1.920503	1.466306	0	0
35.06767	-0.2501484	0.2565448	-0.171598	0.1222207	4.769509	-3.509595	0	0
35.08424	-0.2548856	0.2599845	-0.2859397	0.2076204	-3.450839	2.577366	0	0
35.1008	-0.2585539	0.2626532	-0.2214177	0.1610836	1.947276	-1.404484	0	0
35.11737	-0.261945	0.2650886	-0.2046882	0.147002	0.5048974	-0.4249825	0	0
35.13394	-0.2636628	0.266342	-0.1036852	0.07565335	3.048278	-2.153306	0	0
35.15051	-0.264423	0.266897	-0.04588742	0.03350039	1.74434	-1.272179	0	0
35.16707	-0.264423	0.266897	0	0	1.384885	-1.011044	0	0
35.18364	-0.2645946	0.2670223	-0.0103579	0.007564256	-0.3126021	0.2282897	0	0
35.20021	-0.2648152	0.2671835	-0.01331705	0.009726499	-0.08930715	0.06525665	0	0
35.21687	-0.2651339	0.2674162	-0.01911908	0.01396379	-0.174583	0.1275001	0	0
35.23334	-0.266163	0.2681681	-0.06249095	0.04565888	-1.308966	0.9565596	0	0
35.24991	-0.270078	0.2710322	-0.2363106	0.1728734	-5.261637	3.850868	0	0
35.26648	-0.2776392	0.2765439	-0.4563918	0.3326905	-6.642063	4.823291	0	0
35.28304	-0.281869	0.2796569	-0.2553139	0.1878975	6.068542	-4.369861	0	0
35.29961	-0.2908773	0.2863103	-0.5437396	0.4015999	-8.704704	6.44955	0	0
35.31618	-0.2986598	0.2920139	-0.4697556	0.3442717	2.232841	-1.73017	0	0
35.33296	-0.3037477	0.2957678	-0.3031975	0.2237014	4.994533	-3.615508	0	0
35.34931	-0.3108484	0.3009686	-0.4341942	0.3180254	-3.953489	2.846705	0	0
35.36598	-0.3159209	0.3046676	-0.304287	0.2218875	3.933739	-2.911168	0	0
35.38245	-0.3200997	0.3075621	-0.2538085	0.1758048	1.523446	-1.39078	0	0
