Time	Pos X	Pos Y	Vel X	Vel Y	Acc X	Acc YForce X	Force Y
0.01656239	-0.2045209	0.381276	0.003269961	-0.006095991	-5.229528E-05	9.749093E-05	0	0
0.04730245	-0.2045209	0.381276	0	0	5.230713E-05	-9.751303E-05	0	0
0.06387037	-0.2044957	0.3812582	0.001522682	-0.00107748	0.03218658	-0.02277585	0	0
0.08043829	-0.2045209	0.3812403	-0.001522682	-0.001079278	-0.09190546	-5.428714E-05	0	0
0.09700462	-0.2044957	0.3812224	0.001522827	-0.001079381	0.09191423	-3.105884E-06	0	0
0.1135856	-0.2044957	0.3812224	0	0	-0.04594123	0.03256319	0	0
0.1306027	-0.2044704	0.3812045	0.001482485	-0.001049035	0.04412407	-0.03122306	0	0
0.1467032	-0.2044704	0.3812045	0	0	-0.04476416	0.031676	0	0
0.1632724	-0.2044452	0.3811867	0.001522572	-0.001079201	0.04660513	-0.03303376	0	0
0.1798371	-0.2044452	0.3811867	0	0	-0.04595215	0.03257093	0	0
0.1964038	-0.2044452	0.3811867	0	0	0	0	0	0
0.212973	-0.2044452	0.3811867	0	0	0	0	0	0
0.2296609	-0.2044452	0.3811867	0	0	0	0	0	0
0.2461727	-0.20442	0.3811688	0.001528754	-0.001082943	0.0460471	-0.03261896	0	0
0.26267	-0.20442	0.3811688	0	0	-0.04631307	0.03280737	0	0
0.2792367	-0.20442	0.3811688	0	0	0	0	0	0
0.2958039	-0.20442	0.3811688	0	0	0	0	0	0
0.3123706	-0.20442	0.3811688	0	0	0	0	0	0
0.3289381	-0.20442	0.3811688	0	0	0	0	0	0
0.3455049	-0.20442	0.3811688	0	0	0	0	0	0
0.3620704	-0.20442	0.3811688	0	0	0	0	0	0
0.3786387	-0.20442	0.3811688	0	0	0	0	0	0
0.3952039	-0.20442	0.3811688	0	0	0	0	0	0
0.4117883	-0.20442	0.3811688	0	0	0	0	0	0
0.4283365	-0.20442	0.3811688	0	0	0	0	0	0
0.4449029	-0.20442	0.3811688	0	0	0	0	0	0
0.4649731	-0.20442	0.3811688	0	0	0	0	0	0
0.4815402	-0.20442	0.3811688	0	0	0	0	0	0
0.4983505	-0.2043947	0.3811509	0.001500727	-0.001061944	0.04496231	-0.03181621	0	0
0.5146741	-0.2043947	0.3811509	0	0	-0.04529284	0.0320501	0	0
0.5809426	-0.204319	0.3810973	0.001142291	-0.0008094974	0.01383051	-0.009801151	0	0
0.5975081	-0.204319	0.3810973	0	0	-0.01379011	0.009772518	0	0
0.6144396	-0.204319	0.3810973	0	0	0	0	0	0
0.6306428	-0.204319	0.3810973	0	0	0	0	0	0
0.6472079	-0.204319	0.3810973	0	0	0	0	0	0
0.6639953	-0.204319	0.3810973	0	0	0	0	0	0
0.6803414	-0.204319	0.3810973	0	0	0	0	0	0
0.6969073	-0.204319	0.3810973	0	0	0	0	0	0
0.7134748	-0.204319	0.3810973	0	0	0	0	0	0
0.7305149	-0.204319	0.3810973	0	0	0	0	0	0
0.7466071	-0.204319	0.3810973	0	0	0	0	0	0
0.7631739	-0.204319	0.3810973	0	0	0	0	0	0
0.7797406	-0.204319	0.3810973	0	0	0	0	0	0
0.7965604	-0.204319	0.3810973	0	0	0	0	0	0
0.8128741	-0.204319	0.3810973	0	0	0	0	0	0
0.8294404	-0.204319	0.3810973	0	0	0	0	0	0
0.8460072	-0.204319	0.3810973	0	0	0	0	0	0
0.8625735	-0.204319	0.3810973	0	0	0	0	0	0
0.8791403	-0.204319	0.3810973	0	0	0	0	0	0
0.895707	-0.204319	0.3810973	0	0	0	0	0	0
0.9122738	-0.204319	0.3810973	0	0	0	0	0	0
0.9288405	-0.204319	0.3810973	0	0	0	0	0	0
0.9454073	-0.204319	0.3810973	0	0	0	0	0	0
0.9619736	-0.204319	0.3810973	0	0	0	0	0	0
0.9786892	-0.204319	0.3810973	0	0	0	0	0	0
0.9951087	-0.204319	0.3810973	0	0	0	0	0	0
1.011676	-0.204319	0.3810973	0	0	0	0	0	0
1.028241	-0.204319	0.3810973	0	0	0	0	0	0
1.044807	-0.204319	0.3810973	0	0	0	0	0	0
1.061375	-0.204319	0.3810973	0	0	0	0	0	0
1.07794	-0.204319	0.3810973	0	0	0	0	0	0
1.094507	-0.204319	0.3810973	0	0	0	0	0	0
1.130153	-0.2042938	0.3810794	0.0007077333	-0.000500806	0.01355487	-0.009591691	0	0
1.146812	-0.2042938	0.3810794	0	0	-0.01353105	0.009574837	0	0
1.16332	-0.2042181	0.3810258	0.004585334	-0.003247644	0.1382484	-0.09791686	0	0
1.179854	-0.2041424	0.3809722	0.004579326	-0.003244553	-0.0001818404	9.355557E-05	0	0
1.19642	-0.2039153	0.3808113	0.01370939	-0.009709279	0.2758366	-0.1953117	0	0
1.212986	-0.2037891	0.3806862	0.007616807	-0.007552044	-0.1838863	0.0651097	0	0
1.229553	-0.2037639	0.3806684	0.001523688	-0.001077555	-0.183898	0.1954082	0	0
1.24612	-0.2037386	0.3806505	0.001523688	-0.001079354	0	-5.429095E-05	0	0
1.262686	-0.2037134	0.3806326	0.001523721	-0.001079377	9.943376E-07	-7.027121E-07	0	0
1.279402	-0.2036882	0.3806148	0.001509192	-0.001067934	-0.0004365295	0.0003438202	0	0
1.29582	-0.2036377	0.380579	0.00307508	-0.002178333	0.04725993	-0.03351286	0	0
1.312425	-0.203562	0.3805254	0.004559535	-0.003228736	0.04495233	-0.03180834	0	0
1.328953	-0.2033095	0.3803109	0.0152726	-0.0129754	0.3233314	-0.2941644	0	0
1.345519	-0.2029309	0.3800429	0.02285762	-0.01618167	0.2291933	-0.0968825	0	0
1.378653	-0.2027541	0.3799177	0.005334258	-0.003775941	-0.3525833	0.2496127	0	0
1.444919	-0.2025016	0.3797033	0.003810379	-0.003236293	-0.01533078	0.005429057	0	0
1.461486	-0.2024764	0.3796854	0.001523688	-0.001079354	-0.02760598	0.02603955	0	0
1.478053	-0.2024511	0.3796675	0.001524588	-0.001079354	2.714899E-05	0	0	0
1.49462	-0.2024511	0.3796675	0	0	-0.04601347	0.03257591	0	0
1.511186	-0.2024259	0.3796497	0.001523721	-0.001077578	0.04598781	-0.03252267	0	0
1.527753	-0.2024259	0.3796139	0	-0.002158708	-0.04598781	-0.03262985	0	0
1.54432	-0.2024259	0.3796139	0	0	0	0.06515182	0	0
1.560887	-0.2024259	0.3796139	0	0	0	0	0	0
1.577453	-0.2024259	0.3796139	0	0	0	0	0	0
1.594124	-0.2024259	0.3796139	0	0	0	0	0	0
1.610586	-0.2024006	0.3795961	0.001534314	-0.00108443	0.0463077	-0.03272957	0	0
1.627153	-0.2024006	0.3795961	0	0	-0.04645428	0.03283317	0	0
1.64372	-0.2024006	0.3795961	0	0	0	0	0	0
1.660286	-0.2024006	0.3795961	0	0	0	0	0	0
1.676853	-0.2024006	0.3795961	0	0	0	0	0	0
1.69342	-0.2024006	0.3795961	0	0	0	0	0	0
1.709986	-0.2023754	0.3795782	0.001524664	-0.001079408	0.04601645	-0.03257802	0	0
1.726553	-0.2023754	0.3795782	0	0	-0.04601695	0.03257837	0	0
1.746911	-0.2023754	0.3795782	0	0	0	0	0	0
1.763479	-0.2023754	0.3795782	0	0	0	0	0	0
1.780257	-0.2023754	0.3795782	0	0	0	0	0	0
1.79677	-0.2023754	0.3795782	0	0	0	0	0	0
1.813179	-0.2023754	0.3795782	0	0	0	0	0	0
1.829746	-0.2023754	0.3795782	0	0	0	0	0	0
1.846312	-0.2023754	0.3795782	0	0	0	0	0	0
1.862879	-0.2023754	0.3795782	0	0	0	0	0	0
1.879446	-0.2023754	0.3795782	0	0	0	0	0	0
1.896012	-0.2023754	0.3795782	0	0	0	0	0	0
1.912579	-0.2023754	0.3795782	0	0	0	0	0	0
1.929145	-0.2023754	0.3795782	0	0	0	0	0	0
1.945873	-0.2023754	0.3795782	0	0	0	0	0	0
1.962279	-0.2023754	0.3795782	0	0	0	0	0	0
1.978845	-0.2023754	0.3795782	0	0	0	0	0	0
1.995412	-0.2023754	0.3795782	0	0	0	0	0	0
2.011981	-0.2023754	0.3795782	0	0	0	0	0	0
2.029435	-0.2023754	0.3795782	0	0	0	0	0	0
2.045112	-0.2023754	0.3795782	0	0	0	0	0	0
2.061679	-0.2023754	0.3795782	0	0	0	0	0	0
2.078246	-0.2024006	0.3795603	-0.001524632	-0.001079385	-0.04601479	-0.03257685	0	0
2.094813	-0.2024006	0.3795603	0	0	0.04601479	0.03257685	0	0
2.111379	-0.2024006	0.3795603	0	0	0	0	0	0
2.128003	-0.2024006	0.3795603	0	0	0	0	0	0
2.144513	-0.2024006	0.3795603	0	0	0	0	0	0
2.161083	-0.2024006	0.3795603	0	0	0	0	0	0
2.177646	-0.2024006	0.3795603	0	0	0	0	0	0
2.194212	-0.2024006	0.3795603	0	0	0	0	0	0
2.210779	-0.2024006	0.3795603	0	0	0	0	0	0
2.227573	-0.2024006	0.3795603	0	0	0	0	0	0
2.244086	-0.2024006	0.3795603	0	0	0	0	0	0
2.277107	-0.2024006	0.3795603	0	0	0	0	0	0
2.293612	-0.2024006	0.3795603	0	0	0	0	0	0
2.310179	-0.2024006	0.3795603	0	0	0	0	0	0
2.326747	-0.2024006	0.3795603	0	0	0	0	0	0
2.343312	-0.2024006	0.3795603	0	0	0	0	0	0
2.359879	-0.2024006	0.3795603	0	0	0	0	0	0
2.381447	-0.2024006	0.3795603	0	0	0	0	0	0
2.398195	-0.2024006	0.3795603	0	0	0	0	0	0
2.414706	-0.2024006	0.3795603	0	0	0	0	0	0
2.431148	-0.2024006	0.3795603	0	0	0	0	0	0
2.44773	-0.2024006	0.3795603	0	0	0	0	0	0
2.464281	-0.2024006	0.3795603	0	0	0	0	0	0
2.480848	-0.2024006	0.3795603	0	0	0	0	0	0
2.497415	-0.2024006	0.3795603	0	0	0	0	0	0
2.513981	-0.2024006	0.3795603	0	0	0	0	0	0
2.530547	-0.2024006	0.3795603	0	0	0	0	0	0
2.547115	-0.2024006	0.3795603	0	0	0	0	0	0
2.563813	-0.2024006	0.3795603	0	0	0	0	0	0
2.580323	-0.2024006	0.3795603	0	0	0	0	0	0
2.596814	-0.2024006	0.3795603	0	0	0	0	0	0
2.613849	-0.2024006	0.3795603	0	0	0	0	0	0
2.629947	-0.2024006	0.3795603	0	0	0	0	0	0
2.64687	-0.2024006	0.3795603	0	0	0	0	0	0
2.663081	-0.2024006	0.3795603	0	0	0	0	0	0
2.679648	-0.2024006	0.3795603	0	0	0	0	0	0
2.696214	-0.2024006	0.3795603	0	0	0	0	0	0
2.712781	-0.2024006	0.3795603	0	0	0	0	0	0
2.729348	-0.2024006	0.3795603	0	0	0	0	0	0
2.745939	-0.2024006	0.3795603	0	0	0	0	0	0
2.76248	-0.2024006	0.3795603	0	0	0	0	0	0
2.779047	-0.2024006	0.3795603	0	0	0	0	0	0
2.795613	-0.2024006	0.3795603	0	0	0	0	0	0
2.812181	-0.2024006	0.3795603	0	0	0	0	0	0
2.828998	-0.2024006	0.3795603	0	0	0	0	0	0
2.845508	-0.2024006	0.3795603	0	0	0	0	0	0
2.878447	-0.2024006	0.3795603	0	0	0	0	0	0
2.895014	-0.2024006	0.3795603	0	0	0	0	0	0
2.91158	-0.2024259	0.3795782	-0.001524588	0.001079354	-0.04601347	0.03257591	0	0
2.928147	-0.2024259	0.3795782	0	0	0.04601414	-0.03257638	0	0
2.944714	-0.2024259	0.3795782	0	0	0	0	0	0
2.96128	-0.2024259	0.3795782	0	0	0	0	0	0
2.980519	-0.2024259	0.3795782	0	0	0	0	0	0
2.997118	-0.2024259	0.3795782	0	0	0	0	0	0
3.013657	-0.2024259	0.3795782	0	0	0	0	0	0
3.030641	-0.2024259	0.3795782	0	0	0	0	0	0
3.046788	-0.2024259	0.3795782	0	0	0	0	0	0
3.063665	-0.2024259	0.3795782	0	0	0	0	0	0
3.07992	-0.2024259	0.3795782	0	0	0	0	0	0
3.096488	-0.2024259	0.3795782	0	0	0	0	0	0
3.113055	-0.2024259	0.3795782	0	0	0	0	0	0
3.129621	-0.2024259	0.3795782	0	0	0	0	0	0
3.146223	-0.2024259	0.3795782	0	0	0	0	0	0
3.162754	-0.2024259	0.3795782	0	0	0	0	0	0
3.179747	-0.2024259	0.3795782	0	0	0	0	0	0
3.195887	-0.2024259	0.3795782	0	0	0	0	0	0
3.212454	-0.2024259	0.3795782	0	0	0	0	0	0
3.229283	-0.2024259	0.3795782	0	0	0	0	0	0
3.245587	-0.2024259	0.3795782	0	0	0	0	0	0
3.262154	-0.2024259	0.3795782	0	0	0	0	0	0
3.278816	-0.2024259	0.3795782	0	0	0	0	0	0
3.295286	-0.2024259	0.3795782	0	0	0	0	0	0
3.311854	-0.2024259	0.3795782	0	0	0	0	0	0
3.328421	-0.2024259	0.3795782	0	0	0	0	0	0
3.345362	-0.2024259	0.3795782	0	0	0	0	0	0
3.361553	-0.2024259	0.3795782	0	0	0	0	0	0
3.37812	-0.2024259	0.3795782	0	0	0	0	0	0
3.394897	-0.2024259	0.3795782	0	0	0	0	0	0
3.458462	-0.2024259	0.3795782	0	0	0	0	0	0
3.475029	-0.2024259	0.3795782	0	0	0	0	0	0
3.491597	-0.2024259	0.3795782	0	0	0	0	0	0
3.508163	-0.2024259	0.3795782	0	0	0	0	0	0
3.524989	-0.2024511	0.3795961	-0.001500198	0.001062714	-0.04492727	0.03182569	0	0
3.541501	-0.2025016	0.3796675	-0.003058488	0.00432827	-0.0467427	0.09795415	0	0
3.557863	-0.2027289	0.3798641	-0.01388939	0.01201604	-0.3294734	0.23386	0	0
3.574533	-0.2030319	0.3801501	-0.01817408	0.01715329	-0.1297116	0.1555213	0	0
3.590996	-0.203562	0.3806326	-0.0322004	0.02931028	-0.4233303	0.366912	0	0
3.608047	-0.2047984	0.3816513	-0.07251409	0.05974545	-1.20289	0.9081323	0	0
3.62413	-0.2064628	0.3829025	-0.1034915	0.07779516	-0.9349148	0.544749	0	0
3.640696	-0.2079246	0.384118	-0.08823524	0.07336941	0.4672815	-0.1355553	0	0
3.657262	-0.2115498	0.3867279	-0.21883	0.1575435	-3.941586	2.540524	0	0
3.673829	-0.2150689	0.3893381	-0.2124196	0.1575569	0.1934766	0.0004061128	0	0
3.693084	-0.2261184	0.3975823	-0.57386	0.4281683	-10.09006	7.554454	0	0
3.709651	-0.2328061	0.4029495	-0.4036664	0.3239596	4.751072	-2.909059	0	0
3.726218	-0.2392492	0.4085512	-0.3889044	0.3381213	0.4455153	0.4273998	0	0
3.742804	-0.2455978	0.4145313	-0.3827778	0.3605585	0.1847982	0.6767797	0	0
3.759655	-0.2509634	0.4208187	-0.3184186	0.37312	1.924818	0.3756818	0	0
3.775918	-0.2565852	0.4263029	-0.3456764	0.3372084	-0.8231473	-1.084475	0	0
3.792485	-0.2605205	0.4361669	-0.2375389	0.5954113	3.293864	7.864845	0	0
3.809051	-0.2609381	0.4452685	-0.02521084	0.5494053	6.408349	-1.388525	0	0
3.825701	-0.2590949	0.456897	0.1107072	0.6984205	4.091944	4.486249	0	0
3.842213	-0.2576436	0.4647246	0.0878913	0.47406	-0.6880201	-6.765664	0	0
3.858752	-0.2564375	0.4722362	0.07292598	0.4541679	-0.4527948	-0.6018613	0	0
3.875319	-0.2548117	0.4824447	0.09813668	0.616205	0.761518	4.894517	0	0
3.891885	-0.2529872	0.4927417	0.1101333	0.6215675	0.3620734	0.1618479	0	0
3.908451	-0.2517288	0.5006481	0.07596353	0.4772592	-1.031304	-4.355486	0	0
3.925272	-0.2502719	0.5084932	0.08661356	0.4664063	0.3189922	-0.3250671	0	0
3.941585	-0.2494319	0.5137537	0.05149401	0.3224683	-1.05994	-4.344182	0	0
3.958294	-0.2477013	0.5239638	0.1035721	0.6110417	1.577043	8.738653	0	0
3.974718	-0.2457711	0.5305154	0.1175205	0.3988975	0.4209733	-6.402709	0	0
3.99132	-0.2407141	0.5396301	0.304605	0.5490213	5.66477	4.545628	0	0
4.007852	-0.2377832	0.5423316	0.1772858	0.1634122	-3.842584	-11.63796	0	0
4.024418	-0.2344499	0.5497513	0.2012185	0.447893	0.7230901	8.595172	0	0
4.040985	-0.2335783	0.5558102	0.05260682	0.3657247	-4.485367	-2.479985	0	0
4.057865	-0.2359431	0.5629791	-0.14009	0.4246963	-5.761297	1.763146	0	0
4.074118	-0.2366644	0.5680291	-0.04438039	0.3107031	2.888606	-3.440422	0	0
4.090895	-0.2391746	0.5715038	-0.1496284	0.2071135	-3.186433	-3.136223	0	0
4.107252	-0.2413345	0.5731043	-0.1320448	0.09784859	0.5306897	-3.297717	0	0
4.123818	-0.244285	0.5755156	-0.1781058	0.1455551	-1.399043	1.449023	0	0
4.140385	-0.2451273	0.5763258	-0.05083758	0.04890913	3.841127	-2.916907	0	0
4.156951	-0.2476765	0.5842724	-0.1538781	0.4796722	-3.109859	13.00083	0	0
4.173519	-0.2468354	0.593477	0.05077136	0.5555887	6.176423	2.291199	0	0
4.190084	-0.2452759	0.6063657	0.09414129	0.7780324	1.308964	6.713654	0	0
4.206651	-0.2431698	0.6150559	0.1271254	0.5245517	0.9955205	-7.650504	0	0
4.223219	-0.2401431	0.6228555	0.1826846	0.4707728	1.676778	-1.623051	0	0
4.239785	-0.2382057	0.6328126	0.1169505	0.6010485	-1.983887	3.931785	0	0
4.256352	-0.2366147	0.6397963	0.09603823	0.4215454	-0.6311603	-5.417649	0	0
4.272918	-0.2330054	0.648325	0.2178667	0.5148236	3.67695	2.815263	0	0
4.289485	-0.2310613	0.6537616	0.1173526	0.3281763	-3.033698	-5.633351	0	0
4.306052	-0.2307122	0.6569762	0.02107288	0.1940299	-2.90581	-4.048662	0	0
4.322618	-0.2311611	0.6602706	-0.02709449	0.1988566	-1.453715	0.1456725	0	0
4.339185	-0.2300637	0.6644043	0.06624086	0.2495179	2.816947	1.529004	0	0
4.37509	-0.2333044	0.6716266	-0.09025841	0.2011534	-2.982577	-0.9217342	0	0
4.391626	-0.2339519	0.6788327	-0.03915915	0.4357753	0.974421	4.474045	0	0
4.408193	-0.2344499	0.6816984	-0.03005821	0.1729845	0.2749278	-7.938581	0	0
4.424759	-0.2376589	0.6842041	-0.1937045	0.1512463	-4.938997	-0.6560786	0	0
4.441326	-0.2413345	0.6872299	-0.2218648	0.1826447	-0.8499055	0.9476333	0	0
4.457892	-0.243269	0.6889937	-0.1167706	0.106467	3.171888	-2.299148	0	0
4.474459	-0.2443594	0.6915652	-0.06582181	0.1552228	1.537726	1.471539	0	0
4.491175	-0.2400438	0.6966786	0.2581682	0.3059034	9.73461	4.527353	0	0
4.507682	-0.2395224	0.7035992	0.03159032	0.4192436	-6.819879	3.411482	0	0
4.524159	-0.2404162	0.7071162	-0.05424776	0.2134532	-2.602396	-6.239049	0	0
4.540726	-0.2425748	0.7088383	-0.1302933	0.103949	-2.301353	-3.313904	0	0
4.557292	-0.2458206	0.7114533	-0.1959309	0.1578457	-1.981031	1.626676	0	0
4.573859	-0.2457711	0.711492	0.002988825	0.002338533	6.003582	-4.69335	0	0
4.590425	-0.2457216	0.7115307	0.002988997	0.002338668	5.192986E-06	4.061632E-06	0	0
4.606993	-0.2456968	0.7115114	0.001494862	-0.001169267	-0.04509438	-0.1058727	0	0
4.623559	-0.245672	0.711492	0.001494049	-0.001169334	-2.454898E-05	-2.030816E-06	0	0
4.640126	-0.245672	0.711492	0	0	-0.04509243	0.03529209	0	0
4.656693	-0.245672	0.711492	0	0	0	0	0	0
4.673299	-0.245672	0.711492	0	0	0	0	0	0
4.689826	-0.2456968	0.7115114	-0.00149767	0.001172168	-0.04520172	0.03537763	0	0
4.706392	-0.2456968	0.7115501	0	0.002338601	0.04525644	0.03524713	0	0
4.722959	-0.2457216	0.7115695	-0.001494905	0.001172898	-0.04511764	-0.03518198	0	0
4.789226	-0.2458949	0.7118215	-0.002615185	0.003802025	-0.01352443	0.03173979	0	0
4.805793	-0.2458949	0.7118215	0	0	0.03157149	-0.04589945	0	0
4.82236	-0.2458701	0.7118021	0.001494905	-0.0011693	0.04511764	-0.03529057	0	0
4.838926	-0.2458453	0.7117828	0.001494049	-0.001169334	-2.584936E-05	-1.015423E-06	0	0
4.855492	-0.2458453	0.7117828	0	0	-0.04509308	0.0352926	0	0
4.872059	-0.2458453	0.7117828	0	0	0	0	0	0
4.888626	-0.2458206	0.7117634	0.001494006	-0.0011693	0.04509049	-0.03529057	0	0
4.905192	-0.2457958	0.711744	0.001494905	-0.001172898	2.714548E-05	-0.0001085854	0	0
4.921759	-0.2457711	0.7117246	0.001494006	-0.0011693	-2.714548E-05	0.0001085854	0	0
4.941084	-0.2456968	0.7116665	0.003843888	-0.003007254	0.06547176	-0.05120857	0	0
4.958	-0.2456473	0.7116277	0.002927237	-0.002293869	-0.02529349	0.01968471	0	0
4.974218	-0.2453749	0.7114145	0.01679413	-0.01314571	0.4185037	-0.3275092	0	0
5.007353	-0.2452759	0.711337	0.002989275	-0.002338533	-0.2797159	0.2189765	0	0
5.02392	-0.2450777	0.7111431	0.01195924	-0.0117002	0.1804778	-0.1883589	0	0
5.044781	-0.2449539	0.7110463	0.00593585	-0.004642963	-0.1609332	0.1885555	0	0
5.061574	-0.2448301	0.7109494	0.007374393	-0.005771033	0.03820337	-0.02995811	0	0
5.077915	-0.2448053	0.71093	0.001516539	-0.001185508	-0.1767929	0.1383934	0	0
5.094597	-0.2446814	0.7107943	0.007423718	-0.008132056	0.178884	-0.2103586	0	0
5.111048	-0.2446319	0.7107556	0.003011688	-0.002355004	-0.1331591	0.1743568	0	0
5.127621	-0.244508	0.7106587	0.007474644	-0.005844483	0.1351435	-0.1056655	0	0
5.144182	-0.2444585	0.71062	0.002991744	-0.002339409	-0.1352981	0.1057864	0	0
5.160748	-0.2444089	0.7105812	0.002990796	-0.002338668	-2.859137E-05	2.235721E-05	0	0
5.177315	-0.2444089	0.7105812	0	0	-0.09026501	0.07058316	0	0
5.194169	-0.2444089	0.7105812	0	0	0	0	0	0
5.210448	-0.2443842	0.7105619	0.001521265	-0.001189918	0.04591385	-0.03591336	0	0
5.22719	-0.2443594	0.7105425	0.001480127	-0.001157045	-0.001245762	0.0009955044	0	0
5.243582	-0.2443346	0.7105231	0.001511818	-0.001181818	0.0009564581	-0.0007476846	0	0
5.260149	-0.2443098	0.7105038	0.001494905	-0.0011693	-0.0005131587	0.0003798135	0	0
5.276726	-0.2443098	0.710465	0	-0.002337121	-0.04510335	-0.03523475	0	0
5.293282	-0.244285	0.7104456	0.001496753	-0.001170041	0.04517339	0.03522354	0	0
5.309848	-0.244285	0.7104069	0	-0.002338668	-0.04518835	-0.03528192	0	0
5.326416	-0.2442603	0.7103875	0.001495762	-0.001169267	0.04514349	0.03529362	0	0
5.342981	-0.244285	0.7103682	-0.001495891	-0.001169368	-0.09029216	-3.046268E-06	0	0
5.359548	-0.244285	0.7102907	0	-0.004677201	0.04514868	-0.1058727	0	0
5.376115	-0.244285	0.7102132	0	-0.004677201	0	0	0	0
5.392811	-0.2442355	0.709942	0.002968455	-0.0162435	0.08924269	-0.3477256	0	0
5.409248	-0.2441116	0.7094966	0.007536914	-0.02709445	0.1378803	-0.3274918	0	0
5.425832	-0.2436655	0.7089932	0.02689662	-0.03035596	0.5862766	-0.09876939	0	0
5.442382	-0.2413097	0.7069616	0.1423515	-0.1227598	3.484536	-2.788834	0	0
5.458949	-0.2402176	0.7054536	0.06591696	-0.09102291	-2.308028	0.9583321	0	0
5.475867	-0.2382803	0.7036764	0.1145176	-0.1050481	1.451417	-0.4188494	0	0
5.492082	-0.2321582	0.695428	0.3775464	-0.5086823	7.93857	-12.18223	0	0
5.508649	-0.2278922	0.6885718	0.2575069	-0.4138496	-3.661742	2.892823	0	0
5.525216	-0.2254435	0.6838214	0.1478043	-0.2867365	-3.310879	3.836334	0	0
5.541782	-0.2239929	0.6740071	0.08756135	-0.5924412	-1.818214	-9.226583	0	0
5.558425	-0.2242431	0.6674996	-0.01503094	-0.3910051	-3.089306	6.065737	0	0
5.574938	-0.2243432	0.6620332	-0.006059594	-0.3310388	0.2705806	1.808613	0	0
5.591482	-0.2242681	0.6587932	0.004535825	-0.1958367	0.3205177	4.089944	0	0
5.624616	-0.2225414	0.6456674	0.05211182	-0.3961442	0.9576811	-4.032091	0	0
5.641182	-0.221089	0.6397963	0.08767396	-0.3544017	0.7155324	0.839885	0	0
5.657996	-0.2200116	0.6313693	0.06408018	-0.5011947	-0.7068233	-4.397627	0	0
5.674315	-0.2159478	0.6282977	0.2490166	-0.1882195	5.581633	9.446016	0	0
5.693372	-0.2095113	0.6234721	0.3377549	-0.2532216	2.508428	-1.837458	0	0
5.710033	-0.2039658	0.6193637	0.3328405	-0.2465871	-0.1375883	0.1857461	0	0
5.726544	-0.2004301	0.6165657	0.2141382	-0.1694608	-3.578375	2.325033	0	0
5.743073	-0.1948133	0.6094519	0.3398274	-0.4303905	3.804202	-7.89749	0	0
5.75964	-0.1949399	0.601705	-0.007644305	-0.4676059	-10.49896	-1.124475	0	0
5.776579	-0.1967882	0.5883541	-0.1091129	-0.7881678	-3.028334	-9.567186	0	0
5.792773	-0.1980281	0.5805458	-0.07656485	-0.4821744	0.9823431	9.235299	0	0
5.809341	-0.198281	0.574908	-0.01526838	-0.34029	1.870987	4.330818	0	0
5.826115	-0.1975221	0.5696098	0.04524579	-0.3158579	1.814959	0.7327739	0	0
5.842626	-0.1964085	0.5554072	0.067443	-0.8601881	0.6668805	-16.35355	0	0
5.859138	-0.1962313	0.5502269	0.01073192	-0.313731	-1.717327	16.54783	0	0
5.875607	-0.1958009	0.5388455	0.02613335	-0.691083	0.46698	-11.44153	0	0
5.892173	-0.1958769	0.5333207	-0.004584689	-0.333494	-0.9298557	10.82446	0	0
5.90874	-0.1955477	0.5305336	0.01986911	-0.1682389	0.738049	4.987625	0	0
5.925307	-0.1970919	0.525892	-0.09320942	-0.2801751	-3.412815	-3.378339	0	0
5.941874	-0.1984075	0.5234546	-0.07941258	-0.1471232	0.4164016	4.015633	0	0
5.958441	-0.2008597	0.5207823	-0.1480175	-0.1613012	-2.070529	-0.4279011	0	0
5.975007	-0.2032591	0.519056	-0.144831	-0.1042038	0.09617046	1.723252	0	0
5.991733	-0.204092	0.5182022	-0.0497967	-0.05104841	2.854543	1.596629	0	0
6.008141	-0.2040667	0.518184	0.001538434	-0.001107963	1.54932	1.507227	0	0
6.024707	-0.2039658	0.5181113	0.00609313	-0.004385902	0.1381289	-0.09940907	0	0
6.041274	-0.2039153	0.518075	0.003046565	-0.002191152	-0.0919508	0.06624149	0	0
6.05784	-0.2038143	0.5180024	0.006093854	-0.004385775	0.09197133	-0.06623673	0	0
6.074408	-0.2031581	0.5174938	0.03961205	-0.03069955	1.011596	-0.7941626	0	0
6.091303	-0.1997224	0.5150243	0.203345	-0.1461596	4.892956	-3.450381	0	0
6.107541	-0.1931663	0.5102521	0.4037694	-0.2939034	6.049081	-4.459109	0	0
6.124107	-0.1855767	0.5047957	0.4581202	-0.3293577	1.656832	-1.080791	0	0
6.140837	-0.1758489	0.4976978	0.5814821	-0.4242799	3.704996	-2.85085	0	0
6.15724	-0.1713044	0.4922717	0.2770405	-0.330788	-9.188464	2.821714	0	0
6.173808	-0.1712533	0.4901026	0.003084166	-0.1309255	-8.309031	6.061784	0	0
6.190373	-0.1747007	0.4783486	-0.2081025	-0.7095363	-6.3739	-17.46326	0	0
6.20694	-0.1788575	0.4689568	-0.250913	-0.5669056	-1.292098	4.304851	0	0
6.223507	-0.1810482	0.4612147	-0.1322317	-0.4673262	3.581912	3.005399	0	0
6.240074	-0.1831608	0.4518087	-0.1275194	-0.5677655	0.1422206	-3.031352	0	0
6.26084	-0.1867712	0.4462025	-0.1738605	-0.2699656	-1.24129	7.976852	0	0
6.277408	-0.1861359	0.4447476	0.03834455	-0.087813	5.683968	4.879004	0	0
6.293975	-0.1886	0.4429698	-0.1487264	-0.1073068	-5.645651	-0.5883074	0	0
6.310541	-0.1907827	0.4414257	-0.1317589	-0.09320939	0.5120946	0.4254731	0	0
6.327109	-0.1911632	0.4409769	-0.02296733	-0.02709023	3.283432	1.995538	0	0
6.343675	-0.1911632	0.4409769	0	0	0.6931655	0.8175965	0	0
6.360493	-0.1911632	0.4409769	0	0	0	0	0	0
6.377005	-0.1911632	0.4409769	0	0	0	0	0	0
6.393518	-0.1911378	0.4409948	0.001535835	0.001086454	0.04650552	0.03289815	0	0
6.409941	-0.1911378	0.4409948	0	0	-0.04663008	-0.03298626	0	0
6.426508	-0.1911378	0.4409948	0	0	0	0	0	0
6.443074	-0.1911378	0.4409948	0	0	0	0	0	0
6.459641	-0.1911378	0.4409948	0	0	0	0	0	0
6.476207	-0.1911378	0.4409948	0	0	0	0	0	0
6.492774	-0.1911378	0.4409948	0	0	0	0	0	0
6.509341	-0.1911378	0.4409948	0	0	0	0	0	0
6.52611	-0.1911378	0.4409948	0	0	0	0	0	0
6.542475	-0.1911378	0.4409948	0	0	0	0	0	0
6.559134	-0.1911378	0.4409589	0	-0.002155666	0	-0.06527606	0	0
6.575608	-0.1911378	0.4409589	0	0	0	0.06506094	0	0
6.592175	-0.1911125	0.440941	0.001530884	-0.001082952	0.04633353	-0.03277648	0	0
6.608741	-0.1910617	0.4409051	0.003062667	-0.002167703	0.04623064	-0.03273879	0	0
6.625308	-0.1908841	0.4407794	0.01071889	-0.007584262	0.2310718	-0.1634768	0	0
6.641875	-0.1906812	0.4406358	0.01225067	-0.008669012	0.04623065	-0.03273878	0	0
6.658705	-0.1904528	0.4404742	0.01356779	-0.009599447	0.0394385	-0.02786007	0	0
6.675008	-0.1903514	0.4404024	0.006225322	-0.004405528	-0.2216056	0.1567596	0	0
6.691575	-0.1903006	0.4403665	0.003063567	-0.002167703	-0.09619023	0.06808145	0	0
6.708239	-0.1902499	0.4403306	0.003044789	-0.002153261	-0.0005650652	0.0004346046	0	0
6.724751	-0.1901991	0.4402947	0.003073652	-0.002174839	0.0008699808	-0.0006504101	0	0
6.741275	-0.1901991	0.4402947	0	0	-0.09303748	0.06583098	0	0
6.757842	-0.1901737	0.4402768	0.001531827	-0.001082983	0.04629194	-0.03272783	0	0
6.807541	-0.1901991	0.4402947	-0.0005105993	0.0003609874	-0.03082161	0.0217905	0	0
6.824108	-0.1901991	0.4402947	0	0	0.007705237	-0.005447507	0	0
6.840832	-0.1901991	0.4402947	0	0	0	0	0	0
6.857241	-0.1901991	0.4402947	0	0	0	0	0	0
6.873858	-0.1901991	0.4402947	0	0	0	0	0	0
6.890375	-0.1901991	0.4402947	0	0	0	0	0	0
6.906941	-0.1901991	0.4402947	0	0	0	0	0	0
6.923508	-0.1901991	0.4402947	0	0	0	0	0	0
6.940074	-0.1901737	0.4402768	0.001531827	-0.001082983	0.04623264	-0.03268591	0	0
6.956914	-0.1901737	0.4402768	0	0	-0.04585516	0.03241903	0	0
6.975947	-0.1901737	0.4402768	0	0	0	0	0	0
6.992941	-0.1901484	0.4402588	0.001493273	-0.001057479	0.04144822	-0.02935206	0	0
7.009083	-0.1901484	0.4402588	0	0	-0.04506512	0.03191341	0	0
7.025648	-0.190123	0.4402409	0.00153196	-0.001083077	0.04683927	-0.03311479	0	0
7.042476	-0.1900976	0.4402229	0.00150804	-0.001066166	-0.0007163083	0.0005064204	0	0
7.058781	-0.1900722	0.4402049	0.001556331	-0.001102135	0.001457483	-0.001085585	0	0
7.075499	-0.1900468	0.440187	0.001517977	-0.001073191	-0.00116145	0.0008764794	0	0
7.092009	-0.1899961	0.4401511	0.003074007	-0.00217509	0.046829	-0.03316185	0	0
7.108522	-0.18992	0.4400973	0.004610345	-0.003259457	0.04652277	-0.03283636	0	0
7.125533	-0.1897677	0.4399896	0.008951471	-0.006331465	0.1294929	-0.09163597	0	0
7.141614	-0.1895393	0.439828	0.01420404	-0.01004633	0.1587239	-0.112257	0	0
7.158181	-0.1895139	0.43981	0.001531783	-0.001084751	-0.388147	0.2744902	0	0
7.174769	-0.1895139	0.43981	0	0	-0.04620073	0.0327176	0	0
7.191581	-0.1895139	0.43981	0	0	0	0	0	0
7.20809	-0.1895139	0.43981	0	0	0	0	0	0
7.224447	-0.1895139	0.43981	0	0	0	0	0	0
7.241115	-0.1895139	0.43981	0	0	0	0	0	0
7.257626	-0.1895139	0.43981	0	0	0	0	0	0
7.274148	-0.1895139	0.43981	0	0	0	0	0	0
7.290714	-0.1895139	0.43981	0	0	0	0	0	0
7.307661	-0.1895139	0.43981	0	0	0	0	0	0
7.323848	-0.1895139	0.43981	0	0	0	0	0	0
7.340414	-0.1895139	0.43981	0	0	0	0	0	0
7.357197	-0.1895139	0.43981	0	0	0	0	0	0
7.373547	-0.1895139	0.43981	0	0	0	0	0	0
7.390114	-0.1895139	0.43981	0	0	0	0	0	0
7.406681	-0.1895139	0.43981	0	0	0	0	0	0
7.423248	-0.1895139	0.43981	0	0	0	0	0	0
7.439814	-0.1895139	0.43981	0	0	0	0	0	0
7.45638	-0.1894885	0.439828	0.001532683	0.001084751	0.04625979	0.0327402	0	0
7.472947	-0.1894885	0.439828	0	0	-0.04625779	-0.03273879	0	0
7.489513	-0.1894885	0.439828	0	0	0	0	0	0
7.506081	-0.1894885	0.439828	0	0	0	0	0	0
7.522814	-0.1894885	0.439828	0	0	0	0	0	0
7.539214	-0.1894885	0.439828	0	0	0	0	0	0
7.55578	-0.1894885	0.439828	0	0	0	0	0	0
7.572347	-0.1894885	0.439828	0	0	0	0	0	0
7.607242	-0.1894885	0.439828	0	0	0	0	0	0
7.623809	-0.1894885	0.439828	0	0	0	0	0	0
7.640397	-0.1894885	0.439828	0	0	0	0	0	0
7.656943	-0.1894885	0.439828	0	0	0	0	0	0
7.67351	-0.1894885	0.439828	0	0	0	0	0	0
7.690076	-0.1894885	0.439828	0	0	0	0	0	0
7.706944	-0.1894631	0.43981	0.00150446	-0.001065401	0.04499737	-0.03186543	0	0
7.739776	-0.1894377	0.4397921	0.0007733756	-0.0005464461	-0.01471	0.0104418	0	0
7.756343	-0.1894124	0.4397742	0.001531739	-0.001082921	0.01535169	-0.01085995	0	0
7.77291	-0.1894124	0.4397742	0	0	-0.04622865	0.03268309	0	0
7.789476	-0.1894124	0.4397742	0	0	0	0	0	0
7.806043	-0.189387	0.4397562	0.001531783	-0.001082952	0.04623131	-0.03268497	0	0
7.82261	-0.189387	0.4397562	0	0	-0.04623064	0.0326845	0	0
7.839176	-0.1894124	0.4397742	-0.001531827	0.001082983	-0.04623264	0.03268591	0	0
7.855743	-0.1894124	0.4397742	0	0	0.04623264	-0.03268591	0	0
7.87231	-0.1894124	0.4397742	0	0	0	0	0	0
7.888877	-0.1894124	0.4397742	0	0	0	0	0	0
7.905584	-0.1894124	0.4397742	0	0	0	0	0	0
7.92201	-0.1894377	0.4397921	-0.001544946	0.001092258	-0.04662857	0.03296582	0	0
7.938577	-0.1894377	0.4397921	0	0	0.04682738	-0.03310638	0	0
7.955143	-0.1894377	0.4397921	0	0	0	0	0	0
7.971711	-0.1894377	0.4397921	0	0	0	0	0	0
7.988643	-0.1894377	0.4397921	0	0	0	0	0	0
8.004844	-0.1894377	0.4397921	0	0	0	0	0	0
8.021667	-0.1894124	0.4397742	0.001508382	-0.001066408	0.04567491	-0.0322916	0	0
8.037977	-0.1894124	0.4397742	0	0	-0.04552438	0.03218518	0	0
8.054543	-0.1894124	0.4397742	0	0	0	0	0	0
8.07111	-0.1894124	0.4397742	0	0	0	0	0	0
8.087677	-0.1894124	0.4397742	0	0	0	0	0	0
8.104243	-0.1894124	0.4397742	0	0	0	0	0	0
8.12081	-0.189387	0.4397562	0.001531827	-0.001082983	0.04623331	-0.03268638	0	0
8.137376	-0.189387	0.4397562	0	0	-0.04623331	0.03268638	0	0
8.153942	-0.189387	0.4397562	0	0	0	0	0	0
8.17051	-0.189387	0.4397562	0	0	0	0	0	0
8.187077	-0.189387	0.4397562	0	0	0	0	0	0
8.203795	-0.189387	0.4397562	0	0	0	0	0	0
8.220306	-0.189387	0.4397562	0	0	0	0	0	0
8.236818	-0.189387	0.4397562	0	0	0	0	0	0
8.257444	-0.189387	0.4397562	0	0	0	0	0	0
8.274012	-0.189387	0.4397562	0	0	0	0	0	0
8.290578	-0.189387	0.4397562	0	0	0	0	0	0
8.307367	-0.189387	0.4397562	0	0	0	0	0	0
8.323711	-0.189387	0.4397562	0	0	0	0	0	0
8.340391	-0.1894124	0.4397742	-0.001521405	0.001075615	-0.04606991	0.03257086	0	0
8.356903	-0.189387	0.4397562	0.00153687	-0.001086548	0.09213983	-0.06514172	0	0
8.373412	-0.189387	0.4397562	0	0	-0.04654225	0.0329048	0	0
8.389977	-0.189387	0.4397562	0	0	0	0	0	0
8.406543	-0.189387	0.4397562	0	0	0	0	0	0
8.423447	-0.1894124	0.4397742	-0.001501234	0.001061354	-0.04485292	0.03171046	0	0
8.43996	-0.1894124	0.4397742	0	0	0.0449246	-0.03176114	0	0
8.456243	-0.1894124	0.4397742	0	0	0	0	0	0
8.472982	-0.1894124	0.4397742	0	0	0	0	0	0
8.489493	-0.1894124	0.4397742	0	0	0	0	0	0
8.506005	-0.1894124	0.4397742	0	0	0	0	0	0
8.52251	-0.1894124	0.4397742	0	0	0	0	0	0
8.539076	-0.1894124	0.4397742	0	0	0	0	0	0
8.555642	-0.1894124	0.4397742	0	0	0	0	0	0
8.572208	-0.1894124	0.4397742	0	0	0	0	0	0
8.588775	-0.1894124	0.4397742	0	0	0	0	0	0
8.605574	-0.1894124	0.4397742	0	0	0	0	0	0
8.621909	-0.189387	0.4397562	0.001553469	-0.001098284	0.0468838	-0.03314626	0	0
8.638597	-0.189387	0.4397562	0	0	-0.04704085	0.0332573	0	0
8.655111	-0.189387	0.4397562	0	0	0	0	0	0
8.671623	-0.1893362	0.4397203	0.003074643	-0.002174902	0.09309839	-0.06585474	0	0
8.688176	-0.1890824	0.4395049	0.01533603	-0.01301348	0.3708286	-0.3277977	0	0
8.704742	-0.1886254	0.4391818	0.02758549	-0.01950089	0.3698596	-0.1958807	0	0
8.721309	-0.1886	0.4391639	0.001532727	-0.001084782	-0.7863192	0.5558313	0	0
8.738174	-0.1885746	0.4391459	0.001505513	-0.001063755	-0.0008140052	0.0006289636	0	0
8.754441	-0.1885492	0.439128	0.001560943	-0.00110292	0.001672966	-0.001182071	0	0
8.771198	-0.1885238	0.43911	0.001515281	-0.001072435	-0.001382696	0.0009231171	0	0
8.787575	-0.1884222	0.4390382	0.006201957	-0.004383954	0.1414482	-0.09994472	0	0
8.804222	-0.1883714	0.4390023	0.003050527	-0.002155419	-0.09542895	0.06748261	0	0
8.820708	-0.1883461	0.4389844	0.001540175	-0.001088246	-0.04558384	0.0322083	0	0
8.837275	-0.1883461	0.4389844	0	0	-0.04659791	0.03292481	0	0
8.853841	-0.1883461	0.4389844	0	0	0	0	0	0
8.904696	-0.1883714	0.4389664	-0.0004992968	-0.0003533755	-0.007405661	-0.005241331	0	0
8.921304	-0.1883714	0.4389664	0	0	0.007401055	0.005238071	0	0
8.93783	-0.1883714	0.4389664	0	0	0	0	0	0
8.974177	-0.1883714	0.4389664	0	0	0	0	0	0
8.990852	-0.1883714	0.4389664	0	0	0	0	0	0
9.007314	-0.1883714	0.4389664	0	0	0	0	0	0
9.023878	-0.1883714	0.4389664	0	0	0	0	0	0
9.040444	-0.1883714	0.4389664	0	0	0	0	0	0
9.057011	-0.1883714	0.4389664	0	0	0	0	0	0
9.073577	-0.1883714	0.4389664	0	0	0	0	0	0
9.090143	-0.1883714	0.4389664	0	0	0	0	0	0
9.10671	-0.1883714	0.4389664	0	0	0	0	0	0
9.123446	-0.1883714	0.4389664	0	0	0	0	0	0
9.139957	-0.1883714	0.4389664	0	0	0	0	0	0
9.156468	-0.1883714	0.4389664	0	0	0	0	0	0
9.17298	-0.1883714	0.4389664	0	0	0	0	0	0
9.189543	-0.1883714	0.4389664	0	0	0	0	0	0
9.206109	-0.1883714	0.4389664	0	0	0	0	0	0
9.222677	-0.1883714	0.4389664	0	0	0	0	0	0
9.239527	-0.1883461	0.4389485	0.001506962	-0.001064778	0.04509472	-0.03186269	0	0
9.255809	-0.1883461	0.4389485	0	0	-0.04548412	0.03213784	0	0
9.305508	-0.1881683	0.438787	0.003576663	-0.003250149	0.05420754	-0.04925892	0	0
9.322074	-0.1877873	0.4385177	0.0229963	-0.01625194	0.2930598	-0.1962088	0	0
9.338641	-0.1876604	0.438428	0.007664992	-0.005416403	-0.4627131	0.3270266	0	0
9.355207	-0.1837459	0.4356645	0.2362918	-0.1668154	6.90017	-4.871171	0	0
9.371774	-0.177991	0.4316103	0.3473866	-0.2447236	3.353041	-2.35141	0	0
9.38834	-0.1744965	0.4291535	0.2109361	-0.1483021	-4.118321	2.910174	0	0
9.404906	-0.1738839	0.4287232	0.03697884	-0.0259772	-5.250344	3.691986	0	0
9.421473	-0.173935	0.428759	-0.003081645	0.002164167	-1.209097	0.8493572	0	0
9.438039	-0.173935	0.428759	0	0	0.09300958	-0.06531846	0	0
9.454605	-0.173935	0.428759	0	0	0	0	0	0
9.471171	-0.173935	0.428759	0	0	0	0	0	0
9.504304	-0.173935	0.428759	0	0	0	0	0	0
9.52087	-0.173935	0.428759	0	0	0	0	0	0
9.537436	-0.173935	0.428759	0	0	0	0	0	0
9.554003	-0.173935	0.428759	0	0	0	0	0	0
9.570569	-0.173935	0.428759	0	0	0	0	0	0
9.587135	-0.173935	0.428759	0	0	0	0	0	0
9.603777	-0.173935	0.428759	0	0	0	0	0	0
9.620288	-0.173935	0.428759	0	0	0	0	0	0
9.636835	-0.173935	0.428759	0	0	0	0	0	0
9.65628	-0.173935	0.428759	0	0	0	0	0	0
9.672847	-0.173935	0.428759	0	0	0	0	0	0
9.689414	-0.173935	0.428759	0	0	0	0	0	0
9.70598	-0.1739605	0.4287769	-0.001540822	0.001082983	-0.04650345	0.03268544	0	0
9.722548	-0.1739605	0.4287769	0	0	0.04650345	-0.03268544	0	0
9.739114	-0.1739605	0.4287769	0	0	0	0	0	0
9.755884	-0.1739605	0.4287769	0	0	0	0	0	0
9.772247	-0.1739605	0.4287769	0	0	0	0	0	0
9.788814	-0.1739605	0.4287769	0	0	0	0	0	0
9.805419	-0.173986	0.4287949	-0.001537194	0.001080433	-0.04634059	0.03257097	0	0
9.821947	-0.173986	0.4287949	0	0	0.04639395	-0.03260847	0	0
9.838513	-0.173986	0.4287949	0	0	0	0	0	0
9.85508	-0.173986	0.4287949	0	0	0	0	0	0
9.871646	-0.173986	0.4287949	0	0	0	0	0	0
9.888212	-0.173986	0.4287949	0	0	0	0	0	0
9.904778	-0.173986	0.4287949	0	0	0	0	0	0
9.921345	-0.173986	0.4287949	0	0	0	0	0	0
9.937911	-0.173986	0.4287949	0	0	0	0	0	0
9.954477	-0.173986	0.4287949	0	0	0	0	0	0
9.971045	-0.173986	0.4287949	0	0	0	0	0	0
9.987611	-0.173986	0.4287949	0	0	0	0	0	0
10.00456	-0.173986	0.4287949	0	0	0	0	0	0
10.02075	-0.1739605	0.4287769	0.001577325	-0.001108639	0.04760376	-0.0334588	0	0
10.03731	-0.1739605	0.4287769	0	0	-0.0481638	0.03385243	0	0
10.05388	-0.173935	0.428759	0.001540822	-0.001082983	0.04650479	-0.03268638	0	0
10.0706	-0.173935	0.428759	0	0	-0.04628099	0.03252908	0	0
10.08712	-0.1739095	0.4287411	0.001545806	-0.001084681	0.04650527	-0.03263242	0	0
10.10363	-0.1739095	0.4287052	0	-0.002171417	-0.04680879	-0.03290764	0	0
10.12014	-0.1738839	0.4286515	0.001545449	-0.0032569	0.04679257	-0.03286587	0	0
10.13671	-0.1738584	0.4286335	0.001540822	-0.001082983	-0.0001398407	0.06571107	0	0
10.15366	-0.1738329	0.428508	0.001506681	-0.007403305	-0.00101861	-0.1885659	0	0
10.16984	-0.1736797	0.4282928	0.009465985	-0.01329787	0.2402261	-0.1779086	0	0
10.18641	-0.1687482	0.4246896	0.2976827	-0.2175033	8.801245	-6.235801	0	0
10.20662	-0.163296	0.4206217	0.2698233	-0.2013197	-0.7576117	0.4400971	0	0
10.22321	-0.1576287	0.4163044	0.3415096	-0.2601575	1.947928	-1.598793	0	0
10.23975	-0.1544701	0.4076205	0.1909749	-0.5250389	-4.543147	-7.994137	0	0
10.25673	-0.157218	0.3980117	-0.1618058	-0.5657886	-10.52367	-1.215588	0	0
10.27288	-0.1629117	0.3824556	-0.3525599	-0.9632488	-5.757302	-11.99607	0	0
10.28945	-0.1672134	0.3690897	-0.259665	-0.8068188	2.839452	4.781482	0	0
10.30602	-0.1711767	0.3543538	-0.2392385	-0.8895069	0.6165071	-2.495675	0	0
10.32278	-0.1768946	0.335389	-0.3410922	-1.131304	-3.055919	-7.254646	0	0
10.33915	-0.1825246	0.3227275	-0.3439239	-0.7734671	-0.08546236	10.79985	0	0
10.3558	-0.1869999	0.3156545	-0.268719	-0.4246997	2.277289	10.56108	0	0
10.37228	-0.1976486	0.3043638	-0.6461422	-0.6850985	-11.39065	-7.858851	0	0
10.38885	-0.2096623	0.2958929	-0.7251939	-0.5113335	-2.392118	5.258162	0	0
10.40542	-0.2176294	0.2902261	-0.4809192	-0.3420697	7.372651	5.108685	0	0
10.42198	-0.2250434	0.2849333	-0.4475365	-0.3194944	1.00755	0.6813637	0	0
10.43855	-0.2341511	0.2783688	-0.5497732	-0.3962549	-3.085687	-2.316769	0	0
10.45512	-0.2404659	0.2738241	-0.3811822	-0.2743365	5.088379	3.679715	0	0
10.47168	-0.2448301	0.2706742	-0.2634383	-0.1901391	3.55372	2.54123	0	0
10.4884	-0.2562159	0.2623129	-0.6812102	-0.5002496	-12.5531	-9.31812	0	0
10.50482	-0.2583325	0.2607368	-0.1289115	-0.0959916	16.66889	12.20088	0	0
10.52142	-0.2700291	0.2519392	-0.7044253	-0.5298374	-17.42723	-13.13735	0	0
10.53795	-0.2774688	0.2463275	-0.4500959	-0.3395021	7.675898	5.744498	0	0
10.55451	-0.2874201	0.2386854	-0.6006958	-0.4613076	-4.550485	-3.680443	0	0
10.57146	-0.295267	0.2327436	-0.4632153	-0.350751	4.103113	3.299567	0	0
10.58765	-0.3025252	0.2273193	-0.4482486	-0.334991	0.4517236	0.4756662	0	0
10.60421	-0.3108245	0.2211188	-0.5009732	-0.3742858	-1.609485	-1.199522	0	0
10.62099	-0.3165152	0.2168568	-0.3392339	-0.2540648	4.851004	3.605757	0	0
10.63735	-0.319483	0.2146081	-0.1814278	-0.1374659	4.762735	3.519062	0	0
10.65391	-0.3241723	0.2110809	-0.2830598	-0.2129141	-3.086805	-2.291541	0	0
10.67052	-0.3268891	0.2090466	-0.1635709	-0.1224763	3.601725	2.726046	0	0
10.68705	-0.3293417	0.207174	-0.1484244	-0.1133266	0.457133	0.2761469	0	0
10.70361	-0.3293888	0.207102	-0.00284418	-0.004349023	4.399446	3.293309	0	0
10.72018	-0.3293653	0.207084	0.001421109	-0.001086519	0.1287304	0.0984654	0	0
10.73707	-0.3293653	0.2070479	0	-0.002132326	-0.04247472	-0.03125755	0	0
10.75331	-0.3293417	0.2070299	0.001451312	-0.001109125	0.04380195	0.03088114	0	0
10.77009	-0.3292474	0.2069579	0.005617718	-0.004292768	0.1261673	-0.09640717	0	0
10.78645	-0.3288468	0.2066157	0.02449994	-0.02092354	0.569883	-0.5019321	0	0
10.80301	-0.3272902	0.205391	0.09395688	-0.07392979	2.109878	-1.610159	0	0
10.81958	-0.3208345	0.200436	0.3896698	-0.299084	8.924891	-6.795363	0	0
10.83615	-0.3187476	0.1988497	0.125975	-0.09575226	-7.958553	6.136741	0	0
10.85271	-0.3077443	0.1904802	0.6641979	-0.5052161	16.24453	-12.35835	0	0
10.86928	-0.296856	0.1821731	0.6572556	-0.5014428	-0.2095284	0.1138859	0	0
10.88942	-0.2906116	0.1774553	0.309982	-0.2341997	-9.459729	7.279698	0	0
10.90599	-0.2846831	0.1729513	0.3578406	-0.2718644	1.303633	-1.025959	0	0
10.92256	-0.2811404	0.1702727	0.2138496	-0.1616892	-4.345781	3.325189	0	0
10.93912	-0.274521	0.1650933	0.3995722	-0.3126475	5.605442	-4.556193	0	0
10.95572	-0.2700536	0.1608705	0.2691295	-0.2543896	-3.933031	1.756558	0	0
10.97226	-0.270469	0.1514174	-0.02512725	-0.5717112	-8.880688	-9.576783	0	0
10.98882	-0.2731795	0.1430399	-0.1636132	-0.5056911	-4.183729	1.994501	0	0
11.00539	-0.275228	0.1373266	-0.1236312	-0.3448175	1.206624	4.855033	0	0
11.02196	-0.2805331	0.1233267	-0.3202356	-0.845084	-5.933361	-15.09764	0	0
11.03878	-0.2840043	0.1144292	-0.2063269	-0.5288643	3.411457	9.470476	0	0
11.05509	-0.2857251	0.1087022	-0.1055245	-0.3511842	3.042485	5.362859	0	0
11.07166	-0.2909256	0.09294886	-0.3139158	-0.9509267	-6.339071	-18.24361	0	0
11.08832	-0.2926153	0.0877653	-0.1014243	-0.3111431	6.395335	19.2555	0	0
11.10483	-0.2972169	0.07909393	-0.2786709	-0.5251281	-5.343163	-6.450654	0	0
11.12136	-0.3003896	0.07500069	-0.1919555	-0.2476528	2.624479	8.39791	0	0
11.13793	-0.3056874	0.06463902	-0.3197967	-0.6254673	-3.862923	-11.41627	0	0
11.15449	-0.3086284	0.06088313	-0.1775145	-0.2267062	4.294209	12.03498	0	0
11.17106	-0.3152075	0.05565972	-0.3971382	-0.3153042	-6.628448	-2.673969	0	0
11.18762	-0.3184628	0.05308251	-0.1965021	-0.1555695	6.055558	4.821078	0	0
11.22091	-0.3214742	0.05072631	-0.09047217	-0.07078636	2.126878	1.700685	0	0
11.23742	-0.3214742	0.05072631	0	0	1.816748	1.421442	0	0
11.25389	-0.3214979	0.05074486	-0.001436906	0.001126768	-0.04356781	0.03416424	0	0
11.27046	-0.3214979	0.05074486	0	0	0.04349738	-0.03410901	0	0
11.28746	-0.3214979	0.05074486	0	0	0	0	0	0
11.30359	-0.3214979	0.05074486	0	0	0	0	0	0
11.32048	-0.3214979	0.05074486	0	0	0	0	0	0
11.33673	-0.3214979	0.05074486	0	0	0	0	0	0
11.35329	-0.3215216	0.05076342	-0.001430103	0.001120247	-0.04358713	0.03414325	0	0
11.37002	-0.3215216	0.05076342	0	0	0.04295414	-0.0336474	0	0
11.44422	-0.3215216	0.05076342	0	0	0	0	0	0
11.46079	-0.3215216	0.05076342	0	0	0	0	0	0
11.47736	-0.3215216	0.05076342	0	0	0	0	0	0
11.49411	-0.3214979	0.05074486	0.001414389	-0.001107938	0.04245298	-0.03325483	0	0
11.51062	-0.3214979	0.05074486	0	0	-0.04252114	0.03330822	0	0
11.55168	-0.3214979	0.05074486	0	0	0	0	0	0
11.56825	-0.3214979	0.05074486	0	0	0	0	0	0
11.58517	-0.3214979	0.05074486	0	0	0	0	0	0
11.60138	-0.3214979	0.05074486	0	0	0	0	0	0
11.61795	-0.3214979	0.05074486	0	0	0	0	0	0
11.63452	-0.3214979	0.05074486	0	0	0	0	0	0
11.65108	-0.3214979	0.05074486	0	0	0	0	0	0
11.66773	-0.3214979	0.05074486	0	0	0	0	0	0
11.68422	-0.3214979	0.05074486	0	0	0	0	0	0
11.70078	-0.3214979	0.05074486	0	0	0	0	0	0
11.71735	-0.3214979	0.05074486	0	0	0	0	0	0
11.73391	-0.3214979	0.05074486	0	0	0	0	0	0
11.75048	-0.3214979	0.05074486	0	0	0	0	0	0
11.76705	-0.3214979	0.05074486	0	0	0	0	0	0
11.78361	-0.3214979	0.05074486	0	0	0	0	0	0
11.80018	-0.3214979	0.05074486	0	0	0	0	0	0
11.81683	-0.3214979	0.05074486	0	0	0	0	0	0
11.83334	-0.3214979	0.05074486	0	0	0	0	0	0
11.84988	-0.3214979	0.05074486	0	0	0	0	0	0
11.86645	-0.3214979	0.05074486	0	0	0	0	0	0
11.88301	-0.3214979	0.05074486	0	0	0	0	0	0
11.89958	-0.3214979	0.05074486	0	0	0	0	0	0
11.91615	-0.3214979	0.05074486	0	0	0	0	0	0
11.93271	-0.3214979	0.05074486	0	0	0	0	0	0
11.94928	-0.3214979	0.05074486	0	0	0	0	0	0
11.96585	-0.3214979	0.05074486	0	0	0	0	0	0
11.98245	-0.3214979	0.05074486	0	0	0	0	0	0
11.99898	-0.3214979	0.05074486	0	0	0	0	0	0
12.01555	-0.3214979	0.05074486	0	0	0	0	0	0
12.03211	-0.3214979	0.05074486	0	0	0	0	0	0
12.04868	-0.3214979	0.05074486	0	0	0	0	0	0
12.06525	-0.3214979	0.05074486	0	0	0	0	0	0
12.08181	-0.3215216	0.05076342	-0.001430103	0.001120247	-0.04316184	0.03381011	0	0
12.09853	-0.3215453	0.05078198	-0.001417456	0.00111034	0.0003799958	-0.0002976642	0	0
12.16465	-0.3225635	0.05276719	-0.01540008	0.03002522	-0.1688044	0.3490732	0	0
12.18121	-0.3232498	0.05371306	-0.0414286	0.05709588	-0.3147932	0.327397	0	0
12.19778	-0.3251887	0.05541876	-0.1170377	0.1029619	-2.28202	1.384318	0	0
12.21434	-0.3267002	0.05701254	-0.09124223	0.09620628	0.7785547	-0.2038961	0	0
12.23285	-0.3320489	0.06280777	-0.2891128	0.3132503	-5.642708	6.189478	0	0
12.24941	-0.3343285	0.06796647	-0.1375957	0.3113798	4.320721	-0.05334027	0	0
12.26598	-0.3347981	0.07394908	-0.02834466	0.3611321	3.297298	1.501573	0	0
12.28256	-0.334258	0.08053115	0.0325768	0.3970658	1.838137	1.084198	0	0
12.29911	-0.3330599	0.08783887	0.07236587	0.4413741	1.200871	1.337266	0	0
12.31568	-0.3321195	0.09489574	0.05675687	0.4259049	-0.4712026	-0.4669813	0	0
12.33225	-0.3317196	0.10218	0.02414143	0.4397517	-0.9843641	0.4179088	0	0
12.34881	-0.3308254	0.1067245	0.05397825	0.2743239	0.9005808	-4.993194	0	0
12.36572	-0.3272195	0.1224687	0.2133318	0.9314507	4.761201	19.63377	0	0
12.38195	-0.3257321	0.1276328	0.09164023	0.3181688	-3.672766	-18.50942	0	0
12.39851	-0.3232262	0.1411847	0.1512581	0.8179938	1.81774	15.23958	0	0
12.41525	-0.3225635	0.1473302	0.03958547	0.3671167	-3.352821	-13.53697	0	0
12.43176	-0.3213558	0.1558464	0.07315616	0.5158552	1.009678	4.473485	0	0
12.44827	-0.3198388	0.1638249	0.09186399	0.4831685	0.5665277	-0.9898487	0	0
12.46478	-0.3159447	0.178269	0.2359478	0.8751679	4.363907	11.8726	0	0
12.48135	-0.3144223	0.1846302	0.09188997	0.3839629	-4.355948	-14.85281	0	0
12.49791	-0.3105382	0.197209	0.2344569	0.7593052	4.302801	11.32818	0	0
12.51448	-0.3064291	0.2062555	0.2480248	0.5460475	0.4094944	-6.436315	0	0
12.53105	-0.3018296	0.2152558	0.2776431	0.5432878	0.8939053	-0.08329016	0	0
12.54761	-0.2963506	0.2237433	0.3307362	0.5123365	1.602447	-0.9341665	0	0
12.56418	-0.2892583	0.2355264	0.4280883	0.7112334	2.938176	6.002894	0	0
12.58075	-0.2828642	0.2474393	0.3859738	0.7191035	-1.271056	0.2375263	0	0
12.59731	-0.2773227	0.256294	0.3345033	0.5344998	-1.553472	-5.571671	0	0
12.61388	-0.2719835	0.2655542	0.3222751	0.5589472	-0.3690582	0.7378446	0	0
12.63045	-0.2629513	0.277027	0.5452154	0.6925389	6.728547	4.031922	0	0
12.64701	-0.256536	0.2858811	0.3872528	0.5344648	-4.767596	-4.770962	0	0
12.66358	-0.2469096	0.2975015	0.5810816	0.7014529	5.850102	5.04	0	0
12.68014	-0.2408134	0.3075084	0.3679921	0.6040527	-6.431425	-2.939711	0	0
12.69695	-0.2369379	0.3141898	0.2306153	0.3975902	-4.116656	-6.186889	0	0
12.71328	-0.2309366	0.3272458	0.3675064	0.7995222	4.131382	12.13033	0	0
12.72997	-0.2268431	0.3359962	0.2452261	0.5241891	-3.702897	-8.337646	0	0
12.74641	-0.2206381	0.3452819	0.3774464	0.5648459	3.990648	1.227094	0	0
12.76298	-0.2164499	0.3520501	0.2528118	0.4085491	-3.776154	-4.735445	0	0
12.77954	-0.2133603	0.3591402	0.1864908	0.4279642	-2.001628	0.5859652	0	0
12.79611	-0.2106943	0.3688217	0.1609255	0.5844061	-0.7715844	4.721563	0	0
12.81268	-0.2094357	0.3766474	0.07596815	0.4723639	-2.564093	-3.381538	0	0
12.82924	-0.2076474	0.3877469	0.1079502	0.6700014	0.9652482	5.964882	0	0
12.84581	-0.2066141	0.3955254	0.06237407	0.4695398	-1.37557	-6.050292	0	0
12.86238	-0.2065889	0.4006235	0.001521933	0.3077399	-1.836627	-4.88341	0	0
12.87894	-0.2063116	0.4120602	0.01673947	0.6903586	0.4592925	11.54812	0	0
12.91478	-0.2038396	0.4253887	0.06898595	0.3719577	0.9970773	-6.076396	0	0
12.93134	-0.2036629	0.4278805	0.01066371	0.1504055	-1.113007	-4.228048	0	0
12.94791	-0.2088062	0.4318973	-0.3104672	0.2424695	-9.692028	2.778578	0	0
12.96448	-0.2091588	0.4321484	-0.02128155	0.01515729	8.72789	-6.860493	0	0
12.98104	-0.2091588	0.4321484	0	0	0.642297	-0.4574612	0	0
12.99766	-0.2091336	0.4321305	0.00151551	-0.001079689	0.04567115	-0.03253732	0	0
13.01418	-0.2091336	0.4321305	0	0	-0.04573424	0.03258226	0	0
13.03074	-0.2091336	0.4321305	0	0	0	0	0	0
13.04731	-0.2090832	0.4320946	0.003040093	-0.002165842	0.0917634	-0.06537464	0	0
13.06388	-0.2089321	0.431987	0.009120805	-0.0064961	0.1835215	-0.1306912	0	0
13.11358	-0.2055047	0.4294404	0.06896432	-0.05123961	0.9030923	-0.6752198	0	0
13.13014	-0.2034862	0.4279343	0.121827	-0.09090615	0.797722	-0.5985864	0	0
13.14671	-0.203562	0.4278446	-0.004571459	-0.005411629	-3.814822	2.580304	0	0
13.16328	-0.2037639	0.4277012	-0.01218595	-0.008656973	-0.2298059	-0.09794468	0	0
13.17984	-0.2038901	0.4276116	-0.0076173	-0.00540983	0.1378822	0.09799896	0	0
13.19641	-0.2048993	0.4268586	-0.0609232	-0.04545291	-1.608914	-1.208607	0	0
13.21298	-0.2053029	0.4262132	-0.02435752	-0.03894829	1.103523	0.1963043	0	0
13.22954	-0.2043947	0.4247075	0.05482649	-0.09090009	2.389847	-1.567954	0	0
13.24634	-0.2004301	0.4203888	0.2360831	-0.2571732	5.43374	-4.984561	0	0
13.26268	-0.1935211	0.4138866	0.4228216	-0.3979204	5.635941	-4.247883	0	0
13.27924	-0.1896662	0.411165	0.2326993	-0.1642896	-5.777647	7.099831	0	0
13.29581	-0.1851954	0.4080142	0.2698706	-0.1901895	1.121897	-0.7817038	0	0
13.31238	-0.1802078	0.4045063	0.3009672	-0.2116771	0.9383885	-0.6484227	0	0
13.32894	-0.1797493	0.4041842	0.02768361	-0.0194496	-8.247714	5.801436	0	0
13.34551	-0.1797493	0.4041842	0	0	-0.8356373	0.5870916	0	0
13.36208	-0.1797238	0.4041663	0.001537136	-0.001079323	0.04639219	-0.03257497	0	0
13.37864	-0.1796474	0.4041126	0.004613472	-0.003239955	0.09284668	-0.06520987	0	0
13.39521	-0.1786537	0.403379	0.05998503	-0.04428717	1.671213	-1.238879	0	0
13.41178	-0.1746497	0.4005698	0.2416941	-0.1695696	5.484308	-3.781249	0	0
13.42834	-0.1685436	0.3963303	0.3685848	-0.255915	3.829789	-2.60606	0	0
13.44491	-0.1647304	0.3936654	0.2301762	-0.1608608	-4.177422	2.868908	0	0
13.46148	-0.1627836	0.3923063	0.117519	-0.08204047	-3.400198	2.378939	0	0
13.47804	-0.1617328	0.3915732	0.06342552	-0.04425225	-1.63259	1.140484	0	0
13.49501	-0.1617328	0.3915732	0	0	-1.891323	1.319584	0	0
13.51118	-0.1617328	0.3915732	0	0	0	0	0	0
13.52804	-0.1617072	0.3915553	0.001520251	-0.00106064	0.04603364	-0.03211649	0	0
13.56338	-0.1617072	0.3915553	0	0	-0.02912394	0.02031903	0	0
13.57994	-0.1616303	0.3915016	0.004641988	-0.003237969	0.08942802	-0.06237955	0	0
13.59658	-0.161579	0.3914659	0.003081478	-0.002149243	-0.04699351	0.03278609	0	0
13.6131	-0.161579	0.3914659	0	0	-0.0929243	0.06481206	0	0
13.62964	-0.1615534	0.391448	0.001549795	-0.001081252	0.04687951	-0.03270663	0	0
13.64621	-0.1615534	0.391448	0	0	-0.04681603	0.03266235	0	0
13.66277	-0.1615534	0.391448	0	0	0	0	0	0
13.69591	-0.1615534	0.391448	0	0	0	0	0	0
13.71266	-0.1615534	0.391448	0	0	0	0	0	0
13.72904	-0.1615534	0.391448	0	0	0	0	0	0
13.74569	-0.1615534	0.391448	0	0	0	0	0	0
13.7622	-0.1615534	0.391448	0	0	0	0	0	0
13.77874	-0.1615277	0.3914301	0.001549259	-0.001080879	0.04687006	-0.03270004	0	0
13.79531	-0.1614508	0.3913407	0.004642256	-0.005396926	0.09341672	-0.1303561	0	0
13.81187	-0.1613226	0.3912513	0.007738292	-0.005396926	0.09344395	0	0	0
13.82844	-0.1601944	0.3904645	0.06810381	-0.04749295	1.82194	-1.270534	0	0
13.84501	-0.1590914	0.3896599	0.06658008	-0.04856874	-0.04598878	-0.03246925	0	0
13.86157	-0.1590914	0.3895884	0	-0.004315742	-2.009506	1.335635	0	0
13.87814	-0.1591171	0.3895705	-0.001548829	-0.001079323	-0.04674508	0.09767812	0	0
13.89479	-0.1591171	0.3895705	0	0	0.04662431	0.0324908	0	0
13.9113	-0.1591171	0.3895705	0	0	0	0	0	0
13.92784	-0.1591171	0.3895705	0	0	0	0	0	0
14.01067	-0.1592197	0.389642	-0.001238897	0.0008631086	-0.01246716	0.008685556	0	0
14.02739	-0.1592197	0.389642	0	0	0.01244494	-0.00867008	0	0
14.0439	-0.1592197	0.389642	0	0	0	0	0	0
14.06041	-0.1592454	0.3896599	-0.001553473	0.001083189	-0.04704913	0.0328059	0	0
14.07742	-0.1592197	0.389642	0.001507406	-0.001051068	0.09131313	-0.06366982	0	0
14.0935	-0.1592197	0.389642	0	0	-0.04554343	0.03175602	0	0
14.11007	-0.1592197	0.389642	0	0	0	0	0	0
14.12695	-0.1592197	0.389642	0	0	0	0	0	0
14.1432	-0.1592197	0.389642	0	0	0	0	0	0
14.15998	-0.1592197	0.389642	0	0	0	0	0	0
14.17649	-0.1592197	0.389642	0	0	0	0	0	0
14.19291	-0.1592197	0.389642	0	0	0	0	0	0
14.20951	-0.1592197	0.389642	0	0	0	0	0	0
14.22604	-0.1592197	0.389642	0	0	0	0	0	0
14.2426	-0.1592197	0.389642	0	0	0	0	0	0
14.25917	-0.1592197	0.389642	0	0	0	0	0	0
14.27574	-0.1592197	0.389642	0	0	0	0	0	0
14.35319	-0.1592197	0.389642	0	0	0	0	0	0
14.36976	-0.1592197	0.389642	0	0	0	0	0	0
14.38633	-0.1592197	0.389642	0	0	0	0	0	0
14.40315	-0.1592197	0.389642	0	0	0	0	0	0
14.41946	-0.1592197	0.389642	0	0	0	0	0	0
14.43617	-0.1592197	0.389642	0	0	0	0	0	0
14.45259	-0.1592197	0.3896063	0	-0.002175507	0	-0.0656607	0	0
14.46919	-0.1592197	0.3896063	0	0	0	0.06587876	0	0
14.48573	-0.1592454	0.3895884	-0.001550875	-0.001081377	-0.04680685	-0.03263697	0	0
14.50229	-0.159271	0.3895705	-0.001548918	-0.001079385	5.913253E-05	6.018056E-05	0	0
14.51886	-0.159271	0.3895705	0	0	0.04674777	0.03257685	0	0
14.53543	-0.159271	0.3895705	0	0	0	0	0	0
14.55199	-0.159271	0.3895705	0	0	0	0	0	0
14.56856	-0.1592967	0.3895527	-0.001548918	-0.001079385	-0.04674912	-0.03257778	0	0
14.58513	-0.1592967	0.3895527	0	0	0.04674912	0.03257778	0	0
14.60179	-0.1593223	0.3895348	-0.001539422	-0.001073391	-0.04633316	-0.03230668	0	0
14.61826	-0.1593223	0.3895348	0	0	0.04646119	0.03239595	0	0
14.63483	-0.1593223	0.3895348	0	0	0	0	0	0
14.65139	-0.1593223	0.3895348	0	0	0	0	0	0
14.66796	-0.1593223	0.3895348	0	0	0	0	0	0
14.68453	-0.1593223	0.3895348	0	0	0	0	0	0
14.70109	-0.1593223	0.3895348	0	0	0	0	0	0
14.71766	-0.1593223	0.3895348	0	0	0	0	0	0
14.73423	-0.1593223	0.3895348	0	0	0	0	0	0
14.75079	-0.1593223	0.3895348	0	0	0	0	0	0
14.7674	-0.1593223	0.3895348	0	0	0	0	0	0
14.78393	-0.1593223	0.3895348	0	0	0	0	0	0
14.80049	-0.1593223	0.3895348	0	0	0	0	0	0
14.83362	-0.1593223	0.3895348	0	0	0	0	0	0
14.85019	-0.1593223	0.3895348	0	0	0	0	0	0
14.86676	-0.1593223	0.3895348	0	0	0	0	0	0
14.89989	-0.1593223	0.3895348	0	0	0	0	0	0
14.9165	-0.1593223	0.3895348	0	0	0	0	0	0
14.93302	-0.1593223	0.3895348	0	0	0	0	0	0
14.94959	-0.1593223	0.3895348	0	0	0	0	0	0
14.96616	-0.1593223	0.3895348	0	0	0	0	0	0
15.00275	-0.1593223	0.3895348	0	0	0	0	0	0
15.01932	-0.1593223	0.3895348	0	0	0	0	0	0
15.03589	-0.1593223	0.3895348	0	0	0	0	0	0
15.0526	-0.1593223	0.3895348	0	0	0	0	0	0
15.06902	-0.1593223	0.3895348	0	0	0	0	0	0
15.08558	-0.1593223	0.3895348	0	0	0	0	0	0
15.10215	-0.1593223	0.3895348	0	0	0	0	0	0
15.11872	-0.1593223	0.3895348	0	0	0	0	0	0
15.13529	-0.1593223	0.3895348	0	0	0	0	0	0
15.15217	-0.1593223	0.3895348	0	0	0	0	0	0
15.16842	-0.1593223	0.3895348	0	0	0	0	0	0
15.1852	-0.1593223	0.3895348	0	0	0	0	0	0
15.20155	-0.1593223	0.3895348	0	0	0	0	0	0
15.21812	-0.1593223	0.3895348	0	0	0	0	0	0
15.23469	-0.1593223	0.3895348	0	0	0	0	0	0
15.25125	-0.1593223	0.3895348	0	0	0	0	0	0
15.26782	-0.1593223	0.3895348	0	0	0	0	0	0
15.28476	-0.1593223	0.3895348	0	0	0	0	0	0
15.30095	-0.1593223	0.3895348	0	0	0	0	0	0
15.31752	-0.1593223	0.3895348	0	0	0	0	0	0
15.33409	-0.1593223	0.3895348	0	0	0	0	0	0
15.35081	-0.1593223	0.3895348	0	0	0	0	0	0
15.36722	-0.1593223	0.3895348	0	0	0	0	0	0
15.38378	-0.1593223	0.3895348	0	0	0	0	0	0
15.40035	-0.1593223	0.3895348	0	0	0	0	0	0
15.41692	-0.1593223	0.3895348	0	0	0	0	0	0
15.43348	-0.1593223	0.3895348	0	0	0	0	0	0
15.45005	-0.1593223	0.3895348	0	0	0	0	0	0
15.46662	-0.1593223	0.3895348	0	0	0	0	0	0
15.48318	-0.1593223	0.3895348	0	0	0	0	0	0
15.49975	-0.1593223	0.3895348	0	0	0	0	0	0
15.51632	-0.1593223	0.3895348	0	0	0	0	0	0
15.53294	-0.1593223	0.3895348	0	0	0	0	0	0
15.54945	-0.1593223	0.3895348	0	0	0	0	0	0
15.56602	-0.1593223	0.3895348	0	0	0	0	0	0
15.58297	-0.1593223	0.3895348	0	0	0	0	0	0
15.60159	-0.1593223	0.3895348	0	0	0	0	0	0
15.61815	-0.1593223	0.3895348	0	0	0	0	0	0
15.63472	-0.1593223	0.3895348	0	0	0	0	0	0
15.65129	-0.1593223	0.3895348	0	0	0	0	0	0
15.66785	-0.1593223	0.3895348	0	0	0	0	0	0
15.68454	-0.1593223	0.3895348	0	0	0	0	0	0
15.70099	-0.1593223	0.3895348	0	0	0	0	0	0
15.71755	-0.1593223	0.3895348	0	0	0	0	0	0
15.73412	-0.1593223	0.3895348	0	0	0	0	0	0
15.78382	-0.1593223	0.3895348	0	0	0	0	0	0
15.80062	-0.1593223	0.3895348	0	0	0	0	0	0
15.81714	-0.1593223	0.3895348	0	0	0	0	0	0
15.83365	-0.1593223	0.3895348	0	0	0	0	0	0
15.85016	-0.1593223	0.3895348	0	0	0	0	0	0
15.86665	-0.1593223	0.3895348	0	0	0	0	0	0
15.88322	-0.1593223	0.3895348	0	0	0	0	0	0
15.89979	-0.1593223	0.3895348	0	0	0	0	0	0
15.91635	-0.1593223	0.3895348	0	0	0	0	0	0
15.93292	-0.1593223	0.3895348	0	0	0	0	0	0
15.94973	-0.1593223	0.3895348	0	0	0	0	0	0
15.96605	-0.1593223	0.3895348	0	0	0	0	0	0
15.98262	-0.1593223	0.3895348	0	0	0	0	0	0
15.99927	-0.1593223	0.3895348	0	0	0	0	0	0
16.01575	-0.1593223	0.3895348	0	0	0	0	0	0
16.03232	-0.1593223	0.3895348	0	0	0	0	0	0
16.04889	-0.1593223	0.3895348	0	0	0	0	0	0
16.06545	-0.1593223	0.3895348	0	0	0	0	0	0
16.08232	-0.1593223	0.3895348	0	0	0	0	0	0
16.09884	-0.1593223	0.3895348	0	0	0	0	0	0
16.11515	-0.1593223	0.3895348	0	0	0	0	0	0
16.13172	-0.1593223	0.3895348	0	0	0	0	0	0
16.14829	-0.1593223	0.3895348	0	0	0	0	0	0
16.16486	-0.1593223	0.3895348	0	0	0	0	0	0
16.18142	-0.1593223	0.3895348	0	0	0	0	0	0
16.19841	-0.1593223	0.3895348	0	0	0	0	0	0
16.21492	-0.1593223	0.3895348	0	0	0	0	0	0
16.23143	-0.1593223	0.3895348	0	0	0	0	0	0
16.24794	-0.1593223	0.3895348	0	0	0	0	0	0
16.28347	-0.1593223	0.3895348	0	0	0	0	0	0
16.29962	-0.1593223	0.3895348	0	0	0	0	0	0
16.31619	-0.1593223	0.3895348	0	0	0	0	0	0
16.33275	-0.1593223	0.3895348	0	0	0	0	0	0
16.34932	-0.1593223	0.3895348	0	0	0	0	0	0
16.36589	-0.1593223	0.3895348	0	0	0	0	0	0
16.38254	-0.1593223	0.3895348	0	0	0	0	0	0
16.39902	-0.1593223	0.3895348	0	0	0	0	0	0
16.41559	-0.1593223	0.3895348	0	0	0	0	0	0
16.43215	-0.1593223	0.3895348	0	0	0	0	0	0
16.44872	-0.1593223	0.3895348	0	0	0	0	0	0
16.46529	-0.1593223	0.3895348	0	0	0	0	0	0
16.48211	-0.1593223	0.3895348	0	0	0	0	0	0
16.49842	-0.1593223	0.3895348	0	0	0	0	0	0
16.51499	-0.1593223	0.3895348	0	0	0	0	0	0
16.53156	-0.1593223	0.3895348	0	0	0	0	0	0
16.54812	-0.1593223	0.3895348	0	0	0	0	0	0
16.56469	-0.1593223	0.3895348	0	0	0	0	0	0
16.58125	-0.1593223	0.3895348	0	0	0	0	0	0
16.59782	-0.1593223	0.3895348	0	0	0	0	0	0
16.61439	-0.1593223	0.3895348	0	0	0	0	0	0
16.63096	-0.1593223	0.3895348	0	0	0	0	0	0
16.64752	-0.1593223	0.3895348	0	0	0	0	0	0
16.66409	-0.1593223	0.3895348	0	0	0	0	0	0
16.71379	-0.1593223	0.3895348	0	0	0	0	0	0
16.73079	-0.1593223	0.3895348	0	0	0	0	0	0
16.74692	-0.1593223	0.3895348	0	0	0	0	0	0
16.76349	-0.1593223	0.3895348	0	0	0	0	0	0
16.78006	-0.1593223	0.3895348	0	0	0	0	0	0
16.79684	-0.159348	0.3895527	-0.001529286	0.001065704	-0.0458609	0.03195881	0	0
16.81335	-0.159348	0.3895527	0	0	0.0459292	-0.03200641	0	0
16.82976	-0.159348	0.3895527	0	0	0	0	0	0
16.84637	-0.159348	0.3895527	0	0	0	0	0	0
16.86289	-0.1593223	0.3895348	0.001553299	-0.001082439	0.04688136	-0.03266994	0	0
16.87946	-0.1593223	0.3895348	0	0	-0.04694622	0.03271514	0	0
16.89602	-0.1593223	0.3895348	0	0	0	0	0	0
16.91259	-0.1593223	0.3895348	0	0	0	0	0	0
16.92916	-0.1593223	0.3895348	0	0	0	0	0	0
16.94818	-0.1593223	0.3895348	0	0	0	0	0	0
16.96475	-0.1593223	0.3895348	0	0	0	0	0	0
16.98132	-0.1593223	0.3895348	0	0	0	0	0	0
16.99788	-0.1593223	0.3895348	0	0	0	0	0	0
17.01445	-0.1593223	0.3895348	0	0	0	0	0	0
17.03102	-0.1593223	0.3895348	0	0	0	0	0	0
17.04759	-0.1593223	0.3895348	0	0	0	0	0	0
17.06415	-0.1593223	0.3895348	0	0	0	0	0	0
17.08072	-0.1593223	0.3895348	0	0	0	0	0	0
17.09729	-0.159348	0.3895527	-0.001548829	0.001079323	-0.04674374	0.03257403	0	0
17.11407	-0.159348	0.3895527	0	0	0.04644696	-0.03236722	0	0
17.13058	-0.159348	0.3895527	0	0	0	0	0	0
17.14699	-0.159348	0.3895527	0	0	0	0	0	0
17.16356	-0.1593736	0.3895705	-0.001547929	0.001079323	-0.04694087	0.03273041	0	0
17.18012	-0.1593736	0.3895705	0	0	0.04671659	-0.03257403	0	0
17.19669	-0.1593736	0.3895705	0	0	0	0	0	0
17.21326	-0.1593736	0.3895705	0	0	0	0	0	0
17.22982	-0.1593736	0.3895705	0	0	0	0	0	0
17.24666	-0.1593736	0.3895705	0	0	0	0	0	0
17.26296	-0.1593736	0.3895705	0	0	0	0	0	0
17.27969	-0.1593736	0.3895705	0	0	0	0	0	0
17.29609	-0.1593736	0.3895705	0	0	0	0	0	0
17.31266	-0.1593736	0.3895705	0	0	0	0	0	0
17.32923	-0.1593736	0.3895705	0	0	0	0	0	0
17.34579	-0.1593736	0.3895705	0	0	0	0	0	0
17.36236	-0.1593736	0.3895705	0	0	0	0	0	0
17.37893	-0.1593736	0.3895705	0	0	0	0	0	0
17.51146	-0.159348	0.3895527	0.0001934939	-0.0001349173	0.001297718	-0.0009048589	0	0
17.52803	-0.1593736	0.3895705	-0.001547929	0.001079323	-0.01167932	0.008143625	0	0
17.5446	-0.1593736	0.3895705	0	0	0.04671659	-0.03257403	0	0
17.56116	-0.1593736	0.3895705	0	0	0	0	0	0
17.57773	-0.1593736	0.3895705	0	0	0	0	0	0
17.59442	-0.1593736	0.3895705	0	0	0	0	0	0
17.61093	-0.1593736	0.3895705	0	0	0	0	0	0
17.62743	-0.1593736	0.3895705	0	0	0	0	0	0
17.644	-0.1593736	0.3895705	0	0	0	0	0	0
17.66057	-0.159348	0.3895527	0.001547929	-0.001079323	0.04671659	-0.03257403	0	0
17.67713	-0.1593736	0.3895705	-0.001547929	0.001079323	-0.09343319	0.06514806	0	0
17.6937	-0.1593736	0.3895705	0	0	0.04671659	-0.03257403	0	0
17.71027	-0.1593736	0.3895705	0	0	0	0	0	0
17.72684	-0.1593736	0.3895705	0	0	0	0	0	0
17.76225	-0.1593736	0.3895705	0	0	0	0	0	0
17.77905	-0.1593736	0.3895705	0	0	0	0	0	0
17.79539	-0.1593736	0.3895705	0	0	0	0	0	0
17.81195	-0.1593736	0.3895705	0	0	0	0	0	0
17.82852	-0.1593993	0.3895884	-0.001549007	0.001079447	-0.04675181	0.03257966	0	0
17.8451	-0.1594762	0.389642	-0.004642015	0.003234308	-0.09332567	0.06501887	0	0
17.86165	-0.1595532	0.3896957	-0.004648262	0.003239834	-0.0001885442	0.0001667681	0	0
17.87822	-0.1597327	0.3898208	-0.0108373	0.007555261	-0.1868394	0.1302773	0	0
17.89479	-0.1598354	0.3898924	-0.006193515	0.004317292	0.1401498	-0.09772211	0	0
17.91165	-0.1599379	0.3899996	-0.006086112	0.006362794	0.003213311	0.06119791	0	0
17.92792	-0.1601175	0.3901248	-0.01102941	0.007689829	-0.1491891	0.04005	0	0
17.9445	-0.1602457	0.3902142	-0.007734312	0.00539227	0.1002834	-0.06992412	0	0
17.96118	-0.1606047	0.3904645	-0.02152637	0.01500851	-0.4146934	0.2891367	0	0
17.97769	-0.1609637	0.3906791	-0.0217409	0.01299526	-0.006463686	-0.0606585	0	0
17.99419	-0.1612201	0.3908579	-0.0155392	0.01083815	0.1878706	-0.06534632	0	0
18.01076	-0.161861	0.3913049	-0.03868384	0.02698308	-0.6999571	0.4882667	0	0
18.02773	-0.1629373	0.392056	-0.06342904	0.04425649	-0.7378496	0.5150568	0	0
18.04424	-0.1640133	0.3925567	-0.06516403	0.03032409	-0.05181934	-0.4161212	0	0
18.06046	-0.1643207	0.3922705	-0.01895326	-0.01764475	1.411956	-1.465673	0	0
18.07702	-0.1691062	0.3889626	-0.2888556	-0.1996658	-8.23287	-5.552213	0	0
18.09378	-0.1798257	0.3814548	-0.6398112	-0.4481195	-10.53244	-7.456285	0	0
18.11029	-0.1887269	0.3752	-0.539141	-0.3788449	3.026387	2.082559	0	0
18.12673	-0.1978257	0.368786	-0.5535353	-0.390208	-0.4368849	-0.3448852	0	0
18.14329	-0.2064376	0.3626946	-0.5198182	-0.367675	1.021583	0.6827196	0	0
18.15987	-0.2147172	0.3568541	-0.4993538	-0.3522482	0.6173669	0.4653938	0	0
18.24269	-0.2520743	0.3303889	-0.4510692	-0.3195552	0.4857632	0.3289051	0	0
18.25926	-0.2570283	0.3268708	-0.298992	-0.212327	1.530134	1.078884	0	0
18.27591	-0.2618223	0.3233883	-0.2879357	-0.2091699	0.3328387	0.09504102	0	0
18.29239	-0.2679747	0.3189054	-0.3732984	-0.271999	-2.57655	-1.896406	0	0
18.30896	-0.2747892	0.3139219	-0.4113702	-0.3008402	-1.152058	-0.8727382	0	0
18.32553	-0.2779312	0.3115817	-0.1896514	-0.141251	6.69187	4.816688	0	0
18.34209	-0.2840285	0.3070975	-0.3680772	-0.2706984	-5.385209	-3.906955	0	0
18.35866	-0.2891133	0.3033453	-0.306881	-0.2264591	1.846904	1.335146	0	0
18.37523	-0.2946888	0.2992173	-0.3365771	-0.2491958	-0.8962294	-0.6861963	0	0
18.40836	-0.3063813	0.2904764	-0.3529014	-0.2638161	-0.3284716	-0.2941837	0	0
18.42501	-0.3113492	0.2867573	-0.2982832	-0.2233004	1.097025	0.813772	0	0
18.44149	-0.3171329	0.2824473	-0.3510063	-0.26157	-1.591277	-1.155044	0	0
18.45806	-0.3205027	0.2799073	-0.2033966	-0.1533142	4.466955	3.276028	0	0
18.47462	-0.3205027	0.2799073	0	0	6.138523	4.627033	0	0
18.49119	-0.3205027	0.2799073	0	0	0	0	0	0
18.51074	-0.320479	0.2798894	0.001212127	-0.0009148127	0.03356415	-0.02533143	0	0
18.52731	-0.3205027	0.2798715	-0.001430103	-0.001079323	-0.07316412	-0.004555339	0	0
18.54387	-0.3204553	0.2798	0.002862005	-0.004319091	0.1295361	-0.09777639	0	0
18.56061	-0.320479	0.2797821	-0.001417702	-0.00106862	-0.1285182	0.09761058	0	0
18.57712	-0.3205027	0.2797642	-0.001434894	-0.001084744	-0.000517118	-0.0004850001	0	0
18.59363	-0.3205027	0.2797642	0	0	0.04345024	0.03284729	0	0
18.61014	-0.3205027	0.2797642	0	0	0	0	0	0
18.62671	-0.3205027	0.2797642	0	0	0	0	0	0
18.64327	-0.3205027	0.2797642	0	0	0	0	0	0
18.65984	-0.3205501	0.2797284	-0.002862005	-0.002158646	-0.08637548	-0.06514806	0	0
18.67641	-0.3206449	0.2796569	-0.005722211	-0.004319091	-0.08632119	-0.06520236	0	0
18.6932	-0.3208582	0.2794959	-0.01270053	-0.009586172	-0.2091731	-0.1578793	0	0
18.70971	-0.3218769	0.2787266	-0.06169321	-0.04658802	-1.470981	-1.110962	0	0
18.72611	-0.3292239	0.2731977	-0.44811	-0.337219	-11.74252	-8.831758	0	0
18.74274	-0.3365576	0.2676131	-0.4409891	-0.3358094	0.2156142	0.04268156	0	0
18.75925	-0.3415428	0.2638352	-0.301951	-0.2288279	4.195456	3.22815	0	0
18.77581	-0.3505321	0.2568853	-0.5427812	-0.4196436	-7.282104	-5.769791	0	0
18.79277	-0.3571547	0.2517958	-0.3903931	-0.3000179	4.545442	3.568204	0	0
18.80894	-0.365697	0.2451439	-0.5282643	-0.4113597	-4.160962	-3.360302	0	0
18.82551	-0.3731118	0.2393314	-0.4476072	-0.3508815	2.463879	1.847462	0	0
18.84231	-0.3783039	0.2352751	-0.3090568	-0.2414469	4.152538	3.2799	0	0
18.85864	-0.3823426	0.2320792	-0.2472794	-0.1956774	1.864553	1.381403	0	0
18.87533	-0.3851483	0.2298522	-0.1680969	-0.1334223	2.397738	1.885159	0	0
18.89178	-0.3890297	0.2267623	-0.2360424	-0.1879132	-2.050602	-1.644541	0	0
18.90834	-0.3912356	0.2249654	-0.133166	-0.1084755	3.116657	2.40658	0	0
18.92491	-0.3937293	0.2229704	-0.1505206	-0.1204183	-0.5237923	-0.3604555	0	0
18.94148	-0.3974938	0.2199501	-0.2272245	-0.1823058	-2.314928	-1.867768	0	0
18.95804	-0.400711	0.2173604	-0.1941918	-0.1563121	0.9969285	0.7844911	0	0
18.9749	-0.4040085	0.214698	-0.1955927	-0.1579205	-0.04190977	-0.04811921	0	0
18.99118	-0.4061869	0.2129346	-0.13386	-0.1083595	1.863203	1.49584	0	0
19.00794	-0.4095354	0.2102168	-0.1997717	-0.1621432	-1.995191	-1.628067	0	0
19.02431	-0.4146391	0.2060574	-0.3117228	-0.2540473	-3.37869	-2.773673	0	0
19.04088	-0.4149037	0.2058413	-0.01596679	-0.01304632	8.978652	7.316382	0	0
19.05746	-0.4149037	0.2058413	0	0	0.4816013	0.3935121	0	0
19.07401	-0.4149037	0.2058413	0	0	0	0	0	0
19.09058	-0.4148816	0.2058593	0.001331318	0.001087543	0.04020473	0.03284292	0	0
19.10715	-0.4148816	0.2058593	0	0	-0.04018158	-0.03282401	0	0
19.12371	-0.4148596	0.2058413	0.001329366	-0.001087418	0.04012035	-0.03281834	0	0
19.14028	-0.4148596	0.2058413	0	0	-0.04012497	0.03282212	0	0
19.15684	-0.4148596	0.2058413	0	0	0	0	0	0
19.1936	-0.4148816	0.2058233	-0.0005992462	-0.0004897763	-0.01123869	-0.009185614	0	0
19.21017	-0.4148816	0.2058233	0	0	0.01123829	0.009185285	0	0
19.22673	-0.4148816	0.2058233	0	0	0	0	0	0
19.2433	-0.4148816	0.2058233	0	0	0	0	0	0
19.293	-0.4148596	0.2058052	0.0004431391	-0.0003624866	0.006687175	-0.005470091	0	0
19.30964	-0.4148816	0.2058233	-0.001323272	0.001082433	-0.02662531	0.02177944	0	0
19.32613	-0.4148816	0.2058233	0	0	0.03993644	-0.0326679	0	0
19.3427	-0.4148816	0.2058233	0	0	0	0	0	0
19.35927	-0.4148596	0.2058052	0.001329366	-0.001087418	0.04012035	-0.03281834	0	0
19.37583	-0.4148596	0.2058052	0	0	-0.04012035	0.03281834	0	0
19.3924	-0.4148596	0.2058052	0	0	0	0	0	0
19.40897	-0.4148596	0.2058052	0	0	0	0	0	0
19.42554	-0.4148596	0.2058052	0	0	0	0	0	0
19.4421	-0.4148596	0.2058052	0	0	0	0	0	0
19.45867	-0.4148596	0.2058052	0	0	0	0	0	0
19.47526	-0.4148596	0.2058052	0	0	0	0	0	0
19.49181	-0.4148596	0.2058052	0	0	0	0	0	0
19.50837	-0.4148375	0.2058233	0.001331472	0.001087668	0.04021631	0.03285237	0	0
19.52494	-0.4148375	0.2058233	0	0	-0.04018852	-0.03282968	0	0
19.5415	-0.4148375	0.2058233	0	0	0	0	0	0
19.55832	-0.4148375	0.2058233	0	0	0	0	0	0
19.57484	-0.4148155	0.2058052	0.001335624	-0.001091061	0.04006934	-0.03273232	0	0
19.59135	-0.4148155	0.2058052	0	0	-0.04044192	0.03303668	0	0
19.60786	-0.4148155	0.2058052	0	0	0	0	0	0
19.62437	-0.4147935	0.2057872	0.001333819	-0.001091061	0.04039427	-0.0330424	0	0
19.64091	-0.4147935	0.2057872	0	0	-0.04036163	0.0330157	0	0
19.65789	-0.4147935	0.2057872	0	0	0	0	0	0
19.67404	-0.4147935	0.2057872	0	0	0	0	0	0
19.69092	-0.4147935	0.2057872	0	0	0	0	0	0
19.70717	-0.4147935	0.2057872	0	0	0	0	0	0
19.72394	-0.4147935	0.2057872	0	0	0	0	0	0
19.7403	-0.4147935	0.2057872	0	0	0	0	0	0
19.75687	-0.4147935	0.2057872	0	0	0	0	0	0
19.80788	-0.4147935	0.2057872	0	0	0	0	0	0
19.82451	-0.4147935	0.2057872	0	0	0	0	0	0
19.86169	-0.4147494	0.2057872	0.001185461	0	0.02203123	0	0	0
19.87826	-0.4147494	0.2057872	0	0	-0.02205546	0	0	0
19.89483	-0.4146833	0.2057692	0.003991697	-0.001086519	0.1204696	-0.03279119	0	0
19.91139	-0.4146833	0.2057692	0	0	-0.1204696	0.03279119	0	0
19.92796	-0.4146391	0.2057692	0.00266233	0	0.08034928	0	0	0
19.94453	-0.4145951	0.2057692	0.002660531	0	-5.428939E-05	0	0	0
19.96111	-0.414573	0.2057512	0.001330093	-0.001086542	-0.04013653	-0.03277871	0	0
19.97766	-0.414551	0.2057692	0.001332239	0.001088295	6.475587E-05	0.06563672	0	0
19.99464	-0.4145069	0.2058052	0.002596851	0.002121903	0.03771879	0.03082877	0	0
20.0108	-0.4144187	0.2058773	0.00545916	0.004458621	0.08638962	0.07052636	0	0
20.02765	-0.4142643	0.2060034	0.009155094	0.007478398	0.1119366	0.0914582	0	0
20.04417	-0.4140658	0.2061294	0.01201923	0.007634738	0.0858223	0.004684634	0	0
20.0605	-0.4139556	0.2062195	0.006753797	0.005515296	-0.1603324	-0.06453698	0	0
20.07706	-0.4136688	0.2064176	0.01731234	0.011958	0.3209857	0.1958618	0	0
20.0937	-0.4135143	0.2065077	0.00928115	0.005411616	-0.2418528	-0.197139	0	0
20.11021	-0.4132715	0.2065977	0.0147027	0.005453499	0.1635379	0.001263362	0	0
20.12676	-0.4130067	0.2066697	0.0160068	0.004353785	0.0394465	-0.0332641	0	0
20.19303	-0.4059204	0.2115669	0.1069357	0.07389955	1.097973	0.8397709	0	0
20.2096	-0.3989918	0.2152198	0.4182107	0.2204913	3.757806	1.7697	0	0
20.22616	-0.3924044	0.2171626	0.3976118	0.1172675	-0.6216748	-3.115299	0	0
20.24283	-0.388083	0.2193567	0.2592302	0.1316183	-4.163424	0.4317637	0	0
20.25932	-0.3771898	0.222539	0.6607076	0.1930159	12.10825	1.851706	0	0
20.27586	-0.3686085	0.2250912	0.5187489	0.1542827	-4.297928	-1.172684	0	0
20.29247	-0.3576397	0.2287385	0.6605556	0.2196492	4.27801	1.97197	0	0
20.30936	-0.3495568	0.2315943	0.4786272	0.1691061	-5.431826	-1.509061	0	0
20.32557	-0.3415895	0.2376624	0.4914861	0.374329	0.3885072	6.200419	0	0
20.34213	-0.335901	0.2419869	0.3434423	0.2610845	-4.517116	-3.455317	0	0
20.3587	-0.3304487	0.2461482	0.3290982	0.2511774	-0.4329564	-0.2990321	0	0
20.37527	-0.3267238	0.2489813	0.2248338	0.1710061	-3.146706	-2.419572	0	0
20.39192	-0.319151	0.2547171	0.4546404	0.3443521	6.916865	5.217474	0	0
20.40843	-0.3125649	0.2596442	0.398868	0.2983947	-1.681475	-1.38556	0	0
20.44196	-0.3045382	0.2656616	0.2394461	0.1795093	-3.186298	-2.376114	0	0
20.4581	-0.2982752	0.2702983	0.3879098	0.287177	2.989159	2.167776	0	0
20.47498	-0.2933871	0.2738599	0.2896417	0.2110399	-2.975842	-2.305651	0	0
20.49123	-0.2887748	0.2772775	0.2837249	0.2102326	-0.1785798	-0.02436667	0	0
20.51138	-0.2812376	0.2827692	0.3742099	0.2726577	2.485991	1.715073	0	0
20.52802	-0.2767628	0.2859884	0.2689259	0.1934624	-2.862432	-2.153141	0	0
20.54451	-0.2705912	0.2902261	0.3741526	0.2569127	3.17575	1.914936	0	0
20.56108	-0.266114	0.2932116	0.2702445	0.1802074	-3.142828	-2.320047	0	0
20.57764	-0.2634665	0.2948919	0.159801	0.1014222	-3.333192	-2.377742	0	0
20.59421	-0.2552552	0.2977875	0.4956359	0.1747766	10.13552	2.21384	0	0
20.61078	-0.244731	0.298002	0.6352455	0.01294648	4.213425	-4.884042	0	0
20.62759	-0.228017	0.2973585	0.9944305	-0.03828231	10.76217	-1.534955	0	0
20.64391	-0.2148428	0.2966793	0.8069959	-0.0416046	-5.657114	-0.1002725	0	0
20.66048	-0.198888	0.2950886	0.9630323	-0.09602018	4.743868	-1.65436	0	0
20.67705	-0.1926086	0.2939088	0.3790259	-0.07121014	-17.62535	0.7487684	0	0
20.69363	-0.1799021	0.2920496	0.7659951	-0.1120771	11.67136	-1.232586	0	0
20.71018	-0.1703845	0.2898864	0.5752833	-0.1307553	-5.756023	-0.5637438	0	0
20.72675	-0.1649097	0.2894931	0.3304572	-0.02374151	-7.393974	3.231916	0	0
20.74331	-0.1593993	0.2884739	0.3326087	-0.06151602	0.06493118	-1.140037	0	0
20.75988	-0.1558572	0.2860063	0.2138013	-0.1489466	-3.585614	-2.63866	0	0
20.77645	-0.1541361	0.2848081	0.1038875	-0.07232184	-3.317204	2.312539	0	0
20.79301	-0.1535707	0.2844146	0.0341246	-0.02374871	-2.10545	1.46594	0	0
20.87585	-0.1535707	0.2844146	0	0	-0.3432941	0.2389124	0	0
20.89278	-0.1535707	0.2844146	0	0	0	0	0	0
20.90899	-0.1535707	0.2844146	0	0	0	0	0	0
20.92561	-0.1535707	0.2844146	0	0	0	0	0	0
20.94212	-0.1535707	0.2844146	0	0	0	0	0	0
20.95869	-0.1536221	0.2844146	-0.003102154	0	-0.09379598	0	0	0
20.97525	-0.1536478	0.2844325	-0.001551527	0.001079323	0.04679803	0.03257403	0	0
20.99185	-0.1536735	0.2844504	-0.001547776	0.001077339	0.0001130842	-5.983467E-05	0	0
21.00839	-0.1537249	0.2844504	-0.003107705	0	-0.04707061	-0.03250853	0	0
21.04152	-0.1537763	0.2844504	-0.001551256	0	0.03133386	0	0	0
21.0584	-0.1537763	0.2844504	0	0	0.03102085	0	0	0
21.07466	-0.1538277	0.2844504	-0.003161853	0	-0.0954359	0	0	0
21.09122	-0.1538277	0.2844504	0	0	0.09633436	0	0	0
21.10779	-0.1538534	0.2844683	-0.001551706	0.001079447	-0.04683326	0.03257966	0	0
21.12436	-0.1539048	0.2845041	-0.003102154	0.002158646	-0.04679533	0.03257215	0	0
21.14092	-0.1539305	0.2845219	-0.001550627	0.001079323	0.04682517	-0.03257403	0	0
21.15749	-0.1541618	0.2846829	-0.01395924	0.009715706	-0.3744928	0.2606466	0	0
21.17448	-0.1543673	0.284826	-0.01209578	0.008419262	0.05552343	-0.03862866	0	0
21.21013	-0.1553692	0.2855592	-0.02810644	0.02056858	-0.3041485	0.2307962	0	0
21.2267	-0.1564992	0.286346	-0.06820512	0.04749381	-0.7679728	0.5156739	0	0
21.24327	-0.1593736	0.2883845	-0.1735021	0.1230428	-3.177868	2.280074	0	0
21.25983	-0.1611175	0.2896361	-0.1052628	0.07554542	2.059466	-1.433475	0	0
21.2764	-0.1640389	0.2916742	-0.1763362	0.123023	-2.145	1.432878	0	0
21.29297	-0.1717388	0.2970547	-0.4647628	0.3247665	-8.704732	6.08863	0	0
21.30953	-0.1768181	0.300647	-0.3065916	0.2168288	4.773616	-3.257566	0	0
21.32659	-0.1801569	0.3030237	-0.1957117	0.13932	3.297391	-2.304988	0	0
21.34267	-0.1822447	0.3045246	-0.1298777	0.09337179	1.986873	-1.38672	0	0
21.35924	-0.1858309	0.3070796	-0.2164672	0.1542209	-2.652673	1.864114	0	0
21.3758	-0.186822	0.3077765	-0.05982328	0.04205942	4.727524	-3.38504	0	0
21.39237	-0.1867712	0.3077407	0.003067976	-0.002156847	1.898062	-1.33445	0	0
21.40894	-0.1867712	0.3077407	0	0	-0.0925917	0.06509378	0	0
21.4255	-0.1867712	0.3077407	0	0	0	0	0	0
21.44209	-0.1867712	0.3077407	0	0	0	0	0	0
21.45869	-0.1867458	0.3077228	0.001530191	-0.001076967	0.04610429	-0.03244877	0	0
21.47521	-0.1867204	0.307705	0.001538675	-0.001081134	0.0002562091	-0.0001258178	0	0
21.49177	-0.1867458	0.3076871	-0.001533715	-0.001079447	-0.09288532	5.098347E-05	0	0
21.50834	-0.1867204	0.3076693	0.001533538	-0.001077524	0.09257521	5.804506E-05	0	0
21.52491	-0.186695	0.3076514	0.001533538	-0.001079323	0	-5.428939E-05	0	0
21.54148	-0.186695	0.3076514	0	0	-0.04627961	0.03257216	0	0
21.55804	-0.1866696	0.3076335	0.001533715	-0.001077648	0.0462876	-0.03252349	0	0
21.59117	-0.1866442	0.3076156	0.0007672629	-0.0005396926	-0.01542222	0.01082452	0	0
21.60774	-0.1866187	0.3075978	0.001533538	-0.001077524	0.01541808	-0.01082161	0	0
21.62431	-0.1866187	0.3075978	0	0	-0.04628228	0.03251974	0	0
21.64087	-0.1866187	0.3075978	0	0	0	0	0	0
21.65744	-0.1866187	0.3075978	0	0	0	0	0	0
21.67401	-0.1866187	0.3075978	0	0	0	0	0	0
21.69057	-0.1866187	0.3075978	0	0	0	0	0	0
21.70714	-0.1866187	0.3075978	0	0	0	0	0	0
21.72371	-0.1866187	0.3075978	0	0	0	0	0	0
21.74039	-0.1865933	0.3075799	0.001522669	-0.001071673	0.04579083	-0.03222815	0	0
21.75684	-0.1865679	0.3075621	0.001544563	-0.001085271	0.0006607516	-0.0004103676	0	0
21.77341	-0.1865679	0.3075621	0	0	-0.04678197	0.03287085	0	0
21.78997	-0.1865425	0.3075442	0.001534791	-0.001079572	0.04632542	-0.03258529	0	0
21.80694	-0.1865679	0.3075263	-0.001498384	-0.001052206	-0.09046346	0.0008161642	0	0
21.82311	-0.1865425	0.3075084	0.001572269	-0.001105934	0.09267249	-0.001621497	0	0
21.83996	-0.1865171	0.3074906	0.001507334	-0.001059112	-0.001966306	0.001417807	0	0
21.85624	-0.1865171	0.3074906	0	0	-0.04549405	0.03196591	0	0
21.87613	-0.1865171	0.3074549	0	-0.001796373	0	-0.04966602	0	0
21.8927	-0.1864917	0.307437	0.001533538	-0.001079323	0.04206203	0.01966732	0	0
21.90951	-0.1864663	0.3074191	0.001511439	-0.001061996	-0.0006621123	0.0005191215	0	0
21.9921	-0.1863901	0.3073298	0.0009230018	-0.001081767	-0.005919691	-0.0001988913	0	0
22.00867	-0.1864155	0.3073477	-0.001533362	0.001079199	-0.02477095	0.02179204	0	0
22.02524	-0.1864155	0.3073477	0	0	0.04627695	-0.03257028	0	0
22.04181	-0.1864155	0.3073477	0	0	0	0	0	0
22.05837	-0.1864155	0.3073477	0	0	0	0	0	0
22.07494	-0.1864155	0.3073477	0	0	0	0	0	0
22.09165	-0.1864155	0.3073477	0	0	0	0	0	0
22.10816	-0.1864155	0.3073477	0	0	0	0	0	0
22.12467	-0.1864155	0.3073477	0	0	0	0	0	0
22.14121	-0.1863901	0.3073298	0.001536368	-0.001081315	0.04648542	-0.03271701	0	0
22.15778	-0.1863901	0.3073298	0	0	-0.04640776	0.03266235	0	0
22.17434	-0.1863901	0.3073298	0	0	0	0	0	0
22.19091	-0.1863901	0.3073298	0	0	0	0	0	0
22.20747	-0.1863901	0.3073298	0	0	0	0	0	0
22.22404	-0.1864155	0.3073119	-0.001533538	-0.001077524	-0.04628494	-0.03252162	0	0
22.24061	-0.1864155	0.3073119	0	0	0.04628494	0.03252162	0	0
22.25717	-0.1864155	0.3073119	0	0	0	0	0	0
22.28953	-0.1864155	0.3073119	0	0	0	0	0	0
22.3061	-0.1864155	0.3073119	0	0	0	0	0	0
22.32281	-0.1864155	0.3073119	0	0	0	0	0	0
22.33982	-0.1864155	0.3073119	0	0	0	0	0	0
22.35583	-0.1864155	0.3073119	0	0	0	0	0	0
22.37237	-0.1864155	0.3073119	0	0	0	0	0	0
22.38936	-0.1864155	0.3073119	0	0	0	0	0	0
22.4055	-0.1864155	0.3073119	0	0	0	0	0	0
22.42207	-0.1864155	0.3073119	0	0	0	0	0	0
22.43863	-0.1864155	0.3073119	0	0	0	0	0	0
22.4554	-0.1864155	0.3073119	0	0	0	0	0	0
22.47191	-0.1864155	0.3073119	0	0	0	0	0	0
22.48842	-0.1864155	0.3073119	0	0	0	0	0	0
22.51402	-0.1864155	0.3073119	0	0	0	0	0	0
22.53059	-0.1864155	0.3073119	0	0	0	0	0	0
22.54746	-0.1864155	0.3073119	0	0	0	0	0	0
22.56372	-0.1864155	0.3073119	0	0	0	0	0	0
22.58049	-0.1864155	0.3073119	0	0	0	0	0	0
22.59685	-0.1863901	0.307294	0.001552484	-0.001092657	0.04685676	-0.03297836	0	0
22.61342	-0.1863901	0.307294	0	0	-0.04714171	0.03317891	0	0
22.63002	-0.1863901	0.307294	0	0	0	0	0	0
22.64655	-0.1863901	0.307294	0	0	0	0	0	0
22.66355	-0.1863901	0.307294	0	0	0	0	0	0
22.67969	-0.1863901	0.307294	0	0	0	0	0	0
22.69625	-0.1863901	0.307294	0	0	0	0	0	0
22.71282	-0.1863901	0.307294	0	0	0	0	0	0
22.72959	-0.1863901	0.307294	0	0	0	0	0	0
22.74595	-0.1863901	0.307294	0	0	0	0	0	0
22.76262	-0.1863901	0.307294	0	0	0	0	0	0
22.77913	-0.1863646	0.3072762	0.001539756	-0.001081259	0.04641381	-0.03259305	0	0
22.79565	-0.1863646	0.3072762	0	0	-0.04660944	0.03273042	0	0
22.81222	-0.1863646	0.3072762	0	0	0	0	0	0
22.82916	-0.1863901	0.3072583	-0.001500408	-0.001055387	-0.04477466	-0.03149448	0	0
22.84567	-0.1863901	0.3072583	0	0	0.04484868	0.03154656	0	0
22.87849	-0.1863646	0.3072405	0.0007747558	-0.0005440548	0.01570747	-0.01103022	0	0
22.89505	-0.1863646	0.3072405	0	0	-0.01568988	0.01101786	0	0
22.91172	-0.1863646	0.3072405	0	0	0	0	0	0
22.92819	-0.1863646	0.3072405	0	0	0	0	0	0
22.94475	-0.1863646	0.3072405	0	0	0	0	0	0
22.96132	-0.1863646	0.3072405	0	0	0	0	0	0
22.97789	-0.1863646	0.3072405	0	0	0	0	0	0
22.99446	-0.1863646	0.3072405	0	0	0	0	0	0
23.0113	-0.1863646	0.3072405	0	0	0	0	0	0
23.02759	-0.1863646	0.3072405	0	0	0	0	0	0
23.04416	-0.1863646	0.3072405	0	0	0	0	0	0
23.06072	-0.1863646	0.3072405	0	0	0	0	0	0
23.07729	-0.1863646	0.3072405	0	0	0	0	0	0
23.09386	-0.1863646	0.3072405	0	0	0	0	0	0
23.11042	-0.1863646	0.3072405	0	0	0	0	0	0
23.12699	-0.1863646	0.3072405	0	0	0	0	0	0
23.14356	-0.1863646	0.3072405	0	0	0	0	0	0
23.16013	-0.1863646	0.3072405	0	0	0	0	0	0
23.17691	-0.1863646	0.3072405	0	0	0	0	0	0
23.19326	-0.1863646	0.3072405	0	0	0	0	0	0
23.20983	-0.1863646	0.3072405	0	0	0	0	0	0
23.24546	-0.1863646	0.3072405	0	0	0	0	0	0
23.26169	-0.1863646	0.3072405	0	0	0	0	0	0
23.27826	-0.1863646	0.3072405	0	0	0	0	0	0
23.295	-0.1863646	0.3072405	0	0	0	0	0	0
23.31139	-0.1863646	0.3072405	0	0	0	0	0	0
23.32796	-0.1863646	0.3072405	0	0	0	0	0	0
23.34503	-0.1863646	0.3072405	0	0	0	0	0	0
23.36109	-0.1863646	0.3072405	0	0	0	0	0	0
23.37766	-0.1863646	0.3072405	0	0	0	0	0	0
23.39422	-0.1863646	0.3072405	0	0	0	0	0	0
23.41079	-0.1863646	0.3072405	0	0	0	0	0	0
23.42736	-0.1863646	0.3072405	0	0	0	0	0	0
23.44411	-0.1863646	0.3072405	0	0	0	0	0	0
23.49364	-0.1863646	0.3072405	0	0	0	0	0	0
23.51019	-0.1863646	0.3072405	0	0	0	0	0	0
23.52676	-0.1863646	0.3072405	0	0	0	0	0	0
23.54333	-0.1863646	0.3072405	0	0	0	0	0	0
23.55989	-0.1863646	0.3072405	0	0	0	0	0	0
23.57646	-0.1863646	0.3072405	0	0	0	0	0	0
23.59303	-0.1863646	0.3072405	0	0	0	0	0	0
23.6096	-0.1863646	0.3072405	0	0	0	0	0	0
23.62624	-0.1863646	0.3072405	0	0	0	0	0	0
23.64273	-0.1863646	0.3072405	0	0	0	0	0	0
23.6593	-0.1863646	0.3072405	0	0	0	0	0	0
23.67586	-0.1863646	0.3072405	0	0	0	0	0	0
23.74213	-0.1863646	0.3072405	0	0	0	0	0	0
23.7587	-0.1863646	0.3072405	0	0	0	0	0	0
23.77534	-0.1863646	0.3072405	0	0	0	0	0	0
23.79186	-0.1863646	0.3072405	0	0	0	0	0	0
23.8084	-0.1863901	0.3072583	-0.001536915	0.001079264	-0.04649927	0.03265307	0	0
23.82496	-0.1863901	0.3072583	0	0	0.04642159	-0.03259851	0	0
23.84153	-0.1863901	0.3072583	0	0	0	0	0	0
23.8584	-0.1863901	0.3072583	0	0	0	0	0	0
23.87492	-0.1863646	0.3072405	0.001539578	-0.001081134	0.04611679	-0.03238447	0	0
23.89123	-0.1863646	0.3072405	0	0	-0.0468992	0.03293391	0	0
23.9078	-0.1863646	0.3072405	0	0	0	0	0	0
23.92437	-0.1863646	0.3072405	0	0	0	0	0	0
23.94096	-0.1863646	0.3072405	0	0	0	0	0	0
23.9575	-0.1863646	0.3072405	0	0	0	0	0	0
23.99353	-0.1863901	0.3072583	-0.0007054904	0.0004954147	-0.01341993	0.009423845	0	0
24.01001	-0.1863901	0.3072583	0	0	0.01343455	-0.009434112	0	0
24.02653	-0.1863901	0.3072583	0	0	0	0	0	0
24.04309	-0.1863901	0.3072583	0	0	0	0	0	0
24.05966	-0.1863901	0.3072583	0	0	0	0	0	0
24.07623	-0.1863901	0.3072583	0	0	0	0	0	0
24.09279	-0.1863901	0.3072583	0	0	0	0	0	0
24.10958	-0.1863901	0.3072583	0	0	0	0	0	0
24.12593	-0.1863901	0.3072583	0	0	0	0	0	0
24.14249	-0.1863901	0.3072583	0	0	0	0	0	0
24.15912	-0.1863901	0.3072583	0	0	0	0	0	0
24.17563	-0.1863901	0.3072583	0	0	0	0	0	0
24.19219	-0.1863901	0.3072583	0	0	0	0	0	0
24.20876	-0.1863901	0.3072583	0	0	0	0	0	0
24.22533	-0.1863901	0.3072583	0	0	0	0	0	0
24.2419	-0.1863901	0.3072583	0	0	0	0	0	0
24.25846	-0.1863901	0.3072583	0	0	0	0	0	0
24.27503	-0.1863901	0.3072583	0	0	0	0	0	0
24.2916	-0.1863901	0.3072583	0	0	0	0	0	0
24.30816	-0.1863901	0.3072583	0	0	0	0	0	0
24.32474	-0.1863901	0.3072583	0	0	0	0	0	0
24.3413	-0.1863901	0.3072583	0	0	0	0	0	0
24.35786	-0.1863901	0.3072583	0	0	0	0	0	0
24.37446	-0.1863901	0.3072583	0	0	0	0	0	0
24.391	-0.1863901	0.3072583	0	0	0	0	0	0
24.40781	-0.1863901	0.3072583	0	0	0	0	0	0
24.42431	-0.1863901	0.3072583	0	0	0	0	0	0
24.4407	-0.1863901	0.3072583	0	0	0	0	0	0
24.45734	-0.1863901	0.3072583	0	0	0	0	0	0
24.47383	-0.1863901	0.3072583	0	0	0	0	0	0
24.4904	-0.1863901	0.3072583	0	0	0	0	0	0
24.50737	-0.1863901	0.3072583	0	0	0	0	0	0
24.52353	-0.1863901	0.3072583	0	0	0	0	0	0
24.5401	-0.1863901	0.3072583	0	0	0	0	0	0
24.55667	-0.1863901	0.3072583	0	0	0	0	0	0
24.57323	-0.1863901	0.3072583	0	0	0	0	0	0
24.58993	-0.1863901	0.3072583	0	0	0	0	0	0
24.60965	-0.1863901	0.3072583	0	0	0	0	0	0
24.62646	-0.1863901	0.3072583	0	0	0	0	0	0
24.64279	-0.1863901	0.3072583	0	0	0	0	0	0
24.65935	-0.1863901	0.3072583	0	0	0	0	0	0
24.67592	-0.1863901	0.3072583	0	0	0	0	0	0
24.69251	-0.1863901	0.3072583	0	0	0	0	0	0
24.70905	-0.1863901	0.3072583	0	0	0	0	0	0
24.72562	-0.1863901	0.3072583	0	0	0	0	0	0
24.74219	-0.1863901	0.3072583	0	0	0	0	0	0
24.75876	-0.1863901	0.3072583	0	0	0	0	0	0
24.77556	-0.1863901	0.3072583	0	0	0	0	0	0
24.79189	-0.1863901	0.3072583	0	0	0	0	0	0
24.80846	-0.1863901	0.3072583	0	0	0	0	0	0
24.82502	-0.1863901	0.3072583	0	0	0	0	0	0
24.84161	-0.1863901	0.3072583	0	0	0	0	0	0
24.85816	-0.1863901	0.3072583	0	0	0	0	0	0
24.87472	-0.1863901	0.3072583	0	0	0	0	0	0
24.89129	-0.1863901	0.3072583	0	0	0	0	0	0
24.90786	-0.1863901	0.3072583	0	0	0	0	0	0
24.92442	-0.1863901	0.3072583	0	0	0	0	0	0
24.94118	-0.1863901	0.3072583	0	0	0	0	0	0
24.95761	-0.1863901	0.3072583	0	0	0	0	0	0
24.97412	-0.1863901	0.3072583	0	0	0	0	0	0
24.99069	-0.1863901	0.3072583	0	0	0	0	0	0
25.00726	-0.1864155	0.3072762	-0.001533185	0.001079075	-0.04626629	0.03256278	0	0
25.02382	-0.1864155	0.3072762	0	0	0.04627428	-0.03256841	0	0
25.04076	-0.1864155	0.3072762	0	0	0	0	0	0
25.05727	-0.1864409	0.307294	-0.001538675	0.001081134	-0.04600827	0.03232722	0	0
25.07378	-0.1864663	0.3073119	-0.001539578	0.001082939	-2.732728E-05	5.465456E-05	0	0
25.09009	-0.1864663	0.3073477	0	0.002190386	0.04690193	0.03373745	0	0
25.1068	-0.1864917	0.3073655	-0.00152041	0.0010683	-0.04603978	-0.03397808	0	0
25.12323	-0.1865171	0.3073834	-0.001547075	0.00108885	-0.0008047849	0.0006202459	0	0
25.13979	-0.1865171	0.3073834	0	0	0.04689597	-0.03300596	0	0
25.15636	-0.1865171	0.3073834	0	0	0	0	0	0
25.17335	-0.1865171	0.3073834	0	0	0	0	0	0
25.1895	-0.1865171	0.3073834	0	0	0	0	0	0
25.20606	-0.1865171	0.3073834	0	0	0	0	0	0
25.27021	-0.1865425	0.3073655	-0.0003960371	-0.0002787358	-0.004906484	-0.003453244	0	0
25.28678	-0.1865425	0.3073655	0	0	0.004906368	0.003453162	0	0
25.32132	-0.1865425	0.3073655	0	0	0	0	0	0
25.33789	-0.1865425	0.3073655	0	0	0	0	0	0
25.35445	-0.1865425	0.3073655	0	0	0	0	0	0
25.37102	-0.1865425	0.3073655	0	0	0	0	0	0
25.38759	-0.1865933	0.3073298	-0.003067976	-0.002156847	-0.0925917	-0.06509378	0	0
25.47056	-0.1879143	0.3064007	-0.01592042	-0.01119679	-0.129115	-0.09081475	0	0
25.48708	-0.1888285	0.3057575	-0.05535614	-0.03895061	-0.3963819	-0.2789632	0	0
25.50356	-0.1913407	0.3040243	-0.1524477	-0.1051722	-2.942765	-2.00712	0	0
25.52012	-0.1913661	0.3040064	-0.00153084	-0.001079323	4.566773	3.149869	0	0
25.53669	-0.1914168	0.3040064	-0.00306168	0	-0.04620084	0.03257403	0	0
25.55326	-0.1914676	0.3040422	-0.00306168	0.002158646	0	0.06514806	0	0
25.56982	-0.191569	0.3040779	-0.006123359	0.002156847	-0.09240168	-5.428939E-05	0	0
25.58639	-0.1916704	0.3040779	-0.006123359	0	0	-0.06509378	0	0
25.60316	-0.1919241	0.3040422	-0.01512639	-0.002131328	-0.2700949	-0.06394082	0	0
25.61967	-0.1929128	0.3034168	-0.0598829	-0.03787578	-1.344948	-1.074132	0	0
25.63618	-0.201845	0.2978233	-0.5408906	-0.3387185	-14.56463	-9.109342	0	0
25.65266	-0.2117762	0.2926753	-0.6027772	-0.3124548	-1.875947	0.7961243	0	0
25.66923	-0.2262683	0.2901725	-0.8747482	-0.1510746	-8.230843	4.883957	0	0
25.68579	-0.2472313	0.288903	-1.265326	-0.07662294	-11.78765	2.246957	0	0
25.70273	-0.2573976	0.2883309	-0.6003007	-0.03378583	19.84996	1.278621	0	0
25.71893	-0.2766653	0.2857023	-1.189574	-0.1622869	-17.78532	-3.878395	0	0
25.73549	-0.2894517	0.2835383	-0.7717879	-0.1306161	12.75119	0.9666229	0	0
25.75206	-0.3040831	0.2790307	-0.8831543	-0.2720776	-3.361042	-4.269316	0	0
25.76878	-0.3134939	0.2749514	-0.5629136	-0.2440085	9.62113	0.8432916	0	0
25.78529	-0.3205027	0.2697792	-0.4245177	-0.313278	4.16505	-2.084678	0	0
25.80176	-0.3297422	0.2627786	-0.5609277	-0.4250033	-4.135911	-3.387475	0	0
25.81833	-0.3364638	0.2576557	-0.4057175	-0.3092225	4.697775	3.504358	0	0
25.83489	-0.3407249	0.2543945	-0.2571973	-0.1968415	4.482349	3.391663	0	0
25.85146	-0.3506249	0.2468834	-0.597569	-0.4533714	-10.27244	-7.742088	0	0
25.86835	-0.3543105	0.244283	-0.2182646	-0.1540032	11.33843	8.948923	0	0
25.88459	-0.361191	0.2396544	-0.4234984	-0.2848903	-6.194324	-3.950406	0	0
25.90116	-0.3661101	0.2369265	-0.2969164	-0.1646543	3.857558	3.664163	0	0
25.91838	-0.3754827	0.2376086	-0.5442446	0.03960416	-7.319854	6.045175	0	0
25.93429	-0.3841761	0.2386674	-0.5463712	0.06654766	-0.06418384	0.8132034	0	0
25.95086	-0.3931232	0.2387572	-0.5400465	0.005416403	0.1947362	-1.882217	0	0
25.96743	-0.4029401	0.2374829	-0.5925484	-0.07691256	-1.584511	-2.484693	0	0
25.984	-0.4077847	0.2366214	-0.2924246	-0.05200179	9.057754	0.7518086	0	0
26.00056	-0.4131833	0.2334618	-0.3258566	-0.1907128	-1.008981	-4.186306	0	0
26.01745	-0.4138894	0.2328873	-0.04180252	-0.0340156	8.489691	4.6833	0	0
26.03397	-0.4205976	0.2274091	-0.4062157	-0.3317308	-10.90884	-8.912213	0	0
26.05048	-0.4251057	0.2237073	-0.2730251	-0.2241891	4.032933	3.2563	0	0
26.06683	-0.4288122	0.2206513	-0.2266482	-0.1868704	1.411112	1.135497	0	0
26.17194	-0.4429973	0.2093167	-0.1349644	-0.1078432	0.7548713	0.6506639	0	0
26.1885	-0.4429973	0.2093167	0	0	1.109268	0.8863602	0	0
26.2051	-0.4429973	0.2092807	0	-0.002170688	0	-0.0654625	0	0
26.22163	-0.4429973	0.2092807	0	0	0	0.06551903	0	0
26.2382	-0.4429973	0.2092807	0	0	0	0	0	0
26.25477	-0.4429973	0.2092807	0	0	0	0	0	0
26.27133	-0.4429973	0.2092807	0	0	0	0	0	0
26.2879	-0.4429758	0.2092627	0.001296986	-0.001086519	0.03914764	-0.03279497	0	0
26.30466	-0.4429758	0.2092627	0	0	-0.03891687	0.03260165	0	0
26.32117	-0.4429758	0.2092627	0	0	0	0	0	0
26.3376	-0.4429758	0.2092627	0	0	0	0	0	0
26.3542	-0.4429758	0.2092627	0	0	0	0	0	0
26.37073	-0.4429758	0.2092627	0	0	0	0	0	0
26.3873	-0.4429758	0.2092627	0	0	0	0	0	0
26.40387	-0.4429758	0.2092627	0	0	0	0	0	0
26.42043	-0.4429758	0.2092627	0	0	0	0	0	0
26.437	-0.4429758	0.2092627	0	0	0	0	0	0
26.45376	-0.4429758	0.2092627	0	0	0	0	0	0
26.47078	-0.4429544	0.2092807	0.001261211	0.001058016	0.03733907	0.03132334	0	0
26.4867	-0.4429544	0.2092807	0	0	-0.03829266	-0.03212329	0	0
26.50327	-0.4429544	0.2092807	0	0	0	0	0	0
26.51983	-0.4429544	0.2092807	0	0	0	0	0	0
26.5364	-0.4429544	0.2092807	0	0	0	0	0	0
26.55297	-0.4429544	0.2092807	0	0	0	0	0	0
26.56954	-0.4429544	0.2092807	0	0	0	0	0	0
26.5861	-0.4429544	0.2092807	0	0	0	0	0	0
26.60267	-0.4429544	0.2092807	0	0	0	0	0	0
26.61924	-0.4429544	0.2092807	0	0	0	0	0	0
26.6358	-0.4429544	0.2092807	0	0	0	0	0	0
26.65237	-0.4429544	0.2092807	0	0	0	0	0	0
26.66894	-0.4429544	0.2092807	0	0	0	0	0	0
26.6855	-0.4429544	0.2092807	0	0	0	0	0	0
26.70207	-0.4429544	0.2092807	0	0	0	0	0	0
26.72203	-0.4429544	0.2092807	0	0	0	0	0	0
26.73859	-0.4429544	0.2092807	0	0	0	0	0	0
26.75516	-0.4429544	0.2092807	0	0	0	0	0	0
26.77173	-0.4429544	0.2092807	0	0	0	0	0	0
26.78829	-0.4429544	0.2092807	0	0	0	0	0	0
26.80486	-0.4429544	0.2092807	0	0	0	0	0	0
26.82154	-0.4429544	0.2092807	0	0	0	0	0	0
26.83805	-0.4429544	0.2092807	0	0	0	0	0	0
26.85456	-0.4429544	0.2092807	0	0	0	0	0	0
26.87113	-0.4429544	0.2092807	0	0	0	0	0	0
26.90426	-0.4429544	0.2092807	0	0	0	0	0	0
26.9211	-0.4429544	0.2092807	0	0	0	0	0	0
26.9374	-0.4429544	0.2092807	0	0	0	0	0	0
26.95396	-0.4429544	0.2092807	0	0	0	0	0	0
26.97064	-0.4429544	0.2092807	0	0	0	0	0	0
26.98715	-0.4429544	0.2092807	0	0	0	0	0	0
27.00366	-0.4429544	0.2092807	0	0	0	0	0	0
27.02023	-0.4429544	0.2092807	0	0	0	0	0	0
27.03718	-0.4429544	0.2092807	0	0	0	0	0	0
27.05369	-0.4429544	0.2092807	0	0	0	0	0	0
27.06993	-0.4429544	0.2092807	0	0	0	0	0	0
27.08649	-0.4429114	0.2093167	0.002593973	0.002173936	0.07908291	0.06627719	0	0
27.10323	-0.4423957	0.2097488	0.03081197	0.02581553	0.8472799	0.7098679	0	0
27.11963	-0.4418583	0.2101628	0.03277669	0.02525045	0.05929565	-0.01705403	0	0
27.13626	-0.4417723	0.2102349	0.005173082	0.004331515	-0.8358694	-0.6334497	0	0
27.1859	-0.4408471	0.2108289	0.01863701	0.0119664	0.203177	0.1152139	0	0
27.20247	-0.439016	0.2120708	0.1105154	0.07495485	1.387685	0.9513465	0	0
27.21903	-0.4373544	0.2132406	0.1003004	0.07061475	-0.3082866	-0.1309846	0	0
27.2356	-0.4310084	0.2177921	0.3830464	0.2747309	8.533779	6.160592	0	0
27.25234	-0.4216277	0.2244442	0.5602856	0.3973143	5.320913	3.680086	0	0
27.26885	-0.4166214	0.2280379	0.3032272	0.2176678	-7.73045	-5.40246	0	0
27.2853	-0.4097568	0.2336234	0.4173776	0.3396059	3.463609	3.699906	0	0
27.30187	-0.3999075	0.2414666	0.5942301	0.4731966	5.355607	4.045513	0	0
27.31843	-0.3894576	0.2495371	0.6311197	0.487415	1.113395	0.4291393	0	0
27.335	-0.3815495	0.2555235	0.477336	0.3613403	-4.642536	-3.80604	0	0
27.35156	-0.3708278	0.263674	0.6471639	0.491968	5.125416	3.942354	0	0
27.36813	-0.362986	0.2693675	0.4733299	0.3436583	-5.24632	-4.475997	0	0
27.38493	-0.3493477	0.2744862	0.811716	0.3046511	10.14071	-1.168961	0	0
27.40145	-0.3359948	0.2758819	0.8086845	0.08452697	-0.09100001	-6.607607	0	0
27.41783	-0.3270307	0.2764365	0.5470587	0.03384901	-7.952647	-1.54046	0	0
27.43728	-0.3054481	0.2790486	1.109905	0.134329	15.70817	2.80424	0	0
27.45384	-0.2938935	0.2821074	0.6974388	0.1846308	-11.45338	1.396781	0	0
27.47041	-0.2874443	0.2844862	0.3892741	0.1435805	-9.300429	-1.238899	0	0
27.48701	-0.2706401	0.2906194	1.012554	0.369566	18.79441	6.814371	0	0
27.50354	-0.2629513	0.2952316	0.464951	0.2789018	-16.52765	-2.73641	0	0
27.52011	-0.2559942	0.3002181	0.4199304	0.3009872	-1.359975	0.6671549	0	0
27.53668	-0.2453502	0.3068831	0.6424778	0.4023033	6.716493	3.057725	0	0
27.55325	-0.2333791	0.3093844	0.7225753	0.1509757	2.417347	-7.585081	0	0
27.56981	-0.2193348	0.3102776	0.8477147	0.05391578	3.776715	-2.929274	0	0
27.58638	-0.2002532	0.3109207	1.151765	0.03881965	9.17627	-0.4556022	0	0
27.60309	-0.1916451	0.3115281	0.5151408	0.03634895	-19.13078	-0.07424551	0	0
27.61951	-0.1810991	0.3126536	0.6421748	0.06853042	3.834115	0.9712946	0	0
27.63611	-0.1709723	0.3141005	0.6100644	0.08716642	-0.9723943	0.5643524	0	0
27.65265	-0.1674437	0.3149936	0.2134287	0.05402234	-11.97118	-1.000348	0	0
27.66921	-0.1674437	0.3149936	0	0	-6.447972	-1.632089	0	0
27.68578	-0.1674437	0.3149936	0	0	0	0	0	0
27.70266	-0.1674437	0.3149936	0	0	0	0	0	0
27.71917	-0.1674437	0.3149936	0	0	0	0	0	0
27.73548	-0.1674437	0.3149936	0	0	0	0	0	0
27.75205	-0.1674437	0.3149936	0	0	0	0	0	0
27.76861	-0.1674437	0.3149936	0	0	0	0	0	0
27.78518	-0.1674437	0.3149936	0	0	0	0	0	0
27.80175	-0.1674437	0.3149936	0	0	0	0	0	0
27.81832	-0.1674437	0.3149936	0	0	0	0	0	0
27.83488	-0.1674692	0.3149758	-0.001544331	-0.001079323	-0.04660802	-0.03257403	0	0
27.85177	-0.1674692	0.3149758	0	0	0.04616423	0.03226388	0	0
27.86802	-0.1674692	0.3149758	0	0	0	0	0	0
27.88458	-0.1674692	0.3149758	0	0	0	0	0	0
27.90115	-0.1674948	0.3149579	-0.001544331	-0.001077524	-0.04660802	-0.03251974	0	0
27.91781	-0.1675204	0.3149401	-0.001535317	-0.001071234	0.0002712654	0.000189271	0	0
27.93433	-0.167546	0.3149222	-0.001549326	-0.001082814	-0.0004222321	-0.0003490004	0	0
27.95085	-0.167546	0.3149222	0	0	0.04689913	0.03277749	0	0
28.05042	-0.1676228	0.3149043	-0.0007708788	-0.0001792881	-0.00664031	-0.001544378	0	0
28.07161	-0.1676228	0.3149043	0	0	0.006383361	0.001484618	0	0
28.08844	-0.1676228	0.3149043	0	0	0	0	0	0
28.10475	-0.1676228	0.3149043	0	0	0	0	0	0
28.12132	-0.1676228	0.3149043	0	0	0	0	0	0
28.13788	-0.1676483	0.3148865	-0.001544331	-0.001079323	-0.04660802	-0.03257403	0	0
28.15445	-0.1676483	0.3148865	0	0	0.04660802	0.03257403	0	0
28.1715	-0.1676483	0.3148865	0	0	0	0	0	0
28.18758	-0.1676739	0.3149043	-0.001591041	0.001111968	-0.04802323	0.03356311	0	0
28.20415	-0.1676739	0.3149043	0	0	0.04873304	-0.0340592	0	0
28.22103	-0.1676739	0.3149043	0	0	0	0	0	0
28.23754	-0.1676739	0.3149043	0	0	0	0	0	0
28.25406	-0.1676739	0.3149043	0	0	0	0	0	0
28.27041	-0.1676739	0.3149043	0	0	0	0	0	0
28.28698	-0.1676739	0.3149043	0	0	0	0	0	0
28.30359	-0.1676739	0.3149043	0	0	0	0	0	0
28.33668	-0.1676739	0.3149043	0	0	0	0	0	0
28.35325	-0.1676739	0.3149043	0	0	0	0	0	0
28.36982	-0.1676739	0.3149043	0	0	0	0	0	0
28.38665	-0.1676995	0.3148865	-0.001519122	-0.001062323	-0.04548326	-0.03180648	0	0
28.40295	-0.1676995	0.3148865	0	0	0.04584983	0.03206282	0	0
28.41967	-0.1676995	0.3148865	0	0	0	0	0	0
28.43608	-0.1676995	0.3148865	0	0	0	0	0	0
28.45265	-0.1676995	0.3148865	0	0	0	0	0	0
28.46922	-0.1676995	0.3148865	0	0	0	0	0	0
28.48578	-0.1676995	0.3148865	0	0	0	0	0	0
28.50235	-0.1676995	0.3148865	0	0	0	0	0	0
28.51892	-0.1676995	0.3148865	0	0	0	0	0	0
28.53576	-0.1676995	0.3148865	0	0	0	0	0	0
28.55205	-0.1676995	0.3148865	0	0	0	0	0	0
28.56862	-0.1677251	0.3149043	-0.001544331	0.001079323	-0.04699486	0.03284439	0	0
28.58519	-0.1677251	0.3149043	0	0	0.04660802	-0.03257403	0	0
28.6018	-0.1677251	0.3149043	0	0	0	0	0	0
28.61832	-0.1677251	0.3149043	0	0	0	0	0	0
28.63489	-0.1677251	0.3149043	0	0	0	0	0	0
28.65145	-0.1677251	0.3149043	0	0	0	0	0	0
28.66802	-0.1677251	0.3149043	0	0	0	0	0	0
28.68459	-0.1677251	0.3149043	0	0	0	0	0	0
28.70115	-0.1677251	0.3149043	0	0	0	0	0	0
28.71789	-0.1676995	0.3148865	0.001528842	-0.001068498	0.045908	-0.0320848	0	0
28.73429	-0.1677251	0.3148686	-0.001560137	-0.001088553	-0.0932256	-0.0006052501	0	0
28.80056	-0.1677763	0.3148329	-0.0007721657	-0.0005392118	0.009531728	0.006645119	0	0
28.8745	-0.1678018	0.3148507	-0.0003459997	0.0002418169	0.003039377	0.005570225	0	0
28.89107	-0.1678018	0.3148507	0	0	0.003822723	-0.002671676	0	0
28.90763	-0.1678018	0.3148507	0	0	0	0	0	0
28.9242	-0.1678018	0.3148507	0	0	0	0	0	0
28.94076	-0.1678018	0.3148507	0	0	0	0	0	0
28.95733	-0.1678018	0.3148507	0	0	0	0	0	0
28.97407	-0.1677763	0.3148329	0.001528146	-0.001068011	0.04587657	-0.03206283	0	0
28.99046	-0.1677763	0.3148329	0	0	-0.04612218	0.03223449	0	0
29.00712	-0.1678018	0.314815	-0.00153602	-0.001071725	-0.04648025	-0.0324306	0	0
29.0236	-0.1678018	0.314815	0	0	0.04635717	0.03234472	0	0
29.04016	-0.1678018	0.314815	0	0	0	0	0	0
29.05673	-0.1678018	0.314815	0	0	0	0	0	0
29.0733	-0.1678018	0.314815	0	0	0	0	0	0
29.09016	-0.1678018	0.314815	0	0	0	0	0	0
29.10643	-0.1678018	0.314815	0	0	0	0	0	0
29.123	-0.1678274	0.3148329	-0.001543432	0.001077524	-0.04699749	0.03281061	0	0
29.13957	-0.1678274	0.3148329	0	0	0.04657551	-0.032516	0	0
29.15623	-0.1678274	0.3148329	0	0	0	0	0	0
29.17272	-0.1678274	0.3148329	0	0	0	0	0	0
29.18927	-0.1678274	0.3148329	0	0	0	0	0	0
29.20583	-0.1678274	0.3148329	0	0	0	0	0	0
29.2224	-0.1678274	0.3148329	0	0	0	0	0	0
29.23897	-0.1678274	0.3148329	0	0	0	0	0	0
29.25554	-0.1678274	0.3148329	0	0	0	0	0	0
29.27229	-0.1678274	0.3148329	0	0	0	0	0	0
29.28867	-0.1678274	0.3148329	0	0	0	0	0	0
29.31396	-0.1678274	0.3148329	0	0	0	0	0	0
29.33053	-0.1678274	0.3148329	0	0	0	0	0	0
29.3471	-0.1678274	0.3148329	0	0	0	0	0	0
29.36385	-0.1678274	0.3148329	0	0	0	0	0	0
29.38036	-0.1678274	0.3148329	0	0	0	0	0	0
29.39687	-0.1678274	0.3148329	0	0	0	0	0	0
29.41336	-0.1678274	0.3148329	0	0	0	0	0	0
29.42993	-0.1678274	0.3148329	0	0	0	0	0	0
29.4465	-0.1678274	0.3148329	0	0	0	0	0	0
29.46543	-0.1678274	0.3148329	0	0	0	0	0	0
29.48244	-0.1678274	0.3148329	0	0	0	0	0	0
29.49856	-0.1678274	0.3148329	0	0	0	0	0	0
29.51513	-0.1678274	0.3148329	0	0	0	0	0	0
29.53169	-0.1678274	0.3148329	0	0	0	0	0	0
29.64766	-0.1678274	0.3148329	0	0	0	0	0	0
29.66457	-0.1678274	0.3148329	0	0	0	0	0	0
29.6808	-0.1678274	0.3148329	0	0	0	0	0	0
29.69736	-0.1678274	0.3148329	0	0	0	0	0	0
29.71395	-0.1678274	0.3148329	0	0	0	0	0	0
29.7305	-0.1678274	0.3148329	0	0	0	0	0	0
29.74706	-0.1678274	0.3148329	0	0	0	0	0	0
29.76363	-0.1678274	0.3148329	0	0	0	0	0	0
29.7802	-0.1678274	0.3148329	0	0	0	0	0	0
29.79677	-0.1678274	0.3148329	0	0	0	0	0	0
29.81333	-0.167853	0.314815	-0.001544331	-0.001077524	-0.04660802	-0.03251974	0	0
29.8299	-0.167853	0.314815	0	0	0.04660802	0.03251974	0	0
29.84647	-0.167853	0.314815	0	0	0	0	0	0
29.86321	-0.167853	0.314815	0	0	0	0	0	0
29.87973	-0.167853	0.314815	0	0	0	0	0	0
29.89617	-0.167853	0.314815	0	0	0	0	0	0
29.91273	-0.167853	0.314815	0	0	0	0	0	0
29.9293	-0.167853	0.314815	0	0	0	0	0	0
29.94627	-0.167853	0.314815	0	0	0	0	0	0
29.96278	-0.167853	0.314815	0	0	0	0	0	0
29.979	-0.167853	0.314815	0	0	0	0	0	0
29.99557	-0.167853	0.314815	0	0	0	0	0	0
30.01213	-0.167853	0.314815	0	0	0	0	0	0
30.02883	-0.167853	0.314815	0	0	0	0	0	0
30.04527	-0.167853	0.314815	0	0	0	0	0	0
30.06185	-0.167853	0.314815	0	0	0	0	0	0
30.0784	-0.167853	0.314815	0	0	0	0	0	0
30.09497	-0.167853	0.314815	0	0	0	0	0	0
30.11153	-0.167853	0.314815	0	0	0	0	0	0
30.1281	-0.167853	0.314815	0	0	0	0	0	0
30.14491	-0.167853	0.314815	0	0	0	0	0	0
30.16142	-0.167853	0.314815	0	0	0	0	0	0
30.1778	-0.167853	0.314815	0	0	0	0	0	0
30.19735	-0.167853	0.314815	0	0	0	0	0	0
30.21396	-0.167853	0.314815	0	0	0	0	0	0
30.23048	-0.167853	0.314815	0	0	0	0	0	0
30.24705	-0.167853	0.314815	0	0	0	0	0	0
30.26362	-0.167853	0.314815	0	0	0	0	0	0
30.28019	-0.167853	0.314815	0	0	0	0	0	0
30.29675	-0.167853	0.314815	0	0	0	0	0	0
30.31332	-0.167853	0.314815	0	0	0	0	0	0
30.33004	-0.167853	0.314815	0	0	0	0	0	0
30.37959	-0.167853	0.314815	0	0	0	0	0	0
30.39615	-0.167853	0.314815	0	0	0	0	0	0
30.41272	-0.167853	0.314815	0	0	0	0	0	0
30.42929	-0.167853	0.314815	0	0	0	0	0	0
30.44586	-0.167853	0.314815	0	0	0	0	0	0
30.46242	-0.167853	0.314815	0	0	0	0	0	0
30.47899	-0.167853	0.314815	0	0	0	0	0	0
30.49566	-0.167853	0.314815	0	0	0	0	0	0
30.51217	-0.167853	0.314815	0	0	0	0	0	0
30.52869	-0.167853	0.314815	0	0	0	0	0	0
30.54526	-0.167853	0.314815	0	0	0	0	0	0
30.56183	-0.167853	0.314815	0	0	0	0	0	0
30.57839	-0.167853	0.314815	0	0	0	0	0	0
30.59496	-0.167853	0.314815	0	0	0	0	0	0
30.61153	-0.167853	0.314815	0	0	0	0	0	0
30.6281	-0.167853	0.314815	0	0	0	0	0	0
30.64466	-0.167853	0.314815	0	0	0	0	0	0
30.66129	-0.167853	0.314815	0	0	0	0	0	0
30.71278	-0.167853	0.314815	0	0	0	0	0	0
30.72935	-0.167853	0.314815	0	0	0	0	0	0
30.74591	-0.167853	0.314815	0	0	0	0	0	0
30.76286	-0.167853	0.314815	0	0	0	0	0	0
30.77905	-0.167853	0.314815	0	0	0	0	0	0
30.79561	-0.167853	0.314815	0	0	0	0	0	0
30.81218	-0.167853	0.314815	0	0	0	0	0	0
30.82891	-0.167853	0.314815	0	0	0	0	0	0
30.84532	-0.167853	0.314815	0	0	0	0	0	0
30.86193	-0.167853	0.314815	0	0	0	0	0	0
30.87845	-0.167853	0.314815	0	0	0	0	0	0
30.91328	-0.167853	0.314815	0	0	0	0	0	0
30.92998	-0.167853	0.314815	0	0	0	0	0	0
30.96298	-0.167853	0.314815	0	0	0	0	0	0
30.97955	-0.167853	0.314815	0	0	0	0	0	0
30.99612	-0.167853	0.314815	0	0	0	0	0	0
31.01269	-0.167853	0.314815	0	0	0	0	0	0
31.02955	-0.167853	0.314815	0	0	0	0	0	0
31.04582	-0.167853	0.314815	0	0	0	0	0	0
31.06239	-0.167853	0.314815	0	0	0	0	0	0
31.07895	-0.167853	0.314815	0	0	0	0	0	0
31.09552	-0.167853	0.314815	0	0	0	0	0	0
31.11209	-0.167853	0.314815	0	0	0	0	0	0
31.12865	-0.167853	0.314815	0	0	0	0	0	0
31.14522	-0.167853	0.314815	0	0	0	0	0	0
31.16179	-0.167853	0.314815	0	0	0	0	0	0
31.17835	-0.167853	0.314815	0	0	0	0	0	0
31.19492	-0.167853	0.314815	0	0	0	0	0	0
31.21149	-0.167853	0.314815	0	0	0	0	0	0
31.2282	-0.167853	0.314815	0	0	0	0	0	0
31.24462	-0.167853	0.314815	0	0	0	0	0	0
31.26119	-0.167853	0.314815	0	0	0	0	0	0
31.27775	-0.167853	0.314815	0	0	0	0	0	0
31.29432	-0.167853	0.314815	0	0	0	0	0	0
31.31089	-0.167853	0.314815	0	0	0	0	0	0
31.32746	-0.167853	0.314815	0	0	0	0	0	0
31.34402	-0.167853	0.314815	0	0	0	0	0	0
31.36079	-0.167853	0.314815	0	0	0	0	0	0
31.3773	-0.167853	0.314815	0	0	0	0	0	0
31.39381	-0.167853	0.314815	0	0	0	0	0	0
31.41032	-0.167853	0.314815	0	0	0	0	0	0
31.42686	-0.167853	0.314815	0	0	0	0	0	0
31.52641	-0.167853	0.314815	0	0	0	0	0	0
31.54283	-0.167853	0.314815	0	0	0	0	0	0
31.55943	-0.167853	0.314815	0	0	0	0	0	0
31.57596	-0.167853	0.314815	0	0	0	0	0	0
31.59253	-0.167853	0.314815	0	0	0	0	0	0
31.60909	-0.167853	0.314815	0	0	0	0	0	0
31.62921	-0.167853	0.314815	0	0	0	0	0	0
31.64577	-0.167853	0.314815	0	0	0	0	0	0
31.66234	-0.167853	0.314815	0	0	0	0	0	0
31.67902	-0.167853	0.314815	0	0	0	0	0	0
31.69548	-0.167853	0.314815	0	0	0	0	0	0
31.71205	-0.167853	0.314815	0	0	0	0	0	0
31.72861	-0.167853	0.314815	0	0	0	0	0	0
31.76174	-0.167853	0.314815	0	0	0	0	0	0
31.77859	-0.167853	0.314815	0	0	0	0	0	0
31.79488	-0.167853	0.314815	0	0	0	0	0	0
31.81145	-0.167853	0.314815	0	0	0	0	0	0
31.82801	-0.167853	0.314815	0	0	0	0	0	0
31.84458	-0.167853	0.314815	0	0	0	0	0	0
31.86115	-0.167853	0.314815	0	0	0	0	0	0
31.87771	-0.167853	0.314815	0	0	0	0	0	0
31.89428	-0.167853	0.314815	0	0	0	0	0	0
31.91085	-0.1678786	0.3147972	-0.001544331	-0.001077524	-0.04660802	-0.03251974	0	0
31.92742	-0.1679042	0.3147793	-0.001544331	-0.001079323	0	-5.428939E-05	0	0
31.94398	-0.1679553	0.3147435	-0.003087763	-0.002156847	-0.04658087	-0.03251974	0	0
31.96055	-0.1680832	0.3146543	-0.007719858	-0.00538942	-0.1397969	-0.09755924	0	0
31.97712	-0.1684925	0.3143685	-0.02470211	-0.01725118	-0.5125253	-0.3579886	0	0
31.99375	-0.168518	0.3143506	-0.001537238	-0.001074991	0.6977115	0.4872167	0	0
32.01025	-0.1687482	0.3141898	-0.01395141	-0.009743497	-0.374682	-0.2616311	0	0
32.02681	-0.1692085	0.3138683	-0.02778907	-0.0194125	-0.4185371	-0.2924507	0	0
32.04338	-0.17041	0.3130287	-0.07252331	-0.05067781	-1.350237	-0.9436978	0	0
32.05995	-0.1728116	0.3113495	-0.1449576	-0.1013574	-2.186071	-1.529514	0	0
32.07652	-0.1745221	0.3101526	-0.1032471	-0.07224629	1.258824	0.8785759	0	0
32.09308	-0.1809973	0.305686	-0.3908436	-0.2696005	-8.679678	-5.956162	0	0
32.10965	-0.1875841	0.3010937	-0.3975848	-0.2771918	-0.2034515	-0.2291043	0	0
32.12634	-0.1921776	0.2978947	-0.2751719	-0.1916365	3.680445	2.572289	0	0
32.14278	-0.2038901	0.2900116	-0.7125421	-0.4795831	-13.20138	-8.691244	0	0
32.15935	-0.2110466	0.285434	-0.4319703	-0.2763013	8.500949	6.159165	0	0
32.17591	-0.2177297	0.2811416	-0.4033952	-0.2590915	0.862398	0.5193927	0	0
32.19248	-0.2243181	0.277188	-0.3976757	-0.2386383	0.1726152	0.6172779	0	0
32.20905	-0.2339519	0.2737167	-0.5814952	-0.209529	-5.547684	0.8785217	0	0
32.22562	-0.2414586	0.2706384	-0.4531025	-0.1858073	3.874898	0.7159231	0	0
32.24243	-0.2475776	0.2692959	-0.3639824	-0.0798552	2.669978	3.174251	0	0
32.30847	-0.2892583	0.261095	-0.631107	-0.1241729	-3.223992	-0.5348806	0	0
32.36401	-0.3249524	0.2371599	-0.64265	-0.4309382	-0.09493733	-2.523035	0	0
32.38058	-0.3315314	0.2321869	-0.3971099	-0.3001669	3.405113	1.813517	0	0
32.41372	-0.345276	0.2222514	-0.4148126	-0.2998566	-0.356179	0.006243284	0	0
32.43056	-0.3514371	0.2198961	-0.3658179	-0.1398429	0.9803587	3.20179	0	0
32.44707	-0.362572	0.2205075	-0.6744365	0.03702815	-9.253404	5.303177	0	0
32.46358	-0.3713763	0.2210109	-0.5331467	0.03048481	4.278416	-0.1981397	0	0
32.47998	-0.3784402	0.2210469	-0.4307433	0.002192552	3.111316	-0.859602	0	0
32.4966	-0.3844927	0.2204535	-0.3640718	-0.03568957	2.018891	-1.147115	0	0
32.51311	-0.3880379	0.217918	-0.21473	-0.1535757	4.507144	-3.557811	0	0
32.52968	-0.3901106	0.2162632	-0.1251367	-0.09990716	2.70892	1.62271	0	0
32.54625	-0.3900656	0.2162992	0.002718095	0.002171238	3.859111	3.081087	0	0
32.56281	-0.3900656	0.2162992	0	0	-0.08203228	-0.06552809	0	0
32.57938	-0.3900656	0.2162992	0	0	0	0	0	0
32.59617	-0.3900656	0.2162992	0	0	0	0	0	0
32.61269	-0.3900431	0.2162812	0.00136254	-0.00108913	0.04090961	-0.03270059	0	0
32.6292	-0.3900431	0.2162812	0	0	-0.0412593	0.03298012	0	0
32.64565	-0.3900431	0.2162812	0	0	0	0	0	0
32.66222	-0.3900205	0.2162632	0.001359634	-0.001085369	0.04117605	-0.03287003	0	0
32.67878	-0.3900205	0.2162632	0	0	-0.04103856	0.03276028	0	0
32.69534	-0.3900205	0.2162632	0	0	0	0	0	0
32.71191	-0.3900205	0.2162272	0	-0.002171238	0	-0.06552809	0	0
32.72848	-0.3900205	0.2162272	0	0	0	0.06552809	0	0
32.74504	-0.3900205	0.2162272	0	0	0	0	0	0
32.76161	-0.3900205	0.2162272	0	0	0	0	0	0
32.7783	-0.3900205	0.2162272	0	0	0	0	0	0
32.79475	-0.3900205	0.2162272	0	0	0	0	0	0
32.81133	-0.3900205	0.2162272	0	0	0	0	0	0
32.82834	-0.3900205	0.2162272	0	0	0	0	0	0
32.84444	-0.3900205	0.2162272	0	0	0	0	0	0
32.86101	-0.3900205	0.2162272	0	0	0	0	0	0
32.87758	-0.3900205	0.2162272	0	0	0	0	0	0
32.89415	-0.3900205	0.2162272	0	0	0	0	0	0
32.91071	-0.3900205	0.2162272	0	0	0	0	0	0
32.92728	-0.3900205	0.2162272	0	0	0	0	0	0
32.94392	-0.3900205	0.2162272	0	0	0	0	0	0
32.96041	-0.3900205	0.2162272	0	0	0	0	0	0
32.97698	-0.3900205	0.2162272	0	0	0	0	0	0
32.99355	-0.3900205	0.2162272	0	0	0	0	0	0
33.01047	-0.3900431	0.2162452	-0.001331436	0.001062859	-0.03975714	0.03173735	0	0
33.11226	-0.3991258	0.2235276	-0.08923226	0.07154485	-0.7404696	0.5937347	0	0
33.12906	-0.4026505	0.226367	-0.2098534	0.1690529	-1.017181	0.8222719	0	0
33.14539	-0.408893	0.2314148	-0.3820774	0.3089504	-5.197731	4.222115	0	0
33.16196	-0.4113939	0.2334439	-0.1509541	0.122478	7.023832	-5.666893	0	0
33.17859	-0.4164454	0.2375547	-0.3037181	0.2471644	-4.60142	3.755693	0	0
33.1951	-0.4188419	0.2395108	-0.1452211	0.1185356	4.783448	-3.882023	0	0
33.21166	-0.4235321	0.2433502	-0.2831028	0.2317459	-4.169439	3.423394	0	0
33.22823	-0.4268297	0.2460585	-0.1990416	0.1634716	2.536974	-2.060525	0	0
33.24514	-0.4289646	0.2478159	-0.126246	0.1039205	2.174445	-1.778823	0	0
33.26136	-0.430726	0.2492681	-0.1085686	0.08951494	0.5335047	-0.4347614	0	0
33.27793	-0.4315731	0.2499673	-0.05112933	0.04220333	1.75167	-1.442817	0	0
33.2945	-0.4316382	0.2500211	-0.003930535	0.003245165	1.424462	-1.17576	0	0
33.31119	-0.4316165	0.250039	0.0013	0.001075	0.1572784	-0.06525529	0	0
33.3277	-0.4316382	0.250057	-0.001313814	0.001084618	-0.07872193	0.0002896786	0	0
33.34421	-0.4316382	0.250057	0	0	0.03978381	-0.0328435	0	0
33.36076	-0.4316382	0.250057	0	0	0	0	0	0
33.37774	-0.4316382	0.250057	0	0	0	0	0	0
33.39425	-0.4316382	0.250057	0	0	0	0	0	0
33.41047	-0.4316382	0.250057	0	0	0	0	0	0
33.42703	-0.4316382	0.250057	0	0	0	0	0	0
33.44378	-0.4316382	0.250057	0	0	0	0	0	0
33.4603	-0.4316382	0.250057	0	0	0	0	0	0
33.47681	-0.4316382	0.250057	0	0	0	0	0	0
33.4933	-0.4316382	0.250057	0	0	0	0	0	0
33.50987	-0.4316382	0.250057	0	0	0	0	0	0
33.52644	-0.4316382	0.250057	0	0	0	0	0	0
33.543	-0.4316382	0.250057	0	0	0	0	0	0
33.55957	-0.4316382	0.250057	0	0	0	0	0	0
33.57614	-0.4316382	0.250057	0	0	0	0	0	0
33.5929	-0.4316165	0.2500749	0.001294673	0.001070595	0.03884969	0.0321257	0	0
33.60927	-0.4316165	0.2500749	0	0	-0.03907332	-0.03231063	0	0
33.62584	-0.4316165	0.2500749	0	0	0	0	0	0
33.64243	-0.4316165	0.2500749	0	0	0	0	0	0
33.65897	-0.4316165	0.2500749	0	0	0	0	0	0
33.67595	-0.4316165	0.2500749	0	0	0	0	0	0
33.6921	-0.4316165	0.2500749	0	0	0	0	0	0
33.70867	-0.4316165	0.2500749	0	0	0	0	0	0
33.72524	-0.4316165	0.2500749	0	0	0	0	0	0
33.74895	-0.4316165	0.2500749	0	0	0	0	0	0
33.76552	-0.4316165	0.2500749	0	0	0	0	0	0
33.83179	-0.4316382	0.2500928	-0.0003273947	0.0002707302	-0.003952316	0.003268261	0	0
33.84836	-0.4316382	0.2500928	0	0	0.003952316	-0.003268261	0	0
33.86493	-0.4316382	0.2500928	0	0	0	0	0	0
33.8816	-0.4316382	0.2500928	0	0	0	0	0	0
33.89806	-0.4316382	0.2500928	0	0	0	0	0	0
33.91462	-0.4316382	0.2500928	0	0	0	0	0	0
33.93119	-0.4316382	0.2500928	0	0	0	0	0	0
33.94776	-0.4316382	0.2500928	0	0	0	0	0	0
33.96466	-0.4316382	0.2500928	0	0	0	0	0	0
33.99746	-0.4316165	0.2500749	0.000661568	-0.0005470659	0.0133118	-0.01100783	0	0
34.01402	-0.4316165	0.2500749	0	0	-0.01340233	0.01108269	0	0
34.03071	-0.4316165	0.2500749	0	0	0	0	0	0
34.04722	-0.4316165	0.2500749	0	0	0	0	0	0
34.06372	-0.4316165	0.2500749	0	0	0	0	0	0
34.08029	-0.4316165	0.2500749	0	0	0	0	0	0
34.09686	-0.4316382	0.2500928	-0.001309579	0.001082921	-0.03952316	0.03268262	0	0
34.11343	-0.4316382	0.2500928	0	0	0.03952316	-0.03268262	0	0
34.12999	-0.4316382	0.2500928	0	0	0	0	0	0
34.14656	-0.4316165	0.2501107	0.001309579	0.001081122	0.03952316	0.03262833	0	0
34.16313	-0.4315948	0.2501287	0.001311378	0.001082921	5.428939E-05	5.428939E-05	0	0
34.1797	-0.4314862	0.2501824	0.00655329	0.003245165	0.1582012	0.06525665	0	0
34.19633	-0.4313342	0.2503079	0.00913638	0.007543783	0.07779659	0.1294643	0	0
34.21283	-0.4311604	0.2504514	0.01053107	0.008692197	0.04209183	0.03465918	0	0
34.2294	-0.4308998	0.2506665	0.01573293	0.01298426	0.1573185	0.1298036	0	0
34.24596	-0.4306608	0.2508637	0.01442695	0.01190313	-0.0394146	-0.03262833	0	0
34.26288	-0.4302479	0.2512401	0.02441186	0.02225523	0.2982208	0.3091876	0	0
34.2791	-0.429726	0.2516703	0.03217236	0.02652244	0.2342123	0.1287848	0	0
34.29567	-0.4274401	0.2535522	0.1379789	0.1135934	3.227055	2.655627	0	0
34.31223	-0.4244066	0.2560073	0.1831018	0.1481875	1.361812	1.044052	0	0
34.3288	-0.4179191	0.26131	0.3915892	0.3200715	6.292163	5.187469	0	0
34.34537	-0.4124988	0.2657153	0.327168	0.2659074	-1.944236	-1.634673	0	0
34.36195	-0.4046091	0.2720881	0.4756767	0.3842212	4.479423	3.568662	0	0
34.3785	-0.3987013	0.2767944	0.3570085	0.284398	-3.581412	-3.012669	0	0
34.39507	-0.3947836	0.2799252	0.2364671	0.1889751	-3.640044	-2.88153	0	0
34.41164	-0.3865263	0.2864533	0.498417	0.3940375	7.905663	6.188795	0	0
34.4282	-0.3805064	0.2912094	0.3633613	0.2870784	-4.075989	-3.228032	0	0
34.46354	-0.365697	0.3024876	0.4191069	0.3191739	1.07404	0.6183784	0	0
34.48011	-0.3579167	0.3079908	0.4696171	0.3321778	0.9731684	0.2505443	0	0
34.49667	-0.3508802	0.3120998	0.4247262	0.2480159	-1.354809	-2.540014	0	0
34.51357	-0.3429206	0.315601	0.4712218	0.2072747	1.389642	-1.217654	0	0
34.53009	-0.3337179	0.3207986	0.5570163	0.3145997	2.567701	3.212078	0	0
34.54659	-0.3240304	0.3234597	0.5870337	0.1612579	0.9089628	-4.643368	0	0
34.56294	-0.3091777	0.3253707	0.9082218	0.1168504	9.775634	-1.351581	0	0
34.57951	-0.2978904	0.3270673	0.6813011	0.1024062	-6.892919	-0.4387552	0	0
34.59608	-0.2898384	0.3283888	0.4860192	0.07976737	-5.893621	-0.6832405	0	0
34.61264	-0.2743016	0.3324604	0.9378076	0.2457637	13.635	5.009778	0	0
34.62921	-0.2628532	0.3360319	0.6910258	0.215575	-7.44789	-0.9110957	0	0
34.64578	-0.251556	0.3430855	0.6819001	0.4257552	-0.2754145	6.34325	0	0
34.66235	-0.2442355	0.3483356	0.4418659	0.3168964	-7.244247	-3.285363	0	0
34.67969	-0.2360923	0.3541217	0.4695732	0.3336536	0.8171116	0.4941817	0	0
34.69548	-0.228791	0.3591045	0.4623198	0.3155137	-0.2189074	-0.5474632	0	0
34.71205	-0.2269929	0.3602119	0.1085295	0.06684068	-10.93292	-7.684561	0	0
34.72872	-0.2181562	0.3617658	0.5299711	0.09319413	12.67826	0.7927933	0	0
34.74524	-0.2108705	0.3612657	0.4411888	-0.03028449	-2.675145	-3.720595	0	0
34.80397	-0.2028551	0.3583365	0.1364666	-0.04987122	-4.049534	-0.2602932	0	0
34.82054	-0.2026784	0.3584616	0.01066821	0.007548066	-1.670582	0.7625188	0	0
34.8373	-0.2024511	0.3585866	0.013555	0.007456983	0.08660502	-0.002732542	0	0
34.85367	-0.2023754	0.3586401	0.004628146	0.003271746	-0.2694129	-0.1263107	0	0
34.87024	-0.2022744	0.3586759	0.006097276	0.002156847	0.04460546	-0.03385036	0	0
34.91994	-0.2014914	0.3582651	0.01575362	-0.008265216	0.1457145	-0.1572692	0	0
34.93651	-0.1998488	0.3571399	0.09914572	-0.06791461	1.258389	-0.9001111	0	0
34.95308	-0.1946106	0.3537645	0.3161778	-0.203742	6.550041	-4.099279	0	0
34.9699	-0.1910364	0.3517822	0.2124646	-0.1178341	-3.106112	2.57286	0	0
34.98621	-0.1876857	0.3521036	0.2054125	0.01970665	-0.2128326	4.150988	0	0
35.00278	-0.1840511	0.3533002	0.2193363	0.07220627	0.4234393	1.596573	0	0
35.01934	-0.1832625	0.3537824	0.04762097	0.02911915	-5.182975	-1.300521	0	0
35.03645	-0.1832625	0.3537824	0	0	-1.414567	-0.8649758	0	0
35.05247	-0.1832625	0.3537824	0	0	0	0	0	0
35.06904	-0.1832625	0.3537824	0	0	0	0	0	0
35.08598	-0.1832371	0.3538002	0.001501795	0.001053984	0.04482369	0.03145799	0	0
35.10249	-0.1832116	0.3537824	0.001541561	-0.001081259	0.001188915	-0.06383907	0	0
35.12164	-0.1831353	0.3537288	0.003986414	-0.00279874	0.06856784	-0.04816812	0	0
35.1382	-0.183059	0.3536752	0.004606911	-0.003234371	0.01737443	-0.01219805	0	0
35.15477	-0.1829572	0.3536038	0.006143147	-0.004311895	0.04636371	-0.03251974	0	0
35.17154	-0.1827791	0.3535145	0.01062223	-0.005324443	0.1343591	-0.03037341	0	0
35.18805	-0.1827537	0.3534966	0.001540658	-0.001081259	-0.2728885	0.1275018	0	0
35.20447	-0.1827282	0.3535145	0.001550157	0.001087288	0.000288464	0.06585629	0	0
35.22104	-0.1827282	0.3535145	0	0	-0.04699483	-0.03296242	0	0
35.2376	-0.1827282	0.3535145	0	0	0	0	0	0
35.2542	-0.1827027	0.3534966	0.001533412	-0.001075543	0.04623588	-0.03243008	0	0
35.27074	-0.1827027	0.3534966	0	0	-0.04627846	0.03245995	0	0
35.2873	-0.1827027	0.3534966	0	0	0	0	0	0
35.30387	-0.1827027	0.3534966	0	0	0	0	0	0
35.32044	-0.1827027	0.3534966	0	0	0	0	0	0
35.33716	-0.1827027	0.3534966	0	0	0	0	0	0
35.35367	-0.1827027	0.3534966	0	0	0	0	0	0
35.37018	-0.1827027	0.3534966	0	0	0	0	0	0
35.3867	-0.1827027	0.3534966	0	0	0	0	0	0
35.40327	-0.1827027	0.3534966	0	0	0	0	0	0
35.41984	-0.1827027	0.3534966	0	0	0	0	0	0
35.43641	-0.1827027	0.3534966	0	0	0	0	0	0
35.45324	-0.1827027	0.3534966	0	0	0	0	0	0
35.46954	-0.1827282	0.3534787	-0.001561768	-0.001097261	-0.04713427	-0.03311541	0	0
35.48627	-0.1827282	0.3534787	0	0	0.04729216	0.03322634	0	0
35.50267	-0.1827282	0.3534787	0	0	0	0	0	0
35.51924	-0.1827282	0.3534787	0	0	0	0	0	0
35.53581	-0.1827282	0.3534787	0	0	0	0	0	0
35.55238	-0.1827282	0.3534787	0	0	0	0	0	0
35.56894	-0.1827282	0.3534787	0	0	0	0	0	0
35.58551	-0.1827282	0.3534787	0	0	0	0	0	0
35.60208	-0.1827282	0.3534787	0	0	0	0	0	0
35.61936	-0.1827537	0.3534609	-0.001472495	-0.001032816	-0.0434985	-0.03051007	0	0
35.63521	-0.1827537	0.3534609	0	0	0.0444451	0.03117402	0	0
35.65178	-0.1827537	0.3534609	0	0	0	0	0	0
35.6684	-0.1827791	0.353443	-0.001530404	-0.001074062	-0.04611335	-0.03236309	0	0
35.68491	-0.1828045	0.3534252	-0.001541205	-0.001081009	-0.0003259752	-0.0002096634	0	0
35.70148	-0.1828045	0.3534252	0	0	0.04658874	0.03267758	0	0
35.71843	-0.1828045	0.3534252	0	0	0	0	0	0
35.73461	-0.1828045	0.3534252	0	0	0	0	0	0
35.77347	-0.1828045	0.3534252	0	0	0	0	0	0
35.78999	-0.1828045	0.3534252	0	0	0	0	0	0
35.8065	-0.1828045	0.3534252	0	0	0	0	0	0
35.82301	-0.1828045	0.3534252	0	0	0	0	0	0
35.83956	-0.1828045	0.3534252	0	0	0	0	0	0
35.85613	-0.1828045	0.3534252	0	0	0	0	0	0
35.8727	-0.1828045	0.3534252	0	0	0	0	0	0
35.88926	-0.18283	0.353443	-0.001536236	0.001077524	-0.04636371	0.03251974	0	0
35.90607	-0.18283	0.353443	0	0	0.04603511	-0.03228927	0	0
35.92258	-0.18283	0.353443	0	0	0	0	0	0
35.93896	-0.18283	0.353443	0	0	0	0	0	0
35.95553	-0.1828045	0.3534252	0.001536236	-0.001077524	0.04662134	-0.03270045	0	0
35.9721	-0.18283	0.3534073	-0.001536236	-0.001077524	-0.09272742	0	0	0
35.98866	-0.18283	0.3534073	0	0	0.04636371	0.03251974	0	0
36.00523	-0.1828554	0.3533894	-0.001535337	-0.001079323	-0.04633657	-0.03257403	0	0
36.0218	-0.1828554	0.3533894	0	0	0.04633657	0.03257403	0	0
36.03836	-0.1828554	0.3533894	0	0	0	0	0	0
36.05493	-0.1828809	0.3533716	-0.001536236	-0.001077524	-0.04636371	-0.03251974	0	0
36.0715	-0.1828809	0.3533716	0	0	0.04636371	0.03251974	0	0
36.0882	-0.1828809	0.3533716	0	0	0	0	0	0
36.10471	-0.1828809	0.3533716	0	0	0	0	0	0
36.1212	-0.1828809	0.3533716	0	0	0	0	0	0
36.13776	-0.1828809	0.3533716	0	0	0	0	0	0
36.15433	-0.1828809	0.3533716	0	0	0	0	0	0
36.1709	-0.1828809	0.3533716	0	0	0	0	0	0
36.18747	-0.1828809	0.3533716	0	0	0	0	0	0
36.20403	-0.1829063	0.3533537	-0.001535337	-0.001077524	-0.04633657	-0.03251974	0	0
36.2206	-0.1829063	0.3533537	0	0	0.04633657	0.03251974	0	0
36.2373	-0.1829063	0.3533537	0	0	0	0	0	0
36.25373	-0.1829063	0.3533537	0	0	0	0	0	0
36.2703	-0.1829063	0.3533537	0	0	0	0	0	0
36.28687	-0.1829063	0.3533537	0	0	0	0	0	0
36.30435	-0.1829063	0.3533537	0	0	0	0	0	0
36.32	-0.1829318	0.3533359	-0.001626493	-0.001140831	-0.04908766	-0.03443034	0	0
36.33657	-0.1829318	0.3533359	0	0	0.05048851	0.0354129	0	0
36.35313	-0.1829318	0.3533359	0	0	0	0	0	0
36.3699	-0.1829318	0.3533359	0	0	0	0	0	0
36.47838	-0.1829318	0.3533359	0	0	0	0	0	0
36.49495	-0.1829318	0.3533359	0	0	0	0	0	0
36.51151	-0.1829318	0.3533359	0	0	0	0	0	0
36.52808	-0.1829318	0.3533359	0	0	0	0	0	0
36.54465	-0.1829318	0.3533359	0	0	0	0	0	0
36.56121	-0.1829318	0.3533359	0	0	0	0	0	0
36.57778	-0.1829318	0.3533359	0	0	0	0	0	0
36.59435	-0.1829318	0.3533359	0	0	0	0	0	0
36.61107	-0.1829318	0.3533359	0	0	0	0	0	0
36.62758	-0.1829572	0.3533537	-0.001541561	0.001081259	-0.04638555	0.03253506	0	0
36.6441	-0.1829572	0.3533537	0	0	0.04668025	-0.03274177	0	0
36.66061	-0.1829572	0.3533537	0	0	0	0	0	0
36.67718	-0.1829572	0.3533537	0	0	0	0	0	0
36.69413	-0.1829318	0.3533359	0.00150166	-0.001053272	0.04480436	-0.03142601	0	0
36.71031	-0.1829318	0.3533359	0	0	-0.0453254	0.03179147	0	0
36.72715	-0.1829318	0.3533359	0	0	0	0	0	0
36.76001	-0.1829318	0.3533359	0	0	0	0	0	0
36.77668	-0.1829318	0.3533359	0	0	0	0	0	0
36.79314	-0.1829318	0.3533359	0	0	0	0	0	0
36.80971	-0.1829318	0.3533359	0	0	0	0	0	0
36.82627	-0.1829318	0.3533359	0	0	0	0	0	0
36.84327	-0.1829318	0.3533359	0	0	0	0	0	0
36.85941	-0.1829318	0.3533359	0	0	0	0	0	0
36.87598	-0.1829318	0.3533359	0	0	0	0	0	0
36.89254	-0.1829318	0.3533359	0	0	0	0	0	0
36.90928	-0.1829318	0.3533359	0	0	0	0	0	0
36.92579	-0.1829318	0.3533359	0	0	0	0	0	0
36.94225	-0.1829318	0.3533359	0	0	0	0	0	0
36.95882	-0.1829318	0.3533359	0	0	0	0	0	0
36.97538	-0.1829318	0.3533359	0	0	0	0	0	0
36.99234	-0.1829572	0.3533537	-0.001500647	0.001052561	-0.04476394	0.03139766	0	0
37.00852	-0.1829572	0.3533537	0	0	0.04528439	-0.03176271	0	0
37.04165	-0.1829572	0.3533537	0	0	0	0	0	0
37.07478	-0.1829572	0.3533537	0	0	0	0	0	0
37.09135	-0.1829572	0.3533537	0	0	0	0	0	0
37.10791	-0.1829572	0.3533537	0	0	0	0	0	0
37.12448	-0.1829572	0.3533537	0	0	0	0	0	0
37.14105	-0.1829572	0.3533537	0	0	0	0	0	0
37.15762	-0.1829572	0.3533537	0	0	0	0	0	0
37.17447	-0.1829572	0.3533537	0	0	0	0	0	0
37.22754	-0.1829572	0.3533537	0	0	0	0	0	0
37.2441	-0.1829572	0.3533537	0	0	0	0	0	0
37.26067	-0.1829572	0.3533537	0	0	0	0	0	0
37.27723	-0.1829572	0.3533537	0	0	0	0	0	0
37.2938	-0.1829572	0.3533537	0	0	0	0	0	0
37.31037	-0.1829318	0.3533359	0.001536236	-0.001077524	0.04636371	-0.03251974	0	0
37.32693	-0.1829318	0.3533359	0	0	-0.04636371	0.03251974	0	0
37.34359	-0.1829318	0.3533359	0	0	0	0	0	0
37.36007	-0.1829318	0.3533359	0	0	0	0	0	0
37.37663	-0.1829318	0.3533359	0	0	0	0	0	0
37.3932	-0.1829318	0.3533359	0	0	0	0	0	0
37.40977	-0.1829318	0.3533359	0	0	0	0	0	0
37.42633	-0.1829318	0.3533359	0	0	0	0	0	0
37.47619	-0.1829572	0.3533537	-0.0005105115	0.0003580754	-0.007685937	0.005390956	0	0
37.4926	-0.1829572	0.3533537	0	0	0.007703634	-0.005403368	0	0
37.50922	-0.1829572	0.3533537	0	0	0	0	0	0
37.52574	-0.1829572	0.3533537	0	0	0	0	0	0
37.5423	-0.1829572	0.3533537	0	0	0	0	0	0
37.55887	-0.1829572	0.3533537	0	0	0	0	0	0
37.57544	-0.1829572	0.3533537	0	0	0	0	0	0
37.59201	-0.1829318	0.3533359	0.001536236	-0.001077524	0.04636371	-0.03251974	0	0
37.60857	-0.1829318	0.3533359	0	0	-0.04636371	0.03251974	0	0
37.62514	-0.1829318	0.3533359	0	0	0	0	0	0
37.64181	-0.1829318	0.3533359	0	0	0	0	0	0
37.65828	-0.1829318	0.3533359	0	0	0	0	0	0
37.67484	-0.1829318	0.3533359	0	0	0	0	0	0
37.69185	-0.1829318	0.3533359	0	0	0	0	0	0
37.70798	-0.1829318	0.3533359	0	0	0	0	0	0
37.72454	-0.1829318	0.3533359	0	0	0	0	0	0
37.74111	-0.1829318	0.3533359	0	0	0	0	0	0
37.75768	-0.1829318	0.3533359	0	0	0	0	0	0
37.77425	-0.1829318	0.3533359	0	0	0	0	0	0
37.79092	-0.1829318	0.3533359	0	0	0	0	0	0
37.80743	-0.1829318	0.3533359	0	0	0	0	0	0
37.84052	-0.1829318	0.3533359	0	0	0	0	0	0
37.85708	-0.1829318	0.3533359	0	0	0	0	0	0
37.87365	-0.1829318	0.3533359	0	0	0	0	0	0
37.89544	-0.1829318	0.3533359	0	0	0	0	0	0
37.91201	-0.1829318	0.3533359	0	0	0	0	0	0
37.92857	-0.1829318	0.3533359	0	0	0	0	0	0
37.94553	-0.1829318	0.3533359	0	0	0	0	0	0
37.9617	-0.1829318	0.3533359	0	0	0	0	0	0
37.97827	-0.1829318	0.3533359	0	0	0	0	0	0
37.99483	-0.1829318	0.3533359	0	0	0	0	0	0
38.0114	-0.1829318	0.3533359	0	0	0	0	0	0
38.02797	-0.1829318	0.3533359	0	0	0	0	0	0
38.0446	-0.1829318	0.3533359	0	0	0	0	0	0
38.0611	-0.1829318	0.3533359	0	0	0	0	0	0
38.07767	-0.1829318	0.3533359	0	0	0	0	0	0
38.09464	-0.1829318	0.3533359	0	0	0	0	0	0
38.1108	-0.1829318	0.3533359	0	0	0	0	0	0
38.12737	-0.1829318	0.3533359	0	0	0	0	0	0
38.14394	-0.1829318	0.3533359	0	0	0	0	0	0
38.1605	-0.1829318	0.3533359	0	0	0	0	0	0
38.1772	-0.1829318	0.3533359	0	0	0	0	0	0
38.19364	-0.1829572	0.3533537	-0.001547999	0.001085774	-0.0467187	0.03276874	0	0
38.21022	-0.1829572	0.3533537	0	0	0.0468752	-0.03287851	0	0
38.22678	-0.1829572	0.3533537	0	0	0	0	0	0
38.24376	-0.1829572	0.3533537	0	0	0	0	0	0
38.25991	-0.1829572	0.3533537	0	0	0	0	0	0
38.27647	-0.1829572	0.3533537	0	0	0	0	0	0
38.29304	-0.1829572	0.3533537	0	0	0	0	0	0
38.3098	-0.1829572	0.3533537	0	0	0	0	0	0
38.32631	-0.1829572	0.3533537	0	0	0	0	0	0
38.37587	-0.1829572	0.3533537	0	0	0	0	0	0
38.40901	-0.1829572	0.3533537	0	0	0	0	0	0
