Time	Pos X	Pos Y	Vel X	Vel Y	Acc X	Acc YForce X	Force Y
0.01690267	0.0031842	0.2218738	-5.110449E-05	-0.003560941	8.204143E-07	5.716616E-05	0	0
0.04381557	0.0031842	0.2218738	0	0	-8.205506E-07	-5.717566E-05	0	0
0.0603827	0.003157884	0.2218918	-0.001588413	0.001085626	-0.03653202	0.02496837	0	0
0.07694983	0.003157884	0.2218918	0	0	0.0479387	-0.03276445	0	0
0.09395712	0.003157884	0.2218918	0	0	0	0	0	0
0.143218	0.003157884	0.2218918	0	0	0	0	0	0
0.1597827	0.003157884	0.2218918	0	0	0	0	0	0
0.1763498	0.003157884	0.2218918	0	0	0	0	0	0
0.1929166	0.003157884	0.2218918	0	0	0	0	0	0
0.2094829	0.003157884	0.2218918	0	0	0	0	0	0
0.22605	0.003157884	0.2218918	0	0	0	0	0	0
0.242616	0.003157884	0.2219278	0	0.002170507	0	0.06550876	0	0
0.2591827	0.003157884	0.2219278	0	0	0	-0.06550956	0	0
0.2757494	0.003131569	0.2219457	-0.001588466	0.001084753	-0.04794148	0.03273891	0	0
0.2923166	0.003131569	0.2219457	0	0	0.04794087	-0.0327385	0	0
0.3088833	0.003131569	0.2219457	0	0	0	0	0	0
0.3254496	0.003157884	0.2219637	0.001588503	0.001084778	0.04794316	0.03274006	0	0
0.3421332	0.003157884	0.2219637	0	0	-0.04777467	-0.03262499	0	0
0.3585831	0.003157884	0.2219637	0	0	0	0	0	0
0.42485	0.003157884	0.2219278	0	-0.0005423762	0	-0.006557024	0	0
0.441416	0.003157884	0.2219278	0	0	0	0.006547838	0	0
0.4582145	0.003157884	0.2219278	0	0	0	0	0	0
0.4745495	0.003157884	0.2219278	0	0	0	0	0	0
0.4911166	0.003157884	0.2219278	0	0	0	0	0	0
0.50775	0.003157884	0.2219278	0	0	0	0	0	0
0.5242607	0.003157884	0.2219278	0	0	0	0	0	0
0.5412735	0.003157884	0.2219278	0	0	0	0	0	0
0.5573831	0.003157884	0.2219278	0	0	0	0	0	0
0.5739495	0.003157884	0.2219278	0	0	0	0	0	0
0.5905166	0.003157884	0.2219278	0	0	0	0	0	0
0.6070833	0.003157884	0.2219278	0	0	0	0	0	0
0.6238372	0.003157884	0.2219278	0	0	0	0	0	0
0.6402164	0.003157884	0.2219278	0	0	0	0	0	0
0.6568577	0.003157884	0.2219278	0	0	0	0	0	0
0.6733503	0.0031842	0.2219098	0.001595597	-0.001090535	0.04815607	-0.03291301	0	0
0.7064837	0.0031842	0.2219098	0	0	-0.03215244	0.02197508	0	0
0.7399156	0.0031842	0.2219098	0	0	0	0	0	0
0.7561843	0.0031842	0.2219098	0	0	0	0	0	0
0.7727498	0.0031842	0.2219098	0	0	0	0	0	0
0.7894504	0.0031842	0.2219098	0	0	0	0	0	0
0.8058837	0.0031842	0.2219098	0	0	0	0	0	0
0.8224753	0.0031842	0.2219098	0	0	0	0	0	0
0.8390164	0.0031842	0.2219098	0	0	0	0	0	0
0.8555831	0.0031842	0.2219098	0	0	0	0	0	0
0.8721495	0.0031842	0.2219098	0	0	0	0	0	0
0.9060302	0.0031842	0.2219098	0	0	0	0	0	0
0.9225429	0.0031842	0.2219098	0	0	0	0	0	0
0.9390547	0.0031842	0.2219098	0	0	0	0	0	0
0.9556077	0.0031842	0.2219098	0	0	0	0	0	0
0.9721748	0.0031842	0.2219098	0	0	0	0	0	0
0.9887411	0.0031842	0.2219098	0	0	0	0	0	0
1.005307	0.0031842	0.2219098	0	0	0	0	0	0
1.021874	0.0031842	0.2219098	0	0	0	0	0	0
1.038441	0.0031842	0.2219098	0	0	0	0	0	0
1.055008	0.0031842	0.2219098	0	0	0	0	0	0
1.071649	0.0031842	0.2219098	0	0	0	0	0	0
1.088141	0.0031842	0.2219098	0	0	0	0	0	0
1.104707	0.0031842	0.2219098	0	0	0	0	0	0
1.121275	0.003210515	0.2218918	0.001588415	-0.001084727	0.04793933	-0.03273773	0	0
1.137841	0.003210515	0.2218918	0	0	-0.04793985	0.03273808	0	0
1.154409	0.003210515	0.2218918	0	0	0	0	0	0
1.17122	0.003210515	0.2218918	0	0	0	0	0	0
1.187541	0.003210515	0.2218918	0	0	0	0	0	0
1.204108	0.003210515	0.2218918	0	0	0	0	0	0
1.286941	0.003394724	0.22173	0.002223835	-0.001953271	0.02237247	-0.01965051	0	0
1.303508	0.005236794	0.2204715	0.1111932	-0.07596748	1.096269	-0.7446085	0	0
1.320075	0.007657745	0.2188172	0.1461268	-0.09985303	1.054317	-0.7208802	0	0
1.336836	0.008947129	0.217936	0.07692955	-0.05257721	-2.076246	1.418499	0	0
1.353347	0.008947129	0.217936	0	0	-2.312164	1.580239	0	0
1.369862	0.008947129	0.217936	0	0	0	0	0	0
1.386371	0.008947129	0.217936	0	0	0	0	0	0
1.402908	0.008920816	0.217918	-0.001591142	-0.001087568	-0.04814895	-0.03291047	0	0
1.419474	0.008920816	0.217918	0	0	0.04806503	0.03285312	0	0
1.436041	0.008920816	0.217918	0	0	0	0	0	0
1.485741	0.008920816	0.217918	0	0	0	0	0	0
1.502308	0.008920816	0.217918	0	0	0	0	0	0
1.518964	0.008920816	0.217918	0	0	0	0	0	0
1.535477	0.008920816	0.217918	0	0	0	0	0	0
1.552008	0.008920816	0.217918	0	0	0	0	0	0
1.568574	0.008894502	0.2179	-0.001588417	-0.001085705	-0.04799257	-0.03280358	0	0
1.585141	0.008920816	0.217882	0.001588303	-0.001085627	0.09587774	2.357608E-06	0	0
1.601707	0.008920816	0.217882	0	0	-0.04793645	0.03276523	0	0
1.618274	0.008894502	0.217864	-0.001588303	-0.001085627	-0.04793645	-0.03276523	0	0
1.635047	0.008894502	0.217864	0	0	0.04764027	0.03256278	0	0
1.651408	0.008894502	0.217864	0	0	0	0	0	0
1.668077	0.008894502	0.217864	0	0	0	0	0	0
1.684543	0.008894502	0.217864	0	0	0	0	0	0
1.70111	0.008894502	0.217864	0	0	0	0	0	0
1.717676	0.008894502	0.217864	0	0	0	0	0	0
1.734621	0.008894502	0.217864	0	0	0	0	0	0
1.75081	0.008894502	0.217864	0	0	0	0	0	0
1.767646	0.008894502	0.2178281	0	-0.002136586	0	-0.06469619	0	0
1.784154	0.008894502	0.2178281	0	0	0	0.06407815	0	0
1.800508	0.008920816	0.2178101	0.001609004	-0.001099776	0.04896323	-0.03346704	0	0
1.817177	0.008894502	0.2177921	-0.001578602	-0.001078996	-0.09652719	0.0006292542	0	0
1.833642	0.008920816	0.2177741	0.001598123	-0.001092339	0.09587445	-0.0004026902	0	0
1.850208	0.008920816	0.2177741	0	0	-0.0483822	0.0330699	0	0
1.885224	0.008947129	0.2176482	0.0007514643	-0.003595454	0.01456825	-0.0697032	0	0
1.901587	0.008894502	0.2175403	-0.003216366	-0.006595292	-0.07722711	-0.05838678	0	0
1.918248	0.008394539	0.2170906	-0.03000789	-0.02698944	-0.81129	-0.6175673	0	0
1.934758	0.006973571	0.2160113	-0.08606583	-0.06537008	-1.689953	-1.157044	0	0
1.951287	0.005447315	0.21486	-0.09233897	-0.06965901	-0.1898703	-0.1298139	0	0
1.967853	0.004184186	0.2125567	-0.07624863	-0.139035	0.4861899	-2.096283	0	0
1.984419	0.003342093	0.2089566	-0.05083031	-0.2173082	0.7671678	-2.362416	0	0
2.000986	0.004657861	0.1979663	0.07942221	-0.6633962	3.931142	-13.46335	0	0
2.050686	0.007868258	0.1723179	0.0645958	-0.5160666	-0.2237389	2.223289	0	0
2.133899	0.00939446	0.1155446	0.01834089	-0.6822644	-0.3480093	-1.250427	0	0
2.150088	0.009631281	0.1074754	0.01462882	-0.4984495	-0.03734412	1.849213	0	0
2.166653	0.008473481	0.1002178	-0.06989399	-0.4381216	-2.580557	1.841864	0	0
2.199786	0.006631482	0.0850424	-0.05559324	-0.4580089	0.2877494	-0.4001576	0	0
2.216456	0.006578852	0.08334894	-0.003157186	-0.1015891	1.052864	7.156556	0	0
2.232967	0.006105187	0.0734324	-0.02868708	-0.6005858	-0.7694088	-15.03854	0	0
2.249486	0.003315777	0.0658594	-0.1688649	-0.4584531	-4.243949	4.303134	0	0
2.266053	0.002342101	0.06277077	-0.05877291	-0.1864355	3.327514	8.221696	0	0
2.282619	-0.003236831	0.05732751	-0.3367644	-0.3285745	-8.390161	-4.289949	0	0
2.299515	-0.007605116	0.05425081	-0.2585358	-0.182094	2.337795	4.377448	0	0
2.342191	-0.02026039	0.04528484	-0.2965465	-0.2100963	-0.6380657	-0.4700587	0	0
2.358758	-0.02181233	0.04418819	-0.09367411	-0.06619348	3.424414	2.429027	0	0
2.375324	-0.02670418	0.04072884	-0.2952895	-0.2088183	-6.084898	-4.304519	0	0
2.391891	-0.03049055	0.03804845	-0.2285523	-0.1617934	2.01422	1.419276	0	0
2.408458	-0.03472288	0.03504934	-0.2554714	-0.1810322	-0.8124433	-0.5806453	0	0
2.425104	-0.03700941	0.03342769	-0.1373649	-0.09742188	3.556095	2.517441	0	0
2.441591	-0.03698313	0.03344633	0.001594065	0.001130871	4.193971	2.974456	0	0
2.458158	-0.03698313	0.03344633	0	0	-0.04822592	-0.03421272	0	0
2.474725	-0.03698313	0.03344633	0	0	0	0	0	0
2.491291	-0.03698313	0.03344633	0	0	0	0	0	0
2.507859	-0.03698313	0.03344633	0	0	0	0	0	0
2.524425	-0.03698313	0.03344633	0	0	0	0	0	0
2.540991	-0.03698313	0.03344633	0	0	0	0	0	0
2.557559	-0.03698313	0.03344633	0	0	0	0	0	0
2.574209	-0.03698313	0.03344633	0	0	0	0	0	0
2.590721	-0.03698313	0.03344633	0	0	0	0	0	0
2.607258	-0.03698313	0.03344633	0	0	0	0	0	0
2.623825	-0.03698313	0.03344633	0	0	0	0	0	0
2.640391	-0.03698313	0.03344633	0	0	0	0	0	0
2.656959	-0.03698313	0.03344633	0	0	0	0	0	0
2.673525	-0.03698313	0.03344633	0	0	0	0	0	0
2.690092	-0.03698313	0.03344633	0	0	0	0	0	0
2.706659	-0.03698313	0.03344633	0	0	0	0	0	0
2.723315	-0.03698313	0.03344633	0	0	0	0	0	0
2.739827	-0.03698313	0.03344633	0	0	0	0	0	0
2.772927	-0.03698313	0.03344633	0	0	0	0	0	0
2.789494	-0.03698313	0.03344633	0	0	0	0	0	0
2.826128	-0.03698313	0.03344633	0	0	0	0	0	0
2.842696	-0.03698313	0.03344633	0	0	0	0	0	0
2.859262	-0.03693057	0.03340904	0.003172763	-0.002251	0.09575557	-0.06793629	0	0
2.875924	-0.03672033	0.03325989	0.01261859	-0.008952145	0.28428	-0.2016764	0	0
2.892434	-0.03348748	0.03096587	0.1958031	-0.1389408	5.522282	-3.918638	0	0
2.908961	-0.02935998	0.02807298	0.2497507	-0.1750459	1.632934	-1.092862	0	0
2.925528	-0.02002364	0.02143856	0.563559	-0.4004665	9.482558	-6.811686	0	0
2.942094	-0.01320976	0.01659039	0.4113103	-0.2926529	-4.595074	3.25396	0	0
2.958661	-0.00673674	0.01197932	0.3907234	-0.2783325	-0.62134	0.4322084	0	0
2.975493	0.001342105	0.006216183	0.4799593	-0.3423845	2.671806	-1.917776	0	0
2.991794	0.007078829	0.002117847	0.3519213	-0.2514139	-3.864305	2.745579	0	0
3.041494	0.02181233	-0.008433147	0.2964471	-0.2122925	-0.8405005	0.5927345	0	0
3.058078	0.02954403	-0.01398607	0.4662236	-0.3348424	2.561352	-1.848861	0	0
3.074627	0.03706197	-0.01939712	0.4542737	-0.3269645	-0.3606651	0.2377644	0	0
3.091194	0.0417389	-0.02273159	0.2823084	-0.2012748	-5.192799	3.795425	0	0
3.108087	0.04433934	-0.02460878	0.1539367	-0.1111233	-3.836612	2.694334	0	0
3.124329	0.04478582	-0.0248933	0.02748899	-0.01751743	-3.816117	2.82497	0	0
3.140894	0.04588882	-0.0256901	0.06658532	-0.04810109	1.191694	-0.9322197	0	0
3.157625	0.04670286	-0.02620244	0.04865609	-0.03062276	-0.5384858	0.5249438	0	0
3.174028	0.04672911	-0.02614551	0.001600677	0.003470708	-1.420176	1.028973	0	0
3.190595	0.04678163	-0.02614551	0.003170153	0	0.04760356	-0.1052696	0	0
3.207161	0.04688666	-0.02618346	0.00634013	-0.002291028	0.09567491	-0.06914684	0	0
3.223728	0.04733304	-0.02650608	0.02694328	-0.01947357	0.6218266	-0.5185889	0	0
3.240294	0.04770063	-0.0267718	0.02218924	-0.01603955	-0.1434814	0.1036419	0	0
3.256862	0.04809446	-0.02705652	0.0237713	-0.01718539	0.04774781	-0.03458209	0	0
3.273704	0.04969589	-0.02821465	0.09508196	-0.0687619	2.134406	-1.543741	0	0
3.289995	0.05003715	-0.02846152	0.02094759	-0.01515393	-2.237444	1.617938	0	0
3.306561	0.0500109	-0.02844253	-0.00158447	0.001146414	-0.6857627	0.4961005	0	0
3.323128	0.0500109	-0.02844253	0	0	0.04782182	-0.03460057	0	0
3.339751	0.0500109	-0.02844253	0	0	0	0	0	0
3.356261	0.0500109	-0.02844253	0	0	0	0	0	0
3.372828	0.0500109	-0.02844253	0	0	0	0	0	0
3.389395	0.0500109	-0.02844253	0	0	0	0	0	0
3.405962	0.0500109	-0.02844253	0	0	0	0	0	0
3.422809	0.0500109	-0.02844253	0	0	0	0	0	0
3.439095	0.0500109	-0.02844253	0	0	0	0	0	0
3.455662	0.0500109	-0.02844253	0	0	0	0	0	0
3.472345	0.0500109	-0.02844253	0	0	0	0	0	0
3.505361	0.04998465	-0.02842354	-0.0007951341	0.0005751662	-0.01599882	0.01157287	0	0
3.522382	0.0500109	-0.02844253	0.001542321	-0.001115649	0.0467144	-0.03379121	0	0
3.538495	0.0500109	-0.02844253	0	0	-0.04654767	0.03367061	0	0
3.555062	0.0500109	-0.02844253	0	0	0	0	0	0
3.571628	0.0500109	-0.02844253	0	0	0	0	0	0
3.588427	0.0500109	-0.02844253	0	0	0	0	0	0
3.604761	0.04998465	-0.02842354	-0.001607155	0.001162547	-0.04850612	0.03508726	0	0
3.621328	0.04998465	-0.02842354	0	0	0.04884777	-0.0353344	0	0
3.637963	0.04998465	-0.02842354	0	0	0	0	0	0
3.654475	0.04998465	-0.02842354	0	0	0	0	0	0
3.671028	0.0499584	-0.02840455	-0.00158568	0.001147289	-0.04795564	0.03469739	0	0
3.687595	0.04993214	-0.02838556	-0.001584627	0.001146252	3.179614E-05	-3.131108E-05	0	0
3.704161	0.04993214	-0.0283096	0	0.004585251	0.04782619	0.1037937	0	0
3.720728	0.05014215	-0.02785387	0.01267611	0.02750824	0.3825824	0.691847	0	0
3.737534	0.0498009	-0.02578497	-0.02030547	0.1231058	-0.9882823	2.864548	0	0
3.77179	0.04423428	-0.01835581	-0.1625004	0.2168719	-2.784759	1.836323	0	0
3.788568	0.04039906	-0.01203957	-0.2285866	0.3764601	-1.294944	3.127098	0	0
3.838057	0.0414762	0.02237373	0.02176537	0.6953757	3.777941	4.812603	0	0
3.871627	0.04573125	0.04675276	0.1267495	0.7262033	1.263966	0.3711514	0	0
3.887757	0.05043089	0.05797591	0.2913648	0.695805	3.312161	-0.6116328	0	0
3.904324	0.05308167	0.06354777	0.1600015	0.3363182	-4.017599	-10.9945	0	0
3.920891	0.05714823	0.07177123	0.2454722	0.4963976	2.579584	4.831344	0	0
3.937673	0.06068854	0.08233622	0.2109553	0.6295323	-1.035035	3.99222	0	0
3.954024	0.06192074	0.09022916	0.07536044	0.4827268	-4.092436	-4.43079	0	0
3.970591	0.06294306	0.1004196	0.0617076	0.6150954	-0.4147534	4.021164	0	0
3.987209	0.06317896	0.1027116	0.01419505	0.1379191	-1.431717	-14.37897	0	0
4.003724	0.06320518	0.1189804	0.001587133	0.9851086	-0.3805214	25.56915	0	0
4.020291	0.06401767	0.1271768	0.0490436	0.4947476	1.434531	-14.8228	0	0
4.037244	0.06469905	0.1324273	0.04019219	0.3097066	-0.2640655	-5.520357	0	0
4.053423	0.06684761	0.1425125	0.1327952	0.6233339	2.794926	9.465836	0	0
4.086779	0.068236	0.1571709	0.04162363	0.4394554	-1.840539	-3.712073	0	0
4.11969	0.06802645	0.1698925	-0.00636704	0.3865433	-0.7242014	-0.7984675	0	0
4.136315	0.06663803	0.173277	-0.08351454	0.2035763	-1.557395	-3.6936	0	0
4.152826	0.06881224	0.1789017	0.1316864	0.3406787	6.49459	4.13764	0	0
4.169391	0.06797406	0.1839618	-0.05059819	0.3054611	-5.511114	-1.064754	0	0
4.186349	0.06716199	0.1910216	-0.04788773	0.4163166	0.0808537	3.306841	0	0
4.202523	0.06718819	0.1961992	0.00161962	0.3201117	1.494242	-2.903681	0	0
4.219375	0.06676903	0.2005982	-0.02487329	0.2610398	-0.8021781	-1.788636	0	0
4.235659	0.06624503	0.2009226	-0.03217835	0.01992222	-0.2204577	-7.276628	0	0
4.252223	0.06624503	0.2009226	0	0	0.979603	-0.6064905	0	0
4.268908	0.06621883	0.2009406	-0.001570538	0.001080666	-0.04723579	0.0325023	0	0
4.285357	0.06619263	0.2009587	-0.001593029	0.001095236	-0.000678795	0.0004397314	0	0
4.301923	0.06619263	0.2009587	0	0	0.048252	-0.03317411	0	0
4.31849	0.06619263	0.2009587	0	0	0	0	0	0
4.335057	0.06616643	0.2009046	-0.001581254	-0.003263247	-0.04772302	-0.09848642	0	0
4.351623	0.06614023	0.2008866	-0.001581749	-0.00108838	-1.494674E-05	0.06564045	0	0
4.36819	0.06608783	0.2008145	-0.003162957	-0.004351596	-0.04772302	-0.0984883	0	0
4.384756	0.06600922	0.2007604	-0.004744797	-0.003263341	-0.04774209	0.03284501	0	0
4.401324	0.06595682	0.2006883	-0.003162775	-0.004351345	0.04774622	-0.0328365	0	0
4.41789	0.06590442	0.2006162	-0.003163498	-0.004351721	-2.181866E-05	-1.134149E-05	0	0
4.434457	0.06582581	0.2005621	-0.004744661	-0.003264147	-0.04772164	0.03282448	0	0
4.451023	0.06572101	0.2004901	-0.006326546	-0.004351721	-0.04774347	-0.03282448	0	0
4.46759	0.0656948	0.200436	-0.001581704	-0.003264147	0.1432058	0.03282448	0	0
4.484157	0.06561619	0.2003459	-0.00474511	-0.005439945	-0.09547456	-0.0656676	0	0
4.501072	0.06561619	0.2002738	0	-0.004261924	0.1417209	0.0351836	0	0
4.51729	0.06561619	0.2002377	0	-0.002222561	0	0.06154988	0	0
4.534095	0.06558999	0.2001836	-0.001558864	-0.003217929	-0.04720559	-0.03014176	0	0
4.550608	0.06556379	0.2001656	-0.001586865	-0.0010919	-0.0008404074	0.06381105	0	0
4.583556	0.06553759	0.2000394	-0.0007952926	-0.003829253	0.01600385	-0.05534326	0	0
4.600141	0.06548518	0.2000034	-0.003159951	-0.002173421	-0.04773869	0.03342863	0	0
4.61669	0.06545898	0.1999854	-0.00158339	-0.001089509	0.04758139	0.03271299	0	0
4.633256	0.06545898	0.1999854	0	0	0.04781501	0.03290086	0	0
4.649824	0.06543277	0.1999674	-0.001581613	-0.001087387	-0.04773453	-0.03281834	0	0
4.666688	0.06543277	0.1999674	0	0	0.04730766	0.03252485	0	0
4.6832	0.06540657	0.1999493	-0.001586956	-0.001091963	-0.04754684	-0.03271634	0	0
4.699523	0.06538036	0.1999313	-0.001605314	-0.001104595	-0.0005591019	-0.0003847112	0	0
4.716222	0.06535416	0.1999133	-0.001569193	-0.001078848	0.001093874	0.0007797045	0	0
4.750235	0.06527555	0.1998592	-0.002311253	-0.001589904	-0.01463308	-0.01007778	0	0
4.766801	0.06530175	0.1998412	0.001581749	-0.00108838	0.07696937	0.009915731	0	0
4.783368	0.06530175	0.1998412	0	0	-0.04773934	0.03284879	0	0
4.799934	0.06527555	0.1998231	-0.001581704	-0.001088349	-0.04773728	-0.03284737	0	0
4.816794	0.06527555	0.1998231	0	0	0.04731916	0.03255967	0	0
4.833068	0.06530175	0.1998051	0.001610159	-0.001107013	0.0485961	-0.03341068	0	0
4.849634	0.06530175	0.1998051	0	0	-0.04903005	0.03370903	0	0
4.866201	0.06527555	0.1997871	-0.001581704	-0.001088349	-0.04773797	-0.03284785	0	0
4.882842	0.06527555	0.199751	0	-0.002166134	0.04763103	-0.03245616	0	0
4.899334	0.06527555	0.199751	0	0	0	0.06537594	0	0
4.915902	0.06530175	0.199733	0.001581658	-0.001088317	0.04784194	-0.03291939	0	0
4.932467	0.06527555	0.199715	-0.001581795	-0.001088411	-0.09547731	-2.838967E-06	0	0
4.949034	0.06527555	0.1996789	0	-0.002175798	0.0477414	-0.03281928	0	0
4.965601	0.06527555	0.1996789	0	0	0	0.0656676	0	0
4.982167	0.06527555	0.1996429	0	-0.002175861	0	-0.06567044	0	0
4.998734	0.06524935	0.1996249	-0.001581658	-0.001088317	-0.04773591	0.03282306	0	0
5.015302	0.06522314	0.1996068	-0.001581613	-0.001088286	1.373728E-06	9.450968E-07	0	0
5.031868	0.06519694	0.1995528	-0.00158184	-0.003264429	-6.869035E-06	-0.06567895	0	0
5.048458	0.06514453	0.1995167	-0.003158952	-0.002172734	-0.04756721	0.03292657	0	0
5.065002	0.06517074	0.1994987	0.001583846	-0.001089823	0.1431379	0.03268231	0	0
5.081568	0.06514453	0.1994807	-0.001581795	-0.001088411	-0.0956094	4.263504E-05	0	0
5.098135	0.06514453	0.1994446	0	-0.002175798	0.0477414	-0.03281928	0	0
5.114701	0.06511833	0.1994266	-0.001581704	-0.001088349	-0.04773728	0.03282023	0	0
5.131271	0.06511833	0.1994266	0	0	0.04773316	0.03284454	0	0
5.147835	0.06511833	0.1994266	0	0	0	0	0	0
5.164404	0.06509212	0.1994085	-0.001581476	-0.001088192	-0.04773041	-0.03284265	0	0
5.181052	0.06509212	0.1994085	0	0	0.04761119	0.03276061	0	0
5.197565	0.06506592	0.1993545	-0.001586865	-0.003274798	-0.04785448	-0.09875685	0	0
5.214102	0.06506592	0.1993545	0	0	0.04801397	0.09908599	0	0
5.230669	0.06503972	0.1993365	-0.001581704	-0.001087449	-0.04777991	-0.03284954	0	0
5.247602	0.0649873	0.1993004	-0.003095257	-0.002129502	-0.0451798	-0.03110543	0	0
5.263803	0.06493489	0.1992643	-0.003235011	-0.002225047	-0.004217825	-0.002883605	0	0
5.280369	0.06480387	0.1991742	-0.007908967	-0.005440844	-0.142643	-0.09814187	0	0
5.297136	0.06469905	0.199066	-0.006251866	-0.006451389	0.04971307	-0.03031638	0	0
5.33007	0.06425353	0.1987596	-0.01352743	-0.009305594	-0.1463874	-0.0574278	0	0
5.346672	0.06341486	0.1981827	-0.05051781	-0.03475055	-0.7467411	-0.5136685	0	0
5.363203	0.06268094	0.1976778	-0.04439658	-0.03053879	0.1847498	0.1271184	0	0
5.379769	0.06228774	0.1974074	-0.0237341	-0.01632523	0.6242867	0.4294419	0	0
5.396337	0.06228774	0.1974074	0	0	0.7162965	0.4926965	0	0
5.412903	0.06228774	0.1974074	0	0	0	0	0	0
5.42947	0.06228774	0.1974074	0	0	0	0	0	0
5.446036	0.06228774	0.1974074	0	0	0	0	0	0
5.462603	0.06228774	0.1974074	0	0	0	0	0	0
5.47917	0.06228774	0.1974074	0	0	0	0	0	0
5.495736	0.06226153	0.1973893	-0.001582199	-0.00108838	-0.04775223	-0.03284832	0	0
5.512304	0.06226153	0.1973893	0	0	0.04775154	0.03284785	0	0
5.528869	0.06226153	0.1973893	0	0	0	0	0	0
5.545436	0.06226153	0.1973893	0	0	0	0	0	0
5.579465	0.06226153	0.1973893	0	0	0	0	0	0
5.596033	0.06228774	0.1973713	0.001582062	-0.001088286	0.03126808	-0.02150903	0	0
5.612857	0.06228774	0.1973713	0	0	-0.04737787	0.0325908	0	0
5.62917	0.06228774	0.1973713	0	0	0	0	0	0
5.645732	0.06228774	0.1973713	0	0	0	0	0	0
5.662301	0.06228774	0.1973713	0	0	0	0	0	0
5.678866	0.06228774	0.1973713	0	0	0	0	0	0
5.695432	0.06228774	0.1973713	0	0	0	0	0	0
5.711999	0.06228774	0.1973713	0	0	0	0	0	0
5.728565	0.06226153	0.1973533	-0.00158229	-0.001088443	-0.04775566	-0.03285069	0	0
5.745453	0.06226153	0.1973533	0	0	0.04729756	0.03253556	0	0
5.761698	0.06226153	0.1973533	0	0	0	0	0	0
5.778265	0.06226153	0.1973533	0	0	0	0	0	0
5.794831	0.06226153	0.1973533	0	0	0	0	0	0
5.811497	0.06226153	0.1973533	0	0	0	0	0	0
5.827965	0.06226153	0.1973533	0	0	0	0	0	0
5.844532	0.06226153	0.1973533	0	0	0	0	0	0
5.861098	0.06226153	0.1973533	0	0	0	0	0	0
5.877665	0.06226153	0.1973533	0	0	0	0	0	0
5.894231	0.06226153	0.1973533	0	0	0	0	0	0
5.910799	0.06226153	0.1973533	0	0	0	0	0	0
5.927579	0.06223531	0.1973713	-0.001562234	0.001074494	-0.04684628	0.03222055	0	0
5.944093	0.06223531	0.1973713	0	0	0.04692209	-0.03227269	0	0
5.960498	0.06223531	0.1973713	0	0	0	0	0	0
5.977065	0.06223531	0.1973713	0	0	0	0	0	0
5.993631	0.06226153	0.1973893	0.001582378	0.001088349	0.04775833	0.03284785	0	0
6.010198	0.06223531	0.1974074	-0.001582378	0.001088349	-0.09551528	0	0	0
6.02715	0.0622091	0.1974254	-0.001546414	0.001063613	0.001072952	-0.0007379685	0	0
6.043332	0.0622091	0.1974254	0	0	0.04667221	-0.03210082	0	0
6.059898	0.06218288	0.1974434	-0.001582424	0.00108838	-0.04832161	0.03323527	0	0
6.076685	0.0622091	0.1974254	0.001561568	-0.001074036	0.09426186	-0.06483266	0	0
6.093031	0.0622091	0.1974254	0	0	-0.04712957	0.03241539	0	0
6.109606	0.0622091	0.1974254	0	0	0	0	0	0
6.126225	0.0622091	0.1973893	0	-0.00216989	0	-0.06537075	0	0
6.142732	0.06223531	0.1973713	0.001588138	-0.00109231	0.0479432	0.03253032	0	0
6.159298	0.06223531	0.1973713	0	0	-0.04801923	0.0330273	0	0
6.175867	0.06223531	0.1973713	0	0	0	0	0	0
6.192431	0.06223531	0.1973713	0	0	0	0	0	0
6.208998	0.06226153	0.1973533	0.001582378	-0.001088349	0.04776108	-0.03284974	0	0
6.225565	0.06226153	0.1973533	0	0	-0.04775764	0.03284737	0	0
6.242131	0.06226153	0.1973533	0	0	0	0	0	0
6.258698	0.06226153	0.1973533	0	0	0	0	0	0
6.29184	0.06226153	0.1973172	0	-0.001088083	0	-0.02188933	0	0
6.308398	0.06223531	0.1972631	-0.001583153	-0.003266645	-0.03185401	-0.04383402	0	0
6.341531	0.06283821	0.1964156	0.01819652	-0.02558008	0.3980519	-0.449042	0	0
6.358098	0.06443699	0.1951351	0.09650227	-0.07729033	1.575575	-1.040452	0	0
6.374665	0.06608783	0.1927358	0.09964777	-0.1448241	0.09493255	-2.038204	0	0
6.391407	0.06834078	0.1876099	0.134567	-0.3061656	1.048342	-4.843783	0	0
6.454827	0.05599404	0.1341034	-0.1946827	-0.8436882	-4.107301	-6.70545	0	0
6.471464	0.05268803	0.1193641	-0.1987101	-0.8859175	-0.05030708	-0.5274894	0	0
6.487975	0.04964339	0.1043978	-0.1844066	-0.9064724	0.4315077	-0.6201	0	0
6.504527	0.04552116	0.08506081	-0.2490404	-1.168225	-1.954871	-7.916795	0	0
6.521094	0.04389284	0.07548028	-0.09828846	-0.5782982	4.551797	17.81223	0	0
6.538015	0.04150247	0.06123482	-0.1412661	-0.8418787	-1.283382	-7.870942	0	0
6.554227	0.03837589	0.0434817	-0.1928563	-1.095061	-1.557063	-7.641401	0	0
6.570793	0.03524855	0.027214	-0.1887773	-0.9819764	0.1244436	3.450001	0	0
6.58736	0.03335604	0.01999791	-0.114232	-0.4355645	2.249847	16.49122	0	0
6.637061	0.01389384	-0.003021556	-0.3915915	-0.4631658	-4.185455	-0.416513	0	0
6.653628	0.005920983	-0.008735103	-0.4812427	-0.3448704	-1.352868	1.78512	0	0
6.670194	0.0003947368	-0.01270087	-0.3335937	-0.2393948	4.456249	3.183396	0	0
6.68676	-0.006578852	-0.01771227	-0.4209388	-0.3024975	-2.636232	-1.904554	0	0
6.703327	-0.007394602	-0.01829903	-0.04924016	-0.03541766	11.21821	8.060719	0	0
6.719894	-0.007578802	-0.01843153	-0.01111867	-0.007998351	1.150542	0.8275401	0	0
6.736652	-0.007578802	-0.01843153	0	0	0.3336463	0.2400126	0	0
6.753165	-0.007578802	-0.01843153	0	0	0	0	0	0
6.769593	-0.007578802	-0.01843153	0	0	0	0	0	0
6.786186	-0.007578802	-0.01843153	0	0	0	0	0	0
6.802726	-0.007578802	-0.01843153	0	0	0	0	0	0
6.819293	-0.007605116	-0.0184126	-0.001588319	0.001142621	-0.04797493	0.03451268	0	0
6.83586	-0.007605116	-0.0184126	0	0	0.04793695	-0.03448536	0	0
6.852426	-0.007605116	-0.0184126	0	0	0	0	0	0
6.868993	-0.007605116	-0.0184126	0	0	0	0	0	0
6.88556	-0.007605116	-0.0184126	0	0	0	0	0	0
6.902127	-0.007578802	-0.01839367	0.001588365	0.001142654	0.04793765	0.03448585	0	0
6.918781	-0.007578802	-0.01839367	0	0	-0.04781242	-0.03439577	0	0
6.935291	-0.007578802	-0.01839367	0	0	0	0	0	0
6.951827	-0.007578802	-0.01839367	0	0	0	0	0	0
6.968394	-0.007578802	-0.01839367	0	0	0	0	0	0
6.98496	-0.007578802	-0.01839367	0	0	0	0	0	0
7.001838	-0.007605116	-0.0184126	-0.001559062	-0.001121574	-0.0466172	-0.03353594	0	0
7.018351	-0.007605116	-0.0184126	0	0	0.04669109	0.0335891	0	0
7.034861	-0.007605116	-0.0184126	0	0	0	0	0	0
7.051374	-0.007605116	-0.0184126	0	0	0	0	0	0
7.067884	-0.007605116	-0.0184126	0	0	0	0	0	0
7.084397	-0.007605116	-0.0184126	0	0	0	0	0	0
7.117494	-0.007578802	-0.01843153	0.0007950751	-0.0005719689	0.01602677	-0.0115295	0	0
7.134061	-0.007578802	-0.01843153	0	0	-0.01600908	0.01151677	0	0
7.150627	-0.007578802	-0.01843153	0	0	0	0	0	0
7.167194	-0.007552488	-0.01845046	0.001588302	-0.001142588	0.04793711	-0.03448486	0	0
7.183762	-0.007526174	-0.01846939	0.001588274	-0.001142588	-8.502235E-07	0	0	0
7.200479	-0.007499859	-0.01848832	0.001574166	-0.001132419	-0.0004238482	0.0003055133	0	0
7.216992	-0.007473545	-0.01850726	0.001593502	-0.001146462	0.0005818834	-0.0004225937	0	0
7.233459	-0.007473545	-0.01854512	0	-0.002299072	-0.04831588	-0.03494777	0	0
7.250026	-0.007499859	-0.01856405	-0.001588365	-0.001142766	-0.04808227	0.03500315	0	0
7.266593	-0.007552488	-0.01863977	-0.003176758	-0.00457084	-0.04793918	-0.1034624	0	0
7.332859	-0.01486733	-0.023945	-0.1103859	-0.08005949	-1.294283	-0.9113375	0	0
7.349426	-0.01834005	-0.02644915	-0.209614	-0.1511509	-1.197926	-0.8582464	0	0
7.366097	-0.02581006	-0.03184373	-0.4480919	-0.3235966	-7.174871	-5.188221	0	0
7.382607	-0.02762455	-0.03315582	-0.1098994	-0.07946976	10.1923	7.357387	0	0
7.399128	-0.0296492	-0.03462069	-0.1225505	-0.08866771	-0.3830029	-0.2784603	0	0
7.43576	-0.0296492	-0.03462069	0	0	2.305637	1.668174	0	0
7.452327	-0.0296492	-0.03462069	0	0	0	0	0	0
7.468894	-0.0296492	-0.03462069	0	0	0	0	0	0
7.485461	-0.0296492	-0.03462069	0	0	0	0	0	0
7.502027	-0.0296492	-0.03462069	0	0	0	0	0	0
7.518703	-0.0296492	-0.03462069	0	0	0	0	0	0
7.568294	-0.0296755	-0.03460167	-0.0005302034	0.0003837176	-0.008001073	0.005790519	0	0
7.58525	-0.0296755	-0.03460167	0	0	0.007967305	-0.00576608	0	0
7.601427	-0.0296755	-0.03460167	0	0	0	0	0	0
7.617993	-0.0296755	-0.03460167	0	0	0	0	0	0
7.634785	-0.0296755	-0.03460167	0	0	0	0	0	0
7.651126	-0.0296755	-0.03460167	0	0	0	0	0	0
7.667694	-0.0296755	-0.03460167	0	0	0	0	0	0
7.68432	-0.0296755	-0.03460167	0	0	0	0	0	0
7.700828	-0.0296755	-0.03460167	0	0	0	0	0	0
7.717393	-0.0296755	-0.03460167	0	0	0	0	0	0
7.734357	-0.0296755	-0.03460167	0	0	0	0	0	0
7.767383	-0.02970179	-0.03458264	-0.0007961395	0.0005761803	-0.01592607	0.01152598	0	0
7.783891	-0.02970179	-0.03458264	0	0	0.01607264	-0.01163205	0	0
7.800227	-0.02970179	-0.03458264	0	0	0	0	0	0
7.816793	-0.02970179	-0.03458264	0	0	0	0	0	0
7.833426	-0.02970179	-0.03458264	0	0	0	0	0	0
7.849927	-0.02970179	-0.03458264	0	0	0	0	0	0
7.866495	-0.02970179	-0.03458264	0	0	0	0	0	0
7.88306	-0.02970179	-0.03458264	0	0	0	0	0	0
7.899627	-0.02970179	-0.03458264	0	0	0	0	0	0
7.916193	-0.02970179	-0.03458264	0	0	0	0	0	0
7.93276	-0.02970179	-0.03458264	0	0	0	0	0	0
7.949507	-0.02970179	-0.03458264	0	0	0	0	0	0
7.966019	-0.02970179	-0.03458264	0	0	0	0	0	0
7.982532	-0.02970179	-0.03458264	0	0	0	0	0	0
7.999043	-0.02970179	-0.03458264	0	0	0	0	0	0
8.015594	-0.02970179	-0.03458264	0	0	0	0	0	0
8.048727	-0.02970179	-0.03458264	0	0	0	0	0	0
8.065292	-0.02972808	-0.03456361	-0.001587125	0.001148712	-0.03193485	0.02311346	0	0
8.08186	-0.02983325	-0.03444944	-0.006348106	0.006891253	-0.143695	0.1733202	0	0
8.098614	-0.03020134	-0.03414501	-0.02196999	0.01817047	-0.4688246	0.3384978	0	0
8.115124	-0.03049055	-0.0335933	-0.01751709	0.03341635	0.1338648	0.4583277	0	0
8.13156	-0.03114782	-0.03250922	-0.03998824	0.06595591	-0.6820478	0.9876457	0	0
8.148148	-0.03175248	-0.02979116	-0.03645358	0.163864	0.1070336	2.96477	0	0
8.164693	-0.03396062	-0.02736025	-0.1334603	0.1469247	-2.927837	-0.5112584	0	0
8.181262	-0.03766639	-0.02468465	-0.2236547	0.1614809	-2.72372	0.4395722	0	0
8.198183	-0.05145454	-0.0141373	-0.8148524	0.6233275	-17.65286	13.79051	0	0
8.214393	-0.05859076	-0.008018006	-0.4402463	0.3775104	11.30693	-7.419628	0	0
8.231207	-0.06273337	-0.003605654	-0.2463751	0.2624176	5.870645	-3.485143	0	0
8.247527	-0.07234719	0.007136686	-0.5890743	0.6582224	-10.34268	11.94541	0	0
8.264231	-0.07431029	0.01267325	-0.1175252	0.331459	14.27905	-9.894775	0	0
8.280742	-0.07543553	0.0220932	-0.06815146	0.5705274	1.486507	7.197696	0	0
8.297254	-0.07386537	0.03721043	0.09509284	0.9155346	4.94337	10.44752	0	0
8.313794	-0.07289692	0.04905569	0.05855006	0.7161351	-1.1056	-6.032821	0	0
8.33036	-0.07098579	0.0661552	0.1153629	1.032188	1.716047	9.546453	0	0
8.346927	-0.07033117	0.07854102	0.03951494	0.7476528	-2.289227	-8.587775	0	0
8.380857	-0.06970268	0.1026933	0.0185226	0.7118095	-0.4157142	-0.70981	0	0
8.397414	-0.06870747	0.1140452	0.06010959	0.6856379	0.8237082	-0.5183769	0	0
8.413981	-0.06564239	0.1280522	0.1850081	0.8454674	3.770639	4.825193	0	0
8.430548	-0.06150129	0.1377817	0.2499719	0.5873061	1.960667	-7.79155	0	0
8.447114	-0.05428871	0.1509997	0.4353774	0.7978833	5.595873	6.3556	0	0
8.463869	-0.04746433	0.159565	0.4073017	0.5112067	-0.8425757	-8.603384	0	0
8.480382	-0.03895397	0.1694942	0.5153773	0.6013021	3.248638	2.708174	0	0
8.496894	-0.03225197	0.1755202	0.4058886	0.3649476	-3.31535	-7.156883	0	0
8.513407	-0.02291704	0.1818659	0.5653123	0.3842893	4.827397	0.5856706	0	0
8.529948	-0.01949753	0.1842147	0.2067234	0.1419925	-10.84846	-7.330254	0	0
8.546515	-0.0142885	0.1877905	0.3144356	0.2158483	3.253384	2.23077	0	0
8.563082	-0.0106838	0.1902636	0.2175799	0.1492767	-2.923194	-2.009192	0	0
8.579649	-0.005999928	0.1935116	0.2827193	0.1960509	1.96591	1.41165	0	0
8.596215	-0.003105253	0.1954958	0.174733	0.119774	-3.259128	-2.30211	0	0
8.612782	-0.001947366	0.1962894	0.06989022	0.04789766	-3.164252	-2.169294	0	0
8.629349	0.004631546	0.2007604	0.3971268	0.2698886	9.876303	6.699892	0	0
8.646002	0.006605167	0.202076	0.118514	0.07899922	-8.387065	-5.746333	0	0
8.662513	0.007341973	0.2025445	0.04462529	0.02837553	-2.227978	-1.526464	0	0
8.679048	0.01089431	0.2048686	0.2148397	0.1405574	5.150869	3.394742	0	0
8.695615	0.01442005	0.2072821	0.2128145	0.1456771	-0.06118014	0.154665	0	0
8.712182	0.01465685	0.2073721	0.01429282	0.005434392	-5.991396	-4.232534	0	0
8.729559	0.01470947	0.2073361	0.003028142	-0.002072643	-0.3318595	-0.2211585	0	0
8.745316	0.01491995	0.207192	0.0133582	-0.009143112	0.3117706	-0.2133933	0	0
8.762084	0.01499888	0.207138	0.004707084	-0.003221329	-0.2659829	0.1820683	0	0
8.778596	0.0150515	0.2070659	0.003186773	-0.00436334	-0.04568191	-0.03431486	0	0
8.795015	0.0150778	0.2070479	0.001602307	-0.0010963	-0.04811424	0.09920766	0	0
8.811581	0.01513042	0.2069759	0.003176499	-0.004348374	0.04772487	-0.09859329	0	0
8.82815	0.01515673	0.2068859	0.001587884	-0.005434665	-0.0479445	-0.03278435	0	0
8.844715	0.01513042	0.2068678	-0.001588249	-0.001087543	-0.09585589	0.1311964	0	0
8.861281	0.0150515	0.2067778	-0.004764418	-0.005435604	-0.09586523	-0.1312361	0	0
8.877848	0.01497257	0.2066878	-0.004764474	-0.005434704	-1.686539E-06	2.713923E-05	0	0
8.894414	0.01494626	0.2066697	-0.001588158	-0.001087481	0.09586692	0.131207	0	0
8.911186	0.0147884	0.2065617	-0.00941197	-0.006442969	-0.2346777	-0.1606395	0	0
8.927547	0.01463053	0.2064536	-0.009649041	-0.006604306	-0.007155227	-0.004869447	0	0
8.944114	0.01457791	0.2064176	-0.003176133	-0.002174836	0.1965805	0.1345219	0	0
8.96068	0.0145516	0.2063996	-0.001588214	-0.001086581	0.04792487	0.03284454	0	0
8.977247	0.01452529	0.2063816	-0.001588066	-0.001087418	4.455147E-06	-2.525871E-05	0	0
8.993814	0.01449898	0.2063276	-0.001588214	-0.003261542	-4.455147E-06	-0.06561708	0	0
9.010756	0.01434112	0.2062195	-0.00931772	-0.006378413	-0.2306744	-0.09301786	0	0
9.026947	0.01423588	0.2061114	-0.006499853	-0.006674078	0.08504587	-0.008923462	0	0
9.043513	0.01384122	0.2058052	-0.02382304	-0.01848267	-0.5288271	-0.3604823	0	0
9.06008	0.01370967	0.2057152	-0.007941071	-0.005436503	0.4793465	0.3937568	0	0
9.076646	0.01370967	0.2056792	0	-0.002174062	0.2396758	0.09846635	0	0
9.093212	0.01373598	0.2056251	0.001588214	-0.003261542	0.04793515	-0.03282211	0	0
9.109826	0.01373598	0.2055891	0	-0.002168719	-0.04786627	0.03293598	0	0
9.126346	0.01381491	0.205499	0.00477812	-0.005451882	0.1442081	-0.09908891	0	0
9.142915	0.01392015	0.205391	0.00635176	-0.006521958	0.04755824	-0.03233964	0	0
9.159479	0.0140254	0.2052829	0.006353531	-0.006524735	5.347581E-05	-8.38186E-05	0	0
9.176045	0.01410433	0.2052289	0.004764642	-0.003262442	-0.0479583	0.09846755	0	0
9.211155	0.0142885	0.2051028	0.005245665	-0.003591437	0.009308469	-0.006366526	0	0
9.244289	0.01434112	0.2050667	0.001588123	-0.001086968	-0.05359508	0.03669875	0	0
9.29399	0.01442005	0.2050127	0.001588116	-0.001087439	-8.432308E-08	-5.680565E-06	0	0
9.310556	0.01442005	0.2050127	0	0	-0.0239654	0.01640996	0	0
9.327122	0.01442005	0.2050127	0	0	0	0	0	0
9.343688	0.01442005	0.2050127	0	0	0	0	0	0
9.360254	0.01439374	0.2050307	-0.001588158	0.001087481	-0.04793346	0.03282212	0	0
9.377011	0.01439374	0.2050307	0	0	0.0476591	-0.03263425	0	0
9.393388	0.01442005	0.2050127	0.001606562	-0.001100083	0.04848754	-0.03320153	0	0
9.409954	0.01442005	0.2050127	0	0	-0.04876828	0.03339376	0	0
9.42652	0.01439374	0.2049947	-0.001588158	-0.001087481	-0.04793346	-0.03282212	0	0
9.443087	0.01439374	0.2049947	0	0	0.04793346	0.03282212	0	0
9.459653	0.01439374	0.2049947	0	0	0	0	0	0
9.476219	0.01439374	0.2049947	0	0	0	0	0	0
9.492785	0.01442005	0.2049767	0.001588158	-0.001086581	0.04793346	-0.03279497	0	0
9.509352	0.01444636	0.2049587	0.001588214	-0.001087481	1.69708E-06	-2.714977E-05	0	0
9.525918	0.01442005	0.2049406	-0.001588214	-0.001087481	-0.09587031	0	0	0
9.542485	0.01444636	0.2049226	0.001588123	-0.001087418	0.09586479	1.890275E-06	0	0
9.559052	0.01444636	0.2049226	0	0	-0.04793102	0.03281928	0	0
9.575618	0.01444636	0.2049226	0	0	0	0	0	0
9.592184	0.01442005	0.2049046	-0.001588214	-0.001087481	-0.04793515	-0.03282212	0	0
9.60875	0.01442005	0.2049046	0	0	0.04793515	0.03282212	0	0
9.625317	0.01442005	0.2049046	0	0	0	0	0	0
9.641883	0.01444636	0.2048866	0.001588214	-0.001087481	0.04793515	-0.03282212	0	0
9.65845	0.01442005	0.2049046	-0.001588123	0.001087418	-0.09586479	0.06564046	0	0
9.675016	0.01442005	0.2049046	0	0	0.04793102	-0.03281928	0	0
9.691583	0.01442005	0.2049046	0	0	0	0	0	0
9.70815	0.01442005	0.2049046	0	0	0	0	0	0
9.724716	0.01442005	0.2049046	0	0	0	0	0	0
9.741284	0.01442005	0.2049046	0	0	0	0	0	0
9.757851	0.01442005	0.2049046	0	0	0	0	0	0
9.774417	0.01444636	0.2048866	0.001588214	-0.001087481	0.04793515	-0.03282212	0	0
9.790983	0.01442005	0.2048686	-0.001588214	-0.001087481	-0.09587031	0	0	0
9.807813	0.01442005	0.2048686	0	0	0.04755735	0.03256343	0	0
9.824117	0.01442005	0.2048686	0	0	0	0	0	0
9.840683	0.01442005	0.2048686	0	0	0	0	0	0
9.857249	0.01444636	0.2048506	0.001588214	-0.001087481	0.04793515	-0.03282212	0	0
9.873859	0.01444636	0.2048506	0	0	-0.04787177	0.03277872	0	0
9.890383	0.01442005	0.2048326	-0.001592339	-0.001089403	-0.04805828	-0.0328792	0	0
9.906949	0.01442005	0.2048326	0	0	0.04812199	0.03292279	0	0
9.923516	0.01444636	0.2048146	0.001588123	-0.001087418	0.04793102	-0.03281928	0	0
9.940083	0.01444636	0.2048146	0	0	-0.04793102	0.03281928	0	0
9.956918	0.01444636	0.2048146	0	0	0	0	0	0
9.97343	0.01444636	0.2048146	0	0	0	0	0	0
9.989783	0.01444636	0.2048146	0	0	0	0	0	0
10.02292	0.01442005	0.2047965	-0.0007940842	-0.0005437246	-0.01604628	-0.0109872	0	0
10.03948	0.01442005	0.2047965	0	0	0.01597762	0.01094018	0	0
10.05605	0.01442005	0.2047965	0	0	0	0	0	0
10.07262	0.01442005	0.2047965	0	0	0	0	0	0
10.10635	0.01442005	0.2047965	0	0	0	0	0	0
10.12292	0.01442005	0.2047965	0	0	0	0	0	0
10.15605	0.01442005	0.2047605	0	-0.001087512	0	-0.0218812	0	0
10.17262	0.01442005	0.2047605	0	0	0	0.02188246	0	0
10.18958	0.01442005	0.2047605	0	0	0	0	0	0
10.20575	0.01442005	0.2047245	0	-0.002229114	0	-0.06727672	0	0
10.22261	0.01444636	0.2047065	0.001560545	-0.001068535	0.0472551	0.03514368	0	0
10.23888	0.01444636	0.2047065	0	0	-0.04709733	0.03224844	0	0
10.25545	0.01442005	0.2046884	-0.001588214	-0.001087481	-0.04836111	-0.03311378	0	0
10.28858	0.01442005	0.2046884	0	0	0.03195616	0.02188099	0	0
10.30515	0.01442005	0.2046884	0	0	0	0	0	0
10.32172	0.01442005	0.2046884	0	0	0	0	0	0
10.33828	0.01439374	0.2046704	-0.001588158	-0.001086581	-0.04793346	-0.03279497	0	0
10.35485	0.01439374	0.2046704	0	0	0.04793346	0.03279497	0	0
10.37141	0.01439374	0.2046704	0	0	0	0	0	0
10.38822	0.01439374	0.2046704	0	0	0	0	0	0
10.40455	0.01439374	0.2046704	0	0	0	0	0	0
10.42124	0.01439374	0.2046704	0	0	0	0	0	0
10.43776	0.01439374	0.2046704	0	0	0	0	0	0
10.45425	0.01439374	0.2046704	0	0	0	0	0	0
10.47081	0.01439374	0.2046704	0	0	0	0	0	0
10.55146	0.0142885	0.2045624	-0.001305013	-0.001340363	-0.01342442	-0.01378806	0	0
10.56803	0.01407802	0.2044182	-0.01270554	-0.008698945	-0.1172763	-0.0756971	0	0
10.60381	0.01352549	0.2040399	-0.01543988	-0.01057198	-0.05222995	-0.03577782	0	0
10.62039	0.01318345	0.2038057	-0.0206375	-0.01413074	-0.09926781	-0.06796762	0	0
10.65351	0.01186786	0.2029049	-0.03971351	-0.02719396	-0.3838173	-0.2628376	0	0
10.67008	0.01186786	0.2029049	0	0	0.7991753	0.5472381	0	0
10.68693	0.01186786	0.2029049	0	0	0	0	0	0
10.70344	0.01186786	0.2029049	0	0	0	0	0	0
10.71978	0.01186786	0.2029049	0	0	0	0	0	0
10.73634	0.01186786	0.2029049	0	0	0	0	0	0
10.75291	0.01186786	0.2029049	0	0	0	0	0	0
10.76948	0.01186786	0.2029049	0	0	0	0	0	0
10.78604	0.01184155	0.2028868	-0.001588327	-0.001087481	-0.04793993	-0.03282306	0	0
10.80301	0.01184155	0.2028868	0	0	0.0473619	0.0324273	0	0
10.81952	0.01184155	0.2028868	0	0	0	0	0	0
10.83574	0.01184155	0.2028868	0	0	0	0	0	0
10.85231	0.01184155	0.2028868	0	0	0	0	0	0
10.86888	0.01184155	0.2028868	0	0	0	0	0	0
10.88544	0.01184155	0.2028868	0	0	0	0	0	0
10.90201	0.01184155	0.2028868	0	0	0	0	0	0
10.91859	0.01184155	0.2028868	0	0	0	0	0	0
10.95178	0.01184155	0.2028868	0	0	0	0	0	0
10.96834	0.01184155	0.2028868	0	0	0	0	0	0
10.98491	0.01184155	0.2028868	0	0	0	0	0	0
11.00165	0.01184155	0.2028868	0	0	0	0	0	0
11.01816	0.01184155	0.2028868	0	0	0	0	0	0
11.03461	0.01184155	0.2028868	0	0	0	0	0	0
11.05118	0.01184155	0.2028868	0	0	0	0	0	0
11.06774	0.01184155	0.2028868	0	0	0	0	0	0
11.08431	0.01184155	0.2028868	0	0	0	0	0	0
11.10088	0.01184155	0.2028868	0	0	0	0	0	0
11.11744	0.01184155	0.2028868	0	0	0	0	0	0
11.13401	0.01184155	0.2028868	0	0	0	0	0	0
11.15076	0.01184155	0.2028868	0	0	0	0	0	0
11.16714	0.01184155	0.2028868	0	0	0	0	0	0
11.18378	0.01184155	0.2028868	0	0	0	0	0	0
11.20028	0.01184155	0.2028868	0	0	0	0	0	0
11.21684	0.01184155	0.2028868	0	0	0	0	0	0
11.23341	0.01184155	0.2028868	0	0	0	0	0	0
11.24998	0.01184155	0.2028868	0	0	0	0	0	0
11.26654	0.01184155	0.2028868	0	0	0	0	0	0
11.28311	0.01184155	0.2028868	0	0	0	0	0	0
11.29967	0.01184155	0.2028868	0	0	0	0	0	0
11.31624	0.01184155	0.2028868	0	0	0	0	0	0
11.33288	0.01184155	0.2028868	0	0	0	0	0	0
11.34939	0.01184155	0.2028868	0	0	0	0	0	0
11.36594	0.01184155	0.2028868	0	0	0	0	0	0
11.38251	0.01184155	0.2028868	0	0	0	0	0	0
11.39907	0.01184155	0.2028868	0	0	0	0	0	0
11.41564	0.01184155	0.2028868	0	0	0	0	0	0
11.43221	0.01184155	0.2028868	0	0	0	0	0	0
11.44877	0.01184155	0.2028868	0	0	0	0	0	0
11.46534	0.01184155	0.2028868	0	0	0	0	0	0
11.48199	0.01184155	0.2028868	0	0	0	0	0	0
11.4985	0.01184155	0.2028868	0	0	0	0	0	0
11.51504	0.01184155	0.2028868	0	0	0	0	0	0
11.53161	0.01184155	0.2028868	0	0	0	0	0	0
11.56504	0.01184155	0.2028868	0	0	0	0	0	0
11.58131	0.01184155	0.2028868	0	0	0	0	0	0
11.59807	0.01184155	0.2028868	0	0	0	0	0	0
11.61458	0.01184155	0.2028868	0	0	0	0	0	0
11.63109	0.01184155	0.2028868	0	0	0	0	0	0
11.64761	0.01184155	0.2028868	0	0	0	0	0	0
11.66414	0.01184155	0.2028868	0	0	0	0	0	0
11.68071	0.01184155	0.2028868	0	0	0	0	0	0
11.69727	0.01184155	0.2028868	0	0	0	0	0	0
11.71384	0.01186786	0.2028688	0.001588327	-0.00108838	0.04793855	-0.03284927	0	0
11.7304	0.01189418	0.2028508	0.00158827	-0.001087481	-1.69708E-06	2.714977E-05	0	0
11.74697	0.01205205	0.2027067	0.009529734	-0.008700744	0.2396877	-0.229782	0	0
11.76368	0.01365705	0.2015714	0.09603754	-0.06793005	2.599513	-1.779809	0	0
11.7801	0.01494626	0.2006523	0.07850833	-0.05597197	-0.5290479	0.3609061	0	0
11.79671	0.01623541	0.1996249	0.07764842	-0.0618825	-0.02603926	-0.178978	0	0
11.83002	0.0292811	0.1901733	0.3915895	-0.2837043	6.289234	-4.443792	0	0
11.84674	0.03606331	0.1852262	0.4056386	-0.295884	0.280789	-0.243426	0	0
11.86325	0.04079315	0.1816491	0.2864336	-0.2166267	-3.58698	2.38492	0	0
11.9298	0.0558104	0.1372538	0.2256593	-0.6671134	-0.7316804	-5.423551	0	0
11.94631	0.05402632	0.1289093	-0.1080607	-0.5054199	-4.017898	1.946747	0	0
11.97912	0.04775314	0.1018683	-0.1912014	-0.8241891	-1.685766	-6.463382	0	0
11.99569	0.04352513	0.08859286	-0.2552184	-0.8013513	-1.296532	0.4625331	0	0
12.01225	0.0404516	0.08007056	-0.1855288	-0.5144372	2.103358	8.659583	0	0
12.02887	0.03522227	0.07034947	-0.3147013	-0.5850148	-3.89272	-2.126913	0	0
12.04539	0.03264629	0.06391772	-0.1559442	-0.3893643	4.791161	5.904572	0	0
12.06195	0.0284397	0.05840194	-0.2539397	-0.3329715	-2.962027	1.70454	0	0
12.07852	0.02039191	0.05284139	-0.4857935	-0.3356548	-6.997967	-0.0809904	0	0
12.09509	0.01494626	0.04896285	-0.3287003	-0.2341088	4.741219	3.064754	0	0
12.11193	0.01373598	0.04810868	-0.07186118	-0.0507171	7.687696	5.48927	0	0
12.12822	0.006473594	0.04297964	-0.4457221	-0.3147902	-11.28282	-7.969513	0	0
12.14495	0.001763156	0.03964948	-0.2815672	-0.1990611	4.970943	3.504514	0	0
12.16135	-0.003315777	0.03601826	-0.3096667	-0.2213979	-0.8481407	-0.6742043	0	0
12.17798	-0.00673674	0.03359548	-0.2058026	-0.1457531	3.145124	2.290613	0	0
12.19449	-0.007157772	0.03329718	-0.02550017	-0.01806672	5.441695	3.853693	0	0
12.21106	-0.007157772	0.03329718	0	0	0.7708611	0.5461506	0	0
12.22762	-0.007157772	0.03329718	0	0	0	0	0	0
12.24419	-0.007157772	0.03329718	0	0	0	0	0	0
12.26075	-0.007157772	0.03329718	0	0	0	0	0	0
12.27755	-0.007078829	0.03324124	0.004701149	-0.003331005	0.1409237	-0.0998517	0	0
12.29389	-0.006526223	0.03281239	0.03381476	-0.02624227	0.8786505	-0.6914632	0	0
12.31057	-0.004684176	0.03150687	0.110436	-0.0782695	2.320315	-1.575536	0	0
12.32702	0.003394724	0.02577569	0.4910637	-0.3483613	11.48836	-8.152089	0	0
12.34359	0.01084168	0.02048443	0.4494992	-0.3193812	-1.258804	0.8776752	0	0
12.36015	0.02110213	0.01317954	0.6193576	-0.4409493	5.126485	-3.669036	0	0
12.37672	0.02828193	0.008056939	0.4333487	-0.3091829	-5.613762	3.976716	0	0
12.39329	0.03480173	0.003396762	0.3935813	-0.2813212	-1.200215	0.8408924	0	0
12.40985	0.04281592	-0.002343377	0.4837654	-0.3464954	2.721995	-1.967132	0	0
12.42642	0.04628271	-0.004830712	0.2092678	-0.1501445	-8.284829	5.926224	0	0
12.44299	0.05247809	-0.00932022	0.3739752	-0.2710028	4.971166	-3.647721	0	0
12.45955	0.05670231	-0.01236076	0.2549892	-0.1835376	-3.591212	2.639855	0	0
12.47612	0.05935127	-0.01426964	0.1599004	-0.1152268	-2.869953	2.061743	0	0
12.49269	0.05982327	-0.01460995	0.02849172	-0.02054267	-3.966149	2.857738	0	0
12.50925	0.06331001	-0.01712563	0.2104482	-0.1518377	5.491458	-3.962491	0	0
12.52622	0.06456801	-0.01803403	0.07413642	-0.05353383	-4.064531	2.931214	0	0
12.54239	0.06459422	-0.01805295	0.001621497	-0.001170953	-2.188568	1.58036	0	0
12.55895	0.06456801	-0.01803403	-0.001582108	0.001142508	-0.09787376	0.07067887	0	0
12.57552	0.06456801	-0.01803403	0	0	0.04774948	-0.03448197	0	0
12.59209	0.06456801	-0.01803403	0	0	0	0	0	0
12.60865	0.06456801	-0.01803403	0	0	0	0	0	0
12.62522	0.06459422	-0.0180151	0.001582199	0.001142462	0.0477536	0.03448155	0	0
12.65835	0.06459422	-0.0180151	0	0	-0.0318339	-0.02298638	0	0
12.69199	0.06456801	-0.01799617	-0.0007792123	0.0005627029	-0.0116695	0.00842705	0	0
12.70856	0.06456801	-0.01799617	0	0	0.01552083	-0.01120827	0	0
12.72512	0.06456801	-0.01799617	0	0	0	0	0	0
12.74169	0.06456801	-0.01799617	0	0	0	0	0	0
12.77482	0.06456801	-0.01799617	0	0	0	0	0	0
12.7914	0.06456801	-0.01799617	0	0	0	0	0	0
12.80796	0.06456801	-0.01799617	0	0	0	0	0	0
12.82452	0.06456801	-0.01799617	0	0	0	0	0	0
12.84109	0.06456801	-0.01799617	0	0	0	0	0	0
12.85766	0.06456801	-0.01799617	0	0	0	0	0	0
12.87422	0.06456801	-0.01799617	0	0	0	0	0	0
12.89079	0.06456801	-0.01799617	0	0	0	0	0	0
12.90736	0.06456801	-0.01799617	0	0	0	0	0	0
12.92392	0.06456801	-0.01799617	0	0	0	0	0	0
12.94049	0.06456801	-0.01799617	0	0	0	0	0	0
12.95706	0.06456801	-0.01799617	0	0	0	0	0	0
12.97362	0.06456801	-0.01799617	0	0	0	0	0	0
12.99019	0.06456801	-0.01799617	0	0	0	0	0	0
13.00675	0.06456801	-0.01799617	0	0	0	0	0	0
13.02332	0.06456801	-0.01799617	0	0	0	0	0	0
13.04008	0.06456801	-0.01799617	0	0	0	0	0	0
13.05659	0.06456801	-0.01799617	0	0	0	0	0	0
13.08961	0.06456801	-0.01799617	0	0	0	0	0	0
13.10615	0.06456801	-0.01799617	0	0	0	0	0	0
13.12272	0.06456801	-0.01799617	0	0	0	0	0	0
13.13929	0.06456801	-0.01799617	0	0	0	0	0	0
13.15585	0.06456801	-0.01799617	0	0	0	0	0	0
13.17242	0.06456801	-0.01799617	0	0	0	0	0	0
13.18899	0.06456801	-0.01799617	0	0	0	0	0	0
13.2057	0.06454181	-0.01797724	-0.001568028	0.001132663	-0.04711976	0.03403689	0	0
13.22221	0.06446319	-0.01792046	-0.004762696	0.003439775	-0.09617166	0.06945286	0	0
13.23869	0.06438457	-0.01782583	-0.004769861	0.005741507	-0.0002171942	0.06977167	0	0
13.25525	0.0641225	-0.01748517	-0.01581974	0.02056341	-0.3343521	0.4484878	0	0
13.27182	0.06333622	-0.01669044	-0.04746237	0.0479726	-0.9550313	0.8272586	0	0
13.28876	0.05872189	-0.01230407	-0.2724679	0.2590067	-6.716257	6.299221	0	0
13.30526	0.05428871	-0.00847089	-0.2685455	0.2322001	0.1172829	-0.8015512	0	0
13.32178	0.0460989	-0.001985506	-0.4959654	0.3927473	-6.887134	4.861975	0	0
13.37122	0.01431481	0.03333446	-0.6428398	0.7143538	-2.22685	4.876069	0	0
13.38779	0.01128899	0.04236592	-0.1826282	0.5451084	6.971695	-2.563881	0	0
13.40436	0.008789247	0.06271526	-0.150885	1.228289	0.9579831	20.61783	0	0
13.42092	0.007473545	0.08368032	-0.07942506	1.265599	2.15679	1.126087	0	0
13.43749	0.007499859	0.09950247	0.001588411	0.9550818	2.445203	-9.372233	0	0
13.45405	0.006920942	0.113972	-0.03494552	0.8734358	-1.10266	-2.464224	0	0
13.47062	0.006473594	0.1311516	-0.02700355	1.03702	0.2397029	4.937257	0	0
13.48719	0.005710464	0.1427853	-0.04606524	0.7022543	-0.5753161	-10.10382	0	0
13.5044	0.004921013	0.1574611	-0.04585132	0.8523691	0.006331819	4.443382	0	0
13.52043	0.004657861	0.1678646	-0.01641884	0.6491041	0.8853182	-6.114137	0	0
13.53693	0.004842068	0.1744349	0.01116631	0.3982785	0.8481447	-7.711989	0	0
13.55345	0.005394685	0.1837089	0.03344266	0.5612339	0.6746122	4.934906	0	0
13.58659	0.006157817	0.1992103	0.02303204	0.467846	-0.2096471	-1.880628	0	0
13.60347	0.006526223	0.2018778	0.0218151	0.1579556	-0.02432851	-6.195185	0	0
13.63753	0.006499908	0.2018958	-0.0007725606	0.0005289121	-0.4433378	-3.089882	0	0
13.65451	0.006473594	0.2019138	-0.001550243	0.001062209	-0.01523795	0.01044944	0	0
13.67067	0.006473594	0.2019138	0	0	0.04678912	-0.03205936	0	0
13.68723	0.006447279	0.2019318	-0.001588467	0.001087481	-0.04854078	0.03323151	0	0
13.7038	0.006473594	0.2019138	0.001588467	-0.001087481	0.09588558	-0.06564423	0	0
13.72037	0.006473594	0.2019138	0	0	-0.04794279	0.03282212	0	0
13.73707	0.006473594	0.2019138	0	0	0	0	0	0
13.7535	0.006473594	0.2019138	0	0	0	0	0	0
13.77007	0.006499908	0.2018958	0.001588439	-0.00108838	0.04813452	-0.03298122	0	0
13.78663	0.006526223	0.2018778	0.001588439	-0.001087481	0	2.714977E-05	0	0
13.80361	0.006552538	0.2018237	0.001549835	-0.003183976	-0.001150796	-0.06249707	0	0
13.81977	0.006605167	0.2017877	0.003257899	-0.002231352	0.05155095	0.02875106	0	0
13.83663	0.006684111	0.2017336	0.004679677	-0.003204675	0.04305309	-0.02947335	0	0
13.8529	0.006710425	0.2016795	0.001617965	-0.003324	-0.09240532	-0.003601339	0	0
13.86947	0.006763055	0.2016075	0.003175261	-0.004348569	0.04742241	-0.03119992	0	0
13.88603	0.006815684	0.2015714	0.003178342	-0.002176863	9.298186E-05	0.06554409	0	0
13.9026	0.006841999	0.2015534	0.001588439	-0.001087481	-0.04799718	0.0328871	0	0
13.93573	0.006841999	0.2015173	0	-0.00108793	-0.0319613	-9.048752E-06	0	0
13.96886	0.006841999	0.2015173	0	0	0	0.01641785	0	0
13.98543	0.006841999	0.2015173	0	0	0	0	0	0
14.002	0.006841999	0.2014813	0	-0.002175861	0	-0.06566949	0	0
14.01856	0.006841999	0.2014813	0	0	0	0.06567138	0	0
14.03527	0.00678937	0.2014453	-0.003149321	-0.002156987	-0.0946381	-0.06481814	0	0
14.0517	0.006763055	0.2014272	-0.001602368	-0.001097017	0.04668847	0.03199088	0	0
14.0683	0.00673674	0.2014092	-0.001585273	-0.001086192	0.000517683	0.0003278123	0	0
14.08483	0.006710425	0.2013912	-0.001591554	-0.001089613	-0.0001895721	-0.000103273	0	0
14.10182	0.006710425	0.2013912	0	0	0.04747704	0.03250384	0	0
14.11796	0.006710425	0.2013551	0	-0.00223267	0	-0.06738406	0	0
14.13453	0.006710425	0.2013191	0	-0.00217561	0	0.001744272	0	0
14.1511	0.006710425	0.201247	0	-0.004351072	0	-0.06565747	0	0
14.16766	0.006763055	0.2011749	0.003176906	-0.004351721	0.0958875	-1.957847E-05	0	0
14.18423	0.00673674	0.2011569	-0.001588467	-0.00108838	-0.1438275	0.09849349	0	0
14.20089	0.006684111	0.2010848	-0.003159056	-0.004326414	-0.04726986	-0.09745478	0	0
14.2174	0.006657796	0.2010307	-0.001593484	-0.003274609	0.04719336	0.03170613	0	0
14.23393	0.006657796	0.2009947	0	-0.002181134	0.04822887	0.03309543	0	0
14.2505	0.006631482	0.2009767	-0.001588439	-0.001087481	-0.04799997	0.03304838	0	0
14.26706	0.006657796	0.2009587	0.001588439	-0.00108838	0.09588388	-2.714977E-05	0	0
14.28363	0.006631482	0.2009406	-0.001588347	-0.001087418	-0.09587836	2.903926E-05	0	0
14.30046	0.006631482	0.2009406	0	0	0.04755862	0.03255969	0	0
14.31697	0.006605167	0.2009226	-0.001593697	-0.001091963	-0.04779795	-0.03275003	0	0
14.33348	0.006605167	0.2009226	0	0	0.04825759	0.03306495	0	0
14.35	0.006605167	0.2009226	0	0	0	0	0	0
14.36651	0.006605167	0.2009226	0	0	0	0	0	0
14.38303	0.006605167	0.2009226	0	0	0	0	0	0
14.3996	0.006605167	0.2009226	0	0	0	0	0	0
14.41616	0.006578852	0.2009046	-0.001588439	-0.001087481	-0.04794194	-0.03282212	0	0
14.43273	0.006578852	0.2009046	0	0	0.04794194	0.03282212	0	0
14.4493	0.006578852	0.2009046	0	0	0	0	0	0
14.46586	0.006578852	0.2009046	0	0	0	0	0	0
14.48243	0.006578852	0.2009046	0	0	0	0	0	0
14.51594	0.006552538	0.2008866	-0.0007852241	-0.0005380264	-0.0156799	-0.01074368	0	0
14.53262	0.006552538	0.2008866	0	0	0.01564355	0.01071878	0	0
14.54914	0.006552538	0.2008505	0	-0.002183024	0	-0.06576454	0	0
14.56565	0.006499908	0.2008145	-0.003187365	-0.002183024	-0.09651711	0	0	0
14.63942	0.006447279	0.2007063	-0.0007133573	-0.001465734	0.02740095	0.00794437	0	0
14.65599	0.006447279	0.2007063	0	0	0.007895974	0.01622384	0	0
14.67256	0.006447279	0.2007063	0	0	0	0	0	0
14.68913	0.006420964	0.2006883	-0.001588165	-0.001087293	-0.04792953	-0.03281362	0	0
14.70569	0.006420964	0.2006883	0	0	0.04793091	0.03281456	0	0
14.72226	0.006420964	0.2006883	0	0	0	0	0	0
14.73883	0.006420964	0.2006883	0	0	0	0	0	0
14.75539	0.006420964	0.2006703	0	-0.001088192	0	-0.03283981	0	0
14.78853	0.006420964	0.2006523	0	-0.0005437716	0	0.01095418	0	0
14.80509	0.006420964	0.2006523	0	0	0	0.01094176	0	0
14.82183	0.006420964	0.2006523	0	0	0	0	0	0
14.83822	0.006420964	0.2006523	0	0	0	0	0	0
14.85479	0.006420964	0.2006523	0	0	0	0	0	0
14.87136	0.006420964	0.2006523	0	0	0	0	0	0
14.88792	0.00639465	0.2006342	-0.001588622	-0.001088505	-0.04794746	-0.03285305	0	0
14.90449	0.00639465	0.2006342	0	0	0.04795022	0.03285494	0	0
14.9214	0.00639465	0.2006342	0	0	0	0	0	0
14.93762	0.00639465	0.2006342	0	0	0	0	0	0
14.95442	0.00639465	0.2006342	0	0	0	0	0	0
14.97076	0.00639465	0.2006342	0	0	0	0	0	0
14.98744	0.006420964	0.2006162	0.001577	-0.001079649	0.0477534	-0.03269303	0	0
15.00389	0.00639465	0.2005982	-0.001599952	-0.001096269	-0.09588337	-0.0005015869	0	0
15.02047	0.00639465	0.2005982	0	0	0.04844841	0.03319629	0	0
15.03702	0.00639465	0.2005982	0	0	0	0	0	0
15.05359	0.00639465	0.2005982	0	0	0	0	0	0
15.07016	0.00639465	0.2005982	0	0	0	0	0	0
15.08672	0.00639465	0.2005982	0	0	0	0	0	0
15.10329	0.006420964	0.2005802	0.001588439	-0.001087481	0.04794194	-0.03282212	0	0
15.11985	0.006420964	0.2005802	0	0	-0.04794194	0.03282212	0	0
15.13642	0.00639465	0.2005982	-0.001588256	0.001087355	-0.04793366	0.03281645	0	0
15.15306	0.00639465	0.2005982	0	0	0.04783454	-0.03274859	0	0
15.16957	0.006368335	0.2006162	-0.001593604	0.0010919	-0.04807571	0.03294034	0	0
15.18612	0.00639465	0.2007424	0.001589932	0.007622083	0.09628438	0.197502	0	0
15.20269	0.006526223	0.2009046	0.007941766	0.009791259	0.1917926	0.0654979	0	0
15.21926	0.006657796	0.2010307	0.007941794	0.007614624	8.432211E-07	-0.06569096	0	0
15.23612	0.007552488	0.2018237	0.05306289	0.04702878	1.349792	1.179069	0	0
15.25263	0.0130782	0.2057512	0.3346307	0.2378456	8.436785	5.717558	0	0
15.26896	0.0248107	0.2139243	0.718599	0.5005932	11.69217	8.000896	0	0
15.28552	0.04058297	0.2246059	0.9521258	0.6448169	7.099759	4.384733	0	0
15.30217	0.04945963	0.2306784	0.5333401	0.3648543	-12.61067	-8.430361	0	0
15.31866	0.06427974	0.2407489	0.8987343	0.6107052	11.02794	7.420008	0	0
15.33522	0.08521419	0.2549142	1.263679	0.8550683	11.04009	7.392339	0	0
15.35179	0.100815	0.2654826	0.9416639	0.6379069	-9.7187	-6.554132	0	0
15.36836	0.1202071	0.2787624	1.170514	0.8015718	6.906702	4.939417	0	0
15.38522	0.1371339	0.290387	1.00356	0.6892051	-4.993546	-3.360861	0	0
15.41806	0.158604	0.3050428	0.6539163	0.4463727	-7.035114	-4.885985	0	0
15.45128	0.1793162	0.3195126	0.6233559	0.4354846	-0.462615	-0.1648212	0	0
15.46828	0.1845343	0.323174	0.3069635	0.2153822	-6.299348	-4.382222	0	0
15.48442	0.1965351	0.3316568	0.7438056	0.5257658	13.1843	9.367666	0	0
15.50098	0.2025521	0.3358712	0.3631904	0.2543785	-11.63908	-8.298929	0	0
15.51782	0.2060847	0.3383355	0.2098654	0.1464023	-4.590626	-3.232861	0	0
15.53433	0.2086299	0.340139	0.1541455	0.1092288	-1.67105	-1.114838	0	0
15.55084	0.2118013	0.342389	0.1920682	0.1362662	1.148343	0.8187228	0	0
15.56735	0.2121283	0.3426212	0.01980153	0.01405835	-5.216434	-3.700594	0	0
15.58386	0.2121283	0.3426212	0	0	-0.5996134	-0.4257031	0	0
15.60038	0.2121283	0.3426212	0	0	0	0	0	0
15.61695	0.2121031	0.3426033	-0.001518335	-0.001077586	-0.04588949	-0.03256848	0	0
15.63352	0.2121031	0.3426033	0	0	0.04582608	0.03252349	0	0
15.65008	0.2120528	0.3425676	-0.00303667	-0.002155172	-0.09165217	-0.06504697	0	0
15.66665	0.2120528	0.3424962	0	-0.004312144	0.09165217	-0.06510127	0	0
15.68322	0.2121031	0.342389	0.00303667	-0.006467316	0.09165217	-0.06504698	0	0
15.69978	0.2123798	0.3421212	0.01669809	-0.01616919	0.4123262	-0.29282	0	0
15.71635	0.2127066	0.3418176	0.01973206	-0.01832436	0.09157071	-0.06504696	0	0
15.73291	0.2139132	0.3408176	0.07283151	-0.06036462	1.602637	-1.26885	0	0
15.74948	0.2157972	0.3393355	0.1137231	-0.08946664	1.234182	-0.8783514	0	0
15.76605	0.2161236	0.3384247	0.01970238	-0.05497489	-2.837715	1.041023	0	0
15.78261	0.2175039	0.337264	0.08332494	-0.07006469	1.920243	-0.4554375	0	0
15.79918	0.2198361	0.3355319	0.1407716	-0.1045522	1.733794	-1.040866	0	0
15.81575	0.2211892	0.3345319	0.08167618	-0.06036462	-1.783555	1.333623	0	0
15.83253	0.2211892	0.3345319	0	0	-2.448781	1.809827	0	0
15.84888	0.2211892	0.3345319	0	0	0	0	0	0
15.86556	0.2211892	0.3345319	0	0	0	0	0	0
15.88201	0.2211892	0.3345319	0	0	0	0	0	0
15.89858	0.2211892	0.3345319	0	0	0	0	0	0
15.91515	0.2211892	0.3345319	0	0	0	0	0	0
15.93171	0.2211642	0.3345497	-0.001511952	0.001077524	-0.04563473	0.03252255	0	0
15.94862	0.2211642	0.3345497	0	0	0.04517185	-0.03219267	0	0
15.98141	0.2211642	0.3345497	0	0	0	0	0	0
15.99815	0.2211642	0.3345497	0	0	0	0	0	0
16.01455	0.2211642	0.3345497	0	0	0	0	0	0
16.03111	0.2211642	0.3345497	0	0	0	0	0	0
16.04769	0.2211642	0.3345497	0	0	0	0	0	0
16.06425	0.2211642	0.3345497	0	0	0	0	0	0
16.08082	0.2211642	0.3345497	0	0	0	0	0	0
16.09738	0.2211642	0.3345497	0	0	0	0	0	0
16.11395	0.2211391	0.3345319	-0.001511952	-0.001077524	-0.04563079	-0.03251974	0	0
16.13052	0.2211391	0.3345319	0	0	0.04562816	0.03251787	0	0
16.14709	0.2211391	0.3345319	0	0	0	0	0	0
16.16365	0.2211141	0.334514	-0.001511778	-0.0010774	-0.04562554	-0.032516	0	0
16.18029	0.221089	0.3344961	-0.001505884	-0.001074991	0.0001775096	7.254587E-05	0	0
16.1968	0.221064	0.3344783	-0.001517192	-0.001081259	-0.0003411815	-0.0001890906	0	0
16.21335	0.2210389	0.3344604	-0.001514071	-0.001078393	9.437827E-05	8.666394E-05	0	0
16.27962	0.2208635	0.3343354	-0.00264614	-0.001886117	-0.01366857	-0.009752434	0	0
16.29637	0.2207633	0.334264	-0.005982585	-0.00426476	-0.04018881	-0.02865171	0	0
16.31275	0.2206631	0.3341926	-0.006117927	-0.004360592	-0.004084854	-0.002892373	0	0
16.32939	0.2204627	0.334014	-0.01204651	-0.01073189	-0.1795347	-0.1929414	0	0
16.36245	0.2188835	0.332889	-0.0477693	-0.03403116	-0.7187992	-0.4688183	0	0
16.37902	0.2131592	0.3287817	-0.3455201	-0.2479187	-5.999968	-4.310042	0	0
16.39559	0.2009103	0.319852	-0.7393444	-0.5389959	-11.88564	-8.784727	0	0
16.41215	0.1934958	0.3145114	-0.4475404	-0.3223614	8.806661	6.538043	0	0
16.42872	0.1746752	0.3007899	-1.136013	-0.8282275	-20.77814	-15.26707	0	0
16.44547	0.1644744	0.2936943	-0.6088547	-0.4235151	15.82041	12.14573	0	0
16.46199	0.1558058	0.2876872	-0.5249861	-0.363806	2.521146	1.794893	0	0
16.4785	0.1503052	0.283896	-0.3331327	-0.229601	5.809544	4.063882	0	0
16.49501	0.1364882	0.274343	-0.8367876	-0.5785509	-15.25125	-10.56661	0	0
16.51155	0.1306981	0.2703341	-0.3500177	-0.2423415	14.72635	10.17141	0	0
16.52812	0.1182095	0.261704	-0.7538127	-0.5209119	-12.19569	-8.413566	0	0
16.54469	0.1079992	0.2546275	-0.6162935	-0.4271403	4.150339	2.830032	0	0
16.56125	0.100841	0.2496984	-0.4320692	-0.2975199	5.5599	3.911952	0	0
16.57782	0.08586729	0.2394391	-0.9037112	-0.619184	-14.23336	-9.707284	0	0
16.59439	0.07132617	0.2295289	-0.8778048	-0.5982486	0.781858	0.6318321	0	0
16.61109	0.0612129	0.2226648	-0.6054192	-0.4109109	8.187151	5.630849	0	0
16.62811	0.04846203	0.2141403	-0.7495384	-0.5011002	-4.274477	-2.674954	0	0
16.64412	0.04005751	0.2084525	-0.5247575	-0.3551306	6.805839	4.419619	0	0
16.66066	0.02996471	0.2015714	-0.6103969	-0.4161578	-2.630944	-1.87483	0	0
16.67722	0.02370608	0.1972812	-0.3778151	-0.25899	7.026612	4.748253	0	0
16.69379	0.01610387	0.1921043	-0.4588705	-0.3124739	-2.446397	-1.614241	0	0
16.71036	0.01102587	0.188621	-0.3065088	-0.2102557	4.598284	3.084951	0	0
16.72718	0.006263076	0.1854249	-0.2831151	-0.1899846	0.7006187	0.6071012	0	0
16.74369	0.004894698	0.1844856	-0.08287216	-0.05688316	6.007037	3.992876	0	0
16.76006	0.002999991	0.183185	-0.1157506	-0.07946137	-0.9999298	-0.6866691	0	0
16.77671	0.0001052632	0.1811973	-0.1738256	-0.1193565	-1.758678	-1.20814	0	0
16.79322	-0.0001578947	0.1810166	-0.01593745	-0.0109449	4.760688	3.268858	0	0
16.80976	-0.0001315789	0.1810346	0.001591723	0.00109238	0.5304667	0.3642714	0	0
16.82675	-0.0001315789	0.1810346	0	0	-0.04747804	-0.03258359	0	0
16.84289	-0.0001315789	0.1810346	0	0	0	0	0	0
16.85977	-0.0001578947	0.1810166	-0.001558813	-0.001069794	-0.04720541	-0.03239649	0	0
16.87602	-0.0001578947	0.1810166	0	0	0.04704779	0.03228832	0	0
16.89279	-0.0001315789	0.1810346	0.001569096	0.001076851	0.04751678	0.03261018	0	0
16.90916	-0.0001315789	0.1810346	0	0	-0.0473554	-0.03249943	0	0
16.94233	-0.0001578947	0.1810166	-0.0007932991	-0.0005444313	-0.01601468	-0.01099067	0	0
16.95885	-0.0001578947	0.1810166	0	0	0.01596243	0.01095482	0	0
16.97542	-0.0001578947	0.1810166	0	0	0	0	0	0
16.99199	-0.0001578947	0.1810166	0	0	0	0	0	0
17.00855	-0.0001578947	0.1810166	0	0	0	0	0	0
17.02512	-0.0001578947	0.1810166	0	0	0	0	0	0
17.04169	-0.0001578947	0.1810166	0	0	0	0	0	0
17.07492	-0.0001578947	0.1810166	0	0	0	0	0	0
17.12453	-0.0001315789	0.1809985	0.000530554	-0.0003644131	0.006404861	-0.004399204	0	0
17.14109	-0.0001315789	0.1809985	0	0	-0.00801877	0.005507723	0	0
17.15766	-0.0001315789	0.1809985	0	0	0	0	0	0
17.17422	-0.0001315789	0.1809985	0	0	0	0	0	0
17.19079	-0.0001315789	0.1809985	0	0	0	0	0	0
17.20736	-0.0001315789	0.1809985	0	0	0	0	0	0
17.22403	-0.0001315789	0.1809985	0	0	0	0	0	0
17.24049	-0.0001315789	0.1809985	0	0	0	0	0	0
17.27442	-0.0001315789	0.1809985	0	0	0	0	0	0
17.29107	-0.0001315789	0.1809985	0	0	0	0	0	0
17.30755	-0.0001315789	0.1809985	0	0	0	0	0	0
17.32412	-0.0001052632	0.1810166	0.001588424	0.001091016	0.04807156	0.03301815	0	0
17.34068	-0.0001052632	0.1810166	0	0	-0.04793873	-0.03292692	0	0
17.35725	-0.0001315789	0.1810346	-0.001588607	0.001090242	-0.04794701	0.03290546	0	0
17.37382	-0.0001315789	0.1810346	0	0	0.04794701	-0.03290546	0	0
17.39038	-0.0001315789	0.1810346	0	0	0	0	0	0
17.40695	-0.0001052632	0.1810527	0.001588424	0.001091016	0.04793873	0.03292692	0	0
17.42352	-7.894737E-05	0.1810708	0.001588424	0.001091016	0	0	0	0
17.44009	-5.263158E-05	0.1810889	0.001588424	0.001091016	1.405369E-08	0	0	0
17.45665	2.631579E-05	0.1811069	0.004765273	0.001091016	0.09587747	0	0	0
17.47322	7.894737E-05	0.1811069	0.003176849	0	-0.04793873	-0.03292692	0	0
17.48979	7.894737E-05	0.1811069	0	0	-0.09587748	0	0	0
17.50636	0.0001052632	0.1810889	0.001588424	-0.001091016	0.04793873	-0.03292692	0	0
17.52292	0.0001315789	0.1810708	0.001588424	-0.001091016	0	0	0	0
17.53975	0.0001578947	0.1810527	0.001563406	-0.001073831	-0.0007490513	0.0005145064	0	0
17.55627	0.0001578947	0.1810527	0	0	-0.0468868	0.03220438	0	0
17.57262	0.0001578947	0.1810527	0	0	0	0	0	0
17.58919	0.0001315789	0.1810346	-0.001588425	-0.001091016	-0.04824704	-0.03313866	0	0
17.60576	0.0001315789	0.1810346	0	0	0.04793876	0.03292692	0	0
17.62232	0.0001578947	0.1810527	0.001588425	0.001091016	0.04793876	0.03292692	0	0
17.63889	0.0001578947	0.1810527	0	0	-0.04793876	-0.03292692	0	0
17.65546	0.0001842105	0.1810708	0.001588607	0.001091141	0.04794701	0.03293261	0	0
17.67202	0.0001842105	0.1810708	0	0	-0.04794701	-0.03293261	0	0
17.68859	0.0002368421	0.1811069	0.003176848	0.002182032	0.09587746	0.06585384	0	0
17.70516	0.0002894737	0.1811431	0.003176849	0.002181132	2.810737E-08	-2.714469E-05	0	0
17.72173	0.0003157895	0.1811612	0.001588423	0.001091016	-0.04793879	-0.03289977	0	0
17.73829	0.000368421	0.1811973	0.003176848	0.002182032	0.04793876	0.03292692	0	0
17.80183	0.001026315	0.1816491	0.01035472	0.00711078	0.08960813	0.06153019	0	0
17.81846	0.00155263	0.1820105	0.03165182	0.02173484	0.2656693	0.1824269	0	0
17.83497	0.001973682	0.1822996	0.02549984	0.01750931	-0.1856351	-0.1275048	0	0
17.85153	0.002499995	0.182661	0.03178662	0.02182568	0.1901075	0.1305237	0	0
17.86809	0.004026294	0.1837089	0.09212761	0.06325013	1.821619	1.250552	0	0
17.88466	0.005315739	0.184594	0.07784002	0.05343444	-0.4312254	-0.2962551	0	0
17.90123	0.006710425	0.1855513	0.08418343	0.05778156	0.1914557	0.1312038	0	0
17.93436	0.01226254	0.1893611	0.1675633	0.1149794	1.677606	1.150823	0	0
17.95093	0.01226254	0.1893611	0	0	-3.371379	-2.31339	0	0
17.96749	0.01226254	0.1893611	0	0	0	0	0	0
17.98406	0.01223623	0.1893792	-0.001588418	0.001090242	-0.04794131	0.03290546	0	0
18.00063	0.01223623	0.1893792	0	0	0.04794131	-0.03290546	0	0
18.01719	0.01220992	0.1893972	-0.001588179	0.001089217	-0.04793134	0.03287263	0	0
18.03376	0.01218361	0.1894153	-0.001588179	0.001090116	0	2.714821E-05	0	0
18.05033	0.0121573	0.1894333	-0.001588179	0.001089217	0	-2.714821E-05	0	0
18.06713	0.0121573	0.1894333	0	0	0.04758891	-0.03263778	0	0
18.08365	0.0121573	0.1894333	0	0	0	0	0	0
18.10016	0.01213098	0.1894514	-0.001593499	0.001092866	-0.048253	0.03309324	0	0
18.11667	0.01210467	0.1894694	-0.001593315	0.001093642	5.573005E-06	2.350109E-05	0	0
18.13316	0.01207836	0.1894875	-0.001595583	0.001094256	-6.871393E-05	1.861318E-05	0	0
18.14973	0.01207836	0.1894875	0	0	0.04826871	-0.03310284	0	0
18.1663	0.01207836	0.1894875	0	0	0	0	0	0
18.18286	0.01207836	0.1894875	0	0	0	0	0	0
18.21624	0.01202574	0.1895597	-0.001576653	0.00216307	-0.03156846	0.04330997	0	0
18.23276	0.01202574	0.1896319	0	0.004372257	0.03160104	0.04427901	0	0
18.24926	0.01210467	0.1897221	0.004781658	0.005466493	0.1447942	0.03313474	0	0
18.28229	0.0121573	0.1897582	0.001593407	0.001093254	-0.0643651	-0.0882879	0	0
18.29883	0.0121573	0.1897582	0	0	-0.03214824	-0.02205725	0	0
18.3154	0.01218361	0.1898124	0.001588179	0.00326855	0.04797276	0.09873028	0	0
18.33196	0.01310451	0.1906967	0.05558598	0.05338152	1.629657	1.512412	0	0
18.34883	0.01870834	0.1946481	0.3321674	0.2342169	8.271537	5.408124	0	0
18.3651	0.02299595	0.1976237	0.2636569	0.1829798	-2.06777	-1.546427	0	0
18.38166	0.027309	0.2007244	0.2603364	0.1871546	-0.1011431	0.1271669	0	0
18.39823	0.03083233	0.2031751	0.2126688	0.1479284	-1.438612	-1.183849	0	0
18.4148	0.0324097	0.2045083	0.09521023	0.08047073	-3.544907	-2.035877	0	0
18.43139	0.0324097	0.2045083	0	0	-2.870971	-2.426516	0	0
18.44794	0.0324097	0.2045083	0	0	0	0	0	0
18.48262	0.03238341	0.2044903	-0.0007579019	-0.0005193728	-0.01479425	-0.01013816	0	0
18.49944	0.03238341	0.2044903	0	0	0.01471481	0.01008372	0	0
18.51595	0.03238341	0.2044543	0	-0.002181219	0	-0.06544131	0	0
18.54889	0.03238341	0.2044543	0	0	0	0.04410965	0	0
18.56546	0.03238341	0.2044543	0	0	0	0	0	0
18.58203	0.03235712	0.2044363	-0.00158683	-0.001087418	-0.04789062	-0.03281834	0	0
18.59859	0.03233084	0.2044182	-0.001586605	-0.001087418	6.78793E-06	0	0	0
18.61516	0.03233084	0.2044182	0	0	0.04788383	0.03281834	0	0
18.63173	0.03233084	0.2044182	0	0	0	0	0	0
18.64906	0.03233084	0.2044182	0	0	0	0	0	0
18.7206	0.03233084	0.2044182	0	0	0	0	0	0
18.73713	0.03233084	0.2044182	0	0	0	0	0	0
18.75369	0.03233084	0.2044182	0	0	0	0	0	0
18.77026	0.03230455	0.2044002	-0.001587012	-0.001087543	-0.04789889	-0.03282401	0	0
18.78683	0.03227826	0.2043822	-0.00158683	-0.001087418	5.512875E-06	3.780659E-06	0	0
18.8034	0.03222568	0.2043462	-0.003173069	-0.002174586	-0.04787005	-0.0328089	0	0
18.82017	0.0321731	0.2043101	-0.003134327	-0.002147882	0.001161888	0.0008008376	0	0
18.83668	0.03214682	0.2042561	-0.001592145	-0.003273182	0.04632978	-0.03380594	0	0
18.85319	0.03212053	0.2042381	-0.001592104	-0.001091187	1.262091E-06	0.06607716	0	0
18.86966	0.03204166	0.204184	-0.00478916	-0.003281902	-0.09694495	-0.06642947	0	0
18.88623	0.03201537	0.204166	-0.00158683	-0.001087418	0.09693668	0.06642849	0	0
18.91936	0.03198908	0.204112	-0.0007934605	-0.001631221	0.01596323	-0.01094176	0	0
18.93593	0.03198908	0.204112	0	0	0.01596568	0.03282275	0	0
18.95249	0.03196279	0.204094	-0.00158683	-0.001087418	-0.04789338	-0.03282023	0	0
18.96906	0.03196279	0.204094	0	0	0.04789062	0.03281834	0	0
18.98563	0.03196279	0.204094	0	0	0	0	0	0
19.0023	0.03193651	0.2040759	-0.001576622	-0.001080576	-0.04743236	-0.03250892	0	0
19.01876	0.03193651	0.2040759	0	0	0.04758528	0.03261372	0	0
19.03533	0.03193651	0.2040399	0	-0.002174836	0	-0.06584895	0	0
19.06906	0.03191022	0.2039859	-0.0007792844	-0.001602077	-0.01549196	0.01138629	0	0
19.08563	0.03191022	0.2039498	0	-0.002174836	0.01549196	-0.01138629	0	0
19.10237	0.03191022	0.2039138	0	-0.002152287	0	0.0006769754	0	0
19.11889	0.03185764	0.2038417	-0.003183923	-0.004363739	-0.09574378	-0.06650058	0	0
19.13533	0.03183135	0.2037877	-0.001598238	-0.003285707	0.0481053	0.0327045	0	0
19.15191	0.03180506	0.2037337	-0.001586099	-0.003260752	0.0003675717	0.0007556599	0	0
19.16846	0.03172619	0.2036436	-0.00476378	-0.005440848	-0.09591363	-0.06580301	0	0
19.18503	0.03164732	0.2035535	-0.004760489	-0.005437989	9.933765E-05	8.631944E-05	0	0
19.20194	0.03162104	0.2035355	-0.001554438	-0.001065221	0.09576108	0.1306096	0	0
19.21816	0.03156846	0.2034994	-0.003241581	-0.002221381	-0.05092101	-0.034895	0	0
19.23473	0.03156846	0.2034994	0	0	0.09886115	0.06774728	0	0
19.2513	0.03156846	0.2034994	0	0	0	0	0	0
19.26786	0.03156846	0.2034994	0	0	0	0	0	0
19.28443	0.03156846	0.2034994	0	0	0	0	0	0
19.30101	0.03156846	0.2034994	0	0	0	0	0	0
19.31757	0.03154217	0.2034814	-0.00158811	-0.001088295	-0.04792924	-0.03284481	0	0
19.33413	0.03154217	0.2034814	0	0	0.04795132	0.03285994	0	0
19.3507	0.03154217	0.2034814	0	0	0	0	0	0
19.36727	0.03154217	0.2034814	0	0	0	0	0	0
19.38407	0.03151588	0.2034634	-0.001564318	-0.001071991	-0.04687392	-0.03212162	0	0
19.40058	0.03151588	0.2034634	0	0	0.04695174	0.03217495	0	0
19.41697	0.03148959	0.2034454	-0.001604564	-0.001099571	-0.04877681	-0.03342563	0	0
19.43361	0.03148959	0.2034454	0	0	0.04858805	0.03329628	0	0
19.45012	0.03148959	0.2034454	0	0	0	0	0	0
19.46667	0.03148959	0.2034454	0	0	0	0	0	0
19.48323	0.03148959	0.2034454	0	0	0	0	0	0
19.4998	0.03148959	0.2034094	0	-0.002174836	0	-0.06563668	0	0
19.51637	0.03148959	0.2031931	0	-0.01305081	0	-0.3282377	0	0
19.53293	0.03125298	0.2028508	-0.01428169	-0.02066364	-0.4310223	-0.2297555	0	0
19.5495	0.02901817	0.2008866	-0.1348936	-0.1185618	-3.640074	-2.954574	0	0
19.56607	0.02830823	0.2000394	-0.04285216	-0.05113203	2.777815	2.035036	0	0
19.58272	0.0288867	0.1991381	0.03474875	-0.05414059	2.336352	-0.09057951	0	0
19.59923	0.03330347	0.1908411	0.26749	-0.5024871	7.018893	-13.52101	0	0
19.61577	0.03480173	0.1739464	0.09058113	-1.021414	-5.35237	-15.70011	0	0
19.63234	0.0351697	0.1536505	0.02221067	-1.225065	-2.065089	-6.151152	0	0
19.6489	0.03527484	0.1380184	0.00634597	-0.9435559	-0.4787976	8.495961	0	0
19.66547	0.03530112	0.1230894	0.00158638	-0.9011129	-0.1436447	1.280933	0	0
19.68204	0.03461774	0.1049109	-0.04124858	-1.09726	-1.292762	-5.919722	0	0
19.6986	0.03453889	0.09315094	-0.00475959	-0.7098303	1.10124	11.69264	0	0
19.71531	0.03427605	0.08951221	-0.01573135	-0.2177788	-0.3297239	14.78715	0	0
19.76487	0.03125298	0.05593773	-0.06099742	-0.6774436	-0.6830664	-6.936356	0	0
19.78144	0.02857117	0.04818296	-0.1618744	-0.4680786	-1.525486	3.166068	0	0
19.79801	0.0241269	0.04526626	-0.2682569	-0.1760527	-3.210629	8.81336	0	0
19.81458	0.02149669	0.04344451	-0.1587597	-0.109961	3.304633	1.994651	0	0
19.83114	0.02133887	0.04333295	-0.009527359	-0.006734852	4.504099	3.11555	0	0
19.86427	0.02136517	0.04331435	0.0007939103	-0.0005611678	0.2076803	0.1242243	0	0
19.89806	0.02133887	0.04329576	-0.0007785377	-0.0005504121	-0.02349767	0.0001607268	0	0
19.91463	0.02133887	0.04329576	0	0	0.01546129	0.01093085	0	0
19.93119	0.02133887	0.04329576	0	0	0	0	0	0
19.94798	0.02133887	0.04329576	0	0	0	0	0	0
19.96449	0.02133887	0.04329576	0	0	0	0	0	0
19.98089	0.02133887	0.04329576	0	0	0	0	0	0
19.99751	0.02131256	0.04327716	-0.001582697	-0.001118793	-0.0479259	-0.03387836	0	0
20.01403	0.02131256	0.04323997	0	-0.002251767	0.04776589	-0.0341932	0	0
20.0306	0.02128626	0.04322138	-0.001587729	-0.001122496	-0.04799235	0.03413451	0	0
20.04716	0.02057604	0.04271928	-0.04286869	-0.03030649	-1.245862	-0.8807748	0	0
20.06373	0.01973428	0.04216132	-0.05080891	-0.03367848	-0.2396363	-0.1017667	0	0
20.0803	0.01431481	0.03829051	-0.3271574	-0.2336695	-8.340695	-6.03609	0	0
20.09686	0.01018386	0.03536613	-0.2493448	-0.1765161	2.348525	1.724994	0	0
20.1136	0.007157772	0.0332226	-0.1808436	-0.1281008	2.057069	1.453896	0	0
20.13	0.004473655	0.03135764	-0.1636528	-0.113708	0.518818	0.434374	0	0
20.14656	0.002736835	0.03008892	-0.1048588	-0.07659774	1.783546	1.125758	0	0
20.16313	0.0009999997	0.02885709	-0.1048235	-0.07434455	0.001063194	0.06800554	0	0
20.17969	0.0009999997	0.02885709	0	0	3.163763	2.243852	0	0
20.19626	0.0009999997	0.02885709	0	0	0	0	0	0
20.21283	0.0009999997	0.02885709	0	0	0	0	0	0
20.22939	0.0009999997	0.02885709	0	0	0	0	0	0
20.24596	0.0009999997	0.02885709	0	0	0	0	0	0
20.26253	0.0009999997	0.02885709	0	0	0	0	0	0
20.27921	0.0009999997	0.02885709	0	0	0	0	0	0
20.29572	0.0009999997	0.02885709	0	0	0	0	0	0
20.31224	0.0009999997	0.02885709	0	0	0	0	0	0
20.3288	0.0009999997	0.02885709	0	0	0	0	0	0
20.34536	0.0009999997	0.02885709	0	0	0	0	0	0
20.36193	0.0009999997	0.02885709	0	0	0	0	0	0
20.39506	0.0009999997	0.02885709	0	0	0	0	0	0
20.41181	0.0009999997	0.02885709	0	0	0	0	0	0
20.42832	0.0009999997	0.02885709	0	0	0	0	0	0
20.44476	0.0009999997	0.02885709	0	0	0	0	0	0
20.46133	0.0009999997	0.02885709	0	0	0	0	0	0
20.4779	0.0009999997	0.02885709	0	0	0	0	0	0
20.49446	0.0009999997	0.02885709	0	0	0	0	0	0
20.51103	0.0009999997	0.02885709	0	0	0	0	0	0
20.52789	0.0009999997	0.02885709	0	0	0	0	0	0
20.54416	0.0009999997	0.02885709	0	0	0	0	0	0
20.56077	0.0009999997	0.02885709	0	0	0	0	0	0
20.57742	0.0009999997	0.02885709	0	0	0	0	0	0
20.59394	0.0009999997	0.02885709	0	0	0	0	0	0
20.61043	0.0009999997	0.02885709	0	0	0	0	0	0
20.627	0.0009999997	0.02885709	0	0	0	0	0	0
20.64356	0.0009999997	0.02885709	0	0	0	0	0	0
20.66013	0.0009999997	0.02885709	0	0	0	0	0	0
20.677	0.0009999997	0.02885709	0	0	0	0	0	0
20.69326	0.0009999997	0.02885709	0	0	0	0	0	0
20.73045	0.0009999997	0.02885709	0	0	0	0	0	0
20.74702	0.0009999997	0.02885709	0	0	0	0	0	0
20.76359	0.0009999997	0.02885709	0	0	0	0	0	0
20.78015	0.0009999997	0.02885709	0	0	0	0	0	0
20.79708	0.0009999997	0.02885709	0	0	0	0	0	0
20.81328	0.0009999997	0.02885709	0	0	0	0	0	0
20.82985	0.0009999997	0.02885709	0	0	0	0	0	0
20.84642	0.0009999997	0.02885709	0	0	0	0	0	0
20.86299	0.0009999997	0.02885709	0	0	0	0	0	0
20.87955	0.0009999997	0.02885709	0	0	0	0	0	0
20.89615	0.0009999997	0.02885709	0	0	0	0	0	0
20.91269	0.0009999997	0.02885709	0	0	0	0	0	0
20.92967	0.0009999997	0.02885709	0	0	0	0	0	0
20.94582	0.0009999997	0.02885709	0	0	0	0	0	0
20.9627	0.0009999997	0.02885709	0	0	0	0	0	0
20.97895	0.0009999997	0.02885709	0	0	0	0	0	0
20.99552	0.0009999997	0.02885709	0	0	0	0	0	0
21.01223	0.0009999997	0.02885709	0	0	0	0	0	0
21.02875	0.0009999997	0.02885709	0	0	0	0	0	0
21.04526	0.0009999997	0.02885709	0	0	0	0	0	0
21.06179	0.0009999997	0.02885709	0	0	0	0	0	0
21.07835	0.0009999997	0.02885709	0	0	0	0	0	0
21.09492	0.0009999997	0.02885709	0	0	0	0	0	0
21.11149	0.0009999997	0.02885709	0	0	0	0	0	0
21.12832	0.0009999997	0.02885709	0	0	0	0	0	0
21.14462	0.0009999997	0.02885709	0	0	0	0	0	0
21.16134	0.0009999997	0.02889443	0	0.002232859	0	0.06762528	0	0
21.17785	0.0009736839	0.02898776	-0.001593746	0.005652489	-0.04795855	0.1029025	0	0
21.19436	0.0008947366	0.02923042	-0.004781231	0.01469593	-0.09652074	0.2738459	0	0
21.21089	0.0008947366	0.02949172	0	0.01581427	0.1447311	0.03385297	0	0
21.22746	-0.0002894737	0.03107781	-0.07147907	0.09573652	-2.160103	2.415256	0	0
21.24402	-0.003078938	0.0354034	-0.1683724	0.2610928	-2.924246	4.990464	0	0
21.27715	-0.007105144	0.04777439	-0.1215181	0.3733788	0.9427453	2.259284	0	0
21.29372	-0.009078698	0.06365876	-0.119124	0.9587824	0.04817234	11.7788	0	0
21.31045	-0.01065749	0.09616259	-0.09438337	1.943144	0.7430801	29.56513	0	0
21.32696	-0.01055224	0.12256	0.006375751	1.599058	3.031667	-10.35296	0	0
21.34347	-0.01007861	0.1413302	0.02868765	1.136899	0.6757473	-13.99713	0	0
21.35999	-0.008868189	0.1625382	0.0732803	1.28396	1.350161	4.45267	0	0
21.37655	-0.007947201	0.1711415	0.05559093	0.5192983	-0.5346667	-23.11213	0	0
21.39312	-0.005210479	0.1845218	0.1652079	0.8077261	3.308436	8.70527	0	0
21.40969	0.0002105263	0.193692	0.3272125	0.5535173	4.889592	-7.672479	0	0
21.42625	0.004421024	0.1984892	0.2541461	0.2895554	-2.205149	-7.966387	0	0
21.44282	0.007289344	0.2013191	0.1731322	0.1708155	-2.445006	-3.583578	0	0
21.45955	0.01576185	0.2074081	0.5063878	0.3639296	10.00813	5.799487	0	0
21.47595	0.01976059	0.2101448	0.2437777	0.1668414	-7.92559	-5.948135	0	0
21.49257	0.02599414	0.2144461	0.3750924	0.258823	3.97659	2.785472	0	0
21.50909	0.03480173	0.2204715	0.5333464	0.3648685	4.77639	3.200642	0	0
21.52565	0.04370899	0.2266006	0.537643	0.3699524	0.129881	0.1536807	0	0
21.54222	0.05008965	0.2312531	0.3851373	0.2808264	-4.602629	-2.689829	0	0
21.55879	0.05431494	0.2343595	0.2550395	0.1875045	-3.926359	-2.816459	0	0
21.57536	0.06283821	0.2402286	0.5144654	0.3542563	7.829488	5.032579	0	0
21.59215	0.06910034	0.2444444	0.3729164	0.2510551	-4.243134	-3.093605	0	0
21.60849	0.07014787	0.2451618	0.06410773	0.04390484	-9.320401	-6.252167	0	0
21.66121	0.07101198	0.2455026	0.0163907	0.006463685	-0.6909566	-0.542159	0	0
21.67777	0.07101198	0.2454308	0	-0.004329884	-0.2365647	-0.1557821	0	0
21.69472	0.07098579	0.2453053	-0.001545528	-0.00740886	-0.04611848	-0.09187649	0	0
21.71091	0.07093342	0.2450901	-0.003234345	-0.01329358	-0.05096862	-0.1776013	0	0
21.72774	0.07090724	0.2448928	-0.001555242	-0.01171963	0.05084521	0.04766101	0	0
21.76061	0.07012168	0.244283	-0.02390223	-0.01855486	-0.4496396	-0.1375302	0	0
21.79379	0.06923129	0.2436731	-0.02683515	-0.01837976	-0.0444073	0.002651077	0	0
21.81031	0.0692051	0.2436552	-0.001585321	-0.001086047	0.508047	0.3479636	0	0
21.82688	0.0691789	0.2436372	-0.001581208	-0.001082921	0.0001243116	9.447484E-05	0	0
21.84344	0.06915271	0.2436193	-0.001580759	-0.001082921	1.357235E-05	0	0	0
21.86034	0.06907415	0.2435655	-0.004650193	-0.003184798	-0.09172752	-0.06281286	0	0
21.87658	0.06904795	0.2435475	-0.001613152	-0.001104798	0.09165808	0.06277452	0	0
21.89336	0.06904795	0.2435475	0	0	0.04885093	0.0334565	0	0
21.90987	0.06902176	0.2435296	-0.001585871	-0.001085521	-0.04762863	-0.03260156	0	0
21.92639	0.06902176	0.2435296	0	0	0.04801923	0.03286893	0	0
21.9429	0.06902176	0.2434937	0	-0.002173097	0	-0.06580389	0	0
21.95941	0.06902176	0.2434937	0	0	0	0.06580009	0	0
21.97598	0.06902176	0.2434937	0	0	0	0	0	0
21.99255	0.06902176	0.2434937	0	0	0	0	0	0
22.00911	0.06902176	0.2434937	0	0	0	0	0	0
22.02596	0.06902176	0.2434937	0	0	0	0	0	0
22.04247	0.06902176	0.2434937	0	0	0	0	0	0
22.05898	0.06902176	0.2434937	0	0	0	0	0	0
22.0755	0.06902176	0.2434937	0	0	0	0	0	0
22.09201	0.06902176	0.2434937	0	0	0	0	0	0
22.10852	0.06902176	0.2434937	0	0	0	0	0	0
22.12508	0.06902176	0.2434937	0	0	0	0	0	0
22.14165	0.06902176	0.2434937	0	0	0	0	0	0
22.15822	0.06902176	0.2434937	0	0	0	0	0	0
22.17507	0.06899557	0.2434758	-0.001554275	-0.001064778	-0.04651187	-0.0318636	0	0
22.19135	0.06902176	0.2434579	0.00160816	-0.001100777	0.09544249	-0.001086462	0	0
22.20809	0.06899557	0.2434399	-0.001564191	-0.001071571	-0.09605137	0.0008843013	0	0
22.22448	0.06899557	0.2434399	0	0	0.0472101	0.03234194	0	0
22.24105	0.06899557	0.2434399	0	0	0	0	0	0
22.25762	0.06902176	0.243422	0.001580213	-0.001082547	0.04768268	-0.03266569	0	0
22.27419	0.06902176	0.243422	0	0	-0.04769091	0.03267133	0	0
22.29075	0.06902176	0.243422	0	0	0	0	0	0
22.30732	0.06902176	0.243422	0	0	0	0	0	0
22.32388	0.06899557	0.243404	-0.001580759	-0.001082921	-0.04771014	-0.0326845	0	0
22.34069	0.06902176	0.2433861	0.001558156	-0.001067436	0.09405047	0.0004639551	0	0
22.3572	0.06902176	0.2433502	0	-0.002173199	-0.04677483	-0.03319427	0	0
22.37371	0.06902176	0.2433502	0	0	0	0.06581838	0	0
22.39015	0.06902176	0.2433502	0	0	0	0	0	0
22.40672	0.06902176	0.2433502	0	0	0	0	0	0
22.42329	0.06902176	0.2433502	0	0	0	0	0	0
22.43985	0.06904795	0.2433323	0.001580941	-0.001083045	0.04771563	-0.03268826	0	0
22.45642	0.06904795	0.2433323	0	0	-0.04771563	0.03268826	0	0
22.47298	0.06902176	0.2433144	-0.001580941	-0.001083045	-0.04771563	-0.03268826	0	0
22.48955	0.06902176	0.2433144	0	0	0.04771838	0.03269014	0	0
22.5063	0.06902176	0.2433144	0	0	0	0	0	0
22.54182	0.06904795	0.2432964	0.0007372855	-0.0005050878	0.01410406	-0.009662184	0	0
22.55791	0.06904795	0.2432964	0	0	-0.01428809	0.009788255	0	0
22.57485	0.06904795	0.2432964	0	0	0	0	0	0
22.59104	0.06904795	0.2432964	0	0	0	0	0	0
22.6076	0.06904795	0.2432964	0	0	0	0	0	0
22.62417	0.06904795	0.2432964	0	0	0	0	0	0
22.64074	0.06904795	0.2432964	0	0	0	0	0	0
22.6573	0.06904795	0.2432964	0	0	0	0	0	0
22.67387	0.06904795	0.2432964	0	0	0	0	0	0
22.69044	0.06904795	0.2432964	0	0	0	0	0	0
22.70745	0.06904795	0.2432964	0	0	0	0	0	0
22.72357	0.06904795	0.2432605	0	-0.002224354	0	-0.067135	0	0
22.74014	0.06904795	0.2432605	0	0	0	0.06803979	0	0
22.82023	0.06907415	0.2432426	0.0003270557	-0.0002239903	0.003383413	-0.002317195	0	0
22.85354	0.06907415	0.2432426	0	0	-0.002883907	0.001975099	0	0
22.87006	0.06907415	0.2432426	0	0	0	0	0	0
22.88657	0.06904795	0.2432247	-0.001586688	-0.001086674	-0.04804677	-0.03290575	0	0
22.90307	0.06904795	0.2432247	0	0	0.0480662	0.03291906	0	0
22.91964	0.06904795	0.2432247	0	0	0	0	0	0
22.9362	0.06907415	0.2432067	0.00158139	-0.001083045	0.0477292	-0.03268826	0	0
22.9859	0.06907415	0.2432067	0	0	-0.02386391	0.01634366	0	0
23.00247	0.06902176	0.2432426	-0.003161967	0.002165842	-0.04771417	0.03268262	0	0
23.01904	0.06873366	0.2435475	-0.01738969	0.01840606	-0.4293936	0.4901307	0	0
23.0356	0.06792168	0.2443547	-0.04901161	0.04872064	-0.9543514	0.9148961	0	0
23.05217	0.06194695	0.2499135	-0.3606349	0.3355319	-9.404809	8.65598	0	0
23.06874	0.05591534	0.256079	-0.3640692	0.3721452	-0.1036465	1.104992	0	0
23.08531	0.04236937	0.2793528	-0.8176364	1.404809	-13.68869	31.16586	0	0
23.10187	0.03882259	0.2909234	-0.214084	0.6984029	18.21525	-21.31938	0	0
23.11874	0.0343549	0.3156188	-0.2649424	1.464487	-1.521336	22.916	0	0
23.13501	0.03209424	0.3336568	-0.1389166	1.10843	3.803247	-10.74521	0	0
23.15158	0.02980696	0.3498178	-0.1380765	0.9755883	0.025582	-4.045264	0	0
23.16814	0.02654639	0.3668924	-0.196808	1.030624	-1.772623	1.661077	0	0
23.18471	0.02349568	0.3774694	-0.1841417	0.6384322	0.3822701	-11.83637	0	0
23.2013	0.01949753	0.3903751	-0.2410234	0.7780054	-1.715607	4.209661	0	0
23.21831	0.01668266	0.3994785	-0.1654485	0.5350669	2.249135	-7.229932	0	0
23.23441	0.01436743	0.4049537	-0.1438207	0.3401159	0.6531786	-5.8877	0	0
23.25098	0.009183953	0.415785	-0.3128754	0.6537747	-5.175368	9.602217	0	0
23.26754	0.00634202	0.4190451	-0.1715394	0.1967804	4.265532	-13.79212	0	0
23.28411	0	0.4233633	-0.3828051	0.2606511	-6.376013	1.927622	0	0
23.30087	-0.003526301	0.4257651	-0.2104254	0.1433193	5.172655	-3.520815	0	0
23.31738	-0.004789437	0.4266255	-0.07649845	0.05211101	4.02547	-2.741467	0	0
23.36694	-0.00931552	0.4297452	-0.09132079	0.06294497	-0.2243281	0.1639662	0	0
23.41745	-0.009262893	0.4297094	0.001041968	-0.0007098518	0.9229903	-0.6361091	0	0
23.43321	-0.009210266	0.4296735	0.003339603	-0.0022751	0.03467337	-0.023621	0	0
23.44978	-0.008947129	0.4294942	0.01588297	-0.01082381	0.3880302	-0.2644552	0	0
23.46648	-0.008315598	0.429028	0.03779732	-0.02790383	0.658571	-0.5132893	0	0
23.483	-0.008315598	0.429028	0	0	-1.137778	0.8399633	0	0
23.49951	-0.008315598	0.429028	0	0	0	0	0	0
23.53319	-0.007973515	0.4287949	0.01015512	-0.006919377	0.2023029	-0.1378428	0	0
23.55004	-0.00781563	0.4286873	0.009370313	-0.006385131	-0.01552994	0.01057176	0	0
23.56633	-0.00781563	0.4286873	0	0	-0.2827966	0.1927036	0	0
23.5829	-0.007763002	0.4287232	0.003176639	0.002164043	0.09669494	0.06587213	0	0
23.59946	-0.007657745	0.4287949	0.006353334	0.004329884	0.09587285	0.06536523	0	0
23.61603	-0.007447231	0.4289383	0.01270667	0.00865797	0.191744	0.1306219	0	0
23.6326	-0.00547363	0.4301756	0.1190857	0.07465617	3.20997	1.991486	0	0
23.64916	-0.00347367	0.431431	0.1207734	0.07580879	0.05093889	0.03478791	0	0
23.66573	0.01320976	0.440941	1.007014	0.5740254	26.75295	15.03967	0	0
23.6823	0.02383759	0.4449272	0.6414971	0.2406117	-11.03131	-10.06245	0	0
23.69886	0.02980696	0.447424	0.3603119	0.1507059	-8.486188	-2.713363	0	0
23.71543	0.04171263	0.4497778	0.7187108	0.1420895	10.81712	-0.260059	0	0
23.73218	0.04893459	0.4503708	0.4312509	0.03541251	-8.629359	-3.202373	0	0
23.74869	0.0558104	0.4484661	0.4164635	-0.115368	-0.4446458	-4.53386	0	0
23.7652	0.06095073	0.4476756	0.311238	-0.04786566	-3.186167	2.04393	0	0
23.7817	0.0656686	0.4445501	0.2859895	-0.1894601	-0.764818	-4.289131	0	0
23.79826	0.06690001	0.443706	0.07433704	-0.05095351	-6.401688	4.189302	0	0
23.81483	0.0670572	0.4435983	0.009488792	-0.00650367	-1.957349	1.341653	0	0
23.8314	0.06721438	0.4434905	0.009486607	-0.006503971	-6.593989E-05	-9.092734E-06	0	0
23.84797	0.06910034	0.4421977	0.1138362	-0.07803506	3.149096	-2.158688	0	0
23.86453	0.07200687	0.4402049	0.1754386	-0.1202834	1.859163	-1.275056	0	0
23.8811	0.07232102	0.4399896	0.01896454	-0.01300194	-4.722667	3.237946	0	0
23.89767	0.07242573	0.4399177	0.006320336	-0.004335281	-0.3816248	0.2615755	0	0
23.91423	0.07242573	0.4399177	0	0	-0.1907481	0.130839	0	0
23.9308	0.07242573	0.4399177	0	0	0	0	0	0
23.94736	0.07242573	0.4399177	0	0	0	0	0	0
23.96393	0.07242573	0.4399177	0	0	0	0	0	0
23.9805	0.07242573	0.4399177	0	0	0	0	0	0
23.99736	0.07242573	0.4399177	0	0	0	0	0	0
24.01363	0.07242573	0.4398819	0	-0.002205451	0	-0.06656065	0	0
24.0302	0.07242573	0.4398819	0	0	0	0.06716378	0	0
24.04677	0.07247809	0.4398459	0.003160168	-0.00216764	0.09537406	-0.06541952	0	0
24.06341	0.07250426	0.4397921	0.001572617	-0.003235661	-0.04780231	-0.03215887	0	0
24.07992	0.07263515	0.4397024	0.007926196	-0.005433919	0.191619	-0.06629778	0	0
24.09647	0.07266133	0.4396844	0.001582227	-0.001086346	-0.1919143	0.1315205	0	0
24.11303	0.07268751	0.4396665	0.001580309	-0.001082921	-5.794103E-05	0.0001034352	0	0
24.1296	0.07271368	0.4396485	0.001579859	-0.001082921	-1.357235E-05	0	0	0
24.14617	0.07268751	0.4396305	-0.001579859	-0.00108472	-0.09536048	-5.428939E-05	0	0
24.16273	0.07268751	0.4396305	0	0	0.04768024	0.0327369	0	0
24.1793	0.07268751	0.4396305	0	0	0	0	0	0
24.196	0.07266133	0.4396126	-0.001567317	-0.001074018	-0.04710919	-0.03228199	0	0
24.21243	0.07266133	0.4396126	0	0	0.04730444	0.0324158	0	0
24.22903	0.07266133	0.4396126	0	0	0	0	0	0
24.24557	0.07266133	0.4396126	0	0	0	0	0	0
24.26214	0.07266133	0.4396126	0	0	0	0	0	0
24.2787	0.07263515	0.4395947	-0.001580041	-0.001083045	-0.04768573	-0.03268638	0	0
24.29558	0.07260897	0.4395767	-0.001551375	-0.001063093	0.000857211	0.0005966288	0	0
24.31183	0.0725828	0.4395587	-0.001610073	-0.001105465	-0.001771639	-0.001278843	0	0
24.34497	0.07253044	0.4395229	-0.001580175	-0.001082983	0.000605371	0.0004551944	0	0
24.36162	0.07250426	0.4395049	-0.001571804	-0.001078882	0.0001681296	8.237315E-05	0	0
24.37814	0.07242573	0.4394152	-0.004755906	-0.005434547	-0.09599692	-0.1313182	0	0
24.39467	0.0722163	0.4391639	-0.01266737	-0.01519958	-0.2394163	-0.295509	0	0
24.41124	0.07161416	0.4386793	-0.0363453	-0.02924966	-0.7153426	-0.4244718	0	0
24.4278	0.07075013	0.4380152	-0.05215289	-0.04008246	-0.4770739	-0.3269348	0	0
24.44437	0.07040973	0.4374948	-0.02054671	-0.0314137	0.9538763	0.2616239	0	0
24.4612	0.06965031	0.4367231	-0.0451322	-0.04585836	-0.7362277	-0.4325546	0	0
24.47771	0.06268094	0.4295121	-0.4220812	-0.4367167	-11.3067	-11.72392	0	0
24.49407	0.06021659	0.418221	-0.1506213	-0.6901139	8.2578	-7.708333	0	0
24.51073	0.06068854	0.4030747	0.02832736	-0.9091013	5.419086	-6.631576	0	0
24.52724	0.06249745	0.3798462	0.1095517	-1.406772	2.448535	-15.00245	0	0
24.54377	0.06404387	0.3611764	0.09356855	-1.129647	-0.4837634	8.387784	0	0
24.56034	0.06535416	0.3359604	0.07908919	-1.522036	-0.4375167	-11.85667	0	0
24.5769	0.06545898	0.3298174	0.006326632	-0.3707924	-2.195979	34.7446	0	0
24.59347	0.06469905	0.3064722	-0.04586943	-1.409123	-1.57528	-31.33687	0	0
24.62661	0.06150129	0.2716765	-0.09650846	-1.050136	-1.018859	7.222823	0	0
24.64333	0.06029525	0.2687052	-0.07212438	-0.1776923	0.4890882	17.49921	0	0
24.65984	0.05499712	0.2577811	-0.3208671	-0.6615889	-7.484664	-14.56045	0	0
24.67635	0.04914461	0.2541437	-0.3544415	-0.2202896	-1.016674	13.36306	0	0
24.69287	0.04223802	0.2493936	-0.4180373	-0.2875058	-1.925198	-2.034797	0	0
24.70944	0.03745616	0.2461302	-0.2886339	-0.1969792	3.910805	2.735879	0	0
24.72601	0.03269887	0.242848	-0.2871507	-0.1981187	0.04476222	-0.03439308	0	0
24.74257	0.02875523	0.2401568	-0.2380384	-0.1624372	1.482213	1.076871	0	0
24.75914	0.02804528	0.2396365	-0.0428479	-0.03140648	5.890522	3.954288	0	0
24.77571	0.02804528	0.2396365	0	0	1.293152	0.9478496	0	0
24.79243	0.02804528	0.2396365	0	0	0	0	0	0
24.80895	0.02804528	0.2396365	0	0	0	0	0	0
24.82546	0.02804528	0.2396365	0	0	0	0	0	0
24.84197	0.02804528	0.2396365	0	0	0	0	0	0
24.89167	0.02807157	0.2396185	0.000529076	-0.0003609874	0.007989981	-0.005451548	0	0
24.90824	0.02807157	0.2396185	0	0	-0.007984002	0.005447468	0	0
24.92481	0.02809787	0.2396006	0.001587167	-0.001082921	0.0479008	-0.03268262	0	0
24.94138	0.02809787	0.2396006	0	0	-0.0479008	0.03268262	0	0
24.95805	0.02807157	0.2395826	-0.001576819	-0.001075861	-0.04743287	-0.03236335	0	0
24.97456	0.02807157	0.2395826	0	0	0.04751193	0.03241729	0	0
24.99107	0.02807157	0.2395826	0	0	0	0	0	0
25.00764	0.02807157	0.2395826	0	0	0	0	0	0
25.02421	0.02807157	0.2395826	0	0	0	0	0	0
25.04078	0.02807157	0.2395826	0	0	0	0	0	0
25.05734	0.02807157	0.2395826	0	0	0	0	0	0
25.07391	0.02807157	0.2395826	0	0	0	0	0	0
25.09065	0.02807157	0.2395826	0	0	0	0	0	0
25.15675	0.02807157	0.2395826	0	0	0	0	0	0
25.17331	0.02807157	0.2395826	0	0	0	0	0	0
25.18988	0.02807157	0.2395826	0	0	0	0	0	0
25.20645	0.02807157	0.2395826	0	0	0	0	0	0
25.22324	0.02807157	0.2395467	0	-0.002136972	0	-0.06405516	0	0
25.23958	0.02807157	0.2395467	0	0	0	0.06449766	0	0
25.25627	0.02807157	0.2395467	0	0	0	0	0	0
25.27271	0.02807157	0.2395467	0	0	0	0	0	0
25.28929	0.02804528	0.2395288	-0.001586071	-0.001082173	-0.04802808	-0.03276946	0	0
25.30585	0.02804528	0.2395288	0	0	0.04787324	0.03266381	0	0
25.33898	0.02804528	0.2395288	0	0	0	0	0	0
25.35555	0.02804528	0.2395288	0	0	0	0	0	0
25.37211	0.02804528	0.2395288	0	0	0	0	0	0
25.38868	0.02801898	0.2395467	-0.001587167	0.001082921	-0.0479008	0.03268262	0	0
25.40538	0.02801898	0.2395467	0	0	0.04771129	-0.03255332	0	0
25.42181	0.02801898	0.2395467	0	0	0	0	0	0
25.43838	0.02801898	0.2395467	0	0	0	0	0	0
25.45541	0.02804528	0.2395288	0.0015438	-0.001053331	0.04594662	-0.03134929	0	0
25.47152	0.02804528	0.2395288	0	0	-0.04659197	0.0317896	0	0
25.48808	0.02801898	0.2395108	-0.001587167	-0.001082921	-0.04858318	-0.0331482	0	0
25.50494	0.02799269	0.2394929	-0.001559517	-0.001064055	0.0008271402	0.0005643541	0	0
25.52122	0.02780862	0.2393673	-0.01131214	-0.007720007	-0.2943518	-0.2008886	0	0
25.53778	0.0241006	0.2368368	-0.2238168	-0.1527404	-6.47114	-4.416127	0	0
25.55435	0.01952383	0.2337132	-0.2762857	-0.1885633	-1.583606	-1.081198	0	0
25.57092	0.01789283	0.2326359	-0.09844787	-0.06502742	5.367465	3.728534	0	0
25.60405	0.008894502	0.2264569	-0.27157	-0.1864832	-3.483224	-2.443695	0	0
25.62062	0.007394602	0.2254326	-0.09053415	-0.06182272	3.642448	2.508173	0	0
25.63718	0.007420917	0.2254506	0.001588347	0.00108382	2.780262	1.898523	0	0
25.65375	0.007420917	0.2254506	0	0	-0.04793642	-0.03270976	0	0
25.67032	0.007420917	0.2254506	0	0	0	0	0	0
25.68689	0.007420917	0.2254506	0	0	0	0	0	0
25.70345	0.007420917	0.2254506	0	0	0	0	0	0
25.72002	0.007447231	0.2254685	0.001588319	0.00108472	0.04793558	0.0327369	0	0
25.73659	0.007447231	0.2254685	0	0	-0.04793834	-0.03273879	0	0
25.75315	0.007447231	0.2254685	0	0	0	0	0	0
25.76972	0.007447231	0.2254685	0	0	0	0	0	0
25.78629	0.007447231	0.2254685	0	0	0	0	0	0
25.80285	0.007447231	0.2254685	0	0	0	0	0	0
25.81942	0.007420917	0.2254865	-0.001588319	0.00108472	-0.04793558	0.0327369	0	0
25.83599	0.007420917	0.2254865	0	0	0.04793558	-0.0327369	0	0
25.85255	0.007420917	0.2254865	0	0	0	0	0	0
25.86912	0.007420917	0.2254865	0	0	0	0	0	0
25.88572	0.007420917	0.2254865	0	0	0	0	0	0
25.90226	0.007420917	0.2254865	0	0	0	0	0	0
25.91882	0.007420917	0.2254865	0	0	0	0	0	0
26.01831	0.007420917	0.2254865	0	0	0	0	0	0
26.03482	0.007420917	0.2254865	0	0	0	0	0	0
26.05135	0.007420917	0.2254865	0	0	0	0	0	0
26.06792	0.007420917	0.2254865	0	0	0	0	0	0
26.08486	0.007420917	0.2254865	0	0	0	0	0	0
26.10137	0.007420917	0.2254865	0	0	0	0	0	0
26.11762	0.007420917	0.2254865	0	0	0	0	0	0
26.13419	0.007420917	0.2254865	0	0	0	0	0	0
26.15091	0.007420917	0.2254865	0	0	0	0	0	0
26.16732	0.007420917	0.2254865	0	0	0	0	0	0
26.18389	0.007420917	0.2254865	0	0	0	0	0	0
26.20045	0.007420917	0.2254865	0	0	0	0	0	0
26.21702	0.007420917	0.2254865	0	0	0	0	0	0
26.25312	0.007420917	0.2254865	0	0	0	0	0	0
26.26969	0.007420917	0.2254865	0	0	0	0	0	0
26.28626	0.007420917	0.2254865	0	0	0	0	0	0
26.30282	0.007420917	0.2254865	0	0	0	0	0	0
26.31939	0.007420917	0.2254865	0	0	0	0	0	0
26.33596	0.007420917	0.2254865	0	0	0	0	0	0
26.35253	0.007447231	0.2254685	0.001588319	-0.00108472	0.04793558	-0.0327369	0	0
26.36909	0.007447231	0.2254685	0	0	-0.04793558	0.0327369	0	0
26.38566	0.007447231	0.2254685	0	0	0	0	0	0
26.40223	0.007447231	0.2254685	0	0	0	0	0	0
26.41879	0.007447231	0.2254685	0	0	0	0	0	0
26.43536	0.007447231	0.2254685	0	0	0	0	0	0
26.45193	0.007447231	0.2254685	0	0	0	0	0	0
26.46849	0.007447231	0.2254685	0	0	0	0	0	0
26.48515	0.007447231	0.2254685	0	0	0	0	0	0
26.52067	0.007447231	0.2254685	0	0	0	0	0	0
26.53686	0.007447231	0.2254685	0	0	0	0	0	0
26.55343	0.007447231	0.2254685	0	0	0	0	0	0
26.57	0.007447231	0.2254685	0	0	0	0	0	0
26.58657	0.007447231	0.2254685	0	0	0	0	0	0
26.60313	0.007447231	0.2254685	0	0	0	0	0	0
26.61975	0.007447231	0.2254685	0	0	0	0	0	0
26.63627	0.007447231	0.2254685	0	0	0	0	0	0
26.65283	0.007447231	0.2254685	0	0	0	0	0	0
26.6694	0.007447231	0.2254685	0	0	0	0	0	0
26.68597	0.007447231	0.2254685	0	0	0	0	0	0
26.70254	0.007447231	0.2254685	0	0	0	0	0	0
26.7191	0.007447231	0.2254685	0	0	0	0	0	0
26.73567	0.007447231	0.2254685	0	0	0	0	0	0
26.81889	0.007447231	0.2254685	0	0	0	0	0	0
26.83507	0.007447231	0.2254685	0	0	0	0	0	0
26.90245	0.007447231	0.2254685	0	0	0	0	0	0
26.91897	0.007447231	0.2254685	0	0	0	0	0	0
26.93554	0.007447231	0.2254685	0	0	0	0	0	0
26.9521	0.007447231	0.2254685	0	0	0	0	0	0
26.96867	0.007447231	0.2254685	0	0	0	0	0	0
26.98524	0.007447231	0.2254685	0	0	0	0	0	0
27.00181	0.007447231	0.2254685	0	0	0	0	0	0
27.01837	0.007447231	0.2254685	0	0	0	0	0	0
27.03494	0.007447231	0.2254685	0	0	0	0	0	0
27.05151	0.007447231	0.2254685	0	0	0	0	0	0
27.06808	0.007447231	0.2254685	0	0	0	0	0	0
27.08464	0.007447231	0.2254685	0	0	0	0	0	0
27.10121	0.007447231	0.2254685	0	0	0	0	0	0
27.11777	0.007447231	0.2254685	0	0	0	0	0	0
27.13434	0.007447231	0.2254685	0	0	0	0	0	0
27.15091	0.007447231	0.2254685	0	0	0	0	0	0
27.16748	0.007447231	0.2254685	0	0	0	0	0	0
27.18404	0.007447231	0.2254685	0	0	0	0	0	0
27.20061	0.007447231	0.2254685	0	0	0	0	0	0
27.23374	0.007447231	0.2254685	0	0	0	0	0	0
27.25031	0.007447231	0.2254685	0	0	0	0	0	0
27.26688	0.007447231	0.2254685	0	0	0	0	0	0
27.28344	0.007447231	0.2254685	0	0	0	0	0	0
27.30024	0.007447231	0.2254685	0	0	0	0	0	0
27.31658	0.007447231	0.2254685	0	0	0	0	0	0
27.33326	0.007447231	0.2254685	0	0	0	0	0	0
27.34971	0.007447231	0.2254326	0	-0.002184383	0	-0.06592862	0	0
27.36628	0.007578802	0.2253428	0.007938026	-0.005421102	0.2403865	-0.09801726	0	0
27.38284	0.01168368	0.2221794	0.2479136	-0.1910485	7.242893	-5.602569	0	0
27.39941	0.01957645	0.214734	0.4764084	-0.4494067	6.897974	-7.799512	0	0
27.41598	0.02389019	0.2001476	0.2603782	-0.880438	-6.519806	-13.00855	0	0
27.43254	0.02562597	0.1723722	0.1047717	-1.676526	-4.696212	-24.02598	0	0
27.44911	0.02612563	0.1494014	0.03015988	-1.386523	-2.251789	8.752316	0	0
27.46568	0.02638861	0.1267573	0.01587324	-1.366801	-0.4311716	0.5952071	0	0
27.48224	0.02636231	0.09966756	-0.001587279	-1.635138	-0.5269597	-8.09842	0	0
27.49888	0.0265201	0.08787565	0.009484592	-0.7088236	0.3334587	27.8984	0	0
27.59845	0.01941861	0.02269163	-0.07132066	-0.6546471	-0.6953554	0.4662064	0	0
27.61478	0.01473578	0.01745194	-0.2868172	-0.3209238	-1.859362	2.879454	0	0
27.63135	0.01163105	0.01524144	-0.1874013	-0.1334261	3.022299	5.700034	0	0
27.66448	-0.0002368421	0.006629501	-0.3581738	-0.2599088	-3.43595	-2.544837	0	0
27.68105	-0.005815724	0.002268333	-0.336742	-0.2632407	0.43121	-0.06703735	0	0
27.69761	-0.01181524	-0.004208703	-0.3621732	-0.3909996	-0.7675607	-3.855996	0	0
27.71418	-0.01197311	-0.008508634	-0.009529185	-0.2595443	10.64343	3.967557	0	0
27.73075	-0.01055224	-0.01459104	0.08576402	-0.3671349	2.875955	-3.24709	0	0
27.74731	-0.004210501	-0.01952967	0.3827881	-0.298096	8.964203	2.083598	0	0
27.76407	0.001289473	-0.02348991	0.328238	-0.236347	-1.636996	1.853029	0	0
27.78058	0.002999991	-0.02472259	0.1035929	-0.07465362	-6.752592	4.860332	0	0
27.79702	0.005710464	-0.0266769	0.1649337	-0.1189209	1.861878	-1.343645	0	0
27.81361	0.00634202	-0.02713245	0.03806382	-0.02745601	-3.841545	2.769502	0	0
27.83015	0.00634202	-0.02713245	0	0	-1.148834	0.8286718	0	0
27.86328	0.00634202	-0.02713245	0	0	0	0	0	0
27.87985	0.00634202	-0.02713245	0	0	0	0	0	0
27.89642	0.00634202	-0.02713245	0	0	0	0	0	0
27.91298	0.00634202	-0.02713245	0	0	0	0	0	0
27.92969	0.00634202	-0.02713245	0	0	0	0	0	0
27.9462	0.00634202	-0.02713245	0	0	0	0	0	0
27.96272	0.00634202	-0.02713245	0	0	0	0	0	0
27.97973	0.00634202	-0.02713245	0	0	0	0	0	0
27.99582	0.00634202	-0.02713245	0	0	0	0	0	0
28.01239	0.00634202	-0.02713245	0	0	0	0	0	0
28.02895	0.00634202	-0.02713245	0	0	0	0	0	0
28.04552	0.00634202	-0.02713245	0	0	0	0	0	0
28.06209	0.00634202	-0.02713245	0	0	0	0	0	0
28.07866	0.00634202	-0.02713245	0	0	0	0	0	0
28.09531	0.00634202	-0.02713245	0	0	0	0	0	0
28.11182	0.00634202	-0.02713245	0	0	0	0	0	0
28.14492	0.00634202	-0.02713245	0	0	0	0	0	0
28.16149	0.00634202	-0.02713245	0	0	0	0	0	0
28.17806	0.00634202	-0.02713245	0	0	0	0	0	0
28.19462	0.00634202	-0.02713245	0	0	0	0	0	0
28.22796	0.00634202	-0.02713245	0	0	0	0	0	0
28.24453	0.00634202	-0.02713245	0	0	0	0	0	0
28.2611	0.006315705	-0.02711347	-0.001588376	0.001145769	-0.04793727	0.03457937	0	0
28.27766	0.006289391	-0.02701856	-0.001588347	0.005728845	8.50248E-07	0.1383175	0	0
28.29445	0.006368335	-0.02680976	0.004701739	0.01243539	0.1885652	0.2010499	0	0
28.31096	0.006499908	-0.02629733	0.007969319	0.0310379	0.09812436	0.5586272	0	0
28.34393	0.005605204	-0.02500712	-0.02714127	0.03913901	-0.7096673	0.1637423	0	0
28.3605	0.005184164	-0.02470362	-0.02540819	0.01831504	0.03498644	-0.4203825	0	0
28.37706	0.005210479	-0.02472259	0.001588924	-0.001145265	0.8148214	-0.587347	0	0
28.39363	0.005236794	-0.02474155	0.001588376	-0.001144869	-1.656513E-05	1.193715E-05	0	0
28.4102	0.005263109	-0.02476052	0.001588376	-0.001144982	0	-3.390452E-06	0	0
28.42676	0.005263109	-0.02476052	0	0	-0.04793727	0.03455562	0	0
28.44333	0.005315739	-0.02479846	0.003176751	-0.002289851	0.09587455	-0.06910785	0	0
28.4599	0.005342055	-0.02481743	0.001588404	-0.001144869	-0.04793642	0.03455562	0	0
28.47647	0.005394685	-0.02485537	0.003176751	-0.002289964	0.04793642	-0.03455901	0	0
28.49303	0.005421	-0.02487434	0.001588376	-0.001144982	-0.04793727	0.03455562	0	0
28.50961	0.00547363	-0.02491227	0.003174924	-0.002288534	0.04786833	-0.03450254	0	0
28.52617	0.005499945	-0.02493124	0.001589474	-0.001145773	-0.04785173	0.03449057	0	0
28.54273	0.00552626	-0.02495021	0.001588376	-0.001145094	-3.314653E-05	2.050087E-05	0	0
28.5593	0.00552626	-0.02495021	0	0	-0.04793727	0.03455902	0	0
28.57616	0.00552626	-0.02495021	0	0	0	0	0	0
28.59267	0.00552626	-0.02495021	0	0	0	0	0	0
28.609	0.00552626	-0.02495021	0	0	0	0	0	0
28.62569	0.00552626	-0.02498815	0	-0.002272695	0	-0.06881984	0	0
28.6422	0.00552626	-0.02498815	0	0	0	0.06844429	0	0
28.65872	0.00552626	-0.02498815	0	0	0	0	0	0
28.67527	0.00552626	-0.02498815	0	0	0	0	0	0
28.69183	0.00552626	-0.02498815	0	0	0	0	0	0
28.70876	0.00552626	-0.02498815	0	0	0	0	0	0
28.72497	0.005552575	-0.02500712	0.001623897	-0.001170588	0.04901214	-0.03533044	0	0
28.74153	0.00557889	-0.02502609	0.001588376	-0.001144982	-0.001083898	0.0007813296	0	0
28.7581	0.005631519	-0.02506403	0.003176386	-0.002289813	0.04792348	-0.03454907	0	0
28.77467	0.005684149	-0.02510197	0.003177117	-0.00229034	2.207834E-05	-1.59158E-05	0	0
28.79123	0.005710464	-0.02515888	0.001588376	-0.003435171	-0.04795107	-0.03455304	0	0
28.8078	0.005736779	-0.02517785	0.001588347	-0.001145094	-8.50248E-07	0.06911463	0	0
28.82437	0.005815724	-0.02523476	0.004765127	-0.003435283	0.0958754	-0.06911804	0	0
28.84094	0.005842039	-0.02525374	0.001588376	-0.001145094	-0.09587454	0.06911804	0	0
28.8575	0.005894668	-0.02529168	0.003176723	-0.002290189	0.04793642	-0.03455902	0	0
28.87407	0.005973613	-0.02534859	0.004765127	-0.003435395	0.04793812	-0.03456241	0	0
28.89088	0.005999928	-0.02536756	0.001565281	-0.001128465	-0.09586519	0.06911406	0	0
28.9072	0.006026243	-0.02538654	0.001612321	-0.001162471	0.001419753	-0.001026372	0	0
28.92377	0.006026243	-0.02538654	0	0	-0.04902399	0.03534592	0	0
28.94034	0.006026243	-0.02538654	0	0	0	0	0	0
28.95693	0.006026243	-0.02538654	0	0	0	0	0	0
28.97347	0.006026243	-0.02538654	0	0	0	0	0	0
29.03974	0.006026243	-0.02538654	0	0	0	0	0	0
29.05631	0.006026243	-0.02538654	0	0	0	0	0	0
29.07287	0.005999928	-0.02536756	-0.001588559	0.001145339	-0.04794555	0.03456838	0	0
29.08953	0.005999928	-0.02536756	0	0	0.04782167	-0.03447906	0	0
29.10601	0.005499945	-0.02477949	-0.03033622	0.03568098	-0.9155489	1.076854	0	0
29.12258	0.004526285	-0.02233354	-0.05875668	0.1476041	-0.8598596	3.386229	0	0
29.15694	-0.001578946	0.009915468	-0.1776895	0.9385903	-2.335221	15.53084	0	0
29.1735	-0.002894729	0.03389375	-0.0794208	1.447332	1.92963	9.98978	0	0
29.1901	-0.003421039	0.06334428	-0.0317207	1.774981	1.438515	9.881083	0	0
29.20664	-0.003026307	0.09630945	0.02386458	1.992994	1.677663	6.580011	0	0
29.22321	-0.001289473	0.1298574	0.1047993	2.024258	2.444162	0.9441636	0	0
29.24014	0.002394732	0.169458	0.2176433	2.339395	3.368411	9.406883	0	0
29.25634	0.004631546	0.1856777	0.1380662	1.001154	-2.402057	-40.39517	0	0
29.2729	0.01034174	0.2096048	0.3447075	1.444405	6.30651	13.52762	0	0
29.28947	0.01660374	0.2211188	0.3778881	0.694826	1.001336	-22.62103	0	0
29.32261	0.03648381	0.2418792	0.6000507	0.6266241	4.469919	-1.372225	0	0
29.33917	0.04150247	0.2452694	0.3029622	0.204656	-5.978121	-8.490993	0	0
29.35574	0.04756935	0.2494116	0.3661974	0.2500207	1.908554	1.369187	0	0
29.3723	0.05134956	0.2519571	0.2282001	0.1536656	-4.165008	-2.908169	0	0
29.38924	0.05150703	0.2521005	0.009298626	0.008466255	-6.534242	-4.334222	0	0
29.40544	0.05145454	0.2521722	-0.00324049	0.004426439	-0.3784313	-0.1219219	0	0
29.422	0.05140205	0.252208	-0.003168628	0.002164292	0.002193314	-0.06904277	0	0
29.43857	0.05134956	0.2522439	-0.003168488	0.002164043	4.223376E-06	-7.519155E-06	0	0
29.45514	0.05134956	0.2522439	0	0	0.09562515	-0.06531094	0	0
29.4717	0.05134956	0.2522439	0	0	0	0	0	0
29.48827	0.05132331	0.2522259	-0.001584539	-0.001083045	-0.04782423	-0.03268826	0	0
29.50484	0.05134956	0.252208	0.001584356	-0.001081122	0.09564295	5.80556E-05	0	0
29.5214	0.05132331	0.2521901	-0.001584539	-0.001081246	-0.09564295	-3.756064E-06	0	0
29.53797	0.05132331	0.2521184	0	-0.004328584	0.04782698	-0.09801612	0	0
29.55486	0.05132331	0.2520109	0	-0.006368943	0	-0.06099185	0	0
29.57137	0.05129706	0.2519212	-0.001589622	-0.005427955	-0.04759678	0.02817528	0	0
29.58788	0.05129706	0.2518137	0	-0.006513876	0.04813837	-0.03288485	0	0
29.60439	0.05129706	0.251742	0	-0.004340278	0	0.06581526	0	0
29.6208	0.05124457	0.2516344	-0.003198313	-0.006553239	-0.09713475	-0.06720901	0	0
29.63741	0.05124457	0.2515269	0	-0.006474983	0.09684863	0.00236969	0	0
29.65394	0.05124457	0.251491	0	-0.002169788	0	0.129931	0	0
29.6705	0.05121832	0.2513297	-0.001584539	-0.009738414	-0.04788763	-0.2287376	0	0
29.68707	0.05121832	0.251258	0	-0.004328086	0.04782423	0.1632934	0	0
29.70364	0.05129706	0.251025	0.004752844	-0.01406538	0.1434411	-0.2938721	0	0
29.72021	0.05132331	0.2509354	0.001584131	-0.005409207	-0.09563194	0.2612438	0	0
29.73677	0.05132331	0.2509354	0	0	-0.04781193	0.1632596	0	0
29.75334	0.05132331	0.2509354	0	0	0	0	0	0
29.7699	0.05132331	0.2509354	0	0	0	0	0	0
29.78647	0.05132331	0.2509354	0	0	0	0	0	0
29.80304	0.05129706	0.2509533	-0.001584131	0.001081122	-0.04780918	0.03262833	0	0
29.8196	0.05129706	0.2509533	0	0	0.04780918	-0.03262833	0	0
29.83617	0.05129706	0.2509533	0	0	0	0	0	0
29.85274	0.05129706	0.2509533	0	0	0	0	0	0
29.86931	0.05129706	0.2509533	0	0	0	0	0	0
29.88587	0.05129706	0.2509533	0	0	0	0	0	0
29.90244	0.05129706	0.2509533	0	0	0	0	0	0
29.91912	0.05127082	0.2509354	-0.001574207	-0.001074196	-0.047357	-0.03231514	0	0
29.93557	0.05124457	0.2509174	-0.001594596	-0.001090074	-0.000615362	-0.0004792196	0	0
29.95214	0.05121832	0.2508995	-0.001584356	-0.001081122	0.0003100403	0.000271068	0	0
29.96871	0.05121832	0.2508637	0	-0.002164043	0.04781597	-0.03268262	0	0
29.98528	0.05119208	0.2508457	-0.001584356	-0.001082921	-0.04781597	0.03262833	0	0
30.00184	0.05116583	0.250792	-0.001584131	-0.003245165	6.78793E-06	-0.06525665	0	0
30.03542	0.05116583	0.2507203	0	-0.002135644	0.03159272	0.02212743	0	0
30.05221	0.05119208	0.2506665	0.001562722	-0.003203081	0.03102531	-0.02119222	0	0
30.06855	0.05116583	0.2506486	-0.001606136	-0.001096139	-0.09563632	0.06358761	0	0
30.08512	0.05119208	0.2506306	0.001584131	-0.001082921	0.09694655	0.0004016865	0	0
30.10169	0.05119208	0.2506306	0	0	-0.04780918	0.03268262	0	0
30.11826	0.05116583	0.2506127	-0.001583402	-0.001080624	-0.04777617	-0.0326058	0	0
30.13482	0.05116583	0.2506127	0	0	0.04778717	0.03261331	0	0
30.15139	0.05116583	0.2506127	0	0	0	0	0	0
30.16795	0.05116583	0.2506127	0	0	0	0	0	0
30.18452	0.05116583	0.2506127	0	0	0	0	0	0
30.20132	0.05116583	0.2506127	0	0	0	0	0	0
30.25079	0.05116583	0.2506127	0	0	0	0	0	0
30.26736	0.05116583	0.2506127	0	0	0	0	0	0
30.28392	0.05116583	0.2506127	0	0	0	0	0	0
30.3009	0.05116583	0.2506127	0	0	0	0	0	0
30.31706	0.05116583	0.2506127	0	0	0	0	0	0
30.33362	0.05113958	0.2505948	-0.001584356	-0.001082921	-0.04840952	-0.03308832	0	0
30.35019	0.05113958	0.2505948	0	0	0.04781597	0.03268262	0	0
30.36676	0.05113958	0.2505948	0	0	0	0	0	0
30.38345	0.05113958	0.2505948	0	0	0	0	0	0
30.39989	0.05113958	0.2505948	0	0	0	0	0	0
30.41646	0.05111334	0.2505769	-0.001584131	-0.001081122	-0.04799428	-0.03275465	0	0
30.44959	0.05113958	0.2505589	0.0007920657	-0.0005414604	0.04780918	0.01085801	0	0
30.46651	0.05113958	0.2505589	0	0	-0.01582465	0.01081782	0	0
30.48273	0.05113958	0.2505589	0	0	0	0	0	0
30.49953	0.05111334	0.250541	-0.001561303	-0.001065542	-0.04727807	-0.03226586	0	0
30.51586	0.05111334	0.250541	0	0	0.04712294	0.03215998	0	0
30.53242	0.05111334	0.250541	0	0	0	0	0	0
30.54907	0.05111334	0.250541	0	0	0	0	0	0
30.56556	0.05111334	0.250541	0	0	0	0	0	0
30.58213	0.05111334	0.250541	0	0	0	0	0	0
30.59869	0.05111334	0.250541	0	0	0	0	0	0
30.61526	0.05111334	0.250541	0	0	0	0	0	0
30.63183	0.05111334	0.250541	0	0	0	0	0	0
30.6484	0.05108709	0.2505231	-0.001584356	-0.001082921	-0.04781597	-0.03268262	0	0
30.66516	0.05108709	0.2505231	0	0	0.04753958	0.0324937	0	0
30.68167	0.05108709	0.2505231	0	0	0	0	0	0
30.69818	0.05106084	0.2505051	-0.00158948	-0.001084618	-0.04812852	-0.0328416	0	0
30.71469	0.05106084	0.2505051	0	0	0.0481313	0.0328435	0	0
30.73123	0.05100835	0.2504693	-0.003173969	-0.002167786	-0.09603935	-0.06559383	0	0
30.7478	0.0509821	0.2504514	-0.001584356	-0.001082921	0.04801607	0.0327696	0	0
30.76436	0.05095585	0.2503976	-0.001584356	-0.003246963	0	-0.06531093	0	0
30.78093	0.05085086	0.2503259	-0.00633793	-0.004328584	-0.1434714	-0.03264524	0	0
30.7975	0.05082461	0.2503079	-0.001584356	-0.001081122	0.1434714	0.09801424	0	0
30.81406	0.05066713	0.2501645	-0.009505913	-0.008656171	-0.239073	-0.2286154	0	0
30.83077	0.0502209	0.2498598	-0.02670393	-0.01823868	-0.5168059	-0.2879575	0	0
30.86469	0.04840952	0.2486227	-0.05341303	-0.03647796	-0.5276086	-0.3602968	0	0
30.88131	0.04838326	0.2486048	-0.001579532	-0.001078421	1.025691	0.7004927	0	0
30.89783	0.04838326	0.2486048	0	0	0.04765667	0.03253744	0	0
30.93095	0.04835701	0.2486586	-0.0007925643	0.001624043	-0.01596481	0.03271347	0	0
31.00139	0.03795545	0.2767407	-0.1476649	0.3986662	-1.418189	3.833811	0	0
31.01787	0.03551138	0.2943557	-0.1483439	1.069149	-0.007811471	7.714155	0	0
31.03444	0.03309318	0.32037	-0.1459631	1.570224	0.07205006	15.16437	0	0
31.051	0.03196279	0.3388533	-0.06823008	1.115658	2.345989	-13.71883	0	0
31.06757	0.03101637	0.355604	-0.05712643	1.01107	0.3351087	-3.156477	0	0
31.08414	0.03059571	0.3658206	-0.02539074	0.6166748	0.9577852	-11.90288	0	0
31.11727	0.02949145	0.4013928	-0.0333268	1.073574	-0.1596739	9.192826	0	0
31.13384	0.02883411	0.4163044	-0.03967682	0.9000619	-0.1277626	-3.491067	0	0
31.15041	0.02896558	0.4281853	0.007935498	0.7171328	1.436942	-5.520811	0	0
31.16698	0.02938627	0.4356824	0.0253931	0.4525278	0.5268714	-7.985796	0	0
31.18354	0.03038538	0.4421079	0.06031322	0.3878904	1.053952	-1.950872	0	0
31.20011	0.03051684	0.4439574	0.007934711	0.1116362	-1.580878	-8.337849	0	0
31.21706	0.0346966	0.4508381	0.2465846	0.405923	7.120087	8.780005	0	0
31.23324	0.03750871	0.4558899	0.1737607	0.3121483	-2.19783	-2.830126	0	0
31.24981	0.03997869	0.4637345	0.1490878	0.4735044	-0.753346	4.926743	0	0
31.26659	0.04163382	0.4669574	0.09864358	0.1920825	-1.512743	-8.439405	0	0
31.28294	0.04144993	0.4701819	-0.01124471	0.1971677	-3.316626	0.1534791	0	0
31.29951	0.04116095	0.4715333	-0.01744098	0.08156405	-0.1882064	-3.511361	0	0
31.31608	0.04113468	0.4715153	-0.001585888	-0.001088443	0.4785075	-2.494457	0	0
31.33264	0.04113468	0.4715153	0	0	0.04786495	0.03285116	0	0
31.34921	0.04110841	0.4714973	-0.001585705	-0.001086519	-0.04785668	-0.03279119	0	0
31.36578	0.04110841	0.4714973	0	0	0.04785944	0.03279308	0	0
31.38267	0.04113468	0.4715153	0.001555091	0.001065541	0.0464779	0.03184646	0	0
31.39891	0.04113468	0.4715153	0	0	-0.04693543	-0.03215995	0	0
31.41548	0.04113468	0.4714792	0	-0.002174836	0	-0.06629305	0	0
31.44861	0.04113468	0.4714432	0	-0.001088317	0	0.0218608	0	0
31.46518	0.04110841	0.4713891	-0.001585888	-0.003263529	-0.03190935	-0.04376703	0	0
31.48174	0.04102959	0.471299	-0.004757341	-0.005437989	-0.09572015	-0.06562912	0	0
31.49831	0.04095078	0.4711729	-0.004757117	-0.007612825	6.773877E-06	-0.06563669	0	0
31.51488	0.04089823	0.4708846	-0.003171636	-0.01740409	0.0478499	-0.2955008	0	0
31.53178	0.04097705	0.4707584	0.004663913	-0.007463318	0.2341322	0.2970378	0	0
31.54801	0.04100332	0.4706683	0.00161812	-0.005549151	-0.09192221	0.05776968	0	0
31.56458	0.04097705	0.4705783	-0.001585705	-0.005437989	-0.09766992	0.00338881	0	0
31.58115	0.0409245	0.4704701	-0.003171636	-0.006526307	-0.04786347	-0.03284549	0	0
31.59783	0.04089823	0.4704161	-0.001575007	-0.003239351	0.04802325	0.09886475	0	0
31.61428	0.04089823	0.470344	0	-0.004381231	0.04753381	-0.03446199	0	0
31.63085	0.04108214	0.4701098	0.01110039	-0.01413733	0.336152	-0.2954432	0	0
31.64742	0.04160755	0.4697134	0.03171411	-0.02392499	0.6221232	-0.2953922	0	0
31.66398	0.04210668	0.4693351	0.03013075	-0.02283931	-0.04778865	0.032768	0	0
31.68089	0.04213295	0.4693171	0.001554038	-0.00106482	-0.8537968	0.6505643	0	0
31.69711	0.04213295	0.4693171	0	0	-0.04690366	0.03213818	0	0
31.71391	0.04210668	0.469299	-0.001564275	-0.001073609	-0.04737078	-0.03251199	0	0
31.74681	0.04208041	0.469281	-0.0007983213	-0.0005470063	0.01541101	0.01059526	0	0
31.76344	0.04202787	0.469209	-0.003159546	-0.004333706	-0.04766708	-0.07644378	0	0
31.77995	0.0420016	0.4690829	-0.001590792	-0.007636522	0.04733692	-0.09966198	0	0
31.79651	0.04218549	0.4688487	0.01110566	-0.01414368	0.383931	-0.1967714	0	0
31.83017	0.0424219	0.4684344	0.007023525	-0.01230841	-0.08128727	0.03654563	0	0
31.86331	0.04315739	0.4662731	0.02219718	-0.06522709	0.2271663	-0.7922511	0	0
31.87988	0.04223802	0.456897	-0.0554934	-0.5659449	-1.563137	-10.07446	0	0
31.89644	0.03940065	0.4452505	-0.1712641	-0.7029829	-3.493965	-4.135817	0	0
31.91301	0.03672033	0.4369205	-0.1618033	-0.5028569	0.2855424	6.040162	0	0
31.92957	0.03438118	0.4241698	-0.141191	-0.7696329	0.6221172	-8.051778	0	0
31.94614	0.03440747	0.4121139	0.00158638	-0.7276976	4.309029	1.265609	0	0
31.96271	0.03382919	0.3931825	-0.03490463	-1.142699	-1.101301	-12.52477	0	0
31.97928	0.03361891	0.3796318	-0.01269284	-0.8179254	0.6703533	9.801691	0	0
31.99611	0.03259372	0.3680356	-0.06089917	-0.6888419	-1.443239	3.864602	0	0
32.01241	0.03051684	0.3556218	-0.1274291	-0.7616625	-2.007994	-2.197857	0	0
32.02898	0.0284134	0.3472998	-0.1269636	-0.5023187	0.01416506	7.891059	0	0
32.04565	0.02609934	0.3391212	-0.1388144	-0.4906143	-0.3565514	0.3521471	0	0
32.06216	0.0224173	0.3287281	-0.2230185	-0.6295019	-2.537778	-4.185855	0	0
32.07867	0.01965536	0.3216738	-0.1672112	-0.4270785	1.689716	6.128908	0	0
32.09524	0.0178139	0.316887	-0.1111507	-0.2889276	1.694444	4.175653	0	0
32.11181	0.01623541	0.3062756	-0.0952778	-0.6405045	0.4790454	-10.61061	0	0
32.12838	0.01552507	0.2968581	-0.04287661	-0.5684435	1.581471	2.174805	0	0
32.14494	0.01528828	0.2840391	-0.01429243	-0.7737577	0.8626723	-6.196395	0	0
32.16151	0.01476209	0.2749514	-0.03176127	-0.5485318	-0.5272108	6.797332	0	0
32.17808	0.01426219	0.2639068	-0.03017371	-0.6666546	0.04791267	-3.564955	0	0
32.19464	0.01415695	0.2596084	-0.006352434	-0.2594549	0.7189276	12.28931	0	0
32.22778	0.01197311	0.2510967	-0.06590833	-0.2568825	-1.198267	0.05175654	0	0
32.24435	0.01099956	0.2503259	-0.05876391	-0.04652782	0.1437459	4.232344	0	0
32.26091	0.007999829	0.2482462	-0.1810639	-0.1255298	-3.691021	-2.384284	0	0
32.27748	0.005815724	0.2466144	-0.1318329	-0.09849183	1.485797	0.8160067	0	0
32.29405	0.005947298	0.2466324	0.00794185	0.001082021	4.218409	3.005145	0	0
32.31084	0.006026243	0.2465786	0.004701232	-0.003203444	-0.09714221	-0.128463	0	0
32.34375	0.006184132	0.2464351	0.004797687	-0.004359496	0.001940683	-0.02325981	0	0
32.36032	0.006552538	0.2461841	0.02223703	-0.0151537	0.3524765	-0.2181677	0	0
32.37688	0.006631482	0.2461302	0.004765071	-0.003247863	-0.5273049	0.3593188	0	0
32.39345	0.006815684	0.2460047	0.01111846	-0.007576848	0.1917457	-0.130649	0	0
32.41002	0.006920942	0.2458971	0.00635339	-0.006494827	-0.1438101	0.03265547	0	0
32.42659	0.0070262	0.2458254	0.00635339	-0.004329884	0	0.06533808	0	0
32.44315	0.007052515	0.2458074	0.001588347	-0.001082921	-0.1438093	0.09799355	0	0
32.45972	0.007052515	0.2458074	0	0	-0.04793642	0.03268262	0	0
32.47646	0.007052515	0.2458074	0	0	0	0	0	0
32.49297	0.007052515	0.2458074	0	0	0	0	0	0
32.50948	0.007052515	0.2458074	0	0	0	0	0	0
32.52598	0.007052515	0.2458074	0	0	0	0	0	0
32.55951	0.007078829	0.2457895	0.0007847774	-0.0005346097	0.01568502	-0.01068502	0	0
32.57602	0.007078829	0.2457895	0	0	-0.01568263	0.01068339	0	0
32.59225	0.007105144	0.2457716	0.001621959	-0.001105837	0.04954981	-0.03378261	0	0
32.60881	0.007131458	0.2457536	0.001588347	-0.001082021	-0.00102503	0.0007262836	0	0
32.62538	0.007131458	0.2457536	0	0	-0.04793642	0.03265547	0	0
32.64195	0.007131458	0.2457536	0	0	0	0	0	0
32.65858	0.007157772	0.2457357	0.001581764	-0.001078451	0.047639	-0.03248041	0	0
32.67509	0.007157772	0.2457357	0	0	-0.04772124	0.03253648	0	0
32.69211	0.007184087	0.2457178	0.00154668	-0.001053637	0.04613711	-0.03142973	0	0
32.70822	0.007184087	0.2457178	0	0	-0.04669503	0.0318098	0	0
32.72717	0.007210401	0.2456998	0.001388246	-0.0009464932	0.03959098	-0.02699277	0	0
32.74374	0.007210401	0.2456998	0	0	-0.03908079	0.02664492	0	0
32.76031	0.007210401	0.2456998	0	0	0	0	0	0
32.77687	0.007210401	0.2456998	0	0	0	0	0	0
32.85971	0.007210401	0.2456998	0	0	0	0	0	0
32.87627	0.007210401	0.2456998	0	0	0	0	0	0
32.89284	0.007210401	0.2456998	0	0	0	0	0	0
32.90941	0.007210401	0.2456998	0	0	0	0	0	0
32.92627	0.007210401	0.2456998	0	0	0	0	0	0
32.94254	0.007210401	0.2456998	0	0	0	0	0	0
32.97581	0.007210401	0.2456998	0	0	0	0	0	0
32.99232	0.007210401	0.2456998	0	0	0	0	0	0
33.00883	0.007210401	0.2456998	0	0	0	0	0	0
33.02538	0.007236716	0.2456819	0.001590545	-0.001083518	0.04811908	-0.0327799	0	0
33.04194	0.007210401	0.245664	-0.001588347	-0.001082921	-0.09600548	1.804334E-05	0	0
33.05851	0.007236716	0.245646	0.001588347	-0.001082021	0.09587284	2.714469E-05	0	0
33.07508	0.007236716	0.245646	0	0	-0.04793642	0.03265547	0	0
33.09164	0.007236716	0.245646	0	0	0	0	0	0
33.10821	0.007236716	0.245646	0	0	0	0	0	0
33.12478	0.007236716	0.245646	0	0	0	0	0	0
33.14143	0.007236716	0.245646	0	0	0	0	0	0
33.15794	0.007236716	0.245646	0	0	0	0	0	0
33.17448	0.007236716	0.245646	0	0	0	0	0	0
33.19104	0.007236716	0.245646	0	0	0	0	0	0
33.20761	0.007236716	0.245646	0	0	0	0	0	0
33.22418	0.007236716	0.245646	0	0	0	0	0	0
33.24075	0.007236716	0.245646	0	0	0	0	0	0
33.25751	0.007236716	0.245646	0	0	0	0	0	0
33.27388	0.007236716	0.245646	0	0	0	0	0	0
33.29044	0.007236716	0.245646	0	0	0	0	0	0
33.30705	0.007236716	0.245646	0	0	0	0	0	0
33.32358	0.00726303	0.2456281	0.001592013	-0.00108542	0.04804705	-0.03275804	0	0
33.34015	0.00726303	0.2456281	0	0	-0.04810243	0.0327958	0	0
33.35671	0.00726303	0.2456281	0	0	0	0	0	0
33.37328	0.00726303	0.2456281	0	0	0	0	0	0
33.38985	0.00726303	0.2456281	0	0	0	0	0	0
33.40662	0.00726303	0.2456281	0	0	0	0	0	0
33.42313	0.00726303	0.2456281	0	0	0	0	0	0
33.43964	0.00726303	0.2456281	0	0	0	0	0	0
33.45615	0.00726303	0.2456281	0	0	0	0	0	0
33.47268	0.00726303	0.2456281	0	0	0	0	0	0
33.48925	0.00726303	0.2456281	0	0	0	0	0	0
33.50581	0.00726303	0.2456281	0	0	0	0	0	0
33.53895	0.00726303	0.2456281	0	0	0	0	0	0
33.55573	0.00726303	0.2456281	0	0	0	0	0	0
33.57208	0.00726303	0.2456281	0	0	0	0	0	0
33.58875	0.00726303	0.2456281	0	0	0	0	0	0
33.60521	0.00726303	0.2456281	0	0	0	0	0	0
33.63835	0.00726303	0.2456281	0	0	0	0	0	0
33.65491	0.00726303	0.2456281	0	0	0	0	0	0
33.67148	0.00726303	0.2456281	0	0	0	0	0	0
33.68805	0.007289344	0.2456102	0.001588319	-0.001082021	0.0479411	-0.03265923	0	0
33.70461	0.007289344	0.2456102	0	0	-0.04793558	0.03265547	0	0
33.72118	0.00726303	0.2455922	-0.001588319	-0.001082921	-0.04793558	-0.03268262	0	0
33.73785	0.00726303	0.2455922	0	0	0.04778155	0.0325776	0	0
33.75436	0.00726303	0.2455922	0	0	0	0	0	0
33.77088	0.00726303	0.2455922	0	0	0	0	0	0
33.78745	0.00726303	0.2455922	0	0	0	0	0	0
33.80401	0.007289344	0.2455743	0.001588319	-0.001082921	0.04793558	-0.03268262	0	0
33.82058	0.007289344	0.2455743	0	0	-0.04793558	0.03268262	0	0
33.83715	0.007289344	0.2455743	0	0	0	0	0	0
33.85394	0.007289344	0.2455743	0	0	0	0	0	0
33.87045	0.007315659	0.2455564	0.001593852	-0.001085771	0.0478656	-0.03260723	0	0
33.88696	0.007315659	0.2455564	0	0	-0.0482637	0.03287842	0	0
33.90625	0.007315659	0.2455564	0	0	0	0	0	0
33.92282	0.007341973	0.2455384	0.001588347	-0.001082921	0.04429058	-0.03019691	0	0
33.93939	0.007315659	0.2455205	-0.001588347	-0.001082021	-0.09587284	2.714469E-05	0	0
33.95601	0.007315659	0.2455205	0	0	0.04786478	0.03260667	0	0
33.97252	0.007341973	0.2455026	0.001593116	-0.001086172	0.04808034	-0.03278074	0	0
33.98909	0.007368288	0.2454846	0.001588319	-0.001082021	-0.000144984	0.0001254553	0	0
34.00566	0.007368288	0.2454846	0	0	-0.04793558	0.03265547	0	0
34.02222	0.007368288	0.2454488	0	-0.002164942	0	-0.06533808	0	0
34.03879	0.007394602	0.2454308	0.001588347	-0.001082921	0.04793642	0.03265547	0	0
34.05558	0.007473545	0.245377	0.004702217	-0.00320506	0.09335343	-0.06362146	0	0
34.07193	0.007526174	0.2453412	0.003219665	-0.002194246	-0.04474352	0.03050643	0	0
34.0886	0.007605116	0.2452515	0.004733379	-0.005376901	0.04583703	-0.0963745	0	0
34.10511	0.007684059	0.2451977	0.004781529	-0.003258217	0.001450827	0.06383913	0	0
34.12163	0.007789316	0.2451259	0.006372381	-0.004343786	0.04816725	-0.0328685	0	0
34.15476	0.009210266	0.2441574	0.04289423	-0.02923705	0.7356681	-0.5014307	0	0
34.17133	0.0137886	0.241036	0.2763487	-0.1884084	4.697835	-3.203026	0	0
34.18817	0.01957645	0.2370881	0.3435801	-0.2343573	2.012135	-1.375182	0	0
34.20446	0.02694085	0.2320972	0.4522215	-0.3064745	3.279183	-2.176753	0	0
34.2212	0.03049055	0.2296367	0.212063	-0.1469927	-7.27228	4.829296	0	0
34.23759	0.03356634	0.2275349	0.1875988	-0.1281928	-0.7383285	0.5673817	0	0
34.25422	0.0348543	0.2266545	0.07745626	-0.05294452	-3.335245	2.278605	0	0
34.27073	0.0356428	0.2261155	0.04776964	-0.03265741	-0.8959441	0.6122662	0	0
34.28729	0.03582677	0.2259897	0.01110466	-0.007592138	-1.108593	0.7578673	0	0
34.30386	0.03585305	0.2259717	0.00158638	-0.00108472	-0.2872623	0.1963943	0	0
34.35379	0.03585305	0.2259717	0	0	-0.02385476	0.01631118	0	0
34.3703	0.03585305	0.2259717	0	0	0	0	0	0
34.38681	0.03585305	0.2259717	0	0	0	0	0	0
34.40333	0.03585305	0.2259717	0	0	0	0	0	0
34.41984	0.03585305	0.2259717	0	0	0	0	0	0
34.4364	0.03585305	0.2259717	0	0	0	0	0	0
34.45337	0.03585305	0.2259717	0	0	0	0	0	0
34.46988	0.03585305	0.2259717	0	0	0	0	0	0
34.4861	0.03585305	0.2260076	0	0.002215869	0	0.06770126	0	0
34.50267	0.03585305	0.2260076	0	0	0	-0.06758311	0	0
34.53593	0.03585305	0.2260076	0	0	0	0	0	0
34.5525	0.03582677	0.2260256	-0.00158638	0.00108472	-0.03183252	0.02176613	0	0
34.56907	0.03582677	0.2260256	0	0	0.04787704	-0.0327369	0	0
34.58564	0.03582677	0.2260256	0	0	0	0	0	0
34.6022	0.03582677	0.2260256	0	0	0	0	0	0
34.68504	0.03582677	0.2260256	0	0	0	0	0	0
34.7016	0.03582677	0.2260256	0	0	0	0	0	0
34.71817	0.03582677	0.2260256	0	0	0	0	0	0
34.73474	0.03582677	0.2260256	0	0	0	0	0	0
34.75158	0.03582677	0.2260256	0	0	0	0	0	0
34.76809	0.03582677	0.2260256	0	0	0	0	0	0
34.78444	0.03582677	0.2260256	0	0	0	0	0	0
34.801	0.03582677	0.2260256	0	0	0	0	0	0
34.81757	0.03582677	0.2260256	0	0	0	0	0	0
34.83414	0.03582677	0.2260256	0	0	0	0	0	0
34.85115	0.03582677	0.2260256	0	0	0	0	0	0
34.86727	0.03582677	0.2260256	0	0	0	0	0	0
34.88384	0.03582677	0.2260256	0	0	0	0	0	0
34.90041	0.03580049	0.2260436	-0.00158638	0.00108472	-0.04787704	0.0327369	0	0
34.91697	0.03580049	0.2260436	0	0	0.04787704	-0.0327369	0	0
34.93354	0.03580049	0.2260436	0	0	0	0	0	0
34.95022	0.03574792	0.2260795	-0.003150994	0.002153663	-0.09476987	0.06477397	0	0
34.96673	0.03572164	0.2260975	-0.001591878	0.001088479	0.04697309	-0.0320919	0	0
34.98325	0.03572164	0.2261334	0	0.002176455	0.04820392	0.03294518	0	0
34.99981	0.03559023	0.2262951	-0.007935779	0.009766075	-0.2399443	0.2294779	0	0
35.01637	0.03537997	0.2264748	-0.01269126	0.0108454	-0.1435539	0.03258153	0	0
35.083	0.02943886	0.2307502	-0.0891639	0.06416542	-0.9191583	0.6408769	0	0
35.09957	0.02620453	0.2329591	-0.1952248	0.1333252	-1.274793	0.8312616	0	0
35.11614	0.0247318	0.2339646	-0.08889406	0.06069123	3.209068	-2.192096	0	0
35.13285	0.0247844	0.2339287	0.00314664	-0.002148348	2.765378	-1.888025	0	0
35.14936	0.0247844	0.2338927	0	-0.002175153	-0.0947041	-0.0008067362	0	0
35.16587	0.024837	0.2338568	0.0031859	-0.002175153	0.09648389	0	0	0
