Time	Pos X	Pos Y	Vel X	Vel Y	Acc X	Acc YForce X	Force Y
0.01672622	0.001789472	0.2510788	-2.713298E-05	-0.003806998	4.115089E-07	5.773835E-05	0	0
0.04584304	0.001789472	0.2510788	0	0	-4.115873E-07	-5.774935E-05	0	0
0.06241017	0.001789472	0.2510788	0	0	0	0	0	0
0.07927139	0.001789472	0.2510788	0	0	0	0	0	0
0.09554403	0.001789472	0.2510788	0	0	0	0	0	0
0.1122939	0.001789472	0.2510788	0	0	0	0	0	0
0.1286775	0.001789472	0.2510788	0	0	0	0	0	0
0.1452435	0.001789472	0.2510788	0	0	0	0	0	0
0.1618106	0.001789472	0.2510788	0	0	0	0	0	0
0.1783773	0.001789472	0.2510788	0	0	0	0	0	0
0.1949441	0.001789472	0.2510788	0	0	0	0	0	0
0.2118653	0.001789472	0.2510788	0	0	0	0	0	0
0.2280775	0.001789472	0.2510788	0	0	0	0	0	0
0.2446435	0.001789472	0.2510788	0	0	0	0	0	0
0.2612106	0.001789472	0.2510788	0	0	0	0	0	0
0.2779112	0.001815788	0.2510608	0.001575743	-0.00107249	0.04736556	-0.0322382	0	0
0.2944226	0.001815788	0.2510608	0	0	-0.04744494	0.03229222	0	0
0.3109357	0.001789472	0.2510429	-0.001593637	-0.001086474	-0.04825616	-0.03289901	0	0
0.3937445	0.001789472	0.2510429	0	0	0.01604518	0.01093892	0	0
0.4600106	0.001789472	0.2510429	0	0	0	0	0	0
0.4765773	0.001789472	0.2510429	0	0	0	0	0	0
0.4931441	0.001789472	0.2510429	0	0	0	0	0	0
0.5097128	0.001789472	0.2510429	0	0	0	0	0	0
0.5265886	0.001789472	0.2510429	0	0	0	0	0	0
0.5428438	0.001789472	0.2510429	0	0	0	0	0	0
0.5594106	0.001789472	0.2510429	0	0	0	0	0	0
0.5761226	0.001789472	0.2510429	0	0	0	0	0	0
0.5926337	0.001789472	0.2510429	0	0	0	0	0	0
0.6259685	0.001789472	0.2510429	0	0	0	0	0	0
0.6425356	0.001789472	0.2510429	0	0	0	0	0	0
0.6591817	0.001789472	0.2510429	0	0	0	0	0	0
0.6756927	0.001789472	0.2510429	0	0	0	0	0	0
0.6922366	0.001789472	0.2510429	0	0	0	0	0	0
0.7088025	0.001789472	0.2510429	0	0	0	0	0	0
0.7253693	0.001789472	0.2510429	0	0	0	0	0	0
0.7585039	0.001763156	0.2510608	-0.0007942046	0.0005414575	-0.01597952	0.01089421	0	0
0.7752629	0.001763156	0.2510608	0	0	0.01591796	-0.01085224	0	0
0.7916386	0.001763156	0.2510608	0	0	0	0	0	0
0.8082033	0.001763156	0.2510608	0	0	0	0	0	0
0.8247693	0.001763156	0.2510608	0	0	0	0	0	0
0.8413439	0.001763156	0.2510608	0	0	0	0	0	0
0.8579078	0.001763156	0.2510608	0	0	0	0	0	0
0.8744754	0.001763156	0.2510608	0	0	0	0	0	0
0.8910405	0.001763156	0.2510608	0	0	0	0	0	0
0.9076096	0.001763156	0.2510608	0	0	0	0	0	0
0.9243725	0.001763156	0.2510608	0	0	0	0	0	0
0.9407359	0.001789472	0.2510429	0.0016082	-0.001096407	0.04854744	-0.03309774	0	0
0.9573039	0.001789472	0.2510429	0	0	-0.04883486	0.03329369	0	0
0.9739074	0.001789472	0.2510429	0	0	0	0	0	0
0.9904374	0.001789472	0.2510429	0	0	0	0	0	0
1.007003	0.001789472	0.2510429	0	0	0	0	0	0
1.023572	0.001789472	0.2510429	0	0	0	0	0	0
1.040137	0.001789472	0.2510429	0	0	0	0	0	0
1.056965	0.001789472	0.2510429	0	0	0	0	0	0
1.073978	0.001789472	0.2510429	0	0	0	0	0	0
1.090495	0.001789472	0.2510429	0	0	0	0	0	0
1.106999	0.001789472	0.2510429	0	0	0	0	0	0
1.123012	0.001789472	0.2510429	0	0	0	0	0	0
1.139543	0.001789472	0.2510429	0	0	0	0	0	0
1.156102	0.001789472	0.2510429	0	0	0	0	0	0
1.172669	0.001789472	0.2510429	0	0	0	0	0	0
1.189236	0.001789472	0.2510429	0	0	0	0	0	0
1.205802	0.001789472	0.2510429	0	0	0	0	0	0
1.22258	0.001789472	0.2510429	0	0	0	0	0	0
1.23909	0.001789472	0.2510429	0	0	0	0	0	0
1.255502	0.001789472	0.2510429	0	0	0	0	0	0
1.272069	0.001789472	0.2510429	0	0	0	0	0	0
1.288635	0.001789472	0.2510429	0	0	0	0	0	0
1.305202	0.001815788	0.251025	0.001588505	-0.001081176	0.04794307	-0.03263126	0	0
1.321769	0.001789472	0.2510071	-0.001588436	-0.00108113	-0.09588303	1.408923E-06	0	0
1.371469	0.001789472	0.2509712	0	-0.0007213753	0.02397028	0.00542887	0	0
1.388035	0.001789472	0.2509712	0	0	0	0.01088602	0	0
1.404602	0.001789472	0.2509712	0	0	0	0	0	0
1.421169	0.001789472	0.2509712	0	0	0	0	0	0
1.437736	0.001789472	0.2509712	0	0	0	0	0	0
1.454302	0.001789472	0.2509712	0	0	0	0	0	0
1.470869	0.001789472	0.2509712	0	0	0	0	0	0
1.487436	0.001789472	0.2509712	0	0	0	0	0	0
1.523119	0.001763156	0.2509891	-0.000737482	0.000501951	-0.01411451	0.009606735	0	0
1.539682	0.001763156	0.2509891	0	0	0.01411548	-0.009607392	0	0
1.556248	0.001763156	0.2509891	0	0	0	0	0	0
1.57283	0.001763156	0.2509891	0	0	0	0	0	0
1.589387	0.001763156	0.2509891	0	0	0	0	0	0
1.605949	0.001763156	0.2509891	0	0	0	0	0	0
1.622514	0.001763156	0.2509891	0	0	0	0	0	0
1.639081	0.001763156	0.2509891	0	0	0	0	0	0
1.655648	0.001763156	0.2509891	0	0	0	0	0	0
1.672214	0.001763156	0.2509891	0	0	0	0	0	0
1.688781	0.001763156	0.2509891	0	0	0	0	0	0
1.705347	0.001763156	0.2509891	0	0	0	0	0	0
1.721914	0.001763156	0.2509891	0	0	0	0	0	0
1.738481	0.001763156	0.2509891	0	0	0	0	0	0
1.755048	0.001763156	0.2509891	0	0	0	0	0	0
1.771614	0.001763156	0.2509891	0	0	0	0	0	0
1.788181	0.001763156	0.2509891	0	0	0	0	0	0
1.804748	0.001763156	0.2509891	0	0	0	0	0	0
1.821314	0.001763156	0.2509891	0	0	0	0	0	0
1.83788	0.001763156	0.2509891	0	0	0	0	0	0
1.854448	0.001789472	0.2509712	0.001588395	-0.001081106	0.04793872	-0.03262844	0	0
1.871015	0.001789472	0.2509712	0	0	-0.0479382	0.03262809	0	0
1.887581	0.001789472	0.2509712	0	0	0	0	0	0
1.904148	0.001789472	0.2509712	0	0	0	0	0	0
1.920714	0.001789472	0.2509712	0	0	0	0	0	0
1.937584	0.001789472	0.2509712	0	0	0	0	0	0
1.953848	0.001789472	0.2509712	0	0	0	0	0	0
1.970415	0.001789472	0.2509712	0	0	0	0	0	0
1.986982	0.001789472	0.2509712	0	0	0	0	0	0
2.003548	0.001789472	0.2509712	0	0	0	0	0	0
2.020116	0.001789472	0.2509712	0	0	0	0	0	0
2.036683	0.001789472	0.2509712	0	0	0	0	0	0
2.053249	0.001789472	0.2509712	0	0	0	0	0	0
2.069818	0.001789472	0.2509712	0	0	0	0	0	0
2.086383	0.001789472	0.2509712	0	0	0	0	0	0
2.103201	0.001789472	0.2509712	0	0	0	0	0	0
2.119515	0.001789472	0.2509712	0	0	0	0	0	0
2.136081	0.001789472	0.2509712	0	0	0	0	0	0
2.152648	0.001789472	0.2509712	0	0	0	0	0	0
2.169247	0.001789472	0.2509712	0	0	0	0	0	0
2.252048	-0.005552575	0.2455743	-0.08867087	-0.06517947	-0.8920564	-0.6557257	0	0
2.268615	-0.01349918	0.2383623	-0.4796856	-0.4353394	-3.935041	-3.725166	0	0
2.285181	-0.01563031	0.2324922	-0.1286425	-0.3543424	10.59511	2.444637	0	0
2.301748	-0.015604	0.2127367	0.001588066	-1.192446	3.930478	-25.29475	0	0
2.318315	-0.01499888	0.1987416	0.03652729	-0.8447961	1.054498	10.4924	0	0
2.334882	-0.01444636	0.1843592	0.03334968	-0.8681202	-0.09590343	-0.7039422	0	0
2.351448	-0.01363073	0.1697658	0.0492343	-0.8809114	0.4794127	-0.3860508	0	0
2.368015	-0.01278878	0.1511268	0.05082218	-1.125084	0.04792424	-7.369452	0	0
2.384902	-0.01268353	0.142076	0.006232385	-0.5359634	-1.332881	17.61002	0	0
2.41987	-0.01134162	0.1110817	0.03837499	-0.8863541	0.6198516	-6.757083	0	0
2.436437	-0.009762848	0.09865855	0.09529484	-0.7498597	1.104476	2.648546	0	0
2.453004	-0.009157639	0.09063355	0.03653258	-0.4844182	-1.7735	8.011271	0	0
2.469571	-0.009052385	0.08839059	0.006353165	-0.1353853	-0.9108427	10.53414	0	0
2.486137	-0.01002598	0.07702936	-0.05876971	-0.6858045	-1.965469	-16.61216	0	0
2.502704	-0.01060487	0.06924126	-0.03494263	-0.4701041	0.719134	6.510131	0	0
2.519271	-0.01084168	0.06382523	-0.01429417	-0.3269121	0.6231805	4.321606	0	0
2.536008	-0.01336762	0.05834637	-0.1509199	-0.3273506	-4.102356	-0.01316774	0	0
2.552404	-0.01639327	0.05628986	-0.1845323	-0.1254258	-1.014459	6.094324	0	0
2.568971	-0.01962906	0.05397267	-0.1953239	-0.1398735	-0.3273892	-0.438306	0	0
2.585539	-0.02231209	0.05208083	-0.1619339	-0.1141818	1.007695	0.7753637	0	0
2.602104	-0.02315376	0.05148713	-0.05081206	-0.03584241	3.35381	2.364391	0	0
2.618671	-0.0243636	0.05063351	-0.07302632	-0.05152418	-0.6704856	-0.4733176	0	0
2.635237	-0.0243636	0.05063351	0	0	2.204002	1.555048	0	0
2.651804	-0.0243899	0.05065207	-0.001587504	0.001120247	-0.04791235	0.03381011	0	0
2.668371	-0.0243899	0.05065207	0	0	0.04791235	-0.03381011	0	0
2.684938	-0.0244162	0.05067063	-0.001587392	0.001120022	-0.04790896	0.03380332	0	0
2.701504	-0.0244162	0.05067063	0	0	0.04790896	-0.03380332	0	0
2.718071	-0.0244425	0.05068919	-0.001587596	0.001120312	-0.04791649	0.03381303	0	0
2.734637	-0.0244425	0.05068919	0	0	0.0479158	-0.03381254	0	0
2.767771	-0.0244425	0.05068919	0	0	0	0	0	0
2.784688	-0.0244425	0.05068919	0	0	0	0	0	0
2.800905	-0.0244425	0.05068919	0	0	0	0	0	0
2.817708	-0.0244425	0.05068919	0	0	0	0	0	0
2.834218	-0.0244425	0.05068919	0	0	0	0	0	0
2.850604	-0.0244162	0.05067063	0.001605059	-0.001132635	0.04879151	-0.03443049	0	0
2.867242	-0.0244162	0.05067063	0	0	-0.04860375	0.034298	0	0
2.883738	-0.0244162	0.05067063	0	0	0	0	0	0
2.900304	-0.0244162	0.05067063	0	0	0	0	0	0
2.916871	-0.0244162	0.05067063	0	0	0	0	0	0
2.950005	-0.0244162	0.05067063	0	0	0	0	0	0
2.966572	-0.0244162	0.05067063	0	0	0	0	0	0
2.983139	-0.0243899	0.05065207	0.001587392	-0.001120022	0.04790758	-0.03380235	0	0
2.999704	-0.0243636	0.05059639	0.00158771	-0.003361177	9.602802E-06	-0.06764257	0	0
3.016271	-0.0243373	0.05054072	0.00158755	-0.003360839	-4.827823E-06	1.021784E-05	0	0
3.032861	-0.02404799	0.05029944	0.01743884	-0.01454399	0.4780765	-0.337285	0	0
3.049406	-0.02389019	0.05018807	0.009537791	-0.006730943	-0.2384525	0.2357966	0	0
3.065973	-0.01628803	0.04478302	0.4588672	-0.3262495	13.56987	-9.649545	0	0
3.082538	-0.01205205	0.0417893	0.2557214	-0.1807272	-6.131395	4.392187	0	0
3.099408	-0.0031842	0.0355152	0.5256572	-0.3719085	8.073484	-5.718022	0	0
3.115672	0.0009473682	0.03258862	0.2540321	-0.1799429	-8.197782	5.793616	0	0
3.132239	0.01021017	0.02601856	0.55912	-0.3965808	9.292759	-6.598635	0	0
3.148805	0.01326238	0.0238508	0.184237	-0.1308499	-11.31432	8.020006	0	0
3.165453	0.01949753	0.01941774	0.3745379	-0.2662889	5.729483	-4.07773	0	0
3.181966	0.02318006	0.01679643	0.2230032	-0.1587387	-4.569677	3.243281	0	0
3.198505	0.02623083	0.014623	0.1844632	-0.1314155	-1.166043	0.8266744	0	0
3.215071	0.0264938	0.01443557	0.01587404	-0.01131381	-5.092575	3.627914	0	0
3.231638	0.0265201	0.01441683	0.001587392	-0.001131378	-0.4311845	0.3073153	0	0
3.248205	0.02654639	0.01439808	0.001587371	-0.001131443	-6.32434E-07	-1.967573E-06	0	0
3.282277	0.02654639	0.01439808	0	0	-0.0313473	0.02234367	0	0
3.298844	0.02654639	0.01439808	0	0	0	0	0	0
3.315559	0.02654639	0.01439808	0	0	0	0	0	0
3.332073	0.02654639	0.01439808	0	0	0	0	0	0
3.348583	0.02654639	0.01439808	0	0	0	0	0	0
3.36511	0.02654639	0.01439808	0	0	0	0	0	0
3.381677	0.02654639	0.01439808	0	0	0	0	0	0
3.398243	0.02654639	0.01439808	0	0	0	0	0	0
3.41481	0.02654639	0.01439808	0	0	0	0	0	0
3.431377	0.0265201	0.01441683	-0.001587325	0.00113141	-0.04790695	0.03414702	0	0
3.447944	0.0265201	0.01441683	0	0	0.04790626	-0.03414653	0	0
3.46451	0.0265201	0.01441683	0	0	0	0	0	0
3.481077	0.0265201	0.01441683	0	0	0	0	0	0
3.497695	0.0265201	0.01441683	0	0	0	0	0	0
3.51421	0.0265201	0.01441683	0	0	0	0	0	0
3.530778	0.0265201	0.01441683	0	0	0	0	0	0
3.547343	0.0265201	0.01441683	0	0	0	0	0	0
3.56391	0.0265201	0.01441683	0	0	0	0	0	0
3.580477	0.0265201	0.01441683	0	0	0	0	0	0
3.597044	0.0265201	0.01441683	0	0	0	0	0	0
3.613611	0.0265201	0.01441683	0	0	0	0	0	0
3.630177	0.0265201	0.01441683	0	0	0	0	0	0
3.646744	0.0265201	0.01441683	0	0	0	0	0	0
3.66331	0.0265201	0.01441683	0	0	0	0	0	0
3.679877	0.0265201	0.01441683	0	0	0	0	0	0
3.696444	0.0265201	0.01441683	0	0	0	0	0	0
3.713011	0.0265201	0.01441683	0	0	0	0	0	0
3.729577	0.0265201	0.01441683	0	0	0	0	0	0
3.746144	0.0265201	0.01441683	0	0	0	0	0	0
3.76271	0.0265201	0.01441683	0	0	0	0	0	0
3.779387	0.0265201	0.01441683	0	0	0	0	0	0
3.795843	0.0264938	0.01443557	-0.001598109	0.001139016	-0.04823311	0.03437706	0	0
3.812411	0.0264938	0.01443557	0	0	0.0483933	-0.03449123	0	0
3.828977	0.02644121	0.01447306	-0.00317465	0.002262708	-0.09581251	0.06828966	0	0
3.845935	0.02638861	0.01451054	-0.003101604	0.002210622	0.002178918	-0.001553703	0	0
3.86211	0.02628342	0.014623	-0.006503105	0.006952198	-0.1026619	0.1431072	0	0
3.878959	0.02567857	0.01505404	-0.03589938	0.02558359	-0.8901469	0.5641762	0	0
3.89547	0.02562597	0.015129	-0.003185649	0.004540041	0.9806484	-0.6308154	0	0
3.911981	0.02533668	0.01533513	-0.01752031	0.01248405	-0.4340921	0.2405659	0	0
3.928377	0.02520519	0.0154663	-0.008020056	0.008000005	0.2886979	-0.1362631	0	0
3.944943	0.02291704	0.01720848	-0.1381208	0.1051642	-3.946983	2.947757	0	0
3.962018	0.01339394	0.02446763	-0.5577123	0.4251256	-12.47241	9.510891	0	0
3.978077	0.007605116	0.02887576	-0.3604791	0.2745015	5.952595	-4.54591	0	0
3.994644	-0.00294736	0.03646537	-0.6369671	0.4581232	-8.474614	5.628177	0	0
4.01121	-0.01912924	0.04805297	-0.9767826	0.6994587	-10.25602	7.283782	0	0
4.060912	-0.06331001	0.07938878	-0.8889273	0.6304839	1.325764	-1.04085	0	0
4.09548	-0.09826148	0.1047643	-1.011084	0.7340681	-1.449595	1.229201	0	0
4.112123	-0.1103135	0.113716	-0.7241683	0.5378811	5.602631	-3.830964	0	0
4.128614	-0.1209333	0.1224322	-0.6439596	0.5285298	2.420737	-0.2822255	0	0
4.14518	-0.1270747	0.1282164	-0.3707171	0.3491532	8.265628	-5.426169	0	0
4.161747	-0.1398702	0.1426944	-0.772357	0.8739206	-12.12204	15.83819	0	0
4.178313	-0.1420113	0.1495467	-0.1292456	0.4136285	19.40998	-13.89224	0	0
4.19488	-0.1434036	0.160109	-0.08404453	0.6375793	1.364249	6.759239	0	0
4.228014	-0.1419081	0.1876822	0.04513389	0.8321719	2.59915	3.915322	0	0
4.24458	-0.1397927	0.1960188	0.1276876	0.5032174	1.661016	-6.618704	0	0
4.261228	-0.1362557	0.2036436	0.2124672	0.458015	2.552521	-1.360941	0	0
4.277739	-0.1307498	0.2127007	0.3334618	0.548536	3.648945	2.729927	0	0
4.29428	-0.1260906	0.2192848	0.2816725	0.3980449	-1.566882	-4.553099	0	0
4.310846	-0.1240959	0.2209929	0.1204113	0.103111	-4.87087	-8.908432	0	0
4.327774	-0.1149385	0.2271576	0.5409674	0.3641752	12.55616	7.794358	0	0
4.34398	-0.1125487	0.2288104	0.1474654	0.1019857	-11.87608	-7.913008	0	0
4.360797	-0.1124447	0.2287385	0.006180355	-0.004272641	-4.278337	-3.217672	0	0
4.37731	-0.1124187	0.2287206	0.001573825	-0.001088322	-0.1382118	0.09554061	0	0
4.39368	-0.1124187	0.2287206	0	0	-0.04786182	0.03309711	0	0
4.410246	-0.1123928	0.2287026	0.001568706	-0.001084782	0.0476281	-0.03293549	0	0
4.426814	-0.1123928	0.2287026	0	0	-0.04734502	0.03273973	0	0
4.44338	-0.1123148	0.2286487	0.004705534	-0.003252454	0.1420154	-0.09816066	0	0
4.459947	-0.1122628	0.2285769	0.003136873	-0.004337205	-0.04734366	-0.03273879	0	0
4.476513	-0.1122368	0.2285589	0.001568706	-0.001084782	-0.0473294	0.09816254	0	0
4.493392	-0.1121329	0.228523	0.006158099	-0.002128475	0.1372206	-0.03120591	0	0
4.509647	-0.112055	0.2284691	0.00479581	-0.003315769	-0.04111454	-0.03583312	0	0
4.526416	-0.112003	0.2284331	0.003099497	-0.002142456	-0.05136634	0.03552928	0	0
4.54278	-0.1113013	0.2279481	0.04288065	-0.02964097	1.200649	-0.8299426	0	0
4.559347	-0.1100795	0.2271037	0.07374732	-0.0509698	0.9373177	-0.6476853	0	0
4.575951	-0.1064383	0.2246239	0.2193033	-0.149352	4.388152	-2.965981	0	0
4.59248	-0.09870452	0.2192848	0.4678909	-0.3230161	7.50282	-5.241495	0	0
4.609047	-0.09004532	0.2134205	0.5226552	-0.3539565	1.654674	-0.9348446	0	0
4.625614	-0.08377713	0.2092807	0.3783704	-0.2498939	-4.354589	3.140662	0	0
4.642497	-0.07797317	0.2053189	0.3437774	-0.2346627	-1.034196	0.4553515	0	0
4.659009	-0.0724519	0.2015534	0.3343808	-0.2280488	-0.2813785	0.1980516	0	0
4.675314	-0.07122143	0.2007063	0.07546379	-0.0519493	-7.889634	5.366048	0	0
4.69254	-0.07143089	0.2008145	-0.0121596	0.006277682	-2.613191	1.736502	0	0
4.708544	-0.07143089	0.2008145	0	0	0.3659191	-0.1889144	0	0
4.725013	-0.07143089	0.2008145	0	0	0	0	0	0
4.74158	-0.07143089	0.2008145	0	0	0	0	0	0
4.758146	-0.07143089	0.2008145	0	0	0	0	0	0
4.775091	-0.07143089	0.2008145	0	0	0	0	0	0
4.791281	-0.07143089	0.2008145	0	0	0	0	0	0
4.807847	-0.07137853	0.2008145	0.003160981	0	0.09650268	0	0	0
4.824413	-0.07137853	0.2008145	0	0	-0.09540547	0	0	0
4.84098	-0.07135235	0.2007965	0.001580354	-0.001087449	0.04769656	-0.03282023	0	0
4.857546	-0.07135235	0.2007965	0	0	-0.04769725	0.0328207	0	0
4.87416	-0.0712738	0.2008145	0.004727727	0.001084391	0.1424883	0.03268229	0	0
4.890679	-0.07082869	0.2010127	0.0269446	0.01200154	0.6705355	0.3294943	0	0
4.907683	-0.07030499	0.2013011	0.03079955	0.01695838	0.114994	0.1478635	0	0
4.923813	-0.06026903	0.2065437	0.6221935	0.3250224	17.84882	9.297657	0	0
4.95742	-0.03869121	0.2066517	0.642054	0.003215008	0.3993081	-6.470121	0	0
4.974231	-0.02310115	0.2035355	0.9274044	-0.185377	5.659704	-3.740577	0	0
4.990597	-0.01605125	0.2013371	0.4307649	-0.1343235	-14.96965	1.538851	0	0
5.007275	-0.0130782	0.1993725	0.1782634	-0.1177986	-7.641402	0.5000877	0	0
5.023689	-0.007184087	0.1953335	0.3590871	-0.2460682	5.464267	-3.876148	0	0
5.040257	-0.003447355	0.1927719	0.2255431	-0.1546122	-4.049012	2.772919	0	0
5.056826	0.0008421051	0.1898304	0.2588751	-0.1775249	1.005874	-0.6914477	0	0
5.073392	0.0008684208	0.1898124	0.001588513	-0.00108928	-7.764588	5.324608	0	0
5.089959	0.0008684208	0.1898124	0	0	-0.04794417	0.03287641	0	0
5.106522	0.0008684208	0.1898124	0	0	0	0	0	0
5.123088	0.0008684208	0.1898124	0	0	0	0	0	0
5.139656	0.0008684208	0.1898124	0	0	0	0	0	0
5.156221	0.0009473682	0.1897582	0.00476582	-0.003268926	0.1438389	-0.09866066	0	0
5.172788	0.0009736839	0.1897402	0.001588467	-0.001089248	-0.0958996	0.06578755	0	0
5.189355	0.0009736839	0.1897402	0	0	-0.04794141	0.03287452	0	0
5.205922	0.001026315	0.1897041	0.003176843	-0.002179333	0.09587868	-0.06577335	0	0
5.222489	0.001052631	0.189686	0.001588471	-0.001089248	-0.04793786	0.0328993	0	0
5.239056	0.001052631	0.189686	0	0	-0.04794152	0.03287452	0	0
5.255621	0.001026315	0.1897041	-0.001588608	0.001089342	-0.04794772	0.03287878	0	0
5.272189	0.001026315	0.1897041	0	0	0.04794635	-0.03287784	0	0
5.288756	0.001026315	0.1897041	0	0	0	0	0	0
5.305322	0.001026315	0.1897041	0	0	0	0	0	0
5.321888	0.001052631	0.189686	0.001588471	-0.001089248	0.0479429	-0.03287547	0	0
5.338491	0.001052631	0.189686	0	0	-0.04788982	0.03283908	0	0
5.355021	0.001052631	0.189686	0	0	0	0	0	0
5.371588	0.001052631	0.189686	0	0	0	0	0	0
5.388158	0.001026315	0.1897041	-0.001588151	0.001089029	-0.04792772	0.03286506	0	0
5.405036	0.0009999997	0.1897221	-0.001559115	0.001069123	0.0008680676	-0.0005951126	0	0
5.421571	0.0009999997	0.1897221	0	0	0.04666202	-0.03199728	0	0
5.43806	0.0009999997	0.1897221	0	0	0	0	0	0
5.45457	0.0009736839	0.1897041	-0.00159393	-0.001092992	-0.04830161	-0.03312145	0	0
5.471081	0.0009736839	0.1897041	0	0	0.04827093	0.03310041	0	0
5.487555	0.0009736839	0.1897041	0	0	0	0	0	0
5.504122	0.0009736839	0.1897041	0	0	0	0	0	0
5.520688	0.0009473682	0.1897221	-0.001588513	0.00108928	-0.04794279	0.03287547	0	0
5.537256	0.0009473682	0.1897221	0	0	0.0479421	-0.03287499	0	0
5.55414	0.0009473682	0.1897221	0	0	0	0	0	0
5.586955	0.0009210524	0.1897402	-0.0008019564	0.0005503727	-0.01613632	0.01107416	0	0
5.603521	0.0009210524	0.1897402	0	0	0.0162401	-0.01114538	0	0
5.620088	0.0009210524	0.1897402	0	0	0	0	0	0
5.636654	0.0009210524	0.1897402	0	0	0	0	0	0
5.653221	0.0009210524	0.1897402	0	0	0	0	0	0
5.669788	0.0009210524	0.1897402	0	0	0	0	0	0
5.686355	0.0009210524	0.1897402	0	0	0	0	0	0
5.702922	0.0009210524	0.1897402	0	0	0	0	0	0
5.719488	0.0008947366	0.1897221	-0.001588604	-0.001090242	-0.04794624	-0.03290498	0	0
5.736054	0.0008947366	0.1897221	0	0	0.04794762	0.03290593	0	0
5.752621	0.0008684208	0.1897041	-0.001588471	-0.001089248	-0.04794152	-0.03287452	0	0
5.769188	0.0008684208	0.1897041	0	0	0.04794152	0.03287452	0	0
5.818887	0.0008421051	0.1896499	-0.0005294992	-0.001089569	-0.007990504	-0.01644234	0	0
5.852461	0.0007894735	0.1896138	-0.001567645	-0.001075413	-0.01246679	0.0001699951	0	0
5.869028	0.0007894735	0.1896138	0	0	0.03126512	0.02144804	0	0
5.885594	0.0007631577	0.1895958	-0.001588516	-0.00108928	-0.04794359	-0.03287594	0	0
5.902161	0.0007631577	0.1895958	0	0	0.04794359	0.03287594	0	0
5.918727	0.0007631577	0.1895958	0	0	0	0	0	0
5.935294	0.000736842	0.1896138	-0.001588513	0.00108928	-0.04794348	0.03287594	0	0
5.95186	0.000736842	0.1896138	0	0	0.04794348	-0.03287594	0	0
5.968427	0.000736842	0.1896138	0	0	0	0	0	0
5.984994	0.000736842	0.1896138	0	0	0	0	0	0
6.001561	0.000736842	0.1896138	0	0	0	0	0	0
6.018127	0.000736842	0.1896138	0	0	0	0	0	0
6.051261	0.0007105262	0.1895958	-0.0007942239	-0.0005446163	-0.01598012	-0.01095791	0	0
6.06783	0.0007105262	0.1895958	0	0	0.01597951	0.01095749	0	0
6.084395	0.0007105262	0.1895958	0	0	0	0	0	0
6.100963	0.0007105262	0.1895958	0	0	0	0	0	0
6.117542	0.0007105262	0.1895958	0	0	0	0	0	0
6.134095	0.0007105262	0.1895958	0	0	0	0	0	0
6.150661	0.0007105262	0.1895958	0	0	0	0	0	0
6.167227	0.000736842	0.1895777	0.001588516	-0.00108928	0.04794497	-0.03287689	0	0
6.183794	0.0007105262	0.1895597	-0.001588425	-0.001090116	-0.09588303	-2.52552E-05	0	0
6.200361	0.0007105262	0.1895597	0	0	0.04793945	0.03290025	0	0
6.216927	0.0007105262	0.1895597	0	0	0	0	0	0
6.233493	0.0006842104	0.1895416	-0.001588513	-0.00108928	-0.04794417	-0.03287641	0	0
6.250061	0.0006842104	0.1895416	0	0	0.04794279	0.03287547	0	0
6.266627	0.0006842104	0.1895416	0	0	0	0	0	0
6.283194	0.0006842104	0.1895416	0	0	0	0	0	0
6.299761	0.0006842104	0.1895416	0	0	0	0	0	0
6.316327	0.0006842104	0.1895416	0	0	0	0	0	0
6.332893	0.0006842104	0.1895416	0	0	0	0	0	0
6.349461	0.0006578946	0.1895236	-0.001588425	-0.001089217	-0.04794014	-0.03287357	0	0
6.366027	0.0006578946	0.1895236	0	0	0.04794014	0.03287357	0	0
6.39916	0.0006315788	0.1895055	-0.0007942353	-0.0005450738	-0.01598066	-0.01096733	0	0
6.415749	0.0006315788	0.1895055	0	0	0.01597361	0.01096249	0	0
6.43276	0.0006052631	0.1894875	-0.001546969	-0.001060792	-0.04604159	-0.03157177	0	0
6.44886	0.0006052631	0.1894875	0	0	0.04672055	0.03203736	0	0
6.481994	0.0005789473	0.1894694	-0.0007942124	-0.0005446084	-0.01613125	-0.01106154	0	0
6.49856	0.0005789473	0.1894694	0	0	0.01597989	0.01095775	0	0
6.515318	0.0005526315	0.1894875	-0.001570346	0.00107682	-0.04712323	0.0323134	0	0
6.531693	0.0005	0.1895236	-0.003214127	0.002204908	-0.04961156	0.03404725	0	0
6.548342	-2.631579E-05	0.1899207	-0.0316138	0.02385236	-0.8599874	0.6555194	0	0
6.564855	-0.0005263158	0.1903358	-0.03027941	0.02513897	0.04023948	0.03879867	0	0
6.581393	-0.0008421051	0.1906967	-0.01909405	0.02182563	0.3384221	-0.1002479	0	0
6.59796	-0.00192105	0.1916893	-0.06512526	0.05991052	-1.390425	1.150398	0	0
6.614527	-0.008078772	0.1963074	-0.3717022	0.2787647	-9.252777	6.605223	0	0
6.631094	-0.01570923	0.2024003	-0.4605889	0.3677818	-2.682722	2.686657	0	0
6.64766	-0.02036561	0.2120708	-0.2810672	0.5837273	5.418132	6.517435	0	0
6.664424	-0.01976059	0.2281277	0.03609103	0.9578397	9.515573	11.22435	0	0
6.680794	-0.01755083	0.2409822	0.1349857	0.7852296	2.984691	-5.209458	0	0
6.731538	-0.003026307	0.2844325	0.286231	0.8562649	2.253546	1.058421	0	0
6.748105	0.001526315	0.2926396	0.2748126	0.4954072	-0.1696386	-5.361104	0	0
6.764995	0.01344656	0.3127072	0.7057355	1.188096	12.87998	20.70399	0	0
6.78124	0.02041822	0.3249421	0.4291727	0.7531757	-8.346563	-13.12574	0	0
6.798021	0.02786121	0.3412105	0.4435157	0.9694071	0.4342911	6.547263	0	0
6.814371	0.03175248	0.3532109	0.2380013	0.7339795	-6.202971	-7.105833	0	0
6.831042	0.03456518	0.3648381	0.168716	0.6974447	-2.098222	-1.10641	0	0
6.847554	0.03787661	0.3793816	0.2005541	0.8808137	0.9594808	5.526055	0	0
6.864565	0.03968967	0.3861915	0.1065805	0.4003223	-2.803291	-14.33335	0	0
6.880637	0.04410296	0.3990671	0.2745904	0.8011018	5.07837	12.1142	0	0
6.897204	0.04804195	0.4076563	0.2377646	0.5184588	-1.128274	-8.659664	0	0
6.913771	0.05449861	0.4144955	0.3897361	0.4128295	4.586641	-3.187989	0	0
6.930337	0.06150129	0.4235426	0.4227068	0.5461131	0.9951006	4.02268	0	0
6.946904	0.06614023	0.4290818	0.2800068	0.3343473	-4.30682	-6.391289	0	0
6.963636	0.07349894	0.4343368	0.4398057	0.3140781	4.798917	-0.6087031	0	0
6.980147	0.0778947	0.4373512	0.2662328	0.1825669	-5.221384	-3.956092	0	0
6.996604	0.08126798	0.4395947	0.2049744	0.1363218	-1.858116	-1.402725	0	0
7.013171	0.08137255	0.4396305	0.006311973	0.002165904	-6.015729	-4.062397	0	0
7.029737	0.0813987	0.4396126	0.001578106	-0.001082952	-0.1428725	-0.09805349	0	0
7.046305	0.0815294	0.4395229	0.007889402	-0.005416403	0.190478	-0.1307857	0	0
7.062872	0.08160783	0.439469	0.004733595	-0.003250468	-0.09524109	0.06536712	0	0
7.079438	0.08171239	0.4393972	0.006312068	-0.004333981	0.04764048	-0.03270191	0	0
7.096234	0.08176467	0.4393613	0.00311258	-0.002138041	-0.09590242	0.06582176	0	0
7.112741	0.08184309	0.4393075	0.004750646	-0.003262487	0.04918636	-0.03376382	0	0
7.129137	0.08192151	0.4392536	0.004783154	-0.003282681	0.0009879979	-0.000613773	0	0
7.145704	0.08215676	0.4390562	0.01420025	-0.01191787	0.2856887	-0.2619677	0	0
7.162275	0.08226132	0.4389485	0.006309439	-0.006499626	-0.2381212	0.1635064	0	0
7.178837	0.08231359	0.4388767	0.00315613	-0.00433473	-0.0951698	0.06533857	0	0
7.195404	0.08265337	0.4385716	0.02051057	-0.01841791	0.5238485	-0.4251046	0	0
7.211971	0.08281019	0.4383921	0.009464941	-0.01083249	-0.3333625	0.2289316	0	0
7.228538	0.08304541	0.4381947	0.01419886	-0.01191641	0.1428721	-0.03271318	0	0
7.245105	0.08367261	0.4376922	0.0378577	-0.03033257	0.7140458	-0.5558169	0	0
7.261671	0.08518807	0.4366155	0.09147879	-0.06499338	1.618334	-1.046095	0	0
7.278359	0.08531869	0.4363822	0.007827233	-0.01397758	-2.515487	1.534096	0	0
7.294804	0.08534481	0.4363643	0.001588461	-0.001090991	-0.1882946	0.3889349	0	0
7.311371	0.08529257	0.4363284	-0.003153513	-0.002165904	-0.1436464	-0.03256184	0	0
7.327937	0.08526644	0.4363104	-0.001577252	-0.001082983	0.04757372	0.03268403	0	0
7.344504	0.08524032	0.4362925	-0.001576711	-0.00108472	1.631328E-05	-5.241121E-05	0	0
7.361071	0.08521419	0.4362745	-0.001577206	-0.001082952	-1.49428E-05	5.334856E-05	0	0
7.377637	0.08516194	0.4362386	-0.003154144	-0.002166029	-0.04759482	-0.0326892	0	0
7.394204	0.08513582	0.4362207	-0.001576756	-0.001082952	0.04760839	0.0326892	0	0
7.510171	0.08348968	0.4350903	-0.01419486	-0.009747338	-0.09520649	-0.06537481	0	0
7.526738	0.08228745	0.4342651	-0.07256857	-0.04981399	-0.4404433	-0.3023122	0	0
7.543305	0.08228745	0.4342651	0	0	2.190124	1.503389	0	0
7.559871	0.08228745	0.4342651	0	0	0	0	0	0
7.576437	0.08231359	0.4342471	0.001577701	-0.001082983	0.04761855	-0.03268685	0	0
7.593083	0.08220904	0.4341036	-0.006281063	-0.008622418	-0.2366229	-0.2270081	0	0
7.609592	0.08210448	0.4339601	-0.00633313	-0.008692089	-0.001570413	-0.002101356	0	0
7.626138	0.08194765	0.433709	-0.009479113	-0.01517919	-0.09517606	-0.1962556	0	0
7.642704	0.08163396	0.4332784	-0.01893457	-0.02598725	-0.2855594	-0.3264087	0	0
7.659271	0.07608966	0.4286515	-0.3346645	-0.2792937	-9.529023	-7.645023	0	0
7.694654	0.06716199	0.4029137	-0.2523203	-0.7274189	1.585096	-8.626249	0	0
7.711179	0.06587821	0.3933793	-0.07768362	-0.5769451	3.364349	2.898854	0	0
7.727746	0.06234017	0.3740208	-0.2135628	-1.168516	-4.106042	-17.87628	0	0
7.744314	0.05798755	0.3605155	-0.2627172	-0.815155	-1.483483	10.66445	0	0
7.76088	0.04833075	0.3455498	-0.5829356	-0.9034103	-9.664487	-2.663625	0	0
7.777446	0.03866493	0.336514	-0.5834639	-0.5454313	-0.01594635	10.8046	0	0
7.794224	0.02502109	0.3272101	-0.8131984	-0.5545298	-6.889774	-0.2728664	0	0
7.81058	0.01586709	0.3209594	-0.5596728	-0.38217	7.651528	5.201906	0	0
7.827246	0.004684176	0.313118	-0.6710042	-0.4705016	-3.371441	-2.674937	0	0
7.843713	-0.003368408	0.3071868	-0.4889965	-0.3601727	5.493162	3.329829	0	0
7.86028	-0.008368226	0.3036133	-0.3017983	-0.2157035	5.66678	4.373304	0	0
7.876846	-0.01868204	0.2964291	-0.6225787	-0.4336646	-9.68159	-6.578362	0	0
7.893413	-0.02607304	0.2912273	-0.4461345	-0.3139931	5.325325	3.611849	0	0
7.90998	-0.03514342	0.2849869	-0.5475052	-0.3766802	-3.059462	-1.891955	0	0
7.926546	-0.04197533	0.2802651	-0.4123987	-0.2850279	4.077699	2.766192	0	0
7.943327	-0.04638775	0.2772596	-0.2629437	-0.1791014	4.481793	3.176478	0	0
7.959839	-0.05439366	0.2717302	-0.4848565	-0.3348735	-6.665493	-4.678857	0	0
7.976352	-0.06157994	0.2667538	-0.4351926	-0.3013644	1.503836	1.014665	0	0
7.992813	-0.06603543	0.2636382	-0.2706632	-0.189267	4.989633	3.399545	0	0
8.0094	-0.07161416	0.2597875	-0.3363265	-0.2321498	-1.986868	-1.297567	0	0
8.025948	-0.07582802	0.2569032	-0.2546566	-0.1743073	2.464802	1.74569	0	0
8.042514	-0.07779007	0.2555593	-0.1184369	-0.0811194	4.113724	2.814199	0	0
8.059415	-0.08090198	0.2534268	-0.1841254	-0.1261779	-1.962767	-1.346345	0	0
8.075647	-0.08335901	0.251742	-0.151365	-0.1037909	0.9887406	0.6756608	0	0
8.092214	-0.08333288	0.2517241	0.001577252	-0.001082983	4.663047	3.131457	0	0
8.108781	-0.08330674	0.2517062	0.00157761	-0.001081122	1.083219E-05	5.617068E-05	0	0
8.125347	-0.08328062	0.2516882	0.001577252	-0.001082983	-1.083219E-05	-5.617068E-05	0	0
8.141968	-0.08317608	0.2516165	0.006289717	-0.004312385	0.1419977	-0.09730951	0	0
8.158484	-0.0826011	0.251258	0.03481385	-0.02170791	0.8608105	-0.5249676	0	0
8.175046	-0.08147712	0.2504872	0.06786308	-0.04653941	0.9991245	-0.7506912	0	0
8.241312	-0.0618421	0.237106	0.2963059	-0.2019312	2.758022	-1.876066	0	0
8.25788	-0.06123912	0.2366932	0.03639358	-0.02491654	-3.13774	2.136974	0	0
8.274447	-0.0612129	0.2366753	0.001582333	-0.001082921	-1.050575	0.7192792	0	0
8.291073	-0.0612129	0.2366753	0	0	-0.0476712	0.03262534	0	0
8.307585	-0.06118669	0.2366573	0.001587859	-0.001087451	0.04791753	-0.0328165	0	0
8.324146	-0.06113425	0.2366214	0.003165983	-0.00216749	0.04771579	-0.03265579	0	0
8.340713	-0.06097694	0.2365137	0.009495666	-0.006500597	0.1910687	-0.1307998	0	0
8.357278	-0.06008548	0.2359034	0.05381495	-0.03684244	1.337674	-0.9157975	0	0
8.373845	-0.05911525	0.2352392	0.05856317	-0.04009055	0.1433099	-0.09803403	0	0
8.390642	-0.05289797	0.2310196	0.3701408	-0.2512092	9.338654	-6.327681	0	0
8.406978	-0.04594133	0.2265107	0.4258606	-0.2760186	1.681725	-0.748792	0	0
8.423666	-0.04276339	0.2244442	0.1904292	-0.1238312	-7.129137	4.60841	0	0
8.440111	-0.03708825	0.2209929	0.3450947	-0.2098665	4.667948	-2.596625	0	0
8.456691	-0.03524855	0.2198782	0.1109613	-0.06723738	-7.089625	4.31885	0	0
8.473245	-0.03175248	0.2183856	0.2111934	-0.09016376	3.025096	-0.6919393	0	0
8.489811	-0.02991213	0.2186014	0.1110903	0.01302728	-3.022421	3.115657	0	0
8.506377	-0.02699344	0.2205974	0.1761824	0.1204837	1.964596	3.243227	0	0
8.541749	-0.01826113	0.226385	0.2468724	0.1636223	1.361043	0.8305779	0	0
8.558162	-0.01155212	0.2302474	0.4087685	0.2353283	3.126343	1.3847	0	0
8.574774	-0.004999958	0.2310196	0.394422	0.04648929	-0.4344164	-5.718099	0	0
8.591294	0.002921044	0.2290619	0.4794651	-0.1185057	2.566752	-4.979846	0	0
8.608295	0.01281509	0.2222334	0.5819631	-0.4016494	3.057667	-8.446589	0	0
8.624428	0.01628803	0.2198602	0.2152782	-0.1471083	-11.06689	7.682285	0	0
8.640994	0.02307485	0.2152198	0.4096767	-0.2801104	5.945157	-4.067511	0	0
8.657831	0.0241006	0.2145181	0.06092168	-0.04167375	-10.44071	7.138095	0	0
8.674128	0.0248107	0.2140323	0.04357419	-0.02981076	-0.5235634	0.358036	0	0
8.690694	0.02830823	0.2116389	0.2111234	-0.1444775	5.098466	-3.489271	0	0
8.707276	0.02943886	0.2108649	0.06818246	-0.04667461	-4.312104	2.950423	0	0
8.723826	0.02946515	0.2108109	0.001588701	-0.003262937	-2.009919	1.310242	0	0
8.740393	0.02946515	0.2108109	0	0	-0.04797332	0.0985295	0	0
8.756959	0.02943886	0.2107929	-0.001587146	-0.001086581	-0.04790292	-0.03279497	0	0
8.773525	0.02943886	0.2107929	0	0	0.04790292	0.03279497	0	0
8.790093	0.02943886	0.2107929	0	0	0	0	0	0
8.806659	0.02938627	0.2107929	-0.003174475	0	-0.0958086	0	0	0
8.823225	0.02933369	0.2107569	-0.003174292	-0.002173162	5.516548E-06	-0.06559183	0	0
8.839958	0.0293074	0.2107389	-0.001571316	-0.001075744	0.04813821	0.03295605	0	0
8.85647	0.02925481	0.2107029	-0.003184742	-0.002180316	-0.04853126	-0.03322514	0	0
8.87298	0.02920222	0.2106669	-0.00318511	-0.002180568	-1.114025E-05	-7.628954E-06	0	0
8.889492	0.02917593	0.2106489	-0.001592371	-0.001090158	0.04823277	0.03302079	0	0
8.906057	0.02917593	0.2106489	0	0	0.04814099	0.03295796	0	0
8.923016	0.02914964	0.2106309	-0.001550462	-0.001061467	-0.04624992	-0.0316633	0	0
8.939192	0.02909705	0.2106669	-0.003250948	0.002225563	-0.05132077	0.09920274	0	0
8.955758	0.02909705	0.2106669	0	0	0.09928832	-0.06797168	0	0
8.972551	0.02909705	0.2106669	0	0	0	0	0	0
8.988893	0.02907076	0.2106489	-0.001609006	-0.001101547	-0.04855989	-0.03324474	0	0
9.005575	0.02901817	0.2105769	-0.003152265	-0.004316012	-0.0467317	-0.09733775	0	0
9.022024	0.02899187	0.2105589	-0.001598464	-0.00109433	0.04689786	0.09723896	0	0
9.038598	0.02893929	0.2105229	-0.003172943	-0.002172162	-0.04767842	-0.03263895	0	0
9.055159	0.02891299	0.2105049	-0.001587694	-0.001086956	0.0478429	0.03275156	0	0
9.071725	0.0288867	0.2104869	-0.001587146	-0.001086581	1.655554E-05	1.133339E-05	0	0
9.088634	0.02886041	0.2104689	-0.001555032	-0.00106452	0.0009593276	0.0006590204	0	0
9.10486	0.0288867	0.2104509	0.001620563	-0.001109381	0.09583689	-0.001353862	0	0
9.121426	0.02880782	0.2103969	-0.004761937	-0.003259931	-0.194641	-0.06558328	0	0
9.138169	0.02880782	0.2103969	0	0	0.1429625	0.09786943	0	0
9.154688	0.02880782	0.2103969	0	0	0	0	0	0
9.171126	0.02878152	0.2103789	-0.001599484	-0.001095028	-0.04853235	-0.03322589	0	0
9.187705	0.02878152	0.2103789	0	0	0.04844403	0.03316543	0	0
9.20426	0.02875523	0.2103609	-0.001588356	-0.001087332	-0.04793805	-0.0328167	0	0
9.220831	0.02875523	0.2103609	0	0	0.04794909	0.03282426	0	0
9.237741	0.02875523	0.2103609	0	0	0	0	0	0
9.25396	0.02872894	0.2103429	-0.001621211	-0.001109902	-0.04893669	-0.03350271	0	0
9.320226	0.02872894	0.2103429	0	0	0.0196548	0.01345593	0	0
9.336793	0.02870264	0.2103249	-0.001587167	-0.001086519	-0.01916098	-0.01311693	0	0
9.372453	0.02870264	0.2103249	0	0	0.03038977	0.02080376	0	0
9.389021	0.02867635	0.2103069	-0.001586963	-0.001086456	-0.03038531	-0.02080218	0	0
9.405587	0.02867635	0.2103069	0	0	0.04789465	0.03278931	0	0
9.422369	0.02867635	0.2103069	0	0	0	0	0	0
9.43872	0.02867635	0.2103069	0	0	0	0	0	0
9.455393	0.02865005	0.2102889	-0.00157709	-0.00107962	-0.04775612	-0.03269215	0	0
9.471905	0.02865005	0.2102889	0	0	0.04752418	0.03253337	0	0
9.48842	0.02865005	0.2102889	0	0	0	0	0	0
9.504986	0.02865005	0.2102889	0	0	0	0	0	0
9.521553	0.02865005	0.2102889	0	0	0	0	0	0
9.53812	0.02865005	0.2102889	0	0	0	0	0	0
9.554969	0.02862376	0.2102709	-0.001560554	-0.001068376	-0.0467011	-0.03197219	0	0
9.571253	0.02862376	0.2102709	0	0	0.04710033	0.03224551	0	0
9.611502	0.02859746	0.2102529	-0.0006533093	-0.0004472325	-0.01155628	-0.007911018	0	0
9.627988	0.02859746	0.2102529	0	0	0.01151509	0.007882827	0	0
9.644554	0.02857117	0.2102349	-0.001587258	-0.001086581	-0.04802242	-0.03287445	0	0
9.661121	0.02854488	0.2102168	-0.001587055	-0.001087418	6.152178E-06	-2.525871E-05	0	0
9.678048	0.02851858	0.2101988	-0.001553455	-0.00106344	0.001003166	0.000715881	0	0
9.694255	0.02849229	0.2101808	-0.001622471	-0.001110686	-0.002082967	-0.001425924	0	0
9.710821	0.02849229	0.2101808	0	0	0.04950629	0.03389026	0	0
9.727387	0.02849229	0.2101808	0	0	0	0	0	0
9.744096	0.02846599	0.2101628	-0.001573648	-0.00107734	-0.0472927	-0.03237721	0	0
9.760521	0.0284397	0.2101448	-0.001600898	-0.001095918	-0.0008224313	-0.000560702	0	0
9.777118	0.0284397	0.2101448	0	0	0.04847985	0.03318759	0	0
9.793654	0.0284397	0.2101448	0	0	0	0	0	0
9.810221	0.0284134	0.2101268	-0.001587258	-0.001086581	-0.0479491	-0.03282426	0	0
9.826787	0.02838711	0.2101088	-0.001587258	-0.001086581	0	0	0	0
9.843354	0.02836081	0.2100908	-0.001587167	-0.001086519	2.758115E-06	1.886762E-06	0	0
9.859921	0.02836081	0.2100908	0	0	0.04790217	0.03279214	0	0
9.876689	0.02836081	0.2100908	0	0	0	0	0	0
9.893054	0.02833452	0.2100728	-0.001606662	-0.001099942	-0.04849054	-0.03319726	0	0
9.909711	0.02833452	0.2100728	0	0	0.04865438	0.03330943	0	0
9.926187	0.02830823	0.2100548	-0.001595987	-0.001092556	-0.04816975	-0.03297531	0	0
9.942753	0.02828193	0.2100368	-0.001587258	-0.001086581	0.0002641563	0.0001808347	0	0
10.0023	0.02828193	0.2100368	0	0	0.02085274	0.01427505	0	0
10.01887	0.02825564	0.2100188	-0.001587076	-0.001086456	-0.02084981	-0.01427305	0	0
10.03544	0.02822934	0.2100008	-0.001586893	-0.00108723	5.511924E-06	-2.336156E-05	0	0
10.052	0.02822934	0.2100008	0	0	0.04789528	0.03281456	0	0
10.06857	0.02817675	0.2099648	-0.003174517	-0.002173162	-0.09582365	-0.06559749	0	0
10.08514	0.02815046	0.2099468	-0.001587258	-0.001086581	0.04790631	0.03279497	0	0
10.1017	0.02815046	0.2099468	0	0	0.04790631	0.03279497	0	0
10.11827	0.02812416	0.2099288	-0.001587258	-0.001086581	-0.04790631	-0.03279497	0	0
10.13487	0.02809787	0.2099108	-0.00158434	-0.001084583	8.800899E-05	6.024532E-05	0	0
10.15141	0.02809787	0.2099108	0	0	0.04781272	0.0327309	0	0
10.16797	0.02807157	0.2098928	-0.001587258	-0.001086581	-0.04794495	-0.03282142	0	0
10.18454	0.02807157	0.2098928	0	0	0.04790907	0.03279686	0	0
10.20111	0.02804528	0.2098388	-0.001587076	-0.003260267	-0.0479008	-0.09840073	0	0
10.23502	0.02801898	0.2098208	-0.0007753076	-0.0005307482	0.0160798	0.05406733	0	0
10.25159	0.02801898	0.2098208	0	0	0.01535816	0.01051366	0	0
10.26815	0.02799269	0.2098028	-0.001587258	-0.001086581	-0.04790631	-0.03279497	0	0
10.28497	0.02796639	0.2097848	-0.001563231	-0.001070133	0.0007196636	0.0004926538	0	0
10.30149	0.0279401	0.2097668	-0.001592392	-0.001090095	-0.000874818	-0.0005988685	0	0
10.31785	0.0278875	0.2097308	-0.003213477	-0.002199755	-0.04930477	-0.03374994	0	0
10.33442	0.02783491	0.2096948	-0.003174517	-0.002174062	0.001183048	0.0007801937	0	0
10.35099	0.02775603	0.2096408	-0.004761888	-0.003259743	-0.04790971	-0.03276782	0	0
10.36755	0.02767714	0.2095868	-0.004761888	-0.003260643	0	-2.714626E-05	0	0
10.38454	0.02759825	0.2095328	-0.004642687	-0.003178145	0.003552098	0.002458384	0	0
10.40106	0.027309	0.2093347	-0.017518	-0.01199355	-0.3842972	-0.2631186	0	0
10.41725	0.02725641	0.2092987	-0.003247158	-0.002223731	0.4363082	0.2986965	0	0
10.43382	0.02723011	0.2092807	-0.001587371	-0.001086581	0.05066114	0.03470886	0	0
10.45038	0.02717752	0.2092447	-0.003174742	-0.002173162	-0.04790971	-0.03279497	0	0
10.46695	0.02712492	0.2092087	-0.003174629	-0.002174062	3.39416E-06	-2.715328E-05	0	0
10.48352	0.02704603	0.2091547	-0.004762113	-0.003259743	-0.0479131	-0.03276782	0	0
10.50008	0.02701974	0.2091367	-0.001587258	-0.001086581	0.0958228	0.06558994	0	0
10.51665	0.02694085	0.2090827	-0.004762113	-0.003260643	-0.0958228	-0.06561709	0	0
10.53322	0.02688826	0.2090466	-0.003174742	-0.002174062	0.04790971	0.03279497	0	0
10.54978	0.02678307	0.2089746	-0.006349484	-0.004347224	-0.09581941	-0.06558993	0	0
10.56635	0.02673047	0.2089386	-0.003174376	-0.002172912	0.09582493	0.06562086	0	0
10.58318	0.02607304	0.2084885	-0.03906239	-0.02674435	-1.074535	-0.7357022	0	0
10.59969	0.02559967	0.2081644	-0.02866986	-0.0196303	0.3117003	0.21337	0	0
10.61605	0.02559967	0.2081644	0	0	0.8722879	0.5972569	0	0
10.63261	0.02559967	0.2081644	0	0	0	0	0	0
10.64923	0.02559967	0.2081644	0	0	0	0	0	0
10.66575	0.02559967	0.2081644	0	0	0	0	0	0
10.68231	0.02559967	0.2081644	0	0	0	0	0	0
10.69888	0.02557337	0.2081464	-0.001587483	-0.001086581	-0.04791172	-0.03279402	0	0
10.71545	0.02557337	0.2081464	0	0	0.0479131	0.03279497	0	0
10.73201	0.02557337	0.2081464	0	0	0	0	0	0
10.74858	0.02557337	0.2081464	0	0	0	0	0	0
10.76515	0.02557337	0.2081464	0	0	0	0	0	0
10.78171	0.02557337	0.2081464	0	0	0	0	0	0
10.79828	0.02557337	0.2081464	0	0	0	0	0	0
10.88111	0.02557337	0.2081104	0	-0.0004348073	0	-0.00437438	0	0
10.8979	0.02557337	0.2081104	0	0	0	0.004364665	0	0
10.91424	0.02557337	0.2081104	0	0	0	0	0	0
10.93092	0.02557337	0.2081104	0	0	0	0	0	0
10.94738	0.02554707	0.2080924	-0.001598155	-0.001093886	-0.04823243	-0.03301354	0	0
10.96395	0.02554707	0.2080924	0	0	0.04839261	0.03312318	0	0
10.98051	0.02554707	0.2080924	0	0	0	0	0	0
10.99708	0.02552077	0.2080744	-0.001587483	-0.001087481	-0.04791585	-0.03282401	0	0
11.01364	0.02552077	0.2080744	0	0	0.0479131	0.03282212	0	0
11.03021	0.02552077	0.2080384	0	-0.002173162	0	-0.06558993	0	0
11.047	0.02549447	0.2080203	-0.001566027	-0.001072782	-0.04694393	0.03298547	0	0
11.06352	0.02546818	0.2079663	-0.001592709	-0.003271377	-0.0008011452	-0.06601362	0	0
11.11305	0.02538928	0.2075882	-0.001592771	-0.007634109	-9.289146E-07	-0.06605619	0	0
11.14645	0.02630972	0.2064536	0.0275552	-0.03396495	0.3514461	-0.3174791	0	0
11.21288	0.03109524	0.1638974	0.07203843	-0.6406165	0.4455742	-6.076634	0	0
11.22964	0.03030651	0.1540679	-0.04707935	-0.5867224	-1.431992	0.6478951	0	0
11.24602	0.02865005	0.1298209	-0.1011247	-1.480254	-1.631139	-26.96761	0	0
11.26259	0.02704603	0.1160016	-0.09680761	-0.8340394	0.1310216	19.6123	0	0
11.27917	0.02557337	0.09926399	-0.08879301	-1.009181	0.2417351	-5.282598	0	0
11.29572	0.0246792	0.09169948	-0.05403455	-0.4571208	1.049043	16.6617	0	0
11.31228	0.02275923	0.07776682	-0.1159097	-0.8411223	-1.868634	-11.59686	0	0
11.3292	0.02099691	0.06881638	-0.1041551	-0.5289831	0.3510474	9.321911	0	0
11.34542	0.01897141	0.06029075	-0.1249277	-0.5258381	-0.6269372	0.0949202	0	0
11.36198	0.01531459	0.04829439	-0.2207385	-0.7241433	-2.922871	-6.049637	0	0
11.37855	0.01252566	0.04446703	-0.1683499	-0.2310332	1.581183	14.88295	0	0
11.39525	0.009552341	0.0386815	-0.1780453	-0.3464434	-0.2914514	-3.469307	0	0
11.41176	0.007210401	0.03381918	-0.1418251	-0.2944559	1.090555	1.565292	0	0
11.42827	0.002026313	0.02857707	-0.3139786	-0.3174928	-5.213006	-0.6975831	0	0
11.44482	-0.003315777	0.0248601	-0.3229139	-0.2246805	-0.2703233	2.807867	0	0
11.46138	-0.01002598	0.02001662	-0.4050286	-0.2923527	-2.480011	-2.043822	0	0
11.47795	-0.01394646	0.01715229	-0.2366545	-0.1729011	5.081686	3.605161	0	0
11.49452	-0.01973428	0.01295453	-0.3493734	-0.2533921	-3.402057	-2.429364	0	0
11.51108	-0.0246792	0.009389927	-0.2984931	-0.2151722	1.535659	1.153547	0	0
11.52784	-0.02717752	0.00753111	-0.1490485	-0.1108961	4.484048	3.128777	0	0
11.54436	-0.0314633	0.00446842	-0.2595719	-0.1854944	-3.321742	-2.242023	0	0
11.56079	-0.03141072	0.00446842	0.003200413	0	7.977093	5.631132	0	0
11.57738	-0.03141072	0.00446842	0	0	-0.09691222	0	0	0
11.59392	-0.03141072	0.00446842	0	0	0	0	0	0
11.61048	-0.03141072	0.00446842	0	0	0	0	0	0
11.62741	-0.03141072	0.00446842	0	0	0	0	0	0
11.64362	-0.03141072	0.00446842	0	0	0	0	0	0
11.66018	-0.03141072	0.00446842	0	0	0	0	0	0
11.67695	-0.03143701	0.004487217	-0.001568188	0.00112115	-0.04704636	0.03363501	0	0
11.69332	-0.03143701	0.004487217	0	0	0.04732937	-0.03383735	0	0
11.70988	-0.03143701	0.004487217	0	0	0	0	0	0
11.72645	-0.03143701	0.004487217	0	0	0	0	0	0
11.74301	-0.03143701	0.004487217	0	0	0	0	0	0
11.76001	-0.03143701	0.004487217	0	0	0	0	0	0
11.77615	-0.03143701	0.004487217	0	0	0	0	0	0
11.79271	-0.03143701	0.004487217	0	0	0	0	0	0
11.80954	-0.03143701	0.004487217	0	0	0	0	0	0
11.82585	-0.03143701	0.004487217	0	0	0	0	0	0
11.84242	-0.03143701	0.004487217	0	0	0	0	0	0
11.85898	-0.03143701	0.004487217	0	0	0	0	0	0
11.87559	-0.03143701	0.004487217	0	0	0	0	0	0
11.89211	-0.03143701	0.004487217	0	0	0	0	0	0
11.90868	-0.03143701	0.004487217	0	0	0	0	0	0
11.92525	-0.03143701	0.004487217	0	0	0	0	0	0
11.94182	-0.03143701	0.004487217	0	0	0	0	0	0
11.95838	-0.03143701	0.004487217	0	0	0	0	0	0
11.97495	-0.03143701	0.004487217	0	0	0	0	0	0
12.02465	-0.03143701	0.004487217	0	0	0	0	0	0
12.04121	-0.03143701	0.004487217	0	0	0	0	0	0
12.07539	-0.03143701	0.004487217	0	0	0	0	0	0
12.09196	-0.03143701	0.004487217	0	0	0	0	0	0
12.10852	-0.03143701	0.004487217	0	0	0	0	0	0
12.12509	-0.03143701	0.004487217	0	0	0	0	0	0
12.14165	-0.03143701	0.004487217	0	0	0	0	0	0
12.15829	-0.03143701	0.004487217	0	0	0	0	0	0
12.1748	-0.03143701	0.004487217	0	0	0	0	0	0
12.19136	-0.03143701	0.004487217	0	0	0	0	0	0
12.20792	-0.03143701	0.004487217	0	0	0	0	0	0
12.24134	-0.03172619	0.004806767	-0.008652356	0.009560914	-0.1730927	0.1912686	0	0
12.25762	-0.0324097	0.006084662	-0.04199396	0.07851238	-0.670873	1.387386	0	0
12.27419	-0.03340862	0.007136686	-0.06029806	0.06350391	-0.5573272	-0.4569811	0	0
12.29088	-0.03719337	0.009915468	-0.2267381	0.1664723	-5.004447	3.096008	0	0
12.30732	-0.04381405	0.01509152	-0.4026616	0.3148012	-5.309381	4.476576	0	0
12.3239	-0.05633507	0.02450501	-0.7550747	0.5676761	-10.67117	7.657122	0	0
12.34046	-0.06933604	0.03674479	-0.7855092	0.7395184	-0.9185411	5.186361	0	0
12.35702	-0.07637745	0.04825725	-0.4250448	0.6949334	10.88447	-1.346277	0	0
12.37359	-0.08024835	0.06711638	-0.2336612	1.138405	5.776299	13.38477	0	0
12.39045	-0.08024835	0.08228097	0	0.8992889	6.989746	-7.152925	0	0
12.40696	-0.07925469	0.1013549	0.06017452	1.155093	1.802942	7.664364	0	0
12.42348	-0.07820857	0.1099287	0.06335552	0.5192493	0.09632146	-19.25352	0	0
12.43999	-0.07611582	0.1211541	0.1267491	0.6798748	1.919685	4.864068	0	0
12.4565	-0.07263515	0.1305501	0.2108098	0.5690792	2.545604	-3.355212	0	0
12.47301	-0.06598302	0.14504	0.4028918	0.8775938	5.816802	9.342719	0	0
12.48955	-0.06178967	0.1544854	0.2534323	0.5708466	-4.521236	-9.279284	0	0
12.50612	-0.05911525	0.1606892	0.1614371	0.3744837	-2.77826	-5.930168	0	0
12.52269	-0.055207	0.1735665	0.235916	0.7773184	2.247908	12.15827	0	0
12.53925	-0.05310791	0.1866529	0.1267088	0.7899463	-3.296071	0.3811327	0	0
12.55582	-0.05195321	0.1954598	0.06970197	0.5316116	-1.720569	-7.797004	0	0
12.57258	-0.05011589	0.2039318	0.1096133	0.5054398	1.197528	-0.7852802	0	0
12.58909	-0.04791068	0.2143382	0.1335918	0.6304154	0.7207481	3.756527	0	0
12.6056	-0.04672911	0.219033	0.07155398	0.2843127	-1.878793	-10.4816	0	0
12.62211	-0.04315739	0.2292415	0.2163241	0.6182854	4.383807	10.11308	0	0
12.63865	-0.04276339	0.2325281	0.02382083	0.1987016	-5.824344	-12.69485	0	0
12.65522	-0.04194906	0.2353828	0.04915565	0.1723202	0.7652453	-0.796857	0	0
12.68835	-0.04053042	0.2374291	0.0428145	0.06175661	-0.1275868	-2.224587	0	0
12.70492	-0.04050415	0.2374471	0.001586022	0.001083883	-0.8295345	-1.220761	0	0
12.72168	-0.04037279	0.2375727	0.007836056	0.007494275	0.18752	0.1923312	0	0
12.73869	-0.04024142	0.2376624	0.007722711	0.005275201	-0.003355939	-0.06570292	0	0
12.75462	-0.04024142	0.2376624	0	0	-0.2344824	-0.1601694	0	0
12.77122	-0.04018888	0.2376265	0.003165986	-0.002162881	0.09735131	-0.06650671	0	0
12.78776	-0.04013633	0.2375906	0.003176573	-0.002170114	0.0003194738	-0.0002182497	0	0
12.80474	-0.04013633	0.2375906	0	0	-0.09475643	0.06473399	0	0
12.82089	-0.04011006	0.2376086	0.001627239	0.00111205	0.04911865	0.03356754	0	0
12.83745	-0.04003124	0.2376265	0.00475784	0.001082983	0.09569917	-0.000888556	0	0
12.85402	-0.03997869	0.2376265	0.003172043	0	-0.04786219	-0.03268638	0	0
12.87059	-0.03995241	0.2376086	0.00158593	-0.001082921	-0.04787036	-0.03268356	0	0
12.88715	-0.03992614	0.2376265	0.00158593	0.001082921	0	0.06536523	0	0
12.90372	-0.03992614	0.2376265	0	0	-0.04786623	-0.0326845	0	0
12.92028	-0.03992614	0.2376265	0	0	0	0	0	0
12.93685	-0.03989987	0.2376086	0.001585705	-0.001082921	0.04785806	-0.03268356	0	0
12.96999	-0.03947948	0.2373573	0.01268781	-0.007583812	0.223379	-0.1308007	0	0
12.98655	-0.03887514	0.2369804	0.03647985	-0.02275164	0.4787151	-0.305189	0	0
13.00312	-0.03598446	0.2351495	0.1744818	-0.1105155	4.165027	-2.648794	0	0
13.01968	-0.03398691	0.2338209	0.1205795	-0.08019472	-1.626822	0.9151088	0	0
13.03625	-0.03154217	0.2322229	0.1475733	-0.09646555	0.8147231	-0.4910829	0	0
13.05282	-0.027309	0.2294032	0.2555146	-0.1701975	3.257767	-2.2253	0	0
13.06938	-0.02118104	0.2252529	0.3699054	-0.2505235	3.452422	-2.424312	0	0
13.08595	-0.01323607	0.2198242	0.4795596	-0.3276771	3.309465	-2.328566	0	0
13.10252	-0.0104733	0.217936	0.1667514	-0.1139673	-9.440299	6.449589	0	0
13.11946	-0.007736688	0.2160653	0.1615009	-0.1103969	-0.1566702	0.1065375	0	0
13.13565	-0.005684149	0.214662	0.1267964	-0.08668773	-1.047444	0.715584	0	0
13.15222	-0.005657834	0.2146441	0.001588193	-0.001085494	-3.822357	2.613266	0	0
13.16879	-0.005657834	0.2146441	0	0	-0.04793313	0.03276122	0	0
13.18535	-0.005657834	0.2146441	0	0	0	0	0	0
13.20192	-0.005631519	0.2146261	0.001588467	-0.001085682	0.04794279	-0.03276782	0	0
13.21848	-0.005631519	0.2146261	0	0	-0.04794279	0.03276782	0	0
13.23505	-0.005605204	0.2146081	0.001588467	-0.001086581	0.04794279	-0.03279497	0	0
13.25162	-0.005605204	0.2146081	0	0	-0.04794279	0.03279497	0	0
13.26818	-0.005605204	0.2146081	0	0	0	0	0	0
13.28508	-0.005605204	0.2146081	0	0	0	0	0	0
13.30133	-0.005605204	0.2146081	0	0	0	0	0	0
13.31788	-0.005631519	0.2146261	-0.001589657	0.001087395	-0.04845569	0.03314582	0	0
13.33445	-0.005631519	0.2146261	0	0	0.04799666	-0.03283182	0	0
13.35102	-0.005631519	0.2146261	0	0	0	0	0	0
13.36758	-0.005657834	0.2146441	-0.001588467	0.001085682	-0.04794279	0.03276782	0	0
13.38415	-0.005657834	0.2146441	0	0	0.04794279	-0.03276782	0	0
13.40071	-0.005657834	0.2146441	0	0	0	0	0	0
13.41728	-0.005657834	0.2146441	0	0	0	0	0	0
13.51674	-0.005657834	0.2146081	0	-0.0003618251	0	-0.003118536	0	0
13.53325	-0.005657834	0.2146081	0	0	0	0.003120075	0	0
13.54981	-0.005657834	0.2146081	0	0	0	0	0	0
13.56677	-0.005684149	0.2145901	-0.001551665	-0.001060528	-0.04628318	-0.03163351	0	0
13.58329	-0.005657834	0.2145721	0.001593512	-0.001090032	0.09396159	-0.0008814284	0	0
13.59951	-0.005657834	0.2145721	0	0	-0.04867085	0.03329299	0	0
13.61608	-0.005684149	0.2145541	-0.001588467	-0.001085682	-0.04843915	-0.03310707	0	0
13.63265	-0.005684149	0.2145541	0	0	0.04794141	0.03276688	0	0
13.64921	-0.005684149	0.2145541	0	0	0	0	0	0
13.66578	-0.005684149	0.2145541	0	0	0	0	0	0
13.68236	-0.005684149	0.2145541	0	0	0	0	0	0
13.69892	-0.005710464	0.2145361	-0.00158929	-0.001087144	-0.0479635	-0.03280914	0	0
13.71548	-0.005710464	0.2145361	0	0	0.04798007	0.03282047	0	0
13.73239	-0.005710464	0.2145361	0	0	0	0	0	0
13.74861	-0.005710464	0.2145361	0	0	0	0	0	0
13.76518	-0.005710464	0.2145361	0	0	0	0	0	0
13.78175	-0.005710464	0.2145361	0	0	0	0	0	0
13.79831	-0.005710464	0.2145361	0	0	0	0	0	0
13.81488	-0.005710464	0.2145361	0	0	0	0	0	0
13.83146	-0.005736779	0.2145181	-0.001587069	-0.001084745	-0.04788129	-0.03272636	0	0
13.84801	-0.005736779	0.2145181	0	0	0.0478992	0.03273861	0	0
13.86458	-0.005736779	0.2144821	0	-0.002172263	0	-0.06558922	0	0
13.89801	-0.005736779	0.2144461	0	-0.001076526	0	0.02191717	0	0
13.91452	-0.005736779	0.2144102	0	-0.002179414	0	-0.02208422	0	0
13.93085	-0.005684149	0.2143382	0.003223483	-0.004408221	0.09816075	-0.06787111	0	0
13.94741	-0.005394685	0.2141403	0.01747314	-0.01194699	0.43321	-0.2291896	0	0
13.98055	-7.894737E-05	0.2104689	0.1604339	-0.1108065	2.876487	-1.989133	0	0
13.99711	0.001631577	0.2092987	0.1032534	-0.07063497	-1.150517	0.8082837	0	0
14.01368	0.001631577	0.2092987	0	0	-3.116284	2.131829	0	0
14.03024	0.001631577	0.2092987	0	0	0	0	0	0
14.04681	0.001631577	0.2092987	0	0	0	0	0	0
14.06362	0.001631577	0.2092627	0	-0.002141479	0	-0.06415909	0	0
14.07994	0.001631577	0.2092627	0	0	0	0.06463183	0	0
14.09665	0.001631577	0.2092627	0	0	0	0	0	0
14.11308	0.001631577	0.2092627	0	0	0	0	0	0
14.12964	0.001631577	0.2092627	0	0	0	0	0	0
14.14621	0.001631577	0.2092627	0	0	0	0	0	0
14.16278	0.001631577	0.2092627	0	0	0	0	0	0
14.17934	0.001605262	0.2092807	-0.001588692	0.001086706	-0.0479482	0.0327978	0	0
14.19622	0.001605262	0.2092807	0	0	0.04751467	-0.03250125	0	0
14.21273	0.001605262	0.2092807	0	0	0	0	0	0
14.22904	0.001605262	0.2092807	0	0	0	0	0	0
14.24561	0.001605262	0.2092807	0	0	0	0	0	0
14.26227	0.001605262	0.2092807	0	0	0	0	0	0
14.27877	0.001605262	0.2092807	0	0	0	0	0	0
14.29531	0.001605262	0.2092807	0	0	0	0	0	0
14.31188	0.001605262	0.2092807	0	0	0	0	0	0
14.32844	0.001605262	0.2092807	0	0	0	0	0	0
14.34501	0.001605262	0.2092807	0	0	0	0	0	0
14.36158	0.001605262	0.2092807	0	0	0	0	0	0
14.37814	0.001605262	0.2092807	0	0	0	0	0	0
14.39471	0.001605262	0.2092807	0	0	0	0	0	0
14.41127	0.001605262	0.2092807	0	0	0	0	0	0
14.42784	0.001605262	0.2092807	0	0	0	0	0	0
14.44441	0.001605262	0.2092807	0	0	0	0	0	0
14.46097	0.001605262	0.2092807	0	0	0	0	0	0
14.47754	0.001605262	0.2092807	0	0	0	0	0	0
14.49411	0.001605262	0.2092807	0	0	0	0	0	0
14.51067	0.001605262	0.2092807	0	0	0	0	0	0
14.52724	0.001605262	0.2092807	0	0	0	0	0	0
14.54381	0.001605262	0.2092807	0	0	0	0	0	0
14.56037	0.001605262	0.2092807	0	0	0	0	0	0
14.57694	0.001605262	0.2092807	0	0	0	0	0	0
14.59351	0.001578946	0.2092627	-0.001588608	-0.001086644	-0.04794566	-0.03279591	0	0
14.61007	0.001578946	0.2092267	0	-0.002173162	0.04794842	-0.03279402	0	0
14.62664	0.001499999	0.2091007	-0.00476526	-0.007607429	-0.14382	-0.1640112	0	0
14.64321	0.002131576	0.2084525	0.03812425	-0.03912592	1.294445	-0.9512572	0	0
14.66004	0.005842039	0.2055171	0.2204364	-0.1743927	5.458672	-4.05007	0	0
14.67655	0.01055224	0.2001656	0.2852607	-0.3240956	1.94409	-4.489614	0	0
14.69291	0.01691944	0.1891625	0.3892998	-0.6727442	3.165416	-10.60772	0	0
14.72604	0.02181233	0.1593474	0.147672	-0.8998485	-4.882452	-4.588985	0	0
14.74261	0.02323266	0.1388556	0.08573142	-1.236887	-1.246271	-6.78136	0	0
14.75917	0.0244162	0.1233085	0.0714426	-0.9384813	-0.4312499	9.006163	0	0
14.77574	0.0249422	0.1132222	0.03175101	-0.6088452	-1.197963	9.949012	0	0
14.79231	0.02654639	0.09289375	0.09682409	-1.226955	1.96391	-18.65459	0	0
14.80887	0.02683566	0.08739743	0.0174622	-0.3317965	-2.395216	27.01672	0	0
14.82544	0.02712492	0.08553927	0.01746097	-0.1121652	-3.716115E-05	6.629057	0	0
14.84217	0.02512629	0.0877469	-0.1194824	0.1319765	-4.113188	7.332964	0	0
14.85857	0.0216019	0.0903946	-0.2148223	0.1613854	-2.877447	0.887588	0	0
14.89171	0.01342025	0.0969152	-0.24693	0.1967977	-0.648122	0.71483	0	0
14.90827	-0.003342093	0.1087022	-1.011835	0.7115042	-15.39051	10.35631	0	0
14.92484	-0.01386753	0.1160564	-0.6353533	0.4439304	11.36289	-8.075855	0	0
14.9414	-0.02104952	0.1210445	-0.4335307	0.3010954	6.091369	-4.311018	0	0
14.95797	-0.03459146	0.1304043	-0.8173929	0.5649586	-11.58532	7.963637	0	0
14.97476	-0.04318366	0.1363617	-0.5118206	0.3548703	9.161282	-6.298603	0	0
14.9911	-0.0522419	0.1426035	-0.554189	0.3818776	-1.278755	0.8151301	0	0
15.00778	-0.05809246	0.1466214	-0.3507781	0.2409005	6.15952	-4.268949	0	0
15.02424	-0.06391283	0.1506183	-0.3537212	0.2429038	-0.08882634	0.06046092	0	0
15.04081	-0.06564239	0.1517805	-0.1043846	0.07014253	7.550201	-5.231412	0	0
15.05737	-0.06522314	0.151381	0.02531045	-0.02411714	3.914317	-2.844844	0	0
15.07394	-0.06524935	0.1513629	-0.001581658	-0.001095513	-0.8116755	0.6948541	0	0
15.0905	-0.06527555	0.151381	-0.001581749	0.001095576	-2.747575E-06	0.0661291	0	0
15.10707	-0.06530175	0.1513992	-0.001581749	0.001096475	0	2.714626E-05	0	0
15.12387	-0.06530175	0.1513992	0	0	0.04741386	-0.03286749	0	0
15.14038	-0.06532796	0.151381	-0.00158714	-0.001100212	-0.04765582	-0.03303523	0	0
15.15689	-0.06538036	0.151381	-0.003173363	0	-0.04803129	0.03331474	0	0
15.17334	-0.06545898	0.1513266	-0.004779641	-0.003312362	-0.04873144	-0.1004908	0	0
15.18991	-0.06548518	0.1513084	-0.001581021	-0.001095072	0.09686632	0.06714795	0	0
15.20647	-0.06556379	0.1512176	-0.00474716	-0.005482788	-0.09555703	-0.1324253	0	0
15.22304	-0.06561619	0.1511813	-0.003163048	-0.002192951	0.04782098	0.0993132	0	0
15.2396	-0.06585202	0.1510178	-0.01423529	-0.00986558	-0.3341802	-0.2315737	0	0
15.25617	-0.06616643	0.1507636	-0.01897919	-0.01534706	-0.1431794	-0.1654409	0	0
15.27274	-0.06621883	0.1507273	-0.003163048	-0.002192951	0.4773596	0.3970146	0	0
15.2893	-0.06629743	0.1506365	-0.004744524	-0.005481162	-0.04773041	-0.09924127	0	0
15.30587	-0.06653323	0.1504004	-0.01423267	-0.01425066	-0.2863529	-0.264664	0	0
15.3225	-0.07054066	0.1475119	-0.2409181	-0.1736505	-6.827624	-4.801025	0	0
15.33902	-0.07527854	0.1441492	-0.2869534	-0.2036647	-1.388907	-0.9055424	0	0
15.35557	-0.08087584	0.1399657	-0.3381262	-0.2527194	-1.547652	-1.48359	0	0
15.4881	-0.1612201	0.07937035	-0.6062204	-0.4572091	-1.79824	-1.371614	0	0
15.50467	-0.1677507	0.07466863	-0.3942094	-0.2838126	1.421944	1.162959	0	0
15.52123	-0.1690295	0.07378301	-0.07719493	-0.05345925	9.568068	6.952479	0	0
15.5378	-0.169592	0.07341395	-0.03395281	-0.02227633	1.305087	0.9411295	0	0
15.55437	-0.169592	0.07341395	0	0	1.024727	0.6723203	0	0
15.57093	-0.169592	0.07341395	0	0	0	0	0	0
15.60407	-0.169592	0.07341395	0	0	0	0	0	0
15.62064	-0.169592	0.07341395	0	0	0	0	0	0
15.6372	-0.1696176	0.0734324	-0.001543432	0.001113502	-0.04658221	0.03360651	0	0
15.65377	-0.1696176	0.0734324	0	0	0.04658221	-0.03360651	0	0
15.67033	-0.169592	0.07345086	0.001543521	0.001114015	0.04658623	0.03362299	0	0
15.6869	-0.169592	0.07345086	0	0	-0.04658489	-0.03362202	0	0
15.70377	-0.169592	0.07345086	0	0	0	0	0	0
15.72004	-0.169592	0.07345086	0	0	0	0	0	0
15.7366	-0.169592	0.07345086	0	0	0	0	0	0
15.75331	-0.169592	0.07345086	0	0	0	0	0	0
15.78733	-0.169592	0.07341395	0	-0.001084692	0	-0.02138258	0	0
15.80385	-0.169592	0.07341395	0	0	0	0.02146126	0	0
15.82042	-0.169592	0.07341395	0	0	0	0	0	0
15.83737	-0.169592	0.07341395	0	0	0	0	0	0
15.85355	-0.169592	0.07341395	0	0	0	0	0	0
15.87012	-0.1695665	0.0733955	0.001542621	-0.001114015	0.04710412	-0.03401659	0	0
15.8869	-0.1695665	0.0733955	0	0	-0.04625553	0.03340377	0	0
15.90325	-0.1695665	0.0733955	0	0	0	0	0	0
15.91992	-0.1695665	0.0733955	0	0	0	0	0	0
15.93638	-0.1695665	0.0733955	0	0	0	0	0	0
15.95295	-0.1695665	0.0733955	0	0	0	0	0	0
15.96952	-0.1695665	0.0733955	0	0	0	0	0	0
15.98608	-0.1695409	0.07341395	0.001543787	0.001114208	0.04659294	0.03362783	0	0
16.00265	-0.1695409	0.07341395	0	0	-0.04659562	-0.03362976	0	0
16.0195	-0.1695409	0.07341395	0	0	0	0	0	0
16.03578	-0.1695153	0.0733955	0.001569818	-0.001132995	0.04737994	-0.03419584	0	0
16.05252	-0.1695153	0.0733955	0	0	-0.04753592	0.03430842	0	0
16.08554	-0.1695153	0.0733955	0	0	0	0	0	0
16.10205	-0.1694897	0.07337704	0.00154896	-0.001117941	0.03127315	-0.02257098	0	0
16.11862	-0.1694897	0.07337704	0	0	-0.04683128	0.03379985	0	0
16.13558	-0.1694897	0.07337704	0	0	0	0	0	0
16.15175	-0.1695153	0.07335859	-0.001580553	-0.001140743	-0.04769569	-0.03442373	0	0
16.16832	-0.1695153	0.07335859	0	0	0.04827643	0.03484287	0	0
16.18488	-0.1695153	0.07335859	0	0	0	0	0	0
16.23458	-0.1695409	0.07341395	-0.0005144773	0.001113951	-0.007763478	0.01680956	0	0
16.25116	-0.169592	0.07348777	-0.003084544	0.004453305	-0.03877792	0.05038514	0	0
16.26772	-0.1695665	0.07365385	0.001543421	0.01003044	0.1396803	0.1683279	0	0
16.28428	-0.1697198	0.07387527	-0.009258793	0.01336517	-0.3261053	0.1006714	0	0
16.30085	-0.1703845	0.0744288	-0.04011574	0.0334109	-0.9312645	0.6049812	0	0
16.31742	-0.1731691	0.0768081	-0.1680794	0.1436152	-3.86195	3.325972	0	0
16.35073	-0.1937492	0.09221397	-0.6177667	0.4624478	-9.015206	6.391868	0	0
16.36712	-0.2006576	0.09733734	-0.4216031	0.3126664	3.946972	-3.013723	0	0
16.38375	-0.2154707	0.1087754	-0.8904315	0.6875538	-14.19749	11.35268	0	0
16.40025	-0.2265182	0.1179024	-0.6696044	0.5532008	6.664575	-4.054779	0	0
16.41682	-0.2365152	0.1275233	-0.6034172	0.5807199	2.001684	0.8322512	0	0
16.43339	-0.2455235	0.1421124	-0.5437422	0.8805963	1.800993	9.050287	0	0
16.44995	-0.2458453	0.156046	-0.01942782	0.8410355	15.82384	-1.193947	0	0
16.46652	-0.2428475	0.1706709	0.1809503	0.8827603	6.047424	1.259259	0	0
16.48309	-0.2344499	0.1877002	0.5068825	1.027891	9.836653	4.380039	0	0
16.49966	-0.2202872	0.2010668	0.8548571	0.8068084	10.5019	-6.672274	0	0
16.51635	-0.2074458	0.2101628	0.7690886	0.5447733	-2.578408	-7.877399	0	0
16.53279	-0.1987363	0.2163711	0.5298567	0.3776897	-7.220033	-5.042593	0	0
16.54936	-0.1786791	0.230391	1.210652	0.8462442	20.6272	14.19657	0	0
16.56593	-0.1713811	0.2354187	0.4405113	0.3034724	-23.2429	-16.38089	0	0
16.58249	-0.1613483	0.2420945	0.6055812	0.4029509	4.981818	3.002267	0	0
16.59906	-0.1506396	0.2489275	0.6463787	0.4124399	1.231272	0.2863795	0	0
16.61563	-0.1421918	0.2527278	0.50991	0.2293867	-4.118634	-5.524556	0	0
16.63219	-0.1359716	0.2546813	0.3754515	0.1179106	-4.057965	-3.364355	0	0
16.64895	-0.133646	0.2564015	0.1387939	0.1026626	-7.101868	-0.4575804	0	0
16.66533	-0.1295079	0.259268	0.252653	0.1750175	3.436274	2.183675	0	0
16.69899	-0.128188	0.2601099	0.03921746	0.02501452	-4.265684	-2.997932	0	0
16.71555	-0.128188	0.2601099	0	0	-0.7809649	-0.4981318	0	0
16.73211	-0.1280585	0.2600562	0.0078125	-0.003243366	0.235836	-0.09790752	0	0
16.74868	-0.1258834	0.2585872	0.131288	-0.08866459	3.726497	-2.578018	0	0
16.76525	-0.1225927	0.2563836	0.1986319	-0.133014	2.032443	-1.338467	0	0
16.78181	-0.1170416	0.2526203	0.335065	-0.2271525	4.117561	-2.841107	0	0
16.79856	-0.1095855	0.2478696	0.4452796	-0.2837115	3.308569	-1.697864	0	0
16.81495	-0.1042783	0.2449645	0.3238514	-0.1772716	-3.66492	3.212548	0	0
16.83151	-0.09257672	0.2438704	0.7063072	-0.06604018	11.60534	3.375233	0	0
16.84808	-0.07781623	0.244283	0.8909448	0.02490088	5.572372	2.744607	0	0
16.86465	-0.07111671	0.2438166	0.4043841	-0.02814874	-14.68443	-1.601041	0	0
16.88122	-0.0618421	0.2429197	0.5598168	-0.05413704	4.690968	-0.7843285	0	0
16.89778	-0.05460356	0.2394391	0.4369187	-0.210092	-3.70907	-4.706731	0	0
16.91435	-0.05029964	0.2364958	0.2597852	-0.1776584	-5.345901	0.9788493	0	0
16.93092	-0.04688666	0.234162	0.2060077	-0.1408633	-1.623008	1.110476	0	0
16.94748	-0.04423428	0.2323486	0.160098	-0.1094622	-1.385557	0.947687	0	0
16.96405	-0.03832333	0.2283074	0.3567857	-0.2439261	5.936048	-4.058127	0	0
16.98069	-0.03585305	0.2266186	0.148457	-0.1014935	-6.273652	4.289241	0	0
16.99718	-0.03519599	0.2261694	0.03983928	-0.02723578	-3.278277	2.241233	0	0
17.01375	-0.0348543	0.2259358	0.02062429	-0.01410046	-0.5812144	0.3973169	0	0
17.03032	-0.03480173	0.2258998	0.003172985	-0.00216854	-0.5266814	0.360106	0	0
17.04689	-0.0346966	0.2258279	0.00634597	-0.004338879	0.09576087	-0.06550095	0	0
17.06375	-0.03456518	0.2257381	0.00779262	-0.005327909	0.0432714	-0.02958334	0	0
17.08002	-0.03451261	0.2257022	0.003231622	-0.002208458	-0.1376591	0.09415065	0	0
17.09659	-0.03443375	0.2256483	0.00475959	-0.003254159	0.04653473	-0.03184714	0	0
17.11316	-0.03443375	0.2256483	0	0	-0.1436364	0.09820506	0	0
17.12972	-0.03443375	0.2256483	0	0	0	0	0	0
17.14629	-0.03443375	0.2256483	0	0	0	0	0	0
17.16286	-0.03443375	0.2256483	0	0	0	0	0	0
17.17942	-0.03440747	0.2256303	0.001586788	-0.001084845	0.04788934	-0.03274067	0	0
17.19599	-0.03438118	0.2256123	0.00158638	-0.00108472	-1.229768E-05	3.770118E-06	0	0
17.21256	-0.03372405	0.2251631	0.03966011	-0.02711397	1.149001	-0.7855191	0	0
17.22912	-0.03130556	0.2235096	0.1459805	-0.0998023	3.20857	-2.193612	0	0
17.24588	-0.02573116	0.2196983	0.3326038	-0.2274045	5.599748	-3.828781	0	0
17.26226	-0.01749821	0.2140683	0.5028467	-0.3438683	5.138234	-3.515088	0	0
17.27882	-0.01189418	0.2102349	0.3382604	-0.2313871	-4.99656	3.41474	0	0
17.29542	-0.0070262	0.2069399	0.293325	-0.1985413	-1.354982	0.9904324	0	0
17.31196	-0.005657834	0.2060034	0.08274714	-0.05663297	-6.355619	4.283049	0	0
17.32852	-0.005684149	0.2060214	-0.001588376	0.001087418	-2.547597	1.743611	0	0
17.34509	-0.005684149	0.2060214	0	0	0.04793727	-0.03281834	0	0
17.36166	-0.005684149	0.2060214	0	0	0	0	0	0
17.37822	-0.005684149	0.2060214	0	0	0	0	0	0
17.39479	-0.005684149	0.2060214	0	0	0	0	0	0
17.4115	-0.005684149	0.2060214	0	0	0	0	0	0
17.42801	-0.005710464	0.2060394	-0.001593697	0.001090158	-0.04797083	0.03281415	0	0
17.44453	-0.005710464	0.2060394	0	0	0.04825619	-0.03300935	0	0
17.46106	-0.005736779	0.2060574	-0.00159183	0.001089802	-0.04817184	0.03297951	0	0
17.47762	-0.005736779	0.2060574	0	0	0.04809411	-0.03292629	0	0
17.49419	-0.005789409	0.2060574	-0.003176751	0	-0.09587455	0	0	0
17.51076	-0.005815724	0.2060754	-0.001588376	0.001087418	0.04793727	0.03281834	0	0
17.52759	-0.005842039	0.2060934	-0.001563712	0.001069647	0.0007385258	-0.0005321168	0	0
17.5441	-0.005842039	0.2060934	0	0	0.04690402	-0.03208441	0	0
17.57703	-0.005894668	0.2061294	-0.001598298	0.001094221	-0.03232903	0.02213298	0	0
17.5936	-0.005920983	0.2061474	-0.001588193	0.001086393	0.0002041577	-0.0001581326	0	0
17.61016	-0.005947298	0.2061655	-0.001588559	0.001087543	-1.103917E-05	3.469855E-05	0	0
17.62673	-0.005973613	0.2061835	-0.001588376	0.001087418	5.519903E-06	-3.780659E-06	0	0
17.6433	-0.005973613	0.2061835	0	0	0.04793727	-0.03281834	0	0
17.65986	-0.005973613	0.2061835	0	0	0	0	0	0
17.67643	-0.005894668	0.2061294	0.004765127	-0.003261355	0.1438118	-0.09842788	0	0
17.693	-0.005842039	0.2061294	0.003176723	0	-0.04793812	0.09842788	0	0
17.70956	-0.005815724	0.2061114	0.001588376	-0.001087418	-0.04793642	-0.03281834	0	0
17.72623	-0.005789409	0.2060934	0.001578923	-0.001080947	-0.0002844244	0.0001947177	0	0
17.74274	-0.005710464	0.2060394	0.004781061	-0.00327228	0.09651294	-0.06604711	0	0
17.75926	-0.00547363	0.2058773	0.01433499	-0.009811172	0.2892205	-0.1979481	0	0
17.77627	-0.005105219	0.2056972	0.02166853	-0.01059341	0.2187579	-0.02333407	0	0
17.7924	-0.004894698	0.2055891	0.01305117	-0.006700256	-0.2600874	0.1175025	0	0
17.80896	-0.003789456	0.2048686	0.06671254	-0.04349042	1.641137	-1.125161	0	0
17.82553	0.0008157893	0.2018597	0.2779731	-0.1816141	6.375857	-4.168581	0	0
17.8421	0.004789437	0.1991742	0.2398499	-0.162099	-1.150562	0.5889655	0	0
17.85867	0.01328869	0.1939265	0.513016	-0.3167498	8.244172	-4.667371	0	0
17.87523	0.02078648	0.1925374	0.4525673	-0.08385081	-1.824346	7.028907	0	0
17.8918	0.03188393	0.1948465	0.6698434	0.1393802	6.557404	6.737124	0	0
17.90837	0.0385861	0.1975696	0.404544	0.1643683	-8.006751	0.7541428	0	0
17.92493	0.04567873	0.2016075	0.4281119	0.2437228	0.7112811	2.394925	0	0
17.9415	0.04993214	0.2043462	0.256707	0.165291	-5.172713	-2.366942	0	0
17.95807	0.05127082	0.2051928	0.08082101	0.05111592	-5.308555	-3.446009	0	0
17.97491	0.05664985	0.2087766	0.319348	0.2127635	7.139985	4.838702	0	0
17.9912	0.05885301	0.2102889	0.1352406	0.09283072	-5.556372	-3.619577	0	0
18.0409	0.05995438	0.2110449	0.02215955	0.01521126	-1.713547	-1.176189	0	0
18.07404	0.05984949	0.2110809	-0.003165634	0.001086581	-0.3057333	-0.1705174	0	0
18.0906	0.05984949	0.2110809	0	0	0.06369513	-0.02186289	0	0
18.10717	0.05982327	0.2110629	-0.001582782	-0.001086519	-0.04776846	-0.03279119	0	0
18.12402	0.05979705	0.2110449	-0.001555868	-0.001068195	0.0008053672	0.0005483131	0	0
18.14053	0.05966594	0.2109549	-0.007942257	-0.005452051	-0.1914412	-0.1314124	0	0
18.15687	0.05945616	0.2108109	-0.01283515	-0.008810829	-0.1489366	-0.1022392	0	0
18.17356	0.05932504	0.2107209	-0.007858944	-0.005394707	0.1506678	0.1034322	0	0
18.19	0.05924637	0.2106669	-0.004783265	-0.00328337	0.09283487	0.06372761	0	0
18.20657	0.0591677	0.2106489	-0.004748572	-0.001086519	0.001050853	0.06654243	0	0
18.22314	0.05914148	0.2106309	-0.001583007	-0.001086519	0.09553692	0	0	0
18.2401	0.05911525	0.2106129	-0.001545766	-0.001061109	0.001110628	0.0007577976	0	0
18.25661	0.05908903	0.2105949	-0.00158831	-0.001090158	-0.001270871	-0.0008677766	0	0
18.27284	0.05901036	0.2105409	-0.004848489	-0.003328142	-0.09958474	-0.06836098	0	0
18.28941	0.05882679	0.2104149	-0.01108037	-0.00760563	-0.1900368	-0.1304389	0	0
18.31328	0.05880056	0.2103969	-0.001098506	-0.0007539746	0.2468223	0.1694213	0	0
18.32985	0.05869566	0.2103249	-0.006331804	-0.004346074	-0.1294041	-0.08882209	0	0
18.34642	0.05853831	0.2102168	-0.009497818	-0.006520011	-0.09555048	-0.06560953	0	0
18.36298	0.0583285	0.2100728	-0.01266406	-0.008692148	-0.0955573	-0.06555524	0	0
18.39722	0.05769904	0.2096408	-0.01838732	-0.0126211	-0.1126619	-0.07734101	0	0
18.41365	0.05767281	0.2096228	-0.001596095	-0.001095346	0.3314048	0.2274813	0	0
18.43022	0.05762036	0.2095868	-0.003166239	-0.002173936	-0.04757877	-0.03268363	0	0
18.44678	0.05748921	0.2094607	-0.007915935	-0.007606529	-0.1433461	-0.163956	0	0
18.46335	0.05727938	0.2093167	-0.01266563	-0.008693048	-0.1433461	-0.0327912	0	0
18.47992	0.05691216	0.2090647	-0.02216803	-0.01521571	-0.2867993	-0.1968657	0	0
18.49648	0.05649246	0.2087766	-0.02533306	-0.01738879	-0.09552649	-0.0655876	0	0
18.51305	0.05533818	0.2079843	-0.06967232	-0.04782031	-1.338162	-0.9184249	0	0
18.52962	0.055207	0.2078943	-0.007917959	-0.005434392	1.86375	1.279209	0	0
18.54619	0.055207	0.2078943	0	0	0.2389645	0.1640103	0	0
18.56275	0.055207	0.2078943	0	0	0	0	0	0
18.57935	0.055207	0.2078943	0	0	0	0	0	0
18.59589	0.05518077	0.2078763	-0.001586604	-0.001088524	-0.04788657	-0.0328536	0	0
18.61245	0.05515453	0.2078583	-0.001583639	-0.001086644	8.95745E-05	5.679382E-05	0	0
18.62902	0.05512829	0.2078403	-0.001583682	-0.001087418	-1.282473E-06	-2.336911E-05	0	0
18.6459	0.05504959	0.2077863	-0.004663837	-0.003200759	-0.0921004	-0.06319147	0	0
18.66241	0.05497088	0.2077322	-0.004766735	-0.003271377	-0.003081876	-0.002115076	0	0
18.67892	0.05494464	0.2076782	-0.001588987	-0.00327228	0.09622589	-2.732728E-05	0	0
18.69543	0.05489217	0.2076422	-0.003177974	-0.002181219	-0.04811636	0.03303858	0	0
18.71194	0.05486593	0.2076242	-0.001588945	-0.001090284	0.04812042	0.03303668	0	0
18.72845	0.0548397	0.2076062	-0.001588987	-0.001091061	-1.272667E-06	-2.351438E-05	0	0
18.74499	0.05481346	0.2075882	-0.00158697	-0.001088775	6.102106E-05	6.91767E-05	0	0
18.76155	0.05481346	0.2075882	0	0	0.04794454	0.03289337	0	0
18.77812	0.05478722	0.2075702	-0.001583682	-0.001087418	-0.04779561	-0.03281834	0	0
18.79469	0.05478722	0.2075702	0	0	0.04779286	0.03281645	0	0
18.81125	0.05478722	0.2075702	0	0	0	0	0	0
18.82803	0.05478722	0.2075342	0	-0.002146594	0	-0.06439143	0	0
18.84454	0.05478722	0.2075342	0	0	0	0.06449475	0	0
18.86105	0.05478722	0.2075342	0	0	0	0	0	0
18.87756	0.05476099	0.2075161	-0.001588987	-0.001091061	-0.04811636	-0.03303858	0	0
18.89409	0.05476099	0.2075161	0	0	0.04809414	0.03302332	0	0
18.91066	0.05476099	0.2075161	0	0	0	0	0	0
18.92722	0.05476099	0.2075161	0	0	0	0	0	0
18.94379	0.05476099	0.2075161	0	0	0	0	0	0
18.99349	0.05476099	0.2075161	0	0	0	0	0	0
19.01006	0.05476099	0.2075161	0	0	0	0	0	0
19.02663	0.05476099	0.2075161	0	0	0	0	0	0
19.04319	0.05476099	0.2075161	0	0	0	0	0	0
19.05976	0.05476099	0.2075161	0	0	0	0	0	0
19.07633	0.05476099	0.2075161	0	0	0	0	0	0
19.09289	0.05476099	0.2075161	0	0	0	0	0	0
19.10946	0.05476099	0.2075161	0	0	0	0	0	0
19.12624	0.05476099	0.2075161	0	0	0	0	0	0
19.14276	0.05476099	0.2075161	0	0	0	0	0	0
19.15927	0.05473475	0.2074981	-0.00158862	-0.001089906	-0.0480997	-0.03299982	0	0
19.17578	0.05473475	0.2074981	0	0	0.04810525	0.03300363	0	0
19.1923	0.05473475	0.2074981	0	0	0	0	0	0
19.2093	0.05473475	0.2074981	0	0	0	0	0	0
19.22581	0.05473475	0.2074981	0	0	0	0	0	0
19.24199	0.05473475	0.2074981	0	0	0	0	0	0
19.25856	0.05473475	0.2074981	0	0	0	0	0	0
19.29169	0.05473475	0.2074981	0	0	0	0	0	0
19.30837	0.05473475	0.2074981	0	0	0	0	0	0
19.32488	0.05473475	0.2074981	0	0	0	0	0	0
19.3414	0.05473475	0.2074981	0	0	0	0	0	0
19.35796	0.05473475	0.2074981	0	0	0	0	0	0
19.37453	0.05473475	0.2074981	0	0	0	0	0	0
19.39109	0.05470851	0.2074801	-0.001583682	-0.001087418	-0.04779561	-0.03281834	0	0
19.40766	0.05470851	0.2074441	0	-0.002173936	0.04779561	-0.03279119	0	0
19.42445	0.05465604	0.2074081	-0.003124911	-0.002144799	-0.09367373	0.0008734274	0	0
19.44097	0.05460356	0.2073001	-0.003177974	-0.006543657	-0.001593262	-0.1320811	0	0
19.45748	0.05452485	0.207138	-0.004767512	-0.009816168	-0.04813583	-0.09910116	0	0
19.47399	0.0544199	0.2068498	-0.006356173	-0.01745065	-0.0481093	-0.2311945	0	0
19.4905	0.05394761	0.2059854	-0.02859981	-0.05234953	-0.6735244	-1.056717	0	0
19.50706	0.04974839	0.2009767	-0.2535819	-0.3024631	-6.802502	-7.562372	0	0
19.52363	0.04628271	0.1864724	-0.2091888	-0.875483	1.340094	-17.29776	0	0
19.5402	0.04536359	0.177166	-0.0554781	-0.5617337	4.638997	9.468973	0	0
19.55676	0.04357766	0.1573886	-0.1077994	-1.193767	-1.57906	-19.07481	0	0
19.57333	0.04229056	0.1424034	-0.07768922	-0.904506	0.9087273	8.729924	0	0
19.5899	0.0409245	0.127724	-0.08245534	-0.8860523	-0.1438416	0.5569343	0	0
19.60647	0.03871748	0.1097456	-0.1332008	-1.08505	-1.531412	-6.005429	0	0
19.6231	0.03732476	0.09730063	-0.08374648	-0.7483383	1.489618	10.14214	0	0
19.63961	0.0353274	0.08281498	-0.120951	-0.8771832	-1.12251	-3.887429	0	0
19.65616	0.03296174	0.07348777	-0.1429067	-0.563446	-0.6639629	9.487721	0	0
19.67273	0.03156846	0.06826211	-0.08409883	-0.3154214	1.77554	7.488417	0	0
19.6893	0.02699344	0.0558636	-0.2761484	-0.7483756	-5.796068	-13.06658	0	0
19.70587	0.02554707	0.05413955	-0.08730307	-0.1040634	5.699364	19.44538	0	0
19.72243	0.0167879	0.04424396	-0.5287049	-0.5972994	-13.32154	-14.88589	0	0
19.739	0.01518304	0.04136144	-0.09686907	-0.1739894	13.03283	12.77552	0	0
19.75557	0.01263091	0.03817879	-0.1540473	-0.1921047	-1.725642	-0.5467212	0	0
19.77213	0.006210446	0.03195453	-0.3875398	-0.3756975	-7.046817	-5.540843	0	0
19.78872	0.002868413	0.02951039	-0.2015399	-0.1473929	5.610903	6.887076	0	0
19.80527	-0.001631577	0.02631746	-0.2719017	-0.1929254	-2.123645	-1.374253	0	0
19.82183	-0.003210515	0.02515909	-0.09530487	-0.06991933	5.332465	3.714255	0	0
19.8384	-0.003236831	0.0251404	-0.001588587	-0.001128022	2.828526	2.076245	0	0
19.8881	-0.003210515	0.02512172	0.0005294679	-0.0003759642	0.03196243	0.01134891	0	0
19.9048	-0.003210515	0.02512172	0	0	-0.007973852	0.005662066	0	0
19.92131	-0.003210515	0.02512172	0	0	0	0	0	0
19.9378	-0.003236831	0.02510303	-0.001595937	-0.001133355	-0.04836034	-0.0343431	0	0
19.95437	-0.003236831	0.02510303	0	0	0.04827942	0.03428563	0	0
19.97094	-0.003236831	0.02510303	0	0	0	0	0	0
19.9875	-0.003236831	0.02510303	0	0	0	0	0	0
20.00407	-0.003236831	0.02510303	0	0	0	0	0	0
20.02064	-0.003236831	0.02510303	0	0	0	0	0	0
20.0374	-0.003236831	0.02510303	0	0	0	0	0	0
20.05377	-0.003263146	0.02508434	-0.001607292	-0.001141295	-0.04851097	-0.03444633	0	0
20.07042	-0.003263146	0.02508434	0	0	0.04867349	0.03456173	0	0
20.0869	-0.003263146	0.02508434	0	0	0	0	0	0
20.10347	-0.003263146	0.02508434	0	0	0	0	0	0
20.12004	-0.003263146	0.02508434	0	0	0	0	0	0
20.13697	-0.003289462	0.02506566	-0.001554227	-0.001103625	-0.04639655	-0.03294523	0	0
20.15317	-0.003289462	0.02506566	0	0	0.04690667	0.03330746	0	0
20.16999	-0.003315777	0.02504697	-0.001564626	-0.00111112	-0.04738144	-0.03364793	0	0
20.20419	-0.003315777	0.02500959	0	-0.001092968	0.03067056	0.0003558186	0	0
20.22075	-0.003342093	0.02499091	-0.001588404	-0.001128005	-0.03129109	-0.000690222	0	0
20.23754	-0.003394724	0.02495353	-0.003135667	-0.002226674	-0.04639206	-0.03294171	0	0
20.25389	-0.003526301	0.0248601	-0.008048579	-0.005715585	-0.1482805	-0.1053016	0	0
20.27056	-0.005394685	0.023533	-0.1120406	-0.07958119	-3.148999	-2.236736	0	0
20.28707	-0.008973443	0.02098959	-0.2167629	-0.1540531	-3.155622	-2.244078	0	0
20.30358	-0.01084168	0.01966104	-0.1131448	-0.08045952	3.137859	2.228627	0	0
20.32015	-0.01270984	0.018332	-0.1127624	-0.08022102	0.01155906	0.007209997	0	0
20.33672	-0.01442005	0.01707738	-0.1032285	-0.07572947	0.2877338	0.1355553	0	0
20.35328	-0.0164985	0.01559746	-0.1254555	-0.08932781	-0.6708096	-0.4103989	0	0
20.36985	-0.0164985	0.01563494	0	0.002261856	3.786253	2.764182	0	0
20.38642	-0.0164985	0.01563494	0	0	0	-0.06826689	0	0
20.40298	-0.0164985	0.01563494	0	0	0	0	0	0
20.41955	-0.0164985	0.01563494	0	0	0	0	0	0
20.43618	-0.0164985	0.01563494	0	0	0	0	0	0
20.45269	-0.0164985	0.01563494	0	0	0	0	0	0
20.46925	-0.0164985	0.01563494	0	0	0	0	0	0
20.48582	-0.0164985	0.01563494	0	0	0	0	0	0
20.50239	-0.0164985	0.01563494	0	0	0	0	0	0
20.51895	-0.0164985	0.01563494	0	0	0	0	0	0
20.53575	-0.01652481	0.01565367	-0.001566604	0.001115755	-0.04695852	0.03344444	0	0
20.55226	-0.01660374	0.01578483	-0.004779381	0.007942099	-0.09645654	0.2049459	0	0
20.56877	-0.01686682	0.01612206	-0.01593296	0.02042366	-0.3377238	0.3779343	0	0
20.58529	-0.01920816	0.01853795	-0.1417807	0.1462947	-3.810595	3.811299	0	0
20.6018	-0.02691455	0.02521515	-0.4667707	0.4044336	-9.841075	7.816747	0	0
20.61836	-0.04192279	0.04100794	-0.9063166	0.9536939	-13.29153	16.60922	0	0
20.63492	-0.05268803	0.05716076	-0.6499408	0.975211	7.74011	0.6496117	0	0
20.65149	-0.06081963	0.07568317	-0.4908244	1.118015	4.802695	4.310316	0	0
20.66806	-0.06532796	0.09533643	-0.2720917	1.186137	6.600987	2.055809	0	0
20.68462	-0.06930985	0.1275416	-0.2403477	1.943907	0.9579794	22.86824	0	0
20.70119	-0.07075013	0.1444946	-0.08694544	1.023405	4.629956	-27.78241	0	0
20.71776	-0.07164034	0.1635531	-0.0537332	1.150373	1.002405	3.832123	0	0
20.73432	-0.07195451	0.1678646	-0.01896326	0.2602419	1.049359	-26.86421	0	0
20.7509	-0.07192833	0.1841244	0.001579036	0.9806507	0.619718	21.73322	0	0
20.76746	-0.07184979	0.1982187	0.004745297	0.8515211	0.09556344	-3.897365	0	0
20.78403	-0.07082869	0.2103789	0.0616192	0.7338184	1.717051	-3.553503	0	0
20.80059	-0.0706454	0.2131326	0.01106733	0.1662732	-1.525746	-17.12953	0	0
20.81716	-0.06464663	0.2275708	0.3620864	0.8714922	10.5956	21.28723	0	0
20.83372	-0.06199938	0.2320433	0.1597882	0.2699594	-6.105371	-18.1543	0	0
20.92153	-0.02507369	0.2589814	0.4205521	0.3068019	2.498454	0.3529991	0	0
20.93804	-0.02236469	0.2606831	0.1640634	0.1030597	-2.458795	-1.953148	0	0
20.95448	-0.02020778	0.2614354	0.1311885	0.04575479	-0.9976228	-1.738974	0	0
20.97105	-0.01999733	0.2612204	0.01270228	-0.01297346	-3.589558	-1.779181	0	0
20.98761	-0.01999733	0.2612204	0	0	-0.3833557	0.3915399	0	0
21.00418	-0.01994472	0.2611846	0.003175571	-0.002162244	0.09583892	-0.06525666	0	0
21.02075	-0.01991842	0.2611667	0.001588024	-0.001081246	-0.047915	0.03262645	0	0
21.03731	-0.0198395	0.261113	0.004763412	-0.003243366	0.09583891	-0.06525665	0	0
21.07263	-0.01841897	0.2601457	0.04022075	-0.02738615	0.6833752	-0.465308	0	0
21.08915	-0.01599864	0.2584977	0.1465641	-0.09979752	2.051686	-1.397034	0	0
21.10616	-0.01286771	0.2563657	0.1840667	-0.1253417	1.118692	-0.7619756	0	0
21.12228	-0.006447279	0.2519929	0.3982202	-0.2712129	6.463538	-4.402656	0	0
21.13918	-2.631579E-05	0.2476186	0.3799587	-0.2588495	-0.553012	0.3743998	0	0
21.15541	0.004236817	0.2447134	0.2625833	-0.1789422	-3.542394	2.411605	0	0
21.1722	0.008447167	0.2417357	0.250788	-0.1773665	-0.3571757	0.04771608	0	0
21.18855	0.01665635	0.2359932	0.5022731	-0.3513537	7.590271	-5.251247	0	0
21.20511	0.02360088	0.2311454	0.4191724	-0.2926135	-2.524989	1.784804	0	0
21.22168	0.02970179	0.2269779	0.3682517	-0.2515479	-1.536791	1.239361	0	0
21.23825	0.03474917	0.2235276	0.3046602	-0.2082626	-1.919195	1.306355	0	0
21.25978	0.03877003	0.2207772	0.1866891	-0.1277017	-3.095945	2.11418	0	0
21.27635	0.03953202	0.2202557	0.04599378	-0.03147306	-3.692306	2.525354	0	0
21.29292	0.03958457	0.2202198	0.003171861	-0.002170339	-1.292368	0.8843579	0	0
21.30949	0.03961085	0.2202018	0.00158593	-0.001085619	-0.04786347	0.0327369	0	0
21.32631	0.03961085	0.2202018	0	0	-0.04749168	0.03250954	0	0
21.37575	0.03961085	0.2202018	0	0	0	0	0	0
21.39232	0.03958457	0.2201838	-0.00158593	-0.00108472	-0.02402648	-0.01643325	0	0
21.40889	0.0395583	0.2201658	-0.00158593	-0.001085619	0	-2.714469E-05	0	0
21.42546	0.0395583	0.2201658	0	0	0.04786347	0.03276405	0	0
21.44202	0.03947948	0.2201119	-0.004757791	-0.003255958	-0.1435904	-0.09826501	0	0
21.45859	0.0394532	0.2200939	-0.00158593	-0.001085619	0.09572694	0.06550095	0	0
21.47542	0.03942693	0.220076	-0.001560951	-0.001067635	0.0007479011	0.0005384659	0	0
21.49172	0.03940065	0.220058	-0.001611722	-0.001103275	-0.001532287	-0.001075616	0	0
21.50845	0.03940065	0.220058	0	0	0.04880482	0.03340843	0	0
21.52496	0.03940065	0.220058	0	0	0	0	0	0
21.54148	0.03940065	0.220058	0	0	0	0	0	0
21.55799	0.0393481	0.220022	-0.003181751	-0.002177106	-0.09631929	-0.06590627	0	0
21.57456	0.03932182	0.220004	-0.001586155	-0.001085619	0.04823013	0.03299242	0	0
21.59113	0.03929555	0.219986	-0.00158593	-0.001085619	6.784417E-06	0	0	0
21.60769	0.03921673	0.2199321	-0.004757791	-0.003255958	-0.09572694	-0.06550095	0	0
21.64104	0.03916417	0.2198961	-0.001575793	-0.001078156	0.0637455	0.04362826	0	0
21.65739	0.0391379	0.2198782	-0.001607022	-0.001100057	-0.000628355	-0.0004406585	0	0
21.67396	0.0391379	0.2198782	0	0	0.04882039	0.03341909	0	0
21.69053	0.03911162	0.2198602	-0.001586155	-0.001085619	-0.04787026	-0.03276405	0	0
21.70709	0.03908535	0.2198422	-0.00158593	-0.00108472	6.784417E-06	2.714469E-05	0	0
21.72366	0.03905907	0.2198242	-0.00158593	-0.001085619	0	-2.714469E-05	0	0
21.74023	0.03905907	0.2197883	0	-0.002170339	0.04786347	-0.0327369	0	0
21.75681	0.03905907	0.2197883	0	0	0	0.06546704	0	0
21.77336	0.0390328	0.2197703	-0.001587758	-0.00108687	-0.0479214	-0.0328037	0	0
21.78993	0.0390328	0.2197703	0	0	0.04794624	0.03282071	0	0
21.80666	0.0390328	0.2197703	0	0	0	0	0	0
21.82317	0.03900652	0.2197523	-0.001591469	-0.001089256	-0.04787079	-0.03276441	0	0
21.83969	0.03900652	0.2197523	0	0	0.04819151	0.03298393	0	0
21.8562	0.03898025	0.2197343	-0.001591243	-0.001089256	-0.04818468	-0.03298393	0	0
21.87276	0.03898025	0.2197343	0	0	0.04810688	0.03293067	0	0
21.88972	0.03895397	0.2197163	-0.001549583	-0.001059709	-0.04622371	-0.03161088	0	0
21.9059	0.03895397	0.2197163	0	0	0.04676921	0.03198393	0	0
21.94034	0.03887514	0.2196624	-0.002288633	-0.001566134	-0.04521451	-0.03094074	0	0
21.95727	0.03887514	0.2196624	0	0	0.04455139	0.03048696	0	0
21.97378	0.03884887	0.2196444	-0.001591059	-0.00108913	-0.04757733	-0.03256817	0	0
21.99004	0.03884887	0.2196444	0	0	0.04854643	0.03323155	0	0
22.00661	0.03882259	0.2196264	-0.001586155	-0.001085619	-0.04831806	-0.03307054	0	0
22.02332	0.03884887	0.2196084	0.001572756	-0.001076448	0.09493174	0.0002755993	0	0
22.03983	0.03882259	0.2195905	-0.001591469	-0.001088353	-0.09524976	-0.0003583647	0	0
22.05634	0.03884887	0.2195725	0.001591469	-0.001089256	0.09638303	-2.732728E-05	0	0
22.07287	0.03882259	0.2195545	-0.001589266	-0.001087748	-0.09624962	4.562665E-05	0	0
22.08944	0.03884887	0.2195365	0.001586155	-0.001085619	0.09592826	6.431287E-05	0	0
22.10601	0.03887514	0.2195185	0.00158593	-0.00108472	-6.784417E-06	2.714469E-05	0	0
22.12258	0.03887514	0.2194826	0	-0.002171238	-0.04786347	-0.03279119	0	0
22.1394	0.03890142	0.2194646	0.001562057	-0.001069126	0.04678212	0.03300722	0	0
22.15571	0.03892769	0.2194466	0.00161078	-0.001101716	0.001470462	-0.0009835789	0	0
22.17228	0.03900652	0.2193567	0.004758016	-0.005427196	0.09572212	-0.131558	0	0
22.18884	0.03919045	0.2192308	0.01110324	-0.007599309	0.1915103	-0.06555827	0	0
22.20545	0.03976849	0.2188352	0.03481076	-0.02382427	0.7147128	-0.4891352	0	0
22.22198	0.0401626	0.2185654	0.02384593	-0.01632195	-0.3309383	0.2264334	0	0
22.23854	0.04053042	0.2183136	0.0222019	-0.01519777	-0.04967704	0.03396894	0	0
22.25548	0.04050415	0.2182957	-0.001551108	-0.001061782	-0.7089097	0.4218892	0	0
22.27168	0.04050415	0.2182957	0	0	0.04681523	0.03204649	0	0
22.28824	0.04050415	0.2182957	0	0	0	0	0	0
22.30481	0.04050415	0.2182597	0	-0.002171238	0	-0.06552809	0	0
22.32137	0.04050415	0.2182597	0	0	0	0.06553187	0	0
22.33794	0.04050415	0.2182237	0	-0.002170339	0	-0.06550472	0	0
22.35451	0.04050415	0.2182237	0	0	0	0.06550095	0	0
22.37108	0.04050415	0.2181878	0	-0.002171238	0	-0.06552809	0	0
22.38764	0.04050415	0.2181878	0	0	0	0.06552809	0	0
22.40459	0.04047788	0.2181698	-0.001550364	-0.001061424	-0.0462628	-0.03167284	0	0
22.42078	0.04047788	0.2181698	0	0	0.04679279	0.03203567	0	0
22.43734	0.04047788	0.2181698	0	0	0	0	0	0
22.47048	0.04047788	0.2181698	0	0	0	0	0	0
22.48704	0.04047788	0.2181698	0	0	0	0	0	0
22.50361	0.04047788	0.2181698	0	0	0	0	0	0
22.52018	0.04047788	0.2181698	0	0	0	0	0	0
22.53675	0.04047788	0.2181698	0	0	0	0	0	0
22.55331	0.04047788	0.2181698	0	0	0	0	0	0
22.56988	0.04047788	0.2181698	0	0	0	0	0	0
22.60301	0.04047788	0.2181698	0	0	0	0	0	0
22.61958	0.04047788	0.2181698	0	0	0	0	0	0
22.63626	0.04047788	0.2181698	0	0	0	0	0	0
22.65277	0.04047788	0.2181698	0	0	0	0	0	0
22.66928	0.04047788	0.2181698	0	0	0	0	0	0
22.68585	0.04047788	0.2181698	0	0	0	0	0	0
22.70241	0.04047788	0.2181698	0	0	0	0	0	0
22.71898	0.04047788	0.2181698	0	0	0	0	0	0
22.73555	0.04047788	0.2181698	0	0	0	0	0	0
22.75234	0.04050415	0.2181518	0.00156463	-0.00107119	0.04690741	-0.03211414	0	0
22.76868	0.04053042	0.2181338	0.001607584	-0.001100442	0.001296368	-0.0008828209	0	0
22.80337	0.04100332	0.2177741	0.01363096	-0.01036813	0.2355824	-0.1815882	0	0
22.81989	0.04179144	0.2171626	0.04773052	-0.0370356	0.6659461	-0.5208014	0	0
22.8364	0.04730678	0.2132766	0.3340218	-0.2353469	8.669232	-6.005097	0	0
22.85295	0.05237311	0.2095868	0.3061568	-0.2229732	-0.8428594	0.3742802	0	0
22.86992	0.06535416	0.200418	0.7646974	-0.540122	13.67816	-9.460475	0	0
22.88608	0.07653443	0.1925374	0.6919702	-0.4877468	-2.195036	1.580778	0	0
22.90294	0.09124592	0.1806732	0.8722219	-0.7034095	5.458231	-6.530516	0	0
22.91946	0.09721886	0.1679189	0.3617353	-0.7724268	-15.29383	-2.067711	0	0
22.93597	0.09815722	0.1460398	0.05682901	-1.325051	-9.232918	-16.73411	0	0
22.95235	0.09805297	0.1283076	-0.006364999	-1.082659	-1.921356	7.369701	0	0
22.96899	0.09820934	0.110734	0.009394336	-1.055762	0.477211	0.8144962	0	0
22.9855	0.09836572	0.09922729	0.00947075	-0.6968701	0.002304562	10.82389	0	0
23.00205	0.09906935	0.07267573	0.04252967	-1.604873	1.00008	-27.46841	0	0
23.01862	0.09938204	0.05417664	0.01887376	-1.116607	-0.7144302	14.74608	0	0
23.03518	0.09979893	0.04623255	0.02516352	-0.4795063	0.1898252	19.22774	0	0
23.05175	0.1002418	0.03583195	0.02673393	-0.6277813	0.04739521	-4.474946	0	0
23.06857	0.1012578	0.02495353	0.06041108	-0.6468667	1.008772	-0.5716895	0	0
23.08508	0.1053714	0.02042829	0.2491615	-0.2740908	5.663572	11.18537	0	0
23.10145	0.1110414	0.0164218	0.3463038	-0.244706	2.954208	0.8936249	0	0
23.11802	0.1142892	0.01407943	0.1960433	-0.1413857	-4.561656	3.136631	0	0
23.13461	0.1162368	0.01267325	0.1173666	-0.08474065	-2.372554	1.708175	0	0
23.15115	0.1192214	0.01051599	0.1804601	-0.1304375	1.904274	-1.379214	0	0
23.16772	0.1203627	0.009690246	0.06888481	-0.04983628	-3.370065	2.434513	0	0
23.18465	0.1203627	0.009690246	0	0	-2.056339	1.487705	0	0
23.20085	0.1203627	0.009690246	0	0	0	0	0	0
23.21767	0.1203368	0.009709015	-0.001541684	0.001115739	-0.0466813	0.03378393	0	0
23.23418	0.1203368	0.009709015	0	0	0.04625124	-0.03347269	0	0
23.2507	0.1203368	0.009709015	0	0	0	0	0	0
23.26712	0.1203368	0.009709015	0	0	0	0	0	0
23.28372	0.1203368	0.009709015	0	0	0	0	0	0
23.30025	0.1203368	0.009709015	0	0	0	0	0	0
23.31682	0.1203368	0.009709015	0	0	0	0	0	0
23.41622	0.1202849	0.009746553	-0.0005218977	0.0003776319	-0.004500258	0.003256272	0	0
23.43279	0.1202849	0.009746553	0	0	0.004500332	-0.003256326	0	0
23.44936	0.1202849	0.009746553	0	0	0	0	0	0
23.46592	0.1202849	0.009746553	0	0	0	0	0	0
23.48249	0.1203109	0.009765322	0.001565468	0.001132896	0.04724592	0.03419086	0	0
23.49906	0.1203109	0.009765322	0	0	-0.0472432	-0.03418889	0	0
23.51562	0.1203109	0.009765322	0	0	0	0	0	0
23.53219	0.1203109	0.009765322	0	0	0	0	0	0
23.54891	0.1203109	0.009765322	0	0	0	0	0	0
23.56532	0.1203368	0.009746553	0.001580658	-0.00114356	0.04770435	-0.0345127	0	0
23.58189	0.1203627	0.009727784	0.001565648	-0.001133026	-0.0004551408	0.0003194161	0	0
23.59846	0.1204146	0.009690246	0.003130936	-0.002265848	0.0472432	-0.03419059	0	0
23.61502	0.120648	0.00952132	0.01408921	-0.0101964	0.3307215	-0.2393445	0	0
23.63159	0.1208296	0.009389927	0.01095738	-0.007930888	-0.09451899	0.06837326	0	0
23.64816	0.1209074	0.009333613	0.004696495	-0.003399472	-0.1889647	0.1367663	0	0
23.66472	0.1212704	0.009070807	0.02191386	-0.01586301	0.5196509	-0.3761721	0	0
23.68129	0.1234221	0.007512329	0.1298754	-0.09406992	3.258286	-2.360289	0	0
23.69802	0.1271524	0.004806767	0.2230041	-0.1617439	2.797106	-2.032576	0	0
23.71442	0.1378569	-0.002983875	0.6525086	-0.4748913	12.96322	-9.451352	0	0
23.73099	0.1422176	-0.006169375	0.2632127	-0.1922771	-11.80674	8.571251	0	0
23.74756	0.149559	-0.01154841	0.4431323	-0.324679	5.429984	-3.995897	0	0
23.78308	0.158142	-0.01790154	0.2416091	-0.1788386	-3.868632	2.799692	0	0
23.79929	0.1618866	-0.02062818	0.2310222	-0.1682218	-0.2046444	0.2052231	0	0
23.81586	0.164628	-0.02269367	0.165471	-0.1246732	-1.999982	1.328679	0	0
23.83243	0.1679553	-0.02512094	0.2008377	-0.1465101	1.06737	-0.6590407	0	0
23.84913	0.1700777	-0.02673384	0.1270843	-0.09657652	-2.21695	1.500951	0	0
23.86556	0.1704867	-0.02699957	0.02489135	-0.01617382	-3.084544	2.426838	0	0
23.88212	0.1705122	-0.02701856	0.001542532	-0.001145769	-0.7076013	0.4554351	0	0
23.89869	0.1704867	-0.02699957	-0.001542532	0.001145769	-0.09310745	0.06915875	0	0
23.91526	0.1704867	-0.02699957	0	0	0.0465564	-0.03458136	0	0
23.93182	0.1704867	-0.02699957	0	0	0	0	0	0
23.94839	0.1704867	-0.02699957	0	0	0	0	0	0
23.98152	0.1704867	-0.02699957	0	0	0	0	0	0
23.99809	0.1704867	-0.02699957	0	0	0	0	0	0
24.01475	0.1704867	-0.02699957	0	0	0	0	0	0
24.03126	0.1704867	-0.02699957	0	0	0	0	0	0
24.13062	0.1704356	-0.02696161	-0.000514365	0.0003820623	-0.004438809	0.003297078	0	0
24.14719	0.1704356	-0.02696161	0	0	0.004436691	-0.003295504	0	0
24.16376	0.1704356	-0.02696161	0	0	0	0	0	0
24.18033	0.1704356	-0.02696161	0	0	0	0	0	0
24.19689	0.1704356	-0.02696161	0	0	0	0	0	0
24.21346	0.1704356	-0.02696161	0	0	0	0	0	0
24.23003	0.17041	-0.02694263	-0.001543077	0.001145393	-0.04656479	0.03456404	0	0
24.2466	0.17041	-0.02694263	0	0	0.04657015	-0.03456802	0	0
24.26316	0.1703845	-0.02692365	-0.001542355	0.001145637	-0.04655105	0.03457738	0	0
24.31296	0.1687994	-0.0225989	-0.03183356	0.08685414	-0.4564514	1.291522	0	0
24.32943	0.1651914	-0.01958648	-0.2190404	0.1828827	-2.825119	1.449157	0	0
24.34599	0.1534936	-0.0108118	-0.7061592	0.5297015	-14.74456	10.49783	0	0
24.36256	0.1395089	0.001045439	-0.8442169	0.7157869	-4.167069	5.616717	0	0
24.37951	0.1291456	0.01177299	-0.6115867	0.633085	6.94207	-2.467962	0	0
24.3957	0.1166522	0.02809166	-0.7716042	1.007855	-4.829061	11.30992	0	0
24.41226	0.1081032	0.04190091	-0.5160757	0.8336244	7.800778	-5.318907	0	0
24.42883	0.09833966	0.06310379	-0.5893302	1.279808	-2.210953	13.46662	0	0
24.4454	0.09205488	0.0798126	-0.3793501	1.008546	6.337211	-8.186702	0	0
24.46207	0.08571055	0.09517118	-0.3805787	0.9213176	-0.03696344	-2.624399	0	0
24.47853	0.07943775	0.1095809	-0.3809956	0.8752131	-0.01258221	-1.391436	0	0
24.4951	0.07116907	0.1270491	-0.4990983	1.054384	-3.575461	5.424259	0	0
24.51167	0.06448939	0.1394198	-0.4031861	0.7466946	2.894636	-9.286097	0	0
24.52823	0.06024281	0.1477481	-0.2563246	0.5026974	4.432288	-7.363849	0	0
24.5448	0.05148079	0.1629913	-0.5288764	0.9200833	-8.225628	12.59673	0	0
24.56137	0.04483835	0.1725713	-0.4009386	0.5782464	3.861169	-10.31666	0	0
24.57793	0.03603702	0.1839076	-0.5312489	0.6842629	-3.932772	3.199585	0	0
24.5945	0.03009617	0.1910938	-0.3585905	0.4337592	5.210841	-7.560216	0	0
24.6111	0.02086539	0.197786	-0.5560827	0.4031539	-5.954502	-0.9227682	0	0
24.62763	0.01468316	0.2020219	-0.3739355	0.2562118	5.497532	-4.434977	0	0
24.6442	0.007499859	0.2069399	-0.4336345	0.2968831	-1.803695	1.228807	0	0
24.66077	0.005763094	0.2081644	-0.1048314	0.07391115	9.923871	-6.729694	0	0
24.67733	-0.0009210524	0.2127367	-0.4034559	0.2759838	-9.012506	6.098565	0	0
24.6939	-0.006973571	0.2168748	-0.3653308	0.249776	1.150619	-0.7909522	0	0
24.71047	-0.01013123	0.219033	-0.1905968	0.1302707	5.273481	-3.606678	0	0
24.74734	-0.01002598	0.2189611	0.002854175	-0.001950903	3.619701	-2.474025	0	0
24.76391	-0.01002598	0.2189611	0	0	-0.05340506	0.03650374	0	0
24.78048	-0.01005229	0.218979	-0.001588235	0.001085619	-0.04793303	0.03276405	0	0
24.79705	-0.01002598	0.2189611	0.001588235	-0.001085619	0.09586606	-0.06552809	0	0
24.81361	-0.01002598	0.2189611	0	0	-0.04793579	0.03276594	0	0
24.83018	-0.009973354	0.2188891	0.003176526	-0.004341577	0.09587327	-0.1310366	0	0
24.84675	-0.009973354	0.2188891	0	0	-0.09586776	0.1310291	0	0
24.86336	-0.009973354	0.2188891	0	0	0	0	0	0
24.87988	-0.009973354	0.2188891	0	0	0	0	0	0
24.89645	-0.00994704	0.2188711	0.001588291	-0.001085619	0.04799551	-0.0328056	0	0
24.91302	-0.009789161	0.2187273	0.009529579	-0.008683154	0.2396685	-0.2292941	0	0
24.92958	-0.009657594	0.2185654	0.007941401	-0.009769673	-0.04793133	-0.03279118	0	0
24.94615	-0.009578655	0.2184395	0.004764818	-0.007598434	-0.09586947	0.0655281	0	0
24.96293	-0.009526027	0.2183676	0.003136144	-0.004287196	-0.04883859	0.09929321	0	0
24.97944	-0.009499714	0.2183136	0.001593612	-0.003267767	-0.04633235	0.03062011	0	0
24.99585	-0.009526027	0.2182957	-0.001603615	-0.001096093	-0.09711863	0.06596655	0	0
25.01242	-0.009499714	0.2182777	0.001588291	-0.001085619	0.09679439	0.0003176201	0	0
25.02898	-0.009526027	0.2182597	-0.001588474	-0.001085744	-0.09588049	-3.773632E-06	0	0
25.04555	-0.009526027	0.2182237	0	-0.002170339	0.047943	-0.03273502	0	0
25.06212	-0.009526027	0.2182237	0	0	0	0.06550095	0	0
25.07869	-0.009526027	0.2182237	0	0	0	0	0	0
25.09525	-0.009552341	0.2182057	-0.001588291	-0.001085619	-0.04793473	-0.03276405	0	0
25.11182	-0.009552341	0.2182057	0	0	0.04793473	0.03276405	0	0
25.12839	-0.009552341	0.2181698	0	-0.002171238	0	-0.06552809	0	0
25.14495	-0.009578655	0.2181518	-0.001588291	-0.001085619	-0.04793473	0.03276405	0	0
25.16158	-0.009578655	0.2181518	0	0	0.04785484	0.03270945	0	0
25.17809	-0.009578655	0.2181518	0	0	0	0	0	0
25.19465	-0.009578655	0.2181518	0	0	0	0	0	0
25.21122	-0.009552341	0.2181338	0.001588291	-0.001085619	0.04793749	-0.03276594	0	0
25.22779	-0.009552341	0.2181338	0	0	-0.04793473	0.03276405	0	0
25.24463	-0.009526027	0.2180799	0.001562036	-0.003203019	0.04674943	-0.09586164	0	0
25.26115	-0.009552341	0.2180619	-0.001593612	-0.001089256	-0.0946005	0.06336672	0	0
25.27766	-0.009552341	0.217954	0	-0.006535387	0.0482592	-0.1649247	0	0
25.29419	-0.009578655	0.2177202	-0.001591957	-0.01414562	-0.04818404	-0.2303402	0	0
25.31068	-0.009447088	0.2175583	0.007975373	-0.00981237	0.2896931	0.1312082	0	0
25.32719	-0.009131325	0.2173065	0.01912771	-0.01525401	0.3379007	-0.1648743	0	0
25.34376	-0.008815561	0.2170547	0.01906175	-0.01520132	-0.00199435	0.001593137	0	0
25.36032	-0.007236716	0.2159754	0.0952993	-0.06514524	2.300987	-1.507397	0	0
25.37689	-0.006420964	0.2153457	0.04923886	-0.03800566	-1.390107	0.8190741	0	0
25.39346	-0.006447279	0.2153277	-0.001588347	-0.001086519	-1.533968	1.114222	0	0
25.41002	-0.006473594	0.2153097	-0.001588376	-0.001085619	-8.50248E-07	2.714469E-05	0	0
25.42659	-0.006499908	0.2152918	-0.001588347	-0.001085619	8.50248E-07	0	0	0
25.44328	-0.006526223	0.2152738	-0.00157709	-0.001078818	0.0003385326	0.0002045276	0	0
25.45972	-0.006526223	0.2152738	0	0	0.04759942	0.03256067	0	0
25.4763	-0.006526223	0.2152738	0	0	0	0	0	0
25.49286	-0.006526223	0.2152738	0	0	0	0	0	0
25.50943	-0.006526223	0.2152738	0	0	0	0	0	0
25.52599	-0.006526223	0.2152738	0	0	0	0	0	0
25.54285	-0.006526223	0.2152738	0	0	0	0	0	0
25.55913	-0.006526223	0.2152738	0	0	0	0	0	0
25.57587	-0.006552538	0.2152558	-0.00157137	-0.001073996	-0.04758291	-0.03252186	0	0
25.60948	-0.006578852	0.2152378	-0.0007830847	-0.0005352303	0.01565606	0.01070038	0	0
25.62605	-0.006578852	0.2152018	0	-0.002172138	0.01560835	-0.03262663	0	0
25.64261	-0.006657796	0.2151478	-0.004765071	-0.003257757	-0.1438101	-0.03276405	0	0
25.65943	-0.006947257	0.2149499	-0.01721031	-0.01176659	-0.3727656	-0.2548606	0	0
25.67595	-0.007052515	0.214842	-0.006373937	-0.006536585	0.3250961	0.1569026	0	0
25.69231	-0.007210401	0.214662	-0.00964667	-0.01099358	-0.0995333	-0.1355502	0	0
25.70889	-0.00726303	0.2145901	-0.003175598	-0.004341876	0.1964508	0.2019346	0	0
25.72548	-0.007368288	0.2144821	-0.00634311	-0.006505927	-0.09550223	-0.06524732	0	0
25.74201	-0.007631431	0.2143022	-0.01591635	-0.01088324	-0.2889874	-0.1321381	0	0
25.75858	-0.008210341	0.2139063	-0.03494311	-0.02389351	-0.5748245	-0.3930581	0	0
25.77515	-0.009473401	0.2130426	-0.07623843	-0.0521349	-1.246295	-0.8523268	0	0
25.79203	-0.009473401	0.2130426	0	0	2.279362	1.558719	0	0
25.80828	-0.009473401	0.2130066	0	-0.002214856	0	-0.06684448	0	0
25.82485	-0.009473401	0.2130066	0	0	0	0.06748546	0	0
25.84141	-0.009499714	0.2130246	-0.001588235	0.001086519	-0.04793579	0.03279308	0	0
25.85857	-0.009499714	0.2130246	0	0	0.04709001	-0.03221448	0	0
25.87455	-0.009499714	0.2130246	0	0	0	0	0	0
25.89111	-0.009499714	0.2130246	0	0	0	0	0	0
25.90768	-0.009499714	0.2130246	0	0	0	0	0	0
26.02365	-0.009499714	0.2130246	0	0	0	0	0	0
26.04021	-0.009473401	0.2130066	0.001588235	-0.001086519	0.0119836	-0.008198034	0	0
26.05678	-0.009473401	0.2130066	0	0	-0.04793303	0.03279119	0	0
26.07335	-0.009499714	0.2129886	-0.001588235	-0.001085619	-0.04793303	-0.03276405	0	0
26.08992	-0.009499714	0.2129886	0	0	0.04793303	0.03276405	0	0
26.10648	-0.009499714	0.2129886	0	0	0	0	0	0
26.12326	-0.009499714	0.2129886	0	0	0	0	0	0
26.13978	-0.009499714	0.2129526	0	-0.002180316	0	-0.06548919	0	0
26.15619	-0.009499714	0.2129526	0	0	0	0.06622907	0	0
26.1728	-0.009499714	0.2129526	0	0	0	0	0	0
26.18932	-0.009499714	0.2129526	0	0	0	0	0	0
26.20588	-0.009499714	0.2129166	0	-0.002172138	0	-0.0656535	0	0
26.22245	-0.009499714	0.2129166	0	0	0	0.06555524	0	0
26.23902	-0.009499714	0.2129166	0	0	0	0	0	0
26.25559	-0.009499714	0.2129166	0	0	0	0	0	0
26.27215	-0.009499714	0.2129166	0	0	0	0	0	0
26.28889	-0.009499714	0.2129166	0	0	0	0	0	0
26.36999	-0.009499714	0.2129166	0	0	0	0	0	0
26.38656	-0.009499714	0.2129166	0	0	0	0	0	0
26.40347	-0.009499714	0.2129166	0	0	0	0	0	0
26.41969	-0.009473401	0.2128986	0.001621845	-0.001109511	0.04895018	-0.03348703	0	0
26.43649	-0.009473401	0.2128986	0	0	-0.04911417	0.03359922	0	0
26.45282	-0.009473401	0.2128986	0	0	0	0	0	0
26.46951	-0.009499714	0.2128807	-0.001576438	-0.001077555	-0.04773362	-0.03262775	0	0
26.48602	-0.009499714	0.2128807	0	0	0.04748134	0.0324553	0	0
26.50253	-0.009499714	0.2128807	0	0	0	0	0	0
26.51909	-0.009499714	0.2128807	0	0	0	0	0	0
26.53566	-0.009499714	0.2128807	0	0	0	0	0	0
26.55223	-0.009473401	0.2128627	0.001588235	-0.001086519	0.04793303	-0.03279119	0	0
26.56879	-0.009473401	0.2128627	0	0	-0.04793303	0.03279119	0	0
26.5856	-0.009473401	0.2128627	0	0	0	0	0	0
26.60211	-0.009473401	0.2128627	0	0	0	0	0	0
26.61849	-0.009473401	0.2128267	0	-0.002196413	0	-0.0667683	0	0
26.70309	-0.009473401	0.2128267	0	0	0	0.0217504	0	0
26.71969	-0.009447088	0.2128087	0.001585007	-0.001084272	0.01566211	-0.01071414	0	0
26.73622	-0.009447088	0.2128087	0	0	-0.04783835	0.03272526	0	0
26.75279	-0.009447088	0.2128087	0	0	0	0	0	0
26.76936	-0.009473401	0.2127907	-0.001588291	-0.001086519	-0.04793473	-0.03279119	0	0
26.78592	-0.009473401	0.2127907	0	0	0.04793473	0.03279119	0	0
26.80249	-0.009473401	0.2127907	0	0	0	0	0	0
26.81906	-0.009473401	0.2127907	0	0	0	0	0	0
26.85219	-0.009447088	0.2127727	0.0007941457	-0.0005428095	0.01597824	-0.01092135	0	0
26.8688	-0.009447088	0.2127727	0	0	-0.01596599	0.01091297	0	0
26.88532	-0.009447088	0.2127727	0	0	0	0	0	0
26.90189	-0.009447088	0.2127727	0	0	0	0	0	0
26.91846	-0.009447088	0.2127727	0	0	0	0	0	0
26.93503	-0.009447088	0.2127727	0	0	0	0	0	0
26.95159	-0.009447088	0.2127727	0	0	0	0	0	0
26.96837	-0.009447088	0.2127727	0	0	0	0	0	0
26.98488	-0.009447088	0.2127727	0	0	0	0	0	0
27.0014	-0.009447088	0.2127727	0	0	0	0	0	0
27.01786	-0.009447088	0.2127727	0	0	0	0	0	0
27.03443	-0.009447088	0.2127727	0	0	0	0	0	0
27.051	-0.009447088	0.2127727	0	0	0	0	0	0
27.06756	-0.009447088	0.2127727	0	0	0	0	0	0
27.08413	-0.009447088	0.2127727	0	0	0	0	0	0
27.11726	-0.009447088	0.2127727	0	0	0	0	0	0
27.13383	-0.009447088	0.2127727	0	0	0	0	0	0
27.1504	-0.009447088	0.2127727	0	0	0	0	0	0
27.16696	-0.009447088	0.2127727	0	0	0	0	0	0
27.18353	-0.009447088	0.2127727	0	0	0	0	0	0
27.2001	-0.009447088	0.2127727	0	0	0	0	0	0
27.21667	-0.009447088	0.2127727	0	0	0	0	0	0
27.23323	-0.009447088	0.2127727	0	0	0	0	0	0
27.2498	-0.009447088	0.2127727	0	0	0	0	0	0
27.26637	-0.009447088	0.2127727	0	0	0	0	0	0
27.28293	-0.009447088	0.2127727	0	0	0	0	0	0
27.29961	-0.009447088	0.2127727	0	0	0	0	0	0
27.31612	-0.009447088	0.2127727	0	0	0	0	0	0
27.33263	-0.009447088	0.2127727	0	0	0	0	0	0
27.3492	-0.009447088	0.2127727	0	0	0	0	0	0
27.36577	-0.009447088	0.2127727	0	0	0	0	0	0
27.3989	-0.009447088	0.2127727	0	0	0	0	0	0
27.41547	-0.009447088	0.2127727	0	0	0	0	0	0
27.43204	-0.009447088	0.2127727	0	0	0	0	0	0
27.44872	-0.009447088	0.2127727	0	0	0	0	0	0
27.46517	-0.009447088	0.2127727	0	0	0	0	0	0
27.48174	-0.009447088	0.2127727	0	0	0	0	0	0
27.4983	-0.009447088	0.2127727	0	0	0	0	0	0
27.51527	-0.009447088	0.2127727	0	0	0	0	0	0
27.53144	-0.009447088	0.2127727	0	0	0	0	0	0
27.56503	-0.009447088	0.2127727	0	0	0	0	0	0
27.58159	-0.009447088	0.2127727	0	0	0	0	0	0
27.59816	-0.009447088	0.2127727	0	0	0	0	0	0
27.61473	-0.009473401	0.2127547	-0.001588291	-0.001086519	-0.04793749	-0.03279308	0	0
27.63129	-0.009473401	0.2127547	0	0	0.04793473	0.03279119	0	0
27.64786	-0.009473401	0.2127547	0	0	0	0	0	0
27.66443	-0.009473401	0.2127547	0	0	0	0	0	0
27.68099	-0.009473401	0.2127547	0	0	0	0	0	0
27.69791	-0.009473401	0.2127547	0	0	0	0	0	0
27.71413	-0.009473401	0.2127547	0	0	0	0	0	0
27.7307	-0.009473401	0.2127547	0	0	0	0	0	0
27.74726	-0.009473401	0.2127547	0	0	0	0	0	0
27.78046	-0.009473401	0.2127547	0	0	0	0	0	0
27.79696	-0.009473401	0.2127547	0	0	0	0	0	0
27.81353	-0.009447088	0.2127367	0.001588474	-0.001086644	0.04803149	-0.03285739	0	0
27.83009	-0.009447088	0.2127367	0	0	-0.04794576	0.03279875	0	0
27.84666	-0.009447088	0.2127367	0	0	0	0	0	0
27.86323	-0.009420774	0.2127187	0.001588108	-0.001085494	0.04792645	-0.03275839	0	0
27.87979	-0.009420774	0.2126827	0	-0.002173538	-0.04793197	-0.03283911	0	0
27.91305	-0.008394539	0.2118728	0.03085991	-0.0243534	0.6194525	-0.4452175	0	0
27.92949	-0.003921032	0.2088126	0.2719942	-0.1860658	4.851632	-3.25366	0	0
27.94606	0.00536837	0.2022742	0.560774	-0.3947035	8.74762	-6.319982	0	0
27.96263	0.01360442	0.1963795	0.4971292	-0.3558033	-1.920914	1.174077	0	0
27.97919	0.01652481	0.1943415	0.176275	-0.1230185	-9.6834	7.025459	0	0
27.99611	0.03130556	0.1840882	0.8740546	-0.60632	20.84307	-14.43648	0	0
28.01262	0.03982104	0.1775819	0.515658	-0.3939953	-10.72261	6.352391	0	0
28.02889	0.04599386	0.1629369	0.3792725	-0.89982	-4.15946	-15.42655	0	0
28.04546	0.04525855	0.1550661	-0.04438334	-0.4750829	-12.89957	12.93249	0	0
28.06203	0.04389284	0.1423852	-0.0824342	-0.7654217	-1.148377	-8.762443	0	0
28.0786	0.04142366	0.1254802	-0.1490401	-1.020388	-2.010171	-7.694908	0	0
28.09518	0.04021515	0.1172994	-0.07288709	-0.493399	2.297377	15.89817	0	0
28.11173	0.03764011	0.09785119	-0.155573	-1.174976	-2.495609	-20.57123	0	0
28.1283	0.03674661	0.09087249	-0.05393175	-0.4212351	3.068952	22.75844	0	0
28.14521	0.03419719	0.07505603	-0.1507082	-0.9349847	-2.890272	-15.34336	0	0
28.16143	0.03346119	0.06951834	-0.04538104	-0.3414494	3.17878	17.91293	0	0
28.178	0.03219939	0.05916127	-0.07617097	-0.625226	-0.9391896	-8.65608	0	0
28.19456	0.02980696	0.05183965	-0.1444077	-0.441934	-2.059507	5.532083	0	0
28.21113	0.0264938	0.04303543	-0.1999827	-0.531424	-1.677257	-2.700815	0	0
28.2277	0.02515259	0.03624183	-0.08095564	-0.4100625	3.592244	3.662699	0	0
28.24426	0.02341677	0.02982766	-0.1047742	-0.3871599	-0.7188444	0.6912012	0	0
28.26083	0.02210166	0.02085862	-0.07938005	-0.5413719	0.7663958	-4.654128	0	0
28.2774	0.02144408	0.01717102	-0.03969177	-0.2225842	1.197795	9.621034	0	0
28.29397	0.020918	0.009746553	-0.03175425	-0.4481418	0.2395549	-6.807342	0	0
28.31053	0.02152299	0.006460423	0.03651732	-0.1983512	2.06044	7.538693	0	0
28.3271	0.02147038	0.0003303093	-0.003175346	-0.3700144	-1.197927	-5.180803	0	0
28.34367	0.0215493	-0.002701287	0.004763075	-0.1829875	0.239582	5.644481	0	0
28.36024	0.02583635	-0.006075085	0.2587674	-0.2036428	7.665865	-0.6233779	0	0
28.3768	0.02720381	-0.007810454	0.08253999	-0.1047471	-5.318553	2.98468	0	0
28.39337	0.02717752	-0.009943203	-0.001587279	-0.128733	-2.538966	-0.7238968	0	0
28.40994	0.02675677	-0.01538525	-0.02539625	-0.3284825	-0.718556	-6.028451	0	0
28.44448	0.02751937	-0.01593374	0.02207976	-0.01588079	0.9289804	6.116792	0	0
28.46105	0.02751937	-0.01593374	0	0	-0.4320105	0.310722	0	0
28.47761	0.02751937	-0.01593374	0	0	0	0	0	0
28.49418	0.02751937	-0.01593374	0	0	0	0	0	0
28.51074	0.02751937	-0.01593374	0	0	0	0	0	0
28.52731	0.02751937	-0.01593374	0	0	0	0	0	0
28.59358	0.02751937	-0.01593374	0	0	0	0	0	0
28.61015	0.02751937	-0.01593374	0	0	0	0	0	0
28.62671	0.02751937	-0.01593374	0	0	0	0	0	0
28.64328	0.02751937	-0.01593374	0	0	0	0	0	0
28.65985	0.02749307	-0.01591483	-0.001587279	0.001141721	-0.04790419	0.03445722	0	0
28.67641	0.02749307	-0.01591483	0	0	0.04790419	-0.03445722	0	0
28.69312	0.02749307	-0.01591483	0	0	0	0	0	0
28.70963	0.02749307	-0.01591483	0	0	0	0	0	0
28.72611	0.02749307	-0.01591483	0	0	0	0	0	0
28.74268	0.02749307	-0.01591483	0	0	0	0	0	0
28.75925	0.02749307	-0.01591483	0	0	0	0	0	0
28.77582	0.02749307	-0.01591483	0	0	0	0	0	0
28.79269	0.02749307	-0.01591483	0	0	0	0	0	0
28.8092	0.02749307	-0.01591483	0	0	0	0	0	0
28.82573	0.02749307	-0.01591483	0	0	0	0	0	0
28.84222	0.02749307	-0.01591483	0	0	0	0	0	0
28.85865	0.02749307	-0.01591483	0	0	0	0	0	0
28.87524	0.02749307	-0.01591483	0	0	0	0	0	0
28.89178	0.02749307	-0.01591483	0	0	0	0	0	0
28.90835	0.02749307	-0.01591483	0	0	0	0	0	0
28.92492	0.02749307	-0.01591483	0	0	0	0	0	0
28.94148	0.02749307	-0.01591483	0	0	0	0	0	0
28.95805	0.02749307	-0.01591483	0	0	0	0	0	0
28.97462	0.02749307	-0.01591483	0	0	0	0	0	0
28.99119	0.02749307	-0.01591483	0	0	0	0	0	0
29.00775	0.02749307	-0.01591483	0	0	0	0	0	0
29.02432	0.02749307	-0.01591483	0	0	0	0	0	0
29.04089	0.02749307	-0.01591483	0	0	0	0	0	0
29.05746	0.02749307	-0.01591483	0	0	0	0	0	0
29.07402	0.02749307	-0.01591483	0	0	0	0	0	0
29.09059	0.02749307	-0.01591483	0	0	0	0	0	0
29.10716	0.02749307	-0.01591483	0	0	0	0	0	0
29.12372	0.02749307	-0.01591483	0	0	0	0	0	0
29.14044	0.02749307	-0.01591483	0	0	0	0	0	0
29.15695	0.02749307	-0.01591483	0	0	0	0	0	0
29.17346	0.02749307	-0.01591483	0	0	0	0	0	0
29.18999	0.02749307	-0.01591483	0	0	0	0	0	0
29.20656	0.02749307	-0.01591483	0	0	0	0	0	0
29.22313	0.02749307	-0.01591483	0	0	0	0	0	0
29.24002	0.02749307	-0.01591483	0	0	0	0	0	0
29.25626	0.02749307	-0.01591483	0	0	0	0	0	0
29.27283	0.02749307	-0.01591483	0	0	0	0	0	0
29.30596	0.02746678	-0.01589591	-0.0007935835	0.0005708607	-0.01596693	0.01148574	0	0
29.33909	0.02641491	-0.01476121	-0.0317473	0.03424726	-0.467106	0.5081925	0	0
29.35566	0.02373238	-0.0122285	-0.1619173	0.152875	-2.619127	2.386886	0	0
29.37261	0.02036561	-0.009471236	-0.1986677	0.1627011	-1.096565	0.2931957	0	0
29.38879	0.009026071	-0.000403799	-0.700587	0.5602107	-15.14883	11.99755	0	0
29.40536	-0.001499999	0.008770433	-0.6353549	0.5537578	1.99164	-0.1970177	0	0
29.42214	-0.01413064	0.02551411	-0.7526816	0.9977847	-3.518245	13.31491	0	0
29.43865	-0.01962906	0.04152887	-0.3329971	0.9698906	12.60588	-0.8378419	0	0
29.45517	-0.02149669	0.05847603	-0.1131081	1.026359	6.658493	1.709942	0	0
29.50476	-0.02210166	0.107805	-0.01219832	0.9946381	1.526466	-0.4798501	0	0
29.52133	-0.02083909	0.1193276	0.0762092	0.6955041	1.336226	-4.521228	0	0
29.53823	-0.01836636	0.1319535	0.1463397	0.7472194	2.095674	1.545383	0	0
29.55446	-0.0137886	0.1424762	0.2819622	0.6481337	4.09333	-2.990586	0	0
29.57125	-0.009973354	0.1492924	0.2272796	0.4060521	-1.655949	-7.330936	0	0
29.58759	-0.003710509	0.1539772	0.3831429	0.286603	4.704234	-3.605188	0	0
29.60427	0.005499945	0.1603991	0.5522565	0.385056	5.120956	2.981272	0	0
29.62073	0.01086799	0.164133	0.326232	0.2269193	-6.821824	-4.772849	0	0
29.63729	0.02194384	0.1718655	0.6685397	0.4667343	10.36607	7.262297	0	0
29.65386	0.02749307	0.1757915	0.3349134	0.2369489	-10.06828	-6.93454	0	0
29.67082	0.03782406	0.1837631	0.6093388	0.4701756	8.186046	6.957098	0	0
29.68699	0.04218549	0.1915269	0.2695879	0.4798959	-10.25429	0.293376	0	0
29.70384	0.04541612	0.2017877	0.1917343	0.6089647	-2.357224	3.907902	0	0
29.72013	0.04927587	0.2092987	0.2370135	0.4612266	1.366527	-4.458743	0	0
29.73669	0.0546298	0.2126107	0.3232011	0.1999361	2.623652	-7.953984	0	0
29.75338	0.05893168	0.2154896	0.2578808	0.1725807	-1.964698	-0.822795	0	0
29.76983	0.06005926	0.2160833	0.06853417	0.03608277	-5.714494	-4.119515	0	0
29.7864	0.06126534	0.2164071	0.07279899	0.01954474	0.1291585	-0.5008487	0	0
29.80296	0.06176345	0.2160653	0.03006935	-0.02063274	-1.289657	-1.212628	0	0
29.81953	0.06254987	0.2155256	0.04746885	-0.03257577	0.5251481	-0.3604621	0	0
29.83644	0.06433216	0.2143022	0.1054185	-0.07236346	1.731186	-1.188616	0	0
29.85266	0.06540657	0.2135285	0.06620837	-0.04767847	-1.183364	0.7449944	0	0
29.86923	0.06540657	0.2135285	0	0	-2.018858	1.453836	0	0
29.8858	0.06540657	0.2134925	0	-0.002173287	0	-0.06559372	0	0
29.90236	0.06548518	0.2134385	0.004744974	-0.003257757	0.1432118	-0.03273124	0	0
29.91899	0.06603543	0.2129886	0.03308352	-0.02704899	0.8535883	-0.7166183	0	0
29.93551	0.06910034	0.2108469	0.1856179	-0.1297099	4.602173	-3.09742	0	0
29.95252	0.07305397	0.2080924	0.2323816	-0.1619	1.394869	-0.9601703	0	0
29.96863	0.07705764	0.2053009	0.2485293	-0.173281	0.4875061	-0.3435961	0	0
30.00205	0.07823473	0.2044543	0.03521844	-0.02533144	-4.306531	2.986953	0	0
30.01833	0.07820857	0.2044363	-0.001607271	-0.001106916	-0.7409918	0.4874358	0	0
30.03489	0.07815626	0.2044002	-0.00315747	-0.002174836	-0.0472008	-0.03251627	0	0
30.05159	0.07810395	0.2043642	-0.003133659	-0.002158435	0.0007158943	0.0004930974	0	0
30.0681	0.07802548	0.2043101	-0.004752296	-0.003273182	-0.04874675	-0.03357162	0	0
30.0846	0.07792086	0.2042381	-0.006341954	-0.00436828	-0.04815895	-0.03317615	0	0
30.10116	0.07781623	0.204166	-0.006315389	-0.004349672	0.0008034459	0.0005627839	0	0
30.11773	0.07773776	0.204112	-0.004736429	-0.003262254	0.04765311	0.03281834	0	0
30.1343	0.07768545	0.2040759	-0.003157919	-0.002174836	0.04763952	0.03281834	0	0
30.15087	0.07763314	0.2040399	-0.00315747	-0.002174836	1.356883E-05	0	0	0
30.16743	0.07763314	0.2040399	0	0	0.09528714	0.0656329	0	0
30.18419	0.07760698	0.2040219	-0.001561522	-0.001075408	-0.04686245	-0.03227383	0	0
30.2007	0.07760698	0.2040219	0	0	0.04694575	0.03233119	0	0
30.21713	0.07758082	0.2040039	-0.001591603	-0.001096125	-0.04830999	-0.03327073	0	0
30.23372	0.07755466	0.2039859	-0.001576781	-0.001085918	0.0004487943	0.0003090815	0	0
30.26734	0.07747619	0.2039318	-0.002334485	-0.001607895	-0.0150927	-0.01039727	0	0
30.28426	0.07745003	0.2039138	-0.001545857	-0.00106462	0.01560551	0.01075042	0	0
30.30047	0.07742387	0.2038958	-0.001613511	-0.001111213	-0.0020418	-0.001406173	0	0
30.31704	0.07737155	0.2038598	-0.003157919	-0.002174836	-0.04711479	-0.03244761	0	0
30.33379	0.07734539	0.2038417	-0.001561166	-0.001075164	0.04791704	0.03300012	0	0
30.35017	0.07731923	0.2038237	-0.00159735	-0.001100083	-0.001092087	-0.0007521122	0	0
30.36682	0.07729308	0.2038057	-0.001571542	-0.001082309	0.0007815412	0.0005382432	0	0
30.38333	0.07729308	0.2038057	0	0	0.04739648	0.03264161	0	0
30.39987	0.07729308	0.2038057	0	0	0	0	0	0
30.41685	0.07726692	0.2037877	-0.001540647	-0.001061033	-0.04595716	-0.03165036	0	0
30.433	0.07724076	0.2037697	-0.001619417	-0.001115281	-0.002377409	-0.001637306	0	0
30.44987	0.07716228	0.2037156	-0.004651728	-0.003203611	-0.09182188	-0.06323706	0	0
30.46614	0.0770838	0.2036616	-0.004825206	-0.003323084	-0.005235588	-0.003605705	0	0
30.48271	0.07703149	0.2036256	-0.003157919	-0.002174836	0.05078362	0.0349743	0	0
30.49941	0.07700533	0.2036075	-0.001565979	-0.00107937	0.04784655	0.03292476	0	0
30.51584	0.076953	0.2035715	-0.003185138	-0.002193269	-0.04886913	-0.03361946	0	0
30.53243	0.07692684	0.2035535	-0.001576238	-0.001085543	0.04871937	0.03354321	0	0
30.54897	0.07692684	0.2035535	0	0	0.04757094	0.03276176	0	0
30.56554	0.07690068	0.2035355	-0.00157896	-0.001087418	-0.04769428	-0.0328467	0	0
30.58211	0.07687452	0.2035175	-0.00157896	-0.001087418	0	0	0	0
30.59867	0.07684836	0.2034994	-0.001579409	-0.001087418	-1.357235E-05	0	0	0
30.61525	0.07687452	0.2034814	0.001578501	-0.001086792	0.09527849	1.887569E-05	0	0
30.63181	0.07687452	0.2034814	0	0	-0.04764199	0.03280134	0	0
30.64852	0.07687452	0.2034814	0	0	0	0	0	0
30.66504	0.07684836	0.2034634	-0.001584151	-0.001090683	-0.04767257	-0.0328224	0	0
30.68204	0.07684836	0.2034634	0	0	0.04725755	0.03253666	0	0
30.69807	0.07684836	0.2034634	0	0	0	0	0	0
30.71464	0.0768222	0.2034814	-0.00157896	0.001087418	-0.04843375	0.03335597	0	0
30.73158	0.0768222	0.2034814	0	0	0.04712681	-0.03245589	0	0
30.74777	0.0768222	0.2034814	0	0	0	0	0	0
30.7646	0.0768222	0.2034814	0	0	0	0	0	0
30.78091	0.07684836	0.2034634	0.0016037	-0.001104457	0.04839419	-0.03332873	0	0
30.79748	0.0768222	0.2034454	-0.001579323	-0.001087668	-0.09682183	0.0005106648	0	0
30.81414	0.07679604	0.2034274	-0.001570102	-0.001081318	0.0002775402	0.00019114	0	0
30.83061	0.07676988	0.2034094	-0.001588101	-0.001093714	-0.0005432449	-0.0003741271	0	0
30.84718	0.07674371	0.2033913	-0.001579409	-0.001088317	0.0002630833	0.0001633348	0	0
30.86374	0.07674371	0.2033913	0	0	0.04766941	0.03284737	0	0
30.88031	0.07674371	0.2033913	0	0	0	0	0	0
30.89688	0.07674371	0.2033913	0	0	0	0	0	0
30.91344	0.07671756	0.2033733	-0.00157896	-0.001087418	-0.0476531	-0.03281834	0	0
30.93001	0.07671756	0.2033733	0	0	0.0476531	0.03281834	0	0
30.94658	0.0766914	0.2033553	-0.001579141	-0.001087543	-0.04766133	-0.03282401	0	0
30.96314	0.0766914	0.2033553	0	0	0.04766133	0.03282401	0	0
30.97976	0.0766914	0.2033553	0	0	0	0	0	0
30.99628	0.07666524	0.2033373	-0.001583335	-0.001090431	-0.04778513	-0.03290927	0	0
31.01284	0.07666524	0.2033373	0	0	0.04785124	0.0329548	0	0
31.02941	0.07663907	0.2033193	-0.001579591	-0.001087543	-0.04767491	-0.03282401	0	0
31.04598	0.07661291	0.2033013	-0.00157896	-0.001087418	1.906492E-05	3.780659E-06	0	0
31.06254	0.07661291	0.2033013	0	0	0.04765584	0.03282023	0	0
31.09568	0.07658675	0.2032832	-0.0007897047	-0.000543709	-0.0158895	-0.01093987	0	0
31.11235	0.07658675	0.2033193	0	0.002161151	0.01585542	0.05430727	0	0
31.12881	0.0764821	0.2034274	-0.006357275	0.006567751	-0.191874	0.1329991	0	0
31.14538	0.07622048	0.2038237	-0.01579184	0.0239241	-0.2856567	0.5255095	0	0
31.16195	0.0750692	0.2053009	-0.06948332	0.08915261	-1.620319	1.968487	0	0
31.22821	0.08281019	0.2427224	0.1168151	0.5647075	2.248999	5.740911	0	0
31.24478	0.09969471	0.2539644	1.019034	0.6784923	10.89161	1.373613	0	0
31.26146	0.107583	0.2593217	0.4730888	0.3212955	-16.42278	-10.74496	0	0
31.27791	0.1187544	0.2669149	0.6788377	0.4614083	6.210229	4.2291	0	0
31.29448	0.128628	0.2733051	0.5959725	0.3857105	-2.509255	-2.292219	0	0
31.31105	0.1390959	0.2801935	0.6318474	0.4157858	1.082707	0.9076756	0	0
31.32761	0.1465986	0.2849333	0.4528606	0.2860925	-5.401833	-3.914151	0	0
31.34418	0.150511	0.2863639	0.2361514	0.08635304	-6.540296	-6.028151	0	0
31.36075	0.152851	0.2849869	0.1412465	-0.08311507	-2.864235	-5.114558	0	0
31.37732	0.1536221	0.2845577	0.04654221	-0.02590555	-2.858181	1.726587	0	0
31.39388	0.1540333	0.2848081	0.02481813	0.01511232	-0.6556339	1.237922	0	0
31.41045	0.1567046	0.2866679	0.1612401	0.1122586	4.117222	2.93188	0	0
31.42702	0.1604765	0.2893321	0.2276742	0.1608119	2.004986	1.465343	0	0
31.44358	0.1696687	0.2957499	0.5548422	0.3873798	9.873949	6.837832	0	0
31.46015	0.173118	0.2981271	0.2081996	0.1434852	-10.46169	-7.360754	0	0
31.47672	0.1753387	0.2997177	0.1340402	0.09600759	-2.238135	-1.432877	0	0
31.49329	0.1796983	0.3028092	0.2631497	0.1866078	3.896533	2.734319	0	0
31.50985	0.180819	0.3036312	0.06764477	0.04961288	-5.900352	-4.134514	0	0
31.52665	0.180819	0.3036312	0	0	-2.027402	-1.486963	0	0
31.54316	0.180819	0.3036312	0	0	0	0	0	0
31.55968	0.180819	0.3036312	0	0	0	0	0	0
31.57619	0.180819	0.3036312	0	0	0	0	0	0
31.59269	0.1808445	0.3036133	0.001543176	-0.001081759	0.04674267	-0.03276636	0	0
31.60926	0.1808445	0.3036133	0	0	-0.04666449	0.03271156	0	0
31.62582	0.1808699	0.3035955	0.001536236	-0.001079323	0.04636371	-0.03257403	0	0
31.64239	0.1808699	0.3035597	0	-0.002156847	-0.04636371	-0.03251974	0	0
31.65896	0.1808954	0.3035419	0.001537136	-0.001077524	0.04639085	0.03257403	0	0
31.67553	0.1809209	0.303524	0.001537136	-0.001079323	0	-5.428939E-05	0	0
31.69209	0.1810482	0.3034346	0.007685665	-0.005393638	0.1855737	-0.1302138	0	0
31.70866	0.1817101	0.3029343	0.03995564	-0.03019946	0.9739658	-0.7486843	0	0
31.7253	0.1854242	0.3003253	0.2232308	-0.1568142	5.5195	-3.813121	0	0
31.74179	0.1904275	0.2967687	0.3033243	-0.215617	2.417365	-1.774774	0	0
31.81625	0.2021481	0.2883845	0.1574023	-0.1125961	-1.604285	1.132626	0	0
31.83287	0.2028046	0.2879554	0.03950998	-0.02582465	-1.294386	0.9526974	0	0
31.84939	0.2066645	0.2852194	0.2337101	-0.1656586	5.861307	-4.220439	0	0
31.86595	0.2123798	0.2811595	0.3449723	-0.2450585	3.36313	-2.400025	0	0
31.88252	0.2206381	0.2752019	0.4984719	-0.3595963	4.632625	-3.456756	0	0
31.89909	0.227992	0.2698687	0.4438878	-0.3219153	-1.64735	1.137213	0	0
31.91593	0.230388	0.2681144	0.1422592	-0.1041619	-9.028333	6.517782	0	0
31.93222	0.2339768	0.2654288	0.2203004	-0.1648537	2.355425	-1.831787	0	0
31.94895	0.2356943	0.2640501	0.1026391	-0.0823977	-3.56292	2.496864	0	0
31.96535	0.235744	0.2639785	0.003033954	-0.004366931	-3.006263	2.355109	0	0
31.98192	0.2357191	0.2639605	-0.001502058	-0.001081122	-0.1375941	0.09967081	0	0
31.99849	0.235744	0.2639426	0.001502231	-0.001081246	0.09067483	-3.756064E-06	0	0
32.03221	0.2357938	0.2639068	0.001475282	-0.001062168	-0.000535858	0.0003793661	0	0
32.04878	0.2357938	0.2639068	0	0	-0.02933376	0.02111961	0	0
32.06535	0.2358187	0.2638889	0.001502058	-0.001081122	0.0453322	-0.03262833	0	0
32.09849	0.2358436	0.263871	0.0007508561	-0.0005404365	-0.01511189	0.01087694	0	0
32.11507	0.2358436	0.263871	0	0	-0.01509914	0.01086777	0	0
32.13161	0.2358187	0.2638889	-0.001504483	0.001082867	-0.04541584	0.03268852	0	0
32.14818	0.2358187	0.2638889	0	0	0.045442	-0.03270736	0	0
32.16511	0.2357938	0.263871	-0.001469905	-0.001057979	-0.04388187	-0.03158444	0	0
32.18131	0.2357689	0.2638889	-0.001535091	0.00110556	-0.001967549	0.06530326	0	0
32.19813	0.2357689	0.2638889	0	0	0.0464897	-0.0334815	0	0
32.21445	0.2357689	0.2638889	0	0	0	0	0	0
32.23101	0.2357689	0.2638889	0	0	0	0	0	0
32.24758	0.235744	0.263871	-0.001502058	-0.001081122	-0.0453322	-0.03262833	0	0
32.26415	0.2357191	0.2638531	-0.001502058	-0.001081122	0	0	0	0
32.28072	0.2357191	0.2638531	0	0	0.0453322	0.03262833	0	0
32.29728	0.2356694	0.2638173	-0.003003216	-0.002160445	-0.09063725	-0.06520236	0	0
32.31385	0.2356694	0.2638173	0	0	0.09063725	0.06520236	0	0
32.33042	0.2356445	0.2637994	-0.001502058	-0.001081122	-0.0453322	-0.03262833	0	0
32.34698	0.2355947	0.2637635	-0.003003216	-0.002162244	-0.04530505	-0.03262833	0	0
32.36355	0.2355699	0.2637456	-0.001502058	-0.001081122	0.04530505	0.03262833	0	0
32.38012	0.2355201	0.2637098	-0.003004116	-0.002162244	-0.0453322	-0.03262833	0	0
32.39669	0.2354455	0.2636561	-0.004505274	-0.003241567	-0.04530505	-0.03257403	0	0
32.41325	0.2352713	0.2635308	-0.01051441	-0.007566054	-0.1813559	-0.1305133	0	0
32.42985	0.2349228	0.26328	-0.02099767	-0.01510955	-0.3161307	-0.22748	0	0
32.44639	0.2343254	0.2628502	-0.0361202	-0.02598521	-0.4563989	-0.328228	0	0
32.46296	0.2333044	0.262116	-0.06162935	-0.0443206	-0.7704886	-0.5538095	0	0
32.47952	0.2332794	0.262098	-0.001503857	-0.001081122	1.814591	1.30497	0	0
32.51287	0.2332794	0.262098	0	0	0.03013047	0.02166078	0	0
32.55165	0.2332047	0.2620443	-0.001926996	-0.001385593	-0.02671764	-0.01921113	0	0
32.56821	0.2332047	0.2620443	0	0	0.03481635	0.02503445	0	0
32.58478	0.2331798	0.2620264	-0.001502957	-0.001081122	-0.04535934	-0.03262833	0	0
32.60143	0.2331798	0.2620264	0	0	0.04525514	0.03255337	0	0
32.61794	0.2330801	0.2619906	-0.006034881	-0.002169237	-0.1820073	-0.0654225	0	0
32.63448	0.2330552	0.2620085	-0.001505037	0.001082618	0.1370265	0.09836765	0	0
32.68419	0.2281169	0.2589635	-0.09935978	-0.06126598	-1.477141	-0.9411672	0	0
32.701	0.2202121	0.2534806	-0.4702072	-0.3261431	-5.575558	-3.982332	0	0
32.71751	0.2105685	0.2466324	-0.5839695	-0.4146941	-3.413702	-2.657181	0	0
32.73388	0.1931156	0.2344493	-1.065977	-0.7441088	-14.65668	-10.01671	0	0
32.75053	0.1863901	0.2297983	-0.4040015	-0.2793828	20.04769	14.07407	0	0
32.76705	0.1767416	0.2233478	-0.5841278	-0.3905213	-5.431221	-3.351079	0	0
32.78358	0.165601	0.2163351	-0.6736925	-0.4240683	-2.709618	-1.014905	0	0
32.80015	0.1575774	0.2118188	-0.4843048	-0.2726055	5.721001	4.575369	0	0
32.81672	0.1471394	0.2069579	-0.6300386	-0.2934068	-4.398254	-0.6277838	0	0
32.83329	0.1415986	0.2034454	-0.3344418	-0.212015	8.921131	2.456409	0	0
32.85011	0.1346539	0.1985973	-0.412909	-0.2882492	-2.350287	-2.283401	0	0
32.86662	0.1292232	0.1948104	-0.3289319	-0.2293694	2.51964	1.766621	0	0
32.88313	0.1258575	0.1924652	-0.2038579	-0.1420492	3.787823	2.644463	0	0
32.89964	0.119403	0.187971	-0.3909486	-0.2722082	-5.665978	-3.941821	0	0
32.91615	0.1157176	0.185443	-0.223224	-0.1531245	5.079483	3.606411	0	0
32.93268	0.1064123	0.1789379	-0.5627023	-0.3933706	-10.27268	-7.269894	0	0
32.96618	0.09255063	0.1693132	-0.4137731	-0.2872993	2.976358	2.119842	0	0
33.01572	0.07491218	0.1571164	-0.3560613	-0.2462114	0.6950021	0.4948069	0	0
33.03211	0.06949318	0.1533237	-0.3306701	-0.2314335	0.3851506	0.2241598	0	0
33.04868	0.06490869	0.1501824	-0.2767204	-0.1896101	1.637061	1.2691	0	0
33.06525	0.06092451	0.1474573	-0.2403198	-0.1643717	1.098195	0.7614328	0	0
33.08181	0.05840718	0.1457126	-0.1520515	-0.105385	2.663942	1.780221	0	0
33.09838	0.05845963	0.1457126	0.003166014	0	4.686091	3.181626	0	0
33.11494	0.05845963	0.1457126	0	0	-0.0955505	0	0	0
33.13151	0.05845963	0.1457126	0	0	0	0	0	0
33.14808	0.05845963	0.1457126	0	0	0	0	0	0
33.16465	0.05845963	0.1457126	0	0	0	0	0	0
33.18134	0.05845963	0.1457126	0	0	0	0	0	0
33.19785	0.05845963	0.1457126	0	0	0	0	0	0
33.21437	0.05845963	0.1457126	0	0	0	0	0	0
33.23092	0.05845963	0.1457126	0	0	0	0	0	0
33.24748	0.0584334	0.1456944	-0.001583007	-0.001097312	-0.04780277	-0.03313601	0	0
33.26405	0.0584334	0.1456944	0	0	0.04777525	0.03311693	0	0
33.28062	0.0584334	0.1456944	0	0	0	0	0	0
33.29743	0.0584334	0.1456944	0	0	0	0	0	0
