Time	Pos X	Pos Y	Vel X	Vel Y	Acc X	Acc YForce X	Force Y
0.0783145	-0.0273353	-0.02804375	0.0004154675	0.0004262353	-6.316251E-06	-6.479951E-06	0	0
0.09488281	-0.0273353	-0.02804375	0	0	6.316255E-06	6.479955E-06	0	0
0.1115794	-0.0273353	-0.02804375	0	0	0	0	0	0
0.1280143	-0.0273353	-0.02804375	0	0	0	0	0	0
0.1445984	-0.0273353	-0.02804375	0	0	0	0	0	0
0.1611478	-0.0273353	-0.02804375	0	0	0	0	0	0
0.1777141	-0.0273353	-0.02804375	0	0	0	0	0	0
0.1942808	-0.0273353	-0.02804375	0	0	0	0	0	0
0.2108472	-0.0273353	-0.02804375	0	0	0	0	0	0
0.2274143	-0.0273353	-0.02804375	0	0	0	0	0	0
0.2439802	-0.0273353	-0.02804375	0	0	0	0	0	0
0.2820537	-0.0273353	-0.02804375	0	0	0	0	0	0
0.2986228	-0.0273353	-0.02804375	0	0	0	0	0	0
0.3152227	-0.0273353	-0.02804375	0	0	0	0	0	0
0.3317558	-0.0273353	-0.02804375	0	0	0	0	0	0
0.3483206	-0.0273353	-0.02804375	0	0	0	0	0	0
0.3648877	-0.0273353	-0.02804375	0	0	0	0	0	0
0.3814549	-0.0273353	-0.02804375	0	0	0	0	0	0
0.3982786	-0.0273353	-0.02804375	0	0	0	0	0	0
0.4147901	-0.0273353	-0.02804375	0	0	0	0	0	0
0.4313003	-0.0273353	-0.02804375	0	0	0	0	0	0
0.4477202	-0.0273353	-0.02804375	0	0	0	0	0	0
0.4642866	-0.0273353	-0.02804375	0	0	0	0	0	0
0.4808533	-0.0273353	-0.02804375	0	0	0	0	0	0
0.49742	-0.0273353	-0.02804375	0	0	0	0	0	0
0.5139863	-0.0273353	-0.02804375	0	0	0	0	0	0
0.5305535	-0.0273353	-0.02804375	0	0	0	0	0	0
0.5471198	-0.0273353	-0.02804375	0	0	0	0	0	0
0.5636865	-0.0273353	-0.02804375	0	0	0	0	0	0
0.5802529	-0.0273353	-0.02804375	0	0	0	0	0	0
0.59682	-0.0273353	-0.02804375	0	0	0	0	0	0
0.6299534	-0.02812416	-0.02728431	-0.02380874	0.02292052	-0.4790437	0.4611723	0	0
0.6630861	-0.0312004	-0.02388811	-0.09284602	0.1025032	-1.041819	1.200956	0	0
0.6799774	-0.03982104	-0.01657693	-0.5103619	0.4328388	-8.346326	6.603553	0	0
0.6962204	-0.04722801	-0.009018211	-0.4560088	0.465351	1.64039	0.9812251	0	0
0.7127879	-0.05630883	0.003227522	-0.5481095	0.7391406	-2.807046	8.344556	0	0
0.7293535	-0.05901036	0.01552251	-0.1630808	0.7422019	11.62067	0.09239568	0	0
0.7460237	-0.05814491	0.03441567	0.05191577	1.133352	6.468838	11.76895	0	0
0.7625434	-0.05688593	0.04394651	0.07621069	0.5769346	0.7319964	-16.76462	0	0
0.7790533	-0.05350152	0.06280777	0.2049925	1.142422	3.898973	17.12058	0	0
0.7956201	-0.04746433	0.07990473	0.3644165	1.032004	4.819835	-3.338235	0	0
0.8121868	-0.04389284	0.08715831	0.2155814	0.4378395	-4.491981	-17.93244	0	0
0.8287544	-0.03769267	0.1007864	0.3742366	0.8225778	4.788249	11.61149	0	0
0.8453215	-0.0353274	0.1080064	0.1427687	0.4358045	-6.985677	-11.67278	0	0
0.8786179	-0.02662528	0.1321357	0.2613525	0.7246803	2.378165	5.793322	0	0
0.895129	-0.02026039	0.1436764	0.3854925	0.6989676	2.492393	-0.5162416	0	0
0.9116397	-0.01849789	0.1466032	0.106749	0.1772679	-8.441212	-15.79867	0	0
0.9281535	-0.006815684	0.1651476	0.7074198	1.122962	18.18865	28.63616	0	0
0.9447203	-0.001105263	0.1744349	0.3446916	0.5605949	-10.96499	-16.99993	0	0
0.9612866	0.006236761	0.1847205	0.4431894	0.6208736	2.97279	1.819291	0	0
0.9778537	0.01255197	0.1904621	0.3811896	0.3465695	-1.871212	-8.278767	0	0
0.9946991	0.01676159	0.1933493	0.2498969	0.1713897	-3.929447	-5.242939	0	0
1.011211	0.0246529	0.1988317	0.4779057	0.3320218	6.835271	4.815444	0	0
1.027554	0.030622	0.2029589	0.365258	0.2525504	-3.428692	-2.418895	0	0
1.044122	0.03724593	0.2074981	0.3997862	0.2739652	1.049145	0.6506931	0	0
1.060687	0.04018888	0.2094787	0.1776675	0.1195692	-6.703846	-4.659883	0	0
1.077257	0.04194906	0.2106489	0.1062228	0.07061437	-2.156166	-1.477432	0	0
1.09382	0.04307859	0.2113869	0.0681955	0.04455636	-1.147687	-0.7864463	0	0
1.110388	0.04373525	0.2118368	0.03963418	0.02715909	-0.8620692	-0.5251034	0	0
1.126954	0.04420802	0.2121608	0.02853866	0.01955528	-0.3348694	-0.2294876	0	0
1.14352	0.04452319	0.2123408	0.01902502	0.01086425	-0.2871449	-0.2623168	0	0
1.179574	0.04483835	0.2123048	0.008741345	-0.0009981253	-0.1954336	-0.2254355	0	0
1.196141	0.04499592	0.2121608	0.009511378	-0.008691312	0.01463355	-0.1461999	0	0
1.212729	0.04499592	0.2121608	0	0	-0.2868744	0.2621402	0	0
1.229275	0.04504845	0.2121248	0.003174623	-0.002174955	0.09581205	-0.06564144	0	0
1.245841	0.04510098	0.2121248	0.003170762	0	-0.0001165992	0.0656854	0	0
1.262408	0.04510098	0.2121248	0	0	-0.09569897	0	0	0
1.278975	0.04517976	0.2120708	0.004755474	-0.003258609	0.1435215	-0.09834573	0	0
1.295928	0.04523228	0.2120348	0.003098256	-0.002123665	-0.04943985	0.03385886	0	0
1.312108	0.04525855	0.2120168	0.001623203	-0.001112527	-0.04452008	0.03051817	0	0
1.328674	0.04528481	0.2119988	0.001585076	-0.00108655	-0.001164293	0.0007932866	0	0
1.345242	0.04525855	0.2119808	-0.001585008	-0.001086503	-0.09567403	1.415919E-06	0	0
1.361961	0.04525855	0.2119808	0	0	0.04761755	0.03264123	0	0
1.378472	0.04523228	0.2119628	-0.001590647	-0.001089311	-0.04786804	-0.03278112	0	0
1.394941	0.04523228	0.2119628	0	0	0.04822965	0.03302876	0	0
1.411508	0.04520602	0.2119448	-0.001585336	-0.001086573	-0.04798813	-0.03289059	0	0
1.428075	0.04520602	0.2119088	0	-0.002173006	0.04784638	-0.03278919	0	0
1.444643	0.04520602	0.2119088	0	0	0	0.06557885	0	0
1.46121	0.04520602	0.2119088	0	0	0	0	0	0
1.477777	0.04523228	0.2118908	0.001585301	-0.00108655	0.04784587	-0.03279308	0	0
1.494343	0.04525855	0.2118728	0.001585336	-0.001085674	1.032987E-06	2.643954E-05	0	0
1.510911	0.04525855	0.2118728	0	0	-0.04784638	0.03276629	0	0
1.527475	0.04525855	0.2118728	0	0	0	0	0	0
1.54409	0.04525855	0.2118728	0	0	0	0	0	0
1.593742	0.04523228	0.2118548	-0.0005289476	-0.0003625354	-0.00798208	-0.005470838	0	0
1.61031	0.04520602	0.2118368	-0.001585187	-0.001086472	-0.01595048	-0.0109323	0	0
1.627149	0.04520602	0.2118368	0	0	0.04745062	0.03252218	0	0
1.643661	0.04517976	0.2118188	-0.001590341	-0.001090158	-0.04768485	-0.03268736	0	0
1.660172	0.04517976	0.2118188	0	0	0.04815909	0.03301245	0	0
1.676684	0.04517976	0.2118188	0	0	0	0	0	0
1.693195	0.0451535	0.2118008	-0.001590647	-0.001090213	-0.04816854	-0.03301423	0	0
1.70971	0.0451535	0.2118008	0	0	0.0481628	0.0330103	0	0
1.726276	0.0451535	0.2118008	0	0	0	0	0	0
1.759747	0.0451535	0.2118008	0	0	0	0	0	0
1.792765	0.04512724	0.2117828	-0.0007954094	-0.0005451657	-0.01196301	-0.008199325	0	0
1.809278	0.04512724	0.2117468	0	-0.002179272	0.01605863	-0.03299121	0	0
1.82579	0.04510098	0.2117288	-0.001590341	-0.001090158	-0.04815579	0.03297857	0	0
1.842304	0.04504845	0.2116568	-0.003180765	-0.00436013	-0.04815711	-0.09901281	0	0
1.858809	0.04496966	0.2114949	-0.00477354	-0.00981387	-0.04823875	-0.1651718	0	0
1.875376	0.04481208	0.2112429	-0.009511603	-0.01521047	-0.1432656	-0.1631779	0	0
1.891948	0.0449434	0.2110809	0.007923884	-0.009774813	0.5261264	0.1640242	0	0
1.90851	0.04507471	0.2109189	0.007928736	-0.009781975	0.0001464139	-0.0002161496	0	0
1.92536	0.04554743	0.2104869	0.02805401	-0.02563867	0.6023414	-0.4745844	0	0
1.941648	0.04788442	0.2087766	0.143476	-0.1049999	3.483015	-2.394835	0	0
1.958389	0.04817323	0.2083625	0.01725204	-0.02473759	-3.821627	2.430068	0	0
1.974776	0.04788442	0.2082004	-0.01762365	-0.009888665	-1.052759	0.4482301	0	0
1.991345	0.04767437	0.2080564	-0.01267735	-0.008694096	0.1500872	0.03624726	0	0
2.007913	0.04699169	0.2075522	-0.04120386	-0.03043134	-0.8608667	-0.6559818	0	0
2.024477	0.04531107	0.2063636	-0.1014646	-0.07175899	-1.818809	-1.247365	0	0
2.041045	0.04405043	0.2053189	-0.0760868	-0.06305131	0.7659574	0.2628172	0	0
2.057611	0.04583629	0.204094	0.1078056	-0.07394557	5.549962	-0.3287942	0	0
2.074175	0.04872456	0.2021481	0.1743714	-0.1174783	2.009266	-1.314019	0	0
2.090742	0.05444613	0.1982187	0.3453498	-0.2371724	5.160622	-3.612714	0	0
2.107311	0.05853831	0.1953696	0.2469826	-0.17196	-2.968578	1.968016	0	0
2.127539	0.06593062	0.1902455	0.3654469	-0.253312	3.219416	-2.210844	0	0
2.144106	0.06957175	0.1877363	0.219779	-0.151456	-3.958864	2.768173	0	0
2.160673	0.0752262	0.1836908	0.3413129	-0.2441958	3.667955	-2.798932	0	0
2.17724	0.08437813	0.1764245	0.5524119	-0.4385928	6.371072	-5.866999	0	0
2.194046	0.08584116	0.1728789	0.0870548	-0.2109771	-13.94407	6.820333	0	0
2.210374	0.08518807	0.1681543	-0.03999943	-0.2893583	-3.834615	-2.365619	0	0
2.227071	0.07773776	0.1591116	-0.4462144	-0.541586	-12.30048	-7.637638	0	0
2.243507	0.07488602	0.1571709	-0.1735051	-0.1180798	8.2308	12.78209	0	0
2.260093	0.07271368	0.1556287	-0.1309698	-0.09297873	1.288064	0.7601179	0	0
2.27664	0.07284456	0.1557194	0.007909871	0.005483373	4.191517	2.971678	0	0
2.293207	0.07284456	0.1557194	0	0	-0.2388699	-0.1655922	0	0
2.326642	0.07284456	0.1557194	0	0	0	0	0	0
2.342907	0.07284456	0.1557194	0	0	0	0	0	0
2.359474	0.07281839	0.1557376	-0.001579905	0.001095544	-0.04812031	0.0333678	0	0
2.376041	0.07281839	0.1557376	0	0	0.0476823	-0.03306407	0	0
2.392689	0.07281839	0.1557376	0	0	0	0	0	0
2.409174	0.07281839	0.1557376	0	0	0	0	0	0
2.42574	0.07281839	0.1557376	0	0	0	0	0	0
2.442307	0.07284456	0.1557194	0.001579905	-0.001095544	0.04768367	-0.03306502	0	0
2.458874	0.07284456	0.1557194	0	0	-0.04768367	0.03306502	0	0
2.475441	0.07284456	0.1557194	0	0	0	0	0	0
2.492007	0.07284456	0.1557194	0	0	0	0	0	0
2.508574	0.07284456	0.1557194	0	0	0	0	0	0
2.525141	0.07284456	0.1557194	0	0	0	0	0	0
2.541794	0.07284456	0.1557194	0	0	0	0	0	0
2.558274	0.07284456	0.1557194	0	0	0	0	0	0
2.574841	0.07284456	0.1557194	0	0	0	0	0	0
2.657674	0.07284456	0.1557194	0	0	0	0	0	0
2.674241	0.07284456	0.1557194	0	0	0	0	0	0
2.6909	0.07281839	0.1557376	-0.001571177	0.001089492	-0.04728822	0.03279081	0	0
2.707412	0.07281839	0.1557376	0	0	0.04736606	-0.03284478	0	0
2.723941	0.07279221	0.155792	-0.001583979	0.00329327	-0.0479398	0.09967221	0	0
2.740508	0.07273985	0.1558646	-0.003160259	0.004381278	-0.04762809	0.03287472	0	0
2.757075	0.07273985	0.1559009	0	0.002190095	0.09537749	-0.06613051	0	0
2.773641	0.07273985	0.1559009	0	0	0	-0.0660991	0	0
2.790209	0.07273985	0.1559009	0	0	0	0	0	0
2.806776	0.07273985	0.1559009	0	0	0	0	0	0
2.823342	0.07273985	0.1559009	0	0	0	0	0	0
2.840005	0.07273985	0.1559009	0	0	0	0	0	0
2.856516	0.07273985	0.1559009	0	0	0	0	0	0
2.889611	0.07273985	0.1559009	0	0	0	0	0	0
2.906176	0.07273985	0.1559009	0	0	0	0	0	0
2.922742	0.07273985	0.1559009	0	0	0	0	0	0
2.939576	0.07273985	0.1559009	0	0	0	0	0	0
2.955875	0.07273985	0.1559009	0	0	0	0	0	0
2.972602	0.07273985	0.1559009	0	0	0	0	0	0
2.98911	0.07273985	0.1559009	0	0	0	0	0	0
3.005574	0.07273985	0.1559009	0	0	0	0	0	0
3.022141	0.07273985	0.1559009	0	0	0	0	0	0
3.042285	0.07273985	0.1559009	0	0	0	0	0	0
3.058853	0.07273985	0.1559009	0	0	0	0	0	0
3.075418	0.07273985	0.1559009	0	0	0	0	0	0
3.091986	0.07273985	0.1559009	0	0	0	0	0	0
3.108552	0.07273985	0.1559009	0	0	0	0	0	0
3.125119	0.07276604	0.1558827	0.001580354	-0.001095544	0.04769656	-0.03306455	0	0
3.141685	0.07276604	0.1558827	0	0	-0.04769725	0.03306502	0	0
3.158252	0.07276604	0.1558827	0	0	0	0	0	0
3.174819	0.07276604	0.1558827	0	0	0	0	0	0
3.191385	0.07276604	0.1558827	0	0	0	0	0	0
3.207952	0.07276604	0.1558827	0	0	0	0	0	0
3.22452	0.07276604	0.1558827	0	0	0	0	0	0
3.241087	0.07271368	0.155919	-0.003160168	0.002191026	-0.09537406	0.06612529	0	0
3.257652	0.07190215	0.1566266	-0.04899052	0.04271615	-1.383252	1.22313	0	0
3.27422	0.07085487	0.1578602	-0.06321279	0.07445782	-0.4292536	0.9580209	0	0
3.290787	0.0641225	0.1626651	-0.4063494	0.2900115	-10.35559	6.505235	0	0
3.307354	0.05497088	0.1689873	-0.5524087	0.3816191	-4.408047	2.764705	0	0
3.323921	0.04378778	0.1766958	-0.6750326	0.4653015	-3.700902	2.52561	0	0
3.340487	0.03606331	0.1820105	-0.4662972	0.3208278	6.300053	-4.360506	0	0
3.357053	0.0208917	0.1924291	-0.9157866	0.6288866	-13.56649	9.297834	0	0
3.373882	0.008526109	0.2008685	-0.7347883	0.5014884	5.419835	-3.814826	0	0
3.390186	0.0006052631	0.2062915	-0.4858147	0.3326122	7.514363	-5.096914	0	0
3.406754	-0.005947298	0.2107749	-0.3955077	0.2706103	2.747254	-1.88618	0	0
3.423419	-0.01057855	0.2139063	-0.2779034	0.1879077	3.538841	-2.488608	0	0
3.476463	-0.01134162	0.2143922	-0.01438557	0.009158887	3.780265	-2.564221	0	0
3.49303	-0.01131531	0.2144102	0.001588212	0.001085603	0.2294711	-0.1159766	0	0
3.509598	-0.01128899	0.2143922	0.001588212	-0.001085603	0	-0.06552622	0	0
3.526164	-0.01123637	0.2143562	0.003176643	-0.002172294	0.0479403	-0.03279733	0	0
3.542731	-0.01118374	0.2143202	0.003176424	-0.002172106	-6.584341E-06	5.656771E-06	0	0
3.559297	-0.01105218	0.2142302	0.007941577	-0.005431106	0.1438157	-0.09835894	0	0
3.575863	-0.01086799	0.2141043	0.01111845	-0.007602579	0.0958843	-0.06553942	0	0
3.592431	-0.01073643	0.2140143	0.007941232	-0.005430794	-0.09589195	0.06554696	0	0
3.609046	-0.01073643	0.2140143	0	0	-0.2393173	0.1636626	0	0
3.625564	-0.01073643	0.2140143	0	0	0	0	0	0
3.64213	-0.01073643	0.2140503	0	0.0021722	0	0.06565682	0	0
3.658698	-0.01071012	0.2140683	0.001588212	0.001086503	0.04793268	-0.03276665	0	0
3.675264	-0.01060487	0.2142122	0.006353306	0.008689051	0.1438139	0.2294503	0	0
3.691831	-0.009973354	0.2150039	0.03811925	0.04778571	0.9587393	1.17999	0	0
3.72513	-0.005920983	0.2191409	0.1216974	0.1242393	1.676073	1.533196	0	0
3.741531	-0.001842103	0.2327436	0.2486962	0.8293799	2.555319	14.188	0	0
3.758098	-0.002894729	0.246453	-0.06353568	0.8274916	-9.470608	-0.0572769	0	0
3.774664	-0.003052622	0.2622234	-0.009531424	0.9519977	1.629922	3.757764	0	0
3.791231	-0.003157884	0.278011	-0.006353643	0.9529397	0.09591045	0.0284308	0	0
3.807797	-0.001894735	0.2934262	0.07624826	0.9305146	2.493002	-0.6768108	0	0
3.824364	0.000736842	0.3137968	0.1588468	1.229611	2.492938	9.027139	0	0
3.857499	0.008868189	0.3416747	0.2454028	0.8413514	1.741517	-7.811836	0	0
3.886748	0.02086539	0.3639985	0.4101755	0.7632337	2.64128	-1.252215	0	0
3.903315	0.03009617	0.3781664	0.5571631	0.8551605	3.208186	2.006416	0	0
3.919882	0.03262001	0.381276	0.1523432	0.1877033	-12.21758	-20.14404	0	0
3.936448	0.04833075	0.3942913	0.9483573	0.7856521	24.02479	18.04691	0	0
3.953015	0.05869566	0.4013571	0.6256449	0.4264996	-9.739899	-10.83971	0	0
3.972614	0.07475517	0.4123287	0.8193963	0.5598032	5.357285	3.685889	0	0
3.989182	0.08330674	0.4181493	0.5161667	0.3513254	-8.384228	-5.764364	0	0
4.005749	0.09075005	0.4231841	0.4492661	0.3038926	-2.019021	-1.431492	0	0
4.022315	0.09849603	0.4281853	0.4675883	0.3018965	0.552981	-0.06024415	0	0
4.038883	0.1006587	0.4295659	0.1305327	0.08333214	-10.17265	-6.596477	0	0
4.055451	0.1010754	0.4297094	0.0251546	0.008659021	-3.180135	-2.253509	0	0
4.072016	0.101961	0.4290997	0.05345982	-0.03680482	0.8542778	-1.372141	0	0
4.088892	0.1025339	0.4287052	0.03394983	-0.02337525	-0.5834308	0.4016006	0	0
4.105148	0.1038097	0.4278267	0.0784802	-0.0540431	1.344045	-0.9256377	0	0
4.121715	0.1056317	0.4265359	0.1099745	-0.07791273	0.959502	-0.7272102	0	0
4.138281	0.1056056	0.4265538	-0.001570955	0.001081184	-3.366545	2.38411	0	0
4.154848	0.1056317	0.4265359	0.001570955	-0.001081184	0.0948285	-0.06526416	0	0
4.171442	0.1056317	0.4265359	0	0	-0.04737402	0.0326044	0	0
4.187982	0.1056317	0.4265359	0	0	0	0	0	0
4.204547	0.1056317	0.4265359	0	0	0	0	0	0
4.221114	0.1056577	0.4265538	0.00157091	0.001081153	0.04741289	0.03263114	0	0
4.237681	0.1056837	0.4265718	0.00157091	0.001082952	0	5.429446E-05	0	0
4.254501	0.1056837	0.4265718	0	0	-0.04705129	-0.03243616	0	0
4.270814	0.1057097	0.4265538	0.001594928	-0.001099825	0.04813711	-0.0331942	0	0
4.287381	0.1057358	0.4265359	0.001570865	-0.001081122	-0.000731866	0.0005688164	0	0
4.304037	0.1057618	0.4265538	0.0015625	0.001075365	-0.0002517724	0.06490916	0	0
4.320515	0.1057618	0.4265538	0	0	-0.0471577	-0.03245552	0	0
4.337081	0.1057878	0.4265718	0.001570955	0.001082983	0.04754151	0.03277411	0	0
4.353648	0.1057618	0.4265538	-0.001570865	-0.001082921	-0.09482305	-0.06536899	0	0
4.370584	0.1057618	0.4265538	0	0	0.04688654	0.03232259	0	0
4.386782	0.1057618	0.4265538	0	0	0	0	0	0
4.403608	0.1057618	0.4265538	0	0	0	0	0	0
4.453048	0.1059439	0.4263925	0.003684271	-0.003262919	0.05559817	-0.04923967	0	0
4.469655	0.1059439	0.4263925	0	0	-0.05578281	0.0494032	0	0
4.486181	0.1059179	0.4263746	-0.001574266	-0.001085577	-0.04751351	-0.03276418	0	0
4.502748	0.1059179	0.4263746	0	0	0.04757033	0.03280336	0	0
4.519314	0.1058919	0.4263566	-0.001570955	-0.001081184	-0.04741357	-0.03263161	0	0
4.535881	0.1058919	0.4263566	0	0	0.04741357	0.03263161	0	0
4.552712	0.1058659	0.4263387	-0.00154621	-0.001065924	-0.04629628	-0.03191567	0	0
4.569015	0.1058659	0.4263387	0	0	0.04666606	0.03217059	0	0
4.585581	0.1058399	0.4263208	-0.00157046	-0.001081153	-0.04777957	-0.03289293	0	0
4.602148	0.1057878	0.4262849	-0.003141461	-0.002164167	-0.04741494	-0.03268685	0	0
4.618715	0.1057618	0.426267	-0.001570865	-0.001082921	0.04740205	0.03263303	0	0
4.635281	0.1056837	0.4262132	-0.004712416	-0.003245351	-0.09481493	-0.06526416	0	0
4.651847	0.1055536	0.4260877	-0.007854327	-0.007575485	-0.09482852	-0.1306912	0	0
4.668414	0.1055536	0.4260519	0	-0.002164105	0.2370543	0.1633228	0	0
4.684981	0.1055276	0.4259623	-0.00157091	-0.005409363	-0.04741152	-0.09794491	0	0
4.701548	0.1054235	0.4258189	-0.00628364	-0.00865642	-0.1422346	-0.09799919	0	0
4.718114	0.1052673	0.4255679	-0.009425459	-0.01514873	-0.09482303	-0.1959441	0	0
4.75125	0.1120809	0.419905	0.2056262	-0.1708989	4.326766	-3.13364	0	0
4.767865	0.1133541	0.4187405	0.07662945	-0.0700894	-2.592883	2.026309	0	0
4.784382	0.1169118	0.4137434	0.2153931	-0.3025419	4.188256	-7.016037	0	0
4.800947	0.1172752	0.4113082	0.02193707	-0.1470045	-5.847686	4.701503	0	0
4.821695	0.120674	0.408963	0.163816	-0.1130361	3.8024	0.9103656	0	0
4.838262	0.1210889	0.4083543	0.02504479	-0.03673656	-3.718922	2.044747	0	0
4.854829	0.119403	0.4070119	-0.1017617	-0.08103018	-3.827029	-1.336784	0	0
4.871396	0.1130683	0.4024306	-0.382372	-0.2765359	-8.468956	-5.90046	0	0
4.887963	0.1054495	0.3965449	-0.4598858	-0.3552712	-2.339439	-2.376304	0	0
4.90453	0.09471574	0.3886051	-0.6479098	-0.4792638	-5.674737	-3.742212	0	0
4.921095	0.08751275	0.3830634	-0.4348109	-0.3345255	6.431706	4.368463	0	0
4.937662	0.08233973	0.375879	-0.3122535	-0.4336593	3.699002	-2.992036	0	0
4.954229	0.07742387	0.3640164	-0.2967302	-0.7160507	0.468509	-8.522837	0	0
4.971007	0.07326338	0.3538895	-0.2479662	-0.6035663	1.462397	3.37333	0	0
4.987362	0.06729298	0.3404604	-0.3650494	-0.8210953	-3.533678	-6.565229	0	0
5.003929	0.06420112	0.3342104	-0.1866302	-0.377263	5.419485	13.48141	0	0
5.020495	0.05824982	0.3231561	-0.3592421	-0.6672777	-5.209662	-8.753037	0	0
5.037062	0.05363273	0.3162619	-0.2786962	-0.4161504	2.430985	7.579365	0	0
5.053629	0.04649279	0.3094737	-0.43098	-0.4097462	-4.596067	0.1932835	0	0
5.070198	0.04102959	0.3056146	-0.3297213	-0.2329109	3.055862	5.33667	0	0
5.086762	0.03669405	0.3024876	-0.261739	-0.1887774	2.051769	1.331989	0	0
5.103601	0.0312004	0.2979662	-0.3262637	-0.2685206	-1.931736	-2.387347	0	0
5.119915	0.02712492	0.2946953	-0.2497994	-0.2004841	2.306402	2.052196	0	0
5.136463	0.02139147	0.2906909	-0.3464906	-0.2419979	-2.942325	-1.263272	0	0
5.153136	0.01773498	0.2880626	-0.2192987	-0.1576326	3.828686	2.539537	0	0
5.16965	0.01434112	0.2856844	-0.2055163	-0.144016	0.4152924	0.4102928	0	0
5.186163	0.007552488	0.2807123	-0.4111117	-0.3011045	-6.225129	-4.756411	0	0
5.20273	0.002131576	0.2767407	-0.3272163	-0.2397299	2.536165	1.85536	0	0
5.219296	-0.005657834	0.271229	-0.4701968	-0.3327061	-4.315345	-2.806147	0	0
5.235863	-0.01184155	0.2669149	-0.3732606	-0.2604068	2.925665	2.182092	0	0
5.335263	-0.04299979	0.2456102	-0.3134616	-0.2143324	0.5156547	0.3973045	0	0
5.35183	-0.04284219	0.2457178	0.009513157	0.006495013	2.785051	1.904222	0	0
5.368397	-0.04284219	0.2457178	0	0	-0.2871118	-0.1960227	0	0
5.384964	-0.04281592	0.2457357	0.001585572	0.001082084	0.04785403	0.03265829	0	0
5.401531	-0.04281592	0.2457357	0	0	-0.04785403	-0.03265829	0	0
5.434663	-0.04281592	0.2457357	0	0	0	0	0	0
5.451347	-0.04281592	0.2457357	0	0	0	0	0	0
5.46786	-0.04281592	0.2457357	0	0	0	0	0	0
5.484372	-0.04281592	0.2457357	0	0	0	0	0	0
5.50093	-0.04281592	0.2457357	0	0	0	0	0	0
5.517497	-0.04281592	0.2457357	0	0	0	0	0	0
5.534064	-0.04281592	0.2457357	0	0	0	0	0	0
5.550631	-0.04281592	0.2457357	0	0	0	0	0	0
5.567431	-0.04281592	0.2457357	0	0	0	0	0	0
5.583941	-0.04276339	0.2457716	0.003182085	0.002172383	0.09552823	0.06521633	0	0
5.600456	-0.04255324	0.245915	0.01272495	0.008687523	0.2889606	0.1972803	0	0
5.616898	-0.04247444	0.2459688	0.004792948	0.003272636	-0.2406836	-0.164306	0	0
5.633477	-0.04223802	0.2460585	0.01425974	0.005408014	0.2866903	0.06466734	0	0
5.650031	-0.04197533	0.2459868	0.01586849	-0.004333252	0.04855351	-0.2940004	0	0
5.667002	-0.03703569	0.2429735	0.29107	-0.177556	8.208846	-5.166975	0	0
5.683164	-0.02717752	0.2363881	0.609963	-0.407468	9.624765	-6.939156	0	0
5.716537	-0.015604	0.2287745	0.3467892	-0.2281345	-5.312856	3.620318	0	0
5.732864	-0.0045526	0.2215502	0.6768826	-0.4424732	6.641683	-4.312626	0	0
5.749431	0.00460523	0.2154717	0.5527837	-0.3669147	-3.77273	2.297051	0	0
5.765998	0.01039436	0.2116928	0.3494327	-0.2280897	-6.137232	4.189807	0	0
5.785628	0.01720883	0.2072821	0.3471462	-0.2246968	-0.06316772	0.09373435	0	0
5.802195	0.01723514	0.2073001	0.001587954	0.001086519	-9.546551	6.237594	0	0
5.818762	0.01741929	0.2073901	0.01111589	0.005435447	0.2875577	0.1312528	0	0
5.835329	0.0174456	0.2074081	0.001588	0.00108655	-0.2875604	-0.1312538	0	0
5.851896	0.01747191	0.2073901	0.001587954	-0.001086519	-1.380795E-06	-0.06558428	0	0
5.868462	0.01747191	0.2073901	0	0	-0.04792593	0.03279214	0	0
5.885028	0.01752452	0.2073541	0.003176091	-0.002174062	0.09586013	-0.06561709	0	0
5.901595	0.01760344	0.2073001	0.004763887	-0.003261448	0.04792184	-0.03281881	0	0
5.918162	0.01762975	0.2073181	0.001588	0.001087449	-0.09585122	0.1312538	0	0
5.934729	0.0177876	0.2073901	0.009527612	0.004347873	0.2396214	0.0984012	0	0
5.951295	0.01807698	0.2075522	0.01746805	0.009782827	0.2396498	0.164032	0	0
5.967862	0.01902402	0.2080924	0.05716683	0.03260913	1.19818	0.6889387	0	0
5.984428	0.02083909	0.2089386	0.1095609	0.05108133	1.581323	0.5575163	0	0
6.001237	0.02223318	0.2079843	0.08293726	-0.05677321	-0.7976931	-3.231525	0	0
6.034129	0.02899187	0.2033553	0.205486	-0.1407374	2.465756	-1.68941	0	0
6.067265	0.04352513	0.1935658	0.4385955	-0.2954362	3.530509	-2.342958	0	0
6.083829	0.0477794	0.1912201	0.2568254	-0.1416042	-3.65729	3.095166	0	0
6.100395	0.04956464	0.1907148	0.1077664	-0.0305034	-4.499127	3.353414	0	0
6.116962	0.05402632	0.1936379	0.2693155	0.1764447	4.87584	6.246066	0	0
6.133529	0.05893168	0.1968664	0.2960967	0.1948783	0.8082833	0.5563423	0	0
6.150095	0.06213046	0.1986334	0.1930841	0.1066582	-3.109018	-2.662565	0	0
6.166856	0.06289063	0.1991562	0.04535428	0.03119132	-4.432659	-2.264397	0	0
6.183229	0.06294306	0.1991201	0.00320227	-0.002202499	-1.272187	-1.007857	0	0
6.199878	0.06299549	0.1990841	0.003148718	-0.00216508	-0.001621712	0.001133177	0	0
6.216362	0.06304791	0.199048	0.003180142	-0.00218759	0.0009484047	-0.0006794056	0	0
6.232929	0.06304791	0.199048	0	0	-0.09621919	0.0661883	0	0
6.249496	0.06304791	0.199048	0	0	0	0	0	0
6.266062	0.06304791	0.199048	0	0	0	0	0	0
6.282629	0.06304791	0.199048	0	0	0	0	0	0
6.299448	0.06304791	0.199048	0	0	0	0	0	0
6.315762	0.06304791	0.199048	0	0	0	0	0	0
6.332472	0.06304791	0.199048	0	0	0	0	0	0
6.348895	0.06299549	0.199048	-0.003191961	0	-0.09633772	0	0	0
6.365497	0.06299549	0.199048	0	0	0.09665208	0	0	0
6.382035	0.06299549	0.199048	0	0	0	0	0	0
6.398595	0.06296927	0.19903	-0.001582791	-0.001087888	-0.04782103	-0.03286846	0	0
6.415162	0.06294306	0.199048	-0.001582153	0.001087449	1.925095E-05	0.06566692	0	0
6.432043	0.06294306	0.199048	0	0	0.04730292	-0.03251235	0	0
6.448296	0.06294306	0.199048	0	0	0	0	0	0
6.464862	0.06291685	0.199066	-0.001582199	0.00108838	-0.04820944	0.03316284	0	0
6.481429	0.06289063	0.199048	-0.001582557	-0.001088317	-1.082516E-05	-0.06569475	0	0
6.497995	0.06289063	0.199048	0	0	0.04776305	0.03284643	0	0
6.514562	0.06286442	0.19903	-0.001582153	-0.001087449	-0.04775154	-0.0328207	0	0
6.531129	0.06283821	0.199012	-0.001582153	-0.001088349	0	-2.714548E-05	0	0
6.547696	0.062812	0.1989939	-0.001582153	-0.001088349	0	0	0	0
6.564636	0.06278579	0.1989759	-0.001547282	-0.001064361	0.00104071	0.0007158943	0	0
6.580829	0.06275958	0.1989579	-0.00161868	-0.001113475	-0.002154874	-0.00148232	0	0
6.597395	0.06275958	0.1989579	0	0	0.04941075	0.03398921	0	0
6.616889	0.06273337	0.1989399	-0.001344604	-0.0009241762	-0.03728762	-0.02562861	0	0
6.633457	0.06273337	0.1989399	0	0	0.03728663	0.02562793	0	0
6.650198	0.06270715	0.1989218	-0.001566149	-0.001077034	-0.0470195	-0.0323351	0	0
6.66659	0.06270715	0.1989218	0	0	0.04726784	0.03250588	0	0
6.683157	0.06270715	0.1989218	0	0	0	0	0	0
6.699731	0.06268094	0.1989038	-0.001581425	-0.001087848	-0.04771789	-0.0328247	0	0
6.717569	0.06268094	0.1989038	0	0	0.04595575	0.03161254	0	0
6.734137	0.06268094	0.1989038	0	0	0	0	0	0
6.750769	0.06268094	0.1989038	0	0	0	0	0	0
6.767271	0.06268094	0.1989038	0	0	0	0	0	0
6.783837	0.06268094	0.1989038	0	0	0	0	0	0
6.800803	0.06268094	0.1989038	0	0	0	0	0	0
6.81697	0.06268094	0.1989038	0	0	0	0	0	0
6.833827	0.06265473	0.1988858	-0.001554942	-0.00106963	-0.04708544	-0.03238964	0	0
6.850103	0.06265473	0.1988858	0	0	0.04693026	0.0322829	0	0
6.86667	0.06265473	0.1988858	0	0	0	0	0	0
6.883237	0.06265473	0.1988858	0	0	0	0	0	0
6.899873	0.06265473	0.1988858	0	0	0	0	0	0
6.916385	0.06265473	0.1988858	0	0	0	0	0	0
6.932938	0.06265473	0.1988858	0	0	0	0	0	0
6.949505	0.06265473	0.1988858	0	0	0	0	0	0
6.982933	0.06265473	0.1988858	0	0	0	0	0	0
6.999204	0.06265473	0.1988858	0	0	0	0	0	0
7.01577	0.06262852	0.1988677	-0.001582199	-0.00108838	-0.04818284	-0.03314454	0	0
7.032337	0.06262852	0.1988677	0	0	0.04775292	0.03284879	0	0
7.048903	0.06262852	0.1988677	0	0	0	0	0	0
7.06547	0.06262852	0.1988677	0	0	0	0	0	0
7.082037	0.06262852	0.1988677	0	0	0	0	0	0
7.098604	0.0626023	0.1988497	-0.001582199	-0.001087481	-0.04775223	-0.03282117	0	0
7.11517	0.0626023	0.1988497	0	0	0.0477536	0.03282212	0	0
7.148304	0.0626023	0.1988497	0	0	0	0	0	0
7.16487	0.06257609	0.1988317	-0.001582603	-0.001088349	-0.03184295	-0.02189825	0	0
7.181437	0.06257609	0.1988317	0	0	0.04776443	0.03284737	0	0
7.198083	0.06257609	0.1988317	0	0	0	0	0	0
7.21457	0.06257609	0.1988317	0	0	0	0	0	0
7.231137	0.06254987	0.1988137	-0.001582153	-0.001088349	-0.04786589	-0.03292651	0	0
7.247704	0.06252366	0.1987956	-0.001582153	-0.001088349	0	0	0	0
7.264271	0.06252366	0.1987956	0	0	0.04775017	0.0328469	0	0
7.281142	0.06252366	0.1987956	0	0	0	0	0	0
7.297404	0.06249745	0.1987776	-0.001612074	-0.001108773	-0.04865459	-0.03346429	0	0
7.31397	0.06249745	0.1987776	0	0	0.0491069	0.03377539	0	0
7.330678	0.06249745	0.1987776	0	0	0	0	0	0
7.347104	0.06249745	0.1987776	0	0	0	0	0	0
7.36367	0.06249745	0.1987776	0	0	0	0	0	0
7.380238	0.06247124	0.1987596	-0.001582108	-0.001088317	-0.04774879	-0.03284596	0	0
7.396803	0.06244502	0.1987416	-0.001582469	-0.001087512	-1.090964E-05	2.431041E-05	0	0
7.41337	0.06244502	0.1987416	0	0	0.04776176	0.03282306	0	0
7.430248	0.06241881	0.1987235	-0.001553009	-0.001068301	-0.04643554	-0.03194258	0	0
7.446504	0.0623926	0.1987055	-0.001612641	-0.001109164	-0.001799767	-0.001233289	0	0
7.482285	0.0623926	0.1987055	0	0	0.03098986	0.02131461	0	0
7.498662	0.0623926	0.1987055	0	0	0	0	0	0
7.515308	0.0623926	0.1987055	0	0	0	0	0	0
7.577928	0.06236638	0.1986875	-0.0004186362	-0.0002879351	-0.005281437	-0.003632535	0	0
7.594495	0.06236638	0.1986875	0	0	0.005286684	0.003636145	0	0
7.611062	0.06234017	0.1986694	-0.001582153	-0.001088349	-0.04775017	-0.0328469	0	0
7.627628	0.06234017	0.1986694	0	0	0.04775154	0.03284785	0	0
7.644195	0.06231396	0.1986514	-0.001582333	-0.001088317	-0.04775627	-0.03284643	0	0
7.660761	0.06228774	0.1986334	-0.001582424	-0.001087481	-2.751088E-06	2.52552E-05	0	0
7.677328	0.06228774	0.1986334	0	0	0.0477597	0.03282164	0	0
7.693936	0.06226153	0.1986154	-0.001578247	-0.001085661	-0.04757407	-0.03272576	0	0
7.710462	0.06223531	0.1985973	-0.001586259	-0.001091018	-0.0002418182	-0.0001616654	0	0
7.727028	0.06215667	0.1985432	-0.004747046	-0.00326514	-0.09551371	-0.06569834	0	0
7.743595	0.06215667	0.1985432	0	0	0.1432723	0.09854638	0	0
7.760162	0.06210424	0.1985072	-0.003164665	-0.002175735	-0.09551115	-0.06566477	0	0
7.776729	0.0620256	0.1984531	-0.004747271	-0.00326514	-0.04776452	-0.03287925	0	0
7.793508	0.06194695	0.198399	-0.0046871	-0.003223755	0.001804483	0.001241106	0	0
7.809862	0.06186831	0.1983449	-0.004808726	-0.003306497	-0.003670788	-0.002497236	0	0
7.826429	0.06173723	0.1982548	-0.007912115	-0.005441744	-0.09426686	-0.06485909	0	0
7.843043	0.06163237	0.1981827	-0.006311752	-0.004341025	0.04823173	0.03317344	0	0
7.859562	0.06155372	0.1981286	-0.004761063	-0.003273569	0.0468019	0.03221729	0	0
7.876129	0.06144886	0.1980565	-0.006329737	-0.004353395	-0.04741227	-0.03263711	0	0
7.892695	0.06139642	0.1980204	-0.003165072	-0.00217676	0.0955139	0.0656938	0	0
7.909262	0.06129156	0.1979483	-0.00632978	-0.004353269	-0.09551382	-0.06568907	0	0
7.925828	0.0610556	0.197786	-0.01424339	-0.009795421	-0.23884	-0.1642492	0	0
7.942396	0.06089829	0.1976778	-0.00949512	-0.006529904	0.1433071	0.09855632	0	0
7.958963	0.05987571	0.1969746	-0.06172289	-0.04244618	-1.576237	-1.083955	0	0
7.975634	0.05958727	0.1967763	-0.01730182	-0.01189774	1.336438	0.9190704	0	0
7.992095	0.05958727	0.1967763	0	0	0.5222076	0.3591003	0	0
8.008662	0.05958727	0.1967763	0	0	0	0	0	0
8.025229	0.05958727	0.1967763	0	0	0	0	0	0
8.041796	0.05958727	0.1967763	0	0	0	0	0	0
8.058362	0.05958727	0.1967763	0	0	0	0	0	0
8.074928	0.05958727	0.1967763	0	0	0	0	0	0
8.091495	0.05958727	0.1967763	0	0	0	0	0	0
8.108061	0.05958727	0.1967763	0	0	0	0	0	0
8.124628	0.05958727	0.1967763	0	0	0	0	0	0
8.141194	0.05958727	0.1967763	0	0	0	0	0	0
8.157761	0.05958727	0.1967763	0	0	0	0	0	0
8.174327	0.05958727	0.1967763	0	0	0	0	0	0
8.190893	0.05958727	0.1967763	0	0	0	0	0	0
8.20746	0.05958727	0.1967763	0	0	0	0	0	0
8.224027	0.05958727	0.1967763	0	0	0	0	0	0
8.240593	0.05958727	0.1967763	0	0	0	0	0	0
8.25716	0.05958727	0.1967763	0	0	0	0	0	0
8.273726	0.05958727	0.1967763	0	0	0	0	0	0
8.290357	0.05958727	0.1967763	0	0	0	0	0	0
8.306861	0.05958727	0.1967763	0	0	0	0	0	0
8.323427	0.05958727	0.1967763	0	0	0	0	0	0
8.344285	0.05958727	0.1967763	0	0	0	0	0	0
8.360852	0.05958727	0.1967763	0	0	0	0	0	0
8.377419	0.05958727	0.1967763	0	0	0	0	0	0
8.393987	0.05958727	0.1967763	0	0	0	0	0	0
8.410553	0.05958727	0.1967763	0	0	0	0	0	0
8.427119	0.05958727	0.1967763	0	0	0	0	0	0
8.443686	0.05958727	0.1967763	0	0	0	0	0	0
8.460252	0.05958727	0.1967763	0	0	0	0	0	0
8.476819	0.05958727	0.1967763	0	0	0	0	0	0
8.493385	0.05958727	0.1967763	0	0	0	0	0	0
8.509952	0.05958727	0.1967763	0	0	0	0	0	0
8.526519	0.05958727	0.1967763	0	0	0	0	0	0
8.543085	0.05958727	0.1967763	0	0	0	0	0	0
8.559651	0.05958727	0.1967763	0	0	0	0	0	0
8.576219	0.05958727	0.1967763	0	0	0	0	0	0
8.592785	0.05958727	0.1967763	0	0	0	0	0	0
8.609351	0.05958727	0.1967763	0	0	0	0	0	0
8.625917	0.05958727	0.1967763	0	0	0	0	0	0
8.642484	0.05958727	0.1967763	0	0	0	0	0	0
8.659051	0.05958727	0.1967763	0	0	0	0	0	0
8.675626	0.05958727	0.1967763	0	0	0	0	0	0
8.692184	0.05958727	0.1967763	0	0	0	0	0	0
8.708751	0.05958727	0.1967763	0	0	0	0	0	0
8.725318	0.05958727	0.1967763	0	0	0	0	0	0
8.741884	0.05958727	0.1967763	0	0	0	0	0	0
8.758451	0.05958727	0.1967763	0	0	0	0	0	0
8.775198	0.05958727	0.1967763	0	0	0	0	0	0
8.791707	0.05958727	0.1967763	0	0	0	0	0	0
8.80815	0.05958727	0.1967763	0	0	0	0	0	0
8.824718	0.05958727	0.1967763	0	0	0	0	0	0
8.841284	0.05958727	0.1967763	0	0	0	0	0	0
8.857852	0.05958727	0.1967763	0	0	0	0	0	0
8.874418	0.05958727	0.1967763	0	0	0	0	0	0
8.890985	0.05958727	0.1967763	0	0	0	0	0	0
8.907552	0.05958727	0.1967763	0	0	0	0	0	0
8.924118	0.05958727	0.1967763	0	0	0	0	0	0
8.940686	0.05958727	0.1967763	0	0	0	0	0	0
8.957252	0.05958727	0.1967763	0	0	0	0	0	0
8.973818	0.05958727	0.1967763	0	0	0	0	0	0
8.990384	0.05958727	0.1967763	0	0	0	0	0	0
9.00695	0.05958727	0.1967763	0	0	0	0	0	0
9.073217	0.05958727	0.1967763	0	0	0	0	0	0
9.089923	0.05958727	0.1967763	0	0	0	0	0	0
9.106351	0.05958727	0.1967763	0	0	0	0	0	0
9.122941	0.05958727	0.1967763	0	0	0	0	0	0
9.139483	0.05961349	0.1967943	0.001585155	0.001089949	0.04784282	0.03289661	0	0
9.15605	0.05961349	0.1967943	0	0	-0.04787727	-0.0329203	0	0
9.172618	0.05961349	0.1967943	0	0	0	0	0	0
9.189185	0.05958727	0.1967763	-0.001582782	-0.001088317	-0.04776709	-0.03284454	0	0
9.208338	0.05958727	0.1967763	0	0	0.04431097	0.03046812	0	0
9.224905	0.05958727	0.1967763	0	0	0	0	0	0
9.241471	0.05958727	0.1967763	0	0	0	0	0	0
9.258039	0.05958727	0.1967763	0	0	0	0	0	0
9.274605	0.05958727	0.1967763	0	0	0	0	0	0
9.291172	0.05958727	0.1967763	0	0	0	0	0	0
9.307738	0.05958727	0.1967763	0	0	0	0	0	0
9.324306	0.05958727	0.1967763	0	0	0	0	0	0
9.341095	0.05958727	0.1967763	0	0	0	0	0	0
9.357439	0.05958727	0.1967763	0	0	0	0	0	0
9.374005	0.05958727	0.1967763	0	0	0	0	0	0
9.390572	0.05958727	0.1967763	0	0	0	0	0	0
9.407138	0.05958727	0.1967763	0	0	0	0	0	0
9.423704	0.05958727	0.1967763	0	0	0	0	0	0
9.44027	0.05958727	0.1967763	0	0	0	0	0	0
9.456838	0.05958727	0.1967763	0	0	0	0	0	0
9.473689	0.05958727	0.1967763	0	0	0	0	0	0
9.490199	0.05958727	0.1967763	0	0	0	0	0	0
9.506712	0.05958727	0.1967763	0	0	0	0	0	0
9.523105	0.05958727	0.1967763	0	0	0	0	0	0
9.539671	0.05958727	0.1967763	0	0	0	0	0	0
9.556237	0.05958727	0.1967763	0	0	0	0	0	0
9.572803	0.05958727	0.1967763	0	0	0	0	0	0
9.589371	0.05958727	0.1967763	0	0	0	0	0	0
9.605938	0.05956105	0.1967943	-0.001582782	0.001088317	-0.04776846	0.03284548	0	0
9.622504	0.0595086	0.1968664	-0.003165747	0.00435352	-0.04777534	0.09854686	0	0
9.639071	0.05922015	0.1970648	-0.01741228	0.01197398	-0.4299861	0.2299992	0	0
9.655638	0.05845963	0.1975877	-0.04590496	0.0315621	-0.8599353	0.5911878	0	0
9.672205	0.05688593	0.1987055	-0.09498875	0.06747208	-1.481352	1.083765	0	0
9.688771	0.05428871	0.2004901	-0.1567775	0.1077226	-1.864843	1.214799	0	0
9.705352	0.04588882	0.2062555	-0.5066103	0.3477232	-10.55402	7.240522	0	0
9.721904	0.03401319	0.2143562	-0.7174748	0.4894084	-6.364269	4.276313	0	0
9.738471	0.01976059	0.2240668	-0.860289	0.5861327	-4.312129	2.920491	0	0
9.755391	0.008473481	0.2316303	-0.6670831	0.4470113	5.769526	-4.154449	0	0
9.771605	-0.006947257	0.2417537	-0.9511096	0.6243842	-8.572186	5.353279	0	0
9.788174	-0.0147884	0.2466682	-0.4732376	0.2966106	14.57702	-9.998416	0	0
9.804924	-0.02633601	0.2538211	-0.6893963	0.4270267	-6.487457	3.91411	0	0
9.821434	-0.04158128	0.2635308	-0.9233953	0.588109	-7.035377	4.843074	0	0
9.837872	-0.05567923	0.2684187	-0.8576685	0.2973664	1.994895	-8.824411	0	0
9.854459	-0.08064053	0.2700477	-1.504848	0.09820581	-19.59678	-6.030638	0	0
9.871006	-0.09901723	0.2704773	-1.110562	0.02596212	11.89957	-2.180319	0	0
9.887572	-0.116107	0.2712111	-1.0316	0.04429797	2.384587	0.5537276	0	0
9.904139	-0.125728	0.2716586	-0.5807601	0.02700981	13.60717	-0.5217875	0	0
9.920708	-0.1413665	0.273144	-0.9438295	0.08965084	-10.95714	1.890455	0	0
9.987052	-0.1627836	0.2795316	-0.3228178	0.09627949	7.489882	0.07994664	0	0
10.00356	-0.1627836	0.2795316	0	0	3.896168	-1.162021	0	0
10.0201	-0.1627836	0.2795316	0	0	0	0	0	0
10.03667	-0.1628092	0.2795137	-0.001546941	-0.001079261	-0.04672172	-0.03259655	0	0
10.05324	-0.1628092	0.2795137	0	0	0.04668811	0.0325731	0	0
10.08912	-0.1627836	0.2793885	0.0007142098	-0.003489662	0.01361667	-0.06653168	0	0
10.10547	-0.1628092	0.2792991	-0.001568153	-0.005472123	-0.0436984	-0.03795645	0	0
10.12215	-0.1628092	0.2791917	0	-0.006436188	0.04748685	-0.02919385	0	0
10.13866	-0.1628092	0.279156	0	-0.002166003	0	0.1286597	0	0
10.15517	-0.1628348	0.2789949	-0.00155131	-0.009751863	-0.04697681	-0.2297153	0	0
10.17173	-0.1630654	0.2786193	-0.01392368	-0.02268311	-0.3740771	-0.3909746	0	0
10.1883	-0.1636803	0.2779752	-0.03711432	-0.03887362	-0.6999958	-0.4887009	0	0
10.20487	-0.1684157	0.2745935	-0.2858464	-0.2041315	-7.506965	-4.987638	0	0
10.22143	-0.1768181	0.2682397	-0.5071995	-0.3835379	-6.680836	-5.414808	0	0
10.23823	-0.1816338	0.2646052	-0.286678	-0.2163673	6.609505	5.010465	0	0
10.25457	-0.1880159	0.2587843	-0.3906697	-0.356312	-3.138474	-4.22354	0	0
10.27125	-0.1945346	0.2491606	-0.3907027	-0.5768068	-0.0009990975	-6.677415	0	0
10.28776	-0.1990903	0.2410898	-0.2758889	-0.4887543	3.458519	2.65239	0	0
10.30427	-0.2053533	0.2329052	-0.3795221	-0.4959664	-3.13895	-0.2184476	0	0
10.32083	-0.211273	0.2288283	-0.3573135	-0.2460803	0.6715713	7.556369	0	0
10.3374	-0.2158474	0.2255225	-0.2761229	-0.1995549	2.450406	1.404178	0	0
10.35397	-0.2212894	0.2216222	-0.3285001	-0.2354364	-1.580837	-1.082967	0	0
10.37053	-0.2233174	0.2201658	-0.1224149	-0.08790783	6.220022	4.452677	0	0
10.3871	-0.2265932	0.2178101	-0.1977074	-0.1421781	-2.272268	-1.637834	0	0
10.40367	-0.2283666	0.216533	-0.1070604	-0.07709677	2.735813	1.964216	0	0
10.42023	-0.2283666	0.216533	0	0	3.231367	2.326986	0	0
10.43687	-0.2283666	0.216533	0	0	0	0	0	0
10.45337	-0.2283915	0.216515	-0.001513	-0.001090263	-0.04566506	-0.03290611	0	0
10.46993	-0.2283915	0.216515	0	0	0.0457599	0.03297444	0	0
10.4865	-0.2284665	0.2164611	-0.004521724	-0.003257944	-0.1364698	-0.09832779	0	0
10.50307	-0.2288908	0.2161553	-0.02561503	-0.01845822	-0.6366157	-0.4587585	0	0
10.51963	0	0	13.81667	-13.04791	417.7731	-393.2409	0	0
10.53644	-0.2373358	0.2100548	-14.11998	12.49693	-837.0585	765.3934	0	0
10.55276	-0.2412601	0.20721	-0.2403997	-0.1742712	418.9106	-382.4398	0	0
10.56933	-0.2437151	0.205427	-0.148196	-0.10763	2.80337	2.026165	0	0
10.5859	-0.2466127	0.2033193	-0.1749072	-0.1272298	-0.8061919	-0.5915582	0	0
10.60246	-0.2480722	0.2022201	-0.08810481	-0.06634711	2.619851	1.83755	0	0
10.61903	-0.2480722	0.2022201	0	0	2.659162	2.002475	0	0
10.6356	-0.2480722	0.2022201	0	0	0	0	0	0
10.65216	-0.2480722	0.2022201	0	0	0	0	0	0
10.66873	-0.2480722	0.2022201	0	0	0	0	0	0
10.6853	-0.2480475	0.2022021	0.00149315	-0.001087481	0.04506594	-0.03282212	0	0
10.70205	-0.2480475	0.2022021	0	0	-0.04481056	0.03263612	0	0
10.71843	-0.2480475	0.2022021	0	0	0	0	0	0
10.735	-0.2480475	0.2022021	0	0	0	0	0	0
10.81783	-0.2479733	0.2021481	0.0008956892	-0.0006526532	0.00901091	-0.006565894	0	0
10.88418	-0.2479239	0.202112	0.0007453737	-0.0005432537	-0.001007576	0.0007333138	0	0
10.90066	-0.2479239	0.202112	0	0	-0.008998376	0.006558322	0	0
10.91723	-0.2478991	0.202094	0.00149315	-0.001087481	0.04518038	-0.03290547	0	0
10.9338	-0.2478991	0.202094	0	0	-0.04506594	0.03282212	0	0
10.95036	-0.2478744	0.202076	0.00149225	-0.001087481	0.04503879	-0.03282212	0	0
10.96693	-0.2478744	0.202076	0	0	-0.04503879	0.03282212	0	0
10.98986	-0.2478249	0.2020399	0.002157682	-0.001572119	0.05463246	-0.039806	0	0
11.00642	-0.2478249	0.2020399	0	0	-0.05463114	0.03980504	0	0
11.02299	-0.2478249	0.2020399	0	0	0	0	0	0
11.03956	-0.2478249	0.2020399	0	0	0	0	0	0
11.05612	-0.2478249	0.2020399	0	0	0	0	0	0
11.07281	-0.2478249	0.2020399	0	0	0	0	0	0
11.08932	-0.2478249	0.2020399	0	0	0	0	0	0
11.10582	-0.2478249	0.2020399	0	0	0	0	0	0
11.12239	-0.2478249	0.2020399	0	0	0	0	0	0
11.13896	-0.2478002	0.2020219	0.001493064	-0.001087418	0.04506204	-0.03281928	0	0
11.15552	-0.2478002	0.2020219	0	0	-0.04506204	0.03281928	0	0
11.17209	-0.2478002	0.2020219	0	0	0	0	0	0
11.18866	-0.2477755	0.2020039	0.00149225	-0.00108838	0.04503879	-0.03284927	0	0
11.20522	-0.2477507	0.2019859	0.001493064	-0.001087418	2.45525E-05	2.903926E-05	0	0
11.22179	-0.247726	0.2019679	0.001493064	-0.001087418	0	0	0	0
11.23836	-0.2477013	0.2019498	0.00149315	-0.00108838	2.596493E-06	-2.903926E-05	0	0
11.25495	-0.2476765	0.2019318	0.001491175	-0.001086043	-5.955163E-05	7.050337E-05	0	0
11.27149	-0.2476518	0.2019138	0.001494957	-0.001088797	0.00011413	-8.312404E-05	0	0
11.28806	-0.2476518	0.2019138	0	0	-0.04514777	0.03288172	0	0
11.30462	-0.247627	0.2019318	0.00149315	0.001087481	0.04506594	0.03282212	0	0
11.32119	-0.2475776	0.2019679	0.002985228	0.002175735	0.0450323	0.03284454	0	0
11.33776	-0.2470086	0.2016615	0.03434693	-0.01849257	0.9465254	-0.6237885	0	0
11.35432	-0.2428227	0.1989759	0.2526751	-0.1621129	6.589536	-4.334719	0	0
11.37103	-0.2380069	0.1955139	0.288343	-0.2072871	1.072138	-1.357889	0	0
11.38754	-0.2209888	0.1833476	1.030834	-0.7369474	22.35694	-15.94846	0	0
11.40405	-0.2129078	0.1776	0.489377	-0.3480671	-16.39689	11.77643	0	0
11.42059	-0.1953451	0.1654013	1.061672	-0.7374188	17.31326	-11.7788	0	0
11.43716	-0.1815065	0.1563908	0.8353034	-0.5438754	-6.83694	5.845525	0	0
11.45372	-0.1625273	0.1446037	1.145583	-0.7114682	9.364246	-5.05796	0	0
11.48686	-0.1425012	0.1349413	0.6044416	-0.2916385	-10.88841	8.447476	0	0
11.50342	-0.1196883	0.1299121	1.377067	-0.3035789	15.54646	-0.2402596	0	0
11.51999	-0.09552418	0.1283987	1.458552	-0.09134581	2.459272	6.405391	0	0
11.53664	-0.06690001	0.1273957	1.719247	-0.06024638	7.848363	0.9362652	0	0
11.55312	-0.06116047	0.1270491	0.3481835	-0.02102347	-41.37996	1.183784	0	0
11.56969	-0.04029397	0.125316	1.259649	-0.1046245	27.57874	-2.529565	0	0
11.58626	-0.02015517	0.1241116	1.215581	-0.07269825	-1.330076	0.9635926	0	0
11.60282	0.0440767	0.1155629	3.877489	-0.5160608	80.34119	-13.38148	0	0
11.66953	0.05567923	0.1155994	0.1739337	0.0005481829	-44.47541	6.203876	0	0
11.6861	0.0724519	0.1153069	1.012284	-0.01765479	10.06715	-0.2185866	0	0
11.70266	0.09153298	0.1147584	1.151803	-0.03311104	4.210559	-0.466457	0	0
11.71927	0.1010494	0.113716	0.5731246	-0.06277686	-17.44546	-0.894338	0	0
11.7358	0.1033411	0.1122892	0.1386537	-0.08632292	-13.11311	-0.7106625	0	0
11.75237	0.1057097	0.1105875	0.1429565	-0.1027029	0.1300047	-0.494903	0	0
11.76893	0.1059179	0.1104045	0.01256819	-0.01104833	-3.935241	2.766219	0	0
11.7855	0.1058919	0.1103862	-0.001570955	-0.001105021	-0.4267693	0.3001242	0	0
11.80233	0.1058919	0.1103862	0	0	0.0470392	0.0330877	0	0
11.81884	0.1058659	0.1103679	-0.001576309	-0.001108335	-0.04727917	-0.03324296	0	0
11.83535	0.1058399	0.1103496	-0.001575585	-0.001108594	2.193437E-05	-7.850827E-06	0	0
11.85675	0.1057358	0.1102764	-0.004862929	-0.003419818	-0.08669592	-0.06095305	0	0
11.87337	0.1056577	0.1102581	-0.004697003	-0.001101407	0.004363488	0.06096934	0	0
11.88989	0.1055796	0.1102398	-0.004727384	-0.001108079	-0.0009168765	-0.0002013823	0	0
11.90646	0.1055016	0.1101849	-0.004712866	-0.003314612	0.0004388718	-0.06670272	0	0
11.92302	0.1055016	0.1101849	0	0	0.1422428	0.1000409	0	0
11.93992	0.1054495	0.1101849	-0.003079682	0	-0.09202065	0	0	0
11.95615	0.1054495	0.1101849	0	0	0.09295034	0	0	0
11.97272	0.1054235	0.1102032	-0.001570865	0.001104957	-0.04789402	0.03368898	0	0
11.98929	0.1054235	0.1102032	0	0	0.04741016	-0.03334863	0	0
12.00585	0.1053975	0.1101849	-0.001570955	-0.001105021	-0.04741425	-0.03335151	0	0
12.02242	0.1053454	0.1101483	-0.00314191	-0.002209591	-0.04741425	-0.03333793	0	0
12.03899	0.1052673	0.1100934	-0.004712323	-0.00331423	-0.04739515	-0.03333807	0	0
12.05555	0.1052413	0.1100751	-0.001571136	-0.001104698	0.09480667	0.06668766	0	0
12.07212	0.1052153	0.1100568	-0.001570955	-0.001105021	5.460486E-06	-9.736812E-06	0	0
12.08869	0.1051893	0.1100385	-0.001570955	-0.001104571	0	1.357664E-05	0	0
12.10525	0.1051632	0.1100202	-0.001570865	-0.001104957	2.730007E-06	-1.165435E-05	0	0
12.12205	0.1051372	0.1100019	-0.001549546	-0.001089962	0.0006389892	0.0004494719	0	0
12.13856	0.1051112	0.1099836	-0.001576127	-0.001108207	-0.0007980445	-0.0005478048	0	0
12.15495	0.1051112	0.1099836	0	0	0.04790264	0.03368133	0	0
12.17152	0.1050852	0.1100019	-0.001570865	0.001104507	-0.04766258	0.03351254	0	0
12.1881	0.104955	0.1100934	-0.007850252	0.00552039	-0.1894523	0.1332294	0	0
12.20465	0.1048509	0.1101666	-0.006288252	0.004422433	0.0471426	-0.03313735	0	0
12.23778	0.1031588	0.1113927	-0.05106874	0.0370052	-0.90121	0.6557302	0	0
12.25435	0.1014401	0.1126002	-0.1037487	0.07288998	-1.059964	0.7220309	0	0
12.27115	0.09760987	0.1152886	-0.2279647	0.160005	-3.722595	2.610728	0	0
12.28767	0.09150689	0.1196016	-0.3695679	0.2611728	-4.25035	3.036644	0	0
12.30418	0.08231359	0.1260276	-0.556832	0.389217	-5.670574	3.877326	0	0
12.32062	0.07561869	0.1306959	-0.4072225	0.2839573	4.540443	-3.194489	0	0
12.3372	0.0686027	0.1355787	-0.4230719	0.2944345	-0.4799367	0.3172613	0	0
12.35375	0.05845963	0.1426217	-0.6128722	0.4255566	-5.728351	3.957386	0	0
12.37032	0.05127082	0.1476391	-0.4339425	0.3028692	5.403064	-3.70474	0	0
12.38689	0.04144993	0.1544309	-0.5926534	0.409864	-4.78949	3.228832	0	0
12.40374	0.03585305	0.1582955	-0.332037	0.2292672	7.796528	-5.402686	0	0
12.42002	0.02749307	0.1640605	-0.5137475	0.3542772	-5.484982	3.773461	0	0
12.43677	0.01663005	0.1715397	-0.6484889	0.4464854	-4.080125	2.792171	0	0
12.45315	0.0140254	0.1733312	-0.1590111	0.1093714	14.77375	-10.175	0	0
12.46972	0.0009736839	0.1822996	-0.7878029	0.5413318	-19.08464	13.11055	0	0
12.4863	-0.003684194	0.1854971	-0.2807944	0.1927586	15.29186	-10.5133	0	0
12.50285	-0.006631482	0.1875197	-0.1781345	0.1222414	3.098372	-2.128276	0	0
12.51942	-0.01105218	0.1905524	-0.266834	0.183055	-2.678729	1.836574	0	0
12.53634	-0.01334131	0.1920863	-0.1352602	0.09063574	3.928614	-2.759514	0	0
12.55255	-0.01326238	0.1920321	0.004869827	-0.00333994	4.229377	-2.836355	0	0
12.61889	-0.01323607	0.1920141	0.0003965684	-0.0002719872	-0.05418532	0.03716262	0	0
12.65195	-0.01323607	0.191978	0	-0.001091437	-0.003989639	-0.008244001	0	0
12.66852	-0.01323607	0.191978	0	0	0	0.02199564	0	0
12.68508	-0.01318345	0.1919419	0.003176484	-0.002178559	0.09586925	-0.06575093	0	0
12.70165	-0.01315714	0.1919239	0.001588123	-0.001089217	-0.04793824	0.03287736	0	0
12.71847	-0.01313082	0.1918698	0.001564582	-0.003219101	-0.0007051351	-0.06379893	0	0
12.7387	-0.01310451	0.1918517	0.001300626	-0.0008920364	-0.007125024	0.06281481	0	0
12.75549	-0.01310451	0.1918517	0	0	-0.03512607	0.02409128	0	0
12.77183	-0.01310451	0.1918156	0	-0.002209209	0	-0.06667405	0	0
12.7884	-0.01313082	0.1917976	-0.001588123	-0.001089217	-0.04826582	0.03403851	0	0
12.80496	-0.01313082	0.1917615	0	-0.002178559	0.04793102	-0.03287736	0	0
12.82153	-0.01313082	0.1917254	0	-0.002178559	0	0	0	0
12.8381	-0.01315714	0.1917073	-0.00158827	-0.00108928	-0.04793685	0.03287641	0	0
12.85466	-0.01315714	0.1917073	0	0	0.04793547	0.03287547	0	0
12.87123	-0.01315714	0.1917073	0	0	0	0	0	0
12.8878	-0.01315714	0.1917073	0	0	0	0	0	0
12.90436	-0.01315714	0.1917073	0	0	0	0	0	0
12.92093	-0.01315714	0.1917073	0	0	0	0	0	0
12.93762	-0.01315714	0.1917073	0	0	0	0	0	0
12.95406	-0.01315714	0.1917073	0	0	0	0	0	0
12.97065	-0.01315714	0.1917073	0	0	0	0	0	0
12.9872	-0.01315714	0.1917073	0	0	0	0	0	0
13.00376	-0.01315714	0.1917073	0	0	0	0	0	0
13.02271	-0.01313082	0.1916893	0.001388308	-0.0009521398	0.03908673	-0.02680676	0	0
13.03928	-0.01310451	0.1916713	0.001588123	-0.001089217	0.00562548	-0.003859192	0	0
13.05585	-0.01299927	0.1915991	0.006352659	-0.004356867	0.143794	-0.09861789	0	0
13.07242	-0.01257828	0.1913103	0.02541204	-0.01742847	0.5752299	-0.3945132	0	0
13.08898	-0.01149949	0.1905704	0.06511595	-0.04466239	1.198301	-0.8219448	0	0
13.10555	-0.009368147	0.1891084	0.1286409	-0.08824307	1.917133	-1.31523	0	0
13.12212	-0.006815684	0.1872488	0.1540847	-0.1122562	0.7679164	-0.7247391	0	0
13.13868	-0.002526311	0.1842328	0.258922	-0.1820608	3.16427	-2.106888	0	0
13.15527	0.003842086	0.1797875	0.3838227	-0.2679142	3.766801	-2.589199	0	0
13.17182	0.008683993	0.1763522	0.292713	-0.2076796	-2.749778	1.817936	0	0
13.18838	0.01360442	0.1729332	0.2970149	-0.2063847	0.1299383	0.03911111	0	0
13.20495	0.01636696	0.1709967	0.1667565	-0.1168902	-3.931432	2.701106	0	0
13.22182	0.0185505	0.169458	0.1294225	-0.09120192	-1.116524	0.7682431	0	0
13.23833	0.01886618	0.1692408	0.01911827	-0.0131577	-3.304167	2.337817	0	0
13.25484	0.01883988	0.1692589	-0.001593273	0.001096475	-0.6271694	0.4316331	0	0
13.27121	0.01883988	0.1692589	0	0	0.04845326	-0.03334506	0	0
13.28789	0.01883988	0.1692589	0	0	0	0	0	0
13.30438	0.01883988	0.1692589	0	0	0	0	0	0
13.32092	0.01883988	0.1692589	0	0	0	0	0	0
13.33748	0.01881357	0.1692408	-0.001588024	-0.00109294	-0.04797362	-0.03301732	0	0
13.35405	0.01881357	0.1692408	0	0	0.04793081	0.03298786	0	0
13.45348	0.01873465	0.1691864	-0.0007936543	-0.0005462239	-0.006841668	-0.004708704	0	0
13.47001	0.01873465	0.1691864	0	0	0.006843806	0.004710175	0	0
13.48658	0.01873465	0.1691864	0	0	0	0	0	0
13.50315	0.01873465	0.1691864	0	0	0	0	0	0
13.52003	0.01873465	0.1691864	0	0	0	0	0	0
13.53628	0.01873465	0.1691864	0	0	0	0	0	0
13.55285	0.01873465	0.1691864	0	0	0	0	0	0
13.56957	0.01870834	0.1692045	-0.001573462	0.001082841	-0.04727086	0.03253134	0	0
13.60259	0.01870834	0.1692045	0	0	0.03163142	-0.02176843	0	0
13.61911	0.01870834	0.1692045	0	0	0	0	0	0
13.63568	0.01870834	0.1692045	0	0	0	0	0	0
13.65225	0.01868204	0.1691864	-0.001587933	-0.001092877	-0.04792667	-0.03298501	0	0
13.67264	0.01868204	0.1691864	0	0	0.04296951	0.02957329	0	0
13.6892	0.01868204	0.1691864	0	0	0	0	0	0
13.70577	0.01868204	0.1691864	0	0	0	0	0	0
13.72234	0.01868204	0.1691502	0	-0.002185755	0	-0.06596811	0	0
13.7389	0.01868204	0.1691502	0	0	0	0.06596811	0	0
13.75547	0.01868204	0.1691502	0	0	0	0	0	0
13.77204	0.01868204	0.1691502	0	0	0	0	0	0
13.7886	0.01865573	0.1691321	-0.001587842	-0.001092815	-0.04792392	-0.03298311	0	0
13.80523	0.01865573	0.1691321	0	0	0.04783304	0.03292057	0	0
13.82174	0.01865573	0.1691321	0	0	0	0	0	0
13.8383	0.01865573	0.1691321	0	0	0	0	0	0
13.85487	0.01865573	0.1691321	0	0	0	0	0	0
13.87144	0.01865573	0.1691321	0	0	0	0	0	0
13.888	0.01862942	0.1691502	-0.001587933	0.001092877	-0.04792667	0.03298501	0	0
13.90457	0.01862942	0.1691502	0	0	0.04792529	-0.03298406	0	0
13.92114	0.01862942	0.1691502	0	0	0	0	0	0
13.9377	0.01865573	0.1691321	0.001587933	-0.001092877	0.04792667	-0.03298501	0	0
13.95427	0.01862942	0.169114	-0.00158775	-0.001092752	-0.09584231	3.798008E-06	0	0
13.97084	0.01860312	0.1690959	-0.001588137	-0.00109294	-1.167192E-05	-5.698933E-06	0	0
13.9874	0.01860312	0.1690959	0	0	0.04793283	0.03298691	0	0
14.00397	0.0185505	0.1690597	-0.003175866	-0.002185755	-0.09585059	-0.06596811	0	0
14.02054	0.01849789	0.1690235	-0.003175979	-0.002186654	-3.39416E-06	-2.714626E-05	0	0
14.0371	0.01818221	0.1688062	-0.01905576	-0.01311543	-0.4792803	-0.3298501	0	0
14.05367	0.01660374	0.1677197	-0.09527108	-0.06557589	-2.300183	-1.58326	0	0
14.07024	0.01536721	0.1668685	-0.07464553	-0.05138529	0.6224984	0.4282854	0	0
14.0868	0.01539352	0.1668866	0.001588066	0.001092815	2.300867	1.583884	0	0
14.10337	0.01539352	0.1668866	0	0	-0.04792932	-0.03298216	0	0
14.20277	0.01539352	0.1668866	0	0	0	0	0	0
14.21934	0.01539352	0.1668866	0	0	0	0	0	0
14.23604	0.01539352	0.1668866	0	0	0	0	0	0
14.25255	0.01539352	0.1668866	0	0	0	0	0	0
14.26904	0.01539352	0.1668866	0	0	0	0	0	0
14.2856	0.01539352	0.1668866	0	0	0	0	0	0
14.30217	0.01539352	0.1668866	0	0	0	0	0	0
14.3191	0.01539352	0.1668866	0	0	0	0	0	0
14.3353	0.01539352	0.1668866	0	0	0	0	0	0
14.35187	0.01539352	0.1668866	0	0	0	0	0	0
14.36843	0.01539352	0.1668866	0	0	0	0	0	0
14.385	0.01539352	0.1668866	0	0	0	0	0	0
14.40157	0.01539352	0.1668866	0	0	0	0	0	0
14.41813	0.01539352	0.1668866	0	0	0	0	0	0
14.4347	0.01539352	0.1668866	0	0	0	0	0	0
14.45127	0.01541983	0.1669047	0.001588158	0.001093777	0.04793208	0.03301121	0	0
14.46783	0.01541983	0.1669047	0	0	-0.04793208	-0.03301121	0	0
14.4844	0.01544614	0.1669229	0.001588102	0.001092877	0.04793038	0.03298406	0	0
14.50097	0.01544614	0.1669229	0	0	-0.04793176	-0.03298501	0	0
14.51753	0.01547245	0.1668685	0.001588066	-0.003279343	0.04792932	-0.09897362	0	0
14.5341	0.01552507	0.1668323	0.00317626	-0.002186654	0.04793314	0.03297836	0	0
14.55075	0.01573554	0.1666874	0.01263805	-0.008700538	0.2848195	-0.1960815	0	0
14.56727	0.0158934	0.1665787	0.009560092	-0.006582462	-0.09280474	0.06386301	0	0
14.5838	0.01599864	0.1665063	0.006364977	-0.004381886	-0.09668758	0.06659178	0	0
14.60037	0.0161828	0.1663432	0.01111666	-0.009840395	0.1435547	-0.164909	0	0
14.63661	0.02220687	0.1621938	0.1661897	-0.1144725	2.936183	-1.981125	0	0
14.65318	0.03141072	0.1558464	0.555545	-0.3831291	7.371998	-5.086706	0	0
14.66975	0.03598446	0.1526883	0.2760876	-0.1906338	-8.434282	5.809686	0	0
14.68632	0.04370899	0.1473483	0.4662534	-0.3223245	5.73938	-3.974548	0	0
14.70288	0.04759561	0.1446583	0.2346102	-0.1623818	-6.991207	4.82722	0	0
14.71945	0.0522419	0.1414394	0.2804668	-0.1943037	1.384033	-0.9634606	0	0
14.73602	0.05287173	0.1410028	0.0380169	-0.02635347	-7.317362	5.068894	0	0
14.7529	0.05281925	0.1410391	-0.003107881	0.002153986	-1.229296	0.8521404	0	0
14.76915	0.05281925	0.1410391	0	0	0.09379604	-0.06500742	0	0
14.78572	0.05281925	0.1410391	0	0	0	0	0	0
14.80244	0.05281925	0.1410391	0	0	0	0	0	0
14.81885	0.05281925	0.1410391	0	0	0	0	0	0
14.83546	0.05281925	0.1410391	0	0	0	0	0	0
14.85198	0.052793	0.1410573	-0.001588154	0.001101	-0.04793196	0.03322919	0	0
14.91825	0.05268803	0.1411665	-0.001584087	0.001647163	4.911751E-05	0.006596866	0	0
14.93503	0.05260931	0.1412211	-0.004692518	0.003253432	-0.03743153	0.01934259	0	0
14.95138	0.05255682	0.1412574	-0.003209047	0.002224854	0.04477382	-0.03104433	0	0
14.96805	0.05253058	0.1412756	-0.001574524	0.001090657	0.04949525	-0.03434481	0	0
14.98456	0.05250433	0.1412938	-0.00158953	0.001101954	-0.0004522647	0.0003404818	0	0
15.00108	0.05247809	0.141312	-0.001588387	0.001101318	3.460586E-05	-1.926072E-05	0	0
15.01765	0.05245185	0.1413302	-0.001584223	0.001098274	0.0001258562	-9.197671E-05	0	0
15.03421	0.0524256	0.1413484	-0.001584223	0.001098274	0	0	0	0
15.06735	0.05237311	0.1413848	-0.001584065	0.001097793	3.18094E-06	-9.683361E-06	0	0
15.08413	0.05237311	0.1413848	0	0	0.03173383	-0.02199227	0	0
15.10048	0.05237311	0.1413848	0	0	0	0	0	0
15.11705	0.05237311	0.1413848	0	0	0	0	0	0
15.13366	0.05237311	0.1413848	0	0	0	0	0	0
15.15018	0.05237311	0.1413848	0	0	0	0	0	0
15.16675	0.05237311	0.1413848	0	0	0	0	0	0
15.18331	0.05237311	0.1413848	0	0	0	0	0	0
15.19988	0.05237311	0.1413848	0	0	0	0	0	0
15.21644	0.05239936	0.1413666	0.001584223	-0.001097375	0.04781469	-0.03312075	0	0
15.23301	0.05239936	0.1413666	0	0	-0.04781469	0.03312075	0	0
15.24974	0.05239936	0.1413666	0	0	0	0	0	0
15.26626	0.05239936	0.1413666	0	0	0	0	0	0
15.28271	0.05239936	0.1413666	0	0	0	0	0	0
15.29928	0.05239936	0.1413666	0	0	0	0	0	0
15.31584	0.05239936	0.1413666	0	0	0	0	0	0
15.33241	0.05239936	0.1413666	0	0	0	0	0	0
15.34898	0.05239936	0.1413666	0	0	0	0	0	0
15.36583	0.05239936	0.1413666	0	0	0	0	0	0
15.38234	0.05239936	0.1413666	0	0	0	0	0	0
15.39885	0.05239936	0.1413666	0	0	0	0	0	0
15.41524	0.05239936	0.1413666	0	0	0	0	0	0
15.43181	0.05239936	0.1413666	0	0	0	0	0	0
15.44838	0.05239936	0.1413666	0	0	0	0	0	0
15.46494	0.05239936	0.1413666	0	0	0	0	0	0
15.48151	0.05239936	0.1413666	0	0	0	0	0	0
15.49808	0.05239936	0.1413666	0	0	0	0	0	0
15.51464	0.05239936	0.1413666	0	0	0	0	0	0
15.53144	0.0524256	0.1413484	0.001562056	-0.001083061	0.04681687	-0.03246076	0	0
15.56747	0.05239936	0.1413302	-0.0007283891	-0.0005050329	-0.04335914	0.01094233	0	0
15.58379	0.05239936	0.1413302	0	0	0.01391331	0.00964688	0	0
15.60049	0.05239936	0.1413302	0	0	0	0	0	0
15.617	0.0524256	0.141312	0.001589212	-0.00110189	0.04785509	-0.03318062	0	0
15.63351	0.0524256	0.141312	0	0	-0.0481232	0.03336651	0	0
15.65006	0.0524256	0.141312	0	0	0	0	0	0
15.66663	0.0524256	0.141312	0	0	0	0	0	0
15.68319	0.0524256	0.141312	0	0	0	0	0	0
15.74318	0.0524256	0.141312	0	0	0	0	0	0
15.75975	0.0524256	0.141312	0	0	0	0	0	0
15.77632	0.0524256	0.141312	0	0	0	0	0	0
15.79288	0.0524256	0.141312	0	0	0	0	0	0
15.80945	0.0524256	0.141312	0	0	0	0	0	0
15.82602	0.0524256	0.141312	0	0	0	0	0	0
15.84266	0.0524256	0.141312	0	0	0	0	0	0
15.85917	0.0524256	0.141312	0	0	0	0	0	0
15.87572	0.0524256	0.141312	0	0	0	0	0	0
15.89228	0.0524256	0.141312	0	0	0	0	0	0
15.90885	0.0524256	0.141312	0	0	0	0	0	0
15.95874	0.0524256	0.141312	0	0	0	0	0	0
15.97512	0.0524256	0.141312	0	0	0	0	0	0
15.99168	0.0524256	0.141312	0	0	0	0	0	0
16.00825	0.0524256	0.141312	0	0	0	0	0	0
16.02481	0.0524256	0.141312	0	0	0	0	0	0
16.04138	0.0524256	0.141312	0	0	0	0	0	0
16.05795	0.0524256	0.141312	0	0	0	0	0	0
16.07452	0.0524256	0.141312	0	0	0	0	0	0
16.09134	0.0524256	0.141312	0	0	0	0	0	0
16.10785	0.0524256	0.141312	0	0	0	0	0	0
16.12436	0.0524256	0.141312	0	0	0	0	0	0
16.14087	0.0524256	0.141312	0	0	0	0	0	0
16.15738	0.0524256	0.141312	0	0	0	0	0	0
16.17392	0.0524256	0.141312	0	0	0	0	0	0
16.19049	0.0524256	0.141312	0	0	0	0	0	0
16.20705	0.0524256	0.141312	0	0	0	0	0	0
16.22362	0.0524256	0.141312	0	0	0	0	0	0
16.24018	0.0524256	0.141312	0	0	0	0	0	0
16.25696	0.0524256	0.141312	0	0	0	0	0	0
16.27332	0.0524256	0.141312	0	0	0	0	0	0
16.28989	0.0524256	0.141312	0	0	0	0	0	0
16.30649	0.0524256	0.141312	0	0	0	0	0	0
16.32302	0.0524256	0.141312	0	0	0	0	0	0
16.33959	0.0524256	0.141312	0	0	0	0	0	0
16.35615	0.0524256	0.141312	0	0	0	0	0	0
16.37272	0.0524256	0.141312	0	0	0	0	0	0
16.38929	0.0524256	0.141312	0	0	0	0	0	0
16.40586	0.0524256	0.141312	0	0	0	0	0	0
16.44081	0.0524256	0.141312	0	0	0	0	0	0
16.45738	0.0524256	0.141312	0	0	0	0	0	0
16.47411	0.0524256	0.141312	0	0	0	0	0	0
16.49063	0.0524256	0.141312	0	0	0	0	0	0
16.50714	0.0524256	0.141312	0	0	0	0	0	0
16.52365	0.0524256	0.141312	0	0	0	0	0	0
16.54021	0.0524256	0.141312	0	0	0	0	0	0
16.55678	0.0524256	0.141312	0	0	0	0	0	0
16.57334	0.0524256	0.141312	0	0	0	0	0	0
16.58991	0.0524256	0.141312	0	0	0	0	0	0
16.60648	0.0524256	0.141312	0	0	0	0	0	0
16.62304	0.0524256	0.141312	0	0	0	0	0	0
16.63961	0.0524256	0.141312	0	0	0	0	0	0
16.65624	0.05239936	0.1413302	-0.001577912	0.001094055	-0.04753118	0.03295603	0	0
16.67276	0.05237311	0.1413848	-0.001589254	0.003304386	-0.0003422247	0.06668874	0	0
16.68931	0.05124457	0.1422397	-0.06816608	0.05163901	-2.013233	1.461602	0	0
16.70588	0.04927587	0.1437855	-0.1188312	0.09330478	-1.529605	1.25791	0	0
16.72244	0.03569536	0.1535779	-0.8198155	0.5911359	-21.15697	15.02544	0	0
16.7393	0.02339047	0.1621394	-0.7299508	0.5078903	2.68875	-2.490709	0	0
16.75558	0.009157639	0.1719741	-0.8743968	0.6041917	-4.359387	2.906381	0	0
16.77214	-0.001210526	0.1791729	-0.6258957	0.4345729	7.566416	-5.16459	0	0
16.78871	-0.0243636	0.1952794	-1.397522	0.9721894	-23.28908	16.22623	0	0
16.80535	-0.04370899	0.2085785	-1.162604	0.7992409	7.074382	-5.208203	0	0
16.82184	-0.07067158	0.2270678	-1.634806	1.121045	-14.2519	9.712639	0	0
16.83841	-0.0914025	0.2413051	-1.251321	0.8593696	11.59963	-7.915164	0	0
16.85498	-0.112003	0.2554877	-1.24359	0.8561574	0.2333199	-0.09695037	0	0
16.87154	-0.1377019	0.2732514	-1.551192	1.072223	-9.283965	6.521248	0	0
16.88811	-0.1551637	0.2853804	-1.053996	0.7321048	15.0054	-10.26478	0	0
16.90492	-0.1748028	0.2990922	-1.168468	0.8158122	-3.429896	2.508103	0	0
16.92124	-0.186695	0.307437	-0.7284638	0.511167	13.28011	-9.194741	0	0
16.93781	-0.1965351	0.3143685	-0.5939497	0.4183852	4.089542	-2.820782	0	0
16.95438	-0.2060847	0.3211558	-0.5764143	0.4096859	0.5292191	-0.2625462	0	0
16.97097	-0.2106692	0.324442	-0.2763704	0.1981035	9.049611	-6.381526	0	0
16.98751	-0.211751	0.3251742	-0.06539118	0.04425762	6.367733	-4.643345	0	0
17.00408	-0.2117762	0.3251564	-0.001518248	-0.001077524	1.929021	-1.369163	0	0
17.02065	-0.2117762	0.3251564	0	0	0.04582081	0.03251974	0	0
17.03721	-0.2117762	0.3251564	0	0	0	0	0	0
17.05378	-0.2117762	0.3251564	0	0	0	0	0	0
17.07035	-0.2118013	0.3251385	-0.001518248	-0.001077524	-0.04582081	-0.03251974	0	0
17.08691	-0.2117762	0.3251564	0.001518248	0.001077524	0.09164162	0.06503949	0	0
17.10348	-0.2117762	0.3251564	0	0	-0.04582345	-0.03252162	0	0
17.12007	-0.2117762	0.3251564	0	0	0	0	0	0
17.13661	-0.2117762	0.3251564	0	0	0	0	0	0
17.15318	-0.2117762	0.3251564	0	0	0	0	0	0
17.16975	-0.2118013	0.3251742	-0.001518248	0.001077524	-0.04582081	0.03251974	0	0
17.18632	-0.2118013	0.3251742	0	0	0.04582081	-0.03251974	0	0
17.20288	-0.2118013	0.3251742	0	0	0	0	0	0
17.21945	-0.2118013	0.3251742	0	0	0	0	0	0
17.23666	-0.2118013	0.3251742	0	0	0	0	0	0
17.2563	-0.2118013	0.3251742	0	0	0	0	0	0
17.27287	-0.2117762	0.3251564	0.001518248	-0.001077524	0.04193221	-0.02975994	0	0
17.306	-0.2117762	0.3251564	0	0	-0.03054721	0.02167983	0	0
17.32257	-0.211751	0.3251385	0.001518248	-0.001077524	0.03054721	-0.02167983	0	0
17.33923	-0.2117762	0.3251207	-0.001509731	-0.00107148	-0.09112754	0.0001819108	0	0
17.35574	-0.2117762	0.3251207	0	0	0.04551137	0.03230013	0	0
17.37227	-0.211751	0.3251028	0.001521752	-0.001081814	0.04605646	-0.03274156	0	0
17.38883	-0.211751	0.3251028	0	0	-0.04598479	0.03269061	0	0
17.40578	-0.211751	0.3251028	0	0	0	0	0	0
17.42197	-0.211751	0.3251028	0	0	0	0	0	0
17.43853	-0.211751	0.3251028	0	0	0	0	0	0
17.4551	-0.211751	0.3251028	0	0	0	0	0	0
17.47167	-0.211751	0.3251028	0	0	0	0	0	0
17.48824	-0.211751	0.3251028	0	0	0	0	0	0
17.5048	-0.211751	0.3251028	0	0	0	0	0	0
17.52137	-0.211751	0.3251028	0	0	0	0	0	0
17.53794	-0.2112982	0.3246385	0.02733206	-0.02802642	0.8248832	-0.8458391	0	0
17.5545	-0.2097127	0.323299	0.09570087	-0.08085029	2.063375	-1.594227	0	0
17.57107	-0.2066393	0.3208343	0.1855104	-0.1487667	2.710458	-2.049721	0	0
17.58764	-0.2017692	0.3173872	0.2939581	-0.2080719	3.272958	-1.789835	0	0
17.6042	-0.1971172	0.3141005	0.2807967	-0.1983832	-0.3972134	0.2924066	0	0
17.62077	-0.1928114	0.3110637	0.2598974	-0.1833032	-0.630742	0.4551132	0	0
17.63734	-0.1925833	0.3109029	0.01377126	-0.009704913	-7.428101	5.239208	0	0
17.65396	-0.1925833	0.3109029	0	0	-0.4149964	0.2924571	0	0
17.67047	-0.1925579	0.310885	0.001534711	-0.001082689	0.04632033	-0.03267749	0	0
17.70399	-0.1925326	0.3109029	0.000756622	0.0005334585	-0.01555075	0.03230003	0	0
17.72017	-0.1925072	0.310885	0.001566368	-0.001105021	0.01629211	-0.03296628	0	0
17.73701	-0.1924565	0.3108493	0.003010865	-0.002121673	0.04374105	-0.0307854	0	0
17.75353	-0.1924312	0.3108314	0.001535066	-0.001081134	-0.0442468	0.03119702	0	0
17.76987	-0.1915183	0.310224	0.05584798	-0.03715906	1.652964	-1.097999	0	0
17.78644	-0.1845852	0.3053823	0.4185305	-0.292282	11.02	-7.751833	0	0
17.80301	-0.1773281	0.3004325	0.4380361	-0.2987692	0.588712	-0.1957969	0	0
17.81959	-0.1727349	0.2972513	0.2769906	-0.1918403	-4.858124	3.225636	0	0
17.83614	-0.1646536	0.2916742	0.4881836	-0.3369052	6.37345	-4.377816	0	0
17.85271	-0.163834	0.2911021	0.04948217	-0.0345391	-13.2469	9.130157	0	0
17.86927	-0.1613996	0.2895109	0.1469444	-0.09604536	2.941756	-1.856476	0	0
17.88584	-0.1592197	0.2879911	0.1315606	-0.0917247	-0.4642576	0.1303902	0	0
17.91915	-0.157064	0.2865964	0.06472773	-0.04187904	-1.340052	0.9994447	0	0
17.93566	-0.1570127	0.2865964	0.003110198	0	-1.236947	0.8407045	0	0
17.95211	-0.15691	0.2865249	0.006241848	-0.004347826	0.09501107	-0.1319086	0	0
17.96868	-0.1554976	0.2855413	0.08521019	-0.05934084	2.391115	-1.665156	0	0
17.98524	-0.1493274	0.2812489	0.3726046	-0.2592091	8.67358	-6.032035	0	0
18.00181	-0.1407732	0.2752735	0.5163355	-0.3606756	4.338808	-3.06297	0	0
18.01838	-0.1303876	0.2680786	0.6268744	-0.4342854	3.336071	-2.221549	0	0
18.03494	-0.1137438	0.2565807	1.004741	-0.6940972	11.40468	-7.841588	0	0
18.05174	-0.1000595	0.2471524	0.8145454	-0.5612077	-5.700398	3.982873	0	0
18.08787	-0.0700955	0.2265647	0.829448	-0.5699	0.28158	-0.1642393	0	0
18.10443	-0.0595086	0.2193027	0.6390265	-0.4383302	-3.613833	2.496941	0	0
18.121	-0.05011589	0.2128627	0.566945	-0.3887245	-2.175422	1.497102	0	0
18.13757	-0.03845472	0.2048686	0.7038699	-0.4825231	4.132402	-2.830846	0	0
18.15413	-0.03025392	0.1992463	0.4950009	-0.3393607	-6.303679	4.320647	0	0
18.1707	-0.01902402	0.1915449	0.6779164	-0.4649099	5.520718	-3.789298	0	0
18.18734	-0.01092062	0.1859848	0.4871034	-0.3342276	-5.747168	3.936069	0	0
18.20385	-0.0002368421	0.1786486	0.6470343	-0.4442927	4.824779	-3.320435	0	0
18.2204	0.007894573	0.1730598	0.491209	-0.3376127	-4.712582	3.226296	0	0
18.23697	0.01278878	0.1696934	0.2954147	-0.2031997	-5.911466	4.058228	0	0
18.25354	0.02336417	0.1624113	0.638332	-0.4395453	10.34926	-7.132926	0	0
18.2701	0.02709863	0.159837	0.2254123	-0.1553865	-12.46194	8.575929	0	0
18.28667	0.03280402	0.1559009	0.3443779	-0.237586	3.590388	-2.480784	0	0
18.30324	0.04008378	0.1508726	0.4394075	-0.3035092	2.867998	-1.989567	0	0
18.31981	0.04730678	0.1458399	0.4359813	-0.3037746	-0.1034018	-0.008007677	0	0
18.33645	0.0532916	0.141694	0.3596295	-0.2491243	-2.29914	1.645654	0	0
18.35294	0.05725315	0.1389466	0.240198	-0.1665823	-3.60445	2.491121	0	0
18.36951	0.06619263	0.132737	0.539588	-0.3748111	9.055938	-6.298497	0	0
18.38608	0.06907415	0.1307324	0.1738888	-0.1209724	-11.03555	7.659986	0	0
18.40264	0.07187597	0.1287452	0.1691572	-0.1199746	-0.1428012	0.03011266	0	0
18.41921	0.07242573	0.1283623	0.03318379	-0.0231137	-4.104157	2.923604	0	0
18.43577	0.07242573	0.1283623	0	0	-1.001546	0.6976131	0	0
18.45234	0.07242573	0.1283623	0	0	0	0	0	0
18.46891	0.07242573	0.1283623	0	0	0	0	0	0
18.48547	0.07239955	0.1283805	-0.001580491	0.001101036	-0.0477048	0.03323317	0	0
18.50207	0.07239955	0.1283805	0	0	0.04766638	-0.0332064	0	0
18.51861	0.07239955	0.1283805	0	0	0	0	0	0
18.61801	0.0722163	0.1281799	-0.00184354	-0.002018112	-0.01590079	-0.0174065	0	0
18.63457	0.0725828	0.1276693	0.02212163	-0.03082277	0.2066554	-0.2483871	0	0
18.65117	0.07294927	0.127341	0.02208214	-0.01978221	-0.001190556	0.3329173	0	0
18.66771	0.07412709	0.1263377	0.07122441	-0.06066898	1.483202	-1.234036	0	0
18.68427	0.07410092	0.1263195	-0.001579409	-0.00110091	-2.199249	1.799425	0	0
18.70084	0.07407475	0.1263012	-0.001579859	-0.00110091	-1.357235E-05	0	0	0
18.71772	0.07407475	0.1263012	0	0	0.04723971	0.03291854	0	0
18.73423	0.07407475	0.1263012	0	0	0	0	0	0
18.75054	0.07407475	0.1263012	0	0	0	0	0	0
18.76711	0.07407475	0.1263012	0	0	0	0	0	0
18.78367	0.07407475	0.1263012	0	0	0	0	0	0
18.80027	0.07407475	0.1263012	0	0	0	0	0	0
18.8168	0.07407475	0.1263012	0	0	0	0	0	0
18.83337	0.07407475	0.1263012	0	0	0	0	0	0
18.84994	0.07407475	0.1263012	0	0	0	0	0	0
18.86651	0.07407475	0.1263012	0	0	0	0	0	0
18.88333	0.07407475	0.1263012	0	0	0	0	0	0
18.89964	0.07407475	0.1263012	0	0	0	0	0	0
18.91636	0.07407475	0.1263012	0	0	0	0	0	0
18.93287	0.07407475	0.1263012	0	0	0	0	0	0
18.95243	0.07407475	0.1263012	0	0	0	0	0	0
18.96899	0.07407475	0.1263012	0	0	0	0	0	0
18.98556	0.07407475	0.1263012	0	0	0	0	0	0
19.00213	0.07407475	0.1263012	0	0	0	0	0	0
19.0187	0.07407475	0.1263012	0	0	0	0	0	0
19.03544	0.07407475	0.1263012	0	0	0	0	0	0
19.05195	0.07407475	0.1263012	0	0	0	0	0	0
19.06847	0.07407475	0.1263012	0	0	0	0	0	0
19.08498	0.07404857	0.1263195	-0.001585151	0.001104597	-0.04799745	0.03344656	0	0
19.10153	0.07404857	0.1263195	0	0	0.04794484	-0.0334099	0	0
19.1181	0.07404857	0.1263195	0	0	0	0	0	0
19.13467	0.07404857	0.1263195	0	0	0	0	0	0
19.15123	0.07404857	0.1263195	0	0	0	0	0	0
19.1678	0.07404857	0.1263195	0	0	0	0	0	0
19.18455	0.07404857	0.1263195	0	0	0	0	0	0
19.20093	0.07404857	0.1263195	0	0	0	0	0	0
19.21757	0.07404857	0.1263195	0	0	0	0	0	0
19.33347	0.0740224	0.1263377	-0.000225839	0.0001573737	-0.001703983	0.001187404	0	0
19.35017	0.0740224	0.1263377	0	0	0.00170315	-0.001186823	0	0
19.3666	0.07399623	0.1263559	-0.001592611	0.001110111	-0.04806509	0.03350323	0	0
19.38319	0.07399623	0.1263559	0	0	0.04822889	-0.0336174	0	0
19.39973	0.07399623	0.1263559	0	0	0	0	0	0
19.4163	0.07399623	0.1263559	0	0	0	0	0	0
19.43287	0.07399623	0.1263559	0	0	0	0	0	0
19.44943	0.07397006	0.1263742	-0.001580041	0.001101936	-0.04768848	0.0332584	0	0
19.466	0.07397006	0.1263742	0	0	0.04768848	-0.0332584	0	0
19.48257	0.07397006	0.1263742	0	0	0	0	0	0
19.49914	0.07397006	0.1263742	0	0	0	0	0	0
19.51579	0.07397006	0.1263742	0	0	0	0	0	0
19.53227	0.07397006	0.1263742	0	0	0	0	0	0
19.54884	0.07397006	0.1263742	0	0	0	0	0	0
19.5654	0.07397006	0.1263742	0	0	0	0	0	0
19.58197	0.07397006	0.1263742	0	0	0	0	0	0
19.59854	0.07397006	0.1263742	0	0	0	0	0	0
19.61536	0.07397006	0.1263742	0	0	0	0	0	0
19.63187	0.07397006	0.1263742	0	0	0	0	0	0
19.64838	0.07397006	0.1263742	0	0	0	0	0	0
19.66481	0.07397006	0.1263742	0	0	0	0	0	0
19.68141	0.07397006	0.1263742	0	0	0	0	0	0
19.69794	0.07397006	0.1263742	0	0	0	0	0	0
19.71451	0.07397006	0.1263742	0	0	0	0	0	0
19.73108	0.07397006	0.1263742	0	0	0	0	0	0
19.74764	0.07397006	0.1263742	0	0	0	0	0	0
19.76421	0.07397006	0.1263742	0	0	0	0	0	0
19.78078	0.07397006	0.1263742	0	0	0	0	0	0
19.79976	0.07397006	0.1263742	0	0	0	0	0	0
19.81633	0.07397006	0.1263742	0	0	0	0	0	0
19.83289	0.07397006	0.1263742	0	0	0	0	0	0
19.84953	0.07397006	0.1263742	0	0	0	0	0	0
19.86877	0.07397006	0.1263742	0	0	0	0	0	0
19.88556	0.07397006	0.1263742	0	0	0	0	0	0
19.90192	0.07397006	0.1263742	0	0	0	0	0	0
19.91847	0.07397006	0.1263742	0	0	0	0	0	0
19.93509	0.07397006	0.1263742	0	0	0	0	0	0
19.95161	0.07397006	0.1263742	0	0	0	0	0	0
19.96817	0.07397006	0.1263742	0	0	0	0	0	0
19.98474	0.07397006	0.1263742	0	0	0	0	0	0
20.00131	0.07397006	0.1263742	0	0	0	0	0	0
20.01787	0.07397006	0.1263742	0	0	0	0	0	0
20.03444	0.07397006	0.1263742	0	0	0	0	0	0
20.05118	0.07397006	0.1263742	0	0	0	0	0	0
20.06769	0.07397006	0.1263742	0	0	0	0	0	0
20.08414	0.07397006	0.1263742	0	0	0	0	0	0
20.10072	0.07397006	0.1263742	0	0	0	0	0	0
20.11728	0.07397006	0.1263742	0	0	0	0	0	0
20.13384	0.07397006	0.1263742	0	0	0	0	0	0
20.15041	0.07397006	0.1263742	0	0	0	0	0	0
20.16698	0.07394388	0.1263924	-0.001580041	0.001101036	-0.04768848	0.03323125	0	0
20.18378	0.07376067	0.1265201	-0.0108992	0.007597086	-0.2792277	0.1946395	0	0
20.20011	0.07362981	0.1266113	-0.008016987	0.005587791	0.08699052	-0.06064416	0	0
20.21667	0.07336807	0.1268302	-0.01579859	0.01321271	-0.2365925	0.2318288	0	0
20.23324	0.07326338	0.1269032	-0.006319436	0.004403638	0.2860815	-0.2658584	0	0
20.24981	0.07315867	0.1269762	-0.006319886	0.004404537	-1.357586E-05	2.713767E-05	0	0
20.26637	0.07315867	0.1269762	0	0	0.1907455	-0.1329369	0	0
20.36578	0.07318485	0.1269579	0.0002633099	-0.0001834849	0.002270525	-0.001582193	0	0
20.38242	0.07318485	0.1269579	0	0	-0.00226907	0.001581179	0	0
20.39891	0.07318485	0.1269579	0	0	0	0	0	0
20.41548	0.07318485	0.1269579	0	0	0	0	0	0
20.43204	0.07318485	0.1269579	0	0	0	0	0	0
20.44861	0.07318485	0.1269579	0	0	0	0	0	0
20.46518	0.07318485	0.1269579	0	0	0	0	0	0
20.48199	0.07318485	0.1269579	0	0	0	0	0	0
20.49831	0.07318485	0.1269579	0	0	0	0	0	0
20.51488	0.07318485	0.1269579	0	0	0	0	0	0
20.53145	0.07318485	0.1269579	0	0	0	0	0	0
20.54803	0.07321102	0.1269397	0.001578042	-0.001099644	0.04759802	-0.03316822	0	0
20.56458	0.07321102	0.1269397	0	0	-0.04762816	0.03318922	0	0
20.58115	0.07321102	0.1269397	0	0	0	0	0	0
20.59772	0.07321102	0.1269397	0	0	0	0	0	0
20.61428	0.07321102	0.1269397	0	0	0	0	0	0
20.63085	0.0732372	0.1269214	0.001579859	-0.001101809	0.04768024	-0.03325266	0	0
20.64742	0.0732372	0.1269214	0	0	-0.04768024	0.03325266	0	0
20.66398	0.0732372	0.1269214	0	0	0	0	0	0
20.68063	0.0732372	0.1269214	0	0	0	0	0	0
20.69712	0.0732372	0.1269214	0	0	0	0	0	0
20.71369	0.07326338	0.1269032	0.001580309	-0.00110091	0.0478094	-0.03330604	0	0
20.73025	0.07326338	0.1269032	0	0	-0.04769382	0.03322552	0	0
20.74682	0.07326338	0.1269032	0	0	0	0	0	0
20.76369	0.07328955	0.126885	0.001551108	-0.001080875	0.04638268	-0.03232132	0	0
20.7802	0.07328955	0.126885	0	0	-0.04646218	0.03237672	0	0
20.79652	0.07326338	0.1268667	-0.001604051	-0.001117767	-0.04886321	-0.03404985	0	0
20.81309	0.07328955	0.1268485	0.001579859	-0.00110091	0.09682071	0.0005126373	0	0
20.82966	0.07328955	0.1268485	0	0	-0.04768024	0.03322552	0	0
20.84888	0.07328955	0.1268485	0	0	0	0	0	0
20.86545	0.07328955	0.1268485	0	0	0	0	0	0
20.88228	0.07328955	0.1268485	0	0	0	0	0	0
20.89858	0.07328955	0.1268485	0	0	0	0	0	0
20.9153	0.07328955	0.1268485	0	0	0	0	0	0
20.93181	0.07328955	0.1268485	0	0	0	0	0	0
20.94832	0.07331572	0.1268302	0.001585151	-0.001104597	0.04800022	-0.03344849	0	0
20.96485	0.07331572	0.1268302	0	0	-0.04798083	0.03343498	0	0
20.98142	0.07331572	0.1268302	0	0	0	0	0	0
20.99798	0.07331572	0.1268302	0	0	0	0	0	0
21.01455	0.0733419	0.126812	0.001579859	-0.00110091	0.04768024	-0.03322552	0	0
21.03139	0.0733419	0.126812	0	0	-0.04729906	0.03295989	0	0
21.0479	0.0733419	0.126812	0	0	0	0	0	0
21.06441	0.0733419	0.126812	0	0	0	0	0	0
21.08092	0.0733419	0.126812	0	0	0	0	0	0
21.09739	0.0733419	0.126812	0	0	0	0	0	0
21.11395	0.0733419	0.126812	0	0	0	0	0	0
21.13052	0.07336807	0.1267937	0.001579859	-0.001101809	0.04768299	-0.03325457	0	0
21.14709	0.07336807	0.1267937	0	0	-0.0476775	0.03325075	0	0
21.16365	0.07336807	0.1267937	0	0	0	0	0	0
21.24649	0.07339425	0.1267755	0.0003159718	-0.0002201819	0.003178744	-0.002215077	0	0
21.26306	0.07339425	0.1267755	0	0	-0.003178683	0.002215034	0	0
21.27962	0.07339425	0.1267755	0	0	0	0	0	0
21.29619	0.07339425	0.1267755	0	0	0	0	0	0
21.31276	0.07339425	0.1267755	0	0	0	0	0	0
21.3296	0.07339425	0.1267755	0	0	0	0	0	0
21.34589	0.07339425	0.1267755	0	0	0	0	0	0
21.36246	0.07339425	0.1267755	0	0	0	0	0	0
21.37914	0.07339425	0.1267755	0	0	0	0	0	0
21.39559	0.07339425	0.1267755	0	0	0	0	0	0
21.41216	0.07339425	0.1267755	0	0	0	0	0	0
21.42872	0.07339425	0.1267755	0	0	0	0	0	0
21.44529	0.07342042	0.1267573	0.001579859	-0.00110091	0.04768573	-0.03322934	0	0
21.46186	0.07342042	0.1267573	0	0	-0.04768024	0.03322552	0	0
21.47871	0.07342042	0.1267573	0	0	0	0	0	0
21.49522	0.07342042	0.1267573	0	0	0	0	0	0
21.51173	0.07342042	0.1267573	0	0	0	0	0	0
21.52812	0.07342042	0.1267573	0	0	0	0	0	0
21.54469	0.07342042	0.1267573	0	0	0	0	0	0
21.56127	0.07342042	0.1267573	0	0	0	0	0	0
21.57782	0.07342042	0.1267573	0	0	0	0	0	0
21.59479	0.07342042	0.1267573	0	0	0	0	0	0
21.61096	0.07342042	0.1267573	0	0	0	0	0	0
21.62781	0.07342042	0.1267573	0	0	0	0	0	0
21.64409	0.07342042	0.1267573	0	0	0	0	0	0
21.66084	0.07339425	0.126739	-0.001563123	-0.001089247	-0.04733591	-0.03298557	0	0
21.69386	0.07339425	0.126739	0	0	0.03140791	0.0218863	0	0
21.71037	0.07342042	0.1267208	0.001585335	-0.001104725	0.03200508	-0.02230243	0	0
21.72692	0.07342042	0.1267208	0	0	-0.04794761	0.03341183	0	0
21.76291	0.07342042	0.1267208	0	0	0	0	0	0
21.77942	0.07342042	0.1267208	0	0	0	0	0	0
21.79598	0.07342042	0.1267208	0	0	0	0	0	0
21.81255	0.07344659	0.1267025	0.001579859	-0.00110091	0.04769122	-0.03323317	0	0
21.82911	0.07344659	0.1267025	0	0	-0.04768024	0.03322552	0	0
21.84568	0.07344659	0.1267025	0	0	0	0	0	0
21.86225	0.07344659	0.1267025	0	0	0	0	0	0
21.87881	0.07344659	0.1267025	0	0	0	0	0	0
21.8955	0.07344659	0.1267025	0	0	0	0	0	0
21.91195	0.07344659	0.1267025	0	0	0	0	0	0
21.92853	0.07344659	0.1267025	0	0	0	0	0	0
21.97821	0.07344659	0.1267025	0	0	0	0	0	0
21.99507	0.07344659	0.1267025	0	0	0	0	0	0
22.01134	0.07344659	0.1267025	0	0	0	0	0	0
22.02791	0.07344659	0.1267025	0	0	0	0	0	0
22.04461	0.07344659	0.1267025	0	0	0	0	0	0
22.06104	0.07344659	0.1267025	0	0	0	0	0	0
22.07761	0.07344659	0.1267025	0	0	0	0	0	0
22.09418	0.07342042	0.1266843	-0.001579859	-0.001101809	-0.04768024	-0.03325266	0	0
22.11115	0.07342042	0.1266843	0	0	0.04710003	0.03284802	0	0
22.12731	0.07342042	0.1266843	0	0	0	0	0	0
22.14418	0.07342042	0.1266843	0	0	0	0	0	0
22.16044	0.07342042	0.1266843	0	0	0	0	0	0
22.22671	0.07342042	0.1266843	0	0	0	0	0	0
22.24375	0.07342042	0.1266843	0	0	0	0	0	0
22.25985	0.07344659	0.1266661	0.001625714	-0.001132863	0.04906416	-0.03418989	0	0
22.27641	0.07344659	0.1266661	0	0	-0.04976602	0.03467897	0	0
22.29328	0.07344659	0.1266661	0	0	0	0	0	0
22.30955	0.07344659	0.1266661	0	0	0	0	0	0
22.32631	0.07344659	0.1266661	0	0	0	0	0	0
22.34268	0.07344659	0.1266661	0	0	0	0	0	0
22.35933	0.07344659	0.1266661	0	0	0	0	0	0
22.37584	0.07344659	0.1266661	0	0	0	0	0	0
22.39238	0.07344659	0.1266661	0	0	0	0	0	0
22.40895	0.07344659	0.1266661	0	0	0	0	0	0
22.42551	0.07344659	0.1266661	0	0	0	0	0	0
22.44208	0.07344659	0.1266661	0	0	0	0	0	0
22.45865	0.07344659	0.1266661	0	0	0	0	0	0
22.47541	0.07344659	0.1266661	0	0	0	0	0	0
22.49192	0.07344659	0.1266661	0	0	0	0	0	0
22.50835	0.07347277	0.1266478	0.001593619	-0.001110498	0.04838519	-0.03371675	0	0
22.52495	0.07347277	0.1266478	0	0	-0.04825386	0.03362523	0	0
22.54148	0.07347277	0.1266478	0	0	0	0	0	0
22.55805	0.07344659	0.1266296	-0.001579859	-0.00110091	-0.0477297	-0.03325998	0	0
22.57462	0.07347277	0.1266113	0.001579859	-0.00110091	0.09536048	0	0	0
22.59118	0.07347277	0.1266113	0	0	-0.04768024	0.03322552	0	0
22.60775	0.07347277	0.1266113	0	0	0	0	0	0
22.62452	0.07347277	0.1266113	0	0	0	0	0	0
22.69058	0.07342042	0.1266843	-0.0007924155	0.001104374	-0.0095665	0.01333265	0	0
22.70715	0.0733419	0.126739	-0.004739577	0.003303628	-0.04777013	0.02661625	0	0
22.72641	0.0732372	0.126812	-0.005437794	0.003789778	-0.01949133	0.01357131	0	0
22.74297	0.07310633	0.1269032	-0.007899296	0.005504548	-0.06871496	0.04786928	0	0
22.75962	0.07234719	0.1274322	-0.04560081	0.03177453	-1.13509	0.7909175	0	0
22.77611	0.06965031	0.129274	-0.1635754	0.1117131	-3.560478	2.412552	0	0
22.79268	0.06614023	0.1317166	-0.2118689	0.1474355	-1.461033	1.080716	0	0
22.80924	0.05767281	0.1368715	-0.5110941	0.31115	-9.030635	4.940911	0	0
22.82581	0.04812072	0.1398201	-0.5765656	0.1779804	-1.975935	-4.019066	0	0
22.84268	0.03745616	0.1399293	-0.632214	0.006472432	-1.664334	-5.129467	0	0
22.85894	0.009210266	0.1397473	-1.736717	-0.01118872	-33.33588	-0.5330454	0	0
22.87551	-0.0244688	0.1404388	-2.032873	0.04173473	-9.02057	1.611987	0	0
22.89221	-0.05221565	0.1414575	-1.661224	0.06099585	11.17072	0.5789357	0	0
22.90872	-0.08941881	0.1438037	-2.253109	0.1420888	-17.82005	2.441487	0	0
22.92524	-0.1076871	0.1449855	-1.106368	0.07157142	34.72467	-2.135347	0	0
22.94178	-0.132767	0.1466396	-1.516272	0.1000022	-12.40163	0.8601707	0	0
22.95834	-0.1627323	0.1488927	-1.808712	0.1360001	-8.832994	1.087296	0	0
22.97491	-0.1815829	0.1508181	-1.137819	0.1162152	20.24761	-0.5971091	0	0
22.99148	-0.1999499	0.1544854	-1.108638	0.2213593	0.8806664	3.173254	0	0
23.0083	-0.2093602	0.1573341	-0.5595036	0.1693766	16.44794	-1.557011	0	0
23.04118	-0.2209888	0.1632632	-0.3536589	0.1803188	4.141762	0.2201667	0	0
23.07434	-0.2234425	0.1650027	-0.07398421	0.05245087	4.23456	-1.93605	0	0
23.09088	-0.2235926	0.164894	-0.009079587	-0.006574252	1.305934	-1.187633	0	0
23.10787	-0.2237678	0.1647672	-0.01030966	-0.007465161	-0.03669274	-0.02657562	0	0
23.12401	-0.2238428	0.1647128	-0.004649287	-0.003367202	0.1708402	0.1236838	0	0
23.14058	-0.2238929	0.1646766	-0.003020306	-0.002187428	0.04979914	0.03606656	0	0
23.1574	-0.2239179	0.1646584	-0.001486872	-0.001076853	0.04591962	0.03325685	0	0
23.17371	-0.2239429	0.1646403	-0.001534353	-0.001111241	-0.001433067	-0.001037882	0	0
23.19028	-0.2239679	0.164586	-0.001510153	-0.003280243	0.0007361828	-0.06598094	0	0
23.20694	-0.2240179	0.1645497	-0.003003707	-0.002175407	-0.04495134	0.03325214	0	0
23.22345	-0.224168	0.1643323	-0.009091418	-0.01317006	-0.1835373	-0.3314757	0	0
23.23998	-0.228741	0.1607617	-0.2766321	-0.2159935	-8.097234	-6.138538	0	0
23.25654	-0.2359679	0.1547395	-0.4362156	-0.3635034	-4.821513	-4.456732	0	0
23.27311	-0.2422772	0.14882	-0.3808256	-0.3572973	1.671673	0.1873003	0	0
23.28968	-0.2484679	0.1422033	-0.3736715	-0.3993855	0.2159114	-1.270225	0	0
23.30625	-0.2510622	0.1401476	-0.1565954	-0.1240817	6.551371	8.308686	0	0
23.32281	-0.2541955	0.1378363	-0.1891262	-0.1395106	-0.9817815	-0.4656458	0	0
23.33953	-0.2541955	0.1378363	0	0	5.681674	4.191138	0	0
23.35604	-0.2541955	0.1378363	0	0	0	0	0	0
23.37256	-0.2541955	0.1378363	0	0	0	0	0	0
23.38908	-0.2541955	0.1378363	0	0	0	0	0	0
23.40565	-0.2541955	0.1378363	0	0	0	0	0	0
23.42221	-0.2541955	0.1378363	0	0	0	0	0	0
23.43878	-0.2541955	0.1378363	0	0	0	0	0	0
23.45535	-0.2541955	0.1378363	0	0	0	0	0	0
23.47192	-0.2541955	0.1378363	0	0	0	0	0	0
23.48848	-0.2541955	0.1378363	0	0	0	0	0	0
23.50515	-0.2541955	0.1378363	0	0	0	0	0	0
23.52167	-0.2541955	0.1378363	0	0	0	0	0	0
23.53818	-0.2541955	0.1378363	0	0	0	0	0	0
23.55475	-0.2541955	0.1378363	0	0	0	0	0	0
23.57132	-0.2541955	0.1378363	0	0	0	0	0	0
23.58788	-0.2541955	0.1378363	0	0	0	0	0	0
23.62374	-0.2541955	0.1378363	0	0	0	0	0	0
23.64026	-0.2541955	0.1378363	0	0	0	0	0	0
23.65683	-0.2541955	0.1378363	0	0	0	0	0	0
23.6734	-0.2541955	0.1378363	0	0	0	0	0	0
23.68996	-0.2541709	0.1378181	0.001487667	-0.001099111	0.04489788	-0.03317122	0	0
23.70653	-0.2541709	0.1378181	0	0	-0.04490046	0.03317313	0	0
23.7231	-0.2541215	0.1377817	0.002977133	-0.002197322	0.08985522	-0.06631912	0	0
23.73966	-0.2540969	0.1377635	0.001487667	-0.001099111	-0.04495217	0.03314408	0	0
23.75634	-0.2540722	0.1377453	0.001478137	-0.001091176	-0.000286688	0.0002386913	0	0
23.7728	-0.2540722	0.1377453	0	0	-0.04461027	0.03293176	0	0
23.78937	-0.2540722	0.1377453	0	0	0	0	0	0
23.80593	-0.2540722	0.1377453	0	0	0	0	0	0
23.83907	-0.2540229	0.1378545	0.001488566	0.003295983	0.02995116	0.06631785	0	0
23.85563	-0.2537764	0.1380366	0.01488207	0.01098751	0.2694778	0.1547538	0	0
23.8722	0	0	15.31797	-8.331903	461.8482	-251.7889	0	0
23.94356	-0.209058	0.1702727	-2.929718	2.386184	-207.5371	121.9004	0	0
23.96012	-0.1910364	0.1822635	1.087791	0.7237661	45.69248	-18.90724	0	0
23.97699	-0.1690295	0.1927358	1.304753	0.6208901	6.489268	-3.076996	0	0
23.99326	-0.1338527	0.2020399	2.162612	0.5720018	25.89174	-1.475538	0	0
24.00982	-0.1244327	0.2038057	0.5685928	0.1065823	-48.54916	-14.17532	0	0
24.02639	-0.08691208	0.2087766	2.264751	0.3000419	51.19015	5.838624	0	0
24.04296	-0.05413128	0.2134205	1.978653	0.2803083	-8.63444	-0.5955623	0	0
24.05953	-0.04037279	0.2156516	0.830464	0.1346662	-34.65242	-4.395485	0	0
24.07609	-0.01810328	0.2199141	1.34419	0.257289	15.50428	3.700763	0	0
24.09266	-0.005210479	0.2223233	0.7782112	0.1454154	-17.08127	-3.376353	0	0
24.10959	0.007157772	0.2232939	0.7306508	0.05734155	-1.419929	-2.629467	0	0
24.1261	0.01470947	0.2208671	0.457348	-0.1469755	-8.173018	-6.110027	0	0
24.14236	0.02228578	0.2156516	0.465944	-0.3207542	0.2622958	-5.302647	0	0
24.15913	0.02694085	0.2124667	0.2776242	-0.1899403	-5.701882	3.960738	0	0
24.17549	0.03225197	0.2088306	0.3245404	-0.2221891	1.416014	-0.9733266	0	0
24.19215	0.03430233	0.2074261	0.1231079	-0.08432794	-6.100313	4.175079	0	0
24.20866	0.03771894	0.2050848	0.2069421	-0.1418146	2.527793	-1.733353	0	0
24.22519	0.04013633	0.2034274	0.1461998	-0.1002359	-1.83818	1.25825	0	0
24.24176	0.04024142	0.2033193	0.006343272	-0.006525407	-4.225014	2.83096	0	0
24.25869	0.04021515	0.2033013	-0.001551412	-0.001063901	-0.2356575	0.1630268	0	0
24.27489	0.04018888	0.2032832	-0.001621779	-0.001111998	-0.002123673	-0.001451581	0	0
24.29146	0.04011006	0.2032292	-0.004757566	-0.003263153	-0.09569589	-0.06564754	0	0
24.30803	0.03997869	0.2031391	-0.007929427	-0.00543709	-0.09572694	-0.06560954	0	0
24.32474	0.03976849	0.202995	-0.01257574	-0.008623795	-0.1396071	-0.09575053	0	0
24.34126	0.03950575	0.2028148	-0.01591243	-0.01091241	-0.1004242	-0.06888028	0	0
24.35777	0.03919045	0.2025985	-0.01909537	-0.01309544	-0.09638301	-0.06610449	0	0
24.3743	0.03884887	0.2023643	-0.02066558	-0.01417176	-0.04752307	-0.03257551	0	0
24.39086	0.03879631	0.2023283	-0.003172085	-0.002174836	0.5285631	0.3624853	0	0
24.40743	0.03866493	0.2022382	-0.007930326	-0.005438889	-0.143604	-0.09850932	0	0
24.42431	0.03855982	0.2021661	-0.0062252	-0.004268986	0.05097373	0.03497355	0	0
24.44056	0.03848099	0.202112	-0.004851518	-0.003327122	0.0414602	0.02842715	0	0
24.45713	0.03845472	0.202094	-0.00158593	-0.001087418	0.09951225	0.06825049	0	0
24.4737	0.03842844	0.202076	-0.001586155	-0.001087418	-6.784417E-06	0	0	0
24.49026	0.03840216	0.202058	-0.001586155	-0.001088317	0	-2.714469E-05	0	0
24.50683	0.03834961	0.2020219	-0.003172085	-0.002174836	-0.04786347	-0.03279119	0	0
24.5234	0.03834961	0.2020219	0	0	0.09573372	0.06563668	0	0
24.5424	0.03832333	0.2020039	-0.001383129	-0.0009490136	-0.03888871	-0.02668292	0	0
24.55897	0.03829706	0.2019859	-0.00158593	-0.001087418	-0.005702072	-0.003891442	0	0
24.6418	0.03819195	0.2016976	-0.001268938	-0.003480797	0.003189076	-0.02407837	0	0
24.65848	0.03827078	0.2015354	0.004725058	-0.009722083	0.06023153	-0.06271646	0	0
24.67493	0.03871748	0.2010127	0.02715691	-0.03177271	0.6770335	-0.6655274	0	0
24.6915	0.04202787	0.1985973	0.1997463	-0.1457437	5.226509	-3.451374	0	0
24.70806	0.04791068	0.1941971	0.3552505	-0.2657186	4.693397	-3.621057	0	0
24.72463	0.05381641	0.1884765	0.3564707	-0.3452952	0.03683408	-2.402181	0	0
24.7412	0.05499712	0.1822454	0.0712677	-0.3761126	-8.607445	-0.9300706	0	0
24.77456	0.05216316	0.1464397	-0.08493733	-1.073145	-3.128325	-13.9595	0	0
24.79107	0.05179574	0.1385462	-0.0222547	-0.4781004	1.256788	11.93065	0	0
24.80746	0.05129706	0.1242758	-0.03042561	-0.8706846	-0.2483569	-11.9327	0	0
24.8241	0.05029964	0.1134965	-0.05996302	-0.6480286	-0.8944271	6.742284	0	0
24.8406	0.05032589	0.1095992	0.001591176	-0.2362224	1.857816	12.42905	0	0
24.85716	0.04956464	0.1029866	-0.04594948	-0.3991395	-1.437759	-4.927057	0	0
24.87373	0.05268803	0.1007314	0.1885285	-0.1361233	7.07656	7.937844	0	0
24.8903	0.05323911	0.1003462	0.03326339	-0.02324727	-4.685911	3.406606	0	0
24.90686	0.05323911	0.1003462	0	0	-1.003891	0.701604	0	0
24.92343	0.05323911	0.1003462	0	0	0	0	0	0
24.94	0.05323911	0.1003462	0	0	0	0	0	0
24.95656	0.05323911	0.1003462	0	0	0	0	0	0
24.97313	0.05323911	0.1003462	0	0	0	0	0	0
24.9897	0.05323911	0.1003462	0	0	0	0	0	0
25.00626	0.05323911	0.1003462	0	0	0	0	0	0
25.02283	0.05323911	0.1003462	0	0	0	0	0	0
25.0394	0.05321287	0.1003646	-0.001583907	0.001106756	-0.0478024	0.03340195	0	0
25.05597	0.05323911	0.1003829	0.001583907	0.001107206	0.09560479	1.357235E-05	0	0
25.07253	0.05323911	0.1003829	0	0	-0.0478024	-0.03341553	0	0
25.0891	0.05323911	0.1003829	0	0	0	0	0	0
25.10567	0.05323911	0.1003829	0	0	0	0	0	0
25.12223	0.05323911	0.1003829	0	0	0	0	0	0
25.1388	0.05323911	0.1003829	0	0	0	0	0	0
25.15537	0.05321287	0.1004013	-0.001583907	0.001107206	-0.0478024	0.03341553	0	0
25.17235	0.05323911	0.1004196	0.001545474	0.001079901	0.09328501	-0.0008139247	0	0
25.1885	0.05321287	0.1004379	-0.001624299	0.001135441	-0.09566394	0.001676201	0	0
25.20507	0.05321287	0.1004379	0	0	0.04964153	-0.03470115	0	0
25.22188	0.05321287	0.1004746	0	0.002181314	0	0.06534695	0	0
25.2384	0.05323911	0.1005296	0.001589029	0.003331908	0.04767705	0.03452227	0	0
25.25491	0.0532916	0.1008597	0.003179018	0.01999471	0.04814671	0.5045691	0	0
25.27142	0.05316039	0.1009881	-0.007946288	0.007774146	-0.3369066	-0.3700743	0	0
25.2879	0.05234687	0.1018866	-0.04934855	0.05450265	-1.254723	1.416138	0	0
25.30447	0.05176949	0.1030232	-0.03485067	0.06860672	0.4386327	0.4267178	0	0
25.32104	0.05187447	0.1032798	0.006336526	0.01548919	1.243032	-1.60309	0	0
25.35417	0.04854079	0.1061933	-0.1006108	0.08792818	-2.151784	1.457475	0	0
25.37099	0.0471755	0.1074387	-0.0811754	0.07405042	0.3890698	-0.2778137	0	0
25.38731	0.04100332	0.1120331	-0.3783466	0.2816286	-8.96916	6.265083	0	0
25.40387	0.03916417	0.1134599	-0.1110111	0.08612413	8.130447	-5.945858	0	0
25.42044	0.02796639	0.1217567	-0.6758995	0.5007902	-17.04837	12.51465	0	0
25.43704	0.02402169	0.1252248	-0.2376373	0.2089262	13.21385	-8.799859	0	0
25.45609	0.0224699	0.1294381	-0.08144819	0.2211425	4.380915	0.3426504	0	0
25.47266	0.02102322	0.1319353	-0.08732207	0.1507302	-0.1649053	-1.976778	0	0
25.48923	0.02215427	0.1373448	0.06827044	0.3265222	4.695791	5.305414	0	0
25.50579	0.02586265	0.1400931	0.2238384	0.1658839	4.695052	-4.848075	0	0
25.52236	0.02891299	0.1420942	0.1841189	0.1207888	-1.198738	-1.36097	0	0
25.53893	0.03156846	0.1439673	0.1602841	0.1130636	-0.7193365	-0.2331486	0	0
25.55549	0.03156846	0.1439673	0	0	-4.837662	-3.412462	0	0
25.57206	0.03156846	0.1440037	0	0.002194623	0	0.06623768	0	0
25.58863	0.03156846	0.1440401	0	0.002195523	0	2.714469E-05	0	0
25.6552	0.03164732	0.1440583	0.001184769	0.0002730939	0.01425104	-0.02312401	0	0
25.67146	0.03167361	0.1440401	0.001616229	-0.001117642	0.005208724	-0.01678938	0	0
25.68822	0.0316999	0.1440219	0.00156859	-0.001084699	-0.001442481	0.0009974939	0	0
25.70473	0.03177877	0.1438946	0.004776436	-0.007708719	0.09641339	-0.1990882	0	0
25.72116	0.03183135	0.1438582	0.003200186	-0.002213874	-0.04784951	0.1668045	0	0
25.73773	0.03183135	0.1438219	0	-0.002194623	-0.09698378	0.0005834044	0	0
25.7543	0.03180506	0.1436946	-0.00158683	-0.007682981	-0.04789062	-0.165639	0	0
25.77086	0.0316999	0.1435855	-0.00634805	-0.006586428	-0.1437022	0.03309596	0	0
25.78982	0.0316999	0.1435855	0	0	0.1787148	0.1854258	0	0
25.80681	0.0316999	0.1435855	0	0	0	0	0	0
25.82295	0.0316999	0.1435491	0	-0.00225192	0	-0.06796307	0	0
25.83952	0.03167361	0.1434946	-0.00158683	-0.003292835	-0.04850771	-0.03181968	0	0
25.85609	0.03162104	0.1434218	-0.003173294	-0.004390541	-0.04787683	-0.03312692	0	0
25.87266	0.03151588	0.1432763	-0.00634805	-0.008782203	-0.09581431	-0.1325406	0	0
25.88937	0.03122669	0.1430763	-0.01730603	-0.01197067	-0.3293099	-0.09581981	0	0
25.90588	0.03114782	0.1430218	-0.004777214	-0.003304247	0.3771436	0.2608773	0	0
25.92235	0.03112153	0.1430036	-0.001595463	-0.001104186	0.09645295	0.06669359	0	0
25.93892	0.03109524	0.1430218	-0.001586942	0.001098211	0.000257852	0.0666488	0	0
25.95549	0.03109524	0.1430218	0	0	0.04789401	-0.03314408	0	0
25.97206	0.03109524	0.1430218	0	0	0	0	0	0
25.98862	0.03109524	0.1430218	0	0	0	0	0	0
26.00519	0.03106895	0.1430036	-0.00158683	-0.001098211	-0.04789338	-0.03314599	0	0
26.05498	0.03109524	0.1430218	0.0005279505	0.0003653833	0.03186715	0.02205458	0	0
26.0715	0.03106895	0.1430036	-0.001592145	-0.00110189	-0.0319739	-0.02212846	0	0
26.08802	0.03106895	0.1430036	0	0	0.04818974	0.0333511	0	0
26.10459	0.03106895	0.1429672	0	-0.002195523	0	-0.06634121	0	0
26.12116	0.03104266	0.142949	-0.001586942	-0.001097312	-0.04789401	0.03314408	0	0
26.13772	0.03101637	0.1429308	-0.00158683	-0.001097312	3.390452E-06	0	0	0
26.15429	0.03101637	0.1429308	0	0	0.04789062	0.03311693	0	0
26.17086	0.03099008	0.1429126	-0.001586759	-0.001098085	-0.04788574	-0.03313836	0	0
26.18758	0.03099008	0.1429126	0	0	0.04766624	0.03298646	0	0
26.20409	0.03099008	0.1429126	0	0	0	0	0	0
26.2206	0.03099008	0.1429126	0	0	0	0	0	0
26.23712	0.03099008	0.1429126	0	0	0	0	0	0
26.25369	0.03099008	0.1429126	0	0	0	0	0	0
26.27026	0.03099008	0.1429126	0	0	0	0	0	0
26.28683	0.03099008	0.1429126	0	0	0	0	0	0
26.30339	0.03099008	0.1429126	0	0	0	0	0	0
26.32018	0.03099008	0.1429126	0	0	0	0	0	0
26.33669	0.03099008	0.1429126	0	0	0	0	0	0
26.35309	0.03099008	0.1429126	0	0	0	0	0	0
26.36966	0.03099008	0.1429126	0	0	0	0	0	0
26.46906	0.03096378	0.1428945	-0.0002644954	-0.0001828888	-0.002280748	-0.001577053	0	0
26.48769	0.03096378	0.1428945	0	0	0.002240979	0.001549554	0	0
26.50426	0.03096378	0.1428945	0	0	0	0	0	0
26.52082	0.03096378	0.1428945	0	0	0	0	0	0
26.53739	0.03096378	0.1428945	0	0	0	0	0	0
26.55396	0.03096378	0.1428945	0	0	0	0	0	0
26.57052	0.03096378	0.1428945	0	0	0	0	0	0
26.58709	0.03096378	0.1428945	0	0	0	0	0	0
26.60366	0.03096378	0.1428945	0	0	0	0	0	0
26.62023	0.03096378	0.1428945	0	0	0	0	0	0
26.63679	0.03099008	0.1428763	0.001586942	-0.001098211	0.04789401	-0.03314408	0	0
26.65336	0.03099008	0.1428763	0	0	-0.04789401	0.03314408	0	0
26.66993	0.03096378	0.1428581	-0.001586942	-0.001097312	-0.04789401	-0.03311693	0	0
26.68649	0.03096378	0.1428581	0	0	0.04789677	0.03311884	0	0
26.70306	0.03096378	0.1428581	0	0	0	0	0	0
26.71963	0.03096378	0.1428581	0	0	0	0	0	0
26.73619	0.03096378	0.1428581	0	0	0	0	0	0
26.75276	0.03093749	0.1428399	-0.00158683	-0.001098211	-0.04789062	-0.03314408	0	0
26.76933	0.03093749	0.1428399	0	0	0.04789338	0.03314599	0	0
26.78589	0.03093749	0.1428399	0	0	0	0	0	0
26.80246	0.03093749	0.1428035	0	-0.002195523	0	-0.06626102	0	0
26.81904	0.0309112	0.1427853	-0.001586212	-0.001096807	-0.04786095	0.03315169	0	0
26.8356	0.0309112	0.1427853	0	0	0.04787197	0.03310169	0	0
26.85216	0.03088491	0.1427671	-0.001586942	-0.001098211	-0.04790504	-0.03315171	0	0
26.86873	0.03088491	0.1427671	0	0	0.04789401	0.03314408	0	0
26.8853	0.0309112	0.142749	0.001586942	-0.001097312	0.04789401	-0.03311693	0	0
26.90187	0.03088491	0.1427308	-0.001586942	-0.001098211	-0.09578802	-2.714469E-05	0	0
26.91843	0.03088491	0.1427308	0	0	0.04789401	0.03314408	0	0
26.935	0.03085862	0.1427126	-0.00158683	-0.001097312	-0.04789062	-0.03311693	0	0
26.95157	0.03088491	0.1426944	0.00158683	-0.001098211	0.09578124	-2.714469E-05	0	0
26.96815	0.03085862	0.1426762	-0.001585734	-0.001096554	-0.09571511	4.998575E-05	0	0
26.9847	0.03085862	0.1426762	0	0	0.04786031	0.03309598	0	0
27.00127	0.03085862	0.1426762	0	0	0	0	0	0
27.01783	0.03083233	0.142658	-0.001586942	-0.001098211	-0.04789401	-0.03314408	0	0
27.0344	0.03083233	0.142658	0	0	0.04789401	0.03314408	0	0
27.05121	0.03083233	0.1426217	0	-0.00216413	0	-0.06484326	0	0
27.08423	0.03080604	0.1426035	-0.0007962211	-0.0005505574	-0.01597953	0.03238312	0	0
27.10074	0.03080604	0.1426035	0	0	0.0160749	0.0111152	0	0
27.11723	0.03080604	0.1426035	0	0	0	0	0	0
27.1338	0.03080604	0.1426035	0	0	0	0	0	0
27.15037	0.03080604	0.1426035	0	0	0	0	0	0
27.16693	0.03080604	0.1426035	0	0	0	0	0	0
27.1835	0.03083233	0.1425853	0.001586942	-0.001098211	0.04789401	-0.03314408	0	0
27.20007	0.03080604	0.1425671	-0.001586942	-0.001097312	-0.09578802	2.714469E-05	0	0
27.21664	0.03080604	0.1425671	0	0	0.04789401	0.03311693	0	0
27.2332	0.03080604	0.1425671	0	0	0	0	0	0
27.24977	0.03080604	0.1425671	0	0	0	0	0	0
27.26634	0.03080604	0.1425671	0	0	0	0	0	0
27.2829	0.03080604	0.1425671	0	0	0	0	0	0
27.29947	0.03080604	0.1425671	0	0	0	0	0	0
27.34942	0.03077975	0.1425489	-0.0005263146	-0.0003642254	-0.007912043	-0.005475369	0	0
27.36593	0.03075346	0.1425307	-0.001592329	-0.001101115	-0.01603911	-0.01108713	0	0
27.38579	0.03075346	0.1425307	0	0	0.0437891	0.03028069	0	0
27.40236	0.03075346	0.1425307	0	0	0	0	0	0
27.41892	0.03075346	0.1425307	0	0	0	0	0	0
27.43549	0.03075346	0.1425307	0	0	0	0	0	0
27.45206	0.03075346	0.1425307	0	0	0	0	0	0
27.46862	0.03075346	0.1425307	0	0	0	0	0	0
27.48552	0.03075346	0.1425307	0	0	0	0	0	0
27.50176	0.03075346	0.1425307	0	0	0	0	0	0
27.51832	0.03077975	0.1425125	0.00158683	-0.001098211	0.04837234	-0.03347747	0	0
27.53506	0.03077975	0.1425125	0	0	-0.0476547	0.03298081	0	0
27.55146	0.03077975	0.1425125	0	0	0	0	0	0
27.56808	0.03077975	0.1425125	0	0	0	0	0	0
27.58459	0.03075346	0.1425307	-0.001592145	0.00110189	-0.04805381	0.03325702	0	0
27.60116	0.03075346	0.1425307	0	0	0.04813139	-0.03331072	0	0
27.61773	0.03075346	0.1425307	0	0	0	0	0	0
27.63429	0.03075346	0.1425307	0	0	0	0	0	0
27.65086	0.03075346	0.1425307	0	0	0	0	0	0
27.66743	0.03075346	0.1425307	0	0	0	0	0	0
27.68399	0.03075346	0.1425307	0	0	0	0	0	0
27.70067	0.03075346	0.1425307	0	0	0	0	0	0
27.71719	0.03075346	0.1425307	0	0	0	0	0	0
27.73369	0.03075346	0.1425307	0	0	0	0	0	0
27.75026	0.03075346	0.1425307	0	0	0	0	0	0
27.76683	0.03075346	0.1425307	0	0	0	0	0	0
27.78339	0.03075346	0.1425307	0	0	0	0	0	0
27.79996	0.03075346	0.1425307	0	0	0	0	0	0
27.81653	0.03075346	0.1425307	0	0	0	0	0	0
27.83327	0.03075346	0.1425307	0	0	0	0	0	0
27.86629	0.03077975	0.1425125	0.0007960267	-0.0005509132	0.01599522	-0.01106995	0	0
27.8828	0.03077975	0.1425125	0	0	-0.01606974	0.01112153	0	0
27.89937	0.03077975	0.1425125	0	0	0	0	0	0
27.91594	0.03075346	0.1424943	-0.001586647	-0.001098085	-0.04789062	-0.03314408	0	0
27.9325	0.03075346	0.1424943	0	0	0.04788786	0.03314217	0	0
27.94906	0.03075346	0.1424943	0	0	0	0	0	0
27.96563	0.03075346	0.1424943	0	0	0	0	0	0
28.03668	0.03075346	0.142458	0	-0.0005118997	0	-0.005842031	0	0
28.05325	0.03075346	0.142458	0	0	0	0.005842031	0	0
28.06993	0.03075346	0.142458	0	0	0	0	0	0
28.08638	0.03075346	0.142458	0	0	0	0	0	0
28.10296	0.03077975	0.1424398	0.001586099	-0.001096807	0.04802892	-0.03321258	0	0
28.11952	0.03077975	0.1424398	0	0	-0.04787133	0.0331036	0	0
28.13608	0.03077975	0.1424398	0	0	0	0	0	0
28.16922	0.03075346	0.1424216	-0.0007934149	-0.0005491056	-0.01596354	-0.01104803	0	0
28.18579	0.03075346	0.1424216	0	0	0.01596354	0.01104803	0	0
28.20235	0.03075346	0.1424216	0	0	0	0	0	0
28.21892	0.03075346	0.1424216	0	0	0	0	0	0
28.23549	0.03075346	0.1424216	0	0	0	0	0	0
28.25205	0.03075346	0.1424216	0	0	0	0	0	0
28.26862	0.03075346	0.1424216	0	0	0	0	0	0
28.28519	0.03075346	0.1424216	0	0	0	0	0	0
28.32212	0.03075346	0.1424216	0	0	0	0	0	0
28.33863	0.03075346	0.1424216	0	0	0	0	0	0
28.35514	0.03075346	0.1424216	0	0	0	0	0	0
28.37171	0.03075346	0.1424216	0	0	0	0	0	0
28.38827	0	0	-1.856282	-8.596584	-56.02594	-259.4604	0	0
28.40484	0.03075346	0.1424216	1.856496	8.597574	112.0583	518.9506	0	0
28.42169	0.03075346	0.1424216	0	0	-55.55586	-257.2834	0	0
28.43797	0.03075346	0.1424216	0	0	0	0	0	0
28.45471	0.03075346	0.1424216	0	0	0	0	0	0
28.47111	0.03075346	0.1424216	0	0	0	0	0	0
28.48774	0.03075346	0.1424216	0	0	0	0	0	0
28.50425	0.03075346	0.1424216	0	0	0	0	0	0
28.52081	0.03075346	0.1424216	0	0	0	0	0	0
28.53737	0.03075346	0.1424216	0	0	0	0	0	0
28.55394	0.03075346	0.1423852	0	-0.002195523	0	-0.06626102	0	0
28.57051	0.03075346	0.1423852	0	0	0	0.06626102	0	0
28.58708	0.03075346	0.1423852	0	0	0	0	0	0
28.60364	0.03075346	0.1423852	0	0	0	0	0	0
28.62021	0.03075346	0.1423852	0	0	0	0	0	0
28.65334	0.03075346	0.1423852	0	0	0	0	0	0
28.66991	0.03075346	0.1423852	0	0	0	0	0	0
28.68688	0.03075346	0.1423852	0	0	0	0	0	0
28.70304	0.03075346	0.1423852	0	0	0	0	0	0
28.71961	0.03075346	0.1423852	0	0	0	0	0	0
28.73618	0.03075346	0.1423852	0	0	0	0	0	0
28.76931	0.03072717	0.142367	-0.0007935168	-0.0005491372	-0.0159662	-0.01104909	0	0
28.78588	0.03070088	0.1423125	-0.001586942	-0.003292835	-0.01596436	-0.05520542	0	0
28.80247	0.03070088	0.1422397	0	-0.004386391	0.0478637	-0.0329827	0	0
28.81901	0.03067459	0.1421124	-0.001588954	-0.007694525	-0.04795474	-0.09983969	0	0
28.83558	0.030622	0.1417122	-0.003173884	-0.02415435	-0.04786358	-0.4970733	0	0
28.85215	0.03043796	0.1406753	-0.01110859	-0.06258994	-0.23947	-1.159989	0	0
28.86871	0.03009617	0.1374176	-0.02063059	-0.1966311	-0.2873742	-4.045369	0	0
28.88528	0.03319832	0.1294745	0.1872461	-0.479447	6.273732	-8.535401	0	0
28.90185	0.03411834	0.122633	0.05553207	-0.4129544	-3.975138	2.00675	0	0
28.91842	0.03511713	0.1045994	0.06028761	-1.088514	0.1435225	-20.38844	0	0
28.93498	0.03619471	0.08890547	0.0650427	-0.9472849	0.1435089	4.262311	0	0
28.95155	0.03672033	0.07210352	0.03172625	-1.014168	-1.005493	-2.018532	0	0
28.96812	0.0374036	0.04989108	0.04124228	-1.340745	0.2871944	-9.856115	0	0
29.03439	0.03608959	-0.007018106	-0.01982846	-0.8587614	-0.7372475	5.818518	0	0
29.05095	0.03580049	-0.01527178	-0.01745018	-0.4981926	0.02871062	4.352794	0	0
29.06752	0.03582677	-0.02396396	0.00158638	-0.5246612	0.5745245	-0.7988241	0	0
29.08417	0.03351376	-0.02878438	-0.1389097	-0.2894945	-4.229467	7.079415	0	0
29.10068	0.03409205	-0.0294302	0.03502246	-0.03911247	5.244754	7.550026	0	0
29.11722	0.03587933	-0.03072225	0.1080921	-0.07814122	2.211102	-1.181017	0	0
29.13379	0.03585305	-0.03070325	-0.00158638	0.001147118	-3.313347	2.395271	0	0
29.15035	0.03587933	-0.03072225	0.00158638	-0.001147118	0.09575409	-0.06924018	0	0
29.16692	0.03587933	-0.03072225	0	0	-0.04787704	0.03462009	0	0
29.18349	0.03587933	-0.03072225	0	0	0	0	0	0
29.20371	0.03590561	-0.03074126	0.001299566	-0.0009397215	0.03532308	-0.02554226	0	0
29.22028	0.03595818	-0.03077926	0.00317276	-0.002294236	0.05091468	-0.03681662	0	0
29.23728	0.03606331	-0.03085529	0.006183216	-0.004471329	0.08967874	-0.06485361	0	0
29.25341	0.03645752	-0.03114038	0.02443646	-0.01767234	0.5508841	-0.3984074	0	0
29.2703	0.03695685	-0.03150154	0.0295642	-0.02138358	0.1552829	-0.112387	0	0
29.28654	0.0377715	-0.03209089	0.05015399	-0.03628349	0.6214366	-0.4497063	0	0
29.30311	0.03785034	-0.03214794	0.004759013	-0.003443437	-1.383643	1.000968	0	0
29.31984	0.03785034	-0.03214794	0	0	-0.1429525	0.1034349	0	0
29.33624	0.03785034	-0.03214794	0	0	0	0	0	0
29.35286	0.03785034	-0.03214794	0	0	0	0	0	0
29.36938	0.03785034	-0.03214794	0	0	0	0	0	0
29.40251	0.03785034	-0.03214794	0	0	0	0	0	0
29.41908	0.03785034	-0.03214794	0	0	0	0	0	0
29.43565	0.03785034	-0.03214794	0	0	0	0	0	0
29.45221	0.03785034	-0.03214794	0	0	0	0	0	0
29.46878	0.03785034	-0.03214794	0	0	0	0	0	0
29.48546	0.03785034	-0.03214794	0	0	0	0	0	0
29.50197	0.03785034	-0.03214794	0	0	0	0	0	0
29.51848	0.03785034	-0.03214794	0	0	0	0	0	0
29.53505	0.03785034	-0.03214794	0	0	0	0	0	0
29.55161	0.03785034	-0.03214794	0	0	0	0	0	0
29.56818	0.03785034	-0.03214794	0	0	0	0	0	0
29.58475	0.03785034	-0.03214794	0	0	0	0	0	0
29.60154	0.03785034	-0.03214794	0	0	0	0	0	0
29.61805	0.03785034	-0.03214794	0	0	0	0	0	0
29.63445	0.03785034	-0.03214794	0	0	0	0	0	0
29.65107	0.03785034	-0.03214794	0	0	0	0	0	0
29.66758	0.03785034	-0.03214794	0	0	0	0	0	0
29.68415	0.03785034	-0.03214794	0	0	0	0	0	0
29.70111	0.03785034	-0.03214794	0	0	0	0	0	0
29.71762	0.03785034	-0.03214794	0	0	0	0	0	0
29.73385	0.03785034	-0.03214794	0	0	0	0	0	0
29.75042	0.03785034	-0.03214794	0	0	0	0	0	0
29.76698	0.03785034	-0.03214794	0	0	0	0	0	0
29.78367	0.03785034	-0.03214794	0	0	0	0	0	0
29.80019	0.03785034	-0.03214794	0	0	0	0	0	0
29.81668	0.03785034	-0.03214794	0	0	0	0	0	0
29.83325	0.03785034	-0.03214794	0	0	0	0	0	0
29.84982	0.03785034	-0.03214794	0	0	0	0	0	0
29.86638	0.03779778	-0.03210991	-0.00317231	0.00229536	-0.09574603	0.06927811	0	0
29.88295	0.03756127	-0.03182472	-0.01427562	0.01721385	-0.3350986	0.450241	0	0
29.89952	0.03695685	-0.03077926	-0.03648292	0.06310397	-0.6702176	1.384967	0	0
29.91626	0.03574792	-0.02857547	-0.07218977	0.1315974	-1.071835	2.056009	0	0
29.93278	0.02820305	-0.02168918	-0.4568297	0.4169529	-11.56386	8.578961	0	0
29.94929	0.01960275	-0.01462886	-0.5210344	0.427738	-1.944303	0.3266025	0	0
29.9658	0.007710373	0.004148838	-0.72023	1.137221	-6.032922	21.48768	0	0
29.98235	0.00634202	0.01919313	-0.0826701	0.9089125	19.28267	-6.905064	0	0
29.99892	0.006315705	0.03493752	-0.001588376	0.9503334	2.448179	1.250661	0	0
30.01549	0.008078772	0.05391704	0.1064066	1.145474	3.259109	5.889023	0	0
30.05096	0.01286771	0.0792045	0.1349956	0.7128292	0.5493239	-8.313076	0	0
30.06753	0.01897141	0.09399588	0.3684199	0.8928093	4.485305	3.458362	0	0
30.0841	0.0248107	0.1040863	0.3524602	0.6090566	-0.4816632	-8.563673	0	0
30.10066	0.03022763	0.1147401	0.3269669	0.6430665	-0.7693918	1.026422	0	0
30.11723	0.03732476	0.1298209	0.4283836	0.9102813	3.060765	8.064558	0	0
30.1338	0.04483835	0.1429308	0.4535207	0.7913156	0.7586391	-3.590391	0	0
30.16693	0.05977083	0.1543583	0.4506631	0.3448828	-0.05749554	-8.982245	0	0
30.1835	0.06532796	0.1582048	0.3354291	0.2321741	-2.318513	-2.267705	0	0
30.20007	0.06993838	0.1614687	0.2782855	0.1970106	-1.724598	-1.061235	0	0
30.21663	0.07116907	0.1623207	0.07428486	0.05142435	-6.156751	-4.393803	0	0
30.2332	0.07404857	0.1643867	0.173827	0.1247157	3.004361	2.212066	0	0
30.24977	0.07407475	0.1643685	0.001579859	-0.001093714	-5.198728	-3.797156	0	0
30.2829	0.07407475	0.1643323	0	-0.001093714	-0.03178683	0	0	0
30.29947	0.07412709	0.1642961	0.003159269	-0.002187428	0.06356461	-0.02200557	0	0
30.31605	0.07415326	0.1642417	0.001578042	-0.003277369	-0.04769405	-0.03287555	0	0
30.3326	0.07417943	0.1642236	0.00158168	-0.001094975	0.0001097839	0.06586479	0	0
30.34917	0.07417943	0.1642236	0	0	-0.04776544	0.03306734	0	0
30.36573	0.0742056	0.1642055	0.001579409	-0.001093714	0.04766941	-0.03301026	0	0
30.38231	0.07425794	0.164133	0.003158541	-0.004373849	0.04765281	-0.09898327	0	0
30.39887	0.07428411	0.1639699	0.001580223	-0.009845694	-0.04763374	-0.1651406	0	0
30.41544	0.07425794	0.1638431	-0.001579859	-0.007656897	-0.09538244	0.0660656	0	0
30.432	0.07415326	0.1635531	-0.006318537	-0.01750032	-0.1430136	-0.2970752	0	0
30.44857	0.07417943	0.1634625	0.001579859	-0.005469469	0.2383741	0.3630919	0	0
30.46514	0.0742056	0.1633357	0.001579409	-0.007656897	-1.357235E-05	-0.06601671	0	0
30.4817	0.07438879	0.1629188	0.01105766	-0.02515992	0.2860543	-0.5282423	0	0
30.49827	0.07433645	0.1628463	-0.003159632	-0.004376259	-0.4291036	0.6272882	0	0
30.53171	0.0740224	0.1624838	-0.009391755	-0.01084045	-0.1246301	-0.1292709	0	0
30.54822	0.0738392	0.1623207	-0.01109388	-0.009877967	-0.03407415	0.01926751	0	0
30.56473	0.07331572	0.1618857	-0.03170624	-0.02634914	-0.6241663	-0.4987661	0	0
30.5811	0.07308014	0.1616863	-0.01439027	-0.01217978	0.5266287	0.4309312	0	0
30.59776	0.0730278	0.16165	-0.003143433	-0.002177049	0.3405674	0.3028944	0	0
30.61424	0.0730278	0.16165	0	0	0.09487445	0.06570724	0	0
30.6308	0.07300162	0.1616319	-0.001579859	-0.001094613	-0.04780683	-0.03312321	0	0
30.64737	0.07300162	0.1616319	0	0	0.04768024	0.0330355	0	0
30.66394	0.07297544	0.1616138	-0.001580309	-0.001093714	-0.04769382	-0.03300836	0	0
30.6805	0.07297544	0.1616138	0	0	0.04769656	0.03301026	0	0
30.69733	0.07297544	0.1616138	0	0	0	0	0	0
30.71364	0.07294927	0.1615956	-0.001604801	-0.001111895	-0.048433	-0.03355705	0	0
30.73035	0.07294927	0.1615956	0	0	0.04859805	0.03367141	0	0
30.74677	0.07289692	0.1615594	-0.003187979	-0.0022079	-0.09621894	-0.0666384	0	0
30.76334	0.07279221	0.1614506	-0.006319609	-0.006564227	-0.09492806	-0.1320519	0	0
30.77991	0.07273985	0.1614144	-0.003160532	-0.002188579	0.09534112	0.1320573	0	0
30.79647	0.07198069	0.1608886	-0.04582311	-0.0317339	-1.287633	-0.8917307	0	0
30.81304	0.07124762	0.1603447	-0.04425329	-0.03283499	0.04737984	-0.03323292	0	0
30.82961	0.07114289	0.1602359	-0.006321685	-0.006566781	1.144844	0.7928217	0	0
30.84617	0.07119525	0.1601997	0.003160618	-0.002188327	0.2861765	0.132142	0	0
30.86295	0.07119525	0.1601997	0	0	-0.09479827	0.0656358	0	0
30.88207	0.07124762	0.1601634	0.002738583	-0.001896631	0.07629151	-0.0528364	0	0
30.89864	0.0712738	0.1601453	0.001580309	-0.001094613	-0.03245347	0.02247158	0	0
30.9152	0.0712738	0.1601453	0	0	-0.04769382	0.0330355	0	0
30.93177	0.07129999	0.1601271	0.001580309	-0.001094613	0.04769382	-0.0330355	0	0
30.94851	0.07129999	0.1601271	0	0	-0.04745343	0.032869	0	0
30.96502	0.07129999	0.1601271	0	0	0	0	0	0
30.98153	0.07129999	0.1601271	0	0	0	0	0	0
30.99804	0.07129999	0.1601271	0	0	0	0	0	0
31.0146	0.07129999	0.1601271	0	0	0	0	0	0
31.03117	0.07129999	0.1601271	0	0	0	0	0	0
31.04774	0.07129999	0.1601271	0	0	0	0	0	0
31.0643	0.07129999	0.1601271	0	0	0	0	0	0
31.08087	0.07129999	0.1601271	0	0	0	0	0	0
31.09744	0.07129999	0.1601271	0	0	0	0	0	0
31.114	0.07129999	0.1601271	0	0	0	0	0	0
31.13063	0.07132617	0.160109	0.001574328	-0.001089575	0.04742321	-0.03282108	0	0
31.14714	0.07132617	0.160109	0	0	-0.0475051	0.03287775	0	0
31.1637	0.07132617	0.160109	0	0	0	0	0	0
31.18027	0.07132617	0.160109	0	0	0	0	0	0
31.19684	0.07132617	0.160109	0	0	0	0	0	0
31.2134	0.07135235	0.1600909	0.001580673	-0.001094866	0.0477048	-0.03304311	0	0
31.23021	0.07135235	0.1600909	0	0	-0.04737482	0.03281455	0	0
31.2631	0.07135235	0.1600909	0	0	0	0	0	0
31.27967	0.07135235	0.1600909	0	0	0	0	0	0
31.29625	0.07135235	0.1600909	0	0	0	0	0	0
31.3128	0.07135235	0.1600909	0	0	0	0	0	0
31.32937	0.07135235	0.1600909	0	0	0	0	0	0
31.34594	0.07135235	0.1600909	0	0	0	0	0	0
31.3625	0.07135235	0.1600909	0	0	0	0	0	0
31.37907	0.07135235	0.1600909	0	0	0	0	0	0
31.39582	0.07135235	0.1600909	0	0	0	0	0	0
31.41221	0.07137853	0.1600727	0.00159797	-0.001106847	0.04822683	-0.0334047	0	0
31.42878	0.07137853	0.1600727	0	0	-0.04849201	0.03358838	0	0
31.44534	0.07135235	0.1600546	-0.001580673	-0.001094866	-0.04770755	-0.03304501	0	0
31.46191	0.07135235	0.1600546	0	0	0.04771029	0.03304692	0	0
31.47847	0.07135235	0.1600546	0	0	0	0	0	0
31.4954	0.07135235	0.1600546	0	0	0	0	0	0
31.51161	0.07135235	0.1600546	0	0	0	0	0	0
31.52818	0.07135235	0.1600546	0	0	0	0	0	0
31.54474	0.07137853	0.1600365	0.001580309	-0.001094613	0.04769382	-0.0330355	0	0
31.56144	0.07137853	0.1600365	0	0	-0.04750513	0.0329048	0	0
31.57788	0.07140471	0.1600183	0.001593148	-0.001103507	0.04808407	-0.03330581	0	0
31.59444	0.07143089	0.1600002	0.001580309	-0.001093714	-0.0003890524	0.0002967342	0	0
31.61101	0.07143089	0.1600002	0	0	-0.04769382	0.03300836	0	0
31.62758	0.07143089	0.1600002	0	0	0	0	0	0
31.64414	0.07143089	0.1600002	0	0	0	0	0	0
31.66071	0.07143089	0.1600002	0	0	0	0	0	0
31.67728	0.07143089	0.1600002	0	0	0	0	0	0
31.76509	0.07143089	0.1599639	0	-0.000413024	0	-0.003956867	0	0
31.78166	0.07145707	0.1599458	0.001580673	-0.001094866	0.01514377	-0.006532442	0	0
31.79822	0.07145707	0.1599458	0	0	-0.04771579	0.03305072	0	0
31.81479	0.07145707	0.1599458	0	0	0	0	0	0
31.83135	0.07145707	0.1599458	0	0	0	0	0	0
31.8494	0.07145707	0.1599458	0	0	0	0	0	0
31.86617	0.07143089	0.1599277	-0.001561967	-0.001081909	-0.04486989	-0.03107949	0	0
31.88254	0.07145707	0.1599095	0.001599087	-0.00110762	0.09540079	-0.0007759813	0	0
31.8991	0.07145707	0.1599095	0	0	-0.04854839	0.03362743	0	0
31.9157	0.07145707	0.1599095	0	0	0	0	0	0
31.93224	0.07145707	0.1599095	0	0	0	0	0	0
31.9488	0.07145707	0.1599095	0	0	0	0	0	0
31.96573	0.07145707	0.1599095	0	0	0	0	0	0
31.98194	0.07145707	0.1599095	0	0	0	0	0	0
31.99876	0.07145707	0.1599095	0	0	0	0	0	0
32.01507	0.07145707	0.1599095	0	0	0	0	0	0
32.03164	0.07145707	0.1599095	0	0	0	0	0	0
32.0482	0.07145707	0.1599095	0	0	0	0	0	0
32.06477	0.07145707	0.1599095	0	0	0	0	0	0
32.08134	0.07145707	0.1599095	0	0	0	0	0	0
32.09833	0.07145707	0.1599095	0	0	0	0	0	0
32.11447	0.07145707	0.1599095	0	0	0	0	0	0
32.13104	0.07145707	0.1599095	0	0	0	0	0	0
32.14761	0.07145707	0.1599095	0	0	0	0	0	0
32.16417	0.07145707	0.1599095	0	0	0	0	0	0
32.18089	0.07145707	0.1599095	0	0	0	0	0	0
32.19731	0.07145707	0.1599095	0	0	0	0	0	0
32.21391	0.07145707	0.1599095	0	0	0	0	0	0
32.23044	0.07145707	0.1599095	0	0	0	0	0	0
32.24701	0.07145707	0.1599095	0	0	0	0	0	0
32.26395	0.07145707	0.1599095	0	0	0	0	0	0
32.28014	0.07145707	0.1599095	0	0	0	0	0	0
32.29671	0.07145707	0.1599095	0	0	0	0	0	0
32.31328	0.07145707	0.1599095	0	0	0	0	0	0
32.33	0.07145707	0.1599095	0	0	0	0	0	0
32.34641	0.07145707	0.1599095	0	0	0	0	0	0
32.36298	0.07145707	0.1599095	0	0	0	0	0	0
32.37955	0.07145707	0.1599095	0	0	0	0	0	0
32.39611	0.07145707	0.1599095	0	0	0	0	0	0
32.41268	0.07145707	0.1599095	0	0	0	0	0	0
32.42958	0.07145707	0.1599095	0	0	0	0	0	0
32.44582	0.07145707	0.1599095	0	0	0	0	0	0
32.4626	0.07145707	0.1599095	0	0	0	0	0	0
32.47911	0.07145707	0.1599095	0	0	0	0	0	0
32.49552	0.07145707	0.1599095	0	0	0	0	0	0
32.51213	0.07145707	0.1599095	0	0	0	0	0	0
32.5618	0.07145707	0.1599095	0	0	0	0	0	0
32.57835	0.07143089	0.1598914	-0.001581401	-0.00109537	-0.02388126	-0.01654155	0	0
32.59932	0.07140471	0.1598733	-0.00124855	-0.0008641077	0.008870067	0.006162861	0	0
32.61589	0.07140471	0.1598733	0	0	0.03326219	0.02302039	0	0
32.63246	0.07140471	0.1598733	0	0	0	0	0	0
32.64923	0.07140471	0.1598733	0	0	0	0	0	0
32.66559	0.07140471	0.1598733	0	0	0	0	0	0
32.68216	0.07140471	0.1598733	0	0	0	0	0	0
32.69877	0.07140471	0.1598733	0	0	0	0	0	0
32.71529	0.07140471	0.1598733	0	0	0	0	0	0
32.73186	0.07140471	0.1598733	0	0	0	0	0	0
32.74842	0.07140471	0.1598733	0	0	0	0	0	0
32.76499	0.07140471	0.1598733	0	0	0	0	0	0
32.78156	0.07140471	0.1598733	0	0	0	0	0	0
32.79834	0.07140471	0.1598733	0	0	0	0	0	0
32.81469	0.07140471	0.1598733	0	0	0	0	0	0
32.83126	0.07140471	0.1598733	0	0	0	0	0	0
32.84783	0.07140471	0.1598733	0	0	0	0	0	0
32.8644	0.07140471	0.1598733	0	0	0	0	0	0
32.88096	0.07140471	0.1598733	0	0	0	0	0	0
32.89753	0.07140471	0.1598733	0	0	0	0	0	0
32.9141	0.07137853	0.1598551	-0.001580309	-0.001094613	-0.04769382	-0.0330355	0	0
32.93094	0.07137853	0.1598551	0	0	0.04730172	0.03276391	0	0
32.94745	0.07137853	0.1598551	0	0	0	0	0	0
32.96379	0.07135235	0.159837	-0.001601699	-0.00110943	-0.04874908	-0.03376644	0	0
32.98036	0.07132617	0.1598189	-0.001580309	-0.001094613	0.0006499063	0.0004501626	0	0
32.99698	0.07132617	0.1598189	0	0	0.04761706	0.03298234	0	0
33.01349	0.07132617	0.1598189	0	0	0	0	0	0
33.03006	0.07132617	0.1598189	0	0	0	0	0	0
33.04663	0.07132617	0.1598189	0	0	0	0	0	0
33.06319	0.07132617	0.1598189	0	0	0	0	0	0
33.07976	0.07132617	0.1598189	0	0	0	0	0	0
33.09655	0.07132617	0.1598189	0	0	0	0	0	0
33.11306	0.07129999	0.1598007	-0.001585786	-0.001098407	-0.0476179	-0.03298292	0	0
33.12958	0.07129999	0.1598007	0	0	0.04801944	0.03326104	0	0
33.14609	0.07129999	0.1598007	0	0	0	0	0	0
33.16261	0.0712738	0.1597826	-0.001585053	-0.0010979	-0.04799171	-0.03324184	0	0
33.17916	0.07124762	0.1597645	-0.001581037	-0.001095118	0.0001214262	8.410899E-05	0	0
33.19573	0.07122143	0.1597463	-0.001580759	-0.001094613	8.402525E-06	1.522365E-05	0	0
33.27856	0.0708025	0.1594562	-0.005057581	-0.003502565	-0.03497824	-0.02422496	0	0
33.29513	0.07075013	0.1594199	-0.003161067	-0.002189227	0.01907969	0.01321271	0	0
33.31171	0.07069777	0.1593837	-0.003159163	-0.002188219	5.746634E-05	3.040517E-05	0	0
33.32826	0.07069777	0.1593837	0	0	0.0953547	0.06604819	0	0
33.34523	0.07069777	0.1593837	0	0	0	0	0	0
33.3614	0.07069777	0.1593837	0	0	0	0	0	0
33.37796	0.07069777	0.1593837	0	0	0	0	0	0
33.39453	0.07069777	0.1593837	0	0	0	0	0	0
33.41128	0.07069777	0.1593837	0	0	0	0	0	0
33.44424	0.07069777	0.1593837	0	0	0	0	0	0
33.47736	0.07069777	0.1593837	0	0	0	0	0	0
33.49758	0.07069777	0.1593837	0	0	0	0	0	0
33.51414	0.07069777	0.1593837	0	0	0	0	0	0
33.53071	0.07069777	0.1593837	0	0	0	0	0	0
33.54728	0.07069777	0.1593837	0	0	0	0	0	0
33.56385	0.07069777	0.1593837	0	0	0	0	0	0
33.58041	0.07069777	0.1593837	0	0	0	0	0	0
33.59698	0.07069777	0.1593837	0	0	0	0	0	0
33.61355	0.07072395	0.1593655	0.001580309	-0.001094613	0.04769382	-0.0330355	0	0
33.63012	0.07072395	0.1593655	0	0	-0.04769382	0.0330355	0	0
33.64668	0.07072395	0.1593655	0	0	0	0	0	0
33.66325	0.07072395	0.1593655	0	0	0	0	0	0
33.67982	0.07072395	0.1593655	0	0	0	0	0	0
33.69638	0.07072395	0.1593655	0	0	0	0	0	0
33.71302	0.07072395	0.1593655	0	0	0	0	0	0
33.72952	0.07072395	0.1593655	0	0	0	0	0	0
33.74652	0.07072395	0.1593655	0	0	0	0	0	0
33.76304	0.07072395	0.1593655	0	0	0	0	0	0
33.77922	0.07072395	0.1593655	0	0	0	0	0	0
33.79578	0.07072395	0.1593655	0	0	0	0	0	0
33.81257	0.07072395	0.1593655	0	0	0	0	0	0
33.82891	0.07072395	0.1593655	0	0	0	0	0	0
33.84559	0.07072395	0.1593655	0	0	0	0	0	0
33.87863	0.07072395	0.1593655	0	0	0	0	0	0
33.89518	0.07072395	0.1593655	0	0	0	0	0	0
33.91175	0.07072395	0.1593655	0	0	0	0	0	0
33.92833	0.07072395	0.1593655	0	0	0	0	0	0
33.94516	0.07072395	0.1593655	0	0	0	0	0	0
33.96145	0.07072395	0.1593655	0	0	0	0	0	0
33.97818	0.07072395	0.1593655	0	0	0	0	0	0
34.0112	0.07072395	0.1593655	0	0	0	0	0	0
34.02771	0.07072395	0.1593655	0	0	0	0	0	0
34.04428	0.07072395	0.1593655	0	0	0	0	0	0
34.06084	0.07072395	0.1593655	0	0	0	0	0	0
34.07741	0.07072395	0.1593655	0	0	0	0	0	0
34.09398	0.07072395	0.1593655	0	0	0	0	0	0
34.11055	0.07072395	0.1593655	0	0	0	0	0	0
34.12728	0.07072395	0.1593655	0	0	0	0	0	0
34.14368	0.07072395	0.1593655	0	0	0	0	0	0
34.16031	0.07075013	0.1593474	0.001574508	-0.001090596	0.04767793	-0.0330245	0	0
34.17682	0.07075013	0.1593474	0	0	-0.04751328	0.03291045	0	0
34.19337	0.07075013	0.1593474	0	0	0	0	0	0
34.20994	0.07075013	0.1593474	0	0	0	0	0	0
34.22651	0.07077632	0.1593293	0.001581123	-0.001094866	0.04772387	-0.03304692	0	0
34.24307	0.0708025	0.1593111	0.001580309	-0.001094613	-2.456516E-05	7.610947E-06	0	0
34.25987	0.0708025	0.1593111	0	0	-0.04736662	0.03280887	0	0
34.2762	0.0708025	0.1593111	0	0	0	0	0	0
34.34247	0.07082869	0.159293	0.0003951897	-0.0002736534	0.004784178	-0.003312856	0	0
34.35904	0.07085487	0.1592749	0.001580309	-0.001094613	0.01430679	-0.00991065	0	0
34.37595	0.07088105	0.1592567	0.001547876	-0.001072148	-0.0009686801	0.000670966	0	0
34.39602	0.07088105	0.1592567	0	0	-0.04185747	0.02899291	0	0
34.41259	0.07090724	0.1592386	0.001580759	-0.001094613	0.04315176	-0.02988091	0	0
34.42915	0.07090724	0.1592386	0	0	-0.04770739	0.0330355	0	0
34.446	0.07090724	0.1592386	0	0	0	0	0	0
34.47886	0.07093342	0.1592205	0.000796944	-0.0005520096	0.01603454	-0.01110645	0	0
34.49542	0.07093342	0.1592205	0	0	-0.01612614	0.0111699	0	0
34.51205	0.07093342	0.1592205	0	0	0	0	0	0
34.52856	0.07093342	0.1591842	0	-0.002196814	0	-0.06628473	0	0
34.54512	0.07095961	0.1591661	0.001581401	-0.00109537	0.04782589	0.03331068	0	0
34.56169	0.07101198	0.1591298	0.003161067	-0.002189227	0.04769089	-0.03302407	0	0
34.57825	0.07103816	0.1591116	0.001580309	-0.001094613	-0.04770739	0.0330355	0	0
34.59482	0.07103816	0.1591116	0	0	-0.04769382	0.0330355	0	0
34.61139	0.07106434	0.1590935	0.001580309	-0.001094613	0.04769382	-0.0330355	0	0
34.62796	0.07103816	0.1590754	-0.001580309	-0.001094613	-0.09538763	0	0	0
34.64452	0.0704621	0.1586038	-0.03477084	-0.02846175	-1.001692	-0.8259418	0	0
34.66109	0.06606162	0.1555561	-0.2656133	-0.1839625	-6.96684	-4.693023	0	0
34.67767	0.05644	0.1488927	-0.5803617	-0.4019249	-9.495846	-6.575847	0	0
34.69422	0.04846203	0.1434036	-0.4819951	-0.3316261	2.969051	2.121866	0	0
34.71079	0.02541558	0.1275051	-1.391086	-0.9596378	-27.44907	-18.96216	0	0
34.72736	0.01063118	0.1172811	-0.8923882	-0.6171232	15.05074	10.33711	0	0
34.74392	0.0001578947	0.1100385	-0.6321687	-0.4371641	7.85344	5.431177	0	0
34.76073	-0.02218057	0.09458356	-1.329073	-0.9195225	-20.88116	-14.45278	0	0
34.77706	-0.04005751	0.0820784	-1.094937	-0.7659239	7.066227	4.635613	0	0
34.79362	-0.06485628	0.06467601	-1.496857	-1.05041	-12.21858	-8.648543	0	0
34.81027	-0.08362034	0.05139435	-1.127409	-0.7980075	11.12433	7.60003	0	0
34.82678	-0.1069066	0.0348257	-1.410435	-1.003552	-8.536819	-6.199763	0	0
34.84332	-0.1217631	0.02418726	-0.8979763	-0.6430259	15.50352	10.90706	0	0
34.85989	-0.1341629	0.01529766	-0.7484547	-0.5365779	4.51569	3.214828	0	0
34.87646	-0.1406958	0.01059105	-0.3943271	-0.2840914	10.68759	7.620056	0	0
34.90959	-0.1547784	0.0004620552	-0.4250131	-0.3056936	-0.6174046	-0.4346362	0	0
34.92616	-0.1548554	0.0005185162	-0.004651882	0.003407989	8.457685	6.219136	0	0
34.94273	-0.1548811	0.0005373363	-0.001550627	0.001135984	0.09359606	-0.06856924	0	0
34.95929	-0.1548811	0.0005373363	0	0	0.04679803	-0.03428406	0	0
34.97588	-0.1548811	0.0005373363	0	0	0	0	0	0
34.99242	-0.1548811	0.0005373363	0	0	0	0	0	0
35.00899	-0.1548811	0.0005373363	0	0	0	0	0	0
35.02556	-0.1548554	0.0005185162	0.001550627	-0.001135984	0.04679803	-0.03428406	0	0
35.04213	-0.1548554	0.0005185162	0	0	-0.04679803	0.03428406	0	0
35.05894	-0.1548298	0.0004996959	0.001527415	-0.001118986	0.04574986	-0.03351639	0	0
35.07545	-0.1548298	0.0004996959	0	0	-0.04582841	0.03357393	0	0
35.09183	-0.1548041	0.0004808757	0.001569053	-0.001149493	0.04771668	-0.03495739	0	0
35.10848	-0.1548041	0.0004808757	0	0	-0.04751274	0.03480798	0	0
35.20779	-0.1547527	0.0004432347	0.0005173325	-0.0003790032	0.004461039	-0.003268204	0	0
35.22436	-0.1547527	0.0004432347	0	0	-0.00446427	0.003270571	0	0
35.24107	-0.1547527	0.0004432347	0	0	0	0	0	0
35.2575	-0.1547527	0.0004432347	0	0	0	0	0	0
35.2741	-0.1547527	0.0004432347	0	0	0	0	0	0
35.29063	-0.1547527	0.0004432347	0	0	0	0	0	0
35.30719	-0.1547527	0.0004432347	0	0	0	0	0	0
35.32376	-0.1547527	0.0004432347	0	0	0	0	0	0
35.34033	-0.1547527	0.0004432347	0	0	0	0	0	0
35.3569	-0.1547527	0.0004432347	0	0	0	0	0	0
35.37346	-0.1547527	0.0004432347	0	0	0	0	0	0
35.39933	-0.1547527	0.0004432347	0	0	0	0	0	0
35.41589	-0.1547527	0.0004432347	0	0	0	0	0	0
35.43246	-0.1547527	0.0004432347	0	0	0	0	0	0
35.44922	-0.1547527	0.0004432347	0	0	0	0	0	0
35.48225	-0.154727	0.0004244141	0.0007779109	-0.0005699106	0.01562521	-0.01144729	0	0
35.49873	-0.154727	0.0004244141	0	0	-0.0157131	0.01151168	0	0
35.5153	-0.154727	0.0004244141	0	0	0	0	0	0
35.53186	-0.1547013	0.0004055933	0.001550627	-0.001136023	0.04679803	-0.03428523	0	0
35.54843	-0.1547013	0.0004055933	0	0	-0.04679803	0.03428523	0	0
35.565	-0.1547013	0.0004055933	0	0	0	0	0	0
35.58157	-0.1547013	0.0004055933	0	0	0	0	0	0
35.59833	-0.1547013	0.0004055933	0	0	0	0	0	0
35.6147	-0.1547527	0.0004432347	-0.003138837	0.002299572	-0.0947303	0.06940121	0	0
35.63127	-0.1548041	0.0005185162	-0.003101255	0.004543997	0.001141069	0.06814486	0	0
35.64783	-0.1550096	0.000669074	-0.01240502	0.009087689	-0.2807882	0.1371289	0	0
35.6644	-0.1554206	0.001007804	-0.02480734	0.02044581	-0.3743028	0.3427887	0	0
35.68097	-0.1560626	0.001591093	-0.03875579	0.03520736	-0.4209651	0.4455047	0	0
35.69754	-0.15691	0.00262571	-0.05114462	0.06244959	-0.3738956	0.822172	0	0
35.7141	-0.1641926	0.008601462	-0.4395813	0.3606971	-11.72304	9.001128	0	0
35.73067	-0.1712533	0.01535387	-0.426186	0.4075763	0.4042712	1.414815	0	0
35.74724	-0.1749559	0.0238695	-0.2234882	0.5140041	6.117431	3.211999	0	0
35.76395	-0.1712278	0.03655851	0.223028	0.7590939	13.41565	7.363762	0	0
35.78037	-0.159861	0.04779296	0.6923175	0.6842572	14.16319	-2.258577	0	0
35.79694	-0.1421144	0.05995749	1.071186	0.7342527	11.48584	1.515672	0	0
35.83007	-0.08301927	0.0896409	1.783495	0.895847	14.33169	3.251284	0	0
35.84664	-0.0395583	0.100548	2.62331	0.658352	16.8971	-4.77841	0	0
35.86321	0.003815771	0.1091416	2.618064	0.5187096	-0.1583151	-4.214415	0	0
35.87978	0.0243373	0.112838	1.238682	0.2231208	-41.62983	-8.920887	0	0
35.89655	0.05966594	0.1201313	2.105773	0.4347164	26.00421	6.345787	0	0
35.91291	0.08001302	0.1254072	1.243905	0.3225398	-26.01122	-3.385496	0	0
35.92948	0.09528948	0.129985	0.922089	0.2763157	-9.774329	-1.403937	0	0
35.94604	0.1073229	0.1347591	0.7263372	0.2881657	-5.907803	0.3576355	0	0
35.96261	0.1097935	0.1356515	0.1491287	0.05386541	-17.42019	-7.071198	0	0
35.97918	0.1133541	0.1368715	0.2149162	0.07363681	1.985469	0.596702	0	0
35.99613	0.1133281	0.1368169	-0.001532871	-0.003222239	-6.458094	-2.29321	0	0
36.01231	0.1133801	0.1367804	0.003210251	-0.002250029	0.1431477	0.02934133	0	0
36.02915	0.1133801	0.1367804	0	0	-0.09721012	0.0681335	0	0
36.04544	0.1133801	0.1367804	0	0	0	0	0	0
36.06201	0.1133541	0.1367622	-0.001568166	-0.001099111	-0.04772294	-0.03344848	0	0
36.07869	0.1133281	0.136744	-0.001558121	-0.001091176	0.000302199	0.0002386913	0	0
36.09515	0.1132762	0.1367076	-0.003156232	-0.002212486	-0.04823109	-0.03384118	0	0
36.11171	0.1132242	0.1366712	-0.003136333	-0.002198221	0.0006024984	0.0004318918	0	0
36.12828	0.1131463	0.136653	-0.004704499	-0.001099111	-0.04732735	0.03317122	0	0
