Time	Pos X	Pos Y	Vel X	Vel Y	Acc X	Acc YForce X	Force Y
0.01656752	0.006552538	0.2333002	-0.0001083913	-0.003859225	1.793488E-06	6.385634E-05	0	0
0.05106054	0.006552538	0.2333002	0	0	-1.79402E-06	-6.387529E-05	0	0
0.1504617	0.006526223	0.2333182	-0.0002647351	0.0001806407	-0.001977196	0.00134913	0	0
0.1670908	0.006526223	0.2333182	0	0	0.002281603	-0.00155684	0	0
0.1836027	0.006526223	0.2333182	0	0	0	0	0	0
0.2001615	0.006526223	0.2333182	0	0	0	0	0	0
0.2167291	0.006526223	0.2333182	0	0	0	0	0	0
0.233295	0.006526223	0.2333182	0	0	0	0	0	0
0.2498613	0.006526223	0.2333182	0	0	0	0	0	0
0.2666594	0.006526223	0.2333182	0	0	0	0	0	0
0.2829948	0.006552538	0.2333002	0.001610918	-0.001099202	0.04861906	-0.03317498	0	0
0.2996827	0.006552538	0.2333002	0	0	-0.04878121	0.03328562	0	0
0.3327076	0.006552538	0.2333002	0	0	0	0	0	0
0.349261	0.006552538	0.2333002	0	0	0	0	0	0
0.3662315	0.006552538	0.2333002	0	0	0	0	0	0
0.3823948	0.006526223	0.2332823	-0.001628071	-0.001110906	-0.04913617	-0.03352782	0	0
0.3989612	0.006526223	0.2332823	0	0	0.04974304	0.03394192	0	0
0.4155279	0.006526223	0.2332823	0	0	0	0	0	0
0.4322766	0.006526223	0.2332823	0	0	0	0	0	0
0.448661	0.006526223	0.2332823	0	0	0	0	0	0
0.4652277	0.006526223	0.2332823	0	0	0	0	0	0
0.481813	0.006526223	0.2332823	0	0	0	0	0	0
0.4983616	0.006526223	0.2332823	0	0	0	0	0	0
0.5149279	0.006526223	0.2332823	0	0	0	0	0	0
0.5314947	0.006526223	0.2332823	0	0	0	0	0	0
0.5480614	0.006526223	0.2332823	0	0	0	0	0	0
0.564629	0.006526223	0.2332823	0	0	0	0	0	0
0.5811977	0.006526223	0.2332823	0	0	0	0	0	0
0.5977885	0.006526223	0.2332823	0	0	0	0	0	0
0.6143304	0.006526223	0.2332823	0	0	0	0	0	0
0.6308979	0.006526223	0.2332823	0	0	0	0	0	0
0.6474638	0.006526223	0.2332823	0	0	0	0	0	0
0.6640301	0.006526223	0.2332823	0	0	0	0	0	0
0.6809581	0.006526223	0.2332823	0	0	0	0	0	0
0.7015505	0.006526223	0.2332823	0	0	0	0	0	0
0.7181188	0.006526223	0.2332823	0	0	0	0	0	0
0.7349951	0.006526223	0.2332823	0	0	0	0	0	0
0.7512535	0.006526223	0.2332823	0	0	0	0	0	0
0.7678206	0.006526223	0.2332823	0	0	0	0	0	0
0.7843877	0.006526223	0.2332823	0	0	0	0	0	0
0.8010413	0.006526223	0.2332823	0	0	0	0	0	0
0.8175551	0.006526223	0.2332823	0	0	0	0	0	0
0.9169185	0.006499908	0.2332643	-0.0002648313	-0.0001807095	-0.002285449	-0.001559492	0	0
0.9334848	0.006499908	0.2332643	0	0	0.002284414	0.001558786	0	0
0.9501498	0.006526223	0.2332464	0.001579025	-0.001077459	0.04751609	-0.03242294	0	0
0.9666566	0.006526223	0.2332464	0	0	-0.04760147	0.0324812	0	0
0.9831878	0.006526223	0.2332464	0	0	0	0	0	0
0.9997514	0.006526223	0.2332464	0	0	0	0	0	0
1.01632	0.006526223	0.2332464	0	0	0	0	0	0
1.032887	0.006526223	0.2332464	0	0	0	0	0	0
1.049454	0.006526223	0.2332464	0	0	0	0	0	0
1.066226	0.006526223	0.2332464	0	0	0	0	0	0
1.082585	0.006526223	0.2332464	0	0	0	0	0	0
1.099152	0.006526223	0.2332464	0	0	0	0	0	0
1.115761	0.006526223	0.2332464	0	0	0	0	0	0
1.132285	0.006526223	0.2332464	0	0	0	0	0	0
1.148852	0.006526223	0.2332464	0	0	0	0	0	0
1.165418	0.006526223	0.2332464	0	0	0	0	0	0
1.181985	0.006526223	0.2332464	0	0	0	0	0	0
1.231847	0.006552538	0.2332284	0.0005277548	-0.0003601108	0.007944699	-0.005421026	0	0
1.264866	0.006552538	0.2332284	0	0	-0.006367641	0.004344928	0	0
1.281385	0.006552538	0.2332284	0	0	0	0	0	0
1.297952	0.006552538	0.2332284	0	0	0	0	0	0
1.314518	0.006552538	0.2332284	0	0	0	0	0	0
1.331413	0.006552538	0.2332284	0	0	0	0	0	0
1.347925	0.006552538	0.2332284	0	0	0	0	0	0
1.364219	0.006526223	0.2332105	-0.00161501	-0.001101994	-0.04922995	-0.03359182	0	0
1.380785	0.006526223	0.2332105	0	0	0.04914762	0.03353564	0	0
1.39746	0.006526223	0.2332105	0	0	0	0	0	0
1.413973	0.006526223	0.2332105	0	0	0	0	0	0
1.430485	0.006526223	0.2332105	0	0	0	0	0	0
1.447497	0.006552538	0.2331925	0.001546913	-0.001055529	0.04614456	-0.03148651	0	0
1.463619	0.006552538	0.2331925	0	0	-0.04668678	0.03185649	0	0
1.480185	0.006552538	0.2331925	0	0	0	0	0	0
1.496753	0.006552538	0.2331925	0	0	0	0	0	0
1.513319	0.006552538	0.2331925	0	0	0	0	0	0
1.530053	0.006552538	0.2331925	0	0	0	0	0	0
1.546565	0.006552538	0.2331925	0	0	0	0	0	0
1.579589	0.006552538	0.2331925	0	0	0	0	0	0
1.596152	0.006552538	0.2331925	0	0	0	0	0	0
1.612719	0.006552538	0.2331925	0	0	0	0	0	0
1.629625	0.006552538	0.2331925	0	0	0	0	0	0
1.649675	0.006552538	0.2331925	0	0	0	0	0	0
1.666243	0.006552538	0.2331925	0	0	0	0	0	0
1.68281	0.006552538	0.2331925	0	0	0	0	0	0
1.699377	0.006552538	0.2331925	0	0	0	0	0	0
1.715943	0.006552538	0.2331925	0	0	0	0	0	0
1.732696	0.006552538	0.2331925	0	0	0	0	0	0
1.749077	0.006552538	0.2331925	0	0	0	0	0	0
1.765643	0.006552538	0.2331925	0	0	0	0	0	0
1.782231	0.006578852	0.2331745	0.001586396	-0.001082488	0.04784928	-0.0326503	0	0
1.798777	0.006578852	0.2331745	0	0	-0.04787837	0.03267015	0	0
1.815343	0.006578852	0.2331745	0	0	0	0	0	0
1.83191	0.006578852	0.2331745	0	0	0	0	0	0
1.848477	0.006578852	0.2331745	0	0	0	0	0	0
1.865291	0.006578852	0.2331745	0	0	0	0	0	0
1.88161	0.006578852	0.2331745	0	0	0	0	0	0
1.898177	0.006578852	0.2331745	0	0	0	0	0	0
1.914744	0.006578852	0.2331745	0	0	0	0	0	0
1.931338	0.006578852	0.2331745	0	0	0	0	0	0
1.947877	0.006578852	0.2331745	0	0	0	0	0	0
1.964443	0.006578852	0.2331745	0	0	0	0	0	0
1.98101	0.006552538	0.2331566	-0.001588393	-0.001083851	-0.04793918	-0.03271164	0	0
1.997884	0.006552538	0.2331566	0	0	0.04749896	0.03241125	0	0
2.014144	0.006578852	0.2331386	0.001618368	-0.001104305	0.0488435	-0.03332871	0	0
2.030711	0.006578852	0.2331386	0	0	-0.04930042	0.03364049	0	0
2.047277	0.006578852	0.2331386	0	0	0	0	0	0
2.063932	0.006578852	0.2331386	0	0	0	0	0	0
2.080443	0.006578852	0.2331386	0	0	0	0	0	0
2.1635	0.006552538	0.2331566	-0.0003168251	0.0002161879	-0.003181986	0.002171251	0	0
2.17981	0.006578852	0.2331745	0.001613424	0.001100931	0.01942552	0.008903825	0	0
2.213037	0.006578852	0.2331745	0	0	-0.03257043	-0.02222466	0	0
2.22955	0.006578852	0.2331745	0	0	0	0	0	0
2.246077	0.006578852	0.2331745	0	0	0	0	0	0
2.262644	0.006578852	0.2331745	0	0	0	0	0	0
2.27921	0.006578852	0.2331745	0	0	0	0	0	0
2.295777	0.006552538	0.2331925	-0.001588347	0.00108382	-0.0479378	0.0327107	0	0
2.312612	0.006552538	0.2331925	0	0	0.04755251	-0.0324478	0	0
2.32891	0.006552538	0.2331925	0	0	0	0	0	0
2.345477	0.006552538	0.2331925	0	0	0	0	0	0
2.362142	0.006552538	0.2331925	0	0	0	0	0	0
2.378611	0.006552538	0.2331925	0	0	0	0	0	0
2.395177	0.006552538	0.2331925	0	0	0	0	0	0
2.411744	0.006552538	0.2331925	0	0	0	0	0	0
2.42831	0.006552538	0.2331925	0	0	0	0	0	0
2.445201	0.006552538	0.2331925	0	0	0	0	0	0
2.461444	0.006552538	0.2331925	0	0	0	0	0	0
2.497958	0.006552538	0.2331925	0	0	0	0	0	0
2.514525	0.006552538	0.2331925	0	0	0	0	0	0
2.53109	0.006552538	0.2331925	0	0	0	0	0	0
2.547774	0.006552538	0.2331925	0	0	0	0	0	0
2.564286	0.006552538	0.2331925	0	0	0	0	0	0
2.580797	0.006552538	0.2331925	0	0	0	0	0	0
2.597356	0.006552538	0.2331925	0	0	0	0	0	0
2.613923	0.006552538	0.2331925	0	0	0	0	0	0
2.63049	0.006552538	0.2331925	0	0	0	0	0	0
2.647057	0.006552538	0.2331925	0	0	0	0	0	0
2.663624	0.006552538	0.2331925	0	0	0	0	0	0
2.68019	0.006552538	0.2331925	0	0	0	0	0	0
2.696879	0.006552538	0.2331925	0	0	0	0	0	0
2.71339	0.006473594	0.2332464	-0.00478131	0.003262541	-0.1440163	0.09826995	0	0
2.729901	0.006210446	0.2334259	-0.01593775	0.01087424	-0.3378493	0.2305042	0	0
2.746457	0.005447315	0.2339466	-0.0460939	0.03145026	-0.9119717	0.6222528	0	0
2.763023	0.004736807	0.2344314	-0.04288881	0.02926123	0.09676545	-0.06608922	0	0
2.77959	-0.0001315789	0.2377522	-0.2938648	0.2004496	-7.574798	5.166697	0	0
2.796156	-0.01189418	0.2457716	-0.7100326	0.4840809	-12.56051	8.56038	0	0
2.812723	-0.02367978	0.2538031	-0.7114012	0.4848	-0.04130388	0.02170343	0	0
2.829472	-0.03708825	0.2629398	-0.8005463	0.5454993	-2.675755	1.821933	0	0
2.845857	-0.05111334	0.2724998	-0.8559796	0.5834655	-1.673002	1.145838	0	0
2.862494	-0.0558104	0.275703	-0.2823129	0.1925244	17.37192	-11.83858	0	0
2.929042	-0.11538	0.3163333	-0.8951454	0.6105479	-7.367086	5.025215	0	0
2.945555	-0.1232925	0.3217809	-0.4791584	0.3298905	5.008226	-3.378942	0	0
2.961823	-0.1311637	0.3272101	-0.4838572	0.3337449	-0.14334	0.1175814	0	0
2.97839	-0.1388378	0.332514	-0.4632264	0.320149	0.6283311	-0.4140756	0	0
2.995089	-0.1458774	0.337389	-0.4215368	0.2919236	1.253198	-0.8484618	0	0
3.011523	-0.1552408	0.3438891	-0.5697492	0.395519	-4.473122	3.12656	0	0
3.044657	-0.1655242	0.35105	-0.3103673	0.2161267	5.232931	-3.619173	0	0
3.061223	-0.1688505	0.3533716	-0.2007824	0.1401361	2.204939	-1.528991	0	0
3.07779	-0.1715855	0.3552825	-0.1650938	0.1153503	1.07713	-0.7480704	0	0
3.094356	-0.1720453	0.355604	-0.02775649	0.01940319	4.145026	-2.895814	0	0
3.110923	-0.1720453	0.355604	0	0	0.8377287	-0.5856147	0	0
3.12749	-0.1720453	0.355604	0	0	0	0	0	0
3.144056	-0.1720453	0.355604	0	0	0	0	0	0
3.160623	-0.1720964	0.3555683	-0.003084343	-0.002155172	-0.09309102	-0.06504697	0	0
3.177217	-0.1721986	0.3554968	-0.006157242	-0.004304771	-0.09266625	-0.06482325	0	0
3.193756	-0.1728116	0.3550682	-0.0370623	-0.02591613	-0.93275	-0.6522556	0	0
3.210323	-0.1763081	0.3526215	-0.211056	-0.1476862	-5.255754	-3.678258	0	0
3.226891	-0.1836187	0.3474962	-0.4412323	-0.3093361	-6.946535	-4.878461	0	0
3.243456	-0.1937999	0.3402998	-0.6146253	-0.4344433	-5.233162	-3.775851	0	0
3.260023	-0.2007334	0.3353712	-0.4185205	-0.2974988	5.918968	4.13335	0	0
3.276589	-0.209184	0.3292817	-0.5101066	-0.3675828	-2.764195	-2.115233	0	0
3.293299	-0.2132849	0.3262636	-0.2454146	-0.1806148	7.954366	5.61865	0	0
3.309811	-0.2186829	0.3220667	-0.3269119	-0.2541729	-2.453097	-2.214123	0	0
3.326289	-0.2259684	0.3145114	-0.4421419	-0.4585136	-3.492878	-6.194024	0	0
3.342856	-0.2298641	0.3064007	-0.2351508	-0.4895734	6.263996	-0.9399382	0	0
3.359422	-0.2335285	0.2933368	-0.2211984	-0.7885862	0.4211017	-9.024612	0	0
3.375989	-0.2361172	0.2841106	-0.1562572	-0.556909	1.960014	6.992335	0	0
3.392556	-0.2427235	0.276204	-0.3987701	-0.4772598	-7.319263	2.403885	0	0
3.458075	-0.2531845	0.2674878	-0.1596628	-0.1330315	2.912884	4.193503	0	0
3.477545	-0.254442	0.2665389	-0.06458476	-0.04873475	1.118703	0.9918486	0	0
3.494113	-0.254442	0.2665389	0	0	1.792145	1.352328	0	0
3.527246	-0.254442	0.2665031	0	-0.001081169	0	-0.02175368	0	0
3.543813	-0.254442	0.2665031	0	0	0	0.02175399	0	0
3.560379	-0.2542695	0.266342	0.01041577	-0.00972498	0.3143575	-0.2935089	0	0
3.577	-0.2538503	0.2658586	0.02521661	-0.02908616	0.4459811	-0.5833938	0	0
3.593515	-0.2547378	0.2628502	-0.05373435	-0.1821594	-2.382676	-4.619627	0	0
3.61008	-0.2587998	0.2575661	-0.2452215	-0.3189967	-5.788632	-4.136573	0	0
3.626646	-0.2639081	0.2534089	-0.3083427	-0.2509373	-1.905166	2.054214	0	0
3.643214	-0.2678034	0.2505589	-0.2351233	-0.1720243	2.209796	2.381632	0	0
3.659782	-0.269369	0.2494116	-0.09449377	-0.06924789	4.244025	3.101665	0	0
3.676346	-0.2694179	0.2493757	-0.002950744	-0.002164479	2.762933	2.024698	0	0
3.693081	-0.2694179	0.2493757	0	0	0.08861305	0.06500091	0	0
3.709596	-0.2694179	0.2493757	0	0	0	0	0	0
3.726046	-0.2694179	0.2493757	0	0	0	0	0	0
3.742614	-0.2694179	0.2493757	0	0	0	0	0	0
3.75918	-0.2694424	0.2493936	-0.001477023	0.00108213	-0.04457727	0.03265923	0	0
3.775746	-0.2694424	0.2493936	0	0	0.04458048	-0.03266158	0	0
3.792313	-0.2694424	0.2493936	0	0	0	0	0	0
3.80888	-0.2694424	0.2493936	0	0	0	0	0	0
3.825446	-0.2694668	0.2494116	-0.00147516	0.001082084	-0.04452169	0.03265829	0	0
3.891721	-0.2694668	0.2494116	0	0	0.01780704	-0.01306211	0	0
3.90828	-0.2694668	0.2494116	0	0	0	0	0	0
3.925246	-0.2694668	0.2494116	0	0	0	0	0	0
3.941413	-0.2694668	0.2494116	0	0	0	0	0	0
3.958271	-0.2694668	0.2494116	0	0	0	0	0	0
3.974546	-0.2694668	0.2494116	0	0	0	0	0	0
3.991297	-0.2694424	0.2494295	0.001458929	0.001070178	0.0441752	0.03240413	0	0
4.007806	-0.2694424	0.2494295	0	0	-0.04386424	-0.03217603	0	0
4.024248	-0.2694424	0.2494295	0	0	0	0	0	0
4.040831	-0.2694424	0.2494295	0	0	0	0	0	0
4.057382	-0.2694424	0.2494295	0	0	0	0	0	0
4.073947	-0.2694179	0.2494116	0.001477044	-0.001082146	0.04460166	-0.0326771	0	0
4.090866	-0.2694179	0.2494116	0	0	-0.04411195	0.03231832	0	0
4.10708	-0.2693935	0.2493936	0.001507131	-0.001105536	0.04548662	-0.0333661	0	0
4.123648	-0.269369	0.2493757	0.001475032	-0.00108199	-0.0009791441	0.0007182422	0	0
4.140214	-0.2691734	0.2492323	0.01181027	-0.008657569	0.3119227	-0.2286347	0	0
4.156914	-0.2666283	0.2473676	0.152405	-0.1116643	4.22643	-3.096493	0	0
4.173347	-0.2603976	0.2428121	0.3791622	-0.2772202	6.844039	-4.996848	0	0
4.189914	-0.2487893	0.2343595	0.7006637	-0.5101813	9.742332	-7.059328	0	0
4.206481	-0.2421532	0.2295469	0.4005672	-0.2905028	-9.056931	6.629912	0	0
4.223047	-0.2308868	0.2214064	0.6800792	-0.4913865	8.436053	-6.062945	0	0
4.239616	-0.2143152	0.2094968	1.000174	-0.7188067	9.660328	-6.863456	0	0
4.256483	-0.1963073	0.196632	1.067665	-0.7627325	2.018558	-1.313754	0	0
4.272747	-0.1869491	0.1899748	0.5753956	-0.4093202	-14.85842	10.66723	0	0
4.289313	-0.1680321	0.1765692	1.141865	-0.8091873	17.25425	-12.17966	0	0
4.309716	-0.1486841	0.1629188	0.9483188	-0.6690569	-5.235335	3.790465	0	0
4.326283	-0.1287833	0.148929	1.201213	-0.8444246	6.84058	-4.743557	0	0
4.34285	-0.1138736	0.1384734	0.8999476	-0.6311036	-9.092199	6.438042	0	0
4.359553	-0.10407	0.1316072	0.5869333	-0.411071	-9.408204	6.613472	0	0
4.375984	-0.08547544	0.1186333	1.13172	-0.78963	16.44216	-11.42526	0	0
4.392586	-0.07247809	0.1095443	0.7828768	-0.5474651	-10.56063	7.331127	0	0
4.409117	-0.05657115	0.09845673	0.9622493	-0.6707131	5.413706	-3.71979	0	0
4.425683	-0.04552116	0.09076221	0.6669979	-0.4644551	-8.920588	6.231784	0	0
4.44225	-0.03553766	0.08380918	0.6026399	-0.4197099	-1.942414	1.350469	0	0
4.459123	-0.02357458	0.07549872	0.7090124	-0.4925335	3.181079	-2.177793	0	0
4.475383	-0.01841897	0.07191891	0.317061	-0.2201521	-11.82946	8.220723	0	0
4.49195	-0.007526174	0.0644171	0.6575094	-0.4528232	10.37087	-7.087717	0	0
4.508658	-0.003868402	0.06203062	0.2189185	-0.1428314	-13.18074	9.316023	0	0
4.525084	0.0031842	0.05762393	0.4293787	-0.2682893	6.351883	-3.786435	0	0
4.541681	0.007578802	0.05538168	0.264771	-0.1350938	-4.984654	4.033431	0	0
4.558217	0.0117363	0.0558636	0.2514249	0.02914379	-0.4027988	4.956842	0	0
4.574783	0.01326238	0.05704959	0.09211946	0.07159112	-4.812557	1.282318	0	0
4.59172	0.01847158	0.06067951	0.3075762	0.2143273	6.43105	4.260453	0	0
4.607918	0.02223318	0.06332579	0.2322168	0.1633643	-2.274319	-1.538044	0	0
4.624741	0.02541558	0.06556359	0.189177	0.1330258	-1.303407	-0.9187658	0	0
4.641052	0.03135814	0.06974	0.3643245	0.2560459	5.286114	3.712862	0	0
4.657764	0.03448632	0.07197429	0.1871799	0.1336925	-5.364223	-3.705055	0	0
4.690751	0.04405043	0.07876219	0.2899347	0.2057742	2.067529	1.450354	0	0
4.757017	0.07048829	0.09774108	0.3989653	0.2864044	1.09851	0.8123697	0	0
4.773585	0.07608966	0.10207	0.3380896	0.2612835	-0.7349142	-0.3032686	0	0
4.790153	0.07988228	0.1051674	0.2289099	0.18695	-3.294906	-2.243293	0	0
4.806717	0.08610238	0.1120148	0.375511	0.4133838	4.424684	6.834177	0	0
4.823284	0.08790446	0.1163124	0.10878	0.2594158	-8.050883	-4.647296	0	0
4.83985	0.09103714	0.1208436	0.1890943	0.2735133	2.423995	0.4254803	0	0
4.856417	0.08866169	0.1238195	-0.1433868	0.1796338	-10.03459	-2.833372	0	0
4.872984	0.08586729	0.1257721	-0.1686703	0.1178585	-0.763069	-1.864408	0	0
4.889928	0.08312381	0.1276875	-0.1619195	0.1130446	0.2014537	-0.143653	0	0
4.90644	0.0794639	0.1302402	-0.2216527	0.1545985	-1.785461	1.242071	0	0
4.922684	0.0794116	0.1302767	-0.003219758	0.002244658	6.668421	-4.651128	0	0
4.939251	0.07943775	0.1302584	0.001578555	-0.001100941	0.1462403	-0.1019653	0	0
4.955818	0.0794639	0.1302402	0.001578555	-0.001100042	0	2.714548E-05	0	0
4.972385	0.07943775	0.1302584	-0.00157851	0.00110001	-0.09528179	0.06639865	0	0
4.98895	0.07943775	0.1302584	0	0	0.04764227	-0.03320028	0	0
5.005518	0.0794116	0.1302767	-0.001578419	0.001100846	-0.04763816	0.03322456	0	0
5.022084	0.0794116	0.1302767	0	0	0.04763747	-0.03322408	0	0
5.038651	0.07938544	0.1302949	-0.001578601	0.001100073	-0.0476457	0.03320267	0	0
5.055218	0.07935929	0.1303131	-0.00157851	0.00110001	2.744061E-06	-1.911356E-06	0	0
5.072058	0.079307	0.1303496	-0.003105444	0.002165272	-0.04570673	0.03188719	0	0
5.08835	0.07907163	0.1305137	-0.01444608	0.01006973	-0.3422809	0.2385707	0	0
5.104917	0.07713612	0.1318624	-0.1168311	0.08141028	-3.115859	2.17109	0	0
5.121484	0.07077632	0.1362888	-0.3838783	0.2671828	-8.059617	5.606707	0	0
5.138103	0.06008548	0.1437491	-0.6433191	0.4489227	-7.817899	5.476488	0	0
5.154617	0.055207	0.1470939	-0.2954009	0.2025313	10.50064	-7.436429	0	0
5.171184	0.04586256	0.153596	-0.5640482	0.3924792	-8.120763	5.741812	0	0
5.18775	0.0390328	0.1583136	-0.4122687	0.2847733	4.580911	-3.250712	0	0
5.208687	0.02954403	0.1648577	-0.4532166	0.3125691	-1.091865	0.7411656	0	0
5.225256	0.02628342	0.167104	-0.1967884	0.1355672	6.83706	-4.719342	0	0
5.241823	0.0244688	0.1683535	-0.1095338	0.07542616	2.633237	-1.814981	0	0
5.258689	0.02349568	0.1689873	-0.05769504	0.03757298	1.550505	-1.132195	0	0
5.274954	0.02349568	0.1689873	0	0	1.74139	-1.134053	0	0
5.291712	0.02349568	0.1689873	0	0	0	0	0	0
5.308225	0.02349568	0.1689873	0	0	0	0	0	0
5.324736	0.02349568	0.1689873	0	0	0	0	0	0
5.341221	0.02349568	0.1689873	0	0	0	0	0	0
5.357788	0.02349568	0.1689873	0	0	0	0	0	0
5.374355	0.02346937	0.1689692	-0.001587662	-0.001092846	-0.04791644	-0.03298263	0	0
5.390922	0.02346937	0.1689692	0	0	0.04791713	0.03298311	0	0
5.407489	0.02341677	0.1690054	-0.003175121	0.002185629	-0.09582672	0.06596337	0	0
5.424055	0.02254881	0.1696029	-0.05239324	0.03606586	-1.485449	1.022537	0	0
5.440818	0.02178603	0.1701279	-0.04550469	0.03131934	0.2066834	-0.142414	0	0
5.457189	0.02178603	0.1701279	0	0	1.373374	-0.9452468	0	0
5.473755	0.02178603	0.1701279	0	0	0	0	0	0
5.573156	0.0215756	0.1702727	-0.002116977	0.001456978	-0.01825495	0.0125637	0	0
5.589726	0.0215756	0.1702727	0	0	0.01825443	-0.01256334	0	0
5.606289	0.0215756	0.1702727	0	0	0	0	0	0
5.622856	0.0215756	0.1702727	0	0	0	0	0	0
5.639422	0.0215756	0.1702727	0	0	0	0	0	0
5.65599	0.0215756	0.1702727	0	0	0	0	0	0
5.672556	0.0215756	0.1702727	0	0	0	0	0	0
5.722256	0.0215756	0.1702727	0	0	0	0	0	0
5.738822	0.0215756	0.1702727	0	0	0	0	0	0
5.755389	0.0215756	0.1702727	0	0	0	0	0	0
5.771955	0.0216019	0.1702546	0.001587821	-0.001092877	0.0479219	-0.03298406	0	0
5.788522	0.0216019	0.1702546	0	0	-0.04792259	0.03298453	0	0
5.805089	0.0216019	0.1702546	0	0	0	0	0	0
5.82209	0.02162821	0.1702365	0.001547249	-0.001064952	0.04609375	-0.03172577	0	0
5.838222	0.0216019	0.1702184	-0.001630577	-0.001122306	-0.09591251	-0.001731046	0	0
5.854789	0.0216019	0.1702184	0	0	0.04986611	0.03432224	0	0
5.871356	0.0216019	0.1702184	0	0	0	0	0	0
5.887921	0.02162821	0.1702003	0.001587866	-0.001092909	0.04792466	-0.03298596	0	0
5.904488	0.02162821	0.1702003	0	0	-0.04792466	0.03298596	0	0
5.921055	0.0216019	0.1701822	-0.001587775	-0.001091947	-0.04792052	-0.03295596	0	0
5.937622	0.02162821	0.1701641	0.001587775	-0.001092846	0.09584104	-2.714548E-05	0	0
5.954188	0.02162821	0.1701279	0	-0.002185692	-0.04792052	-0.03298311	0	0
5.970755	0.0215756	0.1700916	-0.00317555	-0.002185692	-0.09584104	0	0	0
5.987322	0.0215756	0.1700916	0	0	0.09584104	0.06596622	0	0
6.003888	0.0215493	0.1700736	-0.001587708	-0.001091978	-0.0479192	-0.03295739	0	0
6.020728	0.0215493	0.1700373	0	-0.002150229	0.04752727	-0.03167824	0	0
6.037022	0.0215493	0.1700011	0	-0.002222344	0	-0.002176487	0	0
6.053588	0.02149669	0.1699649	-0.003175437	-0.002185692	-0.09663451	0.001115388	0	0
6.070262	0.02149669	0.1699287	0	-0.00217169	0.09552969	0.0004212275	0	0
6.086722	0.02149669	0.1699287	0	0	0	0.06554363	0	0
6.103288	0.02147038	0.1699106	-0.001587821	-0.001091978	-0.04807758	-0.03306397	0	0
6.119855	0.02147038	0.1699106	0	0	0.0479219	0.03295691	0	0
6.136422	0.02144408	0.1698925	-0.001587821	-0.001092877	-0.0479219	-0.03298406	0	0
6.152989	0.02144408	0.1698925	0	0	0.0479219	0.03298406	0	0
6.169555	0.02144408	0.1698925	0	0	0	0	0	0
6.186344	0.02144408	0.1698925	0	0	0	0	0	0
6.202688	0.02147038	0.1698744	0.001609408	-0.001107736	0.04857412	-0.03343297	0	0
6.219368	0.02144408	0.1698563	-0.001577062	-0.001085473	-0.0964914	0.0006741567	0	0
6.239109	0.02147038	0.1698382	0.001332433	-0.0009170974	0.0798855	0.004623051	0	0
6.255682	0.02144408	0.1698201	-0.001587227	-0.001092469	-0.08040036	-0.004829301	0	0
6.272244	0.02144408	0.1698201	0	0	0.04790122	0.03296982	0	0
6.288811	0.02144408	0.1698201	0	0	0	0	0	0
6.305376	0.02144408	0.1697839	0	-0.002185881	0	-0.06597571	0	0
6.431033	0.02144408	0.1697115	0	-0.0005763276	0	0.01131716	0	0
6.447423	0.02144408	0.1697115	0	0	0	0.004057304	0	0
6.46399	0.02144408	0.1697115	0	0	0	0	0	0
6.480556	0.02144408	0.1697115	0	0	0	0	0	0
6.497123	0.02141778	0.1696934	-0.001587662	-0.001091947	-0.04791713	-0.03295596	0	0
6.51369	0.02141778	0.1696572	0	-0.002185692	0.04791713	-0.03301026	0	0
6.530588	0.02139147	0.1696391	-0.001556636	-0.001071413	-0.04651546	0.03329693	0	0
6.546824	0.02139147	0.1696029	0	-0.002230307	0.04698072	-0.03497649	0	0
6.563613	0.02136517	0.1695848	-0.001566716	-0.001078351	-0.0474406	0.03488156	0	0
6.579957	0.02136517	0.1695485	0	-0.002215471	0.04728494	-0.03431934	0	0
6.596524	0.02136517	0.1695485	0	0	0	0.06731741	0	0
6.613091	0.02136517	0.1695485	0	0	0	0	0	0
6.629659	0.02136517	0.1695485	0	0	0	0	0	0
6.646224	0.02136517	0.1695485	0	0	0	0	0	0
6.66279	0.02136517	0.1695485	0	0	0	0	0	0
6.679694	0.02136517	0.1695123	0	-0.002142162	0	-0.06400307	0	0
6.695924	0.02136517	0.1695123	0	0	0	0.06465244	0	0
6.712491	0.02136517	0.1695123	0	0	0	0	0	0
6.729057	0.02136517	0.1695123	0	0	0	0	0	0
6.74574	0.02136517	0.1695123	0	0	0	0	0	0
6.778757	0.02136517	0.1695123	0	0	0	0	0	0
6.795324	0.02136517	0.1695123	0	0	0	0	0	0
6.811891	0.02136517	0.1695123	0	0	0	0	0	0
6.828457	0.02136517	0.1695123	0	0	0	0	0	0
6.84531	0.02136517	0.1695123	0	0	0	0	0	0
6.861823	0.02136517	0.1695123	0	0	0	0	0	0
6.878158	0.02136517	0.1695123	0	0	0	0	0	0
6.894848	0.02136517	0.1695123	0	0	0	0	0	0
6.911291	0.02136517	0.1695123	0	0	0	0	0	0
6.927857	0.02136517	0.1695123	0	0	0	0	0	0
6.944424	0.02136517	0.1695123	0	0	0	0	0	0
6.960991	0.02136517	0.1695123	0	0	0	0	0	0
6.977905	0.02136517	0.1695123	0	0	0	0	0	0
6.994124	0.02136517	0.1695123	0	0	0	0	0	0
7.010928	0.02136517	0.1695123	0	0	0	0	0	0
7.027257	0.02136517	0.1695123	0	0	0	0	0	0
7.093524	0.02136517	0.1695123	0	0	0	0	0	0
7.11009	0.02136517	0.1695123	0	0	0	0	0	0
7.127013	0.02136517	0.1695123	0	0	0	0	0	0
7.143224	0.02139147	0.1694942	0.001622616	-0.001116826	0.04897204	-0.03370686	0	0
7.160034	0.02139147	0.1694942	0	0	-0.04913823	0.03382124	0	0
7.178938	0.02139147	0.1694942	0	0	0	0	0	0
7.195559	0.02139147	0.1694942	0	0	0	0	0	0
7.212073	0.02139147	0.1694942	0	0	0	0	0	0
7.228641	0.02136517	0.1694761	-0.001587683	-0.001092783	-0.04799305	-0.03303303	0	0
7.261773	0.02139147	0.169458	0.0007939103	-0.0005464387	0.04791914	0.01099279	0	0
7.278618	0.02139147	0.169458	0	0	-0.01588527	0.01093363	0	0
7.294905	0.02139147	0.169458	0	0	0	0	0	0
7.311642	0.02139147	0.169458	0	0	0	0	0	0
7.328152	0.02139147	0.169458	0	0	0	0	0	0
7.344664	0.02139147	0.1694218	0	-0.002192951	0	-0.06640893	0	0
7.361173	0.02139147	0.1694218	0	0	0	0.06640989	0	0
7.377738	0.02139147	0.1694218	0	0	0	0	0	0
7.394306	0.02139147	0.1694218	0	0	0	0	0	0
7.410872	0.02141778	0.1694037	0.001587775	-0.001092846	0.04791983	-0.03298263	0	0
7.427439	0.02139147	0.1693856	-0.001587821	-0.001092877	-0.09584379	-9.486647E-07	0	0
7.444006	0.02141778	0.1693675	0.001587729	-0.001092815	0.09584104	1.897302E-06	0	0
7.460747	0.02141778	0.1693313	0	-0.002162969	-0.04766806	-0.03212901	0	0
7.477139	0.02139147	0.1693132	-0.001604679	-0.001104481	-0.04843141	0.03194659	0	0
7.49377	0.02139147	0.169277	0	-0.002177232	0.04859225	-0.03248461	0	0
7.510273	0.02136517	0.1692589	-0.001593968	-0.001097109	-0.04810745	0.03259912	0	0
7.526839	0.02139147	0.1692408	0.001587821	-0.001092877	0.09621767	0.0001279635	0	0
7.543804	0.02136517	0.1692227	-0.001550467	-0.001067167	-0.09359176	0.0007667406	0	0
7.560316	0.02133887	0.1692045	-0.001593048	-0.001096475	-0.001271936	-0.0008754594	0	0
7.576828	0.02133887	0.1691683	0	-0.002192887	0.04823864	-0.03320015	0	0
7.593107	0.02133887	0.1691683	0	0	0	0.06687537	0	0
7.609673	0.02133887	0.1691321	0	-0.002185818	0	-0.06655137	0	0
7.626239	0.02131256	0.169114	-0.001587662	-0.001092846	-0.04791851	0.03298785	0	0
7.642806	0.02128626	0.1690959	-0.001587775	-0.001092846	-3.390549E-06	0	0	0
7.659372	0.02128626	0.1690959	0	0	0.04792121	0.03298358	0	0
7.675939	0.02128626	0.1690597	0	-0.002185692	0	-0.06596716	0	0
7.692505	0.02128626	0.1690597	0	0	0	0.06596716	0	0
7.709421	0.02125995	0.1690416	-0.001555056	-0.001070326	-0.0464451	-0.0319676	0	0
7.725639	0.02123365	0.1690235	-0.001621852	-0.00111722	-0.002015939	-0.001415276	0	0
7.742445	0.02120735	0.1690054	-0.001565204	-0.001077311	0.00171534	0.001208471	0	0
7.758772	0.02123365	0.1689873	0.001611053	-0.001108868	0.09586377	-0.0009524348	0	0
7.82504	0.02120735	0.1689692	-0.000396938	-0.0002732076	-0.02431118	0.01011753	0	0
7.841606	0.02120735	0.1689692	0	0	0.004791983	0.003298263	0	0
7.858172	0.02120735	0.1689692	0	0	0	0	0	0
7.87504	0.02120735	0.1689692	0	0	0	0	0	0
7.891305	0.02120735	0.1689692	0	0	0	0	0	0
7.908063	0.02120735	0.1689692	0	0	0	0	0	0
7.924438	0.02120735	0.1689692	0	0	0	0	0	0
7.941005	0.02120735	0.1689692	0	0	0	0	0	0
7.957572	0.02120735	0.1689692	0	0	0	0	0	0
7.974139	0.02120735	0.1689692	0	0	0	0	0	0
7.990705	0.02120735	0.1689692	0	0	0	0	0	0
8.007631	0.02120735	0.1689692	0	0	0	0	0	0
8.024142	0.02120735	0.1689692	0	0	0	0	0	0
8.059308	0.02120735	0.1689692	0	0	0	0	0	0
8.075874	0.02120735	0.1689692	0	0	0	0	0	0
8.092441	0.02120735	0.1689692	0	0	0	0	0	0
8.109008	0.02120735	0.1689692	0	0	0	0	0	0
8.125575	0.02120735	0.1689692	0	0	0	0	0	0
8.142226	0.02120735	0.1689692	0	0	0	0	0	0
8.158739	0.02120735	0.1689692	0	0	0	0	0	0
8.175275	0.02120735	0.1689692	0	0	0	0	0	0
8.191841	0.02120735	0.1689692	0	0	0	0	0	0
8.208407	0.02120735	0.1689692	0	0	0	0	0	0
8.224974	0.02120735	0.1689692	0	0	0	0	0	0
8.24154	0.02118104	0.1689511	-0.001587708	-0.001092877	-0.04791988	-0.03298501	0	0
8.274673	0.02118104	0.1689511	0	0	0.03194598	0.02198958	0	0
8.29124	0.02118104	0.1689511	0	0	0	0	0	0
8.324373	0.02118104	0.1689511	0	0	0	0	0	0
8.34094	0.02118104	0.1689511	0	0	0	0	0	0
8.357507	0.02118104	0.1689511	0	0	0	0	0	0
8.37439	0.02118104	0.1689511	0	0	0	0	0	0
8.390901	0.02118104	0.1689511	0	0	0	0	0	0
8.407206	0.02118104	0.1689511	0	0	0	0	0	0
8.423772	0.02118104	0.1689511	0	0	0	0	0	0
8.440434	0.02118104	0.1689511	0	0	0	0	0	0
8.456907	0.02118104	0.1689511	0	0	0	0	0	0
8.473472	0.02118104	0.1689511	0	0	0	0	0	0
8.490038	0.02118104	0.1689511	0	0	0	0	0	0
8.506604	0.02118104	0.1689511	0	0	0	0	0	0
8.52317	0.02118104	0.1689511	0	0	0	0	0	0
8.540004	0.02118104	0.1689511	0	0	0	0	0	0
8.556305	0.02118104	0.1689511	0	0	0	0	0	0
8.573029	0.02118104	0.1689511	0	0	0	0	0	0
8.589439	0.02118104	0.1689511	0	0	0	0	0	0
8.606004	0.02118104	0.1689511	0	0	0	0	0	0
8.62257	0.02118104	0.1689511	0	0	0	0	0	0
8.639137	0.02118104	0.1689511	0	0	0	0	0	0
8.655705	0.02118104	0.1689511	0	0	0	0	0	0
8.688837	0.02118104	0.1689511	0	0	0	0	0	0
8.705405	0.02118104	0.1689511	0	0	0	0	0	0
8.72197	0.02118104	0.1689511	0	0	0	0	0	0
8.738645	0.02118104	0.1689511	0	0	0	0	0	0
8.755103	0.02118104	0.1689511	0	0	0	0	0	0
8.771669	0.02118104	0.1689511	0	0	0	0	0	0
8.788236	0.02118104	0.1689511	0	0	0	0	0	0
8.804803	0.02118104	0.1689511	0	0	0	0	0	0
8.821702	0.02118104	0.1689511	0	0	0	0	0	0
8.837935	0.02118104	0.1689511	0	0	0	0	0	0
8.854728	0.02118104	0.1689511	0	0	0	0	0	0
8.926087	0.02118104	0.1689511	0	0	0	0	0	0
8.942655	0.02118104	0.1689511	0	0	0	0	0	0
8.959297	0.02118104	0.1689511	0	0	0	0	0	0
8.975809	0.02118104	0.1689511	0	0	0	0	0	0
8.996518	0.02118104	0.1689511	0	0	0	0	0	0
9.013337	0.02118104	0.1689511	0	0	0	0	0	0
9.029846	0.02118104	0.1689511	0	0	0	0	0	0
9.046358	0.02118104	0.1689511	0	0	0	0	0	0
9.062786	0.02118104	0.1689511	0	0	0	0	0	0
9.079353	0.02118104	0.1689511	0	0	0	0	0	0
9.09592	0.02118104	0.1689511	0	0	0	0	0	0
9.112486	0.02118104	0.1689511	0	0	0	0	0	0
9.129053	0.02118104	0.1689511	0	0	0	0	0	0
9.145619	0.02118104	0.1689511	0	0	0	0	0	0
9.162186	0.02118104	0.1689511	0	0	0	0	0	0
9.178951	0.02118104	0.1689511	0	0	0	0	0	0
9.195318	0.02118104	0.1689511	0	0	0	0	0	0
9.211976	0.02118104	0.1689511	0	0	0	0	0	0
9.228454	0.02115474	0.168933	-0.001596367	-0.00109876	-0.04817707	-0.03315969	0	0
9.24502	0.02110213	0.1688967	-0.003175641	-0.002185755	-0.04779327	-0.03289552	0	0
9.261588	0.02076017	0.1686614	-0.02063929	-0.01420757	-0.527054	-0.3628191	0	0
9.278523	0.01960275	0.1678284	-0.06834365	-0.04918558	-1.42386	-1.044009	0	0
9.29472	0.01594602	0.1653469	-0.2257766	-0.153212	-4.751745	-3.139796	0	0
9.311286	0.01105218	0.1620488	-0.2954095	-0.1990854	-2.125384	-1.400178	0	0
9.328058	0.002657888	0.1563	-0.5004864	-0.342755	-6.151346	-4.309413	0	0
9.344419	-0.004052609	0.1517079	-0.41017	-0.2806889	2.725912	1.873264	0	0
9.360986	-0.01071012	0.1471848	-0.4018479	-0.2730157	0.2527397	0.233035	0	0
9.377593	-0.0150515	0.1442219	-0.2614141	-0.178408	4.233183	2.851818	0	0
9.394118	-0.02562597	0.1373084	-0.6398972	-0.4183583	-11.4233	-7.242131	0	0
9.410686	-0.02912334	0.1351416	-0.2111019	-0.1307906	12.95748	8.689816	0	0
9.427252	-0.03608959	0.1308235	-0.4205077	-0.2606535	-6.320061	-3.919385	0	0
9.443818	-0.04139739	0.1276145	-0.3203979	-0.1937056	3.021492	2.02061	0	0
9.460649	-0.04948588	0.1258269	-0.4805597	-0.1062109	-4.795596	2.619784	0	0
9.476951	-0.05688593	0.1263012	-0.4539585	0.02909908	0.8028737	4.083898	0	0
9.493517	-0.0770838	0.1272315	-1.219216	0.05615681	-23.28317	0.8232384	0	0
9.510083	-0.08928828	0.1271038	-0.736706	-0.00770771	14.56303	-1.927546	0	0
9.526695	-0.1018829	0.1270856	-0.7581587	-0.001097939	-0.6465884	0.1992195	0	0
9.559784	-0.1308791	0.1263012	-0.8763202	-0.02370545	-2.377459	-0.4548728	0	0
9.57635	-0.1442541	0.125316	-0.8073639	-0.05947233	1.388708	-0.7203082	0	0
9.592917	-0.1498421	0.1240203	-0.3372875	-0.0782064	14.18734	-0.5654117	0	0
9.609484	-0.158142	0.123272	-0.5010164	-0.04517362	-4.94149	0.9969599	0	0
9.62605	-0.1676995	0.122633	-0.5769224	-0.03856823	-2.290977	0.1993624	0	0
9.642616	-0.1769457	0.1221949	-0.5581312	-0.02644943	0.5671504	0.3657671	0	0
9.659183	-0.1784243	0.1219758	-0.08925526	-0.01322562	14.15152	0.3991186	0	0
9.675799	-0.1784753	0.1219392	-0.003067787	-0.00219749	2.597331	0.3323417	0	0
9.692315	-0.1785262	0.1219027	-0.003086565	-0.00221094	-0.0005667334	-0.000405957	0	0
9.708882	-0.1793417	0.1213549	-0.04921893	-0.03306506	-1.394445	-0.9326288	0	0
9.725449	-0.1800804	0.1208253	-0.0445957	-0.03196824	0.1395334	0.03310312	0	0
9.775371	-0.1871269	0.1193458	-0.1411494	-0.02963652	-1.452192	0.03506969	0	0
9.791715	-0.1920762	0.1228704	-0.3028185	0.2156461	-2.439696	3.701481	0	0
9.808281	-0.1977245	0.1269397	-0.3409517	0.2456393	-1.1587	0.9113615	0	0
9.824847	-0.2038396	0.1313521	-0.369129	0.2663482	-0.8504431	0.6250319	0	0
9.841416	-0.2111221	0.1366166	-0.4395217	0.3177296	-2.124394	1.55065	0	0
9.857981	-0.2155712	0.1398383	-0.2685936	0.194497	5.158768	-3.719274	0	0
9.874547	-0.2179806	0.1415849	-0.1454426	0.1054299	3.717132	-2.688362	0	0
9.891113	-0.2187832	0.1422033	-0.04844641	0.03733144	2.927521	-2.055332	0	0
9.907681	-0.2187832	0.1422033	0	0	1.462157	-1.126697	0	0
9.92809	-0.2187832	0.1422033	0	0	0	0	0	0
9.944657	-0.2187832	0.1422033	0	0	0	0	0	0
9.961225	-0.2187832	0.1422033	0	0	0	0	0	0
9.977791	-0.2187832	0.1422033	0	0	0	0	0	0
9.994523	-0.2187581	0.1421851	0.001498824	-0.001087382	0.04501178	-0.0326556	0	0
10.01092	-0.2187581	0.1421851	0	0	-0.04523722	0.03281916	0	0
10.02749	-0.2187581	0.1421851	0	0	0	0	0	0
10.04406	-0.218733	0.142167	0.001513838	-0.001097375	0.04568903	-0.03311979	0	0
10.06062	-0.218733	0.142167	0	0	-0.04569034	0.03312075	0	0
10.07719	-0.218733	0.142167	0	0	0	0	0	0
10.09376	-0.2187079	0.1421488	0.001513838	-0.001098274	0.04569034	-0.03314789	0	0
10.11032	-0.2186829	0.1421306	0.001513838	-0.001097375	0	2.714626E-05	0	0
10.12689	-0.2186578	0.1421124	0.001512851	-0.001098211	-2.97771E-05	-2.523763E-05	0	0
10.14346	-0.2186327	0.1420942	0.001513838	-0.001098274	2.97771E-05	-1.907843E-06	0	0
10.16014	-0.2186076	0.142076	0.001503108	-0.001089597	-0.0003226884	0.000260967	0	0
10.17659	-0.2185826	0.1420578	0.001524633	-0.001106107	0.0006496503	-0.0004982737	0	0
10.19316	-0.2185575	0.1420396	0.001513663	-0.001098148	-0.0003322459	0.0002410449	0	0
10.20972	-0.2185575	0.1420396	0	0	-0.04568245	0.03314217	0	0
10.22629	-0.2185324	0.1420214	0.001513925	-0.001097438	0.04569429	-0.03312361	0	0
10.24286	-0.2185073	0.1420033	0.001513751	-0.001098211	-5.263408E-06	-2.333046E-05	0	0
10.25942	-0.2185073	0.1420033	0	0	-0.04568771	0.03314599	0	0
10.29256	-0.2184572	0.1419669	0.001513751	-0.001097761	0.03045789	-0.02208785	0	0
10.30924	-0.2184321	0.1419487	0.00150285	-0.001090303	-0.0002187835	0.0001496987	0	0
10.32569	-0.2184321	0.1419487	0	0	-0.04535872	0.03290731	0	0
10.34225	-0.218407	0.1419305	0.001514737	-0.001098274	0.04588523	-0.03326951	0	0
10.35882	-0.218407	0.1419305	0	0	-0.04571749	0.03314789	0	0
10.37539	-0.218407	0.1419305	0	0	0	0	0	0
10.39195	-0.218407	0.1419305	0	0	0	0	0	0
10.40852	-0.218407	0.1419305	0	0	0	0	0	0
10.42532	-0.218407	0.1419305	0	0	0	0	0	0
10.44184	-0.218407	0.1419305	0	0	0	0	0	0
10.45835	-0.2181813	0.1421306	0.01367109	0.01211878	0.4139883	0.3669814	0	0
10.47486	-0.2176545	0.1425125	0.03190428	0.02313157	0.5521381	0.3334896	0	0
10.49137	-0.2173534	0.1427671	0.01823383	0.01541925	-0.4139451	-0.2335311	0	0
10.50792	-0.2164248	0.14344	0.05610828	0.04065705	1.145526	0.7633262	0	0
10.54105	-0.20336	0.1528699	0.3943183	0.28461	6.807411	4.910228	0	0
10.55792	-0.1934704	0.1599277	0.5864381	0.4185164	3.842674	2.678321	0	0
10.57419	-0.1821938	0.1678646	0.6930692	0.4878075	3.218133	2.091212	0	0
10.59094	-0.1654474	0.1793718	0.9995357	0.6868241	9.279896	6.026278	0	0
10.60732	-0.1518483	0.188296	0.8303031	0.5448798	-5.107746	-4.284134	0	0
10.62396	-0.1375986	0.1965418	0.8562197	0.4954641	0.7848538	-1.496495	0	0
10.64048	-0.1220223	0.2034634	0.943283	0.4191633	2.625913	-2.301306	0	0
10.65702	-0.09867845	0.2106309	1.410908	0.4332022	14.14551	0.4246733	0	0
10.67359	-0.08605014	0.2130786	0.7622906	0.1477543	-19.58883	-8.620789	0	0
10.69015	-0.06692621	0.216515	1.154389	0.2074353	11.83423	1.80128	0	0
10.70672	-0.04893459	0.22004	1.086039	0.2127783	-2.062917	0.1612601	0	0
10.72354	-0.03201537	0.2233478	1.006187	0.1967189	-2.392123	-0.4810887	0	0
10.7594	0.009341833	0.2325461	1.153202	0.2564835	2.790831	1.134526	0	0
10.77607	0.02049713	0.2353828	0.6689834	0.170119	-9.21656	-1.643851	0	0
10.79258	0.03064829	0.2375009	0.6148137	0.1282824	-1.632308	-1.260673	0	0
10.8091	0.04368272	0.238147	0.7893039	0.03912476	5.283614	-2.699719	0	0
10.82567	0.05239936	0.2382906	0.5261374	0.008666065	-7.955204	-0.9207293	0	0
10.84223	0.05790887	0.2378598	0.3325737	-0.02599969	-5.841932	-1.046245	0	0
10.8588	0.06123912	0.2399236	0.2010145	0.1245656	-3.970578	4.544199	0	0
10.87564	0.06150129	0.2400312	0.01556396	0.006392247	-5.55042	-3.536855	0	0
10.89193	0.06150129	0.2400312	0	0	-0.4697348	-0.1929239	0	0
10.90867	0.06147507	0.2400492	-0.001566596	0.001071998	-0.04743696	0.03246042	0	0
10.92518	0.06147507	0.2400492	0	0	0.04711992	-0.03224347	0	0
10.94169	0.06144886	0.2400312	-0.001587725	-0.001086611	-0.04808093	-0.03290575	0	0
10.9582	0.06144886	0.2400312	0	0	0.04807954	0.0329048	0	0
10.97476	0.06139642	0.2399953	-0.003165801	-0.002167365	-0.09571762	-0.06553002	0	0
10.99133	0.06134399	0.2399594	-0.003165072	-0.002165966	2.200484E-05	4.221754E-05	0	0
11.0079	0.06129156	0.2399236	-0.003165072	-0.002166866	0	-2.715328E-05	0	0
11.02446	0.0612129	0.2399056	-0.004747448	-0.001082921	-0.04775756	0.03271447	0	0
11.04103	0.06118669	0.2398877	-0.001582648	-0.001082983	0.09551657	-1.879735E-06	0	0
11.05777	0.06113425	0.2398518	-0.003131541	-0.00214302	-0.04649942	-0.03182344	0	0
11.07428	0.06108182	0.2398159	-0.003176268	-0.002174376	-0.001345056	-0.0009429676	0	0
11.0908	0.06100316	0.2397621	-0.004763076	-0.003259457	-0.04805315	-0.03285941	0	0
11.1073	0.06092451	0.2397082	-0.004766329	-0.003262432	-9.854765E-05	-9.010615E-05	0	0
11.12387	0.06068854	0.2395467	-0.01424384	-0.009748647	-0.2866009	-0.1961439	0	0
11.14043	0.06032147	0.2392955	-0.02215798	-0.01516446	-0.238863	-0.163459	0	0
11.157	0.05882679	0.2382726	-0.09022424	-0.06174533	-2.054362	-1.405894	0	0
11.17356	0.05882679	0.2382726	0	0	2.72313	1.863585	0	0
11.19013	0.05882679	0.2382726	0	0	0	0	0	0
11.2067	0.05882679	0.2382726	0	0	0	0	0	0
11.22327	0.05882679	0.2382726	0	0	0	0	0	0
11.23983	0.05882679	0.2382726	0	0	0	0	0	0
11.25641	0.05882679	0.2382726	0	0	0	0	0	0
11.27297	0.05880056	0.2382547	-0.001584375	-0.001084757	-0.04781654	-0.03273803	0	0
11.28953	0.05880056	0.2382547	0	0	0.04783994	0.03275406	0	0
11.3061	0.05880056	0.2382547	0	0	0	0	0	0
11.32267	0.05874811	0.2382188	-0.003165789	-0.002165842	-0.09554371	-0.06536523	0	0
11.33947	0.05872189	0.2382008	-0.001560549	-0.001068444	0.04810014	0.03288291	0	0
11.3558	0.05861698	0.238129	-0.006425381	-0.004396613	-0.1468336	-0.100453	0	0
11.37236	0.05856453	0.2380573	-0.003166197	-0.004333732	0.09908675	0.001911744	0	0
11.389	0.05848585	0.2380034	-0.004727794	-0.003235136	-0.04702488	0.03308236	0	0
11.40552	0.0583285	0.2378957	-0.009529861	-0.006521998	-0.1448433	-0.09914061	0	0
11.42253	0.05814491	0.2377701	-0.01079118	-0.007383752	-0.03762387	-0.02570518	0	0
11.43863	0.05811869	0.2377522	-0.001628761	-0.001115146	0.2766896	0.1893013	0	0
11.4552	0.05809246	0.2377342	-0.001583414	-0.001083045	0.001388143	0.0009826529	0	0
11.47176	0.05809246	0.2377342	0	0	0.04779166	0.0326892	0	0
11.48833	0.05809246	0.2377342	0	0	0	0	0	0
11.6043	0.05809246	0.2377342	0	0	0	0	0	0
11.62086	0.05809246	0.2377342	0	0	0	0	0	0
11.63768	0.05809246	0.2377342	0	0	0	0	0	0
11.654	0.05809246	0.2377342	0	0	0	0	0	0
11.67056	0.05809246	0.2377342	0	0	0	0	0	0
11.68713	0.05809246	0.2377342	0	0	0	0	0	0
11.72026	0.05806623	0.2377163	-0.0007915036	-0.0005419101	-0.015926	-0.01090388	0	0
11.74037	0.05806623	0.2377163	0	0	0.01486676	0.01017866	0	0
11.75694	0.05806623	0.2377163	0	0	0	0	0	0
11.7735	0.05806623	0.2377163	0	0	0	0	0	0
11.79007	0.05806623	0.2377163	0	0	0	0	0	0
11.80663	0.05806623	0.2377163	0	0	0	0	0	0
11.8232	0.05806623	0.2377163	0	0	0	0	0	0
11.83977	0.05806623	0.2377163	0	0	0	0	0	0
11.85633	0.05806623	0.2377163	0	0	0	0	0	0
11.8729	0.05806623	0.2377163	0	0	0	0	0	0
11.88947	0.05806623	0.2377163	0	0	0	0	0	0
11.90603	0.05806623	0.2377163	0	0	0	0	0	0
11.9226	0.05806623	0.2377163	0	0	0	0	0	0
11.93917	0.05804	0.2376983	-0.001583098	-0.001082983	-0.04777938	-0.03268544	0	0
11.9564	0.05804	0.2376983	0	0	0.04683441	0.03203899	0	0
11.9723	0.05806623	0.2376804	0.001649571	-0.001129394	0.04978415	-0.03408517	0	0
11.98887	0.05804	0.2376624	-0.001583098	-0.001082983	-0.09957404	0.001429562	0	0
12.00544	0.05801377	0.2376445	-0.001583141	-0.001082858	-1.282399E-06	3.762874E-06	0	0
12.022	0.05801377	0.2376445	0	0	0.04778203	0.03268261	0	0
12.03857	0.05801377	0.2376445	0	0	0	0	0	0
12.05513	0.05798755	0.2376265	-0.001583007	-0.00108382	-0.04777662	-0.0327107	0	0
12.0717	0.05796132	0.2375727	-0.001583007	-0.003249662	0	-0.06536523	0	0
12.0885	0.05796132	0.2375727	0	0	0.04745021	0.09740774	0	0
12.10501	0.05793509	0.2375547	-0.001588627	-0.001087514	-0.04769912	-0.032653	0	0
12.12152	0.05788264	0.2375188	-0.003176112	-0.002173497	-0.04806671	-0.03288199	0	0
12.13797	0.05788264	0.2375188	0	0	0.0963628	0.06594361	0	0
12.15454	0.05785641	0.2375009	-0.001582187	-0.00108236	-0.04791601	-0.0327789	0	0
12.1711	0.05783018	0.2374829	-0.001584144	-0.001084444	-5.904475E-05	-6.290962E-05	0	0
12.18807	0.05783018	0.2374829	0	0	0.04725599	0.03234965	0	0
12.20458	0.05780395	0.237465	-0.001588218	-0.001086486	-0.04744096	-0.03245393	0	0
12.2208	0.0577515	0.2374291	-0.003233432	-0.002212723	-0.05025728	-0.0344038	0	0
12.23737	0.05762036	0.2373394	-0.00791571	-0.005416403	-0.1427951	-0.09770243	0	0
12.25393	0.05706954	0.2369624	-0.03324934	-0.02275254	-0.7645924	-0.5232207	0	0
12.27063	0.05486593	0.2354546	-0.1319767	-0.09030426	-2.968066	-2.030824	0	0
12.28714	0.04914461	0.2315405	-0.346637	-0.2371475	-6.465248	-4.422701	0	0
12.30363	0.04081942	0.2258819	-0.50463	-0.3429949	-4.787252	-3.207218	0	0
12.3202	0.03369777	0.2210469	-0.4298885	-0.2918586	2.260515	1.546592	0	0
12.33677	0.02935998	0.2180799	-0.2618442	-0.1790988	5.07188	3.403292	0	0
12.35333	0.02804528	0.2171806	-0.07936034	-0.05428408	5.507691	3.767132	0	0
12.3699	0.02620453	0.2159574	-0.1111079	-0.07383199	-0.9581703	-0.589974	0	0
12.38647	0.02168081	0.2128627	-0.2730676	-0.1868083	-4.888094	-3.409729	0	0
12.40303	0.02118104	0.2125207	-0.03016792	-0.02063964	7.331149	5.015268	0	0
12.4196	0.02115474	0.2125027	-0.001587729	-0.001086519	0.8625766	0.5901315	0	0
12.43617	0.02115474	0.2125027	0	0	0.04791914	0.03279214	0	0
12.45275	0.02115474	0.2125027	0	0	0	0	0	0
12.4693	0.02112843	0.2125567	-0.001589742	0.003262788	-0.04798128	0.09847681	0	0
12.48587	0.02107583	0.2125927	-0.003175641	0.002173162	-0.04789422	-0.03290677	0	0
12.50243	0.02102322	0.2126287	-0.003175641	0.002172263	0	-2.714626E-05	0	0
12.519	0.02097061	0.2126647	-0.003175641	0.002172263	0	0	0	0
12.53556	0.020918	0.2127007	-0.003175641	0.002173162	0	2.714626E-05	0	0
12.55213	0.02086539	0.2127367	-0.003175641	0.002172263	0	-2.714626E-05	0	0
12.56883	0.02083909	0.2127547	-0.001575126	0.001077894	0.04811255	-0.03289745	0	0
12.60537	0.02081278	0.2127727	-0.0007198943	0.0004926398	0.01606405	-0.01099299	0	0
12.62194	0.02076017	0.2128087	-0.003175458	0.002172138	-0.04623865	0.0316252	0	0
12.65083	0.02076017	0.2128087	0	0	0.06984916	-0.04777956	0	0
12.66741	0.02073387	0.2128267	-0.001586816	0.001085893	-0.03489717	0.02388091	0	0
12.68397	0.02073387	0.2128267	0	0	0.04789019	-0.03277233	0	0
12.70053	0.02073387	0.2128267	0	0	0	0	0	0
12.7171	0.02073387	0.2128267	0	0	0	0	0	0
12.73395	0.02073387	0.2128267	0	0	0	0	0	0
12.75023	0.02073387	0.2128267	0	0	0	0	0	0
12.76697	0.02073387	0.2128267	0	0	0	0	0	0
12.78337	0.02073387	0.2128267	0	0	0	0	0	0
12.79999	0.02073387	0.2128267	0	0	0	0	0	0
12.8165	0.02073387	0.2128267	0	0	0	0	0	0
12.83307	0.02073387	0.2128267	0	0	0	0	0	0
12.85003	0.02073387	0.2128267	0	0	0	0	0	0
12.8662	0.02073387	0.2128267	0	0	0	0	0	0
12.88277	0.02073387	0.2128267	0	0	0	0	0	0
12.89933	0.02073387	0.2128267	0	0	0	0	0	0
12.9159	0.02073387	0.2128267	0	0	0	0	0	0
12.93246	0.02073387	0.2128267	0	0	0	0	0	0
13.01565	0.02073387	0.2128267	0	0	0	0	0	0
13.03216	0.02073387	0.2128267	0	0	0	0	0	0
13.04867	0.02073387	0.2128267	0	0	0	0	0	0
13.065	0.02073387	0.2128267	0	0	0	0	0	0
13.08169	0.02073387	0.2128267	0	0	0	0	0	0
13.09813	0.02076017	0.2128087	0.001599979	-0.001094901	0.04828884	-0.03304513	0	0
13.1147	0.02076017	0.2128087	0	0	-0.0484744	0.03317212	0	0
13.13126	0.02076017	0.2128087	0	0	0	0	0	0
13.14783	0.02076017	0.2128087	0	0	0	0	0	0
13.1644	0.02076017	0.2128087	0	0	0	0	0	0
13.18126	0.02076017	0.2128087	0	0	0	0	0	0
13.19777	0.02076017	0.2128087	0	0	0	0	0	0
13.2141	0.02076017	0.2128087	0	0	0	0	0	0
13.23066	0.02076017	0.2128087	0	0	0	0	0	0
13.24723	0.02076017	0.2128087	0	0	0	0	0	0
13.2638	0.02076017	0.2128087	0	0	0	0	0	0
13.33006	0.02076017	0.2128087	0	0	0	0	0	0
13.34663	0.02076017	0.2128087	0	0	0	0	0	0
13.3632	0.02076017	0.2128087	0	0	0	0	0	0
13.37976	0.02076017	0.2128087	0	0	0	0	0	0
13.39633	0.02076017	0.2128087	0	0	0	0	0	0
13.41289	0.02076017	0.2128087	0	0	0	0	0	0
13.42946	0.02076017	0.2128087	0	0	0	0	0	0
13.44603	0.02076017	0.2128087	0	0	0	0	0	0
13.46259	0.02076017	0.2128087	0	0	0	0	0	0
13.47916	0.02076017	0.2128087	0	0	0	0	0	0
13.49573	0.02076017	0.2128087	0	0	0	0	0	0
13.51229	0.02076017	0.2128087	0	0	0	0	0	0
13.52886	0.02076017	0.2128087	0	0	0	0	0	0
13.54935	0.02076017	0.2128087	0	0	0	0	0	0
13.56592	0.02076017	0.2128087	0	0	0	0	0	0
13.59906	0.02076017	0.2128087	0	0	0	0	0	0
13.61562	0.02076017	0.2128087	0	0	0	0	0	0
13.63218	0.02076017	0.2128087	0	0	0	0	0	0
13.64875	0.02076017	0.2128087	0	0	0	0	0	0
13.66532	0.02076017	0.2128087	0	0	0	0	0	0
13.68211	0.02076017	0.2128087	0	0	0	0	0	0
13.69845	0.02076017	0.2128087	0	0	0	0	0	0
13.71502	0.02076017	0.2128087	0	0	0	0	0	0
13.73158	0.02076017	0.2128087	0	0	0	0	0	0
13.76472	0.02076017	0.2128087	0	0	0	0	0	0
13.78128	0.02076017	0.2128087	0	0	0	0	0	0
13.79785	0.02076017	0.2128087	0	0	0	0	0	0
13.81441	0.02076017	0.2128087	0	0	0	0	0	0
13.83098	0.02076017	0.2128087	0	0	0	0	0	0
13.84755	0.02076017	0.2128087	0	0	0	0	0	0
13.86411	0.02076017	0.2128087	0	0	0	0	0	0
13.88068	0.02076017	0.2128087	0	0	0	0	0	0
13.89725	0.02073387	0.2127907	-0.001587821	-0.001086581	-0.04792328	-0.03279497	0	0
13.91381	0.02073387	0.2127907	0	0	0.0479219	0.03279402	0	0
13.93038	0.02073387	0.2127907	0	0	0	0	0	0
13.94695	0.02076017	0.2127727	0.001587821	-0.001085682	0.04792328	-0.03276782	0	0
13.96351	0.02076017	0.2127727	0	0	-0.04792328	0.03276782	0	0
13.98031	0.02076017	0.2127727	0	0	0	0	0	0
13.99664	0.02076017	0.2127727	0	0	0	0	0	0
14.01334	0.02076017	0.2127727	0	0	0	0	0	0
14.02985	0.02076017	0.2127727	0	0	0	0	0	0
14.04634	0.02076017	0.2127727	0	0	0	0	0	0
14.06291	0.02073387	0.2127547	-0.001587729	-0.001086519	-0.04801865	-0.03286023	0	0
14.07948	0.02073387	0.2127547	0	0	0.04791914	0.03279214	0	0
14.14574	0.02073387	0.2127547	0	0	0	0	0	0
14.17888	0.02070757	0.2127367	-0.0007938874	-0.0005432749	-0.00798683	-0.005465566	0	0
14.19547	0.02070757	0.2127367	0	0	0.01596692	0.01092652	0	0
14.21201	0.02070757	0.2127007	0	-0.002174892	0	-0.06564026	0	0
14.22858	0.02065496	0.2126647	-0.003175641	-0.002173162	-0.09590453	5.224403E-05	0	0
14.24514	0.02054974	0.2125927	-0.006351395	-0.004344525	-0.09584995	-0.06553564	0	0
14.26171	0.01947122	0.2118908	-0.06510311	-0.04236947	-1.773232	-1.147661	0	0
14.27852	0.01434112	0.2083805	-0.3051219	-0.2087839	-7.190594	-4.985518	0	0
14.29503	0.01439374	0.2084165	0.003187197	0.002180568	9.252063	6.33084	0	0
14.31141	0.01439374	0.2084165	0	0	-0.09691505	-0.06630588	0	0
14.3634	0.01439374	0.2084165	0	0	0	0	0	0
14.38009	0.01439374	0.2084165	0	0	0	0	0	0
14.39661	0.01439374	0.2084165	0	0	0	0	0	0
14.41311	0.01442005	0.2084345	0.001594584	0.00109188	0.04830537	0.03307678	0	0
14.42967	0.01442005	0.2084345	0	0	-0.04822456	-0.03302145	0	0
14.44624	0.01442005	0.2084345	0	0	0	0	0	0
14.46315	0.01442005	0.2084345	0	0	0	0	0	0
14.48317	0.01442005	0.2084345	0	0	0	0	0	0
14.49974	0.01442005	0.2084345	0	0	0	0	0	0
14.51631	0.01442005	0.2084345	0	0	0	0	0	0
14.53287	0.01442005	0.2084345	0	0	0	0	0	0
14.54944	0.01442005	0.2084345	0	0	0	0	0	0
14.56601	0.01442005	0.2084345	0	0	0	0	0	0
14.58274	0.01442005	0.2084345	0	0	0	0	0	0
14.59914	0.01442005	0.2084345	0	0	0	0	0	0
14.61576	0.01442005	0.2084345	0	0	0	0	0	0
14.63227	0.01442005	0.2084345	0	0	0	0	0	0
14.64884	0.01442005	0.2084345	0	0	0	0	0	0
14.66579	0.01442005	0.2084345	0	0	0	0	0	0
14.68197	0.01442005	0.2084345	0	0	0	0	0	0
14.69854	0.01442005	0.2084345	0	0	0	0	0	0
14.73167	0.01442005	0.2084345	0	0	0	0	0	0
14.74824	0.01442005	0.2084345	0	0	0	0	0	0
14.76481	0.01442005	0.2084345	0	0	0	0	0	0
14.78137	0.01442005	0.2084345	0	0	0	0	0	0
14.79794	0.01442005	0.2084345	0	0	0	0	0	0
14.81451	0.01442005	0.2084345	0	0	0	0	0	0
14.83107	0.01442005	0.2084345	0	0	0	0	0	0
14.84764	0.01442005	0.2084345	0	0	0	0	0	0
14.86421	0.01442005	0.2084345	0	0	0	0	0	0
14.88077	0.01442005	0.2084345	0	0	0	0	0	0
14.89734	0.01442005	0.2084345	0	0	0	0	0	0
14.91397	0.01442005	0.2084345	0	0	0	0	0	0
14.93047	0.01442005	0.2084345	0	0	0	0	0	0
14.94704	0.01442005	0.2084345	0	0	0	0	0	0
14.9636	0.01442005	0.2084345	0	0	0	0	0	0
14.98017	0.01442005	0.2084345	0	0	0	0	0	0
14.99674	0.01442005	0.2084345	0	0	0	0	0	0
15.01331	0.01442005	0.2084345	0	0	0	0	0	0
15.02987	0.01442005	0.2084345	0	0	0	0	0	0
15.04644	0.01442005	0.2084345	0	0	0	0	0	0
15.063	0.01442005	0.2084345	0	0	0	0	0	0
15.07957	0.01442005	0.2084345	0	0	0	0	0	0
15.0966	0.01442005	0.2084345	0	0	0	0	0	0
15.11312	0.01444636	0.2084165	0.001592891	-0.001090683	0.04748584	-0.03251446	0	0
15.12927	0.01449898	0.2083445	0.003256745	-0.004457303	0.05092166	-0.1030342	0	0
15.14584	0.01473578	0.2080744	0.01429359	-0.01630411	0.3372765	-0.3620284	0	0
15.16241	0.01549876	0.2074801	0.04605647	-0.03586977	0.9586608	-0.5905267	0	0
15.17916	0.02496849	0.1993004	0.5653138	-0.488305	15.58509	-13.57948	0	0
15.19554	0.02893929	0.183474	0.2423843	-0.9660704	-9.74631	-14.4194	0	0
15.21218	0.02917593	0.1681906	0.01421835	-0.9182821	-6.908731	1.447	0	0
15.22869	0.02920222	0.1516353	0.001592463	-1.002686	-0.3808199	-2.54577	0	0
15.24524	0.02880782	0.1292375	-0.02383657	-1.353645	-0.7692431	-10.61671	0	0
15.26181	0.0292811	0.1131307	0.02856919	-0.9722648	1.582657	11.51769	0	0
15.27837	0.02933369	0.09318767	0.003174292	-1.203833	-0.7664636	-6.989156	0	0
15.29494	0.02954403	0.08380918	0.01269644	-0.5660869	0.2873872	19.24778	0	0
15.31175	0.02949145	0.06595184	-0.003128014	-1.062218	-0.4740897	-14.86375	0	0
15.32826	0.02925481	0.05764246	-0.01433134	-0.5032353	-0.3362011	16.77454	0	0
15.34851	0.02925481	0.03370733	0	-1.181963	0.3898386	-18.46263	0	0
15.36529	0.02870264	0.02248593	-0.03291213	-0.6688545	-0.8888598	13.85755	0	0
15.3818	0.02849229	0.01499782	-0.01274027	-0.4535235	0.60598	6.468726	0	0
15.41482	0.0272827	-0.008999337	-0.03662869	-0.7266828	-0.4822647	-5.5146	0	0
15.43135	0.02583635	-0.02085551	-0.0875335	-0.7175402	-1.02742	0.1845274	0	0
15.44791	0.02628342	-0.02868942	0.02698643	-0.4728827	3.4609	7.39378	0	0
15.46448	0.02586265	-0.03846698	-0.02539895	-0.5902087	-1.581085	-3.54111	0	0
15.48105	0.02523149	-0.04067795	-0.03809949	-0.1334622	-0.3833252	13.78543	0	0
15.49761	0.024311	-0.04894547	-0.05556394	-0.4990571	-0.5271086	-11.03431	0	0
15.51418	0.0243899	-0.05087725	0.004762787	-0.1166091	1.820769	11.54297	0	0
15.53074	0.0244425	-0.05103032	0.003175079	-0.009239762	-0.04791988	3.2406	0	0
15.54731	0.0244688	-0.05104945	0.001587596	-0.001154942	-0.0479131	0.2440144	0	0
15.56393	0.0244688	-0.05104945	0	0	-0.0478435	0.03480513	0	0
15.58044	0.0244688	-0.05104945	0	0	0	0	0	0
15.59701	0.0244425	-0.05103032	-0.001587504	0.001154876	-0.04798417	0.03490746	0	0
15.61358	0.0244425	-0.05103032	0	0	0.04791235	-0.03485522	0	0
15.63014	0.0244425	-0.05103032	0	0	0	0	0	0
15.64671	0.0244162	-0.05101118	-0.001587596	0.001154942	-0.04791649	0.03485823	0	0
15.6635	0.0243899	-0.05099205	-0.00156665	0.001139785	0.0006280061	-0.0004544382	0	0
15.68001	0.0243899	-0.05099205	0	0	0.04705002	-0.03423032	0	0
15.69641	0.0243636	-0.05097291	-0.001603473	0.001166719	-0.04871821	0.03544836	0	0
15.71298	0.0243373	-0.05095378	-0.001587596	0.001154942	0.0004815792	-0.0003572278	0	0
15.72954	0.0243373	-0.05095378	0	0	0.04791649	-0.03485823	0	0
15.74611	0.0243373	-0.05095378	0	0	0	0	0	0
15.76268	0.0243373	-0.05095378	0	0	0	0	0	0
15.77924	0.0243373	-0.05095378	0	0	0	0	0	0
15.79581	0.0243373	-0.05095378	0	0	0	0	0	0
15.8126	0.0243373	-0.05095378	0	0	0	0	0	0
15.82894	0.0243373	-0.05095378	0	0	0	0	0	0
15.84551	0.0243373	-0.05095378	0	0	0	0	0	0
15.86213	0.0243373	-0.05095378	0	0	0	0	0	0
15.87865	0.0243373	-0.05095378	0	0	0	0	0	0
15.89521	0.0243373	-0.05095378	0	0	0	0	0	0
15.91177	0.0243373	-0.05095378	0	0	0	0	0	0
15.92834	0.0243373	-0.05095378	0	0	0	0	0	0
16.02775	0.0243373	-0.05095378	0	0	0	0	0	0
16.04431	0.0243373	-0.05095378	0	0	0	0	0	0
16.06087	0.0243373	-0.05095378	0	0	0	0	0	0
16.07779	0.0243373	-0.05095378	0	0	0	0	0	0
16.0943	0.0243373	-0.05095378	0	0	0	0	0	0
16.11081	0.0243373	-0.05095378	0	0	0	0	0	0
16.12714	0.0243373	-0.05095378	0	0	0	0	0	0
16.14371	0.024311	-0.05093465	-0.001587504	0.001154876	-0.04825542	0.03510479	0	0
16.16028	0.0242584	-0.05085811	-0.003175009	0.004619502	-0.04791097	0.1045626	0	0
16.17684	0.0241006	-0.05074332	-0.009524914	0.006928804	-0.1916405	0.06969487	0	0
16.19341	0.02312746	-0.04988251	-0.05873889	0.05195884	-1.485281	1.359009	0	0
16.2144	0.02023408	-0.04720604	-0.1378555	0.1275211	-2.106647	2.012005	0	0
16.23097	0.01810328	-0.04558222	-0.1286151	0.09801377	0.2460465	-0.7856951	0	0
16.24753	0.0126046	-0.0413263	-0.3319016	0.2568879	-6.135199	4.79483	0	0
16.2641	0.005078904	-0.03492517	-0.4542516	0.3863727	-3.692532	3.907859	0	0
16.28067	-0.000736842	-0.02977216	-0.3510391	0.3110364	3.114959	-2.273654	0	0
16.29724	-0.007710373	-0.0223904	-0.4208747	0.445513	-2.107522	4.058278	0	0
16.3138	-0.01318345	-0.01731486	-0.3303934	0.3063956	2.730733	-4.198569	0	0
16.33037	-0.01897141	-0.01315441	-0.349362	0.251125	-0.5725077	-1.668166	0	0
16.34694	-0.02704603	-0.007018106	-0.4873854	0.370388	-4.165555	3.599362	0	0
16.3635	-0.03322461	-0.001458186	-0.3729397	0.3355974	3.453978	-1.049982	0	0
16.38007	-0.03537997	0.009558859	-0.1300976	0.6649902	7.328991	9.941094	0	0
16.39664	-0.03467031	0.0190621	0.04283496	0.573617	5.219113	-2.757649	0	0
16.42977	-0.03272516	0.0337819	0.05870494	0.4442444	0.3193047	-2.602983	0	0
16.44634	-0.02896558	0.05743867	0.2269283	1.427925	3.384661	19.7917	0	0
16.46307	-0.02717752	0.06876095	0.1068941	0.6768685	-3.605209	-22.55787	0	0
16.47947	-0.02594155	0.07977575	0.07534053	0.6714249	-0.9523422	-0.1642968	0	0
16.49604	-0.0224173	0.0936469	0.2127241	0.8372642	4.166632	5.029648	0	0
16.51261	-0.01820851	0.1038114	0.2540135	0.6134571	1.246045	-6.754123	0	0
16.52917	-0.01268353	0.1173907	0.333527	0.8197476	2.399723	6.225859	0	0
16.54574	-0.008789247	0.1270674	0.2350594	0.5840819	-2.97193	-7.112812	0	0
16.56231	-0.002263154	0.1377453	0.3939157	0.6445231	4.794293	1.824119	0	0
16.57888	0.001026315	0.1422397	0.1985528	0.2712815	-5.896066	-11.26445	0	0
16.59566	0.008683993	0.1499281	0.4561268	0.4579588	7.722036	5.59656	0	0
16.61268	0.01394646	0.1535597	0.3093453	0.2134751	-4.342632	-7.233219	0	0
16.62857	0.01581447	0.1548484	0.1175013	0.08105972	-5.829462	-4.023634	0	0
16.64514	0.01581447	0.1548484	0	0	-3.619323	-2.496836	0	0
16.66171	0.01581447	0.1548484	0	0	0	0	0	0
16.67827	0.01576185	0.1548847	-0.003176752	0.00219153	-0.09588008	0.06614432	0	0
16.69484	0.01563031	0.1549754	-0.007940107	0.005476665	-0.1437749	0.09915698	0	0
16.71141	0.0153409	0.1552113	-0.01746851	0.01423987	-0.2875677	0.264474	0	0
16.72798	0.01528828	0.1552476	-0.003176133	0.002191026	0.4313447	-0.3636348	0	0
16.74454	0.0150778	0.1555742	-0.01270448	0.01971564	-0.2875659	0.5288938	0	0
16.76111	0.01439374	0.1573523	-0.04129001	0.1073225	-0.862713	2.64398	0	0
16.77768	0.01257828	0.1640786	-0.1095939	0.4060494	-2.061535	9.016115	0	0
16.7943	0.01163105	0.1766416	-0.05696503	0.7555166	1.585514	10.52815	0	0
16.89388	0.01573554	0.196109	0.04122162	0.1955129	0.8449835	-4.81933	0	0
16.9269	0.01581447	0.1960188	0.002390161	-0.002730517	-0.2928617	-1.495126	0	0
16.94335	0.01584078	0.1960008	0.001599483	-0.001096142	-0.01598268	0.0330371	0	0
16.95991	0.01584078	0.1960008	0	0	-0.0484538	0.03320586	0	0
16.97647	0.01586709	0.1959828	0.001588066	-0.001089217	0.04793622	-0.03287831	0	0
16.99304	0.0158934	0.1959647	0.001587954	-0.001088317	-3.393965E-06	2.714469E-05	0	0
17.00961	0.01591971	0.1959467	0.001588066	-0.001088317	3.393965E-06	0	0	0
17.02618	0.01597233	0.1959106	0.00317602	-0.002177534	0.04792455	-0.03287263	0	0
17.04274	0.01599864	0.1958565	0.001588066	-0.003265852	-0.04792455	-0.03284549	0	0
17.0595	0.01599864	0.1958565	0	0	-0.04766181	0.09801631	0	0
17.07588	0.01599864	0.1958565	0	0	0	0	0	0
17.09244	0.01599864	0.1958565	0	0	0	0	0	0
17.10901	0.01599864	0.1958565	0	0	0	0	0	0
17.12558	0.01599864	0.1958565	0	0	0	0	0	0
17.14762	0.01602494	0.1958385	0.00119337	-0.0008178859	0.03090642	-0.02118197	0	0
17.16419	0.01605125	0.1957844	0.001588066	-0.003265852	0.01022203	-0.0633985	0	0
17.18076	0.01613018	0.1956942	0.004763974	-0.005443386	0.09584909	-0.06571811	0	0
17.19732	0.01615649	0.1956401	0.001588066	-0.003265852	-0.09584909	0.06571811	0	0
17.21389	0.01615649	0.195568	0	-0.004354169	-0.04792794	-0.03284549	0	0
17.23062	0.01620911	0.1953876	0.003144883	-0.01077915	0.09444521	-0.192951	0	0
17.24702	0.01620911	0.1951712	0	-0.01319648	-0.09491822	-0.07295952	0	0
17.26364	0.01581447	0.1947203	-0.02375196	-0.02713972	-0.7194031	-0.4223148	0	0
17.28016	0.01531459	0.1943415	-0.03026329	-0.02293321	-0.1965236	0.12696	0	0
17.29672	0.0150778	0.1941069	-0.01429254	-0.01415532	0.4827206	0.2653141	0	0
17.31329	0.01510411	0.1940889	0.001588066	-0.001088317	0.4792777	0.394363	0	0
17.32986	0.01510411	0.1940528	0	-0.002177534	-0.04792794	-0.03287263	0	0
17.3467	0.01513042	0.1940348	0.001562345	-0.001071575	0.04676671	0.0331054	0	0
17.36299	0.01515673	0.1939807	0.001614838	-0.003321822	0.001584325	-0.06791648	0	0
17.37956	0.01513042	0.1939626	-0.001588066	-0.001088317	-0.09747181	0.06797072	0	0
17.39613	0.01515673	0.1939446	0.001588066	-0.001089217	0.09585588	-2.714469E-05	0	0
17.41269	0.01515673	0.1939446	0	0	-0.04792794	0.03287263	0	0
17.42926	0.01515673	0.1938724	0	-0.004355068	0	-0.1314362	0	0
17.44583	0.01515673	0.1938363	0	-0.002178434	0	0.06569096	0	0
17.46239	0.01510411	0.1938003	-0.003176133	-0.002177534	-0.09585588	2.714469E-05	0	0
17.47896	0.0150778	0.1937461	-0.001588066	-0.003266751	0.04792794	-0.03287263	0	0
17.49553	0.01497257	0.1936379	-0.006352209	-0.006533502	-0.1437821	-0.09859074	0	0
17.5121	0.01481471	0.1934936	-0.009527358	-0.008710033	-0.09582067	-0.06568406	0	0
17.52866	0.01470947	0.1933493	-0.006353053	-0.008712939	0.09580071	-8.7695E-05	0	0
17.54523	0.01463053	0.1932591	-0.004764804	-0.005444912	0.04793897	0.0986406	0	0
17.5618	0.01452529	0.1931508	-0.006352322	-0.006534402	-0.04791415	-0.03288275	0	0
17.57837	0.01447267	0.1930786	-0.003175823	-0.004355466	0.09586141	0.06575661	0	0
17.64492	0.01491995	0.1926998	0.00672071	-0.005693013	0.1190627	-0.01609169	0	0
17.66143	0.01528828	0.1924472	0.02230478	-0.01529655	0.1876128	-0.1156146	0	0
17.67794	0.01602494	0.1919058	0.04461907	-0.03278705	0.6757027	-0.5296326	0	0
17.69433	0.01707729	0.191184	0.06419961	-0.04403599	0.5951214	-0.3418949	0	0
17.7109	0.01776129	0.1906065	0.04128647	-0.03485854	-0.6952018	0.2784508	0	0
17.72746	0.01770867	0.1905704	-0.003176274	-0.002178685	-1.341965	0.9863366	0	0
17.74403	0.01736668	0.1903358	-0.02064306	-0.01416252	-0.5271791	-0.3616936	0	0
17.7606	0.01652481	0.1897582	-0.05081498	-0.03486213	-0.9105902	-0.6247157	0	0
17.77717	0.01547245	0.1890362	-0.06352074	-0.04358216	-0.3834608	-0.263171	0	0
17.79373	0.01547245	0.1890362	0	0	1.91717	1.315388	0	0
17.8103	0.01547245	0.1890362	0	0	0	0	0	0
17.82686	0.01547245	0.1890362	0	0	0	0	0	0
17.84343	0.01547245	0.1890362	0	0	0	0	0	0
17.86	0.01547245	0.1890362	0	0	0	0	0	0
17.87657	0.01547245	0.1890362	0	0	0	0	0	0
17.89359	0.01547245	0.1890362	0	0	0	0	0	0
17.9097	0.01547245	0.1890362	0	0	0	0	0	0
17.92662	0.01547245	0.1890362	0	0	0	0	0	0
17.94283	0.01547245	0.1890362	0	0	0	0	0	0
17.9594	0.01547245	0.1890362	0	0	0	0	0	0
17.97597	0.01547245	0.1890362	0	0	0	0	0	0
17.99253	0.01547245	0.1890362	0	0	0	0	0	0
18.01283	0.01547245	0.1890362	0	0	0	0	0	0
18.0294	0.01547245	0.1890362	0	0	0	0	0	0
18.04597	0.01547245	0.1890362	0	0	0	0	0	0
18.06253	0.01547245	0.1890362	0	0	0	0	0	0
18.0791	0.01547245	0.1890362	0	0	0	0	0	0
18.09567	0.01547245	0.1890362	0	0	0	0	0	0
18.11223	0.01547245	0.1890362	0	0	0	0	0	0
18.1288	0.01547245	0.1890362	0	0	0	0	0	0
18.14537	0.01547245	0.1890362	0	0	0	0	0	0
18.16193	0.01547245	0.1890362	0	0	0	0	0	0
18.1785	0.01547245	0.1890362	0	0	0	0	0	0
18.19507	0.01547245	0.1890362	0	0	0	0	0	0
18.21164	0.01547245	0.1890362	0	0	0	0	0	0
18.22833	0.01547245	0.1890362	0	0	0	0	0	0
18.24484	0.01547245	0.1890362	0	0	0	0	0	0
18.26134	0.01547245	0.1890362	0	0	0	0	0	0
18.2779	0.01547245	0.1890362	0	0	0	0	0	0
18.29447	0.01547245	0.1890362	0	0	0	0	0	0
18.37731	0.01547245	0.1890362	0	0	0	0	0	0
18.4033	0.01547245	0.1890362	0	0	0	0	0	0
18.41997	0.01547245	0.1890362	0	0	0	0	0	0
18.43644	0.01547245	0.1890362	0	0	0	0	0	0
18.453	0.01547245	0.1890362	0	0	0	0	0	0
18.46957	0.01547245	0.1890362	0	0	0	0	0	0
18.48614	0.01549876	0.1890181	0.001588066	-0.001089217	0.04792794	-0.03287263	0	0
18.5027	0.01549876	0.1890181	0	0	-0.0479307	0.03287452	0	0
18.51927	0.01549876	0.1890181	0	0	0	0	0	0
18.53584	0.01549876	0.1890181	0	0	0	0	0	0
18.58559	0.01549876	0.1890181	0	0	0	0	0	0
18.60261	0.01552507	0.1890001	0.001546005	-0.001061281	0.02315399	-0.01589445	0	0
18.61912	0.01552507	0.1890001	0	0	-0.04611697	0.03165777	0	0
18.63524	0.01552507	0.1890001	0	0	0	0	0	0
18.65181	0.01552507	0.1890001	0	0	0	0	0	0
18.66837	0.01552507	0.1890001	0	0	0	0	0	0
18.68494	0.01552507	0.1890001	0	0	0	0	0	0
18.70151	0.01552507	0.1890001	0	0	0	0	0	0
18.71819	0.01552507	0.1890001	0	0	0	0	0	0
18.7352	0.01552507	0.1890001	0	0	0	0	0	0
18.75121	0.01552507	0.1890001	0	0	0	0	0	0
18.76777	0.01552507	0.1890001	0	0	0	0	0	0
18.78434	0.01552507	0.1890001	0	0	0	0	0	0
18.80091	0.01552507	0.1890001	0	0	0	0	0	0
18.81748	0.01552507	0.1890001	0	0	0	0	0	0
18.83404	0.01552507	0.1890001	0	0	0	0	0	0
18.85061	0.01552507	0.1890001	0	0	0	0	0	0
18.86718	0.01552507	0.1890001	0	0	0	0	0	0
18.88381	0.01552507	0.1890001	0	0	0	0	0	0
18.90032	0.01555138	0.188982	0.00159357	-0.001092992	0.04808298	-0.03297897	0	0
18.91688	0.01555138	0.188982	0	0	-0.04819114	0.03305316	0	0
18.93871	0.01555138	0.188982	0	0	0	0	0	0
18.95536	0.01555138	0.188982	0	0	0	0	0	0
18.97187	0.01555138	0.188982	0	0	0	0	0	0
18.98841	0.01555138	0.188982	0	0	0	0	0	0
19.00498	0.01555138	0.188982	0	0	0	0	0	0
19.02155	0.01555138	0.188982	0	0	0	0	0	0
19.03842	0.01555138	0.188982	0	0	0	0	0	0
19.05493	0.01555138	0.188982	0	0	0	0	0	0
19.07147	0.01555138	0.188982	0	0	0	0	0	0
19.10438	0.01555138	0.188982	0	0	0	0	0	0
19.12095	0.01555138	0.188982	0	0	0	0	0	0
19.13751	0.01555138	0.188982	0	0	0	0	0	0
19.15408	0.01555138	0.188982	0	0	0	0	0	0
19.17101	0.01555138	0.188982	0	0	0	0	0	0
19.18722	0.01555138	0.188982	0	0	0	0	0	0
19.20378	0.01555138	0.188982	0	0	0	0	0	0
19.22035	0.01555138	0.188982	0	0	0	0	0	0
19.23706	0.01555138	0.188982	0	0	0	0	0	0
19.25348	0.01555138	0.188982	0	0	0	0	0	0
19.27009	0.01557769	0.188964	0.001584726	-0.001087862	0.04799012	-0.03294363	0	0
19.28662	0.01557769	0.188964	0	0	-0.04782713	0.03283174	0	0
19.30319	0.01557769	0.188964	0	0	0	0	0	0
19.31975	0.01557769	0.188964	0	0	0	0	0	0
19.33632	0.01557769	0.188964	0	0	0	0	0	0
19.35289	0.01557769	0.188964	0	0	0	0	0	0
19.36966	0.01557769	0.188964	0	0	0	0	0	0
19.38617	0.01557769	0.188964	0	0	0	0	0	0
19.41915	0.01557769	0.188964	0	0	0	0	0	0
19.48542	0.01557769	0.188964	0	0	0	0	0	0
19.50199	0.01557769	0.188964	0	0	0	0	0	0
19.51856	0.01557769	0.188964	0	0	0	0	0	0
19.53528	0.01557769	0.188964	0	0	0	0	0	0
19.55179	0.01557769	0.188964	0	0	0	0	0	0
19.56826	0.01557769	0.188964	0	0	0	0	0	0
19.58482	0.01557769	0.188964	0	0	0	0	0	0
19.60139	0.01557769	0.188964	0	0	0	0	0	0
19.61795	0.01557769	0.188964	0	0	0	0	0	0
19.63452	0.01557769	0.188964	0	0	0	0	0	0
19.65109	0.01555138	0.1889459	-0.00158801	-0.001089217	-0.04792624	-0.03287263	0	0
19.66765	0.01557769	0.1889279	0.001588193	-0.001090242	0.09586353	-3.093746E-05	0	0
19.68438	0.01557769	0.1889279	0	0	-0.04770111	0.03274523	0	0
19.70141	0.01557769	0.1889279	0	0	0	0	0	0
19.71741	0.01557769	0.1889279	0	0	0	0	0	0
19.73392	0.01557769	0.1889279	0	0	0	0	0	0
19.75049	0.01557769	0.1889279	0	0	0	0	0	0
19.83456	0.01557769	0.1889279	0	0	0	0	0	0
19.85113	0.01557769	0.1889279	0	0	0	0	0	0
19.86769	0.01557769	0.1889279	0	0	0	0	0	0
19.88452	0.01557769	0.1889279	0	0	0	0	0	0
19.90083	0.01557769	0.1889279	0	0	0	0	0	0
19.91739	0.01557769	0.1889279	0	0	0	0	0	0
19.93396	0.01557769	0.1889279	0	0	0	0	0	0
19.95052	0.01557769	0.1889279	0	0	0	0	0	0
19.96709	0.01557769	0.1889279	0	0	0	0	0	0
19.98366	0.01557769	0.1889279	0	0	0	0	0	0
20.00023	0.01557769	0.1889279	0	0	0	0	0	0
20.01712	0.01557769	0.1889279	0	0	0	0	0	0
20.03336	0.01557769	0.1889279	0	0	0	0	0	0
20.05014	0.01557769	0.1889279	0	0	0	0	0	0
20.06649	0.01557769	0.1889279	0	0	0	0	0	0
20.08306	0.01557769	0.1889279	0	0	0	0	0	0
20.09962	0.01557769	0.1889279	0	0	0	0	0	0
20.11619	0.015604	0.1889098	0.001588066	-0.001089217	0.04792794	-0.03287263	0	0
20.13276	0.015604	0.1889098	0	0	-0.04792794	0.03287263	0	0
20.14933	0.015604	0.1889098	0	0	0	0	0	0
20.16589	0.015604	0.1889098	0	0	0	0	0	0
20.18246	0.015604	0.1889098	0	0	0	0	0	0
20.19925	0.015604	0.1889098	0	0	0	0	0	0
20.21559	0.015604	0.1889098	0	0	0	0	0	0
20.23216	0.015604	0.1889098	0	0	0	0	0	0
20.24873	0.015604	0.1889098	0	0	0	0	0	0
20.2653	0.015604	0.1889098	0	0	0	0	0	0
20.28186	0.015604	0.1889098	0	0	0	0	0	0
20.315	0.015604	0.1889098	0	0	0	0	0	0
20.33156	0.015604	0.1889098	0	0	0	0	0	0
20.3647	0.015604	0.1889098	0	0	0	0	0	0
20.38138	0.015604	0.1889098	0	0	0	0	0	0
20.39789	0.015604	0.1889098	0	0	0	0	0	0
20.4144	0.015604	0.1889098	0	0	0	0	0	0
20.43097	0.015604	0.1889098	0	0	0	0	0	0
20.44753	0.015604	0.1889098	0	0	0	0	0	0
20.4641	0.015604	0.1889098	0	0	0	0	0	0
20.48067	0.015604	0.1889098	0	0	0	0	0	0
20.49723	0.015604	0.1889098	0	0	0	0	0	0
20.51398	0.015604	0.1889098	0	0	0	0	0	0
20.53037	0.015604	0.1889098	0	0	0	0	0	0
20.54694	0.015604	0.1889098	0	0	0	0	0	0
20.56351	0.015604	0.1889098	0	0	0	0	0	0
20.58007	0.015604	0.1889098	0	0	0	0	0	0
20.59664	0.015604	0.1889098	0	0	0	0	0	0
20.61355	0.015604	0.1889098	0	0	0	0	0	0
20.63006	0.015604	0.1889098	0	0	0	0	0	0
20.64634	0.015604	0.1889098	0	0	0	0	0	0
20.6629	0.015604	0.1889098	0	0	0	0	0	0
20.68333	0.015604	0.1889098	0	0	0	0	0	0
20.6999	0.015604	0.1889098	0	0	0	0	0	0
20.71647	0.015604	0.1889098	0	0	0	0	0	0
20.73303	0.015604	0.1889098	0	0	0	0	0	0
20.7496	0.015604	0.1889098	0	0	0	0	0	0
20.76617	0.015604	0.1889098	0	0	0	0	0	0
20.78274	0.015604	0.1889098	0	0	0	0	0	0
20.7993	0.015604	0.1889098	0	0	0	0	0	0
20.81587	0.015604	0.1889098	0	0	0	0	0	0
20.83244	0.015604	0.1889098	0	0	0	0	0	0
20.849	0.015604	0.1889098	0	0	0	0	0	0
20.86573	0.015604	0.1889098	0	0	0	0	0	0
20.88214	0.015604	0.1889098	0	0	0	0	0	0
20.8987	0.015604	0.1889098	0	0	0	0	0	0
20.91527	0.01557769	0.1889279	-0.001588066	0.001089217	-0.04792794	0.03287263	0	0
20.93184	0.01557769	0.1889279	0	0	0.04792794	-0.03287263	0	0
20.94879	0.01557769	0.1889279	0	0	0	0	0	0
20.96497	0.01557769	0.1889279	0	0	0	0	0	0
20.98181	0.01557769	0.1889279	0	0	0	0	0	0
20.9981	0.01557769	0.1889279	0	0	0	0	0	0
21.01467	0.01557769	0.1889279	0	0	0	0	0	0
21.03124	0.01557769	0.1889279	0	0	0	0	0	0
21.04781	0.01557769	0.1889279	0	0	0	0	0	0
21.06437	0.015604	0.1889098	0.001588066	-0.001089217	0.04792794	-0.03287263	0	0
21.08094	0.015604	0.1889098	0	0	-0.0479307	0.03287452	0	0
21.09751	0.015604	0.1889098	0	0	0	0	0	0
21.1144	0.015604	0.1889098	0	0	0	0	0	0
21.13064	0.015604	0.1889098	0	0	0	0	0	0
21.14721	0.015604	0.1889098	0	0	0	0	0	0
21.16394	0.015604	0.1889098	0	0	0	0	0	0
21.18034	0.015604	0.1889098	0	0	0	0	0	0
21.19696	0.01557769	0.1889279	-0.0015826	0.001085468	-0.04792298	0.03286923	0	0
21.21348	0.01555138	0.1889459	-0.001593146	0.001093642	-0.0003182266	0.0002466594	0	0
21.23004	0.01541983	0.1890723	-0.007942963	0.007629851	-0.1919805	0.1976158	0	0
21.24661	0.01484102	0.1896499	-0.03493735	0.03486573	-0.8148329	0.8221225	0	0
21.26317	0.01444636	0.1899929	-0.02382122	0.02070052	0.3354854	-0.4275071	0	0
21.27974	0.01057855	0.1931147	-0.2334615	0.1884363	-6.326957	5.062276	0	0
21.31305	-0.01292033	0.2121248	-0.7055022	0.5707353	-9.464425	7.665102	0	0
21.32944	-0.02341677	0.2221075	-0.6402741	0.6089396	1.312391	0.7686723	0	0
21.34601	-0.03461774	0.2325281	-0.6760921	0.6289872	-1.086681	0.608224	0	0
21.36259	-0.04691292	0.2466324	-0.7417115	0.8508443	-1.979828	6.693733	0	0
21.37914	-0.0577515	0.2545379	-0.6545945	0.4774544	2.629195	-11.26893	0	0
21.39571	-0.07336807	0.2651782	-0.9426183	0.6422476	-8.695075	4.9749	0	0
21.41228	-0.08591953	0.2737704	-0.7576074	0.5186273	5.583639	-3.730865	0	0
21.42885	-0.1038097	0.286042	-1.079853	0.7407178	-9.725386	6.702704	0	0
21.44541	-0.1175347	0.2954818	-0.8284434	0.5697854	7.587551	-5.158751	0	0
21.46216	-0.1222297	0.2987168	-0.2803584	0.193177	16.45222	-11.30489	0	0
21.47867	-0.1446407	0.3142077	-1.357417	0.938269	-32.38639	22.40438	0	0
21.49511	-0.152851	0.3199056	-0.4993122	0.3465194	26.04007	-17.95724	0	0
21.51169	-0.1688761	0.3310318	-0.9664943	0.6710374	-14.14682	9.82678	0	0
21.52825	-0.1757214	0.3357819	-0.4135638	0.2869811	16.68843	-11.59151	0	0
21.54877	-0.1805389	0.3391212	-0.2347155	0.162694	4.823705	-3.352139	0	0
21.56534	-0.1806153	0.3390676	-0.004611408	-0.003232572	6.203569	-4.473353	0	0
21.58191	-0.1806662	0.3390319	-0.003074272	-0.002155048	0.04639086	0.03251974	0	0
21.59847	-0.1806662	0.3390319	0	0	0.09278171	0.06503949	0	0
21.61504	-0.1807426	0.3389783	-0.004611939	-0.003234744	-0.1391966	-0.09763038	0	0
21.63178	-0.1808699	0.338889	-0.007605971	-0.00533415	-0.0898995	-0.06303725	0	0
21.64829	-0.1809209	0.3388533	-0.00308457	-0.002162267	0.1359787	0.09539264	0	0
21.6648	-0.1809973	0.3387997	-0.004626855	-0.003245206	-0.04670217	-0.03279264	0	0
21.68131	-0.1813283	0.3385676	-0.02004841	-0.01405997	-0.4670096	-0.3275026	0	0
21.69787	-0.181761	0.338264	-0.02613736	-0.01833386	-0.1841358	-0.1292466	0	0
21.71444	-0.1826773	0.3376212	-0.05530541	-0.03880346	-0.880547	-0.6179516	0	0
21.731	-0.1847378	0.336139	-0.1243695	-0.08946329	-2.084358	-1.528916	0	0
21.74757	-0.1847123	0.3361569	0.001535337	0.001077524	3.799815	2.732527	0	0
21.76414	-0.1847123	0.3361569	0	0	-0.04633657	-0.03251974	0	0
21.7807	-0.1846869	0.336139	0.001534438	-0.001077524	0.04630942	-0.03251974	0	0
21.79727	-0.1846615	0.3360855	0.001535337	-0.003232572	2.714469E-05	-0.06503949	0	0
21.81384	-0.1846106	0.3360497	0.003069775	-0.002156847	0.04630942	0.03246545	0	0
21.83041	-0.1844835	0.3358533	0.007674886	-0.01185636	0.1389825	-0.292732	0	0
21.84697	-0.1847886	0.335389	-0.01841865	-0.02802462	-0.7875044	-0.487959	0	0
21.86354	-0.1854751	0.3348711	-0.04143431	-0.03125899	-0.6946142	-0.09761347	0	0
21.88011	-0.1919748	0.3302639	-0.3923231	-0.2780948	-10.58985	-7.449518	0	0
21.89697	-0.1985087	0.325585	-0.3875168	-0.2774993	0.143781	0.01781371	0	0
21.91324	-0.2058577	0.3202449	-0.4515977	-0.3281433	-1.933964	-1.528439	0	0
21.92981	-0.2095113	0.3175479	-0.2205282	-0.1627925	7.036064	5.034931	0	0
21.94651	-0.2116252	0.3159761	-0.1266073	-0.09413911	2.823486	2.063885	0	0
21.96294	-0.2117258	0.3155831	-0.00612091	-0.02390708	3.636286	2.119606	0	0
21.97951	-0.2116504	0.3154938	0.004554743	-0.005391219	0.323458	0.5610059	0	0
21.99656	-0.2116001	0.3154581	0.002950554	-0.002095802	-0.04771957	0.09802822	0	0
22.01305	-0.2115246	0.3154045	0.004575286	-0.003248959	0.04843783	-0.03437885	0	0
22.02921	-0.2115246	0.3154045	0	0	-0.1401313	0.09950872	0	0
22.04578	-0.2114995	0.3153866	0.001519322	-0.001077648	0.04643054	-0.03293297	0	0
22.06234	-0.2114995	0.3153866	0	0	-0.04585587	0.03252536	0	0
22.0791	-0.2114995	0.3153866	0	0	0	0	0	0
22.09548	-0.2114995	0.3153866	0	0	0	0	0	0
22.11204	-0.2114995	0.3153866	0	0	0	0	0	0
22.17831	-0.2114995	0.3153866	0	0	0	0	0	0
22.21169	-0.2114491	0.3153509	0.001506885	-0.001070352	0.01512157	-0.01074097	0	0
22.22801	-0.2114491	0.3153509	0	0	-0.03031974	0.02153636	0	0
22.24458	-0.2113988	0.3153152	0.003036496	-0.002156847	0.09234328	-0.06559218	0	0
22.26123	-0.2113234	0.3152616	0.004532682	-0.00321807	0.04504091	-0.03194685	0	0
22.27774	-0.2111724	0.3151544	0.00914271	-0.006490412	0.1390109	-0.09867428	0	0
22.29428	-0.2109208	0.3149758	0.015215	-0.01080234	0.1837381	-0.1304721	0	0
22.31084	-0.2104427	0.3146364	0.0288602	-0.02048555	0.4121925	-0.2925094	0	0
22.32741	-0.209612	0.3140469	0.05013328	-0.03557579	0.641986	-0.455398	0	0
22.34398	-0.2079246	0.3128501	0.1018647	-0.07225101	1.561259	-1.10686	0	0
22.36055	-0.2076726	0.3126714	0.01520856	-0.01078244	-2.615439	1.855232	0	0
22.37711	-0.2072442	0.3123677	0.02585788	-0.0183305	0.3213972	-0.2278011	0	0
22.39368	-0.2042181	0.310224	0.1826556	-0.1293947	4.732165	-3.351923	0	0
22.41025	-0.1968135	0.3049892	0.4469432	-0.3159754	7.976213	-5.631019	0	0
22.43178	-0.1772006	0.29112	0.9109487	-0.6441741	12.17946	-8.614731	0	0
22.44835	-0.1624761	0.2807838	0.8887758	-0.6238955	-0.5820066	0.5322841	0	0
22.46491	-0.1403604	0.265393	1.334906	-0.9289877	13.46423	-9.207704	0	0
22.48148	-0.1226704	0.25314	1.067768	-0.7395935	-8.062223	5.71593	0	0
22.49805	-0.1107814	0.2449645	0.7176226	-0.4934746	-10.56742	7.427883	0	0
22.51491	-0.0874344	0.2288822	1.384209	-0.9534943	19.93743	-13.75907	0	0
22.53118	-0.07072395	0.2173964	1.027332	-0.7061307	-10.77117	7.465877	0	0
22.54775	-0.05024714	0.2033733	1.235983	-0.8464357	6.354875	-4.273279	0	0
22.56445	-0.03645752	0.1939446	0.825689	-0.5645691	-12.33299	8.472611	0	0
22.58096	-0.02362718	0.1852082	0.7770354	-0.5290986	-1.464911	1.067983	0	0
22.59747	-0.008368226	0.1749052	0.924011	-0.6238982	4.450336	-2.870477	0	0
22.61401	0.002263154	0.1676654	0.6427473	-0.4377009	-8.509126	5.633065	0	0
22.63058	0.01444636	0.1593837	0.73538	-0.4998867	2.797914	-1.878284	0	0
22.64715	0.02254881	0.1539409	0.4890646	-0.328527	-7.433813	5.171644	0	0
22.66402	0.03204166	0.1479298	0.5626258	-0.356268	2.199821	-0.8295839	0	0
22.68028	0.03798173	0.1439673	0.3652715	-0.2436619	-5.956166	3.398461	0	0
22.69685	0.04134485	0.1416395	0.2029984	-0.1405117	-4.942937	3.142017	0	0
22.71342	0.04827825	0.1369079	0.4185008	-0.2855979	6.503875	-4.37871	0	0
22.73007	0.05197945	0.134413	0.2222538	-0.1498128	-5.907443	4.087413	0	0
22.74658	0.05644	0.1313521	0.2701409	-0.1853793	1.443904	-1.07241	0	0
22.76312	0.06047879	0.1285811	0.2442319	-0.167566	-0.7839657	0.5390025	0	0
22.77969	0.06045257	0.1285993	-0.001582782	0.00110091	-7.42554	5.095069	0	0
22.79625	0.06045257	0.1285993	0	0	0.04776846	-0.03322552	0	0
22.81313	0.06045257	0.1285993	0	0	0	0	0	0
22.82964	0.06045257	0.1285993	0	0	0	0	0	0
22.84595	0.06045257	0.1285993	0	0	0	0	0	0
22.86252	0.06042635	0.1286176	-0.001582557	0.00110001	-0.04813296	0.03345644	0	0
22.87909	0.06040013	0.1286358	-0.001582557	0.00110091	0	2.714469E-05	0	0
22.89569	0.06037391	0.128654	-0.001579328	0.001098507	9.736987E-05	-7.24413E-05	0	0
22.91222	0.06026903	0.1286905	-0.006344332	0.002205744	-0.1438081	0.0334165	0	0
22.92879	0.06021659	0.128727	-0.00316534	0.002201819	0.09604724	-0.0001185952	0	0
22.94536	0.06016415	0.1287634	-0.00316534	0.00220092	0	-2.714469E-05	0	0
22.96192	0.0601117	0.1287999	-0.003165564	0.00220092	-6.78793E-06	0	0	0
22.97849	0.06005926	0.1288364	-0.00316534	0.002201819	6.78793E-06	2.714469E-05	0	0
22.99506	0.0599806	0.1288911	-0.004748122	0.003301829	-0.04776846	0.03319837	0	0
23.01163	0.0599806	0.1288911	0	0	0.1432986	-0.0996494	0	0
23.02819	0.05992816	0.1289275	-0.003165704	0.002201173	-0.09554664	0.06643536	0	0
23.07789	0.0597446	0.1290552	-0.003693225	0.002568288	-0.007960767	0.005540092	0	0
23.09483	0.05971838	0.1290734	-0.001547681	0.001075615	0.03219471	-0.02239812	0	0
23.11102	0.05969216	0.1290917	-0.001619704	0.001126591	-0.002173795	0.001538535	0	0
23.12759	0.05953483	0.129201	-0.009496693	0.006602759	-0.2404688	0.1671765	0	0
23.14416	0.0595086	0.1292193	-0.001582782	0.00110091	0.2388423	-0.1660461	0	0
23.16072	0.0595086	0.1292193	0	0	0.04776846	-0.03322552	0	0
23.17739	0.0595086	0.1292193	0	0	0	0	0	0
23.19386	0.05942993	0.129274	-0.004777724	0.0033221	-0.144192	0.1002612	0	0
23.21043	0.05940371	0.1292922	-0.001582782	0.00110001	0.09671862	-0.06726802	0	0
23.22699	0.05924637	0.1294016	-0.009496919	0.006603658	-0.2388491	0.1661004	0	0
23.24356	0.0591677	0.1294563	-0.004749118	0.00330131	0.1432972	-0.09967081	0	0
23.26407	0.05914148	0.1294745	-0.001278475	0.0008891213	0.09360167	-0.06505563	0	0
23.28097	0.05914148	0.1294745	0	0	0.03417576	-0.02376769	0	0
23.29721	0.05914148	0.129511	0	0.002245383	0	0.06776578	0	0
23.31377	0.05914148	0.129511	0	0	0	-0.06844344	0	0
23.33034	0.05908903	0.1295475	-0.003165425	0.002200666	-0.09552722	0.06641241	0	0
23.34691	0.05906281	0.1295657	-0.001582965	0.001100137	0.04775875	-0.03321404	0	0
23.36348	0.05906281	0.1295657	0	0	0.04777671	-0.0332041	0	0
23.38004	0.05901036	0.1296021	-0.003165789	0.00220092	-0.09554371	0.06642389	0	0
23.39661	0.05898413	0.1296204	-0.001583007	0.00110091	0.04776846	-0.03319837	0	0
23.41318	0.05895791	0.1296386	-0.001582782	0.00110001	6.78793E-06	-2.714469E-05	0	0
23.43008	0.05895791	0.1296386	0	0	0.04729475	-0.03286915	0	0
23.44631	0.05890546	0.1296751	-0.003230883	0.002246174	-0.09751386	0.06779357	0	0
23.4631	0.05890546	0.129748	0	0.004343828	0.09784054	0.06352307	0	0
23.47944	0.05877433	0.1299121	-0.008022878	0.01003891	-0.2421449	0.1718879	0	0
23.49601	0.05835472	0.1303131	-0.02532766	0.02420742	-0.5258007	0.4305058	0	0
23.51263	0.05793509	0.1306777	-0.02524183	0.02192986	0.00258591	-0.06861842	0	0
23.52915	0.0558891	0.132245	-0.1239098	0.09492228	-2.977635	2.202789	0	0
23.54571	0.05499712	0.1329739	-0.05385286	0.04400244	2.118104	-1.539511	0	0
23.56228	0.05546936	0.133484	0.02850447	0.03079129	2.485835	-0.3987592	0	0
23.57884	0.05696462	0.1345223	0.09025434	0.06267359	1.863615	0.9622098	0	0
23.59541	0.06110803	0.1373994	0.2500969	0.1736622	4.824059	3.349643	0	0
23.61198	0.06587821	0.1406753	0.2879285	0.1977302	1.14176	0.7263736	0	0
23.62855	0.06999075	0.1435309	0.2482335	0.1723679	-1.197998	-0.7654357	0	0
23.64511	0.07446731	0.1467486	0.2702054	0.1942197	0.6631122	0.6594884	0	0
23.66168	0.07849628	0.149583	0.243217	0.1711041	-0.8145571	-0.69767	0	0
23.67825	0.08050981	0.1511994	0.1214812	0.0975232	-3.673359	-2.220292	0	0
23.69481	0.08061439	0.1512721	0.006315877	0.004387275	-3.475897	-2.81101	0	0
23.71138	0.08058824	0.1513266	-0.00157806	0.003287438	-0.2383081	-0.03320271	0	0
23.72795	0.08061439	0.1513447	0.00157806	0.001096412	0.0952519	-0.06612529	0	0
23.74451	0.08061439	0.1513447	0	0	-0.04762595	-0.03308979	0	0
23.76108	0.08061439	0.1513447	0	0	0	0	0	0
23.77765	0.08061439	0.1513447	0	0	0	0	0	0
23.79422	0.08061439	0.1513447	0	0	0	0	0	0
23.81085	0.08061439	0.1513447	0	0	0	0	0	0
23.82736	0.0805621	0.151381	-0.003166693	0.002199268	-0.09555998	0.0663664	0	0
23.84392	0.08045752	0.1514537	-0.006317782	0.004388286	-0.09529755	0.0662019	0	0
23.96996	0.05140205	0.1779978	-0.2305232	0.2105981	-1.57232	1.446119	0	0
23.98652	0.05011589	0.1788837	-0.07763256	0.05347326	1.072099	-1.10179	0	0
24.00309	0.0501684	0.1788475	0.003168938	-0.002182931	2.438594	-1.679707	0	0
24.01966	0.0501684	0.1788837	0	0.002183182	-0.09564423	0.1317771	0	0
24.03651	0.0502209	0.1790283	0.003115142	0.008581725	0.09321564	0.1914662	0	0
24.05279	0.05024714	0.1796971	0.001612387	0.04108633	-0.04535585	0.9810476	0	0
24.06954	0.05029964	0.1799863	0.003134788	0.01726936	0.04609741	-0.7211639	0	0
24.08592	0.05029964	0.180131	0	0.008824524	-0.09460808	-0.2548657	0	0
24.10249	0.05008965	0.1803478	-0.0126753	0.01309129	-0.3846225	0.1294718	0	0
24.11907	0.0473593	0.1822635	-0.1646903	0.1155481	-4.586238	3.091084	0	0
24.13563	0.03666777	0.1896138	-0.6457882	0.4439732	-14.51956	9.911891	0	0
24.15219	0.03267258	0.1923569	-0.24115	0.1655762	12.21622	-8.40494	0	0
24.16876	0.02778232	0.1957123	-0.2951765	0.2025269	-1.630524	1.115172	0	0
24.18533	0.02662528	0.1965058	-0.06983895	0.04789586	6.800702	-4.666773	0	0
24.21846	0.02520519	0.1974434	-0.04286109	0.02830058	0.5428163	-0.394273	0	0
24.23516	0.02520519	0.1974434	0	0	0.8601882	-0.5679702	0	0
24.25159	0.02523149	0.1974254	0.001599917	-0.001096905	0.04828838	-0.03310656	0	0
24.27131	0.02523149	0.1973893	0	-0.001829165	-0.04425543	-0.02025511	0	0
24.28787	0.02523149	0.1973533	0	-0.002176635	0	-0.009577027	0	0
24.30444	0.02525778	0.1973352	0.001587392	-0.001088317	0.04790758	0.03284548	0	0
24.32101	0.02525778	0.1973352	0	0	-0.04791034	0.03284737	0	0
24.33757	0.02525778	0.1973352	0	0	0	0	0	0
24.35424	0.02525778	0.1973352	0	0	0	0	0	0
24.37071	0.02523149	0.1973172	-0.001596767	-0.001094745	-0.04819331	-0.03304138	0	0
24.38727	0.02523149	0.1973172	0	0	0.04833243	0.03313676	0	0
24.40384	0.02523149	0.1973172	0	0	0	0	0	0
24.42041	0.02523149	0.1972812	0	-0.002176635	0	-0.06569096	0	0
24.44849	0.02523149	0.1972812	0	0	0	0.04874769	0	0
24.46506	0.02520519	0.1972631	-0.001587392	-0.001088317	-0.03555107	-0.02437385	0	0
24.48183	0.02523149	0.1972451	0.001568432	-0.001075319	0.09467074	0.0003899482	0	0
24.49819	0.02520519	0.197191	-0.001607003	-0.003306199	-0.09584034	-0.06733198	0	0
24.51476	0.02520519	0.1971549	0	-0.002176635	0.0487972	0.03429961	0	0
24.53133	0.02520519	0.1971189	0	-0.002176635	0	0	0	0
24.54789	0.02520519	0.1971189	0	0	0	0.06569096	0	0
24.56446	0.02517889	0.1971008	-0.001587392	-0.001088317	-0.04790758	-0.03284548	0	0
24.58142	0.02517889	0.1971008	0	0	0.04734075	0.03245687	0	0
24.59791	0.02517889	0.1971008	0	0	0	0	0	0
24.61416	0.02520519	0.1970828	0.00161813	-0.001109391	0.04942995	-0.03388922	0	0
24.63093	0.02520519	0.1970828	0	0	-0.04899602	0.03359172	0	0
24.64729	0.02517889	0.1970648	-0.001607565	-0.001102148	-0.04851921	-0.03326481	0	0
24.66386	0.02517889	0.1970648	0	0	0.04882275	0.03347292	0	0
24.68047	0.02517889	0.1970648	0	0	0	0	0	0
24.69699	0.02517889	0.1970648	0	0	0	0	0	0
24.71356	0.02515259	0.1970467	-0.001587504	-0.001088317	-0.04797173	-0.03288713	0	0
24.73013	0.02515259	0.1970467	0	0	0.04791097	0.03284548	0	0
24.74669	0.02515259	0.1970467	0	0	0	0	0	0
24.77983	0.02512629	0.1970287	-0.0007936959	-0.0005446084	-0.01596919	-0.01095754	0	0
24.7964	0.02509999	0.1970107	-0.001587392	-0.001088317	-0.01596919	-0.01093945	0	0
24.81306	0.02512629	0.1969926	0.001577945	-0.001081841	0.09524497	0.0001948788	0	0
24.82957	0.02512629	0.1969926	0	0	-0.04755952	0.03260685	0	0
24.8461	0.02512629	0.1969926	0	0	0	0	0	0
24.86266	0.02509999	0.1969746	-0.001587392	-0.001088317	-0.04797386	-0.03289092	0	0
24.87923	0.02509999	0.1969746	0	0	0.04790758	0.03284548	0	0
24.8958	0.02512629	0.1969566	0.001587392	-0.001088317	0.04790758	-0.03284548	0	0
24.91263	0.02509999	0.1969385	-0.001562035	-0.001070933	-0.09428463	0.0005204386	0	0
24.92893	0.02509999	0.1969385	0	0	0.04714503	0.03232268	0	0
24.9455	0.02509999	0.1969385	0	0	0	0	0	0
24.96206	0.02509999	0.1969385	0	0	0	0	0	0
24.97868	0.02509999	0.1969385	0	0	0	0	0	0
24.9952	0.02509999	0.1969385	0	0	0	0	0	0
25.0155	0.02509999	0.1969385	0	0	0	0	0	0
25.03222	0.02509999	0.1969385	0	0	0	0	0	0
25.04874	0.02507369	0.1969205	-0.001591974	-0.001091459	-0.04789424	-0.03283633	0	0
25.0652	0.02507369	0.1969205	0	0	0.04826815	0.03309269	0	0
25.08177	0.02507369	0.1969205	0	0	0	0	0	0
25.09833	0.02507369	0.1969205	0	0	0	0	0	0
25.1149	0.02507369	0.1969205	0	0	0	0	0	0
25.13147	0.02507369	0.1969205	0	0	0	0	0	0
25.14803	0.02509999	0.1969025	0.001587392	-0.001088317	0.04790758	-0.03284548	0	0
25.16481	0.02509999	0.1969025	0	0	-0.04760069	0.03263508	0	0
25.18117	0.02507369	0.1968845	-0.001608128	-0.001102534	-0.04853339	-0.03327454	0	0
25.19773	0.02507369	0.1968845	0	0	0.04884832	0.03349045	0	0
25.2143	0.02507369	0.1968845	0	0	0	0	0	0
25.23087	0.02504739	0.1968664	-0.001587504	-0.001089217	-0.04791097	-0.03287263	0	0
25.24743	0.02504739	0.1968664	0	0	0.04791373	0.03287452	0	0
25.264	0.02504739	0.1968303	0	-0.002176635	0	-0.06569475	0	0
25.28057	0.02504739	0.1967943	0	-0.002176635	0	0	0	0
25.29741	0.02504739	0.1967582	0	-0.002141381	0	0.001055283	0	0
25.3137	0.02504739	0.1967221	0	-0.002214243	0	-0.002199114	0	0
25.33027	0.02504739	0.1966861	0	-0.002176635	0	0.001144505	0	0
25.34684	0.02496849	0.1965959	-0.004762288	-0.005442487	-0.1437261	-0.0985636	0	0
25.36346	0.02496849	0.1965959	0	0	0.1434949	0.1639903	0	0
25.37997	0.02496849	0.1965599	0	-0.002183926	0	-0.06591482	0	0
25.4131	0.02491589	0.1965238	-0.001587448	-0.001088767	-0.0319751	0.0220592	0	0
25.42967	0.02491589	0.1965238	0	0	0.03193952	0.02190604	0	0
25.44624	0.0248896	0.1965058	-0.001587392	-0.001088317	-0.04790758	-0.03284548	0	0
25.46303	0.0248896	0.1965058	0	0	0.04758708	0.03262575	0	0
25.47937	0.0248896	0.1965058	0	0	0	0	0	0
25.49605	0.0248896	0.1965058	0	0	0	0	0	0
25.5125	0.0248896	0.1965058	0	0	0	0	0	0
25.52907	0.0248896	0.1964697	0	-0.002176134	0	-0.06589586	0	0
25.54564	0.0248633	0.1964517	-0.001587757	-0.001088568	-0.04791862	0.0328228	0	0
25.5622	0.0248896	0.1964336	0.001587392	-0.001089217	0.09583723	-1.958255E-05	0	0
25.57877	0.024837	0.1963976	-0.003174896	-0.002176635	-0.1437261	-0.03281834	0	0
25.59562	0.0248633	0.1963795	0.001560731	-0.001069963	0.1417061	0.03311538	0	0
25.6119	0.0248107	0.1963435	-0.003230687	-0.002215799	-0.1446136	-0.03458339	0	0
25.62847	0.0247844	0.1963254	-0.001587504	-0.001088317	0.0500233	0.03432384	0	0
25.64516	0.0248107	0.1963074	0.001576253	-0.001080604	0.09514282	0.0002319574	0	0
25.6616	0.0247844	0.1962894	-0.001599103	-0.001096269	-0.09583795	-0.0004727826	0	0
25.67818	0.0247581	0.1962713	-0.001586661	-0.001088716	0.000376766	0.0002287311	0	0
25.69474	0.0247318	0.1962533	-0.001588419	-0.001088944	-5.304518E-05	-6.90427E-06	0	0
25.7113	0.0247055	0.1962353	-0.001587392	-0.001088317	3.100081E-05	1.892522E-05	0	0
25.72787	0.0246266	0.1961451	-0.0047624	-0.005442487	-0.09582195	-0.1314091	0	0
25.74444	0.02389019	0.1956401	-0.04444967	-0.03048098	-1.197764	-0.7556633	0	0
25.79761	0.02220687	0.1944858	-0.03165733	-0.02170927	0.1834283	0.1257769	0	0
25.81428	0.02223318	0.1944677	0.001578281	-0.001081841	0.4758857	0.2953548	0	0
25.83075	0.02223318	0.1944677	0	0	-0.0476326	0.03265002	0	0
25.84733	0.02223318	0.1944677	0	0	0	0	0	0
25.86388	0.02223318	0.1944677	0	0	0	0	0	0
25.88895	0.02225948	0.1944497	0.001049231	-0.0007198461	0.02520962	-0.01729557	0	0
25.90551	0.02225948	0.1944497	0	0	-0.02520038	0.01728923	0	0
25.92208	0.02225948	0.1944497	0	0	0	0	0	0
25.93886	0.02225948	0.1944497	0	0	0	0	0	0
25.95522	0.02225948	0.1944497	0	0	0	0	0	0
25.97178	0.02225948	0.1944497	0	0	0	0	0	0
25.9884	0.02225948	0.1944497	0	0	0	0	0	0
26.00492	0.02225948	0.1944497	0	0	0	0	0	0
26.02148	0.02225948	0.1944497	0	0	0	0	0	0
26.03844	0.02225948	0.1944497	0	0	0	0	0	0
26.05462	0.02225948	0.1944497	0	0	0	0	0	0
26.07118	0.02225948	0.1944497	0	0	0	0	0	0
26.08775	0.02225948	0.1944497	0	0	0	0	0	0
26.10432	0.02225948	0.1944497	0	0	0	0	0	0
26.12088	0.02225948	0.1944497	0	0	0	0	0	0
26.13751	0.02225948	0.1944497	0	0	0	0	0	0
26.15402	0.02225948	0.1944497	0	0	0	0	0	0
26.17058	0.02225948	0.1944497	0	0	0	0	0	0
26.18715	0.02225948	0.1944497	0	0	0	0	0	0
26.20372	0.02225948	0.1944497	0	0	0	0	0	0
26.22028	0.02225948	0.1944497	0	0	0	0	0	0
26.23685	0.02225948	0.1944497	0	0	0	0	0	0
26.25359	0.02225948	0.1944497	0	0	0	0	0	0
26.2701	0.02225948	0.1944497	0	0	0	0	0	0
26.28655	0.02225948	0.1944497	0	0	0	0	0	0
26.30313	0.02225948	0.1944497	0	0	0	0	0	0
26.31968	0.02225948	0.1944497	0	0	0	0	0	0
26.33665	0.02225948	0.1944497	0	0	0	0	0	0
26.35282	0.02225948	0.1944497	0	0	0	0	0	0
26.36938	0.02225948	0.1944497	0	0	0	0	0	0
26.38618	0.02225948	0.1944497	0	0	0	0	0	0
26.40252	0.02225948	0.1944497	0	0	0	0	0	0
26.41921	0.02225948	0.1944497	0	0	0	0	0	0
26.43572	0.02225948	0.1944497	0	0	0	0	0	0
26.45222	0.02225948	0.1944497	0	0	0	0	0	0
26.46879	0.02225948	0.1944497	0	0	0	0	0	0
26.48535	0.02223318	0.1944677	-0.001587617	0.001089217	-0.04791437	0.03287263	0	0
26.50192	0.02223318	0.1944677	0	0	0.04791437	-0.03287263	0	0
26.51849	0.02223318	0.1944677	0	0	0	0	0	0
26.53506	0.02225948	0.1944497	0.001587617	-0.001089217	0.04791437	-0.03287263	0	0
26.5518	0.02225948	0.1944497	0	0	-0.04765377	0.03269384	0	0
26.56832	0.02225948	0.1944497	0	0	0	0	0	0
26.61789	0.02315376	0.1938003	0.01804061	-0.0131008	0.2729955	-0.1982449	0	0
26.63445	0.02715122	0.1908772	0.2412875	-0.1764351	3.375506	-2.469625	0	0
26.65102	0.0343549	0.1856055	0.4348148	-0.3182024	5.840667	-4.278545	0	0
26.66759	0.03987359	0.181631	0.333109	-0.2399002	-3.069489	2.363165	0	0
26.6844	0.04930212	0.1748509	0.5609059	-0.4033486	6.825028	-4.89708	0	0
26.70072	0.06205181	0.1649302	0.7810834	-0.607772	6.645354	-6.169867	0	0
26.71742	0.06697861	0.1504548	0.2950046	-0.8667503	-14.71903	-7.842164	0	0
26.73715	0.06608783	0.1316437	-0.04514959	-0.9534482	-9.337109	-2.379827	0	0
26.75395	0.06524935	0.1222679	-0.0499268	-0.5582756	-0.1307972	10.81959	0	0
26.77029	0.06375558	0.1039213	-0.09141637	-1.122784	-1.252158	-17.03688	0	0
26.78685	0.06218288	0.08761816	-0.09493896	-0.984174	-0.1070514	4.212343	0	0
26.80348	0.06118669	0.07656839	-0.05990308	-0.664441	1.055441	9.631816	0	0
26.81999	0.06123912	0.06619217	0.00317696	-0.6286986	1.903759	1.07871	0	0
26.83655	0.06068854	0.05273009	-0.03323686	-0.8126658	-1.101126	-5.563028	0	0
26.85312	0.0612129	0.04281227	0.0316507	-0.5986412	1.958423	6.459647	0	0
26.86969	0.06244502	0.02844639	0.07437076	-0.8671261	1.289294	-8.102892	0	0
26.88625	0.06286442	0.01741449	0.02531507	-0.6658871	-1.480503	6.073405	0	0
26.90305	0.06336243	0.01038464	0.02964368	-0.4184453	0.1297267	7.415728	0	0
26.91939	0.06346728	-0.007301065	0.006419333	-1.082845	-0.7009526	-20.05277	0	0
26.93608	0.06349349	-0.01362692	0.001570536	-0.3790363	-0.1468357	21.31337	0	0
26.95252	0.06367695	-0.02341407	0.01115605	-0.595139	0.2892915	-6.521994	0	0
26.9691	0.06270715	-0.0290123	-0.0584904	-0.3376378	-2.108854	7.796987	0	0
26.98565	0.06084585	-0.0350013	-0.1124387	-0.3617882	-1.628163	-0.7288623	0	0
27.00222	0.05963971	-0.03591494	-0.07280259	-0.05514733	1.196702	9.25817	0	0
27.01879	0.05956105	-0.03585783	-0.004748347	0.003447088	2.053881	1.768383	0	0
27.03565	0.05958727	-0.03587687	0.001555209	-0.001129012	0.1885701	-0.1368934	0	0
27.05192	0.05958727	-0.03587687	0	0	-0.046939	0.03407562	0	0
27.06849	0.05958727	-0.03587687	0	0	0	0	0	0
27.08506	0.05958727	-0.03587687	0	0	0	0	0	0
27.1017	0.05956105	-0.03585783	-0.001575888	0.001144024	-0.04745659	0.03445137	0	0
27.11821	0.05956105	-0.03585783	0	0	0.04753577	-0.03450885	0	0
27.13476	0.05956105	-0.03585783	0	0	0	0	0	0
27.15132	0.05956105	-0.03585783	0	0	0	0	0	0
27.16789	0.05956105	-0.03585783	0	0	0	0	0	0
27.18476	0.05956105	-0.03585783	0	0	0	0	0	0
27.21759	0.05956105	-0.03585783	0	0	0	0	0	0
27.23429	0.05956105	-0.03585783	0	0	0	0	0	0
27.25072	0.05958727	-0.03587687	0.001595827	-0.001158499	0.04816492	-0.03496558	0	0
27.26731	0.05958727	-0.03587687	0	0	-0.04832628	0.03508272	0	0
27.28386	0.05961349	-0.0358959	0.001585155	-0.001150752	0.04784282	-0.03473175	0	0
27.30042	0.05963971	-0.03591494	0.001582782	-0.001149029	-7.165364E-05	5.201648E-05	0	0
27.31699	0.05971838	-0.03593398	0.004748347	-0.001149029	0.09553692	0	0	0
27.33386	0.05992816	-0.03608628	0.01243442	-0.009027655	0.2298622	-0.2356208	0	0
27.35013	0.06019036	-0.03627666	0.01612015	-0.01170478	0.1112293	-0.08079111	0	0
27.39982	0.07535703	-0.04716782	0.3051774	-0.2191473	4.382062	-3.144796	0	0
27.41639	0.08291473	-0.05265715	0.4561835	-0.3313364	2.278818	-1.693035	0	0
27.43296	0.08876612	-0.05694869	0.3532311	-0.2590678	-3.107288	2.181197	0	0
27.44952	0.09038464	-0.05813765	0.09769402	-0.07176599	-7.712569	5.653105	0	0
27.46609	0.09755774	-0.06326351	0.4329691	-0.3093972	10.11862	-7.171723	0	0
27.48266	0.1001376	-0.06505108	0.15574	-0.1079106	-8.367273	6.081228	0	0
27.49922	0.1009191	-0.0655895	0.04717316	-0.03249887	-3.276741	2.27606	0	0
27.51579	0.1008931	-0.06557027	-0.001572845	0.001160856	-1.471242	1.015911	0	0
27.53236	0.1008931	-0.06557027	0	0	0.04747128	-0.03503671	0	0
27.54901	0.1008931	-0.06557027	0	0	0	0	0	0
27.56552	0.1008931	-0.06557027	0	0	0	0	0	0
27.58206	0.1008931	-0.06557027	0	0	0	0	0	0
27.59863	0.1008931	-0.06557027	0	0	0	0	0	0
27.6358	0.1008931	-0.06557027	0	0	0	0	0	0
27.65259	0.1008931	-0.06557027	0	0	0	0	0	0
27.6691	0.1008931	-0.06557027	0	0	0	0	0	0
27.68564	0.1008931	-0.06557027	0	0	0	0	0	0
27.70207	0.1008931	-0.06557027	0	0	0	0	0	0
27.71863	0.1008931	-0.06557027	0	0	0	0	0	0
27.7352	0.1008931	-0.06557027	0	0	0	0	0	0
27.75177	0.1008931	-0.06557027	0	0	0	0	0	0
27.76834	0.1008931	-0.06557027	0	0	0	0	0	0
27.7849	0.1008931	-0.06557027	0	0	0	0	0	0
27.80147	0.1008931	-0.06557027	0	0	0	0	0	0
27.81804	0.1008931	-0.06557027	0	0	0	0	0	0
27.8346	0.1008931	-0.06557027	0	0	0	0	0	0
27.85117	0.1008931	-0.06557027	0	0	0	0	0	0
27.86774	0.1008931	-0.06557027	0	0	0	0	0	0
27.88431	0.1008931	-0.06557027	0	0	0	0	0	0
27.90087	0.100867	-0.06555104	-0.001572214	0.001160722	-0.04744951	0.03503066	0	0
27.91744	0.100867	-0.06555104	0	0	0.04744951	-0.03503066	0	0
27.93401	0.100841	-0.06553181	-0.001572214	0.001160722	-0.04744951	0.03503066	0	0
27.99237	0.100841	-0.06553181	0	0	0.02098345	-0.0154915	0	0
28.00894	0.100815	-0.06551258	-0.001572033	0.001160588	-0.0209805	0.01548932	0	0
28.0255	0.100815	-0.06551258	0	0	0.04744405	-0.03502662	0	0
28.10842	0.1007889	-0.06549335	-0.0003142361	0.0002319255	-0.003158797	0.002331385	0	0
28.12493	0.1007889	-0.06549335	0	0	0.003160493	-0.002332638	0	0
28.14147	0.1007889	-0.06549335	0	0	0	0	0	0
28.15804	0.1007889	-0.06549335	0	0	0	0	0	0
28.1746	0.1007889	-0.06549335	0	0	0	0	0	0
28.19117	0.1007889	-0.06549335	0	0	0	0	0	0
28.20774	0.1007889	-0.06549335	0	0	0	0	0	0
28.2243	0.1007629	-0.06547412	-0.001572214	0.001160722	-0.04744951	0.03503066	0	0
28.24101	0.1007368	-0.06545489	-0.001559111	0.001151048	0.0003938053	-0.0002907331	0	0
28.25744	0.1007107	-0.06543566	-0.001586177	0.001170696	-0.000816914	0.0005929943	0	0
28.274	0.1005284	-0.06530105	-0.0110064	0.008125054	-0.285519	0.2107808	0	0
28.30714	0.09932993	-0.06433976	-0.03617222	0.02901342	-0.5063568	0.4202909	0	0
28.34027	0.09101104	-0.05706373	-0.2510645	0.219591	-3.242824	2.875904	0	0
28.35709	0.08291473	-0.04898371	-0.481324	0.4803558	-4.609306	5.219956	0	0
28.3734	0.07716228	-0.04084956	-0.3526592	0.4986713	3.883337	0.5527936	0	0
28.38997	0.07368216	-0.02960118	-0.2100606	0.6789536	4.33709	5.483228	0	0
28.40654	0.07376067	-0.01098177	0.004739128	1.123869	6.482667	13.42758	0	0
28.42311	0.07328955	0.004017237	-0.02843701	0.9053421	-1.001258	-6.595168	0	0
28.43967	0.07328955	0.0238508	0	1.197156	0.8582308	8.806971	0	0
28.45624	0.07281839	0.03780638	-0.02843926	0.8423604	-0.8582987	-10.70776	0	0
28.47281	0.07268751	0.04678991	-0.007900195	0.5422469	0.6198703	-9.057442	0	0
28.48937	0.07208541	0.06327029	-0.03634261	0.9947574	-0.8583937	13.65679	0	0
28.5062	0.07153562	0.0754065	-0.03267029	0.7211686	0.1099634	-8.192319	0	0
28.52251	0.07095961	0.09057841	-0.03532531	0.9304538	-0.0801286	6.316238	0	0
28.53908	0.0706454	0.1016666	-0.01896551	0.6692837	0.4976646	-7.944782	0	0
28.55564	0.06996457	0.1129844	-0.04109522	0.6831436	-0.6678762	0.4182898	0	0
28.57225	0.06865509	0.1257356	-0.07884954	0.7678112	-1.138052	2.552189	0	0
28.58878	0.06747635	0.1313339	-0.07132919	0.3387671	0.2269776	-12.94932	0	0
28.60534	0.06446319	0.1459853	-0.1818749	0.8843613	-3.340508	16.48695	0	0
28.64242	0.05977083	0.1639699	-0.126564	0.4850872	1.031108	-7.443274	0	0
28.65899	0.0558104	0.1697477	-0.2390516	0.3487473	-2.096996	-2.541651	0	0
28.67555	0.05431494	0.1739645	-0.09026603	0.2545269	4.490357	-2.843577	0	0
28.69212	0.05106084	0.1806913	-0.1964181	0.4060287	-3.203677	4.572336	0	0
28.70869	0.04791068	0.1828236	-0.1901443	0.1287084	0.1893434	-8.369546	0	0
28.72536	0.04405043	0.1854791	-0.2315386	0.1592763	-1.245338	0.9196308	0	0
28.74182	0.04313113	0.1861112	-0.05584942	0.03840165	5.302615	-3.648215	0	0
28.75839	0.04229056	0.186689	-0.05073673	0.03488012	0.1548003	-0.1066236	0	0
28.77495	0.04024142	0.1880974	-0.1236864	0.08500928	-2.201625	1.512901	0	0
28.79152	0.03905907	0.1889098	-0.07136664	0.04903634	1.579013	-1.085666	0	0
28.80809	0.03879631	0.1890542	-0.0158602	0.008716433	1.675188	-1.216857	0	0
28.82466	0.03840216	0.189325	-0.02379098	0.01634455	-0.2393513	0.230217	0	0
28.84144	0.03837589	0.1893069	-0.00156503	-0.00107575	0.6663311	-0.5222583	0	0
28.85779	0.03832333	0.1892347	-0.003215625	-0.004417267	-0.04981793	-0.100853	0	0
28.87447	0.03829706	0.1891806	-0.001575231	-0.003247391	0.04967304	0.03542519	0	0
28.89098	0.03827078	0.1891625	-0.001591653	-0.001092992	-0.0004947913	0.06491155	0	0
28.90749	0.03827078	0.1891625	0	0	0.04819987	0.03309897	0	0
28.92406	0.03827078	0.1891625	0	0	0	0	0	0
28.94062	0.03827078	0.1891625	0	0	0	0	0	0
28.95719	0.03827078	0.1891625	0	0	0	0	0	0
28.97404	0.0382445	0.1891445	-0.001559582	-0.001070969	-0.04667066	-0.03204886	0	0
28.99032	0.0382445	0.1891445	0	0	0.04706827	0.0323219	0	0
29.00706	0.03816567	0.1890903	-0.004709444	-0.00323592	-0.1426074	-0.09798742	0	0
29.02357	0.03813939	0.1890723	-0.001591469	-0.001092866	0.0937714	0.0644512	0	0
29.04008	0.03813939	0.1890723	0	0	0.0481943	0.03309515	0	0
29.05659	0.03811311	0.1890542	-0.00159202	-0.001094147	-0.04821936	-0.0331397	0	0
29.07316	0.03808684	0.1890362	-0.001586155	-0.001089217	0.0001773363	0.000149075	0	0
29.08973	0.03806056	0.188982	-0.001586155	-0.00326855	0	-0.0657724	0	0
29.10629	0.03806056	0.1889459	0	-0.002179333	0.04787026	0.03287263	0	0
29.12286	0.03803428	0.1889279	-0.001586338	-0.001090242	-0.04787853	0.03287073	0	0
29.13966	0.03803428	0.1888918	0	-0.002149147	0.04754461	-0.03173677	0	0
29.15599	0.03798173	0.1888556	-0.003217274	-0.002210379	-0.09709752	-0.001847989	0	0
29.17256	0.038008	0.1888015	0.001586155	-0.00326855	0.1459931	-0.03216152	0	0
29.18913	0.038008	0.1887654	0	-0.002179333	-0.04787026	0.03287263	0	0
29.28877	0.03792917	0.1886751	-0.0007911799	-0.0009058079	-0.006808248	0.01095892	0	0
29.3051	0.03790289	0.1886571	-0.001609315	-0.001106033	-0.007054674	-0.001726517	0	0
29.32166	0.03792917	0.188639	0.001586155	-0.001089217	0.09713843	0.0005111991	0	0
29.3383	0.03790289	0.188621	-0.001579427	-0.001085492	-0.09533442	0.0001121625	0	0
29.35481	0.03790289	0.188621	0	0	0.04764527	0.03274515	0	0
29.37136	0.03787661	0.1886029	-0.0015878	-0.001090347	-0.04802496	-0.03297887	0	0
29.38793	0.03785034	0.1885849	-0.001586155	-0.001090116	4.967741E-05	6.95315E-06	0	0
29.40485	0.03785034	0.1885849	0	0	0.04736854	0.03255496	0	0
29.42106	0.03785034	0.1885849	0	0	0	0	0	0
29.43763	0.03785034	0.1885849	0	0	0	0	0	0
29.45439	0.03785034	0.1885849	0	0	0	0	0	0
29.4709	0.03785034	0.1885849	0	0	0	0	0	0
29.4915	0.03782406	0.1886029	-0.001275798	0.0008768173	-0.0343794	0.02362792	0	0
29.50806	0.03779778	0.188639	-0.001586155	0.002179333	-0.008350859	0.03504713	0	0
29.52494	0.03779778	0.1886571	0	0.001069395	0.04743068	-0.0331904	0	0
29.54145	0.03771894	0.1887112	-0.004774406	0.003280402	-0.1430052	0.06622511	0	0
29.55796	0.03769267	0.1887654	-0.001591469	0.003279499	0.09638302	-2.732728E-05	0	0
29.57447	0.03750871	0.1889279	-0.01114051	0.009839401	-0.2891559	0.1986414	0	0
29.5909	0.03714081	0.1892528	-0.02240026	0.01978393	-0.3418668	0.3019339	0	0
29.60749	0.03695685	0.1894153	-0.01108334	0.009788519	0.3427092	-0.30269	0	0
29.62403	0.03695685	0.1894875	0	0.004366313	0.3345153	-0.1636519	0	0
29.6406	0.03682545	0.1896499	-0.00793145	0.00980565	-0.2396061	0.1643203	0	0
29.65716	0.03672033	0.1897943	-0.00634507	0.008716433	0.04787704	-0.03287261	0	0
29.67373	0.03666777	0.1898665	-0.003172535	0.004357767	0.0957473	-0.1315448	0	0
29.69055	0.03653637	0.1899929	-0.00781095	0.007510452	-0.1389161	0.09441992	0	0
29.70707	0.03651008	0.1900109	-0.001591694	0.001092866	0.1865698	-0.1925195	0	0
29.72358	0.03648381	0.190029	-0.001591469	0.001092866	6.83182E-06	0	0	0
29.74009	0.03637868	0.1901011	-0.006367287	0.00437287	-0.1446257	0.09932808	0	0
29.7566	0.03595818	0.190426	-0.02546666	0.01967609	-0.5783845	0.4634261	0	0
29.77313	0.03175248	0.1933132	-0.2544422	0.1746706	-6.930042	4.690975	0	0
29.7897	0.02654639	0.1968845	-0.3142401	0.2155624	-1.806784	1.23554	0	0
29.80626	0.02128626	0.2004901	-0.3175024	0.2176347	-0.09845854	0.06254182	0	0
29.82283	0.01970797	0.2015714	-0.09527641	0.06527778	6.707181	-4.598406	0	0
29.8394	0.01699836	0.2034274	-0.1635525	0.1120265	-2.060696	1.410962	0	0
29.85596	0.01623541	0.2039498	-0.04605157	0.03153602	3.546186	-2.429209	0	0
29.87268	0.01568292	0.2042921	-0.03304781	0.02047472	0.3906775	-0.3323194	0	0
29.8891	0.01570923	0.2042741	0.001602829	-0.001097526	1.045819	-0.6510893	0	0
29.90566	0.01570923	0.2042741	0	0	-0.04859727	0.03327665	0	0
29.92223	0.01570923	0.2042741	0	0	0	0	0	0
29.9388	0.01570923	0.2042741	0	0	0	0	0	0
29.95536	0.01570923	0.2042741	0	0	0	0	0	0
29.97193	0.01568292	0.2042561	-0.001588066	-0.001087418	-0.04792794	-0.03281834	0	0
29.9885	0.01570923	0.2042381	0.001588066	-0.001087418	0.09585588	0	0	0
30.00507	0.01573554	0.2042201	0.001587954	-0.001087418	-3.393965E-06	0	0	0
30.07133	0.01581447	0.2040579	0.001191022	-0.00244669	-0.004791776	-0.01640917	0	0
30.1376	0.01581447	0.2040579	0	0	-0.008986406	0.01846058	0	0
30.15417	0.01584078	0.2040399	0.001588066	-0.001087418	0.01917162	-0.01312764	0	0
30.17074	0.01584078	0.2040399	0	0	-0.04792794	0.03281834	0	0
30.1873	0.01584078	0.2040399	0	0	0	0	0	0
30.20387	0.01584078	0.2040399	0	0	0	0	0	0
30.22044	0.01584078	0.2040399	0	0	0	0	0	0
30.23701	0.01584078	0.2040399	0	0	0	0	0	0
30.25357	0.01584078	0.2040399	0	0	0	0	0	0
30.27047	0.01584078	0.2040399	0	0	0	0	0	0
30.28671	0.01581447	0.2040579	-0.00162072	0.001109777	-0.04891623	0.03349506	0	0
30.30327	0.01581447	0.2040579	0	0	0.04941117	-0.03383397	0	0
30.31984	0.01581447	0.2040579	0	0	0	0	0	0
30.33641	0.01581447	0.2040579	0	0	0	0	0	0
30.35297	0.01581447	0.2040579	0	0	0	0	0	0
30.37388	0.01581447	0.2040579	0	0	0	0	0	0
30.39045	0.01581447	0.2040579	0	0	0	0	0	0
30.40707	0.01581447	0.2040579	0	0	0	0	0	0
30.43272	0.01581447	0.2040579	0	0	0	0	0	0
30.4496	0.01581447	0.2040579	0	0	0	0	0	0
30.46611	0.01581447	0.2040579	0	0	0	0	0	0
30.48262	0.01581447	0.2040579	0	0	0	0	0	0
30.49913	0.01581447	0.2040579	0	0	0	0	0	0
30.51556	0.01578816	0.2040399	-0.001601971	-0.001097017	-0.04864158	-0.03330935	0	0
30.53212	0.01581447	0.2040219	0.001588137	-0.001087543	0.09670629	0.0002871776	0	0
30.54869	0.01581447	0.2040219	0	0	-0.04793283	0.03282401	0	0
30.56525	0.01578816	0.2040039	-0.001588137	-0.001087543	-0.04793283	-0.03282401	0	0
30.58182	0.01576185	0.2039859	-0.001588066	-0.001087418	2.125742E-06	3.780659E-06	0	0
30.59871	0.01578816	0.2039679	0.001558286	-0.001067026	0.09405831	0.0006096103	0	0
30.61496	0.01581447	0.2039498	0.001618893	-0.001108605	0.001829129	-0.001254854	0	0
30.63152	0.01581447	0.2038778	0	-0.004350173	-0.04933253	-0.09878031	0	0
30.64809	0.01584078	0.2038598	0.001588066	-0.001087418	0.0479307	0.09847581	0	0
30.66466	0.01581447	0.2038417	-0.001588066	-0.001087418	-0.09585588	0	0	0
30.68122	0.01581447	0.2038417	0	0	0.04792794	0.03281834	0	0
30.69779	0.01581447	0.2038417	0	0	0	0	0	0
30.71436	0.01581447	0.2038417	0	0	0	0	0	0
30.84689	0.01581447	0.2038417	0	0	0	0	0	0
30.86346	0.01578816	0.2038237	-0.001587588	-0.001087168	-0.01064745	-0.007291285	0	0
30.88002	0.01578816	0.2038237	0	0	0.04791627	0.03281267	0	0
30.89659	0.01578816	0.2038237	0	0	0	0	0	0
30.91315	0.01578816	0.2038237	0	0	0	0	0	0
30.92972	0.01578816	0.2038237	0	0	0	0	0	0
30.94629	0.01578816	0.2038237	0	0	0	0	0	0
30.96286	0.01578816	0.2038237	0	0	0	0	0	0
30.97942	0.01578816	0.2038237	0	0	0	0	0	0
30.99599	0.01578816	0.2038237	0	0	0	0	0	0
31.01256	0.01578816	0.2038237	0	0	0	0	0	0
31.02913	0.01578816	0.2038237	0	0	0	0	0	0
31.04569	0.01578816	0.2038237	0	0	0	0	0	0
31.06226	0.01578816	0.2038237	0	0	0	0	0	0
31.07883	0.01578816	0.2038237	0	0	0	0	0	0
31.09556	0.01578816	0.2038237	0	0	0	0	0	0
31.11196	0.01578816	0.2037877	0	-0.002197351	0	-0.06631999	0	0
31.12853	0.01578816	0.2037877	0	0	0	0.06665768	0	0
31.1451	0.01576185	0.2037697	-0.001587884	-0.001087293	-0.04791966	-0.03281267	0	0
31.16166	0.01576185	0.2037697	0	0	0.04792518	0.03281645	0	0
31.17823	0.01578816	0.2037517	0.001588066	-0.001087418	0.04793346	-0.03282212	0	0
31.19479	0.01578816	0.2037156	0	-0.002174836	-0.04792794	-0.03281834	0	0
31.21136	0.01578816	0.2037156	0	0	0	0.06563668	0	0
31.22816	0.01576185	0.2036976	-0.00156607	-0.001072356	-0.04693448	-0.03213807	0	0
31.2445	0.01578816	0.2036796	0.00161069	-0.001102909	0.0958748	-0.0009220869	0	0
31.26118	0.01576185	0.2036616	-0.001576992	-0.001079835	-0.09654341	0.0006988422	0	0
31.27769	0.01578816	0.2036436	0.001593386	-0.001091061	0.09550627	-0.0003381833	0	0
31.31822	0.01581447	0.2035895	0.0006491114	-0.001333886	-0.01655427	-0.004257024	0	0
31.33432	0.0158934	0.2035355	0.004902945	-0.003357338	0.07511988	-0.03573282	0	0
31.35089	0.01594602	0.2034634	0.003176133	-0.004349672	-0.05286389	-0.03037887	0	0
31.36745	0.01613018	0.2033373	0.01111602	-0.007612825	0.2396261	-0.09848217	0	0
31.39042	0.01647219	0.2031031	0.01489446	-0.01019992	0.09558481	-0.06544677	0	0
31.40728	0.01691944	0.2027607	0.02651938	-0.02029995	0.2918828	-0.2535953	0	0
31.42379	0.01849789	0.2016795	0.09559472	-0.06547898	2.069568	-1.35361	0	0
31.44012	0.01886618	0.2014272	0.02256009	-0.01545431	-2.224162	1.523428	0	0
31.45668	0.01886618	0.201247	0	-0.01087778	-0.685879	0.1391372	0	0
31.47325	0.01883988	0.201229	-0.001587954	-0.001088317	-0.04792455	0.2954465	0	0
31.48982	0.01870834	0.2011389	-0.00793932	-0.005438889	-0.1916846	-0.1313005	0	0
31.50639	0.01860312	0.2010668	-0.006351479	-0.004351471	0.04792114	0.03281835	0	0
31.52295	0.0185242	0.2010127	-0.004763637	-0.003263153	0.04792115	0.03284548	0	0
31.53952	0.01841897	0.2009406	-0.006351479	-0.004351471	-0.04792115	-0.03284548	0	0
31.55609	0.01818221	0.2007784	-0.01429102	-0.009791259	-0.239616	-0.1641731	0	0
31.57265	0.01734037	0.2002017	-0.05081352	-0.03481267	-1.102251	-0.7551476	0	0
31.58922	0.01586709	0.1991922	-0.08892722	-0.06092959	-1.150274	-0.7882102	0	0
31.60579	0.01563031	0.19903	-0.01429226	-0.009793058	2.252488	1.543303	0	0
31.62236	0.01563031	0.19903	0	0	0.4313413	0.2955551	0	0
31.63895	0.01563031	0.19903	0	0	0	0	0	0
31.65549	0.01563031	0.19903	0	0	0	0	0	0
31.67206	0.01563031	0.19903	0	0	0	0	0	0
31.68862	0.01563031	0.19903	0	0	0	0	0	0
31.70519	0.01563031	0.19903	0	0	0	0	0	0
31.72201	0.01563031	0.19903	0	0	0	0	0	0
31.73832	0.01563031	0.19903	0	0	0	0	0	0
31.75489	0.01563031	0.19903	0	0	0	0	0	0
31.77146	0.01563031	0.19903	0	0	0	0	0	0
31.82116	0.01563031	0.19903	0	0	0	0	0	0
31.83772	0.01563031	0.19903	0	0	0	0	0	0
31.85429	0.01563031	0.19903	0	0	0	0	0	0
31.87086	0.01563031	0.19903	0	0	0	0	0	0
31.88742	0.01563031	0.19903	0	0	0	0	0	0
31.90399	0.015604	0.199048	-0.001588066	0.001087418	-0.04792794	0.03281834	0	0
31.92056	0.015604	0.199048	0	0	0.04792794	-0.03281834	0	0
31.93717	0.015604	0.199048	0	0	0	0	0	0
31.95369	0.015604	0.199048	0	0	0	0	0	0
31.97026	0.015604	0.199048	0	0	0	0	0	0
31.98682	0.015604	0.199048	0	0	0	0	0	0
32.00339	0.015604	0.199048	0	0	0	0	0	0
32.02022	0.015604	0.199048	0	0	0	0	0	0
32.03673	0.015604	0.199048	0	0	0	0	0	0
32.05309	0.015604	0.199048	0	0	0	0	0	0
32.06966	0.015604	0.199048	0	0	0	0	0	0
32.08627	0.015604	0.199048	0	0	0	0	0	0
32.10279	0.015604	0.199048	0	0	0	0	0	0
32.11936	0.015604	0.199048	0	0	0	0	0	0
32.13593	0.015604	0.199048	0	0	0	0	0	0
32.15282	0.015604	0.199048	0	0	0	0	0	0
32.16906	0.015604	0.199048	0	0	0	0	0	0
32.18563	0.015604	0.199048	0	0	0	0	0	0
32.20684	0.015604	0.199048	0	0	0	0	0	0
32.2234	0.015604	0.199048	0	0	0	0	0	0
32.24038	0.015604	0.199048	0	0	0	0	0	0
32.25653	0.015604	0.199048	0	0	0	0	0	0
32.2731	0.015604	0.199048	0	0	0	0	0	0
32.28967	0.01563031	0.19903	0.001588066	-0.001087418	0.04792794	-0.03281834	0	0
32.30624	0.01563031	0.19903	0	0	-0.04792794	0.03281834	0	0
32.3228	0.01563031	0.19903	0	0	0	0	0	0
32.33945	0.01563031	0.19903	0	0	0	0	0	0
32.35594	0.01563031	0.19903	0	0	0	0	0	0
32.37251	0.01563031	0.19903	0	0	0	0	0	0
32.38907	0.01563031	0.19903	0	0	0	0	0	0
32.40564	0.01563031	0.19903	0	0	0	0	0	0
32.42251	0.01563031	0.19903	0	0	0	0	0	0
32.43902	0.01563031	0.19903	0	0	0	0	0	0
32.45534	0.01563031	0.19903	0	0	0	0	0	0
32.47191	0.01563031	0.19903	0	0	0	0	0	0
32.48848	0.01568292	0.1989939	0.00317602	-0.002176635	0.09585249	-0.06569096	0	0
32.50504	0.01623541	0.1985793	0.03334839	-0.0250277	0.9106038	-0.6896466	0	0
32.52161	0.01873465	0.1968303	0.1508542	-0.1055668	3.546332	-2.430675	0	0
32.53818	0.02893929	0.1895416	0.615953	-0.4399492	14.03671	-10.09168	0	0
32.55474	0.0385861	0.1826971	0.582283	-0.4131334	-1.016165	0.8093016	0	0
32.57131	0.05281925	0.1724265	0.8591144	-0.6199371	8.35479	-6.241347	0	0
32.58788	0.06328381	0.1638974	0.6316421	-0.5148155	-6.865128	3.172575	0	0
32.60445	0.06776451	0.1518713	0.2704554	-0.7258978	-10.90064	-6.370476	0	0
32.62115	0.06786928	0.1313521	0.006270958	-1.22808	-7.939284	-15.09161	0	0
32.70385	0.06545898	0.04522909	-0.0291483	-1.041501	-0.3563321	1.87706	0	0
32.72041	0.06558999	0.03620457	0.00790829	-0.5447213	0.3733344	5.004916	0	0
32.73698	0.06462043	0.01563494	-0.05852314	-1.241585	-2.004905	-21.0314	0	0
32.75355	0.06399146	0.005276638	-0.03796474	-0.6252281	0.6204539	18.6017	0	0
32.77026	0.06370316	0.001873293	-0.01724651	-0.203598	0.6224824	12.66794	0	0
32.78668	0.06194695	-0.009905444	-0.1069656	-0.7174082	-2.707727	-15.50682	0	0
32.80325	0.05969216	-0.01746625	-0.1360997	-0.4563709	-0.8832353	7.913655	0	0
32.81982	0.05733184	-0.02250412	-0.1424693	-0.3040869	-0.1922342	4.59594	0	0
32.83638	0.05174325	-0.0290123	-0.337328	-0.3928345	-5.880848	-2.678407	0	0
32.85295	0.0500109	-0.0304562	-0.1045648	-0.08715365	7.024807	9.225465	0	0
32.86952	0.04659782	-0.03307974	-0.2060135	-0.1583574	-3.061729	-2.148933	0	0
32.88609	0.0451535	-0.03420209	-0.08717962	-0.06774506	3.586415	2.734685	0	0
32.90265	0.04523228	-0.03425917	0.004755542	-0.003445289	2.774609	1.940571	0	0
32.91922	0.04536359	-0.0343543	0.007925829	-0.005742448	0.09567945	-0.0693284	0	0
32.93589	0.04552116	-0.03446847	0.009454261	-0.006850019	0.04599049	-0.03332679	0	0
32.9524	0.04554743	-0.0344875	0.00159075	-0.00115256	-0.237021	0.1717322	0	0
32.96892	0.04554743	-0.0344875	0	0	-0.04815863	0.0348928	0	0
32.98549	0.04554743	-0.0344875	0	0	0	0	0	0
33.00205	0.04554743	-0.0344875	0	0	0	0	0	0
33.01862	0.04557369	-0.03450653	0.001585031	-0.00114858	0.04783633	-0.0346642	0	0
33.05175	0.04573125	-0.03465875	0.004755317	-0.004594206	0.06378629	-0.06932614	0	0
33.06848	0.04578377	-0.03469681	0.003139921	-0.002275379	-0.0323974	0.04650497	0	0
33.08488	0.04583629	-0.03473487	0.003201762	-0.002320131	0.001866587	-0.001350757	0	0
33.1015	0.04583629	-0.03473487	0	0	-0.09696428	0.07026437	0	0
33.12191	0.04583629	-0.03473487	0	0	0	0	0	0
33.13848	0.04583629	-0.03473487	0	0	0	0	0	0
33.15505	0.04583629	-0.03473487	0	0	0	0	0	0
33.17162	0.04583629	-0.03473487	0	0	0	0	0	0
33.18818	0.04583629	-0.03473487	0	0	0	0	0	0
33.20475	0.04583629	-0.03473487	0	0	0	0	0	0
33.22132	0.04581003	-0.03471584	-0.001585031	0.00114858	-0.04783633	0.0346642	0	0
33.2381	0.04583629	-0.03469681	0.001564853	0.001133958	0.09445472	-0.0004384554	0	0
33.25445	0.04583629	-0.03469681	0	0	-0.0472328	-0.03422686	0	0
33.27102	0.04583629	-0.03469681	0	0	0	0	0	0
33.28758	0.04583629	-0.03469681	0	0	0	0	0	0
33.30415	0.04583629	-0.03469681	0	0	0	0	0	0
33.32072	0.04583629	-0.03469681	0	0	0	0	0	0
33.33728	0.04583629	-0.03469681	0	0	0	0	0	0
33.35385	0.04583629	-0.03469681	0	0	0	0	0	0
33.37042	0.04586256	-0.03471584	0.001585256	-0.00114858	0.04784311	-0.0346642	0	0
33.38699	0.04586256	-0.03471584	0	0	-0.04784311	0.0346642	0	0
33.40355	0.04586256	-0.03471584	0	0	0	0	0	0
33.42023	0.04583629	-0.03469681	-0.001574741	0.001140961	-0.04736762	0.03431969	0	0
33.43674	0.04583629	-0.03469681	0	0	0.04744928	-0.03437886	0	0
33.45325	0.04583629	-0.03469681	0	0	0	0	0	0
33.46982	0.04583629	-0.03469681	0	0	0	0	0	0
33.48639	0.04583629	-0.03469681	0	0	0	0	0	0
33.50295	0.04583629	-0.03469681	0	0	0	0	0	0
33.51952	0.04583629	-0.03469681	0	0	0	0	0	0
33.53631	0.04581003	-0.03467778	-0.001563787	0.001133185	-0.04687676	0.03396886	0	0
33.55282	0.04581003	-0.03467778	0	0	0.04695731	-0.03402723	0	0
33.56922	0.04567873	-0.03458264	-0.008008358	0.005803254	-0.2433739	0.1763608	0	0
33.58578	0.0454949	-0.03437333	-0.01109589	0.01263393	-0.09366719	0.2072237	0	0
33.60236	0.04517976	-0.0340689	-0.01901319	0.01836657	-0.2388895	0.1729716	0	0
33.61892	0.04394537	-0.0331368	-0.07454225	0.05628788	-1.67587	1.144468	0	0
33.63549	0.04142366	-0.03123542	-0.1522109	0.1147675	-2.344583	1.765323	0	0
33.65205	0.03477545	-0.02624039	-0.4012869	0.3015005	-7.51713	5.635613	0	0
33.66891	0.02978067	-0.02244726	-0.2963675	0.2250673	3.139367	-2.287012	0	0
33.68518	0.02659899	-0.02007888	-0.1954671	0.145502	3.045531	-2.401561	0	0
33.70193	0.0189451	-0.01347571	-0.4571475	0.394391	-7.924902	7.53752	0	0
33.71844	0.01420957	-0.007508584	-0.2867617	0.361341	5.123379	-0.9937916	0	0
33.73489	0.009157639	0.002663326	-0.3071986	0.6185352	-0.6200711	7.803464	0	0
33.75146	0.007999829	0.008413705	-0.06983731	0.346854	7.187576	-8.226823	0	0
33.76802	0.007052515	0.02052185	-0.05723272	0.7315227	0.3804511	11.61066	0	0
33.78498	0.007052515	0.02736341	0	0.403209	1.707433	-9.794636	0	0
33.80115	0.007447231	0.03066736	0.02442115	0.2044162	0.7371166	-6.00027	0	0
33.81771	0.01013123	0.05380578	0.1620067	1.396638	4.203639	36.42585	0	0
33.83428	0.01094693	0.0608276	0.04923568	0.4238378	-3.403435	-29.35916	0	0
33.85085	0.01357811	0.07767465	0.1588185	1.01689	3.307214	17.89835	0	0
33.86754	0.01415695	0.08091801	0.03467511	0.1942935	-3.732473	-24.73205	0	0
33.88827	0.01834005	0.09708039	0.2018359	0.7798397	4.467348	15.64863	0	0
33.90483	0.01991842	0.1042329	0.0952705	0.4317243	-2.857558	-9.334735	0	0
33.9214	0.0224699	0.1141001	0.1540079	0.5955853	1.772699	4.945335	0	0
33.93797	0.02349568	0.1191631	0.06191581	0.3056081	-2.779346	-8.75153	0	0
33.95454	0.02554707	0.1256627	0.1238225	0.3923115	1.868348	2.616714	0	0
33.97112	0.02828193	0.1347045	0.1649245	0.5452629	1.239889	4.613958	0	0
33.98767	0.03012246	0.1413666	0.1111972	0.4024977	-1.621491	-4.308661	0	0
34.00424	0.02970179	0.1473302	-0.02539197	0.3599605	-4.12417	-1.284366	0	0
34.02081	0.02767714	0.1545398	-0.122208	0.4351777	-2.921915	2.270057	0	0
34.03737	0.02591525	0.1583318	-0.1063479	0.2288821	0.4786584	-6.226011	0	0
34.05394	0.0224699	0.1607798	-0.2079616	0.1477656	-3.066706	-2.448102	0	0
34.07051	0.02225948	0.1609611	-0.01270105	0.01094254	5.892975	-4.129329	0	0
34.08707	0.02202275	0.1611243	-0.01428889	0.009848823	-0.04792115	-0.03300834	0	0
34.10371	0.02183863	0.1612512	-0.01106513	0.007626232	0.09708074	-0.06693151	0	0
34.12022	0.01812959	0.1638068	-0.224654	0.1547915	-6.443159	4.439411	0	0
34.13677	0.01539352	0.1656911	-0.16534	0.1138684	1.794233	-1.237913	0	0
34.15375	0.01531459	0.1657455	-0.00464959	0.003201369	4.793357	-3.30117	0	0
34.16991	0.01528828	0.1657636	-0.001628181	0.001121341	0.09118631	-0.06277538	0	0
34.18677	0.01526197	0.1657817	-0.001559993	0.001073534	0.002064799	-0.001447648	0	0
34.20304	0.01528828	0.1657636	0.001617052	-0.0011128	0.09588342	-0.06598371	0	0
34.21961	0.01528828	0.1657636	0	0	-0.04924496	0.03388871	0	0
34.23631	0.01531459	0.1657455	0.001575371	-0.00108497	0.04735397	-0.03261305	0	0
34.25282	0.01531459	0.1657455	0	0	-0.04743556	0.03266925	0	0
34.26931	0.01531459	0.1657455	0	0	0	0	0	0
34.28587	0.01531459	0.1657455	0	0	0	0	0	0
34.30244	0.01531459	0.1657455	0	0	0	0	0	0
34.31937	0.0153409	0.1657273	0.001554423	-0.001070543	0.04641031	-0.03196315	0	0
34.33557	0.01536721	0.1657092	0.001623524	-0.001118173	0.002085716	-0.001437643	0	0
34.35214	0.01536721	0.165673	0	-0.002186529	-0.04953986	-0.03259958	0	0
34.3689	0.01536721	0.165673	0	0	0	0.06560437	0	0
34.38541	0.01536721	0.165673	0	0	0	0	0	0
34.40184	0.01539352	0.1656549	0.001601712	-0.001103112	0.04862528	-0.03348861	0	0
34.41841	0.01539352	0.1656549	0	0	-0.04854656	0.03343441	0	0
34.43497	0.01544614	0.1655824	0.003176077	-0.004373956	0.09585419	-0.1320063	0	0
34.45154	0.01544614	0.1655462	0	-0.002186529	-0.09585419	0.0660167	0	0
34.53438	0.01549876	0.1654013	0.0006352266	-0.001749583	0.006390392	0.004395685	0	0
34.55103	0.01557769	0.1653107	0.00473899	-0.005438867	0.04124753	-0.03708154	0	0
34.56754	0.015604	0.1652563	0.00159357	-0.003291611	-0.0948416	0.06474467	0	0
34.58408	0.01578816	0.1650933	0.01113932	-0.009862966	0.2888897	-0.1988734	0	0
34.60064	0.01581447	0.1650389	0.001587954	-0.003280243	-0.2885599	0.198873	0	0
34.61758	0.01594602	0.1649483	0.007766751	-0.005349099	0.184417	-0.06174864	0	0
34.63378	0.01597233	0.164894	0.001624231	-0.00335518	-0.1853816	0.0601766	0	0
34.6506	0.01599864	0.1648759	0.001563585	-0.001076853	-0.001836434	0.06899037	0	0
34.66691	0.01602494	0.1648215	0.00161359	-0.003334113	0.001509339	-0.06813208	0	0
34.68348	0.01610387	0.1647309	0.004764087	-0.005467671	0.09584355	-0.06490649	0	0
34.70004	0.01613018	0.1646766	0.001587954	-0.003281142	-0.09585589	0.06598956	0	0
34.71665	0.01613018	0.1646766	0	0	-0.04786393	0.09889982	0	0
34.73318	0.01613018	0.1646403	0	-0.002192982	0	-0.06618434	0	0
34.75018	0.01613018	0.1646403	0	0	0	0.06541616	0	0
34.77082	0.01615649	0.1646222	0.001274621	-0.0008778414	0.03386381	-0.02332227	0	0
34.78738	0.01613018	0.1646041	-0.001588066	-0.001093714	-0.07693626	-0.005801692	0	0
34.80395	0.01613018	0.1646041	0	0	0.04792794	0.03300836	0	0
34.82073	0.01615649	0.164586	0.001568207	-0.001079148	0.04703077	-0.03236383	0	0
34.83709	0.01613018	0.1645679	-0.001608436	-0.001107743	-0.09587125	-0.0008629806	0	0
34.85375	0.01615649	0.1645497	0.001578616	-0.001087205	0.09650762	0.0006218895	0	0
34.87026	0.01613018	0.1645316	-0.00159357	-0.001097505	-0.09561568	-0.0003104392	0	0
34.88678	0.01615649	0.1645135	0.001592467	-0.001096744	0.09645461	2.301418E-05	0	0
34.90379	0.01615649	0.1644773	0	-0.002131479	-0.04750291	-0.03086588	0	0
34.93649	0.0161828	0.1644591	0.0008045362	-0.0005541297	0.0161873	0.03173632	0	0
34.95305	0.01620911	0.1644048	0.001588066	-0.003281142	0.01590381	-0.05535191	0	0
34.96962	0.01620911	0.1643685	0	-0.002187428	-0.04792794	0.03300836	0	0
34.98635	0.01623541	0.1643504	0.001572744	-0.001083238	0.04723711	0.03316415	0	0
35.00286	0.01623541	0.1643142	0	-0.002194502	-0.047313	-0.03343024	0	0
35.01937	0.01623541	0.1642779	0	-0.002195009	0	-1.535573E-05	0	0
35.03589	0.01626172	0.1642598	0.001592834	-0.001096998	0.0482273	0.03324522	0	0
35.05246	0.01626172	0.1642598	0	0	-0.04814389	0.03315708	0	0
35.06902	0.01626172	0.1642598	0	0	0	0	0	0
35.08559	0.01626172	0.1642598	0	0	0	0	0	0
35.10243	0.01626172	0.1642598	0	0	0	0	0	0
35.11872	0.01626172	0.1642598	0	0	0	0	0	0
35.13529	0.01626172	0.1642598	0	0	0	0	0	0
35.15197	0.01626172	0.1642598	0	0	0	0	0	0
35.16843	0.01626172	0.1642598	0	0	0	0	0	0
35.18499	0.01626172	0.1642598	0	0	0	0	0	0
35.20156	0.01623541	0.1642417	-0.001588066	-0.001093714	-0.04792794	-0.03300836	0	0
35.21852	0.01623541	0.1642417	0	0	0.04736627	0.03262153	0	0
35.2347	0.01626172	0.1642236	0.001626645	-0.001120283	0.04909223	-0.03381021	0	0
35.25154	0.01626172	0.1642236	0	0	-0.04926237	0.03392739	0	0
35.26783	0.01623541	0.1642055	-0.001615594	-0.001112673	-0.04876435	-0.0335844	0	0
35.28439	0.01623541	0.1642055	0	0	0.04917771	0.03386908	0	0
35.30096	0.01623541	0.1642055	0	0	0	0	0	0
35.31753	0.01623541	0.1642055	0	0	0	0	0	0
35.3341	0.01623541	0.1642055	0	0	0	0	0	0
35.35066	0.01626172	0.1641873	0.001588798	-0.001094218	0.04795002	-0.03302356	0	0
35.36723	0.01626172	0.1641873	0	0	-0.04796107	0.03303117	0	0
35.38414	0.01626172	0.1641873	0	0	0	0	0	0
35.43367	0.01626172	0.1641511	0	-0.0007316134	0	-0.01101154	0	0
35.45006	0.01626172	0.1641149	0	-0.002210845	0	-0.02243789	0	0
35.46669	0.01626172	0.1641149	0	0	0	0.06694695	0	0
35.4832	0.01623541	0.1640967	-0.00159357	-0.001097505	-0.04808298	-0.03311513	0	0
35.49976	0.01623541	0.1640967	0	0	0.04819392	0.03319154	0	0
35.51633	0.01623541	0.1640967	0	0	0	0	0	0
35.53324	0.01623541	0.1640967	0	0	0	0	0	0
35.54975	0.01623541	0.1640967	0	0	0	0	0	0
35.56602	0.01626172	0.1640786	0.001616731	-0.001113455	0.04931536	-0.03396389	0	0
35.58277	0.01626172	0.1640786	0	0	-0.04896213	0.03372061	0	0
35.59916	0.01626172	0.1640424	0	-0.002211359	0	-0.06673896	0	0
35.61579	0.01626172	0.1640424	0	0	0	0.06696253	0	0
35.6323	0.01628803	0.1640243	0.001593458	-0.001097505	0.04807404	-0.03311132	0	0
35.64885	0.01628803	0.1640243	0	0	-0.04819607	0.03319537	0	0
35.68634	0.01631434	0.1640061	0.0007018391	-0.0004833622	0.01298764	-0.008944691	0	0
35.70261	0.01631434	0.1640061	0	0	-0.01305491	0.008991024	0	0
35.72843	0.01631434	0.1640061	0	0	0	0	0	0
35.745	0.01628803	0.163988	-0.001588066	-0.001093714	-0.03746756	-0.02580421	0	0
35.77813	0.01628803	0.163988	0	0	0.03195196	0.02200557	0	0
35.7947	0.01631434	0.1639699	0.001588066	-0.001093714	0.03195196	-0.02200557	0	0
35.81127	0.01634065	0.1639518	0.001587954	-0.001093714	-3.393965E-06	0	0	0
35.82794	0.01634065	0.1639155	0	-0.002173416	-0.04777056	-0.03248075	0	0
35.84445	0.01639327	0.1638793	0.003187028	-0.002195009	0.09604096	-0.0006507236	0	0
35.86097	0.01641958	0.1638612	0.001593089	-0.001098153	-0.04826631	0.03321407	0	0
35.87753	0.01641958	0.1638612	0	0	-0.04815715	0.03319584	0	0
35.8941	0.01641958	0.1638612	0	0	0	0	0	0
35.91067	0.01644589	0.1638431	0.001588066	-0.001093714	0.04792794	-0.03300836	0	0
35.92723	0.01644589	0.1638431	0	0	-0.04792794	0.03300836	0	0
35.94402	0.01647219	0.1638249	0.001567027	-0.0010793	0.04697926	-0.03235728	0	0
35.96037	0.0164985	0.1638068	0.001609448	-0.001108518	0.001280273	-0.0008817985	0	0
35.97694	0.01652481	0.1637887	0.001588066	-0.001093714	-0.0006496304	0.0004497912	0	0
35.9935	0.01655112	0.1637343	0.001587954	-0.003281142	-3.393965E-06	-0.06601671	0	0
36.01007	0.01660374	0.1636981	0.00317602	-0.002187428	0.04792794	0.03300836	0	0
36.02664	0.01665635	0.1636618	0.003175908	-0.002188327	-3.393965E-06	-2.714469E-05	0	0
36.0436	0.01668266	0.1636437	0.001551166	-0.001068376	-0.04846016	0.03340409	0	0
36.05977	0.01673528	0.1636075	0.003253174	-0.002240566	0.05136669	-0.03537676	0	0
36.07634	0.01676159	0.1635894	0.001587954	-0.001093714	-0.05085953	0.03502743	0	0
36.09291	0.0167879	0.163535	0.001587954	-0.003281142	0	-0.06601671	0	0
36.10947	0.01684051	0.1634987	0.00317602	-0.002188327	0.04792794	0.03298121	0	0
36.16928	0.01933969	0.1617769	0.04178754	-0.02878984	0.505558	-0.3483057	0	0
