Time	Pos X	Pos Y	Vel X	Vel Y	Acc X	Acc YForce X	Force Y
0.01656673	0.007420917	0.281231	-0.0001096467	-0.00415529	1.620467E-06	6.141094E-05	0	0
0.07352848	0.007394602	0.2812131	-0.0004619683	-0.0003144426	5.210064E-06	-5.679772E-05	0	0
0.090096	0.007368288	0.2811952	-0.00158832	-0.001079304	-0.01531841	-0.01040214	0	0
0.1066631	0.007341973	0.2811773	-0.001588329	-0.00107933	-2.951257E-07	-7.764618E-07	0	0
0.1232808	0.007315659	0.2811595	-0.001583528	-0.001076048	0.0001446948	9.890018E-05	0	0
0.1729309	0.007210401	0.2810521	-0.002119989	-0.00216149	-0.008095363	-0.01637966	0	0
0.1894972	0.007184087	0.2810342	-0.001588433	-0.00108118	0.008027554	0.01631484	0	0
0.2063458	0.007157772	0.2810163	-0.001561823	-0.001061299	0.000796364	0.0005949858	0	0
0.2226311	0.007105144	0.2809806	-0.003231667	-0.00219602	-0.05039691	-0.03424658	0	0
0.239364	0.006973571	0.2808912	-0.007863093	-0.005344955	-0.1402689	-0.09536967	0	0
0.2558806	0.006894628	0.2808375	-0.004779646	-0.003249697	0.09273653	0.06301615	0	0
0.2723297	0.006552538	0.2806407	-0.02079687	-0.01196145	-0.4858754	-0.264267	0	0
0.288898	0.005789409	0.2800862	-0.04605957	-0.03346944	-0.7651331	-0.651414	0	0
0.3054631	0.004921013	0.2794959	-0.05242308	-0.03563654	-0.1920569	-0.06540526	0	0
0.3220299	0.004368393	0.2791202	-0.03335722	-0.02267727	0.5754539	0.3911422	0	0
0.3385966	0.004368393	0.2791202	0	0	1.006754	0.6844223	0	0
0.3551637	0.004368393	0.2791202	0	0	0	0	0	0
0.3717293	0.004368393	0.2791202	0	0	0	0	0	0
0.3920932	0.004368393	0.2791202	0	0	0	0	0	0
0.4086631	0.004368393	0.2791202	0	0	0	0	0	0
0.4255014	0.004368393	0.2790844	0	-0.00212389	0	-0.06357387	0	0
0.4417953	0.004368393	0.2790844	0	0	0	0.06410334	0	0
0.4585314	0.004368393	0.2790844	0	0	0	0	0	0
0.474928	0.004368393	0.2790844	0	0	0	0	0	0
0.491494	0.004342078	0.2790665	-0.001588527	-0.001081206	-0.04819189	-0.03280105	0	0
0.5080607	0.004342078	0.2790665	0	0	0.04794442	0.03263261	0	0
0.5246274	0.004342078	0.2790307	0	-0.002158708	0	-0.06515188	0	0
0.5411942	0.004342078	0.2790307	0	0	0	0.06515182	0	0
0.5577613	0.004342078	0.2789949	0	-0.00216046	0	-0.065204	0	0
0.5745993	0.004368393	0.2789413	0.001562865	-0.003187678	0.04678527	-0.03075036	0	0
0.590894	0.004421024	0.2787982	0.003229908	-0.008782647	0.05031416	-0.1688656	0	0
0.6074627	0.004657861	0.2785656	0.01429424	-0.01403713	0.3366759	-0.1598885	0	0
0.6240275	0.007184087	0.2768123	0.1525058	-0.105845	4.171353	-2.770848	0	0
0.6405942	0.0128414	0.2728935	0.3414859	-0.2365458	5.703934	-3.944906	0	0
0.657161	0.02215427	0.2663778	0.5621421	-0.3932987	6.659609	-4.730946	0	0
0.6737278	0.03004359	0.2605398	0.476214	-0.3523929	-2.593392	1.234572	0	0
0.6902941	0.03840216	0.2536598	0.5045517	-0.4153009	0.8552703	-1.898646	0	0
0.7068608	0.04352513	0.239152	0.3092316	-0.8757195	-5.895017	-13.89604	0	0
0.7234276	0.04305233	0.2240668	-0.02853902	-0.9105692	-10.19423	-1.051795	0	0
0.7402166	0.04244817	0.2075702	-0.03598534	-0.982587	-0.2232396	-2.159086	0	0
0.7567276	0.0417389	0.1920141	-0.04295716	-0.9421591	-0.2093636	1.21405	0	0
0.7732391	0.03992614	0.1751946	-0.1097883	-1.018656	-2.023806	-2.316507	0	0
0.9056609	0.02954403	0.1628282	-0.07840178	-0.09338666	0.2107424	6.212646	0	0
0.9222276	0.02957033	0.1628463	0.0015871	0.001094645	0.5368794	0.6341515	0	0
0.9388626	0.02957033	0.1628463	0	0	-0.0478017	-0.03296949	0	0
0.9553686	0.02957033	0.1628463	0	0	0	0	0	0
0.9719278	0.02957033	0.1628463	0	0	0	0	0	0
0.9884942	0.02954403	0.1628282	-0.00158714	-0.001094672	-0.04791283	-0.03304614	0	0
1.021628	0.02957033	0.1628101	0.0007935502	-0.0005468727	0.04790137	0.01102216	0	0
1.038194	0.02959662	0.162792	0.001586988	-0.001093745	0.01596446	-0.01100342	0	0
1.054761	0.02959662	0.162792	0	0	-0.04789677	0.03301026	0	0
1.07145	0.02962291	0.1627738	0.001575469	-0.00108573	0.04737424	-0.03264782	0	0
1.087963	0.02962291	0.1627376	0	-0.002195611	-0.04745197	-0.0334288	0	0
1.104474	0.0296492	0.1627195	0.001592417	-0.00109741	0.04822041	0.03325493	0	0
1.121028	0.0296492	0.1627195	0	0	-0.04815939	0.0331889	0	0
1.137595	0.0296755	0.1627013	0.001587066	-0.001094621	0.04791688	-0.03304894	0	0
1.154509	0.0296755	0.1627013	0	0	-0.04740215	0.03269392	0	0
1.187294	0.02970179	0.1626832	0.0008019784	-0.000552681	0.01613669	-0.01112055	0	0
1.203862	0.02972808	0.1626288	0.001586919	-0.003281994	0.0159047	-0.05530213	0	0
1.220428	0.02978067	0.1625563	0.00317436	-0.004376102	0.04791062	-0.0330213	0	0
1.236994	0.0300173	0.1623207	0.01428345	-0.01422319	0.3352912	-0.2972017	0	0
1.253561	0.03022763	0.1620669	0.01269597	-0.0153175	-0.04791131	-0.03302706	0	0
1.270128	0.03064829	0.1615956	0.02539247	-0.02844879	0.3831921	-0.3963144	0	0
1.287106	0.03430233	0.1586401	0.2152153	-0.1740746	5.658768	-4.341221	0	0
1.303262	0.0353274	0.1577876	0.06345096	-0.05276765	-4.580338	3.661117	0	0
1.319828	0.04678163	0.1491107	0.6914335	-0.5237812	19.19187	-14.39472	0	0
1.336396	0.05085086	0.1432763	0.2456085	-0.3521481	-13.45527	5.179989	0	0
1.353161	0.05027339	0.1380366	-0.0344444	-0.3125387	-8.401624	1.188289	0	0
1.369528	0.04833075	0.1269214	-0.1186892	-0.6791005	-2.542651	-11.06346	0	0
1.386094	0.04578377	0.1185054	-0.1537482	-0.5080317	-1.064544	5.194393	0	0
1.402661	0.0385861	0.1108987	-0.4344648	-0.4591586	-8.472498	1.475073	0	0
1.438985	0.03009617	0.1051674	-0.2337292	-0.157783	3.795302	5.6981	0	0
1.455551	0.02807157	0.1038297	-0.1222114	-0.08074732	2.108479	1.456522	0	0
1.472118	0.0279401	0.1038114	-0.007936063	-0.001106338	3.448972	2.403665	0	0
1.488685	0.02736159	0.1042145	-0.03491894	0.02433621	-0.8143594	0.7678715	0	0
1.505257	0.02725641	0.1042878	-0.006346975	0.004423438	0.8621764	-0.6008801	0	0
1.521818	0.02720381	0.1043245	-0.003175861	0.00221307	0.09570956	-0.06671264	0	0
1.538385	0.02686196	0.1045994	-0.02063456	0.01659111	-0.5270144	0.4340208	0	0
1.554951	0.02596785	0.105259	-0.05397146	0.03981688	-1.006139	0.7009753	0	0
1.571807	0.02588895	0.1053506	-0.00468056	0.00543509	1.474799	-1.028714	0	0
1.588087	0.02583635	0.1053872	-0.003230762	0.00225071	0.0437531	-0.09610062	0	0
1.604653	0.02570486	0.1055155	-0.007937247	0.007740935	-0.1432869	0.1671476	0	0
1.621218	0.02557337	0.1056071	-0.007938218	0.005530237	-2.931926E-05	-0.06672643	0	0
1.637851	0.02525778	0.1058636	-0.01897305	0.01541951	-0.3323968	0.2978898	0	0
1.654362	0.02391649	0.106871	-0.0812359	0.0610163	-1.878529	1.375698	0	0
1.670918	0.02325896	0.1073289	-0.03971623	0.02765582	1.255632	-1.008883	0	0
1.687485	0.02220687	0.108098	-0.06350604	0.04642437	-0.7182391	0.5666419	0	0
1.704052	0.02220687	0.108098	0	0	1.916651	-1.401116	0	0
1.737423	0.02223318	0.1081163	0.0007882438	0.0005487901	0.0157845	0.01098946	0	0
1.753752	0.02225948	0.1081346	0.001610774	0.001121074	0.01654998	0.01151482	0	0
1.770444	0.02228578	0.1081895	0.001575689	0.00329086	-0.00106248	0.06570789	0	0
1.786885	0.02228578	0.1082994	0	0.006682105	-0.04755594	0.1023513	0	0
1.803451	0.02202275	0.1085557	-0.0158773	0.01547287	-0.4810263	0.2663293	0	0
1.820018	0.01897141	0.1111914	-0.1841849	0.1590981	-5.079735	4.334791	0	0
1.836585	0.01347287	0.1153069	-0.331902	0.2484165	-4.458239	2.695711	0	0
1.853154	0.005315739	0.1213732	-0.4923229	0.3661301	-4.841372	3.552501	0	0
1.86972	0.001473683	0.1242576	-0.2319186	0.1741108	7.858874	-5.79505	0	0
1.886528	-0.005552575	0.1304407	-0.4180238	0.3678638	-5.576241	5.805392	0	0
1.903046	-0.006131502	0.1317895	-0.03504957	0.08165624	11.49187	-8.588201	0	0
1.919419	-0.005842039	0.1414939	0.0176794	0.5927138	1.603176	15.53824	0	0
1.936065	-0.004026294	0.1481297	0.1090766	0.3986258	2.767984	-5.877997	0	0
1.952552	0.0005263158	0.1544309	0.2761393	0.3822053	5.042161	-0.495589	0	0
1.96912	0.005289424	0.1576788	0.2874832	0.1960284	0.343183	-5.632349	0	0
1.985686	0.01231517	0.1625563	0.4241082	0.294432	4.123382	2.969851	0	0
2.002252	0.01413064	0.1638068	0.1095876	0.07548266	-9.492867	-6.608333	0	0
2.018818	0.02062865	0.1682811	0.3922491	0.2700886	8.531264	5.873577	0	0
2.03564	0.0247844	0.1711415	0.2470443	0.1700422	-4.349024	-2.996485	0	0
2.052145	0.02612563	0.1720646	0.08126361	0.05592462	-4.974422	-3.424217	0	0
2.068658	0.02983325	0.1746158	0.2245225	0.154494	4.338797	2.985312	0	0
2.085088	0.03114782	0.1755202	0.08001288	0.05505006	-4.386686	-3.018687	0	0
2.101684	0.03109524	0.1755564	-0.003168209	0.002180003	-2.518674	-1.600874	0	0
2.118696	0.03104266	0.1756287	-0.003090774	0.004252565	0.002304057	0.0616679	0	0
2.134787	0.03085862	0.1757915	-0.01143694	0.01011616	-0.2521255	0.1771307	0	0
2.151352	0.02972808	0.1765692	-0.06824946	0.04694831	-1.739729	1.127885	0	0
2.167921	0.02573116	0.1793175	-0.2412268	0.1658693	-5.220541	3.589093	0	0
2.184486	0.0242584	0.1803659	-0.08890771	0.06328981	4.597032	-3.095876	0	0
2.201054	0.024311	0.1803659	0.003174963	0	2.779221	-1.9102	0	0
2.217621	0.024311	0.1804021	0	0.002182094	-0.09582126	0.0658562	0	0
2.234187	0.0243636	0.1804021	0.003175237	0	0.09583367	-0.06585905	0	0
2.25079	0.0243636	0.1804021	0	0	-0.09572759	0	0	0
2.26732	0.0243373	0.1804201	-0.001591122	0.001093502	-0.04802223	0.03300338	0	0
2.283889	0.0243373	0.1804201	0	0	0.04807205	-0.03303761	0	0
2.321051	0.0243373	0.1804201	0	0	0	0	0	0
2.337851	0.0243373	0.1804201	0	0	0	0	0	0
2.354359	0.0243373	0.1804201	0	0	0	0	0	0
2.37075	0.0243373	0.1804201	0	0	0	0	0	0
2.387387	0.0243373	0.1804201	0	0	0	0	0	0
2.403884	0.0243373	0.1804201	0	0	0	0	0	0
2.420451	0.0243373	0.1804201	0	0	0	0	0	0
2.437017	0.0243636	0.1804382	0.001587619	0.001091094	0.04791615	0.03293047	0	0
2.453587	0.0243636	0.1804382	0	0	-0.0479127	-0.03292811	0	0
2.470152	0.0243636	0.1804382	0	0	0	0	0	0
2.486719	0.0243636	0.1804382	0	0	0	0	0	0
2.503284	0.0243636	0.1804382	0	0	0	0	0	0
2.519978	0.0243636	0.1804382	0	0	0	0	0	0
2.536494	0.0243636	0.1804382	0	0	0	0	0	0
2.552985	0.0243373	0.1804563	-0.00159478	0.001096016	-0.04831619	0.03320541	0	0
2.56955	0.0243373	0.1804563	0	0	0.04824406	-0.03315583	0	0
2.586522	0.0243373	0.1804563	0	0	0	0	0	0
2.602683	0.0243373	0.1804563	0	0	0	0	0	0
2.619251	0.0243373	0.1804563	0	0	0	0	0	0
2.635817	0.024311	0.1804744	-0.001587619	0.001091094	-0.04791408	0.03292905	0	0
2.652383	0.0242847	0.1804924	-0.001587619	0.001091094	0	0	0	0
2.66895	0.0242584	0.1805105	-0.001587596	0.001091079	6.921888E-07	-4.743426E-07	0	0
2.685516	0.0242584	0.1805105	0	0	0.0479158	-0.03293024	0	0
2.768353	0.0242584	0.1805105	0	0	0	0	0	0
2.801483	0.0242584	0.1805105	0	0	0	0	0	0
2.81805	0.0242584	0.1805105	0	0	0	0	0	0
2.834697	0.0242584	0.1805105	0	0	0	0	0	0
2.851183	0.0242584	0.1805105	0	0	0	0	0	0
2.867749	0.0242584	0.1805105	0	0	0	0	0	0
2.884316	0.0242847	0.1804924	0.00158755	-0.001091047	0.04791373	-0.03292881	0	0
2.900883	0.0242847	0.1804924	0	0	-0.04791373	0.03292881	0	0
2.917756	0.0242847	0.1804924	0	0	0	0	0	0
2.934016	0.0242847	0.1804924	0	0	0	0	0	0
2.95078	0.0242847	0.1804924	0	0	0	0	0	0
2.967292	0.0242847	0.1804924	0	0	0	0	0	0
2.983716	0.0242847	0.1804924	0	0	0	0	0	0
3.000283	0.0242847	0.1804924	0	0	0	0	0	0
3.01685	0.0242847	0.1804924	0	0	0	0	0	0
3.033416	0.0242847	0.1804924	0	0	0	0	0	0
3.05035	0.0242847	0.1804924	0	0	0	0	0	0
3.06655	0.0242847	0.1804924	0	0	0	0	0	0
3.083116	0.0242847	0.1804924	0	0	0	0	0	0
3.099683	0.0242847	0.1804924	0	0	0	0	0	0
3.116396	0.0242847	0.1804924	0	0	0	0	0	0
3.132816	0.0242847	0.1804924	0	0	0	0	0	0
3.149384	0.0242847	0.1804924	0	0	0	0	0	0
3.165951	0.024311	0.1804744	0.001587481	-0.001091	0.04790994	-0.03292621	0	0
3.182517	0.024311	0.1804744	0	0	-0.04791236	0.03292787	0	0
3.199093	0.024311	0.1804744	0	0	0	0	0	0
3.215967	0.0242847	0.1804563	-0.001558592	-0.001071146	-0.04659352	-0.0320215	0	0
3.235139	0.0242847	0.1804563	0	0	0.04323924	0.02971626	0	0
3.251706	0.0242847	0.1804563	0	0	0	0	0	0
3.268505	0.024311	0.1804382	0.001565627	-0.00107598	0.04692287	-0.03224784	0	0
3.284839	0.024311	0.1804382	0	0	-0.04725241	0.03247432	0	0
3.301406	0.024311	0.1804382	0	0	0	0	0	0
3.317973	0.024311	0.1804382	0	0	0	0	0	0
3.334539	0.024311	0.1804382	0	0	0	0	0	0
3.351106	0.024311	0.1804382	0	0	0	0	0	0
3.367673	0.024311	0.1804382	0	0	0	0	0	0
3.384586	0.024311	0.1804382	0	0	0	0	0	0
3.400806	0.024311	0.1804382	0	0	0	0	0	0
3.417609	0.024311	0.1804382	0	0	0	0	0	0
3.433939	0.024311	0.1804382	0	0	0	0	0	0
3.450506	0.024311	0.1804021	0	-0.002182094	0	-0.06633111	0	0
3.517184	0.0243373	0.180384	0.0003944437	-0.0002710823	0.004738386	0.02295666	0	0
3.533339	0.0243373	0.1803478	0	-0.002237611	-0.004761898	-0.0237408	0	0
3.549906	0.0243636	0.1803298	0.00158755	-0.001091047	0.04851559	0.03503904	0	0
3.566473	0.0243636	0.1803298	0	0	-0.04791304	0.03292834	0	0
3.58304	0.0243636	0.1802936	0	-0.002182094	0	-0.06585668	0	0
3.599738	0.0243373	0.1802755	-0.00157506	-0.001082464	-0.04734905	0.03305681	0	0
3.632763	0.0243899	0.1802032	0.001592788	-0.002189294	0.06371034	-0.02226007	0	0
3.649307	0.0243899	0.1801671	0	-0.002184212	-0.03213312	0.0001025061	0	0
3.665874	0.0243636	0.1801129	-0.001587504	-0.003273047	-0.04794478	-0.03288428	0	0
3.68244	0.0243636	0.1801129	0	0	0.04791235	0.0987836	0	0
3.699007	0.0243636	0.1800767	0	-0.002182094	0	-0.06585857	0	0
3.715821	0.0243636	0.1800767	0	0	0	0.06536938	0	0
3.732332	0.0243636	0.1800767	0	0	0	0	0	0
3.748707	0.0243636	0.1800767	0	0	0	0	0	0
3.765357	0.0243636	0.1800767	0	0	0	0	0	0
3.781867	0.0243636	0.1800767	0	0	0	0	0	0
3.798407	0.0243636	0.1800767	0	0	0	0	0	0
3.814973	0.0243636	0.1800767	0	0	0	0	0	0
3.83154	0.0243636	0.1800767	0	0	0	0	0	0
3.848106	0.0243636	0.1800767	0	0	0	0	0	0
3.906382	0.0243636	0.1800767	0	0	0	0	0	0
3.92295	0.0243636	0.1800767	0	0	0	0	0	0
3.939517	0.0243636	0.1800767	0	0	0	0	0	0
3.956084	0.0243636	0.1800767	0	0	0	0	0	0
3.97265	0.0243636	0.1800767	0	0	0	0	0	0
3.989514	0.0243636	0.1800767	0	0	0	0	0	0
4.006025	0.0243636	0.1800767	0	0	0	0	0	0
4.022537	0.0243636	0.1800767	0	0	0	0	0	0
4.03905	0.0243636	0.1800767	0	0	0	0	0	0
4.055484	0.0243636	0.1800767	0	0	0	0	0	0
4.072073	0.0243636	0.1800767	0	0	0	0	0	0
4.088617	0.0243636	0.1800767	0	0	0	0	0	0
4.105184	0.0243636	0.1800767	0	0	0	0	0	0
4.12175	0.0243636	0.1800767	0	0	0	0	0	0
4.138318	0.0243636	0.1800767	0	0	0	0	0	0
4.154884	0.0243636	0.1800767	0	0	0	0	0	0
4.175148	0.0243636	0.1800767	0	0	0	0	0	0
4.191714	0.0243636	0.1800767	0	0	0	0	0	0
4.208282	0.0243636	0.1800767	0	0	0	0	0	0
4.22485	0.0243636	0.1800767	0	0	0	0	0	0
4.241416	0.0243373	0.1800587	-0.001587641	-0.00109111	-0.04791511	-0.03292976	0	0
4.257981	0.0243373	0.1800587	0	0	0.04791994	0.03293308	0	0
4.274548	0.0243373	0.1800587	0	0	0	0	0	0
4.291229	0.024311	0.1800767	-0.001576614	0.001083531	-0.04741988	0.03258941	0	0
4.307741	0.024311	0.1800767	0	0	0.04749822	-0.03264325	0	0
4.324249	0.024311	0.1800767	0	0	0	0	0	0
4.340815	0.024311	0.1800767	0	0	0	0	0	0
4.357382	0.024311	0.1800767	0	0	0	0	0	0
4.373948	0.024311	0.1800767	0	0	0	0	0	0
4.390514	0.024311	0.1800767	0	0	0	0	0	0
4.40731	0.024311	0.1800767	0	0	0	0	0	0
4.423647	0.0243373	0.1800587	0.001609837	-0.001106364	0.04858709	-0.03339158	0	0
4.440214	0.024311	0.1800767	-0.001587596	0.001091079	-0.09717557	0.06678411	0	0
4.45678	0.024311	0.1800767	0	0	0.0479158	-0.03293024	0	0
4.473355	0.024311	0.1800767	0	0	0	0	0	0
4.490396	0.0242847	0.1800587	-0.001543393	-0.0010607	-0.04591303	-0.03155382	0	0
4.50648	0.0242847	0.1800587	0	0	0.04659311	0.03202122	0	0
4.523047	0.0242847	0.1800587	0	0	0	0	0	0
4.556181	0.0242584	0.1800406	-0.000793775	-0.0005459733	-0.01597109	-0.01098522	0	0
4.572747	0.0242584	0.1800406	0	0	0.0159714	0.01098543	0	0
4.589314	0.0242584	0.1800406	0	0	0	0	0	0
4.60588	0.0242584	0.1800406	0	0	0	0	0	0
4.622448	0.0242321	0.1800225	-0.001587346	-0.001090984	-0.04790621	-0.03292597	0	0
4.639014	0.0242321	0.1800225	0	0	0.04790689	0.03292645	0	0
4.655581	0.0242321	0.1800225	0	0	0	0	0	0
4.672497	0.0242321	0.1800225	0	0	0	0	0	0
4.688714	0.0242321	0.1800225	0	0	0	0	0	0
4.70528	0.0242321	0.1800225	0	0	0	0	0	0
4.721847	0.0242321	0.1800225	0	0	0	0	0	0
4.738414	0.0242321	0.1800225	0	0	0	0	0	0
4.754981	0.0242321	0.1800225	0	0	0	0	0	0
4.771566	0.0242321	0.1800225	0	0	0	0	0	0
4.788114	0.0242321	0.1800225	0	0	0	0	0	0
4.804681	0.0242321	0.1800225	0	0	0	0	0	0
4.821247	0.0242321	0.1800225	0	0	0	0	0	0
4.837814	0.0242058	0.1800406	-0.00158755	0.001091047	-0.04791442	0.03292929	0	0
4.854627	0.0242058	0.1800406	0	0	0.04755987	-0.03268562	0	0
4.871137	0.0242058	0.1800406	0	0	0	0	0	0
4.88765	0.0242058	0.1800406	0	0	0	0	0	0
4.90416	0.0242058	0.1800406	0	0	0	0	0	0
4.920673	0.0242058	0.1800044	0	-0.002189215	0	-0.06629291	0	0
4.937214	0.02344307	0.1794802	-0.04610985	-0.03169051	-1.394971	-0.8925086	0	0
4.953781	0.02212797	0.1785402	-0.07938451	-0.05674508	-1.005041	-0.7567583	0	0
4.970347	0.02023408	0.1768043	-0.1143186	-0.1047792	-1.054357	-1.449735	0	0
4.986915	0.01739298	0.1741635	-0.1714889	-0.1593989	-1.72543	-1.64845	0	0
5.003482	0.009368147	0.167267	-0.4843801	-0.416276	-9.443075	-7.752565	0	0
5.020048	0.004973643	0.1631907	-0.2652681	-0.2460602	6.613006	5.13727	0	0
5.036755	0.001052631	0.1584587	-0.2347002	-0.283239	0.9187042	-1.117395	0	0
5.053266	-0.007631431	0.1446946	-0.5259421	-0.8336116	-8.767617	-16.56855	0	0
5.072735	-0.01163105	0.1290369	-0.2054378	-0.8042445	8.907792	0.8162009	0	0
5.089303	-0.01228886	0.119492	-0.03970378	-0.5761193	4.59906	6.330395	0	0
5.105869	-0.01255197	0.1102764	-0.01588225	-0.5562676	0.7189353	0.599125	0	0
5.122436	-0.01289402	0.1017583	-0.02064675	-0.5141724	-0.1437972	1.270474	0	0
5.139004	-0.01357811	0.09151571	-0.04129062	-0.6182234	-0.6230332	-3.140265	0	0
5.15557	-0.01365705	0.08476634	-0.004764779	-0.4074284	1.102384	6.361989	0	0
5.17235	-0.01339394	0.07691874	0.01567961	-0.4676653	0.6130956	-1.806412	0	0
5.188863	-0.01502519	0.07186353	-0.09878656	-0.3061372	-3.43812	4.851677	0	0
5.205271	-0.01439374	0.0689457	0.03848388	-0.1778303	4.169713	3.897438	0	0
5.221885	-0.01686682	0.06262275	-0.1488555	-0.3805805	-5.673181	-6.139867	0	0
5.238424	-0.01849789	0.06151244	-0.09861609	-0.06713038	1.515355	9.454502	0	0
5.25497	-0.02394279	0.05764246	-0.3290907	-0.2339022	-6.966163	-5.040727	0	0
5.271536	-0.02778232	0.05497386	-0.2317678	-0.1610861	2.93924	2.199113	0	0
5.288103	-0.03201537	0.05195097	-0.2555147	-0.1824677	-0.7167131	-0.6453272	0	0
5.30467	-0.03724593	0.04818296	-0.3157168	-0.227437	-1.81693	-1.357194	0	0
5.321236	-0.04108214	0.04543352	-0.2315675	-0.1659663	2.539706	1.855243	0	0
5.337803	-0.04229056	0.04457856	-0.07294066	-0.05160558	4.787505	3.451512	0	0
5.437203	-0.04567873	0.04191951	-0.03408621	-0.02675095	0.3350467	0.2143246	0	0
5.45377	-0.04562621	0.04188231	0.003170469	-0.002245796	0.3212715	0.2113127	0	0
5.47056	-0.04528481	0.04164049	0.02033309	-0.01440249	0.5145184	-0.3644458	0	0
5.486903	-0.04313113	0.04011476	0.131779	-0.09335612	3.363542	-2.382894	0	0
5.50347	-0.03837589	0.03674479	0.2870351	-0.2034176	4.717615	-3.344329	0	0
5.520097	-0.03495944	0.03432248	0.2054782	-0.1456868	-2.457007	1.739214	0	0
5.536609	-0.03067459	0.03128302	0.2594929	-0.1840715	1.629933	-1.158285	0	0
5.55317	-0.02865005	0.02984632	0.1222468	-0.08675168	-4.149741	2.942537	0	0
5.569737	-0.02657269	0.02837171	0.1253934	-0.08901006	0.0949836	-0.06817164	0	0
5.586304	-0.0242321	0.02670972	0.1412784	-0.1003178	0.4794184	-0.3412729	0	0
5.602871	-0.0242584	0.0267284	-0.001587438	0.001127475	-4.311763	3.061668	0	0
5.619437	-0.0242584	0.0267284	0	0	0.04791172	-0.03402923	0	0
5.636185	-0.0242584	0.0267284	0	0	0	0	0	0
5.65257	-0.0242584	0.0267284	0	0	0	0	0	0
5.669137	-0.0242584	0.0267284	0	0	0	0	0	0
5.685714	-0.0242584	0.0267284	0	0	0	0	0	0
5.702725	-0.0242584	0.0267284	0	0	0	0	0	0
5.718837	-0.0242584	0.0267284	0	0	0	0	0	0
5.75197	-0.0242584	0.0267284	0	0	0	0	0	0
5.768537	-0.0242584	0.0267284	0	0	0	0	0	0
5.785103	-0.0242321	0.02674708	0.001587438	0.001127475	0.04791103	0.03402874	0	0
5.80167	-0.0242584	0.02680312	-0.001587438	0.003382314	-0.09582068	0.06805311	0	0
5.818307	-0.0241795	0.0268965	0.004742472	0.005613289	0.1906392	0.06719077	0	0
5.834804	-0.02375869	0.02715798	0.02550884	0.01585014	0.6267483	0.3089578	0	0
5.85137	-0.02339047	0.02741943	0.02222626	0.01578184	-0.0992813	-0.002065712	0	0
5.868342	-0.02286444	0.0277929	0.03099494	0.0220058	0.2614523	0.1855773	0	0
5.884503	-0.02283813	0.02777423	0.001627479	-0.001155405	-0.88635	-0.6990368	0	0
5.90107	-0.02281183	0.0277929	0.001587662	0.001127138	-0.001216591	0.06974242	0	0
5.917637	-0.02273292	0.02784892	0.004762987	0.003381302	0.09583425	0.06803275	0	0
5.934204	-0.02268032	0.02788627	0.003175213	0.002254276	-0.04792051	-0.03401468	0	0
5.95077	-0.02265402	0.02790494	0.001587708	0.001127058	-0.04791304	-0.03402098	0	0
5.967337	-0.02265402	0.02790494	0	0	-0.0479192	-0.03401615	0	0
5.983923	-0.02265402	0.02790494	0	0	0	0	0	0
6.000471	-0.02265402	0.02790494	0	0	0	0	0	0
6.020844	-0.02265402	0.02790494	0	0	0	0	0	0
6.037462	-0.02265402	0.02790494	0	0	0	0	0	0
6.053978	-0.02268032	0.02788627	-0.001592567	-0.001130507	-0.04806447	-0.03411927	0	0
6.070545	-0.02268032	0.02788627	0	0	0.04813929	0.03417238	0	0
6.087112	-0.02268032	0.02788627	0	0	0	0	0	0
6.103679	-0.02268032	0.02788627	0	0	0	0	0	0
6.120245	-0.02268032	0.02788627	0	0	0	0	0	0
6.137038	-0.02268032	0.02788627	0	0	0	0	0	0
6.153378	-0.02268032	0.02788627	0	0	0	0	0	0
6.170056	-0.02268032	0.02788627	0	0	0	0	0	0
6.186567	-0.02268032	0.02788627	0	0	0	0	0	0
6.203079	-0.02268032	0.02788627	0	0	0	0	0	0
6.219645	-0.02268032	0.02788627	0	0	0	0	0	0
6.236212	-0.02270662	0.02790494	-0.00158755	0.001127026	-0.04791442	0.03401517	0	0
6.252779	-0.02270662	0.02790494	0	0	0.04791373	-0.03401468	0	0
6.269345	-0.02270662	0.02790494	0	0	0	0	0	0
6.285912	-0.02270662	0.02790494	0	0	0	0	0	0
6.30265	-0.02270662	0.02790494	0	0	0	0	0	0
6.319046	-0.02270662	0.02794228	0	0.002277765	0	0.06874508	0	0
6.335612	-0.02270662	0.02797963	0	0.002254229	0	-0.0007140738	0	0
6.352179	-0.02233839	0.02824102	0.02222727	0.01577825	0.6708494	0.4081732	0	0
6.368745	-0.02173342	0.02867042	0.03651702	0.025919	0.4312779	0.3060575	0	0
6.385312	-0.02081278	0.02932374	0.05557133	0.039436	0.5750767	0.4079556	0	0
6.401879	-0.01631434	0.03258862	0.2715342	0.1970739	6.517961	4.757658	0	0
6.418446	-0.009368147	0.03762016	0.4192853	0.3037132	4.459263	3.218473	0	0
6.435244	0.00155263	0.04548927	0.6501045	0.4684415	6.917952	4.937123	0	0
6.451579	0.01028911	0.05176544	0.5348316	0.3842157	-3.479043	-2.542013	0	0
6.468145	0.01918186	0.05817967	0.5367982	0.387186	0.05977261	0.09027939	0	0
6.484713	0.03127927	0.06695004	0.7302013	0.5293805	5.837086	4.291562	0	0
6.501279	0.04215921	0.07507447	0.6567337	0.4904059	-2.217289	-1.176273	0	0
6.517845	0.04741181	0.07924136	0.3170747	0.2515355	-10.25152	-7.209538	0	0
6.534814	0.055207	0.08596249	0.4593858	0.3960893	4.24372	4.310597	0	0
6.551326	0.06530175	0.09935571	0.6113439	0.8111013	4.538619	12.3954	0	0
6.567546	0.06763352	0.1056437	0.1437624	0.3876792	-14.28514	-12.93602	0	0
6.584348	0.07106434	0.1192362	0.204187	0.8089659	1.829833	12.75779	0	0
6.600679	0.07423177	0.1338484	0.1939557	0.8947639	-0.3087955	2.589501	0	0
6.617374	0.07671756	0.1453309	0.1488893	0.6877624	-1.364562	-6.267795	0	0
6.633885	0.07865319	0.1529243	0.1172369	0.459917	-0.9532148	-6.861576	0	0
6.650395	0.08129413	0.1635712	0.1599549	0.6448565	1.293662	5.600669	0	0
6.666945	0.08492681	0.1758277	0.2194964	0.7405686	1.800984	2.895055	0	0
6.683512	0.08988869	0.1859125	0.2995086	0.6087386	2.41606	-3.980758	0	0
6.700431	0.09643677	0.1909133	0.3870219	0.2955706	2.613438	-9.352237	0	0
6.716645	0.1005545	0.1940528	0.2539601	0.1936309	-4.015986	-3.076681	0	0
6.733212	0.1050071	0.204166	0.2687686	0.6104512	0.4517445	12.71544	0	0
6.749779	0.1058659	0.2099468	0.05183719	0.348929	-6.547097	-7.892871	0	0
6.766346	0.1052153	0.2148959	-0.03927095	0.2987391	-2.749689	-1.514754	0	0
6.782913	0.1043043	0.2160653	-0.0549886	0.07058526	-0.4743732	-6.885896	0	0
6.799479	0.1043043	0.2160653	0	0	1.659631	-2.130359	0	0
6.819223	0.1043043	0.2160653	0	0	0	0	0	0
6.836026	0.1042783	0.2160833	-0.001548843	0.0010704	-0.04237927	0.02928816	0	0
6.852357	0.1042783	0.2160833	0	0	0.04674484	-0.0323052	0	0
6.869051	0.1042783	0.2160833	0	0	0	0	0	0
6.885561	0.1042522	0.2161013	-0.001576715	0.00108935	-0.04748558	0.03280772	0	0
6.902073	0.10407	0.2162272	-0.0110356	0.007626595	-0.2864383	0.1979639	0	0
6.918624	0.1035494	0.216587	-0.03145842	0.02173635	-0.6176956	0.4267545	0	0
6.935191	0.1023777	0.2173604	-0.07072806	0.0466879	-1.185774	0.7534297	0	0
6.952108	0.1000074	0.2189611	-0.1401071	0.09461319	-2.072007	1.43129	0	0
6.968325	0.09966865	0.2191229	-0.02088709	0.009981107	3.598119	-2.554238	0	0
6.984891	0.0996426	0.2191049	-0.001572709	-0.00108565	0.5891579	-0.3375758	0	0
7.001458	0.09961654	0.2190869	-0.001572754	-0.001085682	-1.363266E-06	-9.451512E-07	0	0
7.018024	0.09959049	0.219069	-0.001572754	-0.001085682	0	0	0	0
7.034591	0.09959049	0.219033	0	-0.002170401	0.04746786	-0.03273831	0	0
7.051157	0.09953837	0.219033	-0.003145867	0	-0.0949452	0.06550472	0	0
7.067724	0.09953837	0.219033	0	0	0.0949452	0	0	0
7.084291	0.09951232	0.219015	-0.001572709	-0.00108565	-0.04746582	-0.03276593	0	0
7.100859	0.09938204	0.219033	-0.007863541	0.001085588	-0.1898577	0.06552809	0	0
7.117424	0.09914752	0.2191948	-0.01415695	0.009769898	-0.1899437	0.2621043	0	0
7.133991	0.09818328	0.2197523	-0.0582016	0.033647	-1.329347	0.7206538	0	0
7.150749	0.09753167	0.2198782	-0.03888377	0.007511062	0.5796763	-0.7842696	0	0
7.183691	0.09573279	0.2188532	-0.05460789	-0.0311152	-0.316382	-0.7771918	0	0
7.200259	0.08920996	0.2152558	-0.3937073	-0.2171329	-6.849174	-3.75721	0	0
7.249959	0.05664985	0.2157955	-0.6551359	0.01085931	-3.94505	3.440483	0	0
7.266525	0.04741181	0.2171266	-0.5576412	0.08035214	1.471261	1.048694	0	0
7.283091	0.04229056	0.217864	-0.309137	0.04451384	7.500302	-1.081664	0	0
7.299658	0.03495944	0.2182417	-0.4425076	0.0227971	-4.025247	-0.6554314	0	0
7.316224	0.03524855	0.2183316	0.01745259	0.005427665	13.88223	-0.5242333	0	0
7.332791	0.03524855	0.2183316	0	0	-0.5267504	-0.1638167	0	0
7.349358	0.03527484	0.2183136	0.00158665	-0.00108565	0.04788658	-0.03276593	0	0
7.365924	0.03527484	0.2183136	0	0	-0.04788658	0.03276593	0	0
7.382913	0.03527484	0.2183136	0	0	0	0	0	0
7.399058	0.03530112	0.2182957	0.001627845	-0.001113995	0.04912915	-0.03362091	0	0
7.415624	0.03530112	0.2182957	0	0	-0.04976439	0.03405563	0	0
7.432191	0.03530112	0.2182957	0	0	0	0	0	0
7.448758	0.03535368	0.2182597	0.00317276	-0.002171238	0.09575547	-0.06552904	0	0
7.465325	0.03540625	0.2182237	0.003173076	-0.002170401	9.542589E-06	2.526186E-05	0	0
7.481891	0.03543253	0.2182057	0.001586471	-0.001085682	-0.0478859	0.03273831	0	0
7.498495	0.03543253	0.2182057	0	0	-0.04782818	0.03273061	0	0
7.515024	0.03543253	0.2182057	0	0	0	0	0	0
7.531591	0.03545881	0.2181878	0.001586426	-0.00108565	0.0479343	-0.03280323	0	0
7.548158	0.0354851	0.2181698	0.001586605	-0.001085619	5.407233E-06	9.416105E-07	0	0
7.564724	0.0354851	0.2181698	0	0	-0.04788521	0.03276499	0	0
7.581553	0.0354851	0.2181698	0	0	0	0	0	0
7.597857	0.0354851	0.2181698	0	0	0	0	0	0
7.614576	0.0354851	0.2181698	0	0	0	0	0	0
7.630991	0.0354851	0.2181698	0	0	0	0	0	0
7.647604	0.0354851	0.2181698	0	0	0	0	0	0
7.684489	0.03553766	0.2181338	0.001425045	-0.0009752117	0.02663698	-0.01822868	0	0
7.701056	0.03556395	0.2181158	0.00158638	-0.001085619	0.003018258	-0.002065506	0	0
7.717649	0.03559023	0.2180978	0.001583918	-0.001083934	-7.424063E-05	5.080324E-05	0	0
7.734189	0.0356428	0.2180259	0.003178291	-0.004349737	0.04812102	-0.09856781	0	0
7.750756	0.03569536	0.2179899	0.00317276	-0.002171238	-0.000167048	0.06580216	0	0
7.767322	0.0357742	0.217936	0.004759551	-0.003256239	0.04789151	-0.0327468	0	0
7.783889	0.03580049	0.217918	0.001586426	-0.00108565	-0.09577063	0.06551227	0	0
7.800456	0.03582677	0.2179	0.00158638	-0.001085619	-1.377281E-06	9.416105E-07	0	0
7.817022	0.03587933	0.217864	0.003172943	-0.002171363	0.04788393	-0.03276877	0	0
7.833732	0.03590561	0.2178461	0.001572844	-0.001076356	-0.04808554	0.03290673	0	0
7.850156	0.03595818	0.2178101	0.003200487	-0.002190213	0.04912376	-0.03361722	0	0
7.866754	0.03598446	0.2177921	0.001583463	-0.001083623	-0.04896889	0.03351124	0	0
7.883289	0.03603702	0.2177561	0.003178799	-0.00217537	0.0481487	-0.03294995	0	0
7.899856	0.03611587	0.2177022	0.004759414	-0.003257045	0.0477498	-0.03267697	0	0
7.916423	0.03622099	0.2176302	0.006345295	-0.004342476	0.04786337	-0.03275933	0	0
7.93299	0.03632612	0.2175583	0.006345478	-0.004342601	5.509124E-06	-3.766442E-06	0	0
7.949556	0.0363524	0.2175403	0.001586426	-0.00108565	-0.1436326	0.0982978	0	0
8.002769	0.03651008	0.2173964	0.002963256	-0.00270395	0.01973105	-0.0231915	0	0
8.019337	0.03653637	0.2173784	0.00158638	-0.001086519	-0.01973157	0.0231789	0	0
8.035903	0.03661521	0.2173245	0.004759189	-0.003257045	0.09575833	-0.0655085	0	0
8.052469	0.03669405	0.2172705	0.004759189	-0.003257045	0	0	0	0
8.069036	0.03672033	0.2172525	0.001586246	-0.001085682	-0.09576512	0.06553564	0	0
8.085603	0.03672033	0.2172525	0	0	-0.04787439	0.03276688	0	0
8.102422	0.03674661	0.2172345	0.001562633	-0.001069368	0.04680471	-0.03203021	0	0
8.118736	0.03674661	0.2172345	0	0	-0.04716171	0.03227452	0	0
8.15187	0.03674661	0.2172345	0	0	0	0	0	0
8.168468	0.03674661	0.2172345	0	0	0	0	0	0
8.185003	0.03677289	0.2172165	0.001589266	-0.001087748	0.04796551	-0.03282924	0	0
8.201992	0.03677289	0.2172165	0	0	-0.04740743	0.03244727	0	0
8.218137	0.03679917	0.2171986	0.001627893	-0.001114028	0.04913131	-0.03362239	0	0
8.234703	0.03679917	0.2171626	0	-0.002171363	-0.04976586	-0.03232352	0	0
8.251269	0.03682545	0.2171446	0.001586246	-0.001085682	0.04787577	0.03276782	0	0
8.267836	0.03685173	0.2171266	0.001586471	-0.001085682	6.788321E-06	0	0	0
8.284402	0.03690429	0.2170906	0.003172718	-0.002172263	0.04787577	-0.03279497	0	0
8.300968	0.03693057	0.2170367	0.001586246	-0.003257045	-0.04788256	-0.03274067	0	0
8.317534	0.03695685	0.2170187	0.001586471	-0.001085682	6.788321E-06	0.06553564	0	0
8.334101	0.03700941	0.2169827	0.003172718	-0.002171363	0.04787577	-0.03276782	0	0
8.350668	0.03706197	0.2169467	0.00317231	-0.002171238	-1.229733E-05	3.773523E-06	0	0
8.367234	0.03708825	0.2169288	0.001586471	-0.001085682	-0.04786209	0.0327631	0	0
8.383801	0.03711453	0.2169108	0.001586246	-0.001085682	-6.788321E-06	0	0	0
8.400367	0.03711453	0.2169108	0	0	-0.04787577	0.03276782	0	0
8.416933	0.03714081	0.2168928	0.001586471	-0.001086581	0.04788256	-0.03279497	0	0
8.433499	0.03714081	0.2168928	0	0	-0.04788256	0.03279497	0	0
8.450067	0.03716709	0.2168748	0.001586155	-0.001085619	0.04787163	-0.03276499	0	0
8.466676	0.03716709	0.2168748	0	0	-0.04780971	0.03272261	0	0
8.483199	0.03716709	0.2168748	0	0	0	0	0	0
8.499765	0.03714081	0.2168568	-0.001586246	-0.001085682	-0.04793786	-0.03281032	0	0
8.518995	0.03714081	0.2168568	0	0	0.0443133	0.03032955	0	0
8.535723	0.03714081	0.2168568	0	0	0	0	0	0
8.552129	0.03714081	0.2168568	0	0	0	0	0	0
8.568695	0.03714081	0.2168568	0	0	0	0	0	0
8.585261	0.03714081	0.2168568	0	0	0	0	0	0
8.601828	0.03716709	0.2168388	0.001586246	-0.001085682	0.04787577	-0.03276782	0	0
8.618779	0.03716709	0.2168388	0	0	-0.04732544	0.03239116	0	0
8.63496	0.03719337	0.2168208	0.001624016	-0.001111533	0.04901573	-0.03354805	0	0
8.651807	0.03721965	0.2168028	0.001560068	-0.001067613	-0.001936224	0.001329799	0	0
8.668095	0.03721965	0.2168028	0	0	-0.04708293	0.03222061	0	0
8.68483	0.03724593	0.2167848	0.001570247	-0.001074731	0.04755026	-0.03254503	0	0
8.701227	0.03724593	0.2167848	0	0	-0.04739287	0.03243731	0	0
8.717794	0.0372722	0.2167669	0.001586155	-0.001085619	0.04811677	-0.03293277	0	0
8.734361	0.0372722	0.2167669	0	0	-0.04787163	0.03276499	0	0
8.751373	0.0372722	0.2167669	0	0	0	0	0	0
8.767494	0.0372722	0.2167669	0	0	0	0	0	0
8.78406	0.0372722	0.2167669	0	0	0	0	0	0
8.800627	0.03729848	0.2167489	0.001586246	-0.001086581	0.04787577	-0.03279497	0	0
8.817193	0.03729848	0.2167489	0	0	-0.04787577	0.03279497	0	0
8.83376	0.03729848	0.2167489	0	0	0	0	0	0
8.866893	0.03729848	0.2167489	0	0	0	0	0	0
8.883466	0.03729848	0.2167489	0	0	0	0	0	0
8.900026	0.03732476	0.2167309	0.00158702	-0.001086057	0.04789772	-0.0327782	0	0
8.916989	0.03732476	0.2167309	0	0	-0.04734042	0.03239682	0	0
8.933159	0.03732476	0.2167309	0	0	0	0	0	0
8.949725	0.03735104	0.2167129	0.001586246	-0.001085682	0.04845598	-0.03316494	0	0
8.966292	0.03732476	0.2166949	-0.001586155	-0.001085619	-0.09574603	1.886762E-06	0	0
8.982859	0.03732476	0.2166949	0	0	0.04787163	0.03276499	0	0
8.999425	0.03735104	0.2166769	0.001586246	-0.001085682	0.04787577	-0.03276782	0	0
9.06569	0.0374036	0.2166409	0.0007931232	-0.0005428408	-0.009575154	0.006553564	0	0
9.082256	0.0374036	0.2166409	0	0	-0.009575154	0.006553564	0	0
9.098823	0.0374036	0.2166409	0	0	0	0	0	0
9.115389	0.0374036	0.2166409	0	0	0	0	0	0
9.131955	0.0374036	0.2166409	0	0	0	0	0	0
9.148521	0.0374036	0.2166409	0	0	0	0	0	0
9.165088	0.0374036	0.2166409	0	0	0	0	0	0
9.181654	0.0374036	0.2166409	0	0	0	0	0	0
9.198221	0.0374036	0.2166409	0	0	0	0	0	0
9.214787	0.0374036	0.2166409	0	0	0	0	0	0
9.231354	0.0374036	0.2166409	0	0	0	0	0	0
9.24792	0.0374036	0.2166409	0	0	0	0	0	0
9.264486	0.0374036	0.2166409	0	0	0	0	0	0
9.281053	0.0374036	0.2166409	0	0	0	0	0	0
9.297751	0.0374036	0.2166409	0	0	0	0	0	0
9.314186	0.0374036	0.2166409	0	0	0	0	0	0
9.330753	0.0374036	0.2166409	0	0	0	0	0	0
9.347319	0.0374036	0.2166409	0	0	0	0	0	0
9.363886	0.0374036	0.2166409	0	0	0	0	0	0
9.38081	0.0374036	0.2166409	0	0	0	0	0	0
9.397018	0.0374036	0.2166409	0	0	0	0	0	0
9.413834	0.0374036	0.2166409	0	0	0	0	0	0
9.430152	0.0374036	0.2166409	0	0	0	0	0	0
9.449635	0.0374036	0.2166409	0	0	0	0	0	0
9.466371	0.0374036	0.2166409	0	0	0	0	0	0
9.482883	0.0374036	0.2166409	0	0	0	0	0	0
9.499394	0.0374036	0.2166409	0	0	0	0	0	0
9.515903	0.0374036	0.2166409	0	0	0	0	0	0
9.532469	0.0374036	0.2166409	0	0	0	0	0	0
9.549035	0.0374036	0.2166409	0	0	0	0	0	0
9.565601	0.0374036	0.2166409	0	0	0	0	0	0
9.582169	0.0374036	0.2166409	0	0	0	0	0	0
9.598965	0.0374036	0.2166409	0	0	0	0	0	0
9.615302	0.0374036	0.2166409	0	0	0	0	0	0
9.631986	0.0374036	0.2166409	0	0	0	0	0	0
9.648498	0.0374036	0.2166409	0	0	0	0	0	0
9.665009	0.0374036	0.2166409	0	0	0	0	0	0
9.681567	0.03742988	0.216623	0.001587294	-0.001086244	0.04799856	-0.03284721	0	0
9.764583	0.03742988	0.216623	0	0	-0.01594098	0.01090901	0	0
9.780968	0.03742988	0.216623	0	0	0	0	0	0
9.797604	0.03742988	0.216623	0	0	0	0	0	0
9.814115	0.03742988	0.216623	0	0	0	0	0	0
9.830667	0.03742988	0.216623	0	0	0	0	0	0
9.847234	0.03742988	0.216623	0	0	0	0	0	0
9.864149	0.03742988	0.216623	0	0	0	0	0	0
9.896934	0.03742988	0.216623	0	0	0	0	0	0
9.9135	0.03742988	0.216623	0	0	0	0	0	0
9.930066	0.03742988	0.216623	0	0	0	0	0	0
9.946707	0.03742988	0.216623	0	0	0	0	0	0
9.9632	0.03742988	0.216623	0	0	0	0	0	0
9.979766	0.03742988	0.216623	0	0	0	0	0	0
9.996332	0.03742988	0.216623	0	0	0	0	0	0
10.0129	0.03742988	0.216623	0	0	0	0	0	0
10.02977	0.03742988	0.216623	0	0	0	0	0	0
10.04603	0.03745616	0.216605	0.001615447	-0.001106584	0.04875711	-0.03339869	0	0
10.06279	0.03745616	0.216605	0	0	-0.04891904	0.03350961	0	0
10.07917	0.03745616	0.216605	0	0	0	0	0	0
10.09581	0.03745616	0.216605	0	0	0	0	0	0
10.1123	0.03745616	0.216605	0	0	0	0	0	0
10.12887	0.03745616	0.216605	0	0	0	0	0	0
10.14543	0.03745616	0.216605	0	0	0	0	0	0
10.16236	0.03745616	0.216605	0	0	0	0	0	0
10.17857	0.03745616	0.216605	0	0	0	0	0	0
10.19538	0.03745616	0.216605	0	0	0	0	0	0
10.2117	0.03745616	0.216605	0	0	0	0	0	0
10.22826	0.03745616	0.216605	0	0	0	0	0	0
10.24492	0.03745616	0.216605	0	0	0	0	0	0
10.2614	0.03745616	0.216605	0	0	0	0	0	0
10.27796	0.03742988	0.216623	-0.001586155	0.001086519	-0.04799597	0.0328773	0	0
10.29453	0.03737732	0.2166949	-0.003172718	0.004342726	-0.04788393	0.09827538	0	0
10.3111	0.03721965	0.2168748	-0.009517156	0.01085709	-0.191481	0.1966096	0	0
10.32766	0.03703569	0.2170726	-0.0111044	0.0119434	-0.04790452	0.03278575	0	0
10.36367	0.03482801	0.2193027	-0.06131735	0.06194044	-0.9551574	0.9510504	0	0
10.38024	0.03067459	0.2222154	-0.2507015	0.1758082	-3.602424	2.165969	0	0
10.3968	0.01426219	0.2337132	-0.9907112	0.6940483	-22.33418	15.64097	0	0
10.41337	0.006420964	0.239134	-0.4733246	0.3272201	15.61566	-11.07153	0	0
10.42993	-0.005920983	0.2479055	-0.7450044	0.5294789	-8.199782	6.104534	0	0
10.4465	-0.02341677	0.2602174	-1.056109	0.7431882	-9.389685	6.45013	0	0
10.46307	-0.03587933	0.2689558	-0.7521985	0.5274222	9.172026	-6.511829	0	0
10.47963	-0.03976849	0.2717481	-0.2347773	0.1685611	15.61625	-10.83076	0	0
10.4962	-0.05053588	0.2802293	-0.6499583	0.5119578	-12.53127	10.36463	0	0
10.51277	-0.05932504	0.2895109	-0.5305147	0.5602406	3.604919	1.457222	0	0
10.52933	-0.0702788	0.3140648	-0.6612082	1.482158	-3.944451	27.82431	0	0
10.5459	-0.07250426	0.3200127	-0.1343367	0.3590413	15.90193	-33.89767	0	0
10.57903	-0.08016991	0.3360319	-0.2313498	0.4834585	-1.951944	2.503327	0	0
10.59566	-0.08377713	0.3452819	-0.2169331	0.5562844	0.2897081	1.463464	0	0
10.61217	-0.08513582	0.3464248	-0.08229004	0.06921822	4.062951	-14.69757	0	0
10.62873	-0.09148079	0.3507642	-0.3831378	0.2620357	-9.096883	5.830318	0	0
10.6453	-0.09594138	0.3538181	-0.2692571	0.1843392	3.437716	-2.345425	0	0
10.66221	-0.09711459	0.3546217	-0.06936975	0.04751819	5.970577	-4.086803	0	0
10.72585	-0.09763593	0.3549789	-0.008192179	0.005612637	0.7594873	-0.5202353	0	0
10.74242	-0.09763593	0.3549789	0	0	0.1021393	-0.06997784	0	0
10.75928	-0.09763593	0.3549789	0	0	0	0	0	0
10.77555	-0.09763593	0.3549789	0	0	0	0	0	0
10.7923	-0.09763593	0.3549789	0	0	0	0	0	0
10.80869	-0.09763593	0.3549789	0	0	0	0	0	0
10.82532	-0.09763593	0.3549789	0	0	0	0	0	0
10.84182	-0.09763593	0.3550146	0	0.002166199	0	0.06537791	0	0
10.85839	-0.09779233	0.3552289	-0.009440029	0.01293569	-0.285517	0.3257269	0	0
10.87495	-0.09852209	0.3558719	-0.04405106	0.0388093	-1.044593	0.7808895	0	0
10.90809	-0.1069066	0.3652311	-0.2530535	0.2824697	-4.205298	4.902644	0	0
10.92465	-0.1064643	0.3718588	0.02670013	0.4000989	5.628977	2.366842	0	0
10.94122	-0.1053194	0.3778983	0.06910995	0.3645432	1.280005	-1.073137	0	0
10.95792	-0.1023516	0.3813297	0.1777332	0.2054961	3.265379	-4.781197	0	0
10.97435	-0.09870452	0.3837247	0.2219019	0.1457239	1.333055	-1.803979	0	0
10.99094	-0.09815722	0.3841358	0.03299125	0.02478262	-5.720269	-3.662138	0	0
11.00795	-0.09820934	0.3842073	-0.003064206	0.004202991	-1.073084	-0.6124917	0	0
11.02405	-0.09852209	0.3849581	-0.01942643	0.04663342	-0.4941826	1.281512	0	0
11.04062	-0.0999292	0.3864239	-0.08493328	0.0884793	-2.00534	1.281015	0	0
11.05719	-0.1027422	0.3931825	-0.1697844	0.4079264	-2.560738	9.640656	0	0
11.07375	-0.1025079	0.397314	0.01414669	0.2493901	5.551051	-4.784635	0	0
11.09051	-0.09972076	0.4021622	0.1663054	0.2892897	4.565876	1.197279	0	0
11.10689	-0.09927781	0.4024306	0.0270496	0.01639028	-4.202748	-8.23612	0	0
11.12345	-0.09922569	0.4023948	0.003146139	-0.002160694	-0.7256477	-0.5631599	0	0
11.14002	-0.09919964	0.4023769	0.001572664	-0.001079323	-0.04749032	0.03263771	0	0
11.15659	-0.09919964	0.4023769	0	0	-0.04746582	0.03257591	0	0
11.17315	-0.09899117	0.4025201	0.01258383	0.008640478	0.3798136	0.2607927	0	0
11.18972	-0.09841785	0.4029137	0.03460579	0.0237613	0.6646432	0.4563603	0	0
11.20629	-0.097662	0.4034684	0.04561773	0.03347855	0.3323219	0.2932503	0	0
11.22285	-0.09753167	0.4035937	0.007868275	0.007561964	-1.139314	-0.7821866	0	0
11.24269	-0.09674963	0.4042021	0.03942648	0.03067305	0.8669873	0.6349227	0	0
11.25926	-0.09497654	0.405419	0.1070234	0.07345333	1.856921	1.175195	0	0
11.27582	-0.08628523	0.4113798	0.524609	0.3597941	12.60276	8.641783	0	0
11.29239	-0.0838294	0.4130629	0.1482428	0.1015971	-11.35908	-7.792625	0	0
11.30917	-0.08367261	0.4131345	0.009345512	0.00426863	-4.16567	-2.918981	0	0
11.32552	-0.08367261	0.4131345	0	0	-0.28204	-0.1288238	0	0
11.34209	-0.08369873	0.4131524	-0.001577342	0.001081246	-0.04790903	0.03284098	0	0
11.35866	-0.08369873	0.4131524	0	0	0.0476084	-0.0326349	0	0
11.37522	-0.08372487	0.4131703	-0.00157761	0.001081122	-0.04761375	0.03262927	0	0
11.39179	-0.083751	0.4131882	-0.001577252	0.001081184	1.083219E-05	1.876221E-06	0	0
11.40836	-0.08372487	0.4131703	0.001577252	-0.001081184	0.09520858	-0.06526416	0	0
11.42492	-0.08372487	0.4131703	0	0	-0.04760429	0.03263208	0	0
11.44176	-0.08372487	0.4131345	0	-0.002127825	0	-0.06370451	0	0
11.45827	-0.08372487	0.4131345	0	0	0	0.06380835	0	0
11.47462	-0.083751	0.4130808	-0.001597856	-0.003284102	-0.04861941	-0.09992834	0	0
11.49119	-0.08377713	0.4130629	-0.001577252	-0.001081184	0.0006259154	0.06691948	0	0
11.50775	-0.08380327	0.4130092	-0.001577701	-0.003241753	-1.357313E-05	-0.06520986	0	0
11.52432	-0.0838294	0.4129196	-0.001577252	-0.005405921	1.357313E-05	-0.06531845	0	0
11.54089	-0.08380327	0.4129018	0.001577252	-0.001079385	0.09520858	0.1305826	0	0
11.55745	-0.08380327	0.4128659	0	-0.002162368	-0.04760429	-0.03268638	0	0
11.57402	-0.08377713	0.4128122	0.00157761	-0.003243366	0.04761375	-0.03262551	0	0
11.59059	-0.08377713	0.4128122	0	0	-0.04761238	0.09788498	0	0
11.60737	-0.08377713	0.4127764	0	-0.002132215	0	-0.06392719	0	0
11.62388	-0.083751	0.4127585	0.001582627	-0.001084869	0.04753121	0.03145506	0	0
11.6404	-0.08372487	0.4127048	0.001582444	-0.003254231	-5.538395E-06	-0.06569459	0	0
11.65691	-0.08372487	0.4127048	0	0	-0.04791547	0.09853619	0	0
11.67342	-0.08372487	0.4127048	0	0	0	0	0	0
11.77282	-0.08356807	0.4125257	0.001577446	-0.001801339	0.01360928	-0.0155409	0	0
11.78939	-0.08359421	0.4125078	-0.00157761	-0.001081122	-0.02720655	0.006210548	0	0
11.80595	-0.08356807	0.4124899	0.001577792	-0.001079447	0.09523573	5.054348E-05	0	0
11.82253	-0.08354194	0.412472	0.001576616	-0.001080749	-3.548498E-05	-3.92685E-05	0	0
11.83908	-0.08356807	0.4124541	-0.001577887	-0.00108162	-0.09520859	-2.629947E-05	0	0
11.85565	-0.08356807	0.4124541	0	0	0.04763308	0.03265182	0	0
11.87256	-0.08354194	0.4124362	0.001545054	-0.001059113	0.04615161	-0.03163629	0	0
11.88879	-0.08356807	0.4124183	-0.001610631	-0.001104065	-0.09523875	-0.001356655	0	0
11.90535	-0.08356807	0.4124183	0	0	0.04911929	0.03367059	0	0
11.92192	-0.08356807	0.4124183	0	0	0	0	0	0
11.93849	-0.08356807	0.4124183	0	0	0	0	0	0
11.95512	-0.08356807	0.4124183	0	0	0	0	0	0
11.97163	-0.08354194	0.4124004	0.001582353	-0.001082876	0.04773901	-0.03266998	0	0
11.98819	-0.08351582	0.4123467	0.001578342	-0.003245795	-0.0001212888	-0.06540879	0	0
12.00475	-0.08348968	0.4122571	0.001577701	-0.005404122	-1.934215E-05	-0.0651647	0	0
12.02132	-0.08343741	0.4121497	0.003154953	-0.006485306	0.04760429	-0.03263209	0	0
12.03788	-0.08330674	0.4118453	0.007887607	-0.01837293	0.14284	-0.35879	0	0
12.05469	-0.08307154	0.4114335	0.01399653	-0.02450556	0.1830609	-0.1837713	0	0
12.07102	-0.08213062	0.4079605	0.0576266	-0.212703	1.316834	-5.680136	0	0
12.08758	-0.07990843	0.4034684	0.1341392	-0.2711596	2.326027	-1.777113	0	0
12.10422	-0.07263515	0.3949888	0.4371538	-0.5096584	9.125825	-7.182817	0	0
12.12073	-0.07174507	0.3923421	0.05391176	-0.1603133	-11.56161	10.53901	0	0
12.13728	-0.06786928	0.3772907	0.2341585	-0.9093379	5.451782	-22.65516	0	0
12.15385	-0.06650703	0.3726807	0.08223026	-0.2782781	-4.587447	19.05475	0	0
12.17077	-0.06312654	0.3618015	0.1998254	-0.6430816	3.512033	-10.89502	0	0
12.19094	-0.05678101	0.3490499	0.3145994	-0.632203	3.094686	0.293322	0	0
12.2075	-0.04840952	0.3403176	0.505304	-0.5270802	5.191014	2.861462	0	0
12.22407	-0.0377715	0.3298353	0.642112	-0.6327136	4.128875	-3.18802	0	0
12.24082	-0.03025392	0.3238705	0.4489549	-0.3562212	-5.798452	8.300122	0	0
12.25733	-0.02215427	0.3183695	0.4905339	-0.3331516	1.250251	0.6936842	0	0
12.27384	-0.01839266	0.3158153	0.2278116	-0.1546906	-7.955535	5.404008	0	0
12.29034	-0.01676159	0.3147078	0.09886166	-0.06712428	-3.906333	2.652681	0	0
12.3069	-0.0161828	0.3142434	0.0349379	-0.02803523	-1.933285	1.182194	0	0
12.32347	-0.01620911	0.3142255	-0.001587975	-0.001079261	-1.102353	0.8135328	0	0
12.34004	-0.01641958	0.3140112	-0.0127047	-0.01293823	-0.3355035	-0.3579044	0	0
12.35661	-0.01670897	0.3136718	-0.01746895	-0.02048673	-0.1437936	-0.2278273	0	0
12.37341	-0.01663005	0.3135825	0.004696389	-0.005314734	0.6641912	0.4546336	0	0
12.38974	-0.01568292	0.3128322	0.05798954	-0.0459371	1.608205	-1.225844	0	0
12.40644	-0.01107849	0.3097059	0.2758597	-0.1873	6.59736	-4.280633	0	0
12.5057	0.01947122	0.2888851	0.3077441	-0.2097393	0.2749583	-0.1935073	0	0
12.52227	0.01949753	0.2888673	0.001587933	-0.001079385	-2.643011	1.801337	0	0
12.53884	0.01947122	0.2888494	-0.001587933	-0.001079385	-0.09585334	0	0	0
12.55554	0.01941861	0.2888136	-0.003150184	-0.002141389	-0.04696094	-0.03192362	0	0
12.57197	0.01941861	0.2887779	0	-0.002176184	0.09507273	-0.001050112	0	0
12.58854	0.01939231	0.28876	-0.001588024	-0.001079447	-0.04812336	0.0332354	0	0
12.6051	0.01939231	0.28876	0	0	0.04792943	0.03257966	0	0
12.62167	0.019366	0.2887421	-0.001587933	-0.001079385	-0.04792529	-0.03257685	0	0
12.63824	0.019366	0.2887421	0	0	0.04792667	0.03257778	0	0
12.67138	0.01931339	0.2887063	-0.001587659	-0.001079199	-0.03194192	-0.02171227	0	0
12.68794	0.01931339	0.2886706	0	-0.002159268	0.03194437	-0.02173145	0	0
12.7045	0.01931339	0.2886706	0	0	0	0.06517808	0	0
12.72107	0.01928708	0.2886527	-0.001587842	-0.001079323	-0.04792254	-0.03257497	0	0
12.73767	0.01928708	0.2886527	0	0	0.04787844	0.032545	0	0
12.77077	0.01928708	0.2886169	0	-0.001080349	0	-0.0217375	0	0
12.78734	0.01926078	0.2885991	-0.001587933	-0.001077586	-0.03197013	5.562799E-05	0	0
12.8039	0.01926078	0.2885991	0	0	0.04792529	0.03252255	0	0
12.82047	0.01926078	0.2885633	0	-0.00215877	0	-0.0651537	0	0
12.83704	0.01926078	0.2885275	0	-0.00215877	0	0	0	0
12.8536	0.01931339	0.288456	0.003175866	-0.004317541	0.09585334	-0.06515557	0	0
12.87017	0.01949753	0.2882593	0.01111542	-0.01187324	0.23963	-0.2280445	0	0
12.88674	0.02007625	0.2878302	0.03493161	-0.02590195	0.7187949	-0.4233997	0	0
12.9033	0.02323266	0.2856844	0.1905324	-0.1295298	4.696176	-3.127585	0	0
12.91987	0.02993842	0.2811237	0.4047837	-0.2753008	6.46649	-4.39963	0	0
12.93644	0.0346966	0.27785	0.2872207	-0.197612	-3.548264	2.344786	0	0
12.953	0.04066179	0.2737167	0.3600802	-0.2494999	2.199031	-1.566068	0	0
12.96957	0.04439187	0.2710679	0.2251613	-0.1598875	-4.072094	2.704662	0	0
12.98613	0.04835701	0.2682934	0.2393501	-0.1674792	0.4282416	-0.2291305	0	0
13.00285	0.05148079	0.2658049	0.1868629	-0.1488658	-1.576986	0.5592425	0	0
13.01936	0.05447238	0.2632621	0.1811879	-0.1540028	-0.1707893	-0.1545979	0	0
13.03587	0.05402632	0.2618831	-0.02701413	-0.08351623	-6.304781	2.134476	0	0
13.0524	0.04234309	0.254054	-0.70691	-0.4737089	-20.57853	-11.81003	0	0
13.07266	0.03679917	0.2502721	-0.2736409	-0.1866718	11.77777	7.80267	0	0
13.08923	0.0348543	0.2489813	-0.1173993	-0.07791812	4.242681	2.953166	0	0
13.1058	0.02678307	0.2435834	-0.4871245	-0.3257777	-11.15801	-7.480203	0	0
13.12236	0.02362718	0.2414666	-0.1905117	-0.1277868	8.951792	5.975379	0	0
13.13895	0.02018147	0.2392596	-0.2076966	-0.133029	-0.5183139	-0.1581098	0	0
13.1555	0.01939231	0.2387572	-0.04770266	-0.03037269	4.828765	3.098262	0	0
13.17206	0.01939231	0.2387572	0	0	1.440747	0.917336	0	0
13.18863	0.01939231	0.2387572	0	0	0	0	0	0
13.20551	0.01939231	0.2387572	0	0	0	0	0	0
13.22176	0.01939231	0.2387572	0	0	0	0	0	0
13.23852	0.019366	0.2387392	-0.00156968	-0.001071424	-0.04754271	-0.03245144	0	0
13.2549	0.01939231	0.2387213	0.001606522	-0.001095661	0.09586073	-0.0007315119	0	0
13.27154	0.01939231	0.2387213	0	0	-0.04865016	0.0331798	0	0
13.28803	0.01939231	0.2386854	0	-0.002177395	0	-0.0657158	0	0
13.30507	0.01939231	0.2386854	0	0	0	0.06495304	0	0
13.32116	0.01941861	0.2386674	0.001634413	-0.001114683	0.04933093	-0.0336441	0	0
13.33773	0.01941861	0.2386674	0	0	-0.05003813	0.03412641	0	0
13.3546	0.01941861	0.2386674	0	0	0	0	0	0
13.37111	0.01941861	0.2386674	0	0	0	0	0	0
13.38743	0.01941861	0.2386674	0	0	0	0	0	0
13.45965	0.01939231	0.2386495	-0.0003642364	-0.0002484121	-0.004113846	-0.002805677	0	0
13.47622	0.01941861	0.2386315	0.001587842	-0.001082921	0.02198535	-0.009398685	0	0
13.49279	0.01939231	0.2386136	-0.001587842	-0.00108382	-0.09584231	-2.714469E-05	0	0
13.55925	0.01939231	0.2385777	0	-0.0005399142	0.01912465	0.006551038	0	0
13.57562	0.01939231	0.2385777	0	0	0	0.006518082	0	0
13.59227	0.01939231	0.2385777	0	0	0	0	0	0
13.60875	0.01939231	0.2385777	0	0	0	0	0	0
13.62532	0.01939231	0.2385418	0	-0.002166866	0	-0.06555841	0	0
13.64189	0.01939231	0.2385418	0	0	0	0.06539991	0	0
13.67502	0.01939231	0.2385418	0	0	0	0	0	0
13.69158	0.01939231	0.2385418	0	0	0	0	0	0
13.70815	0.01939231	0.2385418	0	0	0	0	0	0
13.72472	0.01939231	0.2385418	0	0	0	0	0	0
13.74128	0.01939231	0.2385418	0	0	0	0	0	0
13.75785	0.01939231	0.2385418	0	0	0	0	0	0
13.77442	0.01939231	0.2385418	0	0	0	0	0	0
13.79098	0.01939231	0.2385418	0	0	0	0	0	0
13.80755	0.01939231	0.2385418	0	0	0	0	0	0
13.82412	0.01939231	0.2385059	0	-0.002166866	0	-0.06539991	0	0
13.84068	0.01939231	0.2385059	0	0	0	0.06539991	0	0
13.85725	0.01939231	0.23847	0	-0.002165966	0	-0.06537275	0	0
13.87396	0.01939231	0.2384341	0	-0.002147702	0	0.000548797	0	0
13.89038	0.01939231	0.2383982	0	-0.002186248	0	-0.001163341	0	0
13.90695	0.01941861	0.2383444	0.001587933	-0.003249849	0.04814006	-0.03224433	0	0
13.92351	0.01957645	0.2382008	0.009527486	-0.008666564	0.23963	-0.1634862	0	0
13.94008	0.02057604	0.2375188	0.06033573	-0.04116538	1.53344	-0.9808445	0	0
13.95665	0.02294334	0.2359034	0.1428987	-0.09751256	2.491826	-1.70061	0	0
13.97322	0.02938627	0.2315045	0.3888962	-0.2655162	7.424433	-5.070505	0	0
13.99005	0.03398691	0.2283613	0.2733518	-0.1867607	-3.459652	2.358111	0	0
14.00734	0.03614215	0.2268881	0.1246172	-0.08518145	-4.358481	2.976653	0	0
14.02391	0.03798173	0.2255943	0.1110372	-0.07808992	-0.4010404	0.2094237	0	0
14.0631	0.04068806	0.2237073	0.06906118	-0.04815379	-0.7528693	0.5369261	0	0
14.07951	0.04068806	0.2236714	0	-0.00218897	-1.241955	0.8266037	0	0
14.09612	0.04068806	0.2236714	0	0	0	0.06628455	0	0
14.11265	0.04066179	0.2236174	-0.001589457	-0.003262759	-0.04797266	-0.09847593	0	0
14.12921	0.04066179	0.2235815	0	-0.002169439	0.04802658	0.03303543	0	0
14.14578	0.04063552	0.2235635	-0.001585797	-0.001084782	-0.04786082	0.03273596	0	0
14.16235	0.04066179	0.2235456	0.001585797	-0.001085682	0.09572439	-2.714977E-05	0	0
14.17891	0.04066179	0.2235456	0	0	-0.04786219	0.03276782	0	0
14.19569	0.04066179	0.2235456	0	0	0	0	0	0
14.21205	0.04063552	0.2235635	-0.001605951	0.00109948	-0.04846909	0.03318332	0	0
14.22871	0.04063552	0.2235635	0	0	0.04863146	-0.03329448	0	0
14.24518	0.04063552	0.2235635	0	0	0	0	0	0
14.26175	0.04063552	0.2235635	0	0	0	0	0	0
14.27831	0.04060924	0.2235815	-0.00158593	0.00108472	-0.04786485	0.03273785	0	0
14.29488	0.04060924	0.2235815	0	0	0.04786485	-0.03273785	0	0
14.31145	0.04058297	0.2235995	-0.001585797	0.001084782	-0.04786219	0.03274067	0	0
14.32828	0.04058297	0.2235995	0	0	0.04747547	-0.03247613	0	0
14.34458	0.0405567	0.2236174	-0.001612194	0.001102683	-0.04865751	0.03328	0	0
14.3613	0.0405567	0.2236174	0	0	0.04882192	-0.03339245	0	0
14.44398	0.04053042	0.2236354	-0.000317763	0.0002173694	-0.003196856	0.002186845	0	0
14.46087	0.04053042	0.2236354	0	0	0.003191314	-0.002183054	0	0
14.47711	0.04053042	0.2236354	0	0	0	0	0	0
14.49368	0.04053042	0.2236354	0	0	0	0	0	0
14.51024	0.04053042	0.2236354	0	0	0	0	0	0
14.52692	0.04053042	0.2236354	0	0	0	0	0	0
14.54343	0.04050415	0.2236534	-0.001591243	0.001089256	-0.04794653	0.0328209	0	0
14.55994	0.04050415	0.2236534	0	0	0.04818468	-0.03298393	0	0
14.57651	0.04050415	0.2236534	0	0	0	0	0	0
14.59308	0.04050415	0.2236534	0	0	0	0	0	0
14.60964	0.04047788	0.2236714	-0.001585797	0.001084782	-0.04786219	0.03274067	0	0
14.62621	0.04047788	0.2237073	0	0.002169564	0.04786219	0.03274067	0	0
14.64278	0.0404516	0.2237253	-0.001586022	0.001084782	-0.04786898	-0.03274067	0	0
14.65934	0.0404516	0.2237253	0	0	0.0478676	-0.03273973	0	0
14.67603	0.0404516	0.2237253	0	0	0	0	0	0
14.69254	0.0404516	0.2237253	0	0	0	0	0	0
14.70905	0.04042533	0.2237073	-0.001590834	-0.001088228	-0.04817368	-0.03295375	0	0
14.72561	0.04042533	0.2237073	0	0	0.04810006	0.03290338	0	0
14.74218	0.04042533	0.2237073	0	0	0	0	0	0
14.75874	0.04042533	0.2237073	0	0	0	0	0	0
14.77531	0.04042533	0.2237073	0	0	0	0	0	0
14.79188	0.04042533	0.2237073	0	0	0	0	0	0
14.80862	0.04042533	0.2237073	0	0	0	0	0	0
14.82501	0.04042533	0.2237073	0	0	0	0	0	0
14.84164	0.04042533	0.2237073	0	0	0	0	0	0
14.85815	0.04042533	0.2237073	0	0	0	0	0	0
14.87471	0.04042533	0.2237073	0	0	0	0	0	0
14.89168	0.04042533	0.2237073	0	0	0	0	0	0
14.90784	0.04042533	0.2237073	0	0	0	0	0	0
14.92441	0.04042533	0.2237073	0	0	0	0	0	0
14.94098	0.04042533	0.2237073	0	0	0	0	0	0
14.95772	0.04042533	0.2237073	0	0	0	0	0	0
14.97672	0.04042533	0.2237073	0	0	0	0	0	0
14.99328	0.04042533	0.2237073	0	0	0	0	0	0
15.00985	0.04042533	0.2237073	0	0	0	0	0	0
15.02642	0.04042533	0.2237073	0	0	0	0	0	0
15.04298	0.04042533	0.2237073	0	0	0	0	0	0
15.14238	0.04042533	0.2237073	0	0	0	0	0	0
15.15895	0.04042533	0.2237073	0	0	0	0	0	0
15.17552	0.04042533	0.2237073	0	0	0	0	0	0
15.19239	0.04042533	0.2237073	0	0	0	0	0	0
15.20865	0.04042533	0.2237073	0	0	0	0	0	0
15.22522	0.04042533	0.2237073	0	0	0	0	0	0
15.24178	0.04042533	0.2237073	0	0	0	0	0	0
15.25843	0.04042533	0.2237073	0	0	0	0	0	0
15.27495	0.04042533	0.2237073	0	0	0	0	0	0
15.29148	0.04042533	0.2237073	0	0	0	0	0	0
15.30805	0.04042533	0.2237073	0	0	0	0	0	0
15.32461	0.04042533	0.2237073	0	0	0	0	0	0
15.34118	0.04042533	0.2237073	0	0	0	0	0	0
15.35775	0.04042533	0.2237073	0	0	0	0	0	0
15.37431	0.04042533	0.2237073	0	0	0	0	0	0
15.39103	0.04042533	0.2237073	0	0	0	0	0	0
15.40745	0.04042533	0.2237073	0	0	0	0	0	0
15.42402	0.04042533	0.2237073	0	0	0	0	0	0
15.44058	0.04042533	0.2237073	0	0	0	0	0	0
15.45757	0.04042533	0.2237073	0	0	0	0	0	0
15.47372	0.04042533	0.2237073	0	0	0	0	0	0
15.4906	0.04042533	0.2237073	0	0	0	0	0	0
15.50685	0.04042533	0.2237073	0	0	0	0	0	0
15.52362	0.04042533	0.2237073	0	0	0	0	0	0
15.53998	0.04042533	0.2237073	0	0	0	0	0	0
15.55655	0.04042533	0.2237073	0	0	0	0	0	0
15.57316	0.04042533	0.2237073	0	0	0	0	0	0
15.58968	0.04042533	0.2237073	0	0	0	0	0	0
15.60625	0.04042533	0.2237073	0	0	0	0	0	0
15.62281	0.04042533	0.2237073	0	0	0	0	0	0
15.6397	0.04042533	0.2237073	0	0	0	0	0	0
15.65621	0.04042533	0.2237073	0	0	0	0	0	0
15.67251	0.04042533	0.2237073	0	0	0	0	0	0
15.68924	0.04042533	0.2237073	0	0	0	0	0	0
15.70565	0.0404516	0.2236893	0.001601283	-0.001095376	0.04832821	-0.03305946	0	0
15.72226	0.0404516	0.2236893	0	0	-0.04849431	0.03317308	0	0
15.73878	0.0404516	0.2236893	0	0	0	0	0	0
15.75535	0.0404516	0.2236893	0	0	0	0	0	0
15.7723	0.0404516	0.2236893	0	0	0	0	0	0
15.78848	0.0404516	0.2236893	0	0	0	0	0	0
15.80505	0.0404516	0.2236893	0	0	0	0	0	0
15.82161	0.0404516	0.2236893	0	0	0	0	0	0
15.83818	0.0404516	0.2236893	0	0	0	0	0	0
15.85475	0.0404516	0.2236893	0	0	0	0	0	0
15.87137	0.0404516	0.2236893	0	0	0	0	0	0
15.88788	0.0404516	0.2236893	0	0	0	0	0	0
15.9236	0.0404516	0.2236893	0	0	0	0	0	0
15.94017	0.0404516	0.2236893	0	0	0	0	0	0
15.95673	0.0404516	0.2236893	0	0	0	0	0	0
15.97344	0.0404516	0.2236893	0	0	0	0	0	0
15.98995	0.0404516	0.2236893	0	0	0	0	0	0
16.00646	0.04042533	0.2236714	-0.001591017	-0.001088353	-0.04817785	-0.0329566	0	0
16.023	0.04042533	0.2236714	0	0	0.0481417	0.03293188	0	0
16.03957	0.04042533	0.2236714	0	0	0	0	0	0
16.05614	0.04042533	0.2236714	0	0	0	0	0	0
16.0727	0.04042533	0.2236714	0	0	0	0	0	0
16.08927	0.04042533	0.2236714	0	0	0	0	0	0
16.10583	0.04042533	0.2236714	0	0	0	0	0	0
16.1224	0.04037279	0.2237433	-0.003171636	0.004339778	-0.09572567	0.1309823	0	0
16.14289	0.04003124	0.2240129	-0.01666719	0.0131556	-0.3641562	0.237881	0	0
16.15957	0.03974222	0.2243184	-0.01732929	0.01831971	-0.01781274	0.1389306	0	0
16.17603	0.03677289	0.2281098	-0.1804341	0.2303863	-4.922512	6.400184	0	0
16.1926	0.03285659	0.2318637	-0.2363882	0.2265877	-1.694355	-0.1150279	0	0
16.20916	0.02362718	0.2396006	-0.5570883	0.4669979	-9.67875	7.255594	0	0
16.22573	0.01039436	0.2545021	-0.7987345	0.8994557	-7.292896	13.0516	0	0
16.2423	0.004052609	0.2708174	-0.382789	0.9847941	12.55326	2.57552	0	0
16.25887	0.001210526	0.2988956	-0.1715485	1.694803	6.375251	21.42812	0	0
16.27566	0.0003421053	0.3211737	-0.05170953	1.326535	3.592141	-11.03875	0	0
16.292	-0.0002105263	0.3414069	-0.0338242	1.238388	0.5398114	-2.660436	0	0
16.30868	-2.631579E-05	0.3635341	0.01104143	1.326289	1.358662	2.661891	0	0
16.32519	-7.894737E-05	0.3727522	-0.003187491	0.5582657	-0.42864	-23.13636	0	0
16.3417	-7.894737E-05	0.3879435	0	0.9203439	0.09653764	10.96605	0	0
16.35827	0.0001842105	0.3970994	0.01588424	0.5526476	0.480272	-11.11758	0	0
16.3914	0.0003157895	0.4126152	0.00397106	0.4682697	-0.2396937	-1.697686	0	0
16.42454	0.001447367	0.4254245	0.03415109	0.3865838	0.4554175	-1.232642	0	0
16.44128	0.001473683	0.4287769	0.001571598	0.2002114	-0.6531695	-3.736485	0	0
16.45779	0.0007105262	0.4376204	-0.04621856	0.53558	-1.437016	10.08429	0	0
16.4743	-0.0002368421	0.4410307	-0.05737482	0.2065381	-0.3378246	-9.96377	0	0
16.4908	-0.00347367	0.445502	-0.1961884	0.271008	-4.205138	1.953013	0	0
16.50737	-0.005342055	0.4467773	-0.1127759	0.07697912	2.522623	-5.867962	0	0
16.52394	-0.005210479	0.4466516	0.007941906	-0.00758944	3.643271	-2.552284	0	0
16.5405	-0.005210479	0.4466516	0	0	-0.239701	0.2290629	0	0
16.55707	-0.005131534	0.4465977	0.004765155	-0.00325236	0.143821	-0.09816207	0	0
16.57388	-0.005105219	0.4465438	0.001565842	-0.003207993	-0.09586568	0.001329441	0	0
16.5902	-0.005105219	0.4465438	0	0	-0.04725719	0.09681741	0	0
16.60677	-0.005131534	0.4465618	-0.001588376	0.00108472	-0.04828471	0.03297417	0	0
16.62334	-0.005078904	0.4465618	0.003176751	0	0.1438118	-0.0327369	0	0
16.6399	-0.005105219	0.4465797	-0.001588559	0.001084845	-0.1438256	0.03274256	0	0
16.65647	-0.005052588	0.4465797	0.003176779	0	0.1438265	-0.03274256	0	0
16.67306	-0.005026273	0.4465977	0.001586184	0.001083223	-0.04797112	0.03266917	0	0
16.68996	-0.004947328	0.4465438	0.004670519	-0.003189531	0.09208882	-0.1275714	0	0
16.70617	-0.004763122	0.446418	0.01136469	-0.00775734	0.2021702	-0.137952	0	0
16.72298	-0.004736807	0.4464001	0.001565486	-0.001069088	-0.2967827	0.2025631	0	0
16.73931	-0.004657861	0.4463821	0.004836455	-0.001099118	0.09872372	-0.0009063462	0	0
16.75601	-0.004131556	0.4463462	0.03151388	-0.002152096	0.8078234	-0.03188539	0	0
16.77244	-0.003078938	0.4467055	0.06405234	0.02186158	0.9820127	0.7247342	0	0
16.78903	-0.002421048	0.4467593	0.03965551	0.003247873	-0.7387645	-0.5636446	0	0
16.80557	-0.000736842	0.4456097	0.1017995	-0.06948568	1.87551	-2.195103	0	0
16.82437	0.0009736839	0.4445142	0.09100956	-0.05829168	-0.305324	0.3167572	0	0
16.84107	0.0009999997	0.4445321	0.001576086	0.001076294	-2.519825	1.672717	0	0
16.8575	0.001473683	0.4442089	0.02881719	-0.01966632	0.8221382	-0.6260135	0	0
16.87409	0.003394724	0.4431853	0.1158076	-0.06170591	2.634018	-1.272934	0	0
16.89064	0.006684111	0.4414437	0.1987996	-0.1052576	2.504703	-1.314392	0	0
16.99004	0.05192696	0.4398459	0.455144	-0.01607292	2.210826	0.7691671	0	0
17.00661	0.05184823	0.4397921	-0.004752619	-0.003250561	-3.965631	0.1105656	0	0
17.02318	0.05184823	0.4397921	0	0	0.1434343	0.09810213	0	0
17.03974	0.05179574	0.4397562	-0.003168263	-0.002165842	-0.09561836	-0.06536523	0	0
17.05631	0.05174325	0.4397203	-0.003168263	-0.00216764	0	-5.428939E-05	0	0
17.07288	0.051717	0.4397024	-0.001584131	-0.001082921	0.04780918	0.0327369	0	0
17.08945	0.05166451	0.4396665	-0.003168488	-0.00216764	-0.04781597	-0.0327369	0	0
17.10601	0.05163826	0.4396485	-0.001584131	-0.001082921	0.04781597	0.0327369	0	0
17.12258	0.05158577	0.4396126	-0.003168853	-0.00216789	-0.04782973	-0.03274632	0	0
17.13929	0.05153328	0.4395767	-0.003140423	-0.002146811	0.0008542543	0.0006334112	0	0
17.1558	0.0514283	0.4395049	-0.006359673	-0.004350809	-0.09690056	-0.06634114	0	0
17.17228	0.05140205	0.439487	-0.001592565	-0.001088686	0.1445121	0.09888937	0	0
17.20584	0.05127082	0.4393972	-0.003910691	-0.002674029	-0.04632787	-0.03168317	0	0
17.22198	0.05116583	0.4393254	-0.006503186	-0.004447144	-0.05216112	-0.03567513	0	0
17.23855	0.05108709	0.4392716	-0.004752844	-0.003250561	0.05350923	0.03658041	0	0
17.25512	0.0510346	0.4392357	-0.003168488	-0.00216764	0.04781597	0.03268261	0	0
17.27168	0.05079836	0.4390741	-0.01425898	-0.009749885	-0.3347118	-0.2288326	0	0
17.28839	0.04993214	0.4384818	-0.0518316	-0.03544068	-1.129004	-0.7719724	0	0
17.30491	0.04754309	0.4368488	-0.1446865	-0.09890299	-2.794805	-1.910128	0	0
17.32138	0.0471755	0.4365975	-0.02231148	-0.01524876	3.709728	2.53593	0	0
17.33795	0.04707047	0.4365258	-0.006339449	-0.004331683	0.4833724	0.3303908	0	0
17.35452	0.04683415	0.4363284	-0.01426438	-0.01191393	-0.2391748	-0.2288326	0	0
17.37108	0.04512724	0.4349109	-0.1030295	-0.08555794	-2.678936	-2.222581	0	0
17.38797	0.03808684	0.4299604	-0.4169431	-0.2931757	-9.383724	-6.206254	0	0
17.40422	0.0242847	0.4201558	-0.8494301	-0.6034086	-13.05248	-9.362846	0	0
17.42099	0.01299927	0.4110396	-0.6728242	-0.5434973	5.34814	1.814287	0	0
17.4375	0.004131556	0.393272	-0.5370492	-1.076049	4.079148	-15.99969	0	0
17.45392	0.003026307	0.387729	-0.06734093	-0.3377233	14.26616	22.42472	0	0
17.47048	0.0003421053	0.3629268	-0.1620187	-1.497064	-2.870767	-35.15288	0	0
17.48705	-0.002684204	0.3381569	-0.1826684	-1.495116	-0.6232088	0.05879432	0	0
17.53414	-0.01431481	0.2927111	-0.246984	-0.965073	-1.010334	8.326449	0	0
17.55071	-0.02031299	0.2856307	-0.362051	-0.4273705	-1.807588	8.44677	0	0
17.56728	-0.02949145	0.2793885	-0.5539487	-0.3767375	-5.79115	1.52802	0	0
17.58411	-0.03396062	0.2763113	-0.2655712	-0.1828566	8.634658	5.805222	0	0
17.60041	-0.04163382	0.2707995	-0.4706876	-0.3381066	-6.191138	-4.685993	0	0
17.61713	-0.04594133	0.2665747	-0.2576291	-0.2526773	6.45203	2.587048	0	0
17.63354	-0.04924962	0.2614174	-0.2015679	-0.314225	1.692027	-1.857622	0	0
17.65015	-0.05323911	0.2531042	-0.2401983	-0.5005221	-1.169839	-5.641619	0	0
17.66667	-0.05352776	0.2449466	-0.01746923	-0.4937008	6.722363	0.205881	0	0
17.68324	-0.05250433	0.2326897	0.0617746	-0.7398247	2.394754	-7.437881	0	0
17.69981	-0.05221565	0.2271755	0.01742477	-0.3328371	-1.338481	12.28291	0	0
17.74951	-0.05284549	0.2099468	-0.01267286	-0.3466562	-0.4541873	-0.2085362	0	0
17.83234	-0.05316039	0.2098388	-0.003801598	-0.001304032	0.06693576	2.605762	0	0
17.85605	-0.05316039	0.2098388	0	0	0.03568021	0.0122391	0	0
17.87262	-0.05316039	0.2098388	0	0	0	0	0	0
17.88919	-0.05316039	0.2098388	0	0	0	0	0	0
17.90583	-0.05316039	0.2098388	0	0	0	0	0	0
17.92234	-0.05313415	0.2098568	0.001589212	0.001091061	0.04793218	0.03290744	0	0
17.93889	-0.05313415	0.2098568	0	0	-0.04807599	-0.03300618	0	0
17.95546	-0.05313415	0.2098568	0	0	0	0	0	0
17.97202	-0.05313415	0.2098568	0	0	0	0	0	0
17.98859	-0.05313415	0.2098568	0	0	0	0	0	0
18.00541	-0.05313415	0.2098568	0	0	0	0	0	0
18.02192	-0.05313415	0.2098568	0	0	0	0	0	0
18.03843	-0.05313415	0.2098568	0	0	0	0	0	0
18.05494	-0.05313415	0.2098568	0	0	0	0	0	0
18.07145	-0.05313415	0.2098568	0	0	0	0	0	0
18.08799	-0.05308167	0.2098928	0.003172927	0.002176545	0.09599675	0.06585126	0	0
18.10456	-0.05302918	0.2099288	0.003168038	0.002173037	-0.0001476757	-0.0001059588	0	0
18.12113	-0.0529767	0.2099648	0.003167813	0.002173037	-6.78793E-06	0	0	0
18.13769	-0.05268803	0.2101268	0.0174241	0.009779566	0.4302555	0.2295655	0	0
18.15426	-0.0524256	0.2102709	0.01584224	0.008694049	-0.04774334	-0.03276286	0	0
18.17083	-0.05221565	0.2103789	0.0126726	0.006519111	-0.09566532	-0.06564353	0	0
18.18754	-0.05182198	0.2104689	0.02355586	0.005385472	0.3270268	-0.03406429	0	0
18.20396	-0.05035214	0.2110089	0.0895028	0.03288328	1.990283	0.8298854	0	0
18.22053	-0.04651904	0.2116568	0.2313662	0.03911107	4.300257	0.1887811	0	0
18.23709	-0.03719337	0.2102349	0.5628991	-0.08583137	10.00568	-3.77077	0	0
18.25366	-0.02123365	0.2086686	0.9633303	-0.0945415	12.08504	-0.2628725	0	0
18.27023	-0.01313082	0.2079483	0.4890876	-0.04347333	-14.31268	1.54124	0	0
18.2868	0.003210515	0.2067418	0.9863652	-0.07282732	15.00787	-0.8859052	0	0
18.30336	0.007394602	0.2058233	0.252552	-0.05544213	-22.14653	0.5246863	0	0
18.32014	0.01297296	0.2055711	0.332575	-0.01503422	2.400177	1.211978	0	0
18.3365	0.01552507	0.2067778	0.1559853	0.07375427	-5.329488	2.679642	0	0
18.35307	0.01555138	0.2067958	0.001588066	0.001087418	-4.688867	-2.206809	0	0
18.36963	0.01555138	0.2067958	0	0	-0.04792794	-0.03281834	0	0
18.3862	0.01555138	0.2067958	0	0	0	0	0	0
18.40277	0.01555138	0.2067958	0	0	0	0	0	0
18.41933	0.01555138	0.2067958	0	0	0	0	0	0
18.4359	0.01555138	0.2067958	0	0	0	0	0	0
18.45247	0.01552507	0.2068138	-0.001588249	0.001087543	-0.04793898	0.0328259	0	0
18.56843	0.01547245	0.2067778	-0.0004537402	-0.0003107011	0.008560259	-0.01055023	0	0
18.58503	0.01544614	0.2067958	-0.001584964	0.001085294	-0.008533262	0.01053053	0	0
18.60157	0.01544614	0.2067958	0	0	0.04783432	-0.03275423	0	0
18.61813	0.01541983	0.2067778	-0.00158801	-0.001087418	-0.04797319	-0.03285049	0	0
18.63486	0.01541983	0.2067778	0	0	0.04769835	0.03266228	0	0
18.65127	0.01541983	0.2067778	0	0	0	0	0	0
18.66783	0.01541983	0.2067778	0	0	0	0	0	0
18.6844	0.01539352	0.2067598	-0.001588066	-0.001086519	-0.04792794	-0.03279119	0	0
18.70141	0.01539352	0.2067598	0	0	0.04729899	0.03236088	0	0
18.71753	0.01539352	0.2067598	0	0	0	0	0	0
18.73443	0.01536721	0.2067418	-0.00155723	-0.001066303	-0.04716019	-0.03229263	0	0
18.75067	0.01536721	0.2067418	0	0	0.04700001	0.03218294	0	0
18.76745	0.0153409	0.2067238	-0.00156726	-0.001072321	-0.04745846	-0.03247113	0	0
18.7838	0.0153409	0.2067238	0	0	0.04730001	0.03236272	0	0
18.80394	0.01531459	0.2067058	-0.001306492	-0.0008946119	-0.03580837	-0.02451954	0	0
18.82051	0.01528828	0.2066878	-0.001587884	-0.001086393	-0.007665895	-0.00522467	0	0
18.83708	0.01528828	0.2066878	0	0	0.04791691	0.03278365	0	0
18.85364	0.01526197	0.2066697	-0.001588193	-0.001087543	-0.04793176	-0.03282212	0	0
18.87053	0.01523566	0.2066517	-0.001557934	-0.001066785	0.0009045341	0.0006205235	0	0
18.88677	0.01520935	0.2066337	-0.001619578	-0.001108078	-0.001860534	-0.0012463	0	0
18.90334	0.01520935	0.2066337	0	0	0.04935627	0.03376842	0	0
18.91991	0.01520935	0.2066337	0	0	0	0	0	0
18.93657	0.01518304	0.2066157	-0.001578616	-0.001080947	-0.04750326	-0.03252754	0	0
18.95309	0.01518304	0.2066157	0	0	0.04757699	0.03257803	0	0
18.96961	0.01518304	0.2066157	0	0	0	0	0	0
18.98618	0.01518304	0.2066157	0	0	0	0	0	0
19.00274	0.01518304	0.2066157	0	0	0	0	0	0
19.01931	0.01518304	0.2066157	0	0	0	0	0	0
19.03588	0.01515673	0.2065977	-0.001588066	-0.001087418	-0.04792794	-0.03281834	0	0
19.05244	0.01515673	0.2065977	0	0	0.04792794	0.03281834	0	0
19.06901	0.01513042	0.2065797	-0.001588066	-0.001086519	-0.04792794	-0.03279119	0	0
19.08618	0.01513042	0.2065797	0	0	0.04706904	0.03220355	0	0
19.1022	0.01513042	0.2065797	0	0	0	0	0	0
19.11955	0.01513042	0.2065797	0	0	0	0	0	0
19.13622	0.01513042	0.2065797	0	0	0	0	0	0
19.15269	0.01513042	0.2065797	0	0	0	0	0	0
19.16926	0.01513042	0.2065797	0	0	0	0	0	0
19.18582	0.01510411	0.2065617	-0.001588798	-0.001087919	-0.04795002	-0.03283346	0	0
19.20239	0.01510411	0.2065617	0	0	0.04796107	0.03284102	0	0
19.21895	0.01510411	0.2065617	0	0	0	0	0	0
19.23552	0.01510411	0.2065617	0	0	0	0	0	0
19.25209	0.0150778	0.2065437	-0.001588066	-0.001086519	-0.04792794	-0.03279119	0	0
19.26865	0.0150778	0.2065437	0	0	0.04792794	0.03279119	0	0
19.28533	0.0150778	0.2065437	0	0	0	0	0	0
19.30185	0.0150515	0.2065257	-0.001592778	-0.001090683	-0.04798726	-0.03286012	0	0
19.31835	0.01502519	0.2065077	-0.001593755	-0.001091313	-2.957112E-05	-1.908076E-05	0	0
19.33492	0.01499888	0.2064897	-0.001588066	-0.001086519	0.0001719727	0.0001449519	0	0
19.35149	0.01499888	0.2064897	0	0	0.04792794	0.03279119	0	0
19.36806	0.01499888	0.2064897	0	0	0	0	0	0
19.3849	0.01497257	0.2064716	-0.001561991	-0.001069563	-0.04675077	-0.03201228	0	0
19.40119	0.01497257	0.2064716	0	0	0.04714099	0.03227948	0	0
19.41792	0.01494626	0.2064536	-0.001572318	-0.001075744	-0.04761161	-0.03257477	0	0
19.43432	0.01494626	0.2064536	0	0	0.04745538	0.03246788	0	0
19.45089	0.01494626	0.2064176	0	-0.002174836	0	-0.06597086	0	0
19.51716	0.01476209	0.2062915	-0.00277913	-0.001902307	-0.03354973	0.003289976	0	0
19.55029	0.01473578	0.2062735	-0.0007940613	-0.000543709	0.01996983	0.01366752	0	0
19.56686	0.01468316	0.2062375	-0.003175767	-0.002173686	-0.04791819	-0.03279395	0	0
19.58343	0.01457791	0.2061655	-0.006353053	-0.004349273	-0.09589068	-0.06565934	0	0
19.60006	0.01436743	0.2060214	-0.01265812	-0.008664723	-0.1899484	-0.1300085	0	0
19.61657	0.01405171	0.2058052	-0.01912109	-0.01309002	-0.1950189	-0.1335327	0	0
19.63313	0.01281509	0.2049587	-0.07467683	-0.05112319	-1.679867	-1.150028	0	0
19.65009	0.01273615	0.2049046	-0.004653056	-0.003185961	2.088793	1.429957	0	0
19.67076	0.01273615	0.2049046	0	0	0.1236338	0.08465239	0	0
19.68733	0.01273615	0.2049046	0	0	0	0	0	0
19.70415	0.01273615	0.2049046	0	0	0	0	0	0
19.72047	0.01273615	0.2049046	0	0	0	0	0	0
19.73716	0.01273615	0.2049046	0	0	0	0	0	0
19.75367	0.01270984	0.2048866	-0.001593499	-0.001091061	-0.0479952	-0.03286207	0	0
19.77016	0.01270984	0.2048866	0	0	0.04827531	0.03305386	0	0
19.78673	0.01270984	0.2048866	0	0	0	0	0	0
19.8033	0.01270984	0.2048866	0	0	0	0	0	0
19.81986	0.01270984	0.2048866	0	0	0	0	0	0
19.83643	0.01270984	0.2048866	0	0	0	0	0	0
19.85324	0.01270984	0.2048866	0	0	0	0	0	0
19.86956	0.01270984	0.2048866	0	0	0	0	0	0
19.88613	0.01270984	0.2048866	0	0	0	0	0	0
19.9027	0.01270984	0.2048866	0	0	0	0	0	0
19.91926	0.01268353	0.2048686	-0.001588179	-0.001087418	-0.04793685	-0.03282212	0	0
19.93583	0.01268353	0.2048686	0	0	0.04793134	0.03281834	0	0
19.95281	0.01270984	0.2048506	0.001549643	-0.001061033	0.04619395	-0.03162876	0	0
19.96897	0.01270984	0.2048506	0	0	-0.04676832	0.03202203	0	0
19.98553	0.01268353	0.2048326	-0.001588179	-0.001086519	-0.04853481	-0.03320405	0	0
20.0021	0.01268353	0.2048326	0	0	0.04793409	0.03279308	0	0
20.01867	0.01268353	0.2048326	0	0	0	0	0	0
20.03523	0.01268353	0.2048326	0	0	0	0	0	0
20.0518	0.01268353	0.2048326	0	0	0	0	0	0
20.06837	0.01265722	0.2048146	-0.001588545	-0.001087668	-0.04794789	-0.03282968	0	0
20.08493	0.01265722	0.2048146	0	0	0.04794789	0.03282968	0	0
20.1015	0.01265722	0.2048146	0	0	0	0	0	0
20.11807	0.01265722	0.2048146	0	0	0	0	0	0
20.13463	0.01265722	0.2048146	0	0	0	0	0	0
20.1512	0.01265722	0.2048146	0	0	0	0	0	0
20.16796	0.01265722	0.2048146	0	0	0	0	0	0
20.18433	0.01265722	0.2048146	0	0	0	0	0	0
20.20098	0.01265722	0.2048146	0	0	0	0	0	0
20.21747	0.01265722	0.2048146	0	0	0	0	0	0
20.27916	0.01265722	0.2048146	0	0	0	0	0	0
20.29605	0.01265722	0.2048146	0	0	0	0	0	0
20.31229	0.01265722	0.2048146	0	0	0	0	0	0
20.32886	0.01265722	0.2048146	0	0	0	0	0	0
20.34543	0.01265722	0.2048146	0	0	0	0	0	0
20.36199	0.01265722	0.2048146	0	0	0	0	0	0
20.37861	0.01265722	0.2048146	0	0	0	0	0	0
20.39513	0.01265722	0.2048146	0	0	0	0	0	0
20.41169	0.01265722	0.2048146	0	0	0	0	0	0
20.44483	0.01265722	0.2048146	0	0	0	0	0	0
20.46139	0.01265722	0.2048146	0	0	0	0	0	0
20.47818	0.01265722	0.2048146	0	0	0	0	0	0
20.49453	0.01265722	0.2048146	0	0	0	0	0	0
20.5111	0.01265722	0.2048146	0	0	0	0	0	0
20.52766	0.01265722	0.2048146	0	0	0	0	0	0
20.54423	0.01265722	0.2048146	0	0	0	0	0	0
20.5608	0.01265722	0.2048146	0	0	0	0	0	0
20.58062	0.01265722	0.2048146	0	0	0	0	0	0
20.59727	0.01265722	0.2048146	0	0	0	0	0	0
20.61378	0.01265722	0.2048146	0	0	0	0	0	0
20.63032	0.01265722	0.2048146	0	0	0	0	0	0
20.64688	0.01265722	0.2048146	0	0	0	0	0	0
20.66381	0.01263091	0.2047965	-0.001554007	-0.001064021	-0.04638999	-0.03176299	0	0
20.68002	0.01263091	0.2047965	0	0	0.04690273	0.03211406	0	0
20.69684	0.01263091	0.2047965	0	0	0	0	0	0
20.71315	0.01263091	0.2047965	0	0	0	0	0	0
20.72972	0.01263091	0.2047965	0	0	0	0	0	0
20.74637	0.01263091	0.2047965	0	0	0	0	0	0
20.76285	0.01263091	0.2047965	0	0	0	0	0	0
20.77942	0.01263091	0.2047965	0	0	0	0	0	0
20.81255	0.01265722	0.2047785	0.0007940895	-0.000543709	0.01597773	-0.01093987	0	0
20.82912	0.01265722	0.2047785	0	0	-0.01597711	0.01093945	0	0
20.84594	0.01265722	0.2047785	0	0	0	0	0	0
20.86225	0.01265722	0.2047785	0	0	0	0	0	0
20.87882	0.01265722	0.2047785	0	0	0	0	0	0
20.89548	0.01265722	0.2047785	0	0	0	0	0	0
20.91195	0.01265722	0.2047785	0	0	0	0	0	0
20.92852	0.01265722	0.2047785	0	0	0	0	0	0
20.94509	0.01265722	0.2047785	0	0	0	0	0	0
20.96165	0.01265722	0.2047785	0	0	0	0	0	0
20.97822	0.01265722	0.2047785	0	0	0	0	0	0
20.99505	0.01265722	0.2047785	0	0	0	0	0	0
21.01156	0.01263091	0.2047965	-0.001593499	0.001091061	-0.04778929	0.03272109	0	0
21.02792	0.01263091	0.2047965	0	0	0.04848262	-0.0331958	0	0
21.04459	0.01263091	0.2047965	0	0	0	0	0	0
21.0611	0.01265722	0.2047785	0.001593499	-0.001091061	0.04802831	-0.03288474	0	0
21.07762	0.01265722	0.2047785	0	0	-0.04823907	0.03302905	0	0
21.09419	0.01265722	0.2047785	0	0	0	0	0	0
21.11075	0.01265722	0.2047785	0	0	0	0	0	0
21.12732	0.01263091	0.2047605	-0.001588179	-0.001087418	-0.04793134	-0.03281834	0	0
21.14389	0.01252566	0.2046524	-0.006352659	-0.006523608	-0.1437923	-0.1640646	0	0
21.16067	0.01236779	0.2044363	-0.009406698	-0.01288055	-0.0915754	-0.1906129	0	0
21.17718	0.0121573	0.2040759	-0.01274805	-0.02182121	-0.1003569	-0.2685314	0	0
21.1937	0.009973354	0.2019318	-0.1322646	-0.1298534	-3.6191	-3.271339	0	0
21.21021	0.003789456	0.1956401	-0.3745112	-0.381041	-7.335508	-7.606253	0	0
21.22672	-0.0007894735	0.1851359	-0.2772465	-0.6360118	2.944947	-7.719921	0	0
21.24329	-0.00460523	0.172716	-0.2303195	-0.7496654	1.418464	-3.435412	0	0
21.25986	-0.007789316	0.1594381	-0.1921918	-0.8014585	1.150698	-1.563119	0	0
21.27642	-0.01334131	0.142458	-0.3351192	-1.024922	-4.313558	-6.744127	0	0
21.29299	-0.01686682	0.1352873	-0.2128001	-0.4328229	3.691598	17.86957	0	0
21.32629	-0.04053042	0.1179572	-0.7106102	-0.5204155	-9.982629	-1.756501	0	0
21.34269	-0.04851453	0.1124356	-0.4868542	-0.3366985	4.502151	3.696536	0	0
21.35926	-0.05788264	0.1059002	-0.5654598	-0.3944777	-2.384401	-1.75266	0	0
21.37583	-0.06407008	0.1015382	-0.373475	-0.2632883	5.794114	3.959306	0	0
21.39239	-0.07297544	0.09526298	-0.5375285	-0.3787749	-4.951144	-3.485395	0	0
21.40935	-0.08006532	0.09024755	-0.4180786	-0.295752	3.56296	2.476413	0	0
21.42553	-0.08756498	0.08496878	-0.4636774	-0.3263672	-1.376254	-0.9240212	0	0
21.44237	-0.09270717	0.08130485	-0.3052177	-0.217475	4.79862	3.297571	0	0
21.45889	-0.1053975	0.07225119	-0.7684642	-0.548247	-13.88569	-9.914801	0	0
21.49536	-0.117353	0.06364026	-0.3277988	-0.236095	8.316617	5.891201	0	0
21.51193	-0.1291974	0.0549924	-0.7149256	-0.5219858	-7.298833	-5.390143	0	0
21.52849	-0.1332065	0.05204373	-0.2419914	-0.1779822	14.27318	10.38205	0	0
21.54506	-0.1364365	0.04957551	-0.1949653	-0.1489819	1.41925	0.8752303	0	0
21.56196	-0.1377019	0.0485915	-0.0748792	-0.0582287	3.588266	2.711775	0	0
21.57819	-0.1376761	0.04857293	0.001589854	-0.00114397	2.307974	1.72292	0	0
21.59476	-0.1376503	0.04855436	0.001558543	-0.001120568	-0.0009545411	0.0007134136	0	0
21.61133	-0.1376503	0.04855436	0	0	-0.04703692	0.03381881	0	0
21.62801	-0.1376503	0.04855436	0	0	0	0	0	0
21.64446	-0.1376503	0.04855436	0	0	0	0	0	0
21.66103	-0.1376503	0.04855436	0	0	0	0	0	0
21.6776	-0.1376503	0.04855436	0	0	0	0	0	0
21.69416	-0.1376761	0.04857293	-0.001558722	0.001120697	-0.04704504	0.03382465	0	0
21.71073	-0.1376761	0.04857293	0	0	0.04703962	-0.03382076	0	0
21.72729	-0.1376761	0.04857293	0	0	0	0	0	0
21.74409	-0.1376761	0.04857293	0	0	0	0	0	0
21.76043	-0.1377019	0.0485915	-0.001579646	0.001136625	-0.04767656	0.03430538	0	0
21.77699	-0.1377019	0.0485915	0	0	0.04800542	-0.03454201	0	0
21.79356	-0.1377019	0.0485915	0	0	0	0	0	0
21.81013	-0.1377019	0.0485915	0	0	0	0	0	0
21.82669	-0.1377019	0.0485915	0	0	0	0	0	0
21.84326	-0.1377278	0.04861007	-0.001558722	0.001120697	-0.04705317	0.0338305	0	0
21.85983	-0.1377536	0.0485915	-0.001558722	-0.001120697	0	-0.06764542	0	0
21.8764	-0.1377278	0.04857293	0.001558722	-0.001120922	0.09408467	-6.784417E-06	0	0
21.89296	-0.1377019	0.0485915	0.001558722	0.001120922	0	0.06765898	0	0
21.90953	-0.1377019	0.0485915	0	0	-0.04704504	-0.03383144	0	0
21.92622	-0.1376761	0.04857293	0.001546252	-0.001112596	0.04649468	-0.03345496	0	0
21.94273	-0.1376761	0.04857293	0	0	-0.04656947	0.03350877	0	0
21.95923	-0.1376761	0.04857293	0	0	0	0	0	0
21.9758	-0.1376761	0.04857293	0	0	0	0	0	0
21.99236	-0.1376503	0.04855436	0.001558722	-0.001120697	0.04704233	-0.03382271	0	0
22.00928	-0.1376503	0.04855436	0	0	-0.04655195	0.03347012	0	0
22.0255	-0.1376503	0.04855436	0	0	0	0	0	0
22.04231	-0.1376503	0.04855436	0	0	0	0	0	0
22.05882	-0.1376503	0.04855436	0	0	0	0	0	0
22.0752	-0.1376245	0.04853579	0.001576142	-0.001133449	0.0479156	-0.03445749	0	0
22.09184	-0.1376245	0.04853579	0	0	-0.04772742	0.03432215	0	0
22.14147	-0.1370822	0.04814582	0.01092681	-0.007857914	0.1648906	-0.1185796	0	0
22.15804	-0.1340595	0.04597242	0.1824506	-0.131187	2.591207	-1.863131	0	0
22.1746	-0.1262978	0.0403939	0.4684946	-0.33672	8.632825	-6.202999	0	0
22.19141	-0.1197662	0.03570153	0.3885719	-0.2791506	-2.394565	1.724839	0	0
22.20774	-0.1134061	0.03113378	0.3896386	-0.2798336	0.03219536	-0.02061536	0	0
22.2243	-0.1056577	0.02557017	0.4676918	-0.3358202	2.373135	-1.702221	0	0
22.24087	-0.1039138	0.0243181	0.1052601	-0.07557476	-10.93821	7.854224	0	0
22.25744	-0.1004242	0.02185006	0.2106344	-0.1489712	3.180203	-2.215109	0	0
22.27807	-0.1004242	0.02188747	0	0.001812933	-5.662074	4.053236	0	0
22.29464	-0.1004242	0.02188747	0	0	0	-0.04873353	0	0
22.3112	-0.1004242	0.0220745	0	0.01128916	0	0.3407074	0	0
22.32801	-0.1013359	0.02321517	-0.05424992	0.06787448	-1.625569	1.695548	0	0
22.34434	-0.1046427	0.02641086	-0.2025122	0.1957083	-4.474565	3.858033	0	0
22.36091	-0.1063082	0.02895043	-0.1005322	0.1532886	3.100069	-1.289508	0	0
22.37747	-0.1048249	0.03933305	0.0895348	0.6266963	5.736233	14.28747	0	0
22.39404	-0.1001116	0.04448562	0.2844961	0.3110096	5.883943	-9.527444	0	0
22.41061	-0.08699043	0.05771656	0.7919937	0.7986215	15.31631	14.71615	0	0
22.42718	-0.0731325	0.06796647	0.8364664	0.6186855	1.342187	-5.430479	0	0
22.44374	-0.05769904	0.07883591	0.9315653	0.6560809	2.870091	1.128596	0	0
22.46031	-0.03685173	0.09344485	1.258346	0.881797	9.862271	6.812126	0	0
22.47688	-0.0265201	0.100658	0.6236904	0.4354378	-19.15506	-13.47192	0	0
22.49344	-0.001631577	0.1179755	1.502274	1.045287	26.51723	18.40633	0	0
22.51014	0.01244673	0.1277422	0.8429746	0.5848061	-19.81784	-13.84156	0	0
22.52658	0.02115474	0.1337755	0.5299485	0.3671703	-9.447689	-6.568642	0	0
22.54317	0.03543253	0.1436219	0.8606203	0.5935084	10.0137	6.854176	0	0
22.55971	0.04441813	0.1498373	0.5431223	0.3756845	-9.582109	-6.573936	0	0
22.57628	0.05499712	0.1571527	0.6385487	0.4415592	2.881965	1.989475	0	0
22.59284	0.06223531	0.1621576	0.4368985	0.3020935	-6.085814	-4.209081	0	0
22.60941	0.06847174	0.1665063	0.3764746	0.2625171	-1.823703	-1.194488	0	0
22.62598	0.076953	0.1724446	0.5119301	0.3584378	4.088292	2.895059	0	0
22.64254	0.08377713	0.1772022	0.4119052	0.2871674	-3.018758	-2.150944	0	0
22.65925	0.09356809	0.184016	0.5860579	0.4078555	5.233945	3.627132	0	0
22.67576	0.1009191	0.1891084	0.4452489	0.3084439	-4.239132	-2.992838	0	0
22.69227	0.1072188	0.1934755	0.3814788	0.2644547	-1.93103	-1.332046	0	0
22.70881	0.113484	0.1978221	0.3789076	0.2628709	-0.07780217	-0.04792105	0	0
22.72538	0.1161589	0.1996789	0.16146	0.1120814	-6.56901	-4.555295	0	0
22.74194	0.1202849	0.2025084	0.2490457	0.1707894	2.643342	1.77181	0	0
22.75851	0.1212963	0.2032112	0.06104921	0.0424156	-5.673745	-3.874328	0	0
22.77508	0.1212963	0.2031751	0	-0.002175086	-1.842575	-1.345827	0	0
22.79164	0.1211926	0.203067	-0.006260973	-0.006525407	-0.1889674	-0.1313005	0	0
22.80821	0.1208814	0.2027427	-0.01878292	-0.01957622	-0.3779131	-0.3938744	0	0
22.82487	0.1207518	0.2026526	-0.007784768	-0.005408722	0.3310293	0.4264223	0	0
22.84138	0.1206999	0.2026526	-0.003141425	0	0.1399913	0.1630666	0	0
22.94074	0.1200256	0.2021841	-0.006786524	-0.004715004	-0.03145659	-0.04068967	0	0
23.00971	0.1194808	0.2018057	-0.007898929	-0.005487137	-0.006608503	-0.004587046	0	0
23.02628	0.1194549	0.2017877	-0.001565918	-0.001088317	0.07404325	0.0514294	0	0
23.04284	0.1194549	0.2017877	0	0	0.04725949	0.03284548	0	0
23.05941	0.1194289	0.2018057	-0.001565918	0.001088317	-0.04725949	0.03284548	0	0
23.07598	0.119403	0.2017877	-0.001565918	-0.001088317	0	-0.06569096	0	0
23.09254	0.1192992	0.2017516	-0.006263671	-0.002174836	-0.1417785	-0.03279119	0	0
23.10911	0.1191176	0.2017336	-0.01096142	-0.001088317	-0.1417785	0.03279119	0	0
23.12568	0.1189101	0.2017336	-0.01252824	0	-0.04728666	0.03284548	0	0
23.1426	0.1182873	0.2018057	-0.03680903	0.004261204	-0.7251154	0.1272555	0	0
23.15911	0.1157176	0.203013	-0.1556305	0.07311641	-3.554325	2.059677	0	0
23.17538	0.1133281	0.2043101	-0.1468472	0.07972029	0.2679158	0.2014391	0	0
23.19213	0.1085974	0.2067598	-0.2824261	0.1462446	-4.105721	2.014551	0	0
23.20852	0.1009452	0.207264	-0.4670488	0.03077616	-5.571925	-3.484845	0	0
23.22854	0.08466554	0.2046344	-0.8129565	-0.1313153	-9.500511	-4.451916	0	0
23.24511	0.07161416	0.203031	-0.7877826	-0.0967829	0.6879528	0.943703	0	0
23.26167	0.06391283	0.2022382	-0.4648532	-0.04785538	9.746029	1.476635	0	0
23.27824	0.04594133	0.2001656	-1.084762	-0.1250989	-18.70888	-2.331215	0	0
23.29481	0.04286846	0.1999313	-0.1854792	-0.01414363	27.1404	3.348638	0	0
23.31137	0.03926928	0.1992283	-0.2172721	-0.04243847	-0.9595658	-0.8539891	0	0
23.32794	0.03792917	0.1983089	-0.08088896	-0.05549609	4.116287	-0.3941025	0	0
23.34474	0.03792917	0.1983089	0	0	2.424348	1.66329	0	0
23.36125	0.03795545	0.1982908	0.001591469	-0.001091963	0.04777759	-0.0327819	0	0
23.37764	0.03798173	0.1982728	0.001603322	-0.001100096	0.0003602596	-0.0002471871	0	0
23.39427	0.03798173	0.1982728	0	0	-0.04855325	0.03331411	0	0
23.41077	0.038008	0.1982548	0.001592572	-0.001092721	0.0480667	-0.03298027	0	0
23.42734	0.03803428	0.1982367	0.00158593	-0.001088317	-0.0002008629	0.0001331564	0	0
23.44391	0.03803428	0.1982007	0	-0.002176635	-0.04786347	-0.03284548	0	0
23.46048	0.03803428	0.1982007	0	0	0	0.06569096	0	0
23.47704	0.03803428	0.1982007	0	0	0	0	0	0
23.49361	0.03803428	0.1982007	0	0	0	0	0	0
23.51018	0.03803428	0.1982007	0	0	0	0	0	0
23.52687	0.03806056	0.1981827	0.001574194	-0.00108011	0.04732944	-0.03247441	0	0
23.54338	0.03806056	0.1981827	0	0	-0.04740556	0.03252664	0	0
23.55989	0.03806056	0.1981827	0	0	0	0	0	0
23.57644	0.03806056	0.1981827	0	0	0	0	0	0
23.59301	0.03806056	0.1981827	0	0	0	0	0	0
23.60993	0.03806056	0.1981827	0	0	0	0	0	0
23.62615	0.03806056	0.1981827	0	0	0	0	0	0
23.64271	0.03806056	0.1981827	0	0	0	0	0	0
23.65947	0.03806056	0.1981827	0	0	0	0	0	0
23.67598	0.03806056	0.1981827	0	0	0	0	0	0
23.69249	0.03806056	0.1981827	0	0	0	0	0	0
23.70901	0.03806056	0.1981827	0	0	0	0	0	0
23.72555	0.03808684	0.1981646	0.001588349	-0.001088922	0.04804711	-0.03293959	0	0
23.74212	0.03808684	0.1981646	0	0	-0.04797238	0.03288835	0	0
23.75868	0.03811311	0.1981466	0.001586155	-0.001088317	0.04787301	-0.03284737	0	0
23.77555	0.03811311	0.1981466	0	0	-0.0474388	0.03254944	0	0
23.79206	0.03811311	0.1981466	0	0	0	0	0	0
23.80838	0.03811311	0.1981466	0	0	0	0	0	0
23.82495	0.03811311	0.1981466	0	0	0	0	0	0
23.84152	0.03811311	0.1981466	0	0	0	0	0	0
23.85811	0.03813939	0.1981286	0.001583603	-0.001086566	0.04775474	-0.03276622	0	0
23.87465	0.03813939	0.1981286	0	0	-0.04779322	0.03279263	0	0
23.89122	0.03813939	0.1980925	0	-0.002176635	0	-0.06574395	0	0
23.92435	0.03816567	0.1980745	0.0007930776	-0.0005441587	0.01595675	0.03284548	0	0
23.94117	0.03816567	0.1980745	0	0	-0.01587633	0.01089331	0	0
23.95749	0.03816567	0.1980745	0	0	0	0	0	0
23.97419	0.03816567	0.1980384	0	-0.002158248	0	-0.06535801	0	0
23.99062	0.03816567	0.1980024	0	-0.002195593	0	-0.001127142	0	0
24.00722	0.03816567	0.1980024	0	0	0	0.06647742	0	0
24.02375	0.03813939	0.1979483	-0.001589816	-0.003272487	-0.0479835	-0.09876955	0	0
24.04032	0.03813939	0.1979483	0	0	0.04803604	0.0988777	0	0
24.07797	0.03813939	0.1979122	0	-0.0009576664	0	-0.01766192	0	0
24.09454	0.03811311	0.1978942	-0.001586155	-0.001088317	-0.02925292	-0.002409552	0	0
24.11129	0.03811311	0.1978942	0	0	0.04760717	0.03266497	0	0
24.12767	0.03811311	0.1978942	0	0	0	0	0	0
24.14424	0.03808684	0.1978762	-0.001586155	-0.001088317	-0.04813905	-0.03302991	0	0
24.16081	0.03808684	0.1978762	0	0	0.04787026	0.03284548	0	0
24.17737	0.03808684	0.1978762	0	0	0	0	0	0
24.19394	0.03808684	0.1978762	0	0	0	0	0	0
24.21051	0.03808684	0.1978762	0	0	0	0	0	0
24.22737	0.03808684	0.1978762	0	0	0	0	0	0
24.24389	0.03808684	0.1978762	0	0	0	0	0	0
24.26021	0.03811311	0.1978581	0.001609879	-0.001104595	0.04902935	-0.03364078	0	0
24.27678	0.03811311	0.1978581	0	0	-0.04894689	0.0335842	0	0
24.29342	0.03813939	0.1978401	0.001578522	-0.00108308	0.047525	-0.03260859	0	0
24.30993	0.03813939	0.1978401	0	0	-0.04760702	0.03266487	0	0
24.32648	0.03811311	0.1978221	-0.001588533	-0.001089949	-0.04806098	-0.03297634	0	0
24.34304	0.03811311	0.1978221	0	0	0.04797792	0.03291935	0	0
24.35961	0.03811311	0.1978221	0	0	0	0	0	0
24.37648	0.03816567	0.197786	0.003114932	-0.002137265	0.0931562	-0.06391778	0	0
24.4095	0.03813939	0.197768	-0.0007957343	-0.0005459816	-0.07837597	0.03189186	0	0
24.42602	0.03816567	0.1977499	0.001591469	-0.001091963	0.04819151	-0.01102197	0	0
24.44253	0.03813939	0.1977319	-0.001591469	-0.001091963	-0.09638303	0	0	0
24.45904	0.03813939	0.1977319	0	0	0.04819151	0.03306591	0	0
24.47558	0.03813939	0.1977319	0	0	0	0	0	0
24.49214	0.03813939	0.1977319	0	0	0	0	0	0
24.50908	0.03813939	0.1977319	0	0	0	0	0	0
24.52528	0.03813939	0.1977319	0	0	0	0	0	0
24.54185	0.03813939	0.1977319	0	0	0	0	0	0
24.55841	0.03813939	0.1977319	0	0	0	0	0	0
24.57498	0.03816567	0.1977139	0.001586155	-0.001088317	0.04787026	-0.03284548	0	0
24.59155	0.03816567	0.1977139	0	0	-0.04787301	0.03284737	0	0
24.60811	0.03816567	0.1977139	0	0	0	0	0	0
24.62468	0.03816567	0.1977139	0	0	0	0	0	0
24.64124	0.03816567	0.1977139	0	0	0	0	0	0
24.65781	0.03816567	0.1977139	0	0	0	0	0	0
24.67469	0.03816567	0.1977139	0	0	0	0	0	0
24.69094	0.03816567	0.1977139	0	0	0	0	0	0
24.70751	0.03816567	0.1977139	0	0	0	0	0	0
24.72408	0.03816567	0.1977139	0	0	0	0	0	0
24.74075	0.03816567	0.1977139	0	0	0	0	0	0
24.75725	0.03816567	0.1977139	0	0	0	0	0	0
24.77378	0.03816567	0.1977139	0	0	0	0	0	0
24.79035	0.03816567	0.1977139	0	0	0	0	0	0
24.82348	0.03816567	0.1977139	0	0	0	0	0	0
24.84005	0.03816567	0.1977139	0	0	0	0	0	0
24.85662	0.03816567	0.1977139	0	0	0	0	0	0
24.87318	0.03816567	0.1977139	0	0	0	0	0	0
24.88975	0.03816567	0.1977139	0	0	0	0	0	0
24.92569	0.03816567	0.1976778	0	-0.001003303	0	-0.01910715	0	0
24.94226	0.03819195	0.1976598	0.001586155	-0.001088317	0.03020712	-0.001619026	0	0
24.9589	0.03819195	0.1976598	0	0	-0.04776577	0.03277379	0	0
24.97541	0.03819195	0.1976598	0	0	0	0	0	0
24.99196	0.03821822	0.1976418	0.001587575	-0.001089446	0.04801815	-0.03295163	0	0
25.00853	0.03821822	0.1976418	0	0	-0.04794071	0.03289849	0	0
25.02509	0.03821822	0.1976418	0	0	0	0	0	0
25.04166	0.03821822	0.1976418	0	0	0	0	0	0
25.05847	0.0382445	0.1976237	0.001563298	-0.001072634	0.04683801	-0.03213722	0	0
25.07479	0.03821822	0.1976057	-0.001609691	-0.001104466	-0.09576099	-0.0009606889	0	0
25.09149	0.0382445	0.1975877	0.001573654	-0.00107974	0.09639539	0.0007487294	0	0
25.10801	0.0382445	0.1975877	0	0	-0.04738388	0.03251176	0	0
25.12452	0.0382445	0.1975877	0	0	0	0	0	0
25.14106	0.03827078	0.1975696	0.001588349	-0.001089823	0.04804989	-0.03296874	0	0
25.15804	0.03827078	0.1975696	0	0	-0.0473774	0.03250732	0	0
25.1742	0.03827078	0.1975696	0	0	0	0	0	0
25.19076	0.03827078	0.1975696	0	0	0	0	0	0
25.2239	0.03829706	0.1975516	0.0007930776	-0.0005441587	0.01595675	-0.01094849	0	0
25.2406	0.03829706	0.1975516	0	0	-0.01591278	0.01091833	0	0
25.25711	0.03829706	0.1975516	0	0	0	0	0	0
25.27363	0.03829706	0.1975516	0	0	0	0	0	0
25.29016	0.03829706	0.1975516	0	0	0	0	0	0
25.30673	0.03829706	0.1975516	0	0	0	0	0	0
25.32366	0.03829706	0.1975516	0	0	0	0	0	0
25.34017	0.03829706	0.1975516	0	0	0	0	0	0
25.35643	0.03829706	0.1975516	0	0	0	0	0	0
25.373	0.03829706	0.1975516	0	0	0	0	0	0
25.38957	0.03829706	0.1975516	0	0	0	0	0	0
25.40613	0.03829706	0.1975516	0	0	0	0	0	0
25.42273	0.03829706	0.1975516	0	0	0	0	0	0
25.43927	0.03829706	0.1975516	0	0	0	0	0	0
25.45583	0.03829706	0.1975516	0	0	0	0	0	0
25.4724	0.03829706	0.1975516	0	0	0	0	0	0
25.48928	0.03829706	0.1975516	0	0	0	0	0	0
25.50553	0.03829706	0.1975516	0	0	0	0	0	0
25.5221	0.03829706	0.1975516	0	0	0	0	0	0
25.53867	0.03829706	0.1975516	0	0	0	0	0	0
25.55533	0.03829706	0.1975516	0	0	0	0	0	0
25.5718	0.03827078	0.1975336	-0.001595339	-0.001094618	-0.04814741	-0.03303565	0	0
25.58837	0.03827078	0.1975336	0	0	0.04828639	0.03313101	0	0
25.60493	0.03829706	0.1975155	0.001586338	-0.001088443	0.04787853	-0.03285116	0	0
25.6215	0.03834961	0.1974795	0.003172085	-0.002176635	0.04786071	-0.03284359	0	0
25.63807	0.03850727	0.1973352	0.009516481	-0.008706539	0.1914742	-0.1970729	0	0
25.65463	0.0385861	0.1972812	0.004758788	-0.003265328	-0.1435957	0.1642255	0	0
25.71344	0.04720176	0.1907148	0.1465159	-0.111666	1.880844	-1.438269	0	0
25.73046	0.05205819	0.1870863	0.2853489	-0.2131982	1.831018	-1.339071	0	0
25.74657	0.05502335	0.1849733	0.1839981	-0.1311167	-3.058773	2.477225	0	0
25.76314	0.05575794	0.1843953	0.04433972	-0.03488912	-4.273195	2.944321	0	0
25.77971	0.05560053	0.1844676	-0.009501191	0.004361365	-1.624922	1.184582	0	0
25.79627	0.05560053	0.1844676	0	0	0.2867465	-0.1316262	0	0
25.81674	0.05557429	0.1844495	-0.001281698	-0.0008823735	-0.03460777	-0.0238254	0	0
25.83331	0.05560053	0.1844676	0.001583275	0.001089991	0.07735457	0.05325404	0	0
25.84988	0.05557429	0.1844856	-0.001583639	0.001090242	-0.09557765	7.574937E-06	0	0
25.86644	0.05557429	0.1844856	0	0	0.04779708	-0.03290546	0	0
25.88306	0.05554806	0.1845037	-0.00157855	0.001087635	-0.0475668	0.03277395	0	0
25.89958	0.05554806	0.1845037	0	0	0.04764348	-0.03282677	0	0
25.91614	0.05554806	0.1845037	0	0	0	0	0	0
25.93271	0.05554806	0.1845037	0	0	0	0	0	0
25.94961	0.05554806	0.1845037	0	0	0	0	0	0
25.96584	0.05554806	0.1845037	0	0	0	0	0	0
25.98263	0.05554806	0.1845037	0	0	0	0	0	0
25.99898	0.05554806	0.1845037	0	0	0	0	0	0
26.01554	0.05554806	0.1845037	0	0	0	0	0	0
26.03211	0.05554806	0.1845037	0	0	0	0	0	0
26.04868	0.05552182	0.1844856	-0.001583499	-0.00109089	-0.04778735	-0.03292124	0	0
26.06524	0.05552182	0.1844856	0	0	0.04779286	0.03292502	0	0
26.08181	0.05552182	0.1844856	0	0	0	0	0	0
26.09871	0.05552182	0.1844856	0	0	0	0	0	0
26.11494	0.05552182	0.1844856	0	0	0	0	0	0
26.13151	0.05552182	0.1844856	0	0	0	0	0	0
26.14808	0.05552182	0.1844856	0	0	0	0	0	0
26.16465	0.05552182	0.1844856	0	0	0	0	0	0
26.18121	0.05552182	0.1844856	0	0	0	0	0	0
26.19778	0.05552182	0.1844856	0	0	0	0	0	0
26.21435	0.05552182	0.1844856	0	0	0	0	0	0
26.23091	0.05552182	0.1844856	0	0	0	0	0	0
26.24782	0.05554806	0.1845037	0.001551529	0.001068866	0.04634504	0.03192761	0	0
26.26434	0.05549559	0.1845398	-0.003177748	0.002187536	-0.1414999	0.03347061	0	0
26.28061	0.05531194	0.1847385	-0.01128098	0.01220526	-0.2471167	0.3055009	0	0
26.29718	0.05533818	0.1849011	0.001583682	0.009812846	0.3916608	-0.07283624	0	0
26.31387	0.05594157	0.1856777	0.03615424	0.04653482	1.039512	1.104203	0	0
26.33031	0.05633507	0.1865988	0.02393048	0.05601239	-0.368935	0.28605	0	0
26.34688	0.05654492	0.1877905	0.01266698	0.07193328	-0.3412099	0.4822982	0	0
26.36345	0.05864321	0.1931688	0.1266527	0.3246379	3.440096	7.626641	0	0
26.38002	0.06331001	0.1970648	0.2816889	0.2351584	4.679002	-2.700496	0	0
26.39658	0.08037908	0.2086686	1.030291	0.700406	22.59285	14.0412	0	0
26.41344	0.08827003	0.2141043	0.4680015	0.3223849	-16.82081	-11.30845	0	0
26.42972	0.1087534	0.2276966	1.258696	0.8352407	23.86321	15.47802	0	0
26.44648	0.1208036	0.2353469	0.7190741	0.4565209	-16.33661	-11.46543	0	0
26.46298	0.1280844	0.2397441	0.441144	0.2664276	-8.355723	-5.714983	0	0
26.49598	0.1441511	0.2499673	0.4868262	0.3097675	0.9227412	0.8754256	0	0
26.51255	0.1450015	0.2503438	0.05132991	0.02272335	-8.785467	-5.790672	0	0
26.52912	0.1470106	0.2510608	0.1212745	0.04328085	2.110933	0.6204268	0	0
26.54604	0.1521312	0.2535164	0.3026311	0.145127	5.415679	3.041335	0	0
26.56225	0.1545985	0.2548067	0.1521893	0.07958639	-4.540603	-1.978134	0	0
26.57882	0.1590914	0.2579065	0.2711907	0.1871025	3.630338	3.279959	0	0
26.59538	0.1656778	0.26251	0.3975991	0.2779001	3.815233	2.740437	0	0
26.61195	0.169771	0.265411	0.2470651	0.175104	-4.543386	-3.102573	0	0
26.62852	0.1732712	0.2679712	0.2112739	0.1545357	-1.080182	-0.6207524	0	0
26.64508	0.1740371	0.2685799	0.0462301	0.03674016	-4.981031	-3.555076	0	0
26.71419	0.172122	0.2713185	-0.02771421	0.03963135	-0.8631249	0.0337478	0	0
26.74732	0.1772771	0.2748262	0.155584	0.1058609	1.792863	0.6477997	0	0
26.76389	0.1772516	0.2748441	-0.001540011	0.001079447	-3.161462	-2.108288	0	0
26.78045	0.1772516	0.2748441	0	0	0.04648031	-0.03257966	0	0
26.79702	0.1772771	0.274862	0.001539834	0.001081122	0.04647229	0.03262833	0	0
26.81373	0.1773026	0.2748441	0.001526109	-0.001072112	-0.000412499	-0.06471279	0	0
26.83015	0.1773281	0.2748262	0.001552158	-0.001088597	0.000786219	-0.0004975713	0	0
26.84675	0.1773791	0.2747546	0.00307221	-0.004312946	0.04602894	-0.09763701	0	0
26.86329	0.1774301	0.2747188	0.003083905	-0.002164682	0.0003529716	0.06483846	0	0
26.87985	0.1774301	0.2747188	0	0	-0.09316361	0.06539422	0	0
26.89642	0.1774301	0.2747188	0	0	0	0	0	0
26.9133	0.1774556	0.2747009	0.001510758	-0.001059562	0.04517351	-0.03168218	0	0
26.92981	0.1774556	0.2747009	0	0	-0.04524835	0.03173467	0	0
26.94612	0.1774556	0.2747009	0	0	0	0	0	0
26.96283	0.1774556	0.2747367	0	0.002141706	0	0.06485333	0	0
26.97935	0.1775576	0.2748083	0.00617636	0.004333559	0.1859	0.06597179	0	0
26.99586	0.177787	0.2749335	0.01389501	0.007585985	0.2337296	0.09848722	0	0
27.01239	0.177889	0.2750409	0.006168332	0.006495543	-0.2338376	-0.03300078	0	0
27.02896	0.1782204	0.2752735	0.02000256	0.01404019	0.4179748	0.2279473	0	0
27.04552	0.1785007	0.2754346	0.01692199	0.009721103	-0.09297176	-0.1303504	0	0
27.06209	0.1804115	0.2764902	0.1153365	0.06372143	2.970155	1.629733	0	0
27.07892	0.184814	0.279156	0.2616085	0.1584052	4.379958	2.835203	0	0
27.09543	0.1875587	0.280909	0.1662449	0.1061818	-2.860461	-1.566459	0	0
27.11194	0.1908588	0.2827692	0.1998581	0.1126581	1.017907	0.1961223	0	0
27.12845	0.1923297	0.2833058	0.08908524	0.03249538	-3.354331	-2.42742	0	0
27.16149	0.1956996	0.2809269	0.1020032	-0.07200617	0.2607095	-2.10905	0	0
27.17806	0.1968135	0.2801398	0.06723283	-0.0475082	-0.7009524	0.4938666	0	0
27.19462	0.2010113	0.2771701	0.2533819	-0.1792522	5.61799	-3.976041	0	0
27.21119	0.2060342	0.2736093	0.3031828	-0.214931	1.502993	-1.076789	0	0
27.22802	0.2117258	0.2695644	0.3381347	-0.2403045	1.04648	-0.7596961	0	0
27.24432	0.2150186	0.2671835	0.2020088	-0.146068	-4.108525	2.844229	0	0
27.26089	0.2161236	0.2663957	0.06669317	-0.04754958	-4.117013	2.997447	0	0
27.27746	0.2161236	0.2663957	0	0	-2.012804	1.435049	0	0
27.29407	0.2161487	0.2663778	0.0015112	-0.001078019	0.04554256	-0.03248793	0	0
27.31059	0.2161236	0.2663599	-0.001519924	-0.001084243	-0.0914795	-0.000187824	0	0
27.32716	0.2161236	0.2663241	0	-0.002160445	0.04593751	-0.03252666	0	0
27.41	0.2159227	0.2661809	-0.002424699	-0.001729076	-0.02439252	0.004339584	0	0
27.42667	0.2158725	0.2661451	-0.003012027	-0.002148639	-0.005902296	-0.004216364	0	0
27.44313	0.2157972	0.2661271	-0.004576152	-0.001088137	-0.0472081	0.03200784	0	0
27.4597	0.2157469	0.2660913	-0.003031099	-0.002160445	0.04678059	-0.03246697	0	0
27.47626	0.2155712	0.265966	-0.01060975	-0.007566054	-0.228724	-0.1631416	0	0
27.49283	0.2151693	0.2656795	-0.02425419	-0.01729076	-0.4117901	-0.2934921	0	0
27.5094	0.2148177	0.2654288	-0.02122579	-0.01513211	0.0913973	0.06514811	0	0
27.52624	0.2147674	0.265393	-0.002982761	-0.002124731	0.545987	0.3892917	0	0
27.55927	0.2147674	0.265393	0	0	0.05981358	0.04260742	0	0
27.57568	0.2147674	0.265393	0	0	0	0	0	0
27.59223	0.2147674	0.265393	0	0	0	0	0	0
27.6088	0.2147926	0.2653751	0.001516274	-0.001080998	0.04578497	-0.03264148	0	0
27.62536	0.2147926	0.2653751	0	0	-0.04576388	0.03262645	0	0
27.64193	0.2148177	0.2653572	0.001516449	-0.001081122	0.04577179	-0.03263208	0	0
27.6585	0.2148177	0.2653572	0	0	-0.04576652	0.03262833	0	0
27.67507	0.214893	0.2653035	0.004548447	-0.003241567	0.1372724	-0.09783068	0	0
27.6958	0.2149182	0.2652856	0.001211653	-0.0008638235	-0.08945347	0.06374303	0	0
27.71238	0.2149935	0.2652319	0.004546354	-0.003240075	0.08937906	-0.06369	0	0
27.72894	0.2150186	0.265214	0.001516248	-0.00108162	-0.09144878	0.06514229	0	0
27.7455	0.2150689	0.2651782	0.003032549	-0.002161995	0.04576995	-0.03261141	0	0
27.76207	0.2151191	0.2651424	0.003032347	-0.002162493	-6.071192E-06	-1.502339E-05	0	0
27.77864	0.2152949	0.2650528	0.01061277	-0.005404433	0.2288038	-0.09785321	0	0
27.7952	0.2171526	0.2637277	0.1121327	-0.07998323	3.064053	-2.250922	0	0
27.81177	0.2221158	0.2602174	0.2996132	-0.2119099	5.6585	-3.981784	0	0
27.82833	0.2289158	0.2553443	0.4104459	-0.2941389	3.345129	-2.481819	0	0
27.8449	0.2325071	0.2528353	0.216773	-0.1514416	-5.845058	4.306613	0	0
27.86148	0.2340017	0.2517599	0.09015115	-0.06486748	-3.820137	2.611911	0	0
27.87804	0.2349477	0.2510788	0.05714106	-0.04114343	-0.9962465	0.7159932	0	0
27.8946	0.2349477	0.2510788	0	0	-1.725116	1.24214	0	0
27.91117	0.2350473	0.2510071	0.006009131	-0.004326287	0.1813559	-0.1305676	0	0
27.92803	0.2359182	0.2503797	0.05166433	-0.03722031	1.365925	-0.9841328	0	0
27.94431	0.2375346	0.2492144	0.09930681	-0.07158956	1.437853	-1.037266	0	0
27.96087	0.2445328	0.2441215	0.4224102	-0.3074038	9.837352	-7.179708	0	0
27.97744	0.2504695	0.2398159	0.3583407	-0.2598893	-1.933622	1.43399	0	0
27.99401	0.253949	0.2372855	0.2100219	-0.1527341	-4.47627	3.23395	0	0
28.01057	0.2591441	0.2334618	0.3135775	-0.2307979	3.125316	-2.355972	0	0
28.02714	0.2602256	0.2326718	0.06528106	-0.04768719	-7.493602	5.526294	0	0
28.04371	0.2602011	0.2326897	-0.00148227	0.00108382	-2.014921	1.471912	0	0
28.06028	0.2602011	0.2326897	0	0	0.04473501	-0.03270976	0	0
28.07684	0.2601519	0.2326897	-0.002966339	0	-0.08952431	0	0	0
28.09341	0.2601519	0.2326897	0	0	0.08952431	0	0	0
28.11016	0.2601273	0.2326718	-0.001467512	-0.001071728	-0.04404115	-0.03216339	0	0
28.12654	0.2601273	0.2326718	0	0	0.0442896	0.03234483	0	0
28.1432	0.2601027	0.2326897	-0.001476589	0.001078358	-0.04470251	0.03264638	0	0
28.15968	0.2600536	0.2327257	-0.002981787	0.002178929	-0.04542958	0.03321722	0	0
28.17624	0.2600536	0.2327257	0	0	0.09022424	-0.06593099	0	0
28.19281	0.260029	0.2327436	-0.00148227	0.00108382	-0.04473501	0.03270976	0	0
28.20938	0.2599799	0.2327436	-0.002968138	0	-0.04484358	-0.03270976	0	0
28.22595	0.2599799	0.2327436	0	0	0.08957859	0	0	0
28.24251	0.2599799	0.2327436	0	0	0	0	0	0
28.25908	0.2599553	0.2327616	-0.00148227	0.00108382	-0.04473501	0.03270976	0	0
28.27578	0.2599799	0.2327436	0.001470252	-0.001075033	0.0887446	-0.06488912	0	0
28.2923	0.2599553	0.2327257	-0.001487236	-0.001087451	-0.0890419	-0.0003738728	0	0
28.30881	0.2598816	0.2326718	-0.004464801	-0.003261976	-0.09015893	-0.06584334	0	0
28.32535	0.2597833	0.2326	-0.005944744	-0.00434278	-0.04477558	-0.03269969	0	0
28.34192	0.2592916	0.2322408	-0.02967599	-0.0216782	-0.7168293	-0.5236362	0	0
28.35848	0.2583571	0.2315584	-0.05641372	-0.04119441	-0.8069928	-0.5890341	0	0
28.37535	0.2583571	0.2315584	0	0	1.687128	1.231974	0	0
28.39161	0.2583817	0.2315405	0.00151393	-0.001104289	0.04569311	-0.03332942	0	0
28.43767	0.2583817	0.2315045	0	-0.0007796648	-0.02429256	0.005208928	0	0
28.47081	0.2583079	0.2315225	-0.002227903	0.0005419101	-0.02813185	0.0166876	0	0
28.48738	0.2582341	0.2314686	-0.004454006	-0.00325236	-0.0447893	-0.07634087	0	0
28.50395	0.2580865	0.2313968	-0.00890776	-0.004334283	-0.1343991	-0.03264874	0	0
28.52096	0.2580619	0.2314148	-0.001445299	0.001055507	0.2222116	0.1604931	0	0
28.53708	0.2576928	0.2315764	-0.02289941	0.01002866	-0.6475981	0.2708571	0	0
28.55364	0.2573237	0.231738	-0.02228083	0.009755282	0.01892597	-0.008364239	0	0
28.59151	0.2548364	0.2310735	-0.0656908	-0.01754861	-0.7975096	-0.5016155	0	0
28.60802	0.2488634	0.2273732	-0.3616931	-0.2240756	-5.44337	-3.797953	0	0
28.62453	0.2367639	0.2209749	-0.7328614	-0.3875374	-11.23941	-4.949811	0	0
28.64106	0.2226165	0.2184036	-0.8560039	-0.1555837	-3.72739	7.020987	0	0
28.65763	0.201744	0.2168568	-1.25987	-0.09336414	-12.20347	1.880063	0	0
28.67419	0.1857547	0.2163351	-0.9652274	-0.03149018	8.892855	1.867468	0	0
28.69076	0.1665737	0.2156875	-1.157768	-0.03909038	-5.811228	-0.2293879	0	0
28.70732	0.1548041	0.2140503	-0.7104141	-0.09882372	13.50118	-1.802756	0	0
28.72389	0.1426044	0.2114229	-0.7363762	-0.1585921	-0.78354	-1.803814	0	0
28.74046	0.1369272	0.2076062	-0.3426707	-0.2303752	11.88206	-2.166418	0	0
28.75713	0.1335426	0.2051748	-0.2030383	-0.1458506	4.201055	2.543053	0	0
28.77359	0.1282656	0.2015354	-0.3205089	-0.2210525	-3.54527	-2.269597	0	0
28.79016	0.121789	0.1970287	-0.3909749	-0.272054	-2.133423	-1.544118	0	0
28.80673	0.1170416	0.1937642	-0.2865553	-0.1970457	3.151571	2.263885	0	0
28.82329	0.1107814	0.1894153	-0.3778633	-0.2625022	-2.755682	-1.97548	0	0
28.83986	0.1061781	0.1862556	-0.2778551	-0.1907146	3.018256	2.166553	0	0
28.85643	0.1010233	0.1826791	-0.3111436	-0.2158835	-1.004651	-0.7595992	0	0
28.87321	0.1006066	0.18239	-0.02483696	-0.01722782	8.585402	5.957035	0	0
28.88972	0.09575886	0.1790283	-0.2935878	-0.2035907	-8.07235	-5.597697	0	0
28.90623	0.09362026	0.1775457	-0.1295036	-0.08977788	4.968374	3.446184	0	0
28.92274	0.09351591	0.1774734	-0.006320128	-0.004380993	3.730139	2.585917	0	0
28.93926	0.09341156	0.1773649	-0.006317209	-0.006568454	8.838748E-05	-0.06623121	0	0
28.95583	0.09200269	0.1763522	-0.08503986	-0.06112656	-2.379416	-1.649035	0	0
28.9724	0.08785223	0.1734398	-0.2505221	-0.175792	-4.994265	-3.460611	0	0
28.98929	0.08045752	0.1682449	-0.4376296	-0.3074425	-5.591235	-3.93404	0	0
29.00581	0.07768545	0.166144	-0.167883	-0.1272354	8.074041	5.393949	0	0
29.0221	0.07035736	0.1609974	-0.4498334	-0.3159219	-8.595372	-5.752185	0	0
29.03883	0.06488249	0.1571709	-0.3272241	-0.2287053	3.712966	2.641171	0	0
29.05534	0.05977083	0.153596	-0.309574	-0.216502	0.5309389	0.3670929	0	0
29.07185	0.05365897	0.1492924	-0.3701484	-0.2606381	-1.834263	-1.336491	0	0
29.08836	0.04977464	0.1464215	-0.2352436	-0.1738685	4.085074	2.627483	0	0
29.10493	0.04423428	0.1423306	-0.3344168	-0.246923	-2.998057	-2.208477	0	0
29.1215	0.04244817	0.1405115	-0.1078224	-0.1098149	6.839026	4.13817	0	0
29.13806	0.03703569	0.1360339	-0.326698	-0.2702688	-6.606061	-4.842788	0	0
29.15491	0.03209424	0.1313703	-0.2933359	-0.2768431	0.998481	-0.1967583	0	0
29.1712	0.02586265	0.1243123	-0.3826146	-0.4333545	-2.694594	-4.723796	0	0
29.18776	0.02081278	0.1201861	-0.3048107	-0.2490601	2.368166	5.609483	0	0
29.20433	0.01765606	0.1179572	-0.1905402	-0.1345336	3.448691	3.456417	0	0
29.23746	0.01334131	0.1149595	-0.1302193	-0.09047178	1.213659	0.8865249	0	0
29.25403	0.01268353	0.1145389	-0.03970842	-0.02538815	1.821153	1.309536	0	0
29.2706	0.01273615	0.1145024	0.003176358	-0.002207665	1.29434	0.6996288	0	0
29.28716	0.01273615	0.1145024	0	0	-0.09586267	0.06662747	0	0
29.30402	0.01273615	0.1145024	0	0	0	0	0	0
29.33686	0.01273615	0.1145024	0	0	0	0	0	0
29.35355	0.01273615	0.1145024	0	0	0	0	0	0
29.37006	0.01273615	0.1145024	0	0	0	0	0	0
29.38658	0.01273615	0.1145024	0	0	0	0	0	0
29.40313	0.01270984	0.1145207	-0.001589277	0.001104821	-0.0480613	0.03341087	0	0
29.4197	0.01270984	0.1145207	0	0	0.04798104	-0.03335508	0	0
29.43627	0.01268353	0.1145389	-0.001588179	0.001103608	-0.04793134	0.03330695	0	0
29.45625	0.01265722	0.1145572	-0.001316938	0.0009151253	0.007421771	-0.005157305	0	0
29.47281	0.01263091	0.1145755	-0.001588179	0.001103608	-0.007421771	0.005157305	0	0
29.48965	0.01263091	0.1146121	0	0.002172155	0.04754272	0.03198734	0	0
29.50595	0.01257828	0.1146487	-0.003229091	0.002244356	-0.09745417	0.002179052	0	0
29.52267	0.01255197	0.1146669	-0.001573147	0.001093162	0.05014682	-0.03486151	0	0
29.53919	0.01252566	0.1147218	-0.001593315	0.003321982	-0.0006067652	0.06705362	0	0
29.5557	0.01249935	0.1147401	-0.001593499	0.001107305	-5.573005E-06	-0.06705911	0	0
29.57222	0.01247304	0.1147949	-0.001592947	0.003320764	1.671356E-05	0.06701449	0	0
29.58922	0.01242041	0.1149046	-0.003094072	0.006450547	-0.04477568	0.09335541	0	0
29.60535	0.01244673	0.1150326	0.001631763	0.007937718	0.1426342	0.04488549	0	0
29.62192	0.01226254	0.1156726	-0.01111725	0.03862492	-0.3899741	0.9386775	0	0
29.63848	0.01228886	0.1165317	0.001588179	0.05185967	0.3834507	0.3994255	0	0
29.65505	0.01152581	0.1174273	-0.04605781	0.05405655	-1.437959	0.0663018	0	0
29.67162	0.008894502	0.1194006	-0.1588258	0.1191109	-3.403343	1.963346	0	0
29.68829	0.007420917	0.1206427	-0.08836592	0.0744828	2.119528	-1.342475	0	0
29.70475	0.001578946	0.1249145	-0.3549513	0.2595522	-8.045564	5.585405	0	0
29.72132	-0.001631577	0.1273227	-0.1937876	0.1453578	4.879943	-3.457738	0	0
29.73789	-0.006631482	0.1317713	-0.3017948	0.268514	-3.259665	3.71686	0	0
29.75446	-0.008973443	0.1356515	-0.1413448	0.2341861	4.842113	-1.035957	0	0
29.77102	-0.00873662	0.138437	0.01429797	0.1681712	4.697578	-1.992451	0	0
29.78759	-0.006210446	0.144731	0.1524801	0.3799046	4.170825	6.390864	0	0
29.80415	-0.004263132	0.1504004	0.1175401	0.3422057	-1.054491	-1.137757	0	0
29.83729	-0.0001842105	0.1594199	0.1231021	0.2722111	0.1119068	-1.408293	0	0
29.85391	0.0007105262	0.1643142	0.05381436	0.2943664	-1.392415	0.4452361	0	0
29.87042	0.00639465	0.1696391	0.3443233	0.3225619	8.767577	0.8509419	0	0
29.90355	0.01136793	0.1799321	0.1501026	0.3106628	-3.912533	-0.239705	0	0
29.92012	0.01565661	0.1833114	0.2588654	0.203975	2.188397	-2.146646	0	0
29.93669	0.01718252	0.1843231	0.09210381	0.0610636	-5.032876	-4.313073	0	0
29.95349	0.02302225	0.1883321	0.3476833	0.2386893	7.660489	5.323979	0	0
29.96982	0.024837	0.1895416	0.111086	0.07403587	-7.140934	-4.969538	0	0
29.98651	0.02533668	0.1898846	0.02994394	0.02055146	-2.457074	-1.61957	0	0
30.01952	0.02538928	0.1898124	0.00159317	-0.002186814	-0.5704185	-0.4574949	0	0
30.03609	0.02541558	0.1897943	0.001587392	-0.001089217	-0.0001165291	0.02213722	0	0
30.05266	0.02546818	0.1897221	0.003174784	-0.004358666	0.04790758	-0.09867217	0	0
30.06923	0.02549447	0.1897041	0.001587392	-0.001089217	-0.04790758	0.09867217	0	0
30.08579	0.02549447	0.189668	0	-0.002179333	-0.04790758	-0.03289977	0	0
30.10236	0.02552077	0.1896499	0.001587392	-0.001089217	0.04790758	0.03289977	0	0
30.11893	0.02552077	0.1895416	0	-0.0065371	-0.04790758	-0.1644174	0	0
30.13549	0.02552077	0.1895416	0	0	0	0.1972901	0	0
30.15213	0.02552077	0.1895055	0	-0.002170089	0	-0.06535423	0	0
30.18519	0.02549447	0.1894514	-0.0007954818	-0.001637952	-0.01600635	0.01070744	0	0
30.20176	0.02552077	0.1893972	0.001587392	-0.00326855	0.04801537	-0.03285687	0	0
30.21833	0.02549447	0.1893431	-0.001587392	-0.00326855	-0.09581516	0	0	0
30.23489	0.02552077	0.189325	0.001587392	-0.001089217	0.09581516	0.0657724	0	0
30.25146	0.02552077	0.1892889	0	-0.002179333	-0.04790758	-0.03289977	0	0
30.26803	0.02554707	0.1892708	0.001587392	-0.001090116	0.04790758	0.03287262	0	0
30.2846	0.02552077	0.1891806	-0.001587392	-0.005447883	-0.09581516	-0.1315177	0	0
30.30116	0.02549447	0.1891264	-0.001587392	-0.00326855	0	0.06577241	0	0
30.32027	0.02541558	0.188964	-0.004128169	-0.008500967	-0.0712124	-0.1466531	0	0
30.33684	0.02520519	0.1887835	-0.01269925	-0.01089577	-0.2402284	-0.06712095	0	0
30.35341	0.0243899	0.1881516	-0.04921084	-0.03813968	-1.101922	-0.8222229	0	0
30.36997	0.0243899	0.1881516	0	0	1.485271	1.151124	0	0
30.3868	0.0244162	0.1881335	0.001563275	-0.001073554	0.04682127	-0.03215377	0	0
30.40311	0.0244425	0.1881155	0.001612379	-0.001106284	0.001481951	-0.0009877703	0	0
30.41982	0.0244688	0.1880974	0.001573914	-0.001080784	-0.001164815	0.0007721989	0	0
30.43633	0.0244425	0.1880794	-0.001592822	-0.001092866	-0.0953199	-0.0003636564	0	0
30.45284	0.0244951	0.1880433	0.003185645	-0.002187536	0.1446975	-0.03314789	0	0
30.46937	0.0245477	0.1880071	0.003181856	-0.002184111	-0.0001146435	0.0001036653	0	0
30.48594	0.0246003	0.187971	0.003174896	-0.002179333	-0.0002102904	0.0001443487	0	0
30.50251	0.0247055	0.1878988	0.006349905	-0.004359566	0.09582195	-0.06579955	0	0
30.51908	0.0248107	0.1878266	0.006349792	-0.004358666	-3.400992E-06	2.715172E-05	0	0
30.53564	0.02496849	0.1877183	0.009524576	-0.006538899	0.09581517	-0.06579955	0	0
30.55221	0.02499479	0.1877002	0.001587504	-0.001090116	-0.2395413	0.1644446	0	0
30.56878	0.02499479	0.1877002	0	0	-0.04791097	0.03289977	0	0
30.58534	0.02502109	0.1876822	0.001587392	-0.001089217	0.04790758	-0.03287263	0	0
30.60191	0.02502109	0.1876822	0	0	-0.04790758	0.03287263	0	0
30.61848	0.02504739	0.1876641	0.001587575	-0.001090242	0.04791586	-0.03290546	0	0
30.63504	0.02504739	0.1876641	0	0	-0.04791586	0.03290546	0	0
30.65199	0.02507369	0.187646	0.001552123	-0.001065821	0.04631529	-0.03180404	0	0
30.66818	0.02509999	0.187628	0.001624421	-0.001114625	0.002181954	-0.001472921	0	0
30.68501	0.02512629	0.1876099	0.001562389	-0.001072946	-0.001878503	0.001262158	0	0
30.70131	0.02512629	0.1876099	0	0	-0.04715572	0.03238344	0	0
30.71788	0.02515259	0.1875919	0.001587575	-0.001090242	0.04830517	-0.03317281	0	0
30.73454	0.02515259	0.1875558	0	-0.002166116	-0.04777011	-0.03237304	0	0
30.75101	0.02515259	0.1875558	0	0	0	0.06537727	0	0
30.76758	0.02517889	0.1875377	0.001587504	-0.001090116	0.04806037	-0.03300236	0	0
30.78458	0.02517889	0.1875377	0	0	-0.04728762	0.03247173	0	0
30.80071	0.02517889	0.1875377	0	0	0	0	0	0
30.81761	0.02520519	0.1875197	0.001556393	-0.001068828	0.04712666	-0.03236349	0	0
30.83384	0.02523149	0.1875016	0.001619841	-0.001111482	0.001914974	-0.001287374	0	0
30.85041	0.02523149	0.1875016	0	0	-0.04938151	0.03388399	0	0
30.86698	0.02523149	0.1875016	0	0	0	0	0	0
30.88354	0.02523149	0.1875016	0	0	0	0	0	0
30.90011	0.02523149	0.1875016	0	0	0	0	0	0
30.91668	0.02523149	0.1875016	0	0	0	0	0	0
30.93324	0.02523149	0.1875016	0	0	0	0	0	0
30.94981	0.02525778	0.1874835	0.001587392	-0.001090116	0.04791034	-0.03290167	0	0
30.96637	0.02528408	0.1874655	0.001587575	-0.001090242	5.519903E-06	-3.787686E-06	0	0
30.98294	0.02541558	0.1873752	0.007937072	-0.005448782	0.1916392	-0.1315486	0	0
31.04921	0.02815046	0.185461	0.04127057	-0.02888621	0.402412	-0.2829438	0	0
31.06578	0.02812416	0.185443	-0.001586802	-0.001089865	-0.5173633	0.3355505	0	0
31.08234	0.02809787	0.1854249	-0.001587533	-0.001090367	-2.206077E-05	-1.514987E-05	0	0
31.09891	0.02804528	0.1853888	-0.0031747	-0.002180484	-0.04790907	-0.03290546	0	0
31.11582	0.02804528	0.1852804	0	-0.006409511	0.09484085	-0.1263378	0	0
31.17268	0.03177877	0.182137	0.06565242	-0.05527603	0.8898855	-0.6623611	0	0
31.20843	0.04097705	0.1758096	0.2573397	-0.1770207	2.069805	-1.314576	0	0
31.22539	0.04998465	0.1696029	0.531044	-0.3659198	5.193061	-3.584033	0	0
31.24156	0.05260931	0.1677922	0.1623116	-0.1119746	-11.12901	7.664525	0	0
31.25841	0.05415751	0.1667236	0.09186363	-0.06340273	-2.133247	1.470811	0	0
31.27469	0.05549559	0.1657998	0.08219533	-0.05674795	-0.2918068	0.2008533	0	0
31.29144	0.05549559	0.1657998	0	0	-2.489114	1.718493	0	0
31.30783	0.05549559	0.1657998	0	0	0	0	0	0
31.32439	0.05549559	0.1657998	0	0	0	0	0	0
31.34096	0.05549559	0.1657998	0	0	0	0	0	0
31.35753	0.05549559	0.1657998	0	0	0	0	0	0
31.37409	0.05549559	0.1657998	0	0	0	0	0	0
31.39101	0.05546936	0.1658179	-0.001550959	0.001071268	-0.04632274	0.03199571	0	0
31.40723	0.05544312	0.1658723	-0.001617765	0.003350839	-0.002016332	0.06880158	0	0
31.44036	0.05541689	0.1658904	-0.0007917284	0.0005464073	0.01673744	-0.05682435	0	0
31.45693	0.05539065	0.1659085	-0.001583682	0.001093714	-0.01593413	0.01101183	0	0
31.4735	0.05536442	0.1659266	-0.001583457	0.001093714	6.784417E-06	0	0	0
31.49008	0.05531194	0.1659628	-0.00316386	0.002184265	-0.04767198	0.03289586	0	0
31.50663	0.05528571	0.165981	-0.001585282	0.001094975	0.04764434	-0.03287675	0	0
31.5232	0.05531194	0.1659991	0.001583457	0.001092815	0.09568781	-6.522908E-05	0	0
31.53976	0.05531194	0.1659991	0	0	-0.04778882	-0.03298121	0	0
31.55633	0.05531194	0.1659991	0	0	0	0	0	0
31.5729	0.05531194	0.1659991	0	0	0	0	0	0
31.58946	0.05531194	0.1659991	0	0	0	0	0	0
31.60603	0.05528571	0.165981	-0.001583457	-0.001092815	-0.04779157	-0.03298311	0	0
31.62267	0.05528571	0.165981	0	0	0.0476763	0.03290356	0	0
31.63919	0.05528571	0.165981	0	0	0	0	0	0
31.65573	0.05528571	0.165981	0	0	0	0	0	0
31.6723	0.05528571	0.165981	0	0	0	0	0	0
31.68886	0.05528571	0.165981	0	0	0	0	0	0
31.70543	0.05528571	0.165981	0	0	0	0	0	0
31.72225	0.05528571	0.165981	0	0	0	0	0	0
31.73876	0.05528571	0.165981	0	0	0	0	0	0
31.75513	0.05528571	0.165981	0	0	0	0	0	0
31.7717	0.05528571	0.165981	0	0	0	0	0	0
31.78829	0.05528571	0.165981	0	0	0	0	0	0
31.87135	0.05528571	0.165981	0	0	0	0	0	0
31.90423	0.05528571	0.165981	0	0	0	0	0	0
31.92088	0.05528571	0.165981	0	0	0	0	0	0
31.93736	0.05531194	0.1659628	0.001591887	-0.001099537	0.04804325	-0.03318409	0	0
31.95393	0.05531194	0.1659628	0	0	-0.04817081	0.0332722	0	0
31.9705	0.05531194	0.1659628	0	0	0	0	0	0
31.98706	0.05531194	0.1659628	0	0	0	0	0	0
32.00363	0.05531194	0.1659628	0	0	0	0	0	0
32.02045	0.05531194	0.1659628	0	0	0	0	0	0
32.03697	0.05531194	0.1659628	0	0	0	0	0	0
32.05348	0.05531194	0.1659628	0	0	0	0	0	0
32.06999	0.05531194	0.1659628	0	0	0	0	0	0
32.0865	0.05531194	0.1659628	0	0	0	0	0	0
32.10302	0.05531194	0.1659628	0	0	0	0	0	0
32.11959	0.05531194	0.1659628	0	0	0	0	0	0
32.13972	0.05531194	0.1659628	0	0	0	0	0	0
32.15629	0.05531194	0.1659628	0	0	0	0	0	0
32.17286	0.05531194	0.1659628	0	0	0	0	0	0
32.18957	0.05531194	0.1659628	0	0	0	0	0	0
32.20608	0.05531194	0.1659628	0	0	0	0	0	0
32.22259	0.05531194	0.1659628	0	0	0	0	0	0
32.23912	0.05531194	0.1659628	0	0	0	0	0	0
32.25569	0.05531194	0.1659628	0	0	0	0	0	0
32.27262	0.05531194	0.1659628	0	0	0	0	0	0
32.28882	0.05531194	0.1659628	0	0	0	0	0	0
32.30539	0.05533818	0.1659447	0.001583682	-0.001093714	0.04833539	-0.03338113	0	0
32.32195	0.05536442	0.1659266	0.001583457	-0.001092815	-6.784417E-06	2.714469E-05	0	0
32.33852	0.05539065	0.165836	0.001583457	-0.005467671	0	-0.1320334	0	0
32.35518	0.05533818	0.1657273	-0.003149509	-0.006524431	-0.1424476	-0.0318052	0	0
32.37169	0.05478722	0.1651658	-0.03337122	-0.03401542	-0.9111491	-0.8288211	0	0
32.38822	0.05358025	0.1643323	-0.07302132	-0.05042335	-1.200096	-0.4966215	0	0
32.40521	0.04528481	0.1586038	-0.4881256	-0.3370774	-12.38247	-8.550823	0	0
32.42135	0.03808684	0.1536686	-0.4459715	-0.3057769	1.272215	0.9446496	0	0
32.43792	0.02912334	0.1476209	-0.5410376	-0.3650414	-2.906579	-1.811971	0	0
32.45449	0.0248107	0.1446764	-0.2603117	-0.1777276	8.472323	5.653142	0	0
32.47106	0.02144408	0.1425671	-0.2031627	-0.1272903	1.724563	1.522025	0	0
32.48762	0.02086539	0.1422033	-0.03493775	-0.02196209	5.077038	3.178813	0	0
32.50429	0.02073387	0.1422943	-0.007891403	0.005456591	0.8139178	0.8251224	0	0
32.5208	0.02049713	0.142458	-0.014336	0.009912256	-0.19423	0.1342867	0	0
32.53732	0.02018147	0.1427126	-0.01910599	0.01541215	-0.1443908	0.1664853	0	0
32.55389	0.01820851	0.1440764	-0.1190879	0.08232177	-3.021634	2.02213	0	0
32.57046	0.01599864	0.1457126	-0.1333885	0.09875986	-0.4315923	0.4961025	0	0
32.60359	0.009262893	0.150473	-0.2032851	0.1436691	-1.406323	0.9035766	0	0
32.62016	-0.0005263158	0.1574067	-0.5908778	0.4185183	-7.798381	5.529976	0	0
32.63673	-0.01144687	0.1654737	-0.6591659	0.4869267	-2.060937	2.06457	0	0
32.65329	-0.02023408	0.1753936	-0.5303972	0.5987644	3.886246	3.375267	0	0
32.66991	-0.0241006	0.1864362	-0.2327403	0.6646984	8.970909	1.987149	0	0
32.68642	-0.02504739	0.2000394	-0.05732027	0.8235566	5.294796	4.794901	0	0
32.70299	-0.02541558	0.2213884	-0.02222382	1.288628	1.0608	14.05692	0	0
32.71956	-0.02570486	0.2390084	-0.0174612	1.063542	0.1437364	-6.793097	0	0
32.73613	-0.02557337	0.2641933	0.007936847	1.520165	0.7665145	13.7809	0	0
32.75269	-0.0245477	0.2837172	0.06190963	1.178461	1.628902	-10.31267	0	0
32.76926	-0.02333787	0.3028092	0.07302565	1.1524	0.3354821	-0.7865027	0	0
32.78599	-0.02123365	0.3200663	0.1257656	1.031428	1.583854	-3.632966	0	0
32.8025	-0.01820851	0.3389783	0.1832305	1.145486	1.728721	3.431217	0	0
32.81902	-0.01576185	0.3504964	0.1481583	0.6974799	-1.062025	-13.56615	0	0
32.83553	-0.01342025	0.3613371	0.1418295	0.6566164	-0.1916458	-1.237393	0	0
32.85209	-0.01097324	0.3740744	0.1477014	0.7688216	0.1775211	3.392216	0	0
32.86866	-0.009789161	0.3814548	0.07147136	0.4454816	-2.300626	-9.758421	0	0
32.88523	-0.009420774	0.3862094	0.02223591	0.286992	-1.485929	-4.783225	0	0
32.90179	-0.009841788	0.3900712	-0.02541244	0.2330942	-1.43803	-1.626639	0	0
32.91859	-0.01060487	0.3905897	-0.04544216	0.03087907	-0.6004198	-6.06169	0	0
32.93493	-0.01084168	0.3907506	-0.01449103	0.009847689	0.9341068	-0.6347285	0	0
32.95161	-0.01178893	0.3913943	-0.05678371	0.03858907	-1.280671	0.8703223	0	0
32.96812	-0.01244673	0.3918414	-0.03983316	0.02707034	0.5106282	-0.3469967	0	0
33.00415	-0.01244673	0.3918414	0	0	0.7582068	-0.5152721	0	0
33.02068	-0.01236779	0.3917877	0.004775533	-0.003245442	0.09087378	-0.06175763	0	0
33.03724	-0.01234148	0.3916983	0.001588179	-0.005396615	-0.0963054	-0.06499737	0	0
33.05381	-0.01228886	0.3916268	0.003176358	-0.004317292	0.04793134	0.03257404	0	0
33.07069	-0.01228886	0.3915553	0	-0.004236331	-0.09495531	0.002420289	0	0
33.08694	-0.01220992	0.3913943	0.004858565	-0.009905494	0.1466487	-0.1711154	0	0
33.10372	-0.01220992	0.3913228	0	-0.004263301	-0.147123	0.1708521	0	0
33.12023	-0.01226254	0.3913586	-0.003187423	0.002166128	-0.09575564	0.1931511	0	0
33.13674	-0.01228886	0.3913765	-0.001593315	0.001082814	0.04827143	-0.032804	0	0
33.15325	-0.01228886	0.3913765	0	0	0.04824743	-0.03278885	0	0
33.16977	-0.01228886	0.3913765	0	0	0	0	0	0
33.18678	-0.01236779	0.3914301	-0.004642671	0.003155149	-0.1384898	0.09411737	0	0
33.20291	-0.01247304	0.3915374	-0.006522422	0.006648936	-0.05672447	0.1054306	0	0
33.21947	-0.01268353	0.3916804	-0.0127083	0.008636573	-0.189173	0.06078478	0	0
33.23631	-0.01294664	0.3918593	-0.01562616	0.01061962	-0.08735723	0.05936997	0	0
33.25282	-0.01352549	0.3922527	-0.0350603	0.0238274	-0.5827662	0.3960583	0	0
33.26918	-0.01597233	0.3939158	-0.1496205	0.1016974	-3.485928	2.369488	0	0
33.28585	-0.0245477	0.3997469	-0.5144126	0.3497908	-11.04633	7.512558	0	0
33.30236	-0.03085862	0.4040411	-0.38216	0.2600359	3.985427	-2.704762	0	0
33.31888	-0.03467031	0.406636	-0.2307648	0.1571034	4.583364	-3.116194	0	0
33.3524	-0.04636149	0.4145671	-0.3487848	0.2366102	-2.358638	1.588947	0	0
33.36858	-0.04898709	0.4163581	-0.1622551	0.1106771	3.752986	-2.533779	0	0
33.38515	-0.05344905	0.4194033	-0.2693239	0.1838105	-3.269359	2.233138	0	0
33.40171	-0.05672854	0.421643	-0.1979508	0.1351852	2.154046	-1.467515	0	0
33.41828	-0.05730561	0.4220014	-0.03483178	0.02163323	4.922941	-3.427006	0	0
33.43496	-0.05733184	0.4219835	-0.00157273	-0.001075738	1.00042	-0.6830775	0	0
33.45142	-0.0573843	0.4220193	-0.00318775	0.00217859	-0.04874139	0.0982158	0	0
33.46798	-0.0577515	0.4222702	-0.02216435	0.0151429	-0.5746334	0.3925744	0	0
33.48455	-0.06176345	0.4250122	-0.2422174	0.1655487	-6.641979	4.539779	0	0
33.50111	-0.06587821	0.4278267	-0.2483677	0.1698819	-0.1856389	0.1307894	0	0
33.51768	-0.0682622	0.4294583	-0.1438976	0.09848463	3.152915	-2.154773	0	0
33.53453	-0.06970268	0.4304446	-0.08549134	0.0585345	1.747814	-1.195512	0	0
33.55082	-0.06972887	0.4304267	-0.00160816	-0.001099862	2.531599	-1.799769	0	0
33.56755	-0.06972887	0.4304267	0	0	0.04870257	0.03330896	0	0
33.58406	-0.06972887	0.4304267	0	0	0	0	0	0
33.60051	-0.06975506	0.4304087	-0.001592123	-0.001090706	-0.0483006	-0.033089	0	0
33.66679	-0.069886	0.4302832	-0.001975722	-0.001894103	-0.004637222	-0.009712041	0	0
33.68364	-0.06991219	0.4301577	-0.001553924	-0.007448223	0.0050742	-0.06681562	0	0
33.70015	-0.069886	0.4300322	0.001585871	-0.007601351	0.09409834	-0.004589199	0	0
33.71649	-0.06985982	0.4299783	0.001602821	-0.003295043	0.0005160274	0.1310966	0	0
33.73306	-0.06980744	0.4299066	0.003161517	-0.004328086	0.04737423	-0.03139778	0	0
33.74962	-0.06975506	0.4298708	0.003161517	-0.002165842	0	0.06525666	0	0
33.76619	-0.06957175	0.4297094	0.01106741	-0.009743134	0.2386277	-0.2287094	0	0
33.78275	-0.06904795	0.4293149	0.03161652	-0.02381166	0.6202448	-0.424638	0	0
33.79932	-0.06771211	0.4283646	0.08063128	-0.05736062	1.479268	-1.01251	0	0
33.81589	-0.06765972	0.428257	0.003162417	-0.006493927	-2.338015	1.53516	0	0
33.83245	-0.06765972	0.4282211	0	-0.002164043	-0.09544192	0.1306762	0	0
33.84902	-0.06784309	0.4280598	-0.01106801	-0.009740891	-0.3340331	-0.2286697	0	0
33.91417	-0.06789548	0.4280239	-0.0008041674	-0.000550292	0.1256001	0.1124666	0	0
33.93074	-0.06813123	0.4278267	-0.01422997	-0.01190313	-0.1642935	-0.1389263	0	0
33.94733	-0.06820981	0.4277729	-0.004737721	-0.00324323	0.286312	0.2612061	0	0
33.96387	-0.06818362	0.4277191	0.001583031	-0.003250706	0.1907607	-0.0002256389	0	0
33.98044	-0.06815742	0.4276653	0.001581208	-0.003246963	-5.503429E-05	0.0001130145	0	0
33.99701	-0.06815742	0.4276295	0	-0.002164043	-0.04772096	0.03268261	0	0
34.01358	-0.06815742	0.4274861	0	-0.008656171	0	-0.1959328	0	0
34.03014	-0.06810503	0.4273426	0.003161967	-0.00865797	0.09542835	-5.427533E-05	0	0
