Time	Pos X	Pos Y	Vel X	Vel Y	Acc X	Acc YForce X	Force Y
0.01651107	0.0009736839	0.2069399	-1.520672E-05	-0.003231928	2.375554E-07	5.048834E-05	0	0
0.04917084	0.0009736839	0.2069399	0	0	-2.376153E-07	-5.050108E-05	0	0
0.06573796	0.0009736839	0.2069399	0	0	0	0	0	0
0.0823047	0.0009736839	0.2069399	0	0	0	0	0	0
0.09887183	0.0009736839	0.2069399	0	0	0	0	0	0
0.1155787	0.0009736839	0.2069399	0	0	0	0	0	0
0.1320921	0.0009736839	0.2069399	0	0	0	0	0	0
0.1485716	0.0009736839	0.2069399	0	0	0	0	0	0
0.1651384	0.0009473682	0.2069219	-0.001588468	-0.00108745	-0.04806807	-0.03290694	0	0
0.1821263	0.0009473682	0.2069219	0	0	0.04733971	0.03240831	0	0
0.1982718	0.0009736839	0.2069039	0.001629909	-0.00111582	0.04919223	-0.03367653	0	0
0.2151504	0.0009736839	0.2069039	0	0	-0.04935511	0.03378804	0	0
0.2314057	0.0009736839	0.2069039	0	0	0	0	0	0
0.2481753	0.0009736839	0.2069039	0	0	0	0	0	0
0.264686	0.0009736839	0.2069039	0	0	0	0	0	0
0.2811055	0.0009736839	0.2069039	0	0	0	0	0	0
0.2977089	0.0009473682	0.2068859	-0.001584957	-0.001084149	-0.04799564	-0.03283018	0	0
0.3142385	0.0009736839	0.2068678	0.001592036	-0.001089892	0.09588589	-0.0001733385	0	0
0.3308053	0.0009736839	0.2068678	0	0	-0.04810306	0.0329309	0	0
0.3473716	0.0009736839	0.2068678	0	0	0	0	0	0
0.3639379	0.0009999997	0.2068498	0.001588511	-0.001086577	0.04794393	-0.03279474	0	0
0.3805055	0.0009999997	0.2068498	0	0	-0.04794221	0.03279356	0	0
0.3970714	0.0009999997	0.2068498	0	0	0	0	0	0
0.4136381	0.0009999997	0.2068498	0	0	0	0	0	0
0.4303024	0.0009999997	0.2068498	0	0	0	0	0	0
0.4467716	0.0009999997	0.2068498	0	0	0	0	0	0
0.463338	0.0009999997	0.2068498	0	0	0	0	0	0
0.4799055	0.0009999997	0.2068498	0	0	0	0	0	0
0.4964718	0.0009999997	0.2068498	0	0	0	0	0	0
0.5130382	0.0009999997	0.2068498	0	0	0	0	0	0
0.529873	0.0009999997	0.2068498	0	0	0	0	0	0
0.5461717	0.0009999997	0.2068498	0	0	0	0	0	0
0.562738	0.0009999997	0.2068498	0	0	0	0	0	0
0.5794074	0.0009999997	0.2068498	0	0	0	0	0	0
0.5958719	0.0009999997	0.2068498	0	0	0	0	0	0
0.6163731	0.0009736839	0.2068318	-0.001283619	-0.0008787512	-0.03472457	-0.02377205	0	0
0.6329402	0.0009736839	0.2068318	0	0	0.03462842	0.02370623	0	0
0.649507	0.0009736839	0.2068318	0	0	0	0	0	0
0.6660737	0.0009736839	0.2068318	0	0	0	0	0	0
0.6829816	0.0009736839	0.2068318	0	0	0	0	0	0
0.6992072	0.0009736839	0.2068318	0	0	0	0	0	0
0.7157735	0.0009736839	0.2068318	0	0	0	0	0	0
0.7323403	0.0009736839	0.2068318	0	0	0	0	0	0
0.748907	0.0009736839	0.2068318	0	0	0	0	0	0
0.7655389	0.0009736839	0.2068318	0	0	0	0	0	0
0.7820405	0.0009736839	0.2068318	0	0	0	0	0	0
0.7986072	0.0009736839	0.2068318	0	0	0	0	0	0
0.8151736	0.0009736839	0.2068318	0	0	0	0	0	0
0.8317403	0.0009736839	0.2068318	0	0	0	0	0	0
0.8483071	0.0009736839	0.2068318	0	0	0	0	0	0
0.8648758	0.0009736839	0.2068318	0	0	0	0	0	0
0.8814409	0.0009736839	0.2068318	0	0	0	0	0	0
0.898008	0.0009736839	0.2068318	0	0	0	0	0	0
0.914574	0.0009736839	0.2068318	0	0	0	0	0	0
0.9311407	0.0009473682	0.2068138	-0.001588467	-0.00108655	-0.04794262	-0.03279391	0	0
0.9477075	0.0009473682	0.2068138	0	0	0.04794141	0.03279308	0	0
0.9642742	0.0009473682	0.2068138	0	0	0	0	0	0
0.9808429	0.0009473682	0.2068138	0	0	0	0	0	0
0.9974097	0.0009473682	0.2068138	0	0	0	0	0	0
1.013976	0.0009736839	0.2067958	0.001588547	-0.001087504	0.04794503	-0.03282271	0	0
1.030731	0.0009736839	0.2067958	0	0	-0.04767419	0.03263729	0	0
1.047109	0.0009736839	0.2067958	0	0	0	0	0	0
1.063751	0.0009999997	0.2067778	0.001581347	-0.001082573	0.04789022	-0.03278511	0	0
1.080263	0.0009999997	0.2067778	0	0	-0.04769753	0.0326532	0	0
1.096808	0.0009999997	0.2067778	0	0	0	0	0	0
1.113375	0.0009999997	0.2067778	0	0	0	0	0	0
1.130299	0.0009999997	0.2067778	0	0	0	0	0	0
1.146812	0.0009999997	0.2067778	0	0	0	0	0	0
1.163074	0.001026315	0.2067598	0.001618155	-0.00110686	0.04937102	-0.03377105	0	0
1.179641	0.0009999997	0.2067418	-0.001588429	-0.001087426	-0.09767273	0.0005919579	0	0
1.196209	0.0009999997	0.2067418	0	0	0.04793923	0.03281881	0	0
1.212775	0.0009999997	0.2067418	0	0	0	0	0	0
1.229341	0.0009999997	0.2067418	0	0	0	0	0	0
1.245908	0.0009999997	0.2067418	0	0	0	0	0	0
1.262475	0.0009999997	0.2067418	0	0	0	0	0	0
1.279402	0.0009999997	0.2067418	0	0	0	0	0	0
1.295608	0.0009999997	0.2067058	0	-0.002222455	0	-0.06707648	0	0
1.312174	0.0009999997	0.2067058	0	0	0	0.06781578	0	0
1.328741	0.0009999997	0.2067058	0	0	0	0	0	0
1.345307	0.001026315	0.2066878	0.001588498	-0.001086573	0.04794285	-0.03279414	0	0
1.361875	0.001026315	0.2066878	0	0	-0.04794234	0.03279379	0	0
1.378473	0.001026315	0.2066878	0	0	0	0	0	0
1.395007	0.001026315	0.2066878	0	0	0	0	0	0
1.411574	0.001052631	0.2066697	0.001588471	-0.001087449	0.047989	-0.03285273	0	0
1.428141	0.001052631	0.2066697	0	0	-0.047941	0.03281987	0	0
1.477841	0.00136842	0.2064536	0.00635387	-0.004348298	0.09588234	-0.06561748	0	0
1.497128	0.001473683	0.2063816	0.005457955	-0.003735691	-0.01298684	0.008880114	0	0
1.513695	0.001499999	0.2063636	0.001588395	-0.001087402	-0.1079266	0.07386389	0	0
1.530262	0.001499999	0.2063636	0	0	-0.0479382	0.03281811	0	0
1.546829	0.001499999	0.2063636	0	0	0	0	0	0
1.563396	0.001499999	0.2063636	0	0	0	0	0	0
1.579962	0.001499999	0.2063636	0	0	0	0	0	0
1.596627	0.001499999	0.2063636	0	0	0	0	0	0
1.61314	0.001499999	0.2063636	0	0	0	0	0	0
1.629663	0.001499999	0.2063636	0	0	0	0	0	0
1.686029	0.001499999	0.2063636	0	0	0	0	0	0
1.702701	0.001499999	0.2063636	0	0	0	0	0	0
1.719163	0.001526315	0.2063456	0.001598605	-0.001093482	0.04824633	-0.03300158	0	0
1.73573	0.001526315	0.2063456	0	0	-0.04840079	0.03310724	0	0
1.752297	0.001526315	0.2063095	0	-0.002174899	0	-0.06564046	0	0
1.768865	0.00155263	0.2062915	0.001588349	-0.001086472	0.04793613	0.03284855	0	0
1.78543	0.001578946	0.2062735	0.001588612	-0.001087551	7.93362E-06	-3.257773E-05	0	0
1.801997	0.001605262	0.2062555	0.001588471	-0.001087449	-4.272643E-06	3.070962E-06	0	0
1.818563	0.001605262	0.2062555	0	0	-0.04794152	0.03282023	0	0
1.83513	0.001605262	0.2062555	0	0	0	0	0	0
1.851697	0.001605262	0.2062195	0	-0.002173999	0	-0.06561331	0	0
1.868264	0.001605262	0.2062195	0	0	0	0.06561331	0	0
1.88483	0.001605262	0.2062195	0	0	0	0	0	0
1.901397	0.001631577	0.2062015	0.001588464	-0.001087449	0.04794182	-0.03282058	0	0
1.917964	0.001631577	0.2062015	0	0	-0.0479413	0.03282023	0	0
1.93453	0.001631577	0.2062015	0	0	0	0	0	0
1.951097	0.001631577	0.2062015	0	0	0	0	0	0
1.967664	0.001631577	0.2062015	0	0	0	0	0	0
1.98423	0	0	-0.09848718	-12.44697	-2.972499	-375.6693	0	0
2.000797	0.001631577	0.2062015	0.09848575	12.44679	5.944911	751.3278	0	0
2.017426	0.001631577	0.2062015	0	0	-2.966809	-374.9503	0	0
2.033942	0.001631577	0.2062015	0	0	0	0	0	0
2.067067	0.001631577	0.2062015	0	0	0	0	0	0
2.083632	0.001631577	0.2062015	0	0	0	0	0	0
2.100198	0.001631577	0.2062015	0	0	0	0	0	0
2.116764	0.001631577	0.2062015	0	0	0	0	0	0
2.133331	0.001631577	0.2062015	0	0	0	0	0	0
2.149898	0.001631577	0.2062015	0	0	0	0	0	0
2.166464	0.001631577	0.2062015	0	0	0	0	0	0
2.183031	0.001631577	0.2062015	0	0	0	0	0	0
2.199597	0.001631577	0.2062015	0	0	0	0	0	0
2.216164	0.001631577	0.2062015	0	0	0	0	0	0
2.232731	0.001631577	0.2062015	0	0	0	0	0	0
2.249298	0.001631577	0.2062015	0	0	0	0	0	0
2.266101	0.001631577	0.2062015	0	0	0	0	0	0
2.365263	0.001631577	0.2062015	0	0	0	0	0	0
2.38183	0.001631577	0.2062015	0	0	0	0	0	0
2.398397	0.001631577	0.2062015	0	0	0	0	0	0
2.417668	0.001631577	0.2062015	0	0	0	0	0	0
2.434236	0.001631577	0.2062015	0	0	0	0	0	0
2.450802	0.001631577	0.2062015	0	0	0	0	0	0
2.467369	0.001631577	0.2062015	0	0	0	0	0	0
2.483935	0.001631577	0.2062015	0	0	0	0	0	0
2.500502	0.001631577	0.2062015	0	0	0	0	0	0
2.517068	0.001631577	0.2062015	0	0	0	0	0	0
2.533636	0.001631577	0.2062015	0	0	0	0	0	0
2.5503	0.001631577	0.2062015	0	0	0	0	0	0
2.566769	0.001631577	0.2062015	0	0	0	0	0	0
2.583336	0.001631577	0.2062015	0	0	0	0	0	0
2.599903	0.001631577	0.2062015	0	0	0	0	0	0
2.616469	0.001631577	0.2062015	0	0	0	0	0	0
2.633036	0.001657893	0.2061835	0.001588464	-0.00108655	0.04794234	-0.03279379	0	0
2.649602	0.001710525	0.2061474	0.003176934	-0.002174899	0.04794152	-0.03284737	0	0
2.666169	0.002131576	0.2058593	0.02541542	-0.01739469	0.6711783	-0.4593475	0	0
2.682736	0.003710509	0.2047785	0.09530737	-0.06523617	2.109404	-1.4439	0	0
2.699407	0.004894698	0.2039679	0.07103308	-0.0486276	-0.7303241	0.4996908	0	0
2.715869	0.009447088	0.2008505	0.2765378	-0.1893647	6.202414	-4.247637	0	0
2.732436	0.01644589	0.1960188	0.4224605	-0.2916487	4.418037	-3.096809	0	0
2.749002	0.02938627	0.1870683	0.7811059	-0.5402743	10.82425	-7.503753	0	0
2.76557	0.04037279	0.1791548	0.6631473	-0.4776553	-3.560047	1.889872	0	0
2.782136	0.05541689	0.1676292	0.9080896	-0.6957094	7.39248	-6.58098	0	0
2.798703	0.06582581	0.1578965	0.6283202	-0.5875013	-8.443823	3.265868	0	0
2.815269	0.07980384	0.1447128	0.8437639	-0.7958145	6.502479	-6.287268	0	0
2.831836	0.08748663	0.1338666	0.4637477	-0.6546975	-11.46941	4.259103	0	0
2.848403	0.09051515	0.1255897	0.1827992	-0.4995872	-8.479103	4.681273	0	0
2.865026	0.09354199	0.1074937	0.18209	-1.088627	-0.0213652	-17.74737	0	0
2.882036	0.09526341	0.09384894	0.1012002	-0.8021607	-2.405092	8.517474	0	0
2.898103	0.09706245	0.0752036	0.1119714	-1.160473	0.3256404	-10.83266	0	0
2.914669	0.09925175	0.06227119	0.1321541	-0.7806469	0.6184698	11.6392	0	0
2.931236	0.1002158	0.05829081	0.05819068	-0.2402631	-2.232316	16.30952	0	0
2.947803	0.103263	0.03948196	0.1839336	-1.135337	3.795039	-27.01416	0	0
2.980936	0.1111713	0.01745194	0.2386812	-0.6648864	1.101554	9.46576	0	0
2.997617	0.1126526	0.01132277	0.08880027	-0.3674296	-3.008768	5.971263	0	0
3.014129	0.1168858	0.007887932	0.2563805	-0.2080281	5.048717	4.802317	0	0
3.030638	0.1201812	0.005502152	0.1996122	-0.1445155	-1.719195	1.923445	0	0
3.047203	0.1236813	0.002964242	0.2112953	-0.1532106	0.3532441	-0.2629027	0	0
3.06377	0.123759	0.002907823	0.004692807	-0.003405489	-6.235724	4.521453	0	0
3.113469	0.1236813	0.002964242	-0.001564336	0.001135212	-0.09442354	0.06852153	0	0
3.130036	0.1236813	0.002964242	0	0	0.02360682	-0.01713106	0	0
3.146603	0.1236813	0.002964242	0	0	0	0	0	0
3.163236	0.1236553	0.002983049	-0.001557886	0.001130635	-0.04692392	0.034055	0	0
3.179747	0.1236553	0.002983049	0	0	0.04700324	-0.03411257	0	0
3.196303	0.1236553	0.002983049	0	0	0	0	0	0
3.21287	0.1236553	0.002983049	0	0	0	0	0	0
3.229783	0.1236553	0.002983049	0	0	0	0	0	0
3.246005	0.1236553	0.002983049	0	0	0	0	0	0
3.262805	0.1236294	0.003001855	-0.00154292	0.001119437	-0.04672376	0.03389957	0	0
3.279137	0.1236294	0.003001855	0	0	0.04656909	-0.03378736	0	0
3.295829	0.1236294	0.003001855	0	0	0	0	0	0
3.315497	0.1236294	0.003001855	0	0	0	0	0	0
3.332065	0.1236294	0.003001855	0	0	0	0	0	0
3.348631	0.1236294	0.003001855	0	0	0	0	0	0
3.365378	0.1236294	0.003001855	0	0	0	0	0	0
3.381765	0.1236294	0.003001855	0	0	0	0	0	0
3.398332	0.1236294	0.003001855	0	0	0	0	0	0
3.414898	0.1236294	0.003001855	0	0	0	0	0	0
3.431464	0.1236294	0.003001855	0	0	0	0	0	0
3.448031	0.1236294	0.003001855	0	0	0	0	0	0
3.464598	0.1236294	0.003001855	0	0	0	0	0	0
3.481164	0.1236294	0.003001855	0	0	0	0	0	0
3.497732	0.1236294	0.003001855	0	0	0	0	0	0
3.514483	0.1236294	0.003001855	0	0	0	0	0	0
3.530998	0.1236294	0.003001855	0	0	0	0	0	0
3.547507	0.1236294	0.003001855	0	0	0	0	0	0
3.563998	0.1236294	0.003001855	0	0	0	0	0	0
3.580565	0.1236294	0.003001855	0	0	0	0	0	0
3.597131	0.1236294	0.003001855	0	0	0	0	0	0
3.613698	0.1236294	0.003001855	0	0	0	0	0	0
3.630566	0.1236035	0.003020661	-0.001536154	0.001114849	-0.04594434	0.03334366	0	0
3.646831	0.1236035	0.003020661	0	0	0.04636255	-0.03364718	0	0
3.680099	0.1236035	0.003020661	0	0	0	0	0	0
3.696532	0.1236035	0.003020661	0	0	0	0	0	0
3.713124	0.1236035	0.003020661	0	0	0	0	0	0
3.729665	0.1235776	0.003039467	-0.001566667	0.001136993	-0.04728413	0.03431601	0	0
3.746231	0.1235776	0.003039467	0	0	0.04732193	-0.03434344	0	0
3.762798	0.1235258	0.003077079	-0.003128688	0.002270246	-0.0944267	0.06851815	0	0
3.779672	0.123448	0.003133496	-0.004607847	0.003343363	-0.04423121	0.03208933	0	0
3.795932	0.122826	0.003660008	-0.03825829	0.03238241	-1.015602	0.8764253	0	0
3.812694	0.1218927	0.004487217	-0.05567502	0.04934885	-0.5274331	0.5137969	0	0
3.829065	0.1208814	0.00612224	-0.06177363	0.09987596	-0.1840642	1.524977	0	0
3.84572	0.1157176	0.01109764	-0.3100419	0.2987254	-7.517362	6.020999	0	0
3.86223	0.107661	0.01705865	-0.4879842	0.3610591	-5.365328	1.879492	0	0
3.878765	0.09513301	0.027214	-0.7576655	0.6141717	-8.161079	7.659675	0	0
3.895331	0.08607626	0.03573879	-0.5467061	0.5145943	6.373187	-3.008283	0	0
3.911898	0.07588034	0.04890715	-0.6154268	0.7948439	-2.074069	8.458254	0	0
3.928464	0.0725828	0.06062397	-0.1990517	0.7072694	12.56659	-2.643079	0	0
3.945287	0.07187597	0.06922279	-0.0420161	0.5111403	4.703199	-5.874045	0	0
3.961799	0.07088105	0.08868481	-0.060256	1.178699	-0.5471817	20.02621	0	0
3.978311	0.07082869	0.0958505	-0.003171205	0.433971	1.728619	-22.55155	0	0
3.994823	0.07054066	0.1089951	-0.01744363	0.7960554	-0.4321826	10.96426	0	0
4.011333	0.06959794	0.1175552	-0.0570992	0.5184732	-1.200869	-8.405874	0	0
4.027864	0.06949318	0.1283987	-0.006336896	0.6559507	1.536332	4.160786	0	0
4.04443	0.06941461	0.1312974	-0.004742998	0.1749746	0.04815798	-14.5322	0	0
4.060997	0.06862889	0.14324	-0.0474259	0.7208556	-1.28821	16.47519	0	0
4.077564	0.0671358	0.1535053	-0.09012607	0.6196302	-1.288712	-3.055032	0	0
4.09413	0.06572101	0.1611968	-0.08540431	0.4643046	0.142511	-4.688006	0	0
4.110904	0.06087207	0.1667236	-0.2890796	0.3294917	-6.109129	-4.043638	0	0
4.127264	0.05607274	0.1700373	-0.2933527	0.2025466	-0.128963	-3.831266	0	0
4.146597	0.04966964	0.174453	-0.3311943	0.2283936	-1.060179	0.7241337	0	0
4.163165	0.04541612	0.177383	-0.2567357	0.176851	2.073995	-1.435685	0	0
4.179732	0.04342006	0.1787571	-0.1204856	0.08294477	4.112036	-2.834095	0	0
4.196299	0.04355139	0.1786667	0.007927407	-0.005456135	3.875624	-2.668021	0	0
4.212977	0.04352513	0.1786848	-0.001574919	0.001083748	-0.2858264	0.1967173	0	0
4.229488	0.04352513	0.1786848	0	0	0.04745261	-0.03265354	0	0
4.245999	0.04349886	0.1787029	-0.001590838	0.001094702	-0.0481745	0.03315029	0	0
4.262565	0.04349886	0.1787029	0	0	0.04809533	-0.03309581	0	0
4.279131	0.04349886	0.1787029	0	0	0	0	0	0
4.295698	0.04347259	0.1786486	-0.001585526	-0.003273141	-0.04785265	-0.09878644	0	0
4.312548	0.04349886	0.1786305	0.001558918	-0.001073622	0.0940992	0.06582181	0	0
4.329059	0.04349886	0.1786305	0	0	-0.04672882	0.03218198	0	0
4.34607	0.04349886	0.1786305	0	0	0	0	0	0
4.361965	0.04347259	0.1786125	-0.001652545	-0.001137165	-0.05022009	-0.03455792	0	0
4.378532	0.04349886	0.1785944	0.001585526	-0.001091047	0.09975069	0.001420683	0	0
4.395099	0.04355139	0.1784859	0.003170961	-0.006547893	0.04784921	-0.1646903	0	0
4.411665	0.04363019	0.1783232	0.004756491	-0.009822405	0.04785275	-0.09882782	0	0
4.428232	0.04365645	0.178269	0.001585347	-0.003274135	-0.09571081	0.1976385	0	0
4.445141	0.04368272	0.1782147	0.001553423	-0.003207749	-0.0009536518	0.001983116	0	0
4.461365	0.04373525	0.1781424	0.003237739	-0.0044572	0.05083421	-0.03770959	0	0
4.478165	0.04391911	0.1779435	0.01094429	-0.01183883	0.2333632	-0.2235243	0	0
4.494499	0.04397164	0.1779073	0.003216	-0.002214093	-0.2332468	0.2904834	0	0
4.511187	0.04394537	0.1778893	-0.001573974	-0.001083098	-0.1450522	0.03424933	0	0
4.527632	0.04394537	0.1778531	0	-0.002199135	0.04750399	-0.03368303	0	0
4.544211	0.04394537	0.1778169	0	-0.002181424	0	0.0005362944	0	0
4.560765	0.04391911	0.1777989	-0.001586489	-0.001091864	-0.04788239	0.0328844	0	0
4.577332	0.04391911	0.1777989	0	0	0.04790031	0.03296629	0	0
4.593898	0.04391911	0.1777627	0	-0.002182994	0	-0.06588573	0	0
4.610466	0.04391911	0.1777627	0	0	0	0.06588383	0	0
4.62727	0.04394537	0.1777084	0.001562855	-0.00322857	0.04683142	-0.09674508	0	0
4.643599	0.04394537	0.1776723	0	-0.002214869	-0.04716909	0.03059487	0	0
4.660165	0.04394537	0.1776361	0	-0.002182094	0	0.0009963383	0	0
4.676732	0.04397164	0.177618	0.001585526	-0.001091947	0.04785265	0.03290166	0	0
4.693299	0.0439979	0.1776	0.001585301	-0.001091047	-6.788126E-06	2.714899E-05	0	0
4.709866	0.04405043	0.1775276	0.003170828	-0.004365988	0.04785265	-0.09884074	0	0
4.726432	0.04405043	0.1775276	0	0	-0.0956999	0.1317715	0	0
4.742999	0.0440767	0.1775095	0.001585301	-0.001091947	0.04784656	-0.03295644	0	0
4.759566	0.0440767	0.1774734	0	-0.002182931	-0.04784518	-0.03292645	0	0
4.776376	0.04410296	0.1774553	0.001562589	-0.001075263	0.04681609	0.03318639	0	0
4.792699	0.04410296	0.1774553	0	0	-0.04716105	0.03245291	0	0
4.809399	0.04410296	0.1774191	0	-0.002165603	0	-0.06557886	0	0
4.825832	0.04412923	0.1774011	0.001598181	-0.001100818	0.04823529	0.03213665	0	0
4.842422	0.04415549	0.177383	0.001583069	-0.001089511	-0.0004576398	0.0003424173	0	0
4.858967	0.04418176	0.1773287	0.001587628	-0.003279282	0.0001376082	-0.06608649	0	0
4.875947	0.04420802	0.1773106	0.001546747	-0.001064513	-0.001219436	0.06606416	0	0
4.892099	0.04423428	0.1772926	0.001625923	-0.001119926	0.002389651	-0.001672464	0	0
4.925232	0.04423428	0.1772564	0	-0.001091513	-0.03298961	0.0005765082	0	0
4.941799	0.04426055	0.1772383	0.001585526	-0.001091047	0.03190207	9.364799E-06	0	0
4.958367	0.04428681	0.1772202	0.001585164	-0.001091852	-1.091956E-05	-2.430199E-05	0	0
4.991499	0.04428681	0.1772202	0	0	-0.03189449	0.02196874	0	0
5.013455	0.04428681	0.1772202	0	0	0	0	0	0
5.030055	0.04428681	0.1772202	0	0	0	0	0	0
5.04659	0.04428681	0.1772202	0	0	0	0	0	0
5.063156	0.04431308	0.1772022	0.001585438	-0.001091141	0.04789687	-0.03296392	0	0
5.079722	0.04431308	0.1772022	0	0	-0.04785207	0.03293308	0	0
5.096601	0.04431308	0.1772022	0	0	0	0	0	0
5.112855	0.04428681	0.1771841	-0.001615715	-0.001112896	-0.04876449	-0.03358871	0	0
5.129423	0.04428681	0.1771841	0	0	0.0492264	0.03390687	0	0
5.145989	0.04428681	0.1771841	0	0	0	0	0	0
5.162649	0.04431308	0.177166	0.001576453	-0.001084958	0.04744568	-0.03265339	0	0
5.179123	0.04431308	0.177166	0	0	-0.04757883	0.03274503	0	0
5.19569	0.04431308	0.177166	0	0	0	0	0	0
5.212256	0.04431308	0.177166	0	0	0	0	0	0
5.228823	0.04431308	0.177166	0	0	0	0	0	0
5.24539	0.04431308	0.177166	0	0	0	0	0	0
5.261958	0.04431308	0.177166	0	0	0	0	0	0
5.278523	0.04431308	0.177166	0	0	0	0	0	0
5.29509	0.04428681	0.1771479	-0.001585301	-0.001091947	-0.04784724	-0.03295691	0	0
5.311657	0.04431308	0.1771298	0.001585301	-0.001091047	0.09569173	2.714899E-05	0	0
5.328265	0.04431308	0.1771298	0	0	-0.04778604	0.03288764	0	0
5.34479	0.04433934	0.1771117	0.001589327	-0.001094719	0.04796805	-0.03304012	0	0
5.361356	0.04431308	0.1770937	-0.001585347	-0.001091079	-0.09593748	0.0001100263	0	0
5.377923	0.04436561	0.1770575	0.003170736	-0.00218383	0.143543	-0.03298027	0	0
5.394491	0.0444444	0.1769671	0.004755767	-0.005456877	0.04783632	-0.09878076	0	0
5.411057	0.04449692	0.1769309	0.003170785	-0.002184019	-0.04783691	0.09877933	0	0
5.427623	0.04452319	0.1768766	0.001585347	-0.003274135	-0.04785207	-0.03290214	0	0
5.44419	0.04454945	0.1768224	0.001585481	-0.003274846	4.033524E-06	-2.14606E-05	0	0
5.460859	0.04460198	0.1767862	0.003151193	-0.00216963	0.04710888	0.03325357	0	0
5.477324	0.04462824	0.176732	0.001595127	-0.003295237	-0.04696352	-0.03397188	0	0
5.49389	0.04470703	0.1766777	0.004756041	-0.003275034	0.09569543	0.0006116362	0	0
5.510456	0.04475956	0.1766054	0.003170785	-0.004367138	-0.04784655	-0.03296213	0	0
5.527023	0.04481208	0.1765692	0.003170287	-0.002182931	-1.505215E-05	0.06592236	0	0
5.54359	0.04483835	0.1765511	0.001585301	-0.001091047	-0.04783564	0.03295359	0	0
5.560428	0.04489087	0.176515	0.003119425	-0.002148642	0.04592455	-0.0316595	0	0
5.576941	0.0449434	0.1764788	0.003180949	-0.002190117	0.001844708	-0.00124357	0	0
5.593454	0.04502219	0.1763884	0.004771197	-0.005475744	0.04815179	-0.09948684	0	0
5.609857	0.04510098	0.1763341	0.004803464	-0.003308599	0.0009802973	0.06583945	0	0
5.626424	0.04512724	0.1762798	0.001585031	-0.003274846	-0.09761717	0.00102375	0	0
5.64299	0.0451535	0.1762256	0.001585393	-0.003275129	1.092019E-05	-8.530956E-06	0	0
5.664505	0.04512724	0.1762075	-0.001220676	-0.0008401021	-0.07368652	0.06394307	0	0
5.681073	0.04512724	0.1761713	0	-0.002183768	0.03205298	-0.03528248	0	0
5.698026	0.04512724	0.1761713	0	0	0	0.06514591	0	0
5.714206	0.04510098	0.1761532	-0.001622961	-0.001118045	-0.04898247	-0.03374363	0	0
5.770703	0.04502219	0.176099	-0.001394583	-0.0009603171	0.003142364	0.002170254	0	0
5.78759	0.04502219	0.176099	0	0	0.01900396	0.01308623	0	0
5.804101	0.04502219	0.176099	0	0	0	0	0	0
5.820405	0.04499592	0.1760809	-0.001610848	-0.001108629	-0.04908952	-0.03378473	0	0
5.836971	0.04502219	0.1760628	0.001585301	-0.001091947	0.09723379	0.0005075192	0	0
5.853638	0.04499592	0.1760447	-0.001575822	-0.001085417	-0.09511954	0.0001964755	0	0
5.870104	0.04499592	0.1760447	0	0	0.04756045	0.03275937	0	0
5.89071	0.04499592	0.1759724	0	-0.00351087	0	-0.09470242	0	0
5.907278	0.0449434	0.1759	-0.003170287	-0.004366761	-0.08528403	-0.02302436	0	0
5.924188	0.04478582	0.1757192	-0.009318208	-0.01069571	-0.1836419	-0.1890491	0	0
5.940412	0.0447333	0.175683	-0.003237604	-0.002230044	0.183513	0.2554942	0	0
5.957213	0.04452319	0.1754298	-0.01250554	-0.01507113	-0.2806318	-0.3888261	0	0
5.973723	0.04457572	0.1753213	0.003181817	-0.006573484	0.4709379	0.2551011	0	0
5.990112	0.04462824	0.1752489	0.003205012	-0.004415188	0.0007050222	0.06560487	0	0
6.006747	0.04468077	0.1752127	0.003157516	-0.002174879	-0.001438208	0.06783816	0	0
6.023245	0.04475956	0.1751223	0.004775836	-0.005481712	0.04884312	-0.09980471	0	0
6.039812	0.04483835	0.175068	0.004755542	-0.003275746	-0.0006137632	0.06671637	0	0
6.056378	0.0449434	0.1749595	0.006341388	-0.006551868	0.0478623	-0.09887642	0	0
6.072947	0.04504845	0.1748871	0.006340433	-0.00436651	-2.882411E-05	0.06595425	0	0
6.089512	0.04559994	0.1744711	0.03329122	-0.02511622	0.8133881	-0.6262364	0	0
6.106078	0.04633523	0.1739645	0.0443871	-0.03057984	0.334908	-0.1649092	0	0
6.122828	0.04644027	0.1738559	0.006270995	-0.006480948	-1.144106	0.7233608	0	0
6.13934	0.04644027	0.1738559	0	0	-0.1885292	0.1948411	0	0
6.155778	0.04644027	0.1738559	0	0	0	0	0	0
6.172366	0.04644027	0.1738559	0	0	0	0	0	0
6.18891	0.04644027	0.1738559	0	0	0	0	0	0
6.205477	0.04644027	0.1738559	0	0	0	0	0	0
6.222398	0.04644027	0.1738559	0	0	0	0	0	0
6.238611	0.04641401	0.1738378	-0.001619667	-0.001115776	-0.04888236	-0.03367467	0	0
6.255177	0.04641401	0.1738378	0	0	0.04941285	0.03404012	0	0
6.271744	0.04644027	0.1738198	0.001585031	-0.001091915	0.04783908	-0.03295596	0	0
6.288311	0.04641401	0.1738017	-0.001585031	-0.001091915	-0.09567265	0	0	0
6.304877	0.04638775	0.1737836	-0.001585168	-0.001092009	-4.131962E-06	-2.845994E-06	0	0
6.321465	0.04638775	0.1737836	0	0	0.04781156	0.03293701	0	0
6.33801	0.04636149	0.1737655	-0.001587178	-0.001093394	-0.04790251	-0.03299965	0	0
6.354991	0.04633523	0.1737474	-0.001546441	-0.001066208	0.001215102	0.0008108991	0	0
6.371144	0.04633523	0.1737474	0	0	0.04667303	0.03217916	0	0
6.388014	0.04630897	0.1737293	-0.001556582	-0.001072317	-0.04713647	-0.03247194	0	0
6.404277	0.04628271	0.1737112	-0.001614681	-0.001112341	-0.001753512	-0.00120798	0	0
6.421036	0.04628271	0.1737112	0	0	0.04889653	0.03368443	0	0
6.437548	0.04628271	0.1737112	0	0	0	0	0	0
6.470544	0.04628271	0.1737112	0	0	0	0	0	0
6.503677	0.04628271	0.1737112	0	0	0	0	0	0
6.520244	0.04625645	0.1736931	-0.001585031	-0.001091915	-0.0318918	-0.02197001	0	0
6.53681	0.04625645	0.1736931	0	0	0.0478377	0.03295501	0	0
6.55363	0.04625645	0.1736931	0	0	0	0	0	0
6.569943	0.04625645	0.1736931	0	0	0	0	0	0
6.586653	0.04625645	0.1736931	0	0	0	0	0	0
6.603166	0.04625645	0.1736931	0	0	0	0	0	0
6.619677	0.04625645	0.1736931	0	0	0	0	0	0
6.636211	0.04625645	0.1736931	0	0	0	0	0	0
6.652777	0.04625645	0.1736931	0	0	0	0	0	0
6.669343	0.04623019	0.173675	-0.001585122	-0.001091978	-0.04784183	-0.03295786	0	0
6.685911	0.04625645	0.1736569	0.001585031	-0.001091915	0.09567816	1.897302E-06	0	0
6.702477	0.04625645	0.1736569	0	0	-0.0478377	0.03295501	0	0
6.788296	0.04620393	0.1736569	-0.000611974	0	-0.005977154	0	0	0
6.804808	0.04620393	0.1736569	0	0	0.005980357	0	0	0
6.821328	0.04620393	0.1736569	0	0	0	0	0	0
6.837894	0.04620393	0.1736569	0	0	0	0	0	0
6.854843	0.04617767	0.1736388	-0.0015494	-0.001068248	-0.04623007	-0.03187376	0	0
6.871029	0.04617767	0.1736388	0	0	0.0467603	0.03223933	0	0
6.887595	0.04617767	0.1736388	0	0	0	0	0	0
6.904378	0.04620393	0.1736207	0.001564631	-0.001077862	0.04691749	-0.03232109	0	0
6.920728	0.04620393	0.1736207	0	0	-0.04722269	0.03253134	0	0
6.937401	0.04620393	0.1736207	0	0	0	0	0	0
6.953914	0.04620393	0.1736207	0	0	0	0	0	0
6.970428	0.04620393	0.1736207	0	0	0	0	0	0
6.986994	0.04620393	0.1736207	0	0	0	0	0	0
7.003561	0.04617767	0.1736026	-0.001585076	-0.001091947	-0.04783908	-0.03295596	0	0
7.020127	0.04620393	0.1735846	0.001585122	-0.001091978	0.09568091	-9.486647E-07	0	0
7.036694	0.04620393	0.1735846	0	0	-0.04784115	0.03295739	0	0
7.05326	0.04617767	0.1735665	-0.001585122	-0.001091978	-0.04784115	-0.03295739	0	0
7.069828	0.04617767	0.1735665	0	0	0.04784046	0.03295691	0	0
7.086507	0.04617767	0.1735665	0	0	0	0	0	0
7.102961	0.04617767	0.1735665	0	0	0	0	0	0
7.119531	0.04615141	0.1735846	-0.001584757	0.001091727	-0.0479876	0.03305827	0	0
7.136095	0.04615141	0.1735846	0	0	0.04782945	-0.03294932	0	0
7.152661	0.04615141	0.1735846	0	0	0	0	0	0
7.169228	0.04615141	0.1735846	0	0	0	0	0	0
7.186077	0.04615141	0.1735846	0	0	0	0	0	0
7.20259	0.04615141	0.1735846	0	0	0	0	0	0
7.2191	0.04615141	0.1735846	0	0	0	0	0	0
7.235613	0.04615141	0.1735846	0	0	0	0	0	0
7.252061	0.04615141	0.1735846	0	0	0	0	0	0
7.26863	0.04612515	0.1735665	-0.001584894	-0.001091821	-0.04800282	-0.03306876	0	0
7.285195	0.04612515	0.1735665	0	0	0.04783357	0.03295217	0	0
7.302161	0.04615141	0.1735484	0.001547788	-0.001067137	0.04616032	-0.03182567	0	0
7.318328	0.04607264	0.1734941	-0.00487276	-0.003356806	-0.1937809	-0.0691053	0	0
7.334895	0.04575751	0.173277	-0.01902137	-0.01310606	-0.4322308	-0.2978333	0	0
7.351461	0.04510098	0.1728246	-0.03962984	-0.02730586	-0.6219827	-0.4285632	0	0
7.368029	0.04418176	0.1721912	-0.05548418	-0.03822962	-0.4784918	-0.3296845	0	0
7.384718	0.04418176	0.1721912	0	0	1.668369	1.149537	0	0
7.401161	0.04418176	0.1721912	0	0	0	0	0	0
7.417728	0.04418176	0.1721912	0	0	0	0	0	0
7.434295	0.04418176	0.1721912	0	0	0	0	0	0
7.517312	0.04418176	0.1721912	0	0	0	0	0	0
7.533695	0.04418176	0.1721912	0	0	0	0	0	0
7.550261	0.04418176	0.1721912	0	0	0	0	0	0
7.566829	0.04418176	0.1721912	0	0	0	0	0	0
7.583395	0.04418176	0.1721912	0	0	0	0	0	0
7.616529	0.04418176	0.1721912	0	0	0	0	0	0
7.636414	0.04418176	0.1721912	0	0	0	0	0	0
7.652982	0.04418176	0.1721912	0	0	0	0	0	0
7.669548	0.04418176	0.1721912	0	0	0	0	0	0
7.686115	0.04418176	0.1721912	0	0	0	0	0	0
7.702682	0.04418176	0.1721912	0	0	0	0	0	0
7.719248	0.04418176	0.1721912	0	0	0	0	0	0
7.735815	0.04418176	0.1721912	0	0	0	0	0	0
7.752478	0.04418176	0.1721912	0	0	0	0	0	0
7.768991	0.04418176	0.1721912	0	0	0	0	0	0
7.785515	0.04420802	0.1721731	0.001589373	-0.001094751	0.04810929	-0.03313741	0	0
7.802082	0.04420802	0.1721731	0	0	-0.04803026	0.03308297	0	0
7.818648	0.04420802	0.1721731	0	0	0	0	0	0
7.835215	0.04420802	0.1721731	0	0	0	0	0	0
7.851781	0.04420802	0.1721731	0	0	0	0	0	0
7.868561	0.04420802	0.1721731	0	0	0	0	0	0
7.885071	0.04420802	0.1721731	0	0	0	0	0	0
7.901482	0.04423428	0.172155	0.00160041	-0.001103262	0.04861461	-0.03351305	0	0
7.918048	0.04447066	0.1719922	0.01426816	-0.009831117	0.3841377	-0.2646641	0	0
7.934615	0.04659782	0.1704899	0.1284032	-0.09068185	3.444752	-2.440185	0	0
7.951181	0.05305542	0.1660353	0.3897928	-0.2688878	7.889093	-5.378498	0	0
7.967748	0.06150129	0.1601634	0.5098082	-0.3544401	3.622177	-2.582048	0	0
7.984315	0.07365599	0.1517442	0.73368	-0.5081977	6.756658	-4.640546	0	0
8.000881	0.08186923	0.1460761	0.4957809	-0.3421444	-7.180116	5.011714	0	0
8.017665	0.08920996	0.1409664	0.4373721	-0.3044482	-1.751389	1.130321	0	0
8.034014	0.09137641	0.1394926	0.132514	-0.09014795	-9.201167	6.467968	0	0
8.05058	0.09150689	0.1394016	0.007876364	-0.005492271	-3.786638	2.571939	0	0
8.0672	0.0914286	0.1394926	-0.004710722	0.005474623	-0.3792895	0.3304679	0	0
8.083714	0.09132421	0.1396018	-0.006321375	0.006612381	-0.04861102	0.03433861	0	0
8.10028	0.09106324	0.1398201	-0.01575318	0.01318109	-0.2851201	0.1985698	0	0
8.116846	0.09103714	0.1398383	-0.001575453	0.001098274	0.4279092	-0.3646812	0	0
8.133412	0.09098494	0.1398747	-0.003150905	0.002196549	-0.04754999	0.03314789	0	0
8.149979	0.09093274	0.1399111	-0.003150905	0.002196549	0	0	0	0
8.166545	0.09075005	0.1400748	-0.01102772	0.009885369	-0.2377364	0.2320624	0	0
8.183281	0.09033244	0.1404024	-0.0249529	0.01956931	-0.4181446	0.290789	0	0
8.199678	0.09007142	0.1405843	-0.01591852	0.0110958	0.2726658	-0.2557384	0	0
8.216246	0.08730383	0.1425125	-0.1670518	0.1163879	-4.584699	3.194086	0	0
8.232813	0.08367261	0.14504	-0.2191813	0.1525596	-1.573272	1.091664	0	0
8.249379	0.07632513	0.1501461	-0.4435203	0.3082211	-6.770759	4.698009	0	0
8.299362	0.07061921	0.1541042	-0.1141571	0.0791899	4.949162	-3.441527	0	0
8.315645	0.07061921	0.1541042	0	0	1.722708	-1.19503	0	0
8.332385	0.07059303	0.1541224	-0.001564013	0.001084216	-0.0473615	0.03283228	0	0
8.348897	0.07014787	0.1545035	-0.02695976	0.02308284	-0.7637413	0.6615776	0	0
8.365409	0.06957175	0.1550117	-0.03489138	0.03077531	-0.2401788	0.2329371	0	0
8.381912	0.06902176	0.1557194	-0.03332581	0.0428832	0.04741966	0.3667361	0	0
8.398932	0.06800026	0.1576969	-0.06001709	0.1161864	-0.7961947	2.186616	0	0
8.415046	0.06241881	0.1688424	-0.3463879	0.6916966	-8.642938	17.36943	0	0
8.431612	0.06000682	0.1825164	-0.1455965	0.8254122	6.144252	4.091717	0	0
8.448179	0.05948238	0.1981106	-0.0316552	0.9412624	3.438854	3.496467	0	0
8.464979	0.05977083	0.2087586	0.01716945	0.6338139	1.463255	-9.214104	0	0
8.497879	0.06747635	0.2529787	0.2342116	1.344083	4.367064	14.29119	0	0
8.514444	0.07755466	0.2683292	0.6083977	0.926666	7.564635	-8.438602	0	0
8.531012	0.08100656	0.2716228	0.208357	0.1988005	-12.07395	-21.96829	0	0
8.550919	0.104981	0.2885991	1.204325	0.8527789	27.30607	17.92987	0	0
8.567551	0.1163147	0.2964291	0.6814337	0.4707802	-14.31047	-10.45452	0	0
8.584063	0.1232666	0.3011831	0.4210217	0.2879101	-7.856987	-5.517442	0	0
8.60062	0.1359716	0.3099918	0.7673174	0.5320005	10.47172	7.381111	0	0
8.617187	0.1443572	0.3157617	0.5061876	0.3482942	-7.883409	-5.546024	0	0
8.633753	0.1543159	0.3227096	0.601142	0.4194005	2.865895	2.146116	0	0
8.650319	0.1608355	0.3272101	0.3935456	0.2716669	-6.265631	-4.458868	0	0
8.666885	0.1686715	0.3326747	0.4730082	0.3298601	2.398323	1.756377	0	0
8.683452	0.1734755	0.3360319	0.2899849	0.2026528	-5.523972	-3.839347	0	0
8.700144	0.1775321	0.3388712	0.2430271	0.1700976	-1.411907	-0.9788538	0	0
8.716585	0.1810991	0.3414069	0.2169537	0.1542271	-0.7869202	-0.4789872	0	0
8.733168	0.1865933	0.3456569	0.3313268	0.2562974	3.46335	3.090808	0	0
8.750179	0.18959	0.3485499	0.1761548	0.1700566	-4.619019	-2.567142	0	0
8.766285	0.19129	0.3504249	0.105552	0.1164233	-2.131902	-1.619495	0	0
8.783203	0.1909349	0.350675	-0.0209907	0.01477769	-3.83186	-3.077946	0	0
8.799418	0.1871269	0.3533537	-0.2348382	0.1652006	-6.454115	4.539904	0	0
8.815985	0.1824992	0.3566041	-0.2793467	0.1962034	-1.357729	0.9457384	0	0
8.832552	0.1771751	0.3603369	-0.3213585	0.2253123	-1.267957	0.8785318	0	0
8.849118	0.1766906	0.3606406	-0.02924684	0.01832976	8.816202	-6.246925	0	0
8.882252	0.1766906	0.3606406	0	0	0.5884702	-0.3688097	0	0
8.915385	0.1764611	0.3607656	-0.006927655	0.003773242	-0.1045415	0.05693997	0	0
8.931952	0.1724285	0.363552	-0.2434098	0.1681873	-4.758122	3.308081	0	0
8.948519	0.1701544	0.3651417	-0.1372708	0.09596454	3.203374	-2.179751	0	0
8.965085	0.1668296	0.367464	-0.2006991	0.1401798	-1.914379	1.334495	0	0
8.981848	0.1592454	0.3727522	-0.452445	0.3154708	-7.553356	5.259415	0	0
8.998219	0.1479118	0.3806684	-0.6923042	0.4835576	-7.239174	5.073015	0	0
9.014785	0.1368756	0.388319	-0.6661848	0.4618185	0.7930082	-0.6600186	0	0
9.031351	0.1199218	0.4000331	-1.023393	0.707107	-10.78117	7.403246	0	0
9.047917	0.1157435	0.4029137	-0.2522159	0.1738836	23.2755	-16.09364	0	0
9.064484	0.09966865	0.4139762	-0.9703367	0.6677688	-21.67418	14.90635	0	0
9.081411	0.08855724	0.4216072	-0.6564032	0.4507993	9.372828	-6.477864	0	0
9.097923	0.07556636	0.4304805	-0.7867581	0.5373884	-3.898216	2.589417	0	0
9.114183	0.06572101	0.4372256	-0.6054899	0.414824	5.531183	-3.739905	0	0
9.130751	0.06100316	0.4404922	-0.2847695	0.1971725	9.769904	-6.630182	0	0
9.147317	0.05714823	0.4431314	-0.2326977	0.1593136	1.571576	-1.142616	0	0
9.163969	0.05533818	0.4443346	-0.1086978	0.07225209	3.732868	-2.620885	0	0
9.18045	0.05544312	0.4442627	0.006367038	-0.004357858	3.472764	-2.312159	0	0
9.197017	0.05544312	0.4442627	0	0	-0.1926622	0.1318658	0	0
9.214005	0.05546936	0.4442807	0.001544388	0.001056051	0.04602551	0.03147222	0	0
9.23015	0.05539065	0.4443346	-0.00487514	0.003337468	-0.1937473	0.06885527	0	0
9.246717	0.05531194	0.4444603	-0.004750595	0.007587641	0.003807315	0.1299271	0	0
9.263284	0.05494464	0.4447117	-0.0221717	0.01517795	-0.525785	0.2290827	0	0
9.27985	0.05358025	0.4456457	-0.08235979	0.05637629	-1.816585	1.24344	0	0
9.296564	0.0500109	0.4480888	-0.2135532	0.1461703	-3.942067	2.698108	0	0
9.362683	0.04252698	0.4532467	-0.1131883	0.07801029	1.211649	-0.8228581	0	0
9.379622	0.04231683	0.4533905	-0.01240601	0.008488979	1.213392	-0.8370176	0	0
9.395817	0.04234309	0.4533726	0.001621987	-0.001109696	0.4233779	-0.2896969	0	0
9.412383	0.04236937	0.4533546	0.001585797	-0.001084782	-0.001104702	0.0007604875	0	0
9.428949	0.0424219	0.4533186	0.003171369	-0.002171363	0.04785541	-0.03279497	0	0
9.445667	0.0424219	0.4533186	0	0	-0.09528153	0.06523708	0	0
9.462083	0.04244817	0.4533007	0.001600126	-0.001094739	0.04829329	-0.03304025	0	0
9.485988	0.04260578	0.4531928	0.006593219	-0.004511839	0.1238354	-0.08474866	0	0
9.502555	0.04268458	0.4531029	0.004756667	-0.005425397	-0.04537831	-0.02257259	0	0
9.519219	0.04271085	0.4530849	0.001576226	-0.001078388	-0.09570494	0.130809	0	0
9.535688	0.04271085	0.4530849	0	0	-0.04757196	0.03254675	0	0
9.552255	0.04271085	0.4530849	0	0	0	0	0	0
9.568822	0.04271085	0.4530849	0	0	0	0	0	0
9.585388	0.04271085	0.4530849	0	0	0	0	0	0
9.601955	0.04271085	0.4530849	0	0	0	0	0	0
9.618522	0.04271085	0.4530849	0	0	0	0	0	0
9.635088	0.04271085	0.4530849	0	0	0	0	0	0
9.651654	0.04273712	0.4530669	0.001585572	-0.001086581	0.04785541	-0.03279497	0	0
9.684834	0.04271085	0.453049	-0.0007916466	-0.0005416116	-0.04778664	0.01095493	0	0
9.701354	0.04273712	0.453031	0.001590057	-0.001087851	0.04792181	-0.01099077	0	0
9.71792	0.04278966	0.4529591	0.003171369	-0.004340928	0.04779423	-0.09832238	0	0
9.734488	0.04284219	0.4528872	0.003170961	-0.004340678	-1.22903E-05	7.547046E-06	0	0
9.751054	0.04294726	0.4527434	0.006342288	-0.008680056	0.09571357	-0.1309665	0	0
9.767621	0.04307859	0.4526175	0.007927403	-0.007596635	0.04784025	0.03269864	0	0
9.784187	0.04310486	0.4525636	0.001585572	-0.003254346	-0.1914023	0.1310543	0	0
9.800754	0.04344633	0.452294	0.02061221	-0.01627713	0.5742581	-0.393051	0	0
9.843539	0.04520602	0.450874	0.04112812	-0.0331871	0.3456654	-0.2849103	0	0
9.860106	0.04491714	0.4506045	-0.01743714	-0.0162708	-0.9867299	0.2850124	0	0
9.876972	0.04363019	0.4494723	-0.0763054	-0.06712786	-1.760785	-1.521165	0	0
9.893239	0.04273712	0.4487536	-0.05490139	-0.04418457	0.6460112	0.6924697	0	0
9.909993	0.04297353	0.4483762	0.01411035	-0.02252142	2.089937	0.6560423	0	0
9.926505	0.04278966	0.4477834	-0.01113554	-0.03590664	-0.7589083	-0.4023685	0	0
9.943017	0.04129231	0.4451787	-0.09068303	-0.1577445	-2.40879	-3.68939	0	0
9.959538	0.03742988	0.4338525	-0.2337824	-0.6855464	-4.331965	-15.97784	0	0
9.976073	0.03440747	0.4222523	-0.182791	-0.7015623	1.542565	-0.4845057	0	0
9.99264	0.03206795	0.4021443	-0.1412216	-1.213788	1.255833	-15.4746	0	0
10.00921	0.03127927	0.3900175	-0.04760763	-0.7320175	2.825437	14.54071	0	0
10.02577	0.02796639	0.3583544	-0.1999772	-1.9113	-4.598789	-35.59286	0	0
10.04259	0.02602044	0.3465677	-0.1157323	-0.7009972	2.523776	36.25776	0	0
10.05891	0.02123365	0.3261029	-0.2933213	-1.254025	-5.359801	-16.69089	0	0
10.07547	0.01413064	0.3103133	-0.4287633	-0.9531133	-4.118587	9.15027	0	0
10.10861	0.00173684	0.3012546	-0.3740563	-0.2734022	1.10075	13.67634	0	0
10.12517	-0.009604968	0.2935513	-0.6846323	-0.4649991	-6.249041	-3.855086	0	0
10.14174	-0.02062865	0.2860242	-0.6654292	-0.4543636	0.5795849	0.3210002	0	0
10.1583	-0.03077975	0.2791202	-0.6127567	-0.4167488	1.589749	1.135281	0	0
10.17487	-0.03774522	0.2743788	-0.420461	-0.2862062	5.803831	3.940011	0	0
10.19144	-0.04586256	0.2688484	-0.4899914	-0.3338358	-2.098552	-1.437549	0	0
10.20821	-0.0498009	0.2662346	-0.2348393	-0.155859	7.653805	5.338775	0	0
10.22471	-0.05609897	0.2619727	-0.3815804	-0.2582156	-4.409871	-3.076024	0	0
10.24114	-0.06137021	0.2583723	-0.3209435	-0.2192127	1.84142	1.184439	0	0
10.25774	-0.06252366	0.257584	-0.06948287	-0.04748449	7.6143	5.19998	0	0
10.27427	-0.06477766	0.2560431	-0.1363422	-0.09320558	-2.017935	-1.379945	0	0
10.29084	-0.06480387	0.256061	-0.001581658	0.001081122	4.071417	2.848612	0	0
10.3074	-0.06480387	0.256061	0	0	0.04773591	-0.03262927	0	0
10.32397	-0.06475146	0.256061	0.003163316	0	0.09547181	0	0	0
10.34054	-0.06477766	0.256079	-0.00158184	0.001081246	-0.1432173	0.03263396	0	0
10.35731	-0.06475146	0.256061	0.001562411	-0.001067966	0.09431818	-0.06446998	0	0
10.37382	-0.06477766	0.256079	-0.001587048	0.001084806	-0.09462871	0.06468223	0	0
10.4119	-0.06477766	0.256079	0	0	0.02907202	-0.0198718	0	0
10.42846	-0.06477766	0.256079	0	0	0	0	0	0
10.44503	-0.06477766	0.256079	0	0	0	0	0	0
10.4616	-0.06477766	0.256079	0	0	0	0	0	0
10.47839	-0.06477766	0.256079	0	0	0	0	0	0
10.49473	-0.06477766	0.256079	0	0	0	0	0	0
10.51142	-0.06477766	0.256079	0	0	0	0	0	0
10.52793	-0.06477766	0.256079	0	0	0	0	0	0
10.54444	-0.06477766	0.256079	0	0	0	0	0	0
10.561	-0.06477766	0.256079	0	0	0	0	0	0
10.57757	-0.06477766	0.256079	0	0	0	0	0	0
10.59413	-0.06477766	0.256079	0	0	0	0	0	0
10.61099	-0.06477766	0.256079	0	0	0	0	0	0
10.6275	-0.06477766	0.256079	0	0	0	0	0	0
10.64401	-0.06477766	0.256079	0	0	0	0	0	0
10.66052	-0.06477766	0.256079	0	0	0	0	0	0
10.67703	-0.06472525	0.256079	0.003174547	0	0.0961262	0	0	0
10.69355	-0.06467284	0.2561148	0.003173729	0.002171167	-2.476799E-05	0.06574544	0	0
10.7101	-0.06446319	0.2561865	0.01266628	0.004328474	0.2870889	0.06524476	0	0
10.72707	-0.06388663	0.2561865	0.03397417	0	0.6356274	-0.1291211	0	0
10.74358	-0.06299549	0.2556489	0.0539696	-0.03255494	0.5971897	-0.9722956	0	0
10.82607	-0.01060487	0.2271217	0.6351665	-0.345855	5.870959	-3.1648	0	0
10.84265	0.004947328	0.2228625	0.9377067	-0.2568004	3.053845	0.8989183	0	0
10.8592	0.01415695	0.2187273	0.5564704	-0.2498622	-11.5054	0.2093876	0	0
10.87577	0.02339047	0.2123768	0.5574006	-0.383363	0.02809116	-4.031382	0	0
10.89269	0.02943886	0.2082004	0.357468	-0.2468278	-5.970738	4.077454	0	0
10.9089	0.03346119	0.205481	0.2480865	-0.1677245	-3.301235	2.387411	0	0
10.92547	0.04005751	0.2009587	0.3981773	-0.2729864	4.578774	-3.211193	0	0
10.94222	0.04265832	0.1991742	0.1552162	-0.1064954	-7.29124	4.996378	0	0
10.9586	0.04229056	0.1994266	-0.02245377	0.01540847	-5.36209	3.679067	0	0
10.97524	0.04229056	0.1994266	0	0	0.6799459	-0.4665997	0	0
10.99173	0.04226429	0.1994446	-0.001593318	0.001093542	-0.0480892	0.03300507	0	0
11.0083	0.04223802	0.1994626	-0.001585481	0.001088317	0.000237097	-0.0001580599	0	0
11.02487	0.04218549	0.1995347	-0.003171369	0.004351721	-0.04786357	0.09849256	0	0
11.058	0.04202787	0.1998231	-0.004757029	0.008704541	-0.03190477	0.08758228	0	0
11.09113	0.04415549	0.2022562	0.06421359	0.07343161	1.040799	0.9767615	0	0
11.10784	0.04791068	0.2048326	0.2247744	0.1542146	3.221527	1.620847	0	0
11.12427	0.05455109	0.2093887	0.4042367	0.2773567	5.416338	3.716543	0	0
11.14083	0.06323139	0.2154177	0.5239741	0.36393	3.629141	2.623966	0	0
11.1574	0.07038355	0.2203277	0.4317302	0.2963848	-2.784084	-2.038637	0	0
11.17397	0.07145707	0.2210648	0.06480179	0.04449765	-11.07456	-7.602407	0	0
11.19053	0.07687452	0.2247497	0.3270168	0.2224334	7.914122	5.370421	0	0
11.2071	0.07724076	0.2250013	0.02210716	0.01518695	-9.202722	-6.25507	0	0
11.22366	0.07724076	0.2249654	0	-0.002169564	-0.6672338	-0.5238507	0	0
11.24043	0.07724076	0.2249294	0	-0.002143649	0	0.0007774543	0	0
11.25694	0.0772146	0.2249115	-0.001584158	-0.00108829	-0.04760172	0.03171206	0	0
11.27336	0.07716228	0.2248755	-0.003186164	-0.002188843	-0.04864407	-0.03341769	0	0
11.28994	0.07713612	0.2248216	-0.001578414	-0.003253035	0.04872956	-0.03225479	0	0
11.3065	0.07710996	0.2247677	-0.001579414	-0.003255096	-3.017239E-05	-6.217874E-05	0	0
11.32307	0.0770838	0.2247497	-0.001579051	-0.001084782	1.097782E-05	0.06551151	0	0
11.34	0.07705764	0.2246958	-0.001544551	-0.003184125	0.001029748	-0.06266213	0	0
11.3562	0.07703149	0.2246778	-0.001615126	-0.001109565	-0.002130075	0.06261394	0	0
11.39229	0.07679604	0.2246239	-0.006524215	-0.001493915	-0.09389232	-0.007351161	0	0
11.40905	0.07671756	0.22457	-0.004682078	-0.003216206	0.03485548	-0.03258783	0	0
11.42556	0.07650826	0.2244262	-0.01267535	-0.008707729	-0.2402209	-0.1650362	0	0
11.44207	0.07580185	0.223941	-0.04278194	-0.02938825	-0.9116626	-0.6262301	0	0
11.45858	0.07535703	0.2236714	-0.02694211	-0.01632899	0.4796761	0.3954722	0	0
11.47512	0.07535703	0.2236714	0	0	0.8152969	0.4941326	0	0
11.49169	0.07533087	0.2236893	-0.001579409	0.00108472	-0.04771199	0.03276803	0	0
11.50825	0.0753047	0.2237073	-0.0015795	0.001084782	-2.744061E-06	1.883248E-06	0	0
11.52482	0.0753047	0.2237073	0	0	0.04767216	-0.03274067	0	0
11.54138	0.07527854	0.2237253	-0.0015795	0.001084782	-0.04767216	0.03274067	0	0
11.55815	0.07527854	0.2237253	0	0	0.04738302	-0.0325421	0	0
11.57466	0.07525236	0.2237433	-0.001585335	0.001089382	-0.04763845	0.03273533	0	0
11.59118	0.07509536	0.2238152	-0.009507103	0.00435291	-0.2398803	0.09882344	0	0
11.60765	0.07499069	0.2237792	-0.006353564	-0.002181621	0.09559497	-0.1980848	0	0
11.62422	0.07404857	0.2231681	-0.05686966	-0.03688889	-1.528891	-1.05043	0	0
11.64078	0.07198069	0.2218199	-0.1248246	-0.08138204	-2.051002	-1.342883	0	0
11.65772	0.0715618	0.2215323	-0.02473071	-0.01698155	2.987477	1.922145	0	0
11.67392	0.07150944	0.2215323	-0.003233203	0	0.6488148	0.5125191	0	0
11.69049	0.07143089	0.2214783	-0.004740926	-0.003255958	-0.04601976	-0.09938055	0	0
11.70705	0.07116907	0.2212985	-0.01580445	-0.01085232	-0.3339073	-0.2292652	0	0
11.72377	0.0692051	0.2199501	-0.1174705	-0.08065534	-3.054397	-2.097122	0	0
11.74029	0.06053123	0.2140683	-0.5250975	-0.3560707	-12.26409	-8.286294	0	0
11.75675	0.05308167	0.2090286	-0.4525215	-0.3061321	2.200547	1.514164	0	0
11.77332	0.04370899	0.2028148	-0.5657687	-0.3750918	-3.428763	-2.087876	0	0
11.78988	0.0374036	0.1988497	-0.3806159	-0.2393447	5.588243	4.097091	0	0
11.80645	0.02933369	0.1944316	-0.4871008	-0.2666764	-3.21381	-0.8248977	0	0
11.82334	0.02291704	0.1929523	-0.3798963	-0.08758064	3.204173	5.352893	0	0
11.86306	0.01999733	0.1911299	-0.07351503	-0.04588786	5.412495	0.7365396	0	0
11.87962	0.01844528	0.1900651	-0.09368782	-0.06427649	-0.3584233	-0.3267228	0	0
11.89639	0.01847158	0.1900831	0.001568987	0.001076207	2.857666	1.960555	0	0
11.91276	0.01847158	0.1900831	0	0	-0.0473535	-0.03248093	0	0
11.92932	0.01849789	0.1900651	0.001587933	-0.00108928	0.04821813	-0.03307635	0	0
11.94589	0.01849789	0.1900651	0	0	-0.04792667	0.03287641	0	0
11.99559	0.01849789	0.1900651	0	0	0	0	0	0
12.01216	0.01847158	0.1900831	-0.001587933	0.00108928	-0.02396299	0.01643797	0	0
12.02898	0.01847158	0.1900831	0	0	0.04755165	-0.03261916	0	0
12.04529	0.01847158	0.1900831	0	0	0	0	0	0
12.06201	0.01847158	0.1900831	0	0	0	0	0	0
12.07842	0.01847158	0.1900831	0	0	0	0	0	0
12.09499	0.01847158	0.1900831	0	0	0	0	0	0
12.11156	0.01847158	0.1900831	0	0	0	0	0	0
12.12855	0.01847158	0.1900831	0	0	0	0	0	0
12.14469	0.01847158	0.1900831	0	0	0	0	0	0
12.16125	0.01847158	0.1900831	0	0	0	0	0	0
12.17809	0.01849789	0.1900651	0.001562832	-0.001072061	0.04679196	-0.03209803	0	0
12.19439	0.01849789	0.1900651	0	0	-0.04716772	0.03235579	0	0
12.21095	0.01849789	0.1900651	0	0	0	0	0	0
12.22762	0.01849789	0.1900651	0	0	0	0	0	0
12.24855	0.01849789	0.1900651	0	0	0	0	0	0
12.26511	0.01849789	0.1900651	0	0	0	0	0	0
12.28168	0.0185242	0.190047	0.001587933	-0.00108928	0.04792667	-0.03287641	0	0
12.29825	0.0185242	0.190047	0	0	-0.04792667	0.03287641	0	0
12.31481	0.0185242	0.190047	0	0	0	0	0	0
12.33138	0.0185242	0.190047	0	0	0	0	0	0
12.34795	0.0185242	0.190047	0	0	0	0	0	0
12.36472	0.0185505	0.190029	0.001568631	-0.001076851	0.0470529	-0.0323014	0	0
12.38108	0.0185505	0.190029	0	0	-0.04734273	0.03250036	0	0
12.39765	0.01857681	0.1900109	0.001587933	-0.00108928	0.04822372	-0.03308018	0	0
12.41421	0.01857681	0.1900109	0	0	-0.04792667	0.03287641	0	0
12.43078	0.01857681	0.1900109	0	0	0	0	0	0
12.44734	0.01860312	0.1899929	0.001588024	-0.001089342	0.04792943	-0.03287831	0	0
12.46391	0.01860312	0.1899929	0	0	-0.04793081	0.03287926	0	0
12.4808	0.01860312	0.1899929	0	0	0	0	0	0
12.49704	0.01862942	0.1899748	0.001619368	-0.001110765	0.04887404	-0.03352391	0	0
12.51361	0.01862942	0.1899748	0	0	-0.04935275	0.03385227	0	0
12.53018	0.01862942	0.1899748	0	0	0	0	0	0
12.54684	0.01862942	0.1899748	0	0	0	0	0	0
12.56331	0.01862942	0.1899748	0	0	0	0	0	0
12.57988	0.01862942	0.1899748	0	0	0	0	0	0
12.59644	0.01862942	0.1899748	0	0	0	0	0	0
12.61301	0.01862942	0.1899748	0	0	0	0	0	0
12.62958	0.01865573	0.1899568	0.001587933	-0.001090179	0.04792529	-0.03290262	0	0
12.64614	0.01865573	0.1899568	0	0	-0.04792667	0.03290356	0	0
12.66271	0.01868204	0.1899387	0.001587933	-0.00108928	0.04792667	-0.03287641	0	0
12.67928	0.01868204	0.1899387	0	0	-0.04792529	0.03287547	0	0
12.69584	0.01868204	0.1899387	0	0	0	0	0	0
12.71241	0.01868204	0.1899387	0	0	0	0	0	0
12.72897	0.01868204	0.1899387	0	0	0	0	0	0
12.74554	0.01868204	0.1899387	0	0	0	0	0	0
12.76211	0.01868204	0.1899387	0	0	0	0	0	0
12.779	0.01868204	0.1899387	0	0	0	0	0	0
12.79552	0.01868204	0.1899387	0	0	0	0	0	0
12.81181	0.01868204	0.1899387	0	0	0	0	0	0
12.82854	0.01868204	0.1899387	0	0	0	0	0	0
12.84505	0.01868204	0.1899387	0	0	0	0	0	0
12.86157	0.01868204	0.1899387	0	0	0	0	0	0
12.87807	0.01870834	0.1899207	0.001593713	-0.001093244	0.04826505	-0.03310853	0	0
12.89464	0.01870834	0.1899207	0	0	-0.0481885	0.03305602	0	0
12.91121	0.01870834	0.1899207	0	0	0	0	0	0
12.92811	0.01873465	0.1899026	0.001556417	-0.001068466	0.04650297	-0.03192387	0	0
12.94462	0.01873465	0.1899026	0	0	-0.04657862	0.03197581	0	0
12.96091	0.01873465	0.1899026	0	0	0	0	0	0
12.97747	0.01873465	0.1899026	0	0	0	0	0	0
12.99404	0.01873465	0.1899026	0	0	0	0	0	0
13.01067	0.01873465	0.1899026	0	0	0	0	0	0
13.02718	0.01873465	0.1899026	0	0	0	0	0	0
13.04419	0.01873465	0.1899026	0	0	0	0	0	0
13.06031	0.01873465	0.1899026	0	0	0	0	0	0
13.07687	0.01876096	0.1898846	0.001587933	-0.00108928	0.04858818	-0.03333019	0	0
13.09707	0.01876096	0.1898846	0	0	-0.0431902	0.02962732	0	0
13.11364	0.01876096	0.1898846	0	0	0	0	0	0
13.13025	0.01876096	0.1898846	0	0	0	0	0	0
13.14677	0.01878726	0.1898665	0.001592149	-0.001092172	0.04805254	-0.03296276	0	0
13.16334	0.01878726	0.1898665	0	0	-0.04811763	0.03300741	0	0
13.17991	0.01878726	0.1898665	0	0	0	0	0	0
13.19647	0.01878726	0.1898665	0	0	0	0	0	0
13.21304	0.01878726	0.1898304	0	-0.002179459	0	-0.06577998	0	0
13.22961	0.01878726	0.1898304	0	0	0	0.06577998	0	0
13.24617	0.01878726	0.1898304	0	0	0	0	0	0
13.26274	0.01878726	0.1898304	0	0	0	0	0	0
13.27931	0.01878726	0.1898304	0	0	0	0	0	0
13.29587	0.01878726	0.1898304	0	0	0	0	0	0
13.31244	0.01878726	0.1898304	0	0	0	0	0	0
13.32901	0.01878726	0.1898304	0	0	0	0	0	0
13.34557	0.01878726	0.1898304	0	0	0	0	0	0
13.36214	0.01878726	0.1898304	0	0	0	0	0	0
13.37871	0.01878726	0.1898304	0	0	0	0	0	0
13.39544	0.01878726	0.1898304	0	0	0	0	0	0
13.41184	0.01878726	0.1898304	0	0	0	0	0	0
13.42846	0.01881357	0.1898124	0.001582649	-0.001085655	0.04792582	-0.03287583	0	0
13.44497	0.01881357	0.1898124	0	0	-0.04776581	0.03276606	0	0
13.46198	0.01881357	0.1898124	0	0	0	0	0	0
13.4781	0.01881357	0.1898124	0	0	0	0	0	0
13.49467	0.01881357	0.1898124	0	0	0	0	0	0
13.51124	0.01881357	0.1898124	0	0	0	0	0	0
13.5278	0.01883988	0.1897943	0.001587933	-0.00108928	0.04792529	-0.03287547	0	0
13.54454	0.01883988	0.1897943	0	0	-0.04768101	0.0327079	0	0
13.56105	0.01883988	0.1897943	0	0	0	0	0	0
13.5775	0.01883988	0.1897943	0	0	0	0	0	0
13.59408	0.01883988	0.1897943	0	0	0	0	0	0
13.61064	0.01883988	0.1897943	0	0	0	0	0	0
13.6272	0.01883988	0.1897943	0	0	0	0	0	0
13.64377	0.01883988	0.1897943	0	0	0	0	0	0
13.66034	0.01883988	0.1897943	0	0	0	0	0	0
13.6769	0.01883988	0.1897943	0	0	0	0	0	0
13.69347	0.01883988	0.1897943	0	0	0	0	0	0
13.71004	0.01883988	0.1897943	0	0	0	0	0	0
13.7266	0.01883988	0.1897943	0	0	0	0	0	0
13.74318	0.01883988	0.1897943	0	0	0	0	0	0
13.75974	0.01883988	0.1897943	0	0	0	0	0	0
13.7763	0.01883988	0.1897943	0	0	0	0	0	0
13.80944	0.01883988	0.1897943	0	0	0	0	0	0
13.826	0.01883988	0.1897943	0	0	0	0	0	0
13.84257	0.01883988	0.1897943	0	0	0	0	0	0
13.85926	0.01883988	0.1897943	0	0	0	0	0	0
13.87577	0.01883988	0.1897943	0	0	0	0	0	0
13.89229	0.01883988	0.1897943	0	0	0	0	0	0
13.94632	0.01883988	0.1897943	0	0	0	0	0	0
13.98336	0.01883988	0.1897943	0	0	0	0	0	0
13.99951	0.01883988	0.1897943	0	0	0	0	0	0
14.01637	0.01883988	0.1897943	0	0	0	0	0	0
14.03264	0.01883988	0.1897943	0	0	0	0	0	0
14.0494	0.01883988	0.1897943	0	0	0	0	0	0
14.06577	0.01883988	0.1897943	0	0	0	0	0	0
14.08242	0.01883988	0.1897943	0	0	0	0	0	0
14.09891	0.01883988	0.1897943	0	0	0	0	0	0
14.11547	0.01883988	0.1897943	0	0	0	0	0	0
14.13204	0.01883988	0.1897943	0	0	0	0	0	0
14.14861	0.01883988	0.1897943	0	0	0	0	0	0
14.16517	0.01883988	0.1897943	0	0	0	0	0	0
14.18199	0.01883988	0.1897943	0	0	0	0	0	0
14.19831	0.01883988	0.1897943	0	0	0	0	0	0
14.21487	0.01883988	0.1897943	0	0	0	0	0	0
14.23144	0.01883988	0.1897943	0	0	0	0	0	0
14.24804	0.01883988	0.1897943	0	0	0	0	0	0
14.26457	0.01883988	0.1897943	0	0	0	0	0	0
14.28114	0.01886618	0.1897763	0.001588046	-0.001090179	0.04797702	-0.0329358	0	0
14.29771	0.01886618	0.1897763	0	0	-0.04792731	0.03290167	0	0
14.31427	0.0189451	0.1897221	0.004764073	-0.003268926	0.1437842	-0.09865923	0	0
14.33084	0.01902402	0.189668	0.004763525	-0.00326855	-1.654214E-05	1.136306E-05	0	0
14.34741	0.01931339	0.1894694	0.01746726	-0.01198477	0.3834106	-0.2630637	0	0
14.36397	0.01997103	0.188982	0.03969754	-0.02942044	0.6709497	-0.5262399	0	0
14.38054	0.02197015	0.1876099	0.1206741	-0.08282392	2.44402	-1.611813	0	0
14.39714	0.02544188	0.1851901	0.2090966	-0.1457433	2.665755	-1.89689	0	0
14.41367	0.03398691	0.1793175	0.5169396	-0.355267	9.290989	-6.323622	0	0
14.43024	0.04215921	0.1736931	0.4933098	-0.3395098	-0.7139694	0.4761024	0	0
14.4468	0.05447238	0.165202	0.7432666	-0.5125551	7.544146	-5.222816	0	0
14.46337	0.06058366	0.1609793	0.3688992	-0.2548977	-11.29908	7.776562	0	0
14.47994	0.06621883	0.1571164	0.340159	-0.2331742	-0.8674308	0.655655	0	0
14.56277	0.08145098	0.1467304	0.1838849	-0.1253815	-1.572151	1.084417	0	0
14.57934	0.0810327	0.1471303	-0.02525007	0.02413554	-2.103963	1.504188	0	0
14.5959	0.08074512	0.1475845	-0.01735866	0.0274211	0.2381769	0.09916407	0	0
14.61247	0.08058824	0.147948	-0.009469356	0.02193671	0.2381066	-0.1655242	0	0
14.62904	0.07964694	0.1490744	-0.05682018	0.06799497	-1.429133	1.390121	0	0
14.6456	0.07760698	0.1508907	-0.1231399	0.1096412	-2.001647	1.25696	0	0
14.66217	0.07650826	0.1534689	-0.06632237	0.1556302	1.714854	1.388031	0	0
14.67874	0.07446731	0.1605079	-0.1231992	0.4248964	-1.716646	8.126936	0	0
14.6953	0.07504302	0.1677197	0.03475016	0.4353081	4.767059	0.3142342	0	0
14.71187	0.07684836	0.1760628	0.1089765	0.5036187	2.240221	2.061677	0	0
14.72844	0.07901933	0.1808901	0.1310477	0.2913899	0.6661479	-6.405445	0	0
14.745	0.08202606	0.1833295	0.1814973	0.1472524	1.522659	-4.350328	0	0
14.7619	0.09012362	0.1888196	0.479306	0.3249647	8.900276	5.311089	0	0
14.77841	0.09656712	0.193241	0.3902108	0.2677583	-2.666945	-1.712398	0	0
14.7947	0.1030547	0.1977319	0.3981673	0.2756246	0.2425272	0.2397811	0	0
14.8444	0.1265827	0.2141223	0.4734033	0.3297875	1.140055	0.8207331	0	0
14.86718	0.1452591	0.2271217	0.8201191	0.5708291	4.784098	3.32597	0	0
14.88374	0.1516683	0.2316303	0.3868618	0.2721396	-11.01315	-7.59251	0	0
14.90031	0.1643463	0.2406772	0.7652868	0.5461041	11.42122	8.268504	0	0
14.91687	0.1740371	0.2475827	0.5849719	0.416846	-5.442228	-3.901243	0	0
14.93352	0.1860343	0.2559894	0.7209134	0.5051567	4.093648	2.659329	0	0
14.95001	0.1942306	0.2618115	0.496993	0.3530294	-6.758124	-4.591343	0	0
14.96657	0.2016177	0.2670403	0.4459093	0.3156266	-1.545267	-1.131423	0	0
14.98314	0.2100148	0.2729651	0.5068793	0.3576435	1.840183	1.268144	0	0
14.99971	0.2156716	0.2769554	0.3414662	0.240872	-4.992464	-3.524374	0	0
15.01627	0.2202371	0.2800683	0.2755922	0.187903	-1.988195	-1.5987	0	0
15.03284	0.2226916	0.2817855	0.1481627	0.103657	-3.846051	-2.542696	0	0
15.0496	0.2227167	0.2817676	0.001493939	-0.001067099	-4.401389	-3.142669	0	0
15.06597	0.2227918	0.281714	0.004585044	-0.003275681	0.09329243	-0.06665706	0	0
15.08262	0.2227918	0.281714	0	0	-0.1388405	0.09919143	0	0
15.09911	0.2227918	0.281714	0	0	0	0	0	0
15.11567	0.2228168	0.2818034	0.001511139	0.005396926	0.04571944	0.1632837	0	0
15.13224	0.2228418	0.281857	0.001511139	0.003239955	0	-0.06510127	0	0
15.14917	0.2228168	0.2818749	-0.001478957	0.001056398	-0.08927514	-0.06519435	0	0
15.16537	0.2227167	0.282018	-0.006177732	0.008830323	-0.1418134	0.2346243	0	0
15.18194	0.2249184	0.2846293	0.1329029	0.1576226	4.243754	4.540085	0	0
15.19851	0.2274926	0.2869004	0.1553865	0.1370927	0.6785951	-0.6196296	0	0
15.21507	0.2287161	0.2923893	0.07385693	0.3313317	-2.460709	5.862481	0	0
15.24821	0.2200116	0.3009329	-0.2627103	0.2578532	-6.772006	-1.478446	0	0
15.26477	0.2133854	0.3060077	-0.3999797	0.3063313	-2.761971	0.9754187	0	0
15.28134	0.2088818	0.3094915	-0.2718557	0.2103002	3.867011	-2.898391	0	0
15.2979	0.205883	0.3118318	-0.1810192	0.1412681	2.741611	-2.083512	0	0
15.31447	0.204647	0.3129573	-0.07460351	0.06793471	3.211817	-2.213335	0	0
15.33104	0.2013651	0.3154938	-0.1981131	0.1531144	-3.72774	2.570876	0	0
15.3476	0.1998488	0.3166012	-0.09152646	0.06684992	3.216975	-2.603617	0	0
15.36417	0.1998235	0.3166906	-0.001525355	0.005390908	2.716239	-1.854837	0	0
15.38074	0.1998488	0.3167799	0.001525619	0.00539004	0.09208123	-2.619682E-05	0	0
15.3973	0.198281	0.3222096	-0.09463599	0.3277571	-2.902414	9.729897	0	0
15.41387	0.1979775	0.3305675	-0.01832346	0.5045136	2.303249	5.334829	0	0
15.43044	0.1982051	0.3389783	0.01374237	0.5077086	0.9678046	0.09643047	0	0
15.447	0.197598	0.3497285	-0.03665052	0.6489192	-1.520948	4.261988	0	0
15.46357	0.197269	0.3524608	-0.01985619	0.1649318	0.5068831	-14.60761	0	0
15.4804	0.1961301	0.3625517	-0.0676741	0.5995634	-1.431814	13.0142	0	0
15.49691	0.194332	0.3708583	-0.108903	0.5030974	-1.236567	-2.893279	0	0
15.51327	0.1912646	0.3741994	-0.1874963	0.2042308	-2.391015	-9.0923	0	0
15.52984	0.191011	0.3778447	-0.0153111	0.2200308	5.229373	0.4798562	0	0
15.54644	0.1912646	0.3781664	0.01527329	0.01936728	0.9218977	-6.048551	0	0
15.56297	0.1912393	0.3781485	-0.001534727	-0.001082064	-0.5072816	-0.6171803	0	0
15.57954	0.19129	0.378077	0.003061856	-0.004313943	0.1389051	-0.0976648	0	0
15.5961	0.19129	0.378077	0	0	-0.09241232	0.1302025	0	0
15.61299	0.19129	0.3780413	0	-0.002117567	0	-0.06329618	0	0
15.62924	0.19129	0.3780055	0	-0.002199645	0	-0.002477181	0	0
15.6458	0.19129	0.3780055	0	0	0	0.06703953	0	0
15.66237	0.19129	0.3780055	0	0	0	0	0	0
15.67893	0.1912646	0.3779877	-0.001530928	-0.001077586	-0.04620616	-0.03252349	0	0
15.69555	0.19129	0.3779698	0.001526622	-0.001076349	0.09215237	3.728669E-05	0	0
15.71207	0.1913154	0.3779162	0.001536072	-0.003245324	0.0002852172	-0.06546168	0	0
15.72863	0.1913407	0.3777911	0.00153084	-0.007549865	-0.0001581302	-0.1300948	0	0
15.7452	0.1913661	0.3777732	0.001531016	-0.001079447	5.319626E-06	0.1952888	0	0
15.76177	0.1913407	0.3777553	-0.00153084	-0.001079323	-0.09241232	3.75255E-06	0	0
15.78153	0.1913407	0.3777196	0	-0.001808425	0.04214124	-0.02007084	0	0
15.79809	0.19129	0.3776839	-0.003062579	-0.002156847	-0.08430724	-0.00959144	0	0
15.81466	0.1912646	0.3776303	-0.001530928	-0.003236357	0.04622665	-0.0325806	0	0
15.83123	0.1912646	0.3775945	0	-0.002156971	0.04620616	0.03257778	0	0
15.84779	0.1912646	0.3775588	0	-0.002156847	0	3.752442E-06	0	0
15.86436	0.1912393	0.3774694	-0.001530928	-0.005395127	-0.04620483	-0.09773429	0	0
15.88118	0.1912393	0.3774694	0	0	0.04585638	0.161602	0	0
15.89769	0.1912393	0.3774694	0	0	0	0	0	0
15.91406	0.1912393	0.3774694	0	0	0	0	0	0
15.93063	0.1912139	0.3774516	-0.001530928	-0.001077586	-0.04648177	-0.03271748	0	0
15.94723	0.1912139	0.3774516	0	0	0.04615833	0.03248982	0	0
15.96376	0.1911885	0.3774337	-0.00153492	-0.001081564	-0.04632531	-0.03264262	0	0
15.98033	0.1911378	0.377398	-0.003061856	-0.002156971	-0.04613214	-0.03249045	0	0
15.99689	0.1911125	0.3773801	-0.00153084	-0.001079323	0.04620749	0.03252443	0	0
16.01346	0.1909856	0.3772907	-0.007655998	-0.005393018	-0.1848577	-0.1301876	0	0
16.03003	0.1908841	0.3772193	-0.006125158	-0.004313694	0.04620085	0.03257404	0	0
16.04659	0.1905797	0.3769333	-0.01837547	-0.01725838	-0.3697153	-0.3906713	0	0
16.06317	0.1904528	0.3766653	-0.007654272	-0.0161716	0.3234921	0.03279128	0	0
16.07973	0.190326	0.3762901	-0.007662208	-0.02266264	-0.0002395167	-0.1959111	0	0
16.09633	0.1902245	0.3762186	-0.006112687	-0.004306074	0.04672698	0.5535561	0	0
16.11286	0.1900722	0.3761114	-0.009210583	-0.006484726	-0.09349468	-0.06575185	0	0
16.12943	0.1896408	0.3758076	-0.02604137	-0.0183359	-0.5085102	-0.3580607	0	0
16.146	0.1857801	0.3731274	-0.2330321	-0.1617779	-6.246994	-4.329089	0	0
16.17913	0.1773281	0.3672318	-0.2550805	-0.1779291	-0.4436132	-0.3249623	0	0
16.21226	0.1535964	0.3507107	-0.7162665	-0.4986364	-6.959512	-4.839622	0	0
16.22883	0.140412	0.3416033	-0.7958119	-0.5497226	-1.600518	-1.027897	0	0
16.2454	0.1370564	0.3392819	-0.2025458	-0.1401213	17.90481	12.36179	0	0
16.26196	0.1148866	0.3241741	-1.338171	-0.9119074	-34.27323	-23.29255	0	0
16.27853	0.1109114	0.3214773	-0.2399443	-0.1627799	33.14454	22.60871	0	0
16.2951	0.09116763	0.3080802	-1.191735	-0.8086522	-28.72511	-19.49247	0	0
16.31167	0.07993458	0.3005397	-0.67795	-0.4550892	15.50518	10.66994	0	0
16.32823	0.06980744	0.2937658	-0.6113459	-0.4089234	2.010115	1.393285	0	0
16.3448	0.0573843	0.285899	-0.7498624	-0.4748428	-4.180676	-1.989565	0	0
16.36137	0.0498009	0.2810521	-0.4577351	-0.2925541	8.81642	5.501483	0	0
16.37794	0.04368272	0.2769196	-0.3692937	-0.2494387	2.669164	1.301224	0	0
16.3945	0.03674661	0.2721955	-0.4186645	-0.2851481	-1.490011	-1.077712	0	0
16.41107	0.03125298	0.2684546	-0.3315961	-0.2258052	2.627727	1.790974	0	0
16.42764	0.03049055	0.2679354	-0.04602054	-0.03133634	8.618689	5.869081	0	0
16.4442	0.02833452	0.2664673	-0.130138	-0.08861242	-2.538671	-1.728595	0	0
16.46077	0.0246792	0.2639426	-0.2206611	-0.152409	-2.732148	-1.925495	0	0
16.47734	0.0244951	0.2637815	-0.01111219	-0.009728299	6.324562	4.306359	0	0
16.4939	0.0245214	0.2637277	0.001587392	-0.003243366	0.3832742	0.1957157	0	0
16.54366	0.024574	0.2636919	0.0010572	-0.0007193753	-0.007994165	0.03805642	0	0
16.56017	0.0246003	0.263674	0.001592709	-0.001084744	0.008081082	-0.005513576	0	0
16.57674	0.0246003	0.263674	0	0	-0.04814844	0.03279237	0	0
16.59331	0.0246266	0.2636919	0.001587504	0.001081122	0.04791097	0.03262833	0	0
16.60987	0.0246266	0.2636919	0	0	-0.04791373	-0.03263021	0	0
16.62645	0.0246529	0.263674	0.001586479	-0.0010805	0.047869	-0.03260205	0	0
16.68457	0.0246792	0.2636561	0.0004524861	-0.000308152	-0.01518036	0.01033915	0	0
16.70543	0.0246792	0.2636561	0	0	-0.005728745	0.003901389	0	0
16.722	0.0247055	0.2636382	0.001587322	-0.001080998	0.04240795	-0.02888066	0	0
16.73879	0.0247055	0.2636382	0	0	-0.04757953	0.03240261	0	0
16.75531	0.0247318	0.2636203	0.001592526	-0.001084618	0.0478148	-0.03256513	0	0
16.77182	0.0247318	0.2635845	0	-0.002169487	-0.04822074	-0.03284919	0	0
16.78827	0.0247844	0.2635486	0.003197721	-0.002177789	0.09701562	-0.0002518614	0	0
16.80488	0.0247844	0.2635486	0	0	-0.09673572	0.06588128	0	0
16.8214	0.024837	0.2635128	0.003182958	-0.002165931	0.0960674	-0.06537168	0	0
16.83797	0.0248633	0.2634949	0.001587504	-0.001081122	-0.04821195	0.03278111	0	0
16.85454	0.0248896	0.263477	0.001587392	-0.001081122	-3.393965E-06	0	0	0
16.87111	0.02491589	0.2634591	0.001587027	-0.001080873	-1.102385E-05	7.51083E-06	0	0
16.88767	0.02496849	0.2634233	0.003175627	-0.002162742	0.04794407	-0.03265086	0	0
16.90442	0.02499479	0.2634054	0.001570687	-0.001069669	-0.04818479	0.03281709	0	0
16.9208	0.02502109	0.2633875	0.001604759	-0.00109295	0.001028336	-0.0007026545	0	0
16.93744	0.02504739	0.2633696	0.00158084	-0.001074868	-0.0007242822	0.0005475362	0	0
16.95395	0.02509999	0.2633338	0.003185532	-0.002169487	0.04841019	-0.03302236	0	0
16.97051	0.02515259	0.2632979	0.003176978	-0.002163738	-0.0002586663	0.000173843	0	0
16.98707	0.02517889	0.26328	0.001587687	-0.001081246	-0.04798424	0.03268284	0	0
17.00364	0.02520519	0.2632621	0.001587575	-0.001081246	-3.390842E-06	0	0	0
17.0205	0.02523149	0.2632442	0.001559562	-0.001062168	-0.0008380023	0.0005707376	0	0
17.03701	0.02525778	0.2632263	0.001592894	-0.001084869	0.0009987657	-0.0006802296	0	0
17.05334	0.02528408	0.2632084	0.00161057	-0.001096908	0.0005382665	-0.0003665973	0	0
17.0699	0.02531038	0.2631905	0.001587687	-0.001079447	-0.0006956401	0.0005307999	0	0
17.08647	0.02533668	0.2631726	0.001587392	-0.001081122	-8.91055E-06	-5.054348E-05	0	0
17.10304	0.02536298	0.2631547	0.001587209	-0.001080998	-5.512241E-06	3.755631E-06	0	0
17.21901	0.02538928	0.263101	0.0002267815	-0.0004633608	-0.01026474	0.004660212	0	0
17.23557	0.02538928	0.263101	0	0	-0.001711119	0.003496165	0	0
17.25214	0.02538928	0.263101	0	0	0	0	0	0
17.26871	0.02538928	0.263101	0	0	0	0	0	0
17.28527	0.02541558	0.263083	0.001587392	-0.001081122	0.04791034	-0.03263021	0	0
17.30184	0.02544188	0.2630651	0.001587392	-0.001081122	0	0	0	0
17.31841	0.02544188	0.2630651	0	0	-0.04790482	0.03262645	0	0
17.33497	0.02549447	0.2630293	0.003175149	-0.002162493	0.0958262	-0.06526417	0	0
17.35154	0.02546818	0.2630114	-0.001587392	-0.001081122	-0.1437421	0.03263772	0	0
17.36811	0.02546818	0.2630114	0	0	0.04790758	0.03262833	0	0
17.38468	0.02549447	0.2629935	0.001587392	-0.001079323	0.04790758	-0.03257403	0	0
17.40124	0.02549447	0.2629935	0	0	-0.04790758	0.03257403	0	0
17.41781	0.02552077	0.2629756	0.001587392	-0.001081122	0.04790758	-0.03262833	0	0
17.43438	0.02552077	0.2629398	0	-0.002162244	-0.04790758	-0.03262833	0	0
17.46751	0.02502109	0.2624204	-0.01508039	-0.01567447	-0.3034181	-0.2718665	0	0
17.48433	0.02204906	0.2602532	-0.1766869	-0.1288411	-3.235019	-2.265355	0	0
17.50065	0.01807698	0.2575123	-0.2434834	-0.1680112	-2.015922	-1.182156	0	0
17.51721	0.009789161	0.2517599	-0.5002536	-0.3472164	-7.809126	-5.45015	0	0
17.53378	0.002394732	0.2466144	-0.4463286	-0.3105815	1.627459	1.105644	0	0
17.55035	-0.002552626	0.2432067	-0.2986231	-0.2056902	4.457761	3.165626	0	0
17.56692	-0.006210446	0.2406772	-0.2207865	-0.1526846	2.349115	1.599711	0	0
17.58348	-0.01118374	0.2372496	-0.3001889	-0.2068873	-2.396369	-1.635841	0	0
17.60005	-0.01486733	0.2347365	-0.2223414	-0.151689	2.349442	1.66589	0	0
17.62126	-0.01839266	0.2322229	-0.1662283	-0.1185267	1.485454	0.8778881	0	0
17.63783	-0.02202275	0.2297085	-0.2191127	-0.1517654	-1.399983	-0.8799118	0	0
17.65446	-0.02389019	0.2283972	-0.1122664	-0.07883359	3.218144	2.196661	0	0
17.67097	-0.02391649	0.2282355	-0.001592822	-0.009791571	3.338982	2.082973	0	0
17.68752	-0.02389019	0.2282176	0.001588785	-0.001085595	0.09622049	0.2632925	0	0
17.70409	-0.02389019	0.2282176	0	0	-0.04796895	0.03277652	0	0
17.721	-0.02389019	0.2282176	0	0	0	0	0	0
17.73752	-0.02389019	0.2282176	0	0	0	0	0	0
17.75379	-0.02386389	0.2282355	0.001616273	0.001104299	0.04929853	0.03368261	0	0
17.77054	-0.02386389	0.2282715	0	0.002144834	-0.04894261	0.03150864	0	0
17.78692	-0.02386389	0.2282715	0	0	0	-0.06473123	0	0
17.80356	-0.02381129	0.2283074	0.003161179	0.002159094	0.09572417	0.06537987	0	0
17.82006	-0.02381129	0.2283074	0	0	-0.09541006	-0.06516534	0	0
17.83662	-0.02378499	0.2283254	0.001587504	0.00108472	0.04801878	0.03281057	0	0
17.85319	-0.02378499	0.2283254	0	0	-0.04791097	-0.0327369	0	0
17.88632	-0.02375869	0.2283792	0.0007937978	0.001626723	0.01597186	0.032731	0	0
17.90289	-0.02375869	0.2283792	0	0	-0.01597186	-0.032731	0	0
17.91946	-0.02375869	0.2283792	0	0	0	0	0	0
17.93603	-0.02375869	0.2283792	0	0	0	0	0	0
17.95259	-0.02375869	0.2283792	0	0	0	0	0	0
17.96916	-0.02375869	0.2283792	0	0	0	0	0	0
17.98573	-0.02375869	0.2283792	0	0	0	0	0	0
18.00229	-0.02373238	0.2283613	0.001587617	-0.00108472	0.04791437	-0.0327369	0	0
18.01886	-0.02373238	0.2283613	0	0	-0.04791713	0.03273879	0	0
18.03573	-0.02373238	0.2283613	0	0	0	0	0	0
18.05199	-0.02373238	0.2283613	0	0	0	0	0	0
18.06856	-0.02373238	0.2283613	0	0	0	0	0	0
18.08513	-0.02373238	0.2283613	0	0	0	0	0	0
18.1017	-0.02373238	0.2283613	0	0	0	0	0	0
18.11826	-0.02373238	0.2283613	0	0	0	0	0	0
18.13531	-0.02373238	0.2283613	0	0	0	0	0	0
18.1514	-0.02373238	0.2283613	0	0	0	0	0	0
18.16796	-0.02370608	0.2283792	0.001587504	0.00108472	0.04861053	0.0332149	0	0
18.18453	-0.02370608	0.2284152	0	0.00216854	-0.04791097	0.03270976	0	0
18.2011	-0.02367978	0.2284331	0.001587504	0.00108382	0.04791097	-0.0327369	0	0
18.21768	-0.02346937	0.2285769	0.01269014	0.008668073	0.3349434	0.228801	0	0
18.24465	-0.02331157	0.2286846	0.005850398	0.003995744	-0.1570395	-0.1072759	0	0
18.26122	-0.02315376	0.2288283	0.009525476	0.00867416	0.08440509	0.1074486	0	0
18.27779	-0.02278553	0.2290439	0.02222618	0.01301124	0.3833081	0.1308933	0	0
18.29435	-0.02257511	0.2291876	0.01270082	0.00867416	-0.287476	-0.1308933	0	0
18.34406	-0.02231209	0.2290439	0.005292093	-0.002891387	-0.1117979	-0.1745244	0	0
18.36062	-0.02212797	0.2289182	0.01111343	-0.00758944	0.08784413	-0.07089376	0	0
18.37719	-0.02031299	0.2276786	0.1095646	-0.07482909	2.971433	-2.029413	0	0
18.39375	-0.02004994	0.2274989	0.01587774	-0.0108436	-2.827637	1.931197	0	0
18.41032	-0.02004994	0.2274989	0	0	-0.4791912	0.3272605	0	0
18.42689	-0.02004994	0.2274989	0	0	0	0	0	0
18.44353	-0.02004994	0.2274989	0	0	0	0	0	0
18.46004	-0.02004994	0.2274989	0	0	0	0	0	0
18.48014	-0.02004994	0.2274989	0	0	0	0	0	0
18.4967	-0.02004994	0.2275349	0	0.00216854	0	0.05914475	0	0
18.51327	-0.02002364	0.2275528	0.001587842	0.00108472	0.04792115	-0.03270976	0	0
18.53009	-0.01997103	0.2276247	0.003128389	0.004272641	0.04614583	0.09549157	0	0
18.5466	-0.01968167	0.2278583	0.01752634	0.01414662	0.4320193	0.2962747	0	0
18.56311	-0.01933969	0.2280918	0.02071075	0.01414408	0.09643319	-7.679719E-05	0	0
18.57954	-0.01920816	0.2281816	0.008006497	0.005467752	-0.3856797	-0.2633987	0	0
18.59611	-0.01920816	0.2281816	0	0	-0.2426562	-0.1657134	0	0
18.61267	-0.01920816	0.2281816	0	0	0	0	0	0
18.62924	-0.01920816	0.2281816	0	0	0	0	0	0
18.64581	-0.01920816	0.2281457	0	-0.00216854	0	-0.06544667	0	0
18.66237	-0.01920816	0.2281457	0	0	0	0.06544667	0	0
18.6792	-0.01920816	0.2281457	0	0	0	0	0	0
18.69551	-0.01920816	0.2281457	0	0	0	0	0	0
18.71207	-0.01920816	0.2281457	0	0	0	0	0	0
18.72864	-0.01920816	0.2281457	0	0	0	0	0	0
18.74524	-0.01920816	0.2281457	0	0	0	0	0	0
18.76225	-0.01920816	0.2281457	0	0	0	0	0	0
18.77834	-0.01923447	0.2281277	-0.001635285	-0.00111713	-0.04940703	-0.03375197	0	0
18.79491	-0.01923447	0.2281277	0	0	0.05007945	0.03421133	0	0
18.81148	-0.01926078	0.2281098	-0.001587842	-0.00108382	-0.04792115	-0.03270976	0	0
18.82804	-0.01923447	0.2280918	0.001587842	-0.00108472	0.09584231	-2.714469E-05	0	0
18.84461	-0.01926078	0.2280738	-0.001587842	-0.00108472	-0.09584231	0	0	0
18.86118	-0.01926078	0.2280738	0	0	0.04792115	0.0327369	0	0
18.87774	-0.01926078	0.2280738	0	0	0	0	0	0
18.89431	-0.01928708	0.2280559	-0.001587842	-0.00108382	-0.04792392	-0.03271164	0	0
18.91088	-0.01931339	0.2280379	-0.001587842	-0.00108472	0	-2.714469E-05	0	0
18.92787	-0.01933969	0.22802	-0.001547749	-0.001056454	0.001194526	0.0008421478	0	0
18.94401	-0.01933969	0.22802	0	0	0.04671116	0.03188385	0	0
18.96058	-0.01933969	0.22802	0	0	0	0	0	0
18.97715	-0.01933969	0.22802	0	0	0	0	0	0
18.99371	-0.01933969	0.22802	0	0	0	0	0	0
19.01028	-0.01933969	0.22802	0	0	0	0	0	0
19.02695	-0.01933969	0.227984	0	-0.002156529	0	-0.06488994	0	0
19.04342	-0.019366	0.2279661	-0.001597405	-0.001090348	-0.04820977	0.03217741	0	0
19.06047	-0.019366	0.2279661	0	0	0.0476475	0.03252297	0	0
19.15938	-0.01939231	0.2279481	-0.000265962	-0.0001816896	-0.002293432	-0.001566738	0	0
19.17606	-0.01939231	0.2279481	0	0	0.002301039	0.001571934	0	0
19.19257	-0.01939231	0.2279481	0	0	0	0	0	0
19.20908	-0.01939231	0.2279481	0	0	0	0	0	0
19.22609	-0.01939231	0.2279481	0	0	0	0	0	0
19.24222	-0.01939231	0.2279481	0	0	0	0	0	0
19.25878	-0.01939231	0.2279481	0	0	0	0	0	0
19.27535	-0.01939231	0.2279481	0	0	0	0	0	0
19.29214	-0.01939231	0.2279481	0	0	0	0	0	0
19.30865	-0.01939231	0.2279481	0	0	0	0	0	0
19.32505	-0.01939231	0.2279481	0	0	0	0	0	0
19.34162	-0.01939231	0.2279481	0	0	0	0	0	0
19.35818	-0.019366	0.2279301	0.001587842	-0.00108472	0.04792668	-0.03274067	0	0
19.40872	-0.01941861	0.2278942	-0.001041023	-0.0007108705	-0.03917466	0.005571003	0	0
19.42529	-0.01939231	0.2278762	0.001587842	-0.00108382	0.03917466	-0.0055576	0	0
19.44583	-0.01939231	0.2278762	0	0	-0.04279255	0.02920911	0	0
19.4624	-0.01939231	0.2278762	0	0	0	0	0	0
19.47896	-0.01939231	0.2278762	0	0	0	0	0	0
19.5121	-0.01939231	0.2278762	0	0	0	0	0	0
19.52866	-0.01939231	0.2278762	0	0	0	0	0	0
19.54532	-0.01941861	0.2278583	-0.001579477	-0.001079005	-0.04754281	-0.03247845	0	0
19.5618	-0.01941861	0.2278583	0	0	0.04767145	0.03256632	0	0
19.57836	-0.01941861	0.2278583	0	0	0	0	0	0
19.59535	-0.01941861	0.2278583	0	0	0	0	0	0
19.6115	-0.01941861	0.2278583	0	0	0	0	0	0
19.62838	-0.01939231	0.2278403	0.001558593	-0.001064739	0.04719874	-0.03224339	0	0
19.64463	-0.01939231	0.2278403	0	0	-0.04704386	0.03213758	0	0
19.6612	-0.01939231	0.2278403	0	0	0	0	0	0
19.69433	-0.01941861	0.2278223	-0.0007939665	-0.0005419413	-0.01597525	-0.0109043	0	0
19.7109	-0.01941861	0.2278223	0	0	0.01597525	0.0109043	0	0
19.72746	-0.01941861	0.2278223	0	0	0	0	0	0
19.74403	-0.01941861	0.2278223	0	0	0	0	0	0
19.7606	-0.01941861	0.2278223	0	0	0	0	0	0
19.77716	-0.01939231	0.2278044	0.001587842	-0.00108472	0.04792115	-0.0327369	0	0
19.79373	-0.01939231	0.2278044	0	0	-0.04792115	0.0327369	0	0
19.8103	-0.01939231	0.2278044	0	0	0	0	0	0
19.82687	-0.01939231	0.2278044	0	0	0	0	0	0
19.84343	-0.01939231	0.2278044	0	0	0	0	0	0
19.86004	-0.01939231	0.2278044	0	0	0	0	0	0
19.87657	-0.01939231	0.2278044	0	0	0	0	0	0
19.89314	-0.01939231	0.2278044	0	0	0	0	0	0
19.9097	-0.01939231	0.2278044	0	0	0	0	0	0
19.92627	-0.01939231	0.2278044	0	0	0	0	0	0
19.9594	-0.01939231	0.2278044	0	0	0	0	0	0
19.97613	-0.01939231	0.2278044	0	0	0	0	0	0
19.99254	-0.01939231	0.2278044	0	0	0	0	0	0
20.00916	-0.01939231	0.2278044	0	0	0	0	0	0
20.02567	-0.01939231	0.2278044	0	0	0	0	0	0
20.04224	-0.01939231	0.2278044	0	0	0	0	0	0
20.05881	-0.01939231	0.2278044	0	0	0	0	0	0
20.07537	-0.01939231	0.2278044	0	0	0	0	0	0
20.09194	-0.01939231	0.2278044	0	0	0	0	0	0
20.10851	-0.01939231	0.2278044	0	0	0	0	0	0
20.12508	-0.01939231	0.2278044	0	0	0	0	0	0
20.14164	-0.01939231	0.2278044	0	0	0	0	0	0
20.15821	-0.01939231	0.2278044	0	0	0	0	0	0
20.17478	-0.01939231	0.2278044	0	0	0	0	0	0
20.19135	-0.01939231	0.2278044	0	0	0	0	0	0
20.20791	-0.01939231	0.2278044	0	0	0	0	0	0
20.22448	-0.01939231	0.2278044	0	0	0	0	0	0
20.24132	-0.01939231	0.2278044	0	0	0	0	0	0
20.25761	-0.01939231	0.2278044	0	0	0	0	0	0
20.27418	-0.01939231	0.2278044	0	0	0	0	0	0
20.29481	-0.01939231	0.2278044	0	0	0	0	0	0
20.31138	-0.01939231	0.2278044	0	0	0	0	0	0
20.32795	-0.01939231	0.2278044	0	0	0	0	0	0
20.34451	-0.01939231	0.2278044	0	0	0	0	0	0
20.36108	-0.01939231	0.2278044	0	0	0	0	0	0
20.37765	-0.01939231	0.2278044	0	0	0	0	0	0
20.39421	-0.01939231	0.2278044	0	0	0	0	0	0
20.41078	-0.01939231	0.2278044	0	0	0	0	0	0
20.42735	-0.01939231	0.2278044	0	0	0	0	0	0
20.44391	-0.01939231	0.2278044	0	0	0	0	0	0
20.46048	-0.01939231	0.2278044	0	0	0	0	0	0
20.47705	-0.01939231	0.2278044	0	0	0	0	0	0
20.49362	-0.01939231	0.2278044	0	0	0	0	0	0
20.51018	-0.01941861	0.2278223	-0.001587842	0.00108472	-0.04792115	0.0327369	0	0
20.52675	-0.01941861	0.2278223	0	0	0.04792115	-0.0327369	0	0
20.54332	-0.01941861	0.2278223	0	0	0	0	0	0
20.55989	-0.01944492	0.2278403	-0.001587729	0.00108382	-0.04791776	0.03270976	0	0
20.57656	-0.01947122	0.2278583	-0.001577129	0.001077401	0.0003188353	-0.0001930673	0	0
20.59308	-0.01944492	0.2278762	0.001593161	0.001088353	0.09551458	0.0003299623	0	0
20.60959	-0.01947122	0.2278942	-0.001593161	0.001087451	-0.0964855	-2.732728E-05	0	0
20.62615	-0.01947122	0.2278942	0	0	0.04816764	-0.032878	0	0
20.64272	-0.01949753	0.2279122	-0.001587842	0.00108472	-0.04792668	0.03274067	0	0
20.65929	-0.01968167	0.2281098	-0.01111467	0.01192832	-0.2875201	0.3272605	0	0
20.67614	-0.02020778	0.2286487	-0.03122038	0.03198129	-0.6016313	0.6000531	0	0
20.69265	-0.02168081	0.2303731	-0.08921057	0.1044323	-1.738141	2.171575	0	0
20.70899	-0.02636231	0.2378778	-0.2865679	0.4593841	-6.008134	10.80577	0	0
20.72555	-0.0309112	0.2486586	-0.2745716	0.6507292	0.3645894	5.815312	0	0
20.74218	-0.03566908	0.2631189	-0.2860989	0.8695217	-0.347235	6.590649	0	0
20.75869	-0.04163382	0.2868288	-0.3614475	1.436761	-2.274158	17.12031	0	0
20.77525	-0.04602012	0.3061863	-0.2647573	1.168419	2.923841	-8.11446	0	0
20.79182	-0.04911835	0.3186553	-0.18701	0.7526299	2.346416	-12.54855	0	0
20.80839	-0.055207	0.3423712	-0.3675115	1.431492	-5.447546	20.48809	0	0
20.82495	-0.06110803	0.3588187	-0.356187	0.9927775	0.3417757	-13.24042	0	0
20.84152	-0.07077632	0.3782378	-0.5835789	1.172139	-6.862704	5.413152	0	0
20.85809	-0.07938544	0.3901606	-0.5196477	0.7196566	1.929448	-13.65596	0	0
20.87466	-0.08314994	0.3933435	-0.2272254	0.1921231	8.825324	-15.92099	0	0
20.97406	-0.1304652	0.4257651	-0.4760018	0.3261678	-2.145203	1.155869	0	0
20.99063	-0.1304911	0.4257472	-0.001561421	-0.001081122	4.091107	-2.821872	0	0
21.00738	-0.1305428	0.4257113	-0.003089242	-0.002140143	-0.0458537	-0.03178385	0	0
21.02376	-0.1305687	0.4257292	-0.001579238	0.001093459	0.04557462	0.09759592	0	0
21.04033	-0.1305687	0.4257292	0	0	0.04793191	-0.03318787	0	0
21.05691	-0.1305946	0.4257113	-0.001559625	-0.001079879	-0.0470425	-0.03257205	0	0
21.07346	-0.1305946	0.4257113	0	0	0.04707229	0.03259268	0	0
21.09002	-0.1306463	0.4256755	-0.003122841	-0.002164043	-0.09430725	-0.06535232	0	0
21.10659	-0.1306981	0.4256396	-0.003122841	-0.002164043	0	0	0	0
21.12346	-0.1307498	0.4256037	-0.003067051	-0.002125382	0.001668575	0.001156277	0	0
21.13973	-0.1308274	0.4255141	-0.004771048	-0.005509425	-0.05142673	-0.1021306	0	0
21.15648	-0.1309826	0.4254066	-0.009262948	-0.006418967	-0.1360278	-0.02754358	0	0
21.17618	-0.1310085	0.4253887	-0.001312676	-0.0009094155	0.2181064	0.1511481	0	0
21.19275	-0.1310861	0.4253349	-0.004683723	-0.00324659	-0.09295743	-0.06444813	0	0
21.20931	-0.1312671	0.4252094	-0.01092905	-0.00757325	-0.1884734	-0.1305714	0	0
21.22588	-0.1314223	0.4251018	-0.009366726	-0.006492128	0.0471509	0.03262833	0	0
21.24255	-0.1315775	0.4249585	-0.009310984	-0.00860287	0.001677262	-0.06351219	0	0
21.25901	-0.1319913	0.4246717	-0.02512887	-0.01741682	-0.4774121	-0.2660207	0	0
21.27558	-0.1327153	0.4241698	-0.04370179	-0.0302912	-0.5622473	-0.3897388	0	0
21.29215	-0.1342146	0.4231304	-0.09049764	-0.06274284	-1.412302	-0.9793926	0	0
21.30872	-0.1351707	0.4224673	-0.0577114	-0.0400231	0.9894906	0.6856834	0	0
21.32528	-0.1351707	0.4224673	0	0	1.741734	1.207899	0	0
21.34212	-0.1351707	0.4224673	0	0	0	0	0	0
21.35842	-0.1351707	0.4224673	0	0	0	0	0	0
21.37498	-0.1351707	0.4224673	0	0	0	0	0	0
21.39155	-0.1351707	0.4224673	0	0	0	0	0	0
21.40812	-0.1351965	0.4224494	-0.001559622	-0.001081122	-0.04706948	-0.03262833	0	0
21.42518	-0.1352741	0.4223956	-0.004543898	-0.003151554	-0.08874761	-0.06157134	0	0
21.44125	-0.1353516	0.4223419	-0.004821741	-0.003344903	-0.008385797	-0.005835623	0	0
21.45782	-0.1354549	0.4222702	-0.006238487	-0.004326287	-0.0434046	-0.03006648	0	0
21.47471	-0.1355582	0.4222343	-0.006116469	-0.002122022	0.003646398	0.06587262	0	0
21.49095	-0.1355841	0.4222164	-0.001591129	-0.001102963	0.136575	0.03075528	0	0
21.50752	-0.1356357	0.4221806	-0.003118344	-0.002164043	-0.04655235	-0.03234369	0	0
21.52409	-0.1357649	0.422091	-0.00779721	-0.005407408	-0.1412084	-0.09788497	0	0
21.54076	-0.1376761	0.420765	-0.1146209	-0.07952271	-3.213585	-2.229617	0	0
21.55727	-0.143352	0.4168238	-0.3437455	-0.2386887	-6.904264	-4.796185	0	0
21.57428	-0.1492502	0.4127227	-0.3467168	-0.2410777	-0.08863293	-0.07126284	0	0
21.60692	-0.1549582	0.4087481	-0.1749046	-0.1217882	3.46072	2.402782	0	0
21.64005	-0.1567302	0.4075131	-0.05348046	-0.03727532	1.846215	1.284993	0	0
21.65662	-0.1567302	0.4075131	0	0	1.076029	0.749981	0	0
21.67319	-0.1567559	0.4074952	-0.001549906	-0.001079447	-0.04677896	-0.03257966	0	0
21.68975	-0.1567302	0.4074773	0.001549728	-0.001081122	0.09355254	-5.054348E-05	0	0
21.70632	-0.1567302	0.4074773	0	0	-0.04677088	0.03262833	0	0
21.72289	-0.1567302	0.4074773	0	0	0	0	0	0
21.73945	-0.1567046	0.4074593	0.001549906	-0.001081246	0.04677627	-0.03263208	0	0
21.78916	-0.1566532	0.4073878	0.001033152	-0.001440297	-0.007798065	-0.005418235	0	0
21.80572	-0.1566276	0.4073699	0.001549728	-0.001079323	0.007795147	0.005447103	0	0
21.82229	-0.1566019	0.407352	0.001549728	-0.001081122	0	-5.42929E-05	0	0
21.83886	-0.1566019	0.407352	0	0	-0.04677088	0.03262833	0	0
21.85549	-0.1566019	0.407352	0	0	0	0	0	0
21.87199	-0.1566019	0.407352	0	0	0	0	0	0
21.88856	-0.1566019	0.407352	0	0	0	0	0	0
21.90513	-0.1566019	0.407352	0	0	0	0	0	0
21.92204	-0.1565762	0.4073341	0.001518094	-0.001059053	0.04534372	-0.03163271	0	0
21.93826	-0.1565505	0.4073162	0.001582709	-0.001102293	0.001950082	-0.001304973	0	0
21.95483	-0.1564992	0.4072804	0.003099813	-0.002160694	0.04627106	-0.0322808	0	0
21.97139	-0.1564735	0.4072267	0.001549728	-0.003241567	-0.04678435	-0.03262269	0	0
21.98808	-0.1564478	0.407173	0.00153911	-0.003217489	-0.0003192611	0.0007239511	0	0
22.0046	-0.1564221	0.4071551	0.001554919	-0.001082939	0.0004761464	0.06428765	0	0
22.02111	-0.1563708	0.4070835	0.003109839	-0.004337169	0.04708476	-0.09854188	0	0
22.03766	-0.1563451	0.406994	0.001551335	-0.005407615	-0.04713884	-0.03237694	0	0
22.05423	-0.1562681	0.4068687	0.004650083	-0.007562457	0.09356888	-0.06506696	0	0
22.09059	-0.1562167	0.4065107	0.001411962	-0.009842758	-0.06117206	-0.04307767	0	0
22.13159	-0.1679297	0.3968669	-0.2857338	-0.2352583	-3.711805	-2.913846	0	0
22.1482	-0.1714833	0.3900175	-0.2139511	-0.412383	1.246187	-3.074979	0	0
22.16472	-0.1726839	0.3769512	-0.07265066	-0.7906856	4.264455	-11.41719	0	0
22.18172	-0.1725562	0.3692862	0.007511817	-0.4509299	2.391228	10.13483	0	0
22.19785	-0.1726839	0.3544788	-0.007914093	-0.9177577	-0.4655817	-14.0897	0	0
22.21442	-0.1732457	0.3501213	-0.03391053	-0.2630184	-0.7949619	20.02169	0	0
22.23099	-0.1734499	0.3433712	-0.01232947	-0.4074408	0.6513178	-4.358677	0	0
22.24777	-0.1708445	0.3377283	0.1552635	-0.3362678	5.025564	2.134246	0	0
22.26412	-0.164167	0.3280316	0.4083175	-0.592939	7.637186	-7.746352	0	0
22.28069	-0.1578597	0.3190304	0.3807087	-0.5433151	-0.8386406	1.507372	0	0
22.2973	-0.1485296	0.3092236	0.5616147	-0.5903111	5.45222	-1.416385	0	0
22.31382	-0.1345764	0.2963398	0.8446502	-0.7799132	8.542521	-5.722533	0	0
22.33039	-0.1227482	0.2881342	0.7139506	-0.4952905	-3.950206	8.602308	0	0
22.34696	-0.1190917	0.2856129	0.2206836	-0.1521688	-14.88597	10.35484	0	0
22.38036	-0.09500262	0.2690811	0.7211142	-0.4948845	10.01373	-6.857818	0	0
22.39666	-0.08233973	0.2603965	0.7771279	-0.5329766	1.127042	-0.7664441	0	0
22.41339	-0.06941461	0.2515448	0.7726011	-0.5291105	-0.1370766	0.1170693	0	0
22.44636	-0.05045713	0.2385777	0.5749841	-0.3932956	-3.976214	2.732706	0	0
22.46292	-0.04131858	0.2323306	0.5516044	-0.3770759	-0.4719578	0.3274217	0	0
22.47949	-0.03080604	0.2251451	0.6345379	-0.4337188	2.502938	-1.709485	0	0
22.49606	-0.02110213	0.2185115	0.5857292	-0.4004055	-1.473051	1.005398	0	0
22.51263	-0.0171299	0.2157955	0.2397641	-0.1639384	-10.44125	7.136591	0	0
22.52919	-0.009683908	0.2107029	0.4494412	-0.3073903	6.328068	-4.329388	0	0
22.54576	-0.00228947	0.2056431	0.4463292	-0.3054062	-0.09391999	0.05988174	0	0
22.56233	0.003999979	0.2013371	0.3796319	-0.2599109	-2.012929	1.37305	0	0
22.5789	0.005263109	0.200472	0.07624271	-0.05221765	-9.156303	6.268194	0	0
22.59546	0.009499714	0.1975696	0.255722	-0.1751885	5.416694	-3.711268	0	0
22.61203	0.009447088	0.1976057	-0.003176526	0.002176635	-7.813572	5.352891	0	0
22.6286	0	0	-0.5702273	-11.9275	-17.11363	-360.0385	0	0
22.64516	0.009447088	0.1976057	0.5702273	11.9275	34.41899	719.9456	0	0
22.66207	0.009447088	0.1976057	0	0	-17.03592	-356.3421	0	0
22.6783	0.009447088	0.1976057	0	0	0	0	0	0
22.69487	0.009420774	0.1976237	-0.001588291	0.001088317	-0.04842816	0.03318359	0	0
22.71143	0.009420774	0.1976237	0	0	0.04793473	-0.03284548	0	0
22.72812	0.00939446	0.1976418	-0.001577215	0.001080728	-0.04743388	0.0325023	0	0
22.74457	0.00939446	0.1976418	0	0	0.04760318	-0.0326183	0	0
22.76114	0.00939446	0.1976418	0	0	0	0	0	0
22.7777	0.00939446	0.1976418	0	0	0	0	0	0
22.79427	0.009368147	0.1976598	-0.001588291	0.001088317	-0.04794577	0.03285305	0	0
22.81083	0.009368147	0.1976598	0	0	0.04793473	-0.03284548	0	0
22.8274	0.009368147	0.1976598	0	0	0	0	0	0
22.84397	0.009368147	0.1976598	0	0	0	0	0	0
22.86054	0.009368147	0.1976598	0	0	0	0	0	0
22.87723	0.009368147	0.1976598	0	0	0	0	0	0
22.89374	0.009368147	0.1976598	0	0	0	0	0	0
22.91024	0.009368147	0.1976598	0	0	0	0	0	0
22.9268	0.00939446	0.1976418	0.001588291	-0.001088317	0.04803427	-0.03291369	0	0
22.94683	0.009368147	0.1976237	-0.00131377	-0.0009002119	-0.07929931	0.005140014	0	0
22.96379	0.009368147	0.1976237	0	0	0.03552131	0.02433966	0	0
22.97997	0.009368147	0.1976237	0	0	0	0	0	0
22.99653	0.009368147	0.1976237	0	0	0	0	0	0
23.0131	0.009368147	0.1976237	0	0	0	0	0	0
23.02984	0.009368147	0.1976237	0	0	0	0	0	0
23.04635	0.009368147	0.1976237	0	0	0	0	0	0
23.0628	0.009368147	0.1976237	0	0	0	0	0	0
23.07937	0.009368147	0.1976237	0	0	0	0	0	0
23.1125	0.009341833	0.1976057	-0.0007942371	-0.0005442214	-0.01598069	-0.01095018	0	0
23.12907	0.009341833	0.1976057	0	0	0.01598131	0.0109506	0	0
23.14592	0.009341833	0.1976057	0	0	0	0	0	0
23.1622	0.009341833	0.1976057	0	0	0	0	0	0
23.17877	0.009341833	0.1976057	0	0	0	0	0	0
23.19545	0.009341833	0.1976057	0	0	0	0	0	0
23.2119	0.009341833	0.1976057	0	0	0	0	0	0
23.22847	0.009341833	0.1976057	0	0	0	0	0	0
23.24504	0.009341833	0.1976057	0	0	0	0	0	0
23.2616	0.009341833	0.1976057	0	0	0	0	0	0
23.27851	0.009341833	0.1976057	0	0	0	0	0	0
23.29473	0.00931552	0.1975877	-0.001621902	-0.001111348	-0.04895192	-0.03354248	0	0
23.3113	0.00931552	0.1975877	0	0	0.0494616	0.03389172	0	0
23.32787	0.00931552	0.1975877	0	0	0	0	0	0
23.34444	0.00931552	0.1975877	0	0	0	0	0	0
23.36107	0.00931552	0.1975877	0	0	0	0	0	0
23.37758	0.00931552	0.1975877	0	0	0	0	0	0
23.39414	0.009289207	0.1975696	-0.001589516	-0.001089195	-0.04807131	-0.03294023	0	0
23.41071	0.009289207	0.1975696	0	0	0.04799103	0.03288523	0	0
23.42727	0.009289207	0.1975696	0	0	0	0	0	0
23.44384	0.009262893	0.1975516	-0.001588291	-0.001088317	-0.04793473	-0.03284548	0	0
23.51011	0.00923658	0.1974975	-0.0003970728	-0.0008162381	0.01438042	0.003284548	0	0
23.56022	0.009183953	0.1974615	-0.001050156	-0.0007195802	-0.005611518	0.000830518	0	0
23.57638	0.009157639	0.1974434	-0.001628988	-0.001116203	-0.008734842	-0.005985226	0	0
23.59294	0.009157639	0.1974434	0	0	0.04978483	0.0341132	0	0
23.60951	0.009131325	0.1974254	-0.001588291	-0.001088317	-0.04793473	-0.03284548	0	0
23.62608	0.009131325	0.1974254	0	0	0.04793749	0.03284737	0	0
23.64264	0.009105012	0.1974074	-0.001588291	-0.001088317	-0.04793749	-0.03284737	0	0
23.65929	0.009078698	0.1973893	-0.001580829	-0.001083204	0.000224673	0.0001539461	0	0
23.67578	0.009078698	0.1973893	0	0	0.04771227	0.03269305	0	0
23.69234	0.009052385	0.1973713	-0.001588291	-0.001088317	-0.0480509	-0.03292508	0	0
23.70891	0.009052385	0.1973713	0	0	0.04793473	0.03284548	0	0
23.72548	0.009026071	0.1973533	-0.001588291	-0.001088317	-0.04793473	-0.03284548	0	0
23.74204	0.009026071	0.1973533	0	0	0.04793473	0.03284548	0	0
23.75886	0.009026071	0.1973533	0	0	0	0	0	0
23.77537	0.009026071	0.1973172	0	-0.002183926	0	-0.06552628	0	0
23.79174	0.009026071	0.1973172	0	0	0	0.06641568	0	0
23.80831	0.008999757	0.1972992	-0.001588291	-0.001088317	-0.04822063	-0.03304139	0	0
23.82488	0.008973443	0.1972812	-0.00158853	-0.001088443	-7.213469E-06	-3.784173E-06	0	0
23.84144	0.008973443	0.1972812	0	0	0.0479447	0.03285116	0	0
23.85801	0.008973443	0.1972812	0	0	0	0	0	0
23.87458	0.008947129	0.1972631	-0.001588291	-0.001088317	-0.04793473	-0.03284548	0	0
23.91047	0.008947129	0.1972631	0	0	0.0302797	0.02074804	0	0
23.92703	0.008920816	0.1972451	-0.001588291	-0.001088317	-0.0302797	-0.02074804	0	0
23.9436	0.008920816	0.1972451	0	0	0.04793473	0.03284548	0	0
23.9605	0.008920816	0.1972451	0	0	0	0	0	0
23.97673	0.008920816	0.1972451	0	0	0	0	0	0
23.9933	0.008920816	0.1972451	0	0	0	0	0	0
24.00987	0.008920816	0.1972451	0	0	0	0	0	0
24.02644	0.008920816	0.1972451	0	0	0	0	0	0
24.04307	0.008920816	0.1972451	0	0	0	0	0	0
24.05957	0.008894502	0.197227	-0.001594349	-0.001093371	-0.04811754	-0.032998	0	0
24.07614	0.008894502	0.197227	0	0	0.04820911	0.0330608	0	0
24.0927	0.008894502	0.197227	0	0	0	0	0	0
24.10927	0.008894502	0.197227	0	0	0	0	0	0
24.12584	0.008868189	0.197209	-0.001588291	-0.001088317	-0.04793473	-0.03284548	0	0
24.14264	0.008868189	0.197209	0	0	0.04759772	0.03261456	0	0
24.16443	0.008868189	0.197173	0	-0.001654814	0	-0.04287828	0	0
24.181	0.008868189	0.197173	0	0	0	0.04314053	0	0
24.19757	0.008868189	0.197173	0	0	0	0	0	0
24.21419	0.008841875	0.1971549	-0.001582825	-0.001084571	-0.04768739	-0.032676	0	0
24.2307	0.008841875	0.1971549	0	0	0.04776699	0.03273055	0	0
24.24727	0.008841875	0.1971549	0	0	0	0	0	0
24.26423	0.008815561	0.1971369	-0.001551496	-0.001063104	-0.04628075	-0.03171216	0	0
24.2804	0.008815561	0.1971369	0	0	0.04682423	0.03208456	0	0
24.3798	0.008815561	0.1971369	0	0	0	0	0	0
24.39637	0.008815561	0.1971369	0	0	0	0	0	0
24.41294	0.008789247	0.1971189	-0.001588347	-0.001088317	-0.04793642	-0.03284548	0	0
24.42985	0.008789247	0.1971189	0	0	0.04744482	0.03250865	0	0
24.44607	0.008789247	0.1971189	0	0	0	0	0	0
24.46264	0.008789247	0.1971189	0	0	0	0	0	0
24.47938	0.008789247	0.1971189	0	0	0	0	0	0
24.49577	0.008789247	0.1971189	0	0	0	0	0	0
24.51234	0.008789247	0.1971189	0	0	0	0	0	0
24.52891	0.008789247	0.1971189	0	0	0	0	0	0
24.54548	0.008789247	0.1971189	0	0	0	0	0	0
24.56204	0.008789247	0.1971189	0	0	0	0	0	0
24.57861	0.008789247	0.1971189	0	0	0	0	0	0
24.59517	0.008789247	0.1970828	0	-0.002176635	0	-0.06569096	0	0
24.61174	0.008789247	0.1970828	0	0	0	0.06569096	0	0
24.62831	0.008789247	0.1970828	0	0	0	0	0	0
24.64501	0.008789247	0.1970828	0	0	0	0	0	0
24.66152	0.008789247	0.1970828	0	0	0	0	0	0
24.67801	0.008789247	0.1970828	0	0	0	0	0	0
24.69458	0.008789247	0.1970828	0	0	0	0	0	0
24.71155	0.008762933	0.1970648	-0.001549927	-0.00106203	-0.04620504	-0.03166028	0	0
24.72771	0.008762933	0.1970648	0	0	0.04677958	0.03205396	0	0
24.74712	0.008762933	0.1970648	0	0	0	0	0	0
24.76409	0.008762933	0.1970648	0	0	0	0	0	0
24.78025	0.008789247	0.1970467	0.001628219	-0.001115676	0.04913975	-0.03367117	0	0
24.79682	0.008789247	0.1970467	0	0	-0.04974973	0.03408915	0	0
24.86709	0.008789247	0.1970467	0	0	0	0	0	0
24.88367	0.008762933	0.1970287	-0.001586647	-0.001088089	-0.01826739	-0.01252739	0	0
24.90023	0.008762933	0.1970287	0	0	0.04788236	0.03283671	0	0
24.91679	0.008762933	0.1970287	0	0	0	0	0	0
24.93371	0.008762933	0.1970287	0	0	0	0	0	0
24.94993	0.008762933	0.1970287	0	0	0	0	0	0
24.96649	0.008762933	0.1970287	0	0	0	0	0	0
24.98306	0.008762933	0.1970287	0	0	0	0	0	0
24.99963	0.008762933	0.1970287	0	0	0	0	0	0
25.01619	0.008762933	0.1970287	0	0	0	0	0	0
25.03278	0.008762933	0.1970287	0	0	0	0	0	0
25.04933	0.008762933	0.1970287	0	0	0	0	0	0
25.06589	0.008762933	0.1970287	0	0	0	0	0	0
25.08282	0.008762933	0.1970287	0	0	0	0	0	0
25.14873	0.008789247	0.1970107	0.0003992446	-0.0002735675	0.004819691	-0.003302514	0	0
25.16538	0.008789247	0.1970107	0	0	-0.004835948	0.003313653	0	0
25.18186	0.008789247	0.1970107	0	0	0	0	0	0
25.19843	0.008762933	0.1969926	-0.001588291	-0.001088317	-0.04805645	-0.03292889	0	0
25.23156	0.008762933	0.1969926	0	0	0.03195649	0.02189699	0	0
25.24813	0.008762933	0.1969926	0	0	0	0	0	0
25.26469	0.008762933	0.1969926	0	0	0	0	0	0
25.28146	0.008762933	0.1969926	0	0	0	0	0	0
25.29783	0.008762933	0.1969926	0	0	0	0	0	0
25.31439	0.008762933	0.1969926	0	0	0	0	0	0
25.33096	0.008762933	0.1969926	0	0	0	0	0	0
25.34753	0.008762933	0.1969926	0	0	0	0	0	0
25.3641	0.008762933	0.1969926	0	0	0	0	0	0
25.39723	0.008762933	0.1969926	0	0	0	0	0	0
25.41405	0.008762933	0.1969926	0	0	0	0	0	0
25.43036	0.008762933	0.1969926	0	0	0	0	0	0
25.44693	0.008762933	0.1969926	0	0	0	0	0	0
25.4635	0.008762933	0.1969926	0	0	0	0	0	0
25.4801	0.008762933	0.1969926	0	0	0	0	0	0
25.49663	0.008762933	0.1969926	0	0	0	0	0	0
25.5132	0.008762933	0.1969926	0	0	0	0	0	0
25.53014	0.008762933	0.1969926	0	0	0	0	0	0
25.54665	0.008762933	0.1969926	0	0	0	0	0	0
25.56316	0.008762933	0.1969926	0	0	0	0	0	0
25.57967	0.008762933	0.1969926	0	0	0	0	0	0
25.59603	0.008762933	0.1969926	0	0	0	0	0	0
25.6127	0.008762933	0.1969926	0	0	0	0	0	0
25.62917	0.008762933	0.1969926	0	0	0	0	0	0
25.64573	0.008762933	0.1969926	0	0	0	0	0	0
25.6623	0.008762933	0.1969926	0	0	0	0	0	0
25.67887	0.008762933	0.1969926	0	0	0	0	0	0
25.69543	0.008762933	0.1969926	0	0	0	0	0	0
25.71648	0.008762933	0.1969926	0	0	0	0	0	0
25.73304	0.008762933	0.1969926	0	0	0	0	0	0
25.74961	0.008762933	0.1969926	0	0	0	0	0	0
25.76618	0.008762933	0.1969926	0	0	0	0	0	0
25.78275	0.008762933	0.1969926	0	0	0	0	0	0
25.86558	0.008762933	0.1969926	0	0	0	0	0	0
25.88215	0.008762933	0.1969926	0	0	0	0	0	0
25.89891	0.008762933	0.1969926	0	0	0	0	0	0
25.91542	0.008762933	0.1969926	0	0	0	0	0	0
25.93193	0.008789247	0.1969746	0.001593612	-0.001091963	0.0482592	-0.03306782	0	0
25.94841	0.008789247	0.1969746	0	0	-0.04829547	0.03309267	0	0
25.96498	0.008789247	0.1969746	0	0	0	0	0	0
25.98155	0.008789247	0.1969746	0	0	0	0	0	0
25.99812	0.008789247	0.1969746	0	0	0	0	0	0
26.01499	0.008762933	0.1969566	-0.001559387	-0.001068512	-0.04663024	-0.03195164	0	0
26.0315	0.008762933	0.1969566	0	0	0.04670483	0.03200274	0	0
26.06438	0.008762933	0.1969566	0	0	0	0	0	0
26.09752	0.008762933	0.1969566	0	0	0	0	0	0
26.11408	0.008789247	0.1969385	0.001588474	-0.001088443	0.03196139	-0.02190035	0	0
26.13065	0.008789247	0.1969385	0	0	-0.047943	0.03285116	0	0
26.14759	0.008789247	0.1969385	0	0	0	0	0	0
26.16378	0.008789247	0.1969385	0	0	0	0	0	0
26.18035	0.008789247	0.1969385	0	0	0	0	0	0
26.19692	0.008789247	0.1969385	0	0	0	0	0	0
26.21363	0.008789247	0.1969385	0	0	0	0	0	0
26.23015	0.008789247	0.1969385	0	0	0	0	0	0
26.24662	0.008789247	0.1969385	0	0	0	0	0	0
26.26319	0.008815561	0.1969205	0.001588347	-0.001088317	0.04807479	-0.03294029	0	0
26.27975	0.008815561	0.1969205	0	0	-0.04793642	0.03284548	0	0
26.29669	0.008815561	0.1969205	0	0	0	0	0	0
26.31289	0.008815561	0.1969205	0	0	0	0	0	0
26.32945	0.008789247	0.1969025	-0.001588347	-0.001088317	-0.04848344	-0.03322029	0	0
26.34673	0.008789247	0.1969025	0	0	0.04693409	0.0321587	0	0
26.36259	0.008789247	0.1969025	0	0	0	0	0	0
26.37925	0.008789247	0.1969025	0	0	0	0	0	0
26.39576	0.008789247	0.1969025	0	0	0	0	0	0
26.41228	0.008789247	0.1969025	0	0	0	0	0	0
26.42929	0.008789247	0.1969025	0	0	0	0	0	0
26.44542	0.008789247	0.1969025	0	0	0	0	0	0
26.46231	0.008789247	0.1969025	0	0	0	0	0	0
26.47855	0.008789247	0.1969025	0	0	0	0	0	0
26.49512	0.008789247	0.1969025	0	0	0	0	0	0
26.51184	0.008789247	0.1969025	0	0	0	0	0	0
26.52825	0.008789247	0.1969025	0	0	0	0	0	0
26.54482	0.008789247	0.1969025	0	0	0	0	0	0
26.56139	0.008789247	0.1969025	0	0	0	0	0	0
26.57795	0.008789247	0.1969025	0	0	0	0	0	0
26.59452	0.008789247	0.1969025	0	0	0	0	0	0
26.61109	0.008789247	0.1969025	0	0	0	0	0	0
26.62765	0.008789247	0.1969025	0	0	0	0	0	0
26.64422	0.008789247	0.1969025	0	0	0	0	0	0
26.66079	0.008789247	0.1969025	0	0	0	0	0	0
26.69748	0.008789247	0.1969025	0	0	0	0	0	0
26.71399	0.008815561	0.1969205	0.001593668	0.001091963	0.02995415	0.02052424	0	0
26.73055	0.008815561	0.1969205	0	0	-0.04818854	-0.03301824	0	0
26.74712	0.008815561	0.1969205	0	0	0	0	0	0
26.76369	0.008815561	0.1969205	0	0	0	0	0	0
26.78025	0.008815561	0.1969205	0	0	0	0	0	0
26.79705	0.008815561	0.1969205	0	0	0	0	0	0
26.81339	0.008815561	0.1969205	0	0	0	0	0	0
26.83008	0.008815561	0.1969205	0	0	0	0	0	0
26.84659	0.008815561	0.1969205	0	0	0	0	0	0
26.86309	0.009026071	0.1967763	0.01275779	-0.008742667	0.3864771	-0.2648452	0	0
26.87965	0.01405171	0.1933673	0.3033829	-0.2057885	8.789296	-5.959206	0	0
26.89662	0.02386389	0.1867071	0.5782835	-0.3925202	8.197889	-5.568577	0	0
26.91278	0.03193651	0.1812696	0.4993955	-0.3363809	-2.380981	1.694384	0	0
26.92935	0.05415751	0.1667598	1.341263	-0.8758095	25.71999	-16.48015	0	0
26.94592	0.06396525	0.1611787	0.5919959	-0.3368792	-22.61291	16.26495	0	0
26.97905	0.09377677	0.1508362	0.8997136	-0.3121357	6.191292	0.4978402	0	0
27.02875	0.1886	0.1464942	1.90792	-0.08736586	12.17137	2.71349	0	0
27.04532	0.2123798	0.1440764	1.43535	-0.1459353	-7.131294	-0.8838395	0	0
27.06189	0.2262683	0.1411301	0.8383156	-0.177841	-18.01854	-0.9629158	0	0
27.07845	0.2359679	0.1375815	0.5854698	-0.2141953	-7.630902	-1.097175	0	0
27.09526	0.2426491	0.1338484	0.3974668	-0.2220849	-5.632762	-0.2363827	0	0
27.11159	0.2476023	0.1302038	0.3034469	-0.2232788	-2.83769	-0.03603438	0	0
27.12815	0.2523951	0.1266661	0.2892919	-0.213536	-0.4303707	0.296223	0	0
27.14472	0.2578159	0.1226513	0.3271986	-0.2423319	1.144028	-0.8690619	0	0
27.16129	0.2588244	0.1219027	0.06087562	-0.04518316	-8.037643	5.94996	0	0
27.17786	0.2587261	0.1219758	-0.005936277	0.004408135	-2.016387	1.496668	0	0
27.19442	0.2587261	0.1219758	0	0	0.1791572	-0.1330378	0	0
27.21099	0.2587261	0.1219758	0	0	0	0	0	0
27.22756	0.2587014	0.121994	-0.001485868	0.001102259	-0.04484358	0.03326623	0	0
27.24413	0.2587014	0.121994	0	0	0.04484358	-0.03326623	0	0
27.26069	0.2586523	0.1220305	-0.002968138	0.002204068	-0.08957859	0.06651889	0	0
27.27726	0.2586277	0.1220488	-0.001484069	0.001102259	0.0447893	-0.03325266	0	0
27.29383	0.2585293	0.1220853	-0.005939874	0.002204068	-0.1344765	0.03325266	0	0
27.31039	0.2584555	0.1221401	-0.004452208	0.003306326	0.04489787	0.03326623	0	0
27.32696	0.2583817	0.1221949	-0.004454006	0.003305877	-5.428939E-05	-1.356883E-05	0	0
27.34353	0.2583571	0.1222131	-0.001485868	0.001102259	0.0895786	-0.06650532	0	0
27.3601	0.2583325	0.1222314	-0.001484069	0.001101809	5.428939E-05	-1.357235E-05	0	0
27.37666	0.2583325	0.1222314	0	0	0.0447893	-0.03325266	0	0
27.39323	0.2583325	0.1222314	0	0	0	0	0	0
27.4098	0.2583325	0.1222314	0	0	0	0	0	0
27.42651	0.2583325	0.1222314	0	0	0	0	0	0
27.44302	0.2583325	0.1222314	0	0	0	0	0	0
27.47606	0.2583325	0.1222314	0	0	0	0	0	0
27.5092	0.2583325	0.1221949	0	-0.001102034	0	-0.01665177	0	0
27.52577	0.2583079	0.1221401	-0.001485868	-0.003305877	-0.02989572	-0.04434141	0	0
27.61847	0.2582833	0.1221218	-0.0002652064	-0.0001969761	0.01117046	0.02845003	0	0
27.63504	0.2582833	0.1221218	0	0	0.002426945	0.001802559	0	0
27.65168	0.2582341	0.1221218	-0.00295734	0	-0.089063	0	0	0
27.66818	0.2582095	0.1221036	-0.001490073	-0.001106718	0.04427709	-0.03339698	0	0
27.68474	0.2582095	0.1221036	0	0	0.04506909	0.03347404	0	0
27.70131	0.2582095	0.1221036	0	0	0	0	0	0
27.71787	0.2581849	0.1221218	-0.001485868	0.001102259	-0.04484617	0.03326815	0	0
27.73444	0.2581603	0.1221036	-0.001484069	-0.001102259	5.428939E-05	-0.06653246	0	0
27.75174	0.2581357	0.1221218	-0.001423274	0.001055825	0.001795318	0.06372971	0	0
27.76757	0.2581357	0.1221218	0	0	0.04295697	-0.03186669	0	0
27.78426	0.2581357	0.1221218	0	0	0	0	0	0
27.80071	0.2581111	0.1221036	-0.001495085	-0.001110441	-0.04512436	-0.03351509	0	0
27.81729	0.2581111	0.1221036	0	0	0.04527291	0.03362543	0	0
27.83384	0.2580619	0.1221036	-0.00297199	0	-0.08969484	0	0	0
27.85041	0.2580619	0.1221036	0	0	0.08972584	0	0	0
27.86698	0.2578897	0.1221583	-0.01039568	0.003306326	-0.3137422	0.09978513	0	0
27.88383	0.2577421	0.1222314	-0.008755586	0.004331832	0.04906598	0.03067962	0	0
27.90011	0.2575452	0.1223409	-0.01209642	0.006730762	-0.1008266	0.07239986	0	0
27.91668	0.257496	0.1223409	-0.002969937	0	0.2778852	-0.2049398	0	0
27.98295	0.2521977	0.1263012	-0.07995176	0.05976099	-0.9293264	0.7214361	0	0
27.99951	0.2455978	0.1312063	-0.3984177	0.2961041	-3.844617	2.853205	0	0
28.01608	0.2325569	0.140839	-0.7871458	0.581434	-11.73251	8.61177	0	0
28.03265	0.2198111	0.1502187	-0.7693424	0.5661607	0.5373086	-0.4609501	0	0
28.04921	0.1986098	0.1660353	-1.279708	0.95469	-15.40288	11.72584	0	0
28.06578	0.1857547	0.1755383	-0.7759397	0.5736017	15.20377	-11.50127	0	0
28.08248	0.1644487	0.1914908	-1.276039	0.955415	-15.03418	11.47822	0	0
28.09891	0.1352999	0.2127007	-1.773516	1.290483	-15.01476	10.11296	0	0
28.11548	0.1148866	0.2268342	-1.232291	0.853197	16.40031	-13.25072	0	0
28.13205	0.09195051	0.2426148	-1.384425	0.9525179	-4.59169	2.997683	0	0
28.14861	0.07841781	0.2518316	-0.8168353	0.5563307	17.1299	-11.95695	0	0
28.16518	0.06446319	0.26131	-0.8423024	0.5721149	-0.7685986	0.4763682	0	0
28.18175	0.05670231	0.2665747	-0.4684476	0.3177815	11.28296	-7.675799	0	0
28.19831	0.04998465	0.2711574	-0.4055259	0.2766443	1.89909	-1.241593	0	0
28.21488	0.04265832	0.2761145	-0.442218	0.2992081	-1.107435	0.6810156	0	0
28.23145	0.04039906	0.2776532	-0.1363534	0.09286506	9.23048	-6.227088	0	0
28.24811	0.03514342	0.2811952	-0.3155237	0.2126471	-5.392472	3.605067	0	0
28.26461	0.0346966	0.2814993	-0.02707938	0.01842814	8.699259	-5.857492	0	0
28.28115	0.03459146	0.2816066	-0.00635644	0.006489996	0.6271885	-0.3613132	0	0
28.29771	0.03406576	0.2819644	-0.03173097	0.02159186	-0.7664226	0.4561427	0	0
28.31428	0.02801898	0.2860778	-0.3649845	0.2482875	-10.05761	6.841687	0	0
28.33085	0.02339047	0.2892249	-0.2793775	0.1899573	2.583626	-1.760409	0	0
28.34742	0.0130782	0.2962325	-0.6224498	0.4229831	-10.35394	7.032734	0	0
28.36398	0.00939446	0.298699	-0.2223511	0.1488764	12.075	-8.272556	0	0
28.38055	0.00634202	0.3007721	-0.1842669	0.1251457	1.149449	-0.7162355	0	0
28.3972	0.006105187	0.3009329	-0.01422159	0.009656684	5.119011	-3.47666	0	0
28.41371	0.006052558	0.3008614	-0.003187733	-0.004328645	0.3327152	-0.4217139	0	0
28.43025	0.005973613	0.3007721	-0.004774443	-0.005403593	-0.04801692	-0.03253002	0	0
28.44681	0.005789409	0.3006112	-0.0111186	-0.009708511	-0.1916546	-0.1300499	0	0
28.47995	0.004473655	0.2994675	-0.03970955	-0.03451855	-0.5752509	-0.499179	0	0
28.49652	0.004026294	0.2990207	-0.02700272	-0.02696869	0.2556618	0.1519036	0	0
28.51308	0.004026294	0.2990207	0	0	0.8149439	0.8139166	0	0
28.5339	0.004263132	0.2988598	0.01137515	-0.007725186	0.3042473	-0.2066229	0	0
28.55081	0.004342078	0.2987347	0.004668965	-0.007399182	-0.1777449	0.008640599	0	0
28.56704	0.004447339	0.2985918	0.006487276	-0.008810759	0.05487672	-0.04260146	0	0
28.5836	0.004447339	0.2985203	0	-0.00431599	-0.1978363	0.1370727	0	0
28.60035	0.004473655	0.2984309	0.001571756	-0.005338275	0.04718851	-0.03069185	0	0
28.61674	0.004736807	0.2981449	0.0160558	-0.01744698	0.4371546	-0.3654624	0	0
28.63337	0.004999958	0.2979305	0.01581831	-0.01289125	-0.0071912	0.1379447	0	0
28.64988	0.005421	0.297573	0.02550218	-0.02165044	0.2921588	-0.2642617	0	0
28.66644	0.006315705	0.2969653	0.0540481	-0.03671038	0.8633566	-0.4554798	0	0
28.683	0.007710373	0.2959465	0.08418234	-0.06149443	0.9098196	-0.7482858	0	0
28.69957	0.007894573	0.2957142	0.01111957	-0.01402742	-2.205165	1.43264	0	0
28.71643	0.007868258	0.2956963	-0.001560854	-0.00106064	-0.3793766	0.3879437	0	0
28.73294	0.007841945	0.2956784	-0.001593428	-0.001082814	-0.0009760637	-0.0006644101	0	0
28.74945	0.00781563	0.2956606	-0.001593852	-0.001081259	-1.285637E-05	4.708597E-05	0	0
28.76583	0.00781563	0.2956606	0	0	0.048454	0.03287087	0	0
28.78247	0.007789316	0.2956427	-0.001581401	-0.001074622	-0.04788665	-0.03254079	0	0
28.79897	0.007789316	0.2956427	0	0	0.04772678	0.03243215	0	0
28.81554	0.007763002	0.2956248	-0.001588319	-0.001079323	-0.04804066	-0.03264544	0	0
28.83211	0.007710373	0.2955533	-0.003176301	-0.004314997	-0.04792263	-0.0976472	0	0
28.84867	0.007657745	0.2955176	-0.003176667	-0.002156847	-1.103853E-05	0.06512933	0	0
28.86524	0.007578802	0.2954639	-0.004764986	-0.003237969	-0.04793557	-0.03262833	0	0
28.88181	0.007578802	0.2954282	0	-0.002157096	0.1438158	0.03262271	0	0
28.89837	0.007578802	0.2954282	0	0	0	0.06510502	0	0
28.91494	0.007552488	0.2954103	-0.00158853	-0.001079447	-0.0479447	-0.03257966	0	0
28.96464	0.007710373	0.2952673	0.003176789	-0.002877106	0.07191295	-0.02712828	0	0
28.9812	0.007973515	0.2950528	0.01588328	-0.01294648	0.1917468	-0.1519515	0	0
28.99777	0.00931552	0.2941412	0.08100353	-0.05502749	1.965333	-1.270007	0	0
29.01434	0.01597233	0.2896182	0.4018056	-0.2730076	9.681827	-6.578652	0	0
29.0309	0.02147038	0.2858811	0.3319017	-0.2255991	-2.109825	1.430873	0	0
29.04747	0.0247844	0.2836277	0.2000342	-0.1360127	-3.979999	2.703879	0	0
29.06404	0.02688826	0.2821969	0.1269891	-0.08636563	-2.204506	1.498351	0	0
29.08069	0.02686196	0.2822148	-0.00157946	0.001074006	-3.870626	2.632418	0	0
29.09717	0.02686196	0.2822148	0	0	0.04767095	-0.03241544	0	0
29.11374	0.02686196	0.2822148	0	0	0	0	0	0
29.1303	0.02688826	0.2821969	0.001587462	-0.001079447	0.04791246	-0.03257966	0	0
29.14687	0.02688826	0.2821969	0	0	-0.04791246	0.03257966	0	0
29.16344	0.02691455	0.282179	0.001587279	-0.001079323	0.04790419	-0.03257403	0	0
29.18026	0.02696715	0.2821432	0.003126683	-0.002126091	0.0461063	-0.03135151	0	0
29.19657	0.02696715	0.2821432	0	0	-0.09436349	0.06416556	0	0
29.21328	0.02699344	0.2821254	0.001573691	-0.001070083	0.0476532	-0.03240336	0	0
29.22971	0.02699344	0.2821254	0	0	-0.04749683	0.03229704	0	0
29.24627	0.02699344	0.2821254	0	0	0	0	0	0
29.26284	0.02701974	0.2821074	0.001587279	-0.001081122	0.04790419	-0.03262833	0	0
29.27941	0.02701974	0.2821074	0	0	-0.04790419	0.03262833	0	0
29.29634	0.02701974	0.2821074	0	0	0	0	0	0
29.31254	0.02701974	0.2821074	0	0	0	0	0	0
29.32911	0.02701974	0.2821074	0	0	0	0	0	0
29.34588	0.02701974	0.2821074	0	0	0	0	0	0
29.36618	0.02701974	0.2821074	0	0	0	0	0	0
29.38275	0.02701974	0.2821074	0	0	0	0	0	0
29.39932	0.02701974	0.2821074	0	0	0	0	0	0
29.41593	0.02701974	0.2821074	0	0	0	0	0	0
29.43246	0.02701974	0.2821074	0	0	0	0	0	0
29.44902	0.02701974	0.2821074	0	0	0	0	0	0
29.46559	0.02701974	0.2821074	0	0	0	0	0	0
29.48215	0.02701974	0.2821074	0	0	0	0	0	0
29.49899	0.02701974	0.2821074	0	0	0	0	0	0
29.51529	0.02701974	0.2821074	0	0	0	0	0	0
29.53185	0.02701974	0.2821074	0	0	0	0	0	0
29.54842	0.02701974	0.2821074	0	0	0	0	0	0
29.56499	0.02701974	0.2821074	0	0	0	0	0	0
29.58156	0.02701974	0.2821074	0	0	0	0	0	0
29.59812	0.02701974	0.2821074	0	0	0	0	0	0
29.61469	0.02701974	0.2821074	0	0	0	0	0	0
29.63126	0.02701974	0.2821074	0	0	0	0	0	0
29.64782	0.02701974	0.2821074	0	0	0	0	0	0
29.66439	0.02704603	0.2820896	0.001587167	-0.001079323	0.04790355	-0.03257591	0	0
29.68096	0.02704603	0.2820896	0	0	-0.04790355	0.03257591	0	0
29.69752	0.02704603	0.2820896	0	0	0	0	0	0
29.71409	0.02704603	0.2820896	0	0	0	0	0	0
29.73066	0.02704603	0.2820896	0	0	0	0	0	0
29.74722	0.02704603	0.2820896	0	0	0	0	0	0
29.76379	0.02704603	0.2820896	0	0	0	0	0	0
29.78036	0.02704603	0.2820896	0	0	0	0	0	0
29.79693	0.02704603	0.2820896	0	0	0	0	0	0
29.8135	0.02704603	0.2820896	0	0	0	0	0	0
29.86325	0.02704603	0.2820896	0	0	0	0	0	0
29.87976	0.02704603	0.2820896	0	0	0	0	0	0
29.89633	0.02707233	0.2820717	0.001587462	-0.001079447	0.04799812	-0.03263791	0	0
29.91893	0.02707233	0.2820717	0	0	-0.04052822	0.0275585	0	0
29.9355	0.02707233	0.2820717	0	0	0	0	0	0
29.95232	0.02707233	0.2820717	0	0	0	0	0	0
29.96863	0.02709863	0.2820538	0.001611773	-0.001095979	0.04864342	-0.0330767	0	0
29.98534	0.02709863	0.2820538	0	0	-0.04880919	0.03318942	0	0
30.00185	0.02709863	0.2820538	0	0	0	0	0	0
30.01836	0.02709863	0.2820538	0	0	0	0	0	0
30.03537	0.02709863	0.2820538	0	0	0	0	0	0
30.05147	0.02712492	0.2820359	0.001634125	-0.001111177	0.04936629	-0.03356824	0	0
30.06803	0.02709863	0.282018	-0.001587279	-0.001079323	-0.09863596	0.0009753327	0	0
30.08491	0.02709863	0.282018	0	0	0.0474616	0.03227308	0	0
30.10142	0.02709863	0.282018	0	0	0	0	0	0
30.11773	0.02709863	0.282018	0	0	0	0	0	0
30.13444	0.02709863	0.282018	0	0	0	0	0	0
30.15087	0.02709863	0.282018	0	0	0	0	0	0
30.16747	0.02709863	0.282018	0	0	0	0	0	0
30.184	0.02709863	0.282018	0	0	0	0	0	0
30.20099	0.02709863	0.282018	0	0	0	0	0	0
30.2208	0.02709863	0.282018	0	0	0	0	0	0
30.23737	0.02709863	0.282018	0	0	0	0	0	0
30.25394	0.02709863	0.282018	0	0	0	0	0	0
30.329	0.02712492	0.2820001	0.0003503179	-0.0002386072	0.00382306	-0.002603949	0	0
30.34557	0.02712492	0.2820001	0	0	-0.00382306	0.002603949	0	0
30.36214	0.02712492	0.2820001	0	0	0	0	0	0
30.37912	0.02712492	0.2820001	0	0	0	0	0	0
30.39563	0.02712492	0.2820001	0	0	0	0	0	0
30.41184	0.02712492	0.2820001	0	0	0	0	0	0
30.42841	0.02712492	0.2820001	0	0	0	0	0	0
30.44517	0.02712492	0.2820001	0	0	0	0	0	0
30.46154	0.02712492	0.2820001	0	0	0	0	0	0
30.47819	0.02712492	0.2820001	0	0	0	0	0	0
30.49467	0.02712492	0.2820001	0	0	0	0	0	0
30.51124	0.02712492	0.2820001	0	0	0	0	0	0
30.52781	0.02715122	0.2819822	0.001587279	-0.001079323	0.04790419	-0.03257403	0	0
30.54438	0.02715122	0.2819822	0	0	-0.04790143	0.03257216	0	0
30.56094	0.02715122	0.2819822	0	0	0	0	0	0
30.57751	0.02715122	0.2819822	0	0	0	0	0	0
30.59408	0.02715122	0.2819822	0	0	0	0	0	0
30.61078	0.02715122	0.2819822	0	0	0	0	0	0
30.6273	0.02715122	0.2819822	0	0	0	0	0	0
30.64378	0.02715122	0.2819822	0	0	0	0	0	0
30.66035	0.02715122	0.2819822	0	0	0	0	0	0
30.67691	0.02717752	0.2819644	0.001587167	-0.001079323	0.0479008	-0.03257403	0	0
30.69348	0.02717752	0.2819644	0	0	-0.0479008	0.03257403	0	0
30.71005	0.02717752	0.2819644	0	0	0	0	0	0
30.72687	0.02717752	0.2819644	0	0	0	0	0	0
30.74318	0.02720381	0.2819465	0.001612339	-0.001096363	0.04866328	-0.0330902	0	0
30.75975	0.02720381	0.2819465	0	0	-0.04904159	0.03334745	0	0
30.77641	0.02720381	0.2819465	0	0	0	0	0	0
30.79288	0.02720381	0.2819465	0	0	0	0	0	0
30.80945	0.02720381	0.2819465	0	0	0	0	0	0
30.82602	0.02720381	0.2819465	0	0	0	0	0	0
30.84258	0.02720381	0.2819465	0	0	0	0	0	0
30.85915	0.02720381	0.2819465	0	0	0	0	0	0
30.87572	0.02720381	0.2819465	0	0	0	0	0	0
30.89228	0.02723011	0.2819286	0.001587279	-0.001079323	0.04790419	-0.03257403	0	0
30.90885	0.02723011	0.2819286	0	0	-0.04790695	0.03257591	0	0
30.92542	0.02723011	0.2818928	0	-0.002160445	0	-0.06520611	0	0
30.94198	0.02723011	0.2818928	0	0	0	0.06520236	0	0
30.95855	0.0272827	0.281857	0.003174447	-0.002158646	0.09580499	-0.06514806	0	0
30.97512	0.02736159	0.2818034	0.004761726	-0.003239768	0.04790419	-0.03262833	0	0
30.99169	0.02775603	0.2815351	0.02380829	-0.01619344	0.5748265	-0.3909427	0	0
31.00825	0.02846599	0.2810521	0.04285362	-0.02915072	0.5747892	-0.3910513	0	0
31.02509	0.02857117	0.2809806	0.006247743	-0.00425058	-1.095936	0.7454798	0	0
31.0444	0.02857117	0.2809806	0	0	-0.1728466	0.1175942	0	0
31.06097	0.02859746	0.2809627	0.001587167	-0.001079323	0.04423649	-0.03008219	0	0
31.07753	0.02859746	0.2809627	0	0	-0.0479008	0.03257403	0	0
31.09414	0.02859746	0.2809627	0	0	0	0	0	0
31.11067	0.02859746	0.2809627	0	0	0	0	0	0
31.12723	0.02862376	0.2809448	0.001587167	-0.001081122	0.04795324	-0.03266405	0	0
31.1438	0.02862376	0.2809448	0	0	-0.0479008	0.03262833	0	0
31.16037	0.02865005	0.2809269	0.001587055	-0.001079323	0.0478974	-0.03257403	0	0
31.17694	0.02865005	0.2809269	0	0	-0.0478974	0.03257403	0	0
31.1935	0.02867635	0.280909	0.001587167	-0.001079323	0.0479008	-0.03257403	0	0
31.21007	0.02865005	0.2808912	-0.001587167	-0.001079323	-0.09580159	0	0	0
31.22664	0.02865005	0.2808912	0	0	0.0479008	0.03257403	0	0
31.2432	0.02867635	0.2808732	0.001587167	-0.001081122	0.0479008	-0.03262833	0	0
31.25977	0.02867635	0.2808732	0	0	-0.04790355	0.03263021	0	0
31.27634	0.02867635	0.2808732	0	0	0	0	0	0
31.2929	0.02867635	0.2808732	0	0	0	0	0	0
31.30979	0.02867635	0.2808732	0	0	0	0	0	0
31.3263	0.02867635	0.2808732	0	0	0	0	0	0
31.3426	0.02867635	0.2808732	0	0	0	0	0	0
31.35917	0.02867635	0.2808732	0	0	0	0	0	0
31.37574	0.02867635	0.2808732	0	0	0	0	0	0
31.39231	0.02867635	0.2808732	0	0	0	0	0	0
31.40887	0.02867635	0.2808732	0	0	0	0	0	0
31.42544	0.02867635	0.2808732	0	0	0	0	0	0
31.44201	0.02867635	0.2808732	0	0	0	0	0	0
31.45857	0.02867635	0.2808732	0	0	0	0	0	0
31.47541	0.02867635	0.2808732	0	0	0	0	0	0
31.49192	0.02867635	0.2808732	0	0	0	0	0	0
31.50843	0.02867635	0.2808732	0	0	0	0	0	0
31.52494	0.02867635	0.2808732	0	0	0	0	0	0
31.54146	0.02867635	0.2808732	0	0	0	0	0	0
31.55797	0.02867635	0.2808732	0	0	0	0	0	0
31.57454	0.02867635	0.2808732	0	0	0	0	0	0
31.59111	0.02867635	0.2808732	0	0	0	0	0	0
31.60768	0.02867635	0.2808732	0	0	0	0	0	0
31.62424	0.02867635	0.2808732	0	0	0	0	0	0
31.64081	0.02867635	0.2808732	0	0	0	0	0	0
31.67394	0.02870264	0.2808554	0.0007935273	-0.0005396615	0.0159658	-0.01085801	0	0
31.72364	0.02870264	0.2808554	0	0	-0.009579701	0.006514957	0	0
31.74021	0.02870264	0.2808554	0	0	0	0	0	0
31.75678	0.02870264	0.2808554	0	0	0	0	0	0
31.77335	0.02870264	0.2808554	0	0	0	0	0	0
31.78991	0.02870264	0.2808554	0	0	0	0	0	0
31.80665	0.02870264	0.2808554	0	0	0	0	0	0
31.82305	0.02870264	0.2808554	0	0	0	0	0	0
31.83961	0.02870264	0.2808554	0	0	0	0	0	0
31.86029	0.02870264	0.2808554	0	0	0	0	0	0
31.87685	0.02870264	0.2808554	0	0	0	0	0	0
31.89371	0.02872894	0.2808375	0.001559517	-0.00106052	0.04665275	-0.03172533	0	0
31.90999	0.02872894	0.2808375	0	0	-0.04706632	0.03200657	0	0
31.92656	0.02872894	0.2808375	0	0	0	0	0	0
31.94325	0.02872894	0.2808375	0	0	0	0	0	0
31.95976	0.02872894	0.2808375	0	0	0	0	0	0
31.97625	0.02872894	0.2808375	0	0	0	0	0	0
31.99282	0.02872894	0.2808375	0	0	0	0	0	0
32.00939	0.02872894	0.2808375	0	0	0	0	0	0
32.02596	0.02872894	0.2808375	0	0	0	0	0	0
32.04252	0.02872894	0.2808375	0	0	0	0	0	0
32.05933	0.02872894	0.2808375	0	0	0	0	0	0
32.07566	0.02872894	0.2808375	0	0	0	0	0	0
32.09222	0.02872894	0.2808375	0	0	0	0	0	0
32.10879	0.02872894	0.2808375	0	0	0	0	0	0
32.12538	0.02872894	0.2808375	0	0	0	0	0	0
32.14193	0.02872894	0.2808375	0	0	0	0	0	0
32.15849	0.02872894	0.2808375	0	0	0	0	0	0
32.17506	0.02872894	0.2808375	0	0	0	0	0	0
32.19163	0.02872894	0.2808375	0	0	0	0	0	0
32.20819	0.02872894	0.2808375	0	0	0	0	0	0
32.22496	0.02872894	0.2808375	0	0	0	0	0	0
32.24147	0.02872894	0.2808375	0	0	0	0	0	0
32.2579	0.02872894	0.2808375	0	0	0	0	0	0
32.27449	0.02872894	0.2808375	0	0	0	0	0	0
32.29103	0.02872894	0.2808375	0	0	0	0	0	0
32.3076	0.02872894	0.2808375	0	0	0	0	0	0
32.32417	0.02872894	0.2808375	0	0	0	0	0	0
32.34073	0.02872894	0.2808375	0	0	0	0	0	0
32.3573	0.02872894	0.2808375	0	0	0	0	0	0
32.37387	0.02872894	0.2808375	0	0	0	0	0	0
32.39043	0.02872894	0.2808375	0	0	0	0	0	0
32.407	0.02872894	0.2808375	0	0	0	0	0	0
32.42356	0.02872894	0.2808375	0	0	0	0	0	0
32.44013	0.02872894	0.2808375	0	0	0	0	0	0
32.4567	0.02872894	0.2808375	0	0	0	0	0	0
32.47364	0.02872894	0.2808375	0	0	0	0	0	0
32.48983	0.02872894	0.2808375	0	0	0	0	0	0
32.5064	0.02872894	0.2808375	0	0	0	0	0	0
32.52297	0.02875523	0.2808196	0.001587055	-0.001079323	0.0478974	-0.03257403	0	0
32.53954	0.02875523	0.2808196	0	0	-0.0478974	0.03257403	0	0
32.5562	0.02875523	0.2808196	0	0	0	0	0	0
32.57267	0.02875523	0.2808196	0	0	0	0	0	0
32.58924	0.02875523	0.2808196	0	0	0	0	0	0
32.6058	0.02875523	0.2808196	0	0	0	0	0	0
32.62237	0.02875523	0.2808196	0	0	0	0	0	0
32.65551	0.02875523	0.2808196	0	0	0	0	0	0
32.67228	0.02875523	0.2808196	0	0	0	0	0	0
32.6888	0.02875523	0.2808196	0	0	0	0	0	0
32.70521	0.02872894	0.2808017	-0.00160218	-0.001089609	-0.04866202	-0.03309403	0	0
32.72482	0.02872894	0.2808017	0	0	0.0444823	0.03025149	0	0
32.74138	0.02872894	0.2808017	0	0	0	0	0	0
32.75795	0.02872894	0.2808017	0	0	0	0	0	0
32.77486	0.02872894	0.2808017	0	0	0	0	0	0
32.79137	0.02872894	0.2808017	0	0	0	0	0	0
32.80765	0.02872894	0.2808017	0	0	0	0	0	0
32.82421	0.02872894	0.2808017	0	0	0	0	0	0
32.8409	0.02872894	0.2808017	0	0	0	0	0	0
32.85735	0.02875523	0.2807838	0.001598464	-0.001088894	0.04824175	-0.03286289	0	0
32.87393	0.02872894	0.2808017	-0.001585959	0.001080376	-0.09641689	0.06568043	0	0
32.89048	0.02872894	0.2808017	0	0	0.04786434	-0.0326058	0	0
32.90705	0.02872894	0.2808017	0	0	0	0	0	0
32.92362	0.02872894	0.2808017	0	0	0	0	0	0
32.94019	0.02872894	0.2808017	0	0	0	0	0	0
32.95675	0.02872894	0.2808017	0	0	0	0	0	0
32.97332	0.02872894	0.2808017	0	0	0	0	0	0
32.98989	0.02872894	0.2808017	0	0	0	0	0	0
33.04711	0.02872894	0.2808017	0	0	0	0	0	0
33.06368	0.02872894	0.2808017	0	0	0	0	0	0
33.08025	0.02872894	0.2808017	0	0	0	0	0	0
33.09682	0.02875523	0.2807838	0.001587055	-0.001081122	0.04789189	-0.03262457	0	0
33.11338	0.02878152	0.2807659	0.001587167	-0.001079323	3.393965E-06	5.42929E-05	0	0
33.12995	0.02886041	0.2806765	0.004761276	-0.005398414	0.09579481	-0.1303504	0	0
33.14663	0.02909705	0.2804082	0.01419233	-0.0160915	0.2837152	-0.3216809	0	0
33.16314	0.02933369	0.279961	0.01433311	-0.02708743	0.004242389	-0.3313618	0	0
33.17965	0.02938627	0.2769912	0.003184374	-0.1798337	-0.3375966	-4.625334	0	0
33.19622	0.02891299	0.2672551	-0.02856732	-0.5876734	-0.959815	-12.3285	0	0
33.21278	0.02909705	0.2481745	0.01110961	-1.15171	1.197452	-17.02265	0	0
33.22935	0.02904446	0.231738	-0.003174109	-0.9921066	-0.4310834	4.816832	0	0
33.2462	0.02886041	0.2083084	-0.01092607	-1.390833	-0.2320047	-11.93329	0	0
33.26249	0.02854488	0.1899568	-0.01937093	-1.126648	-0.2548664	7.973128	0	0
33.27905	0.02830823	0.1716483	-0.01428428	-1.1051	0.1548165	0.6558182	0	0
33.29573	0.02759825	0.1470394	-0.04255997	-1.475206	-0.8504248	-11.13139	0	0
33.31224	0.02741418	0.1408026	-0.01114913	-0.3777564	0.9463469	33.06401	0	0
33.32875	0.02657269	0.1157091	-0.05096853	-1.519898	-1.205917	-34.58936	0	0
33.34532	0.02604674	0.09122168	-0.0317538	-1.478405	0.5809719	1.254578	0	0
33.36189	0.02575746	0.07378301	-0.01746097	-1.0526	0.431408	12.85227	0	0
33.37845	0.0240743	0.0525446	-0.101596	-1.281953	-2.5392	-6.921868	0	0
33.39502	0.02310115	0.03821604	-0.05873901	-0.8648741	1.293427	12.58746	0	0
33.41182	0.02133887	0.02532726	-0.1049224	-0.7673664	-1.384254	2.9226	0	0
33.42815	0.01831374	0.01156665	-0.1851548	-0.842228	-2.42142	-2.259327	0	0
33.44484	0.01531459	0.003377958	-0.179746	-0.4907673	0.163785	10.64264	0	0
33.46129	0.01142056	-0.005848801	-0.2367343	-0.5609322	-1.719909	-2.11758	0	0
33.47786	0.006763055	-0.009678893	-0.2809979	-0.2310784	-1.340355	9.988355	0	0
33.51099	0.00210526	-0.01305992	-0.1406211	-0.1020747	2.824604	2.595758	0	0
33.52755	0.001499999	-0.01349461	-0.03653364	-0.02623795	2.094726	1.526191	0	0
33.54412	-0.001578946	-0.01570677	-0.1858455	-0.1335264	-4.506241	-3.237971	0	0
33.56069	-0.00347367	-0.0171067	-0.1143658	-0.08450031	2.157262	1.479609	0	0
33.57743	-0.003499986	-0.01708778	-0.001571398	0.001129943	3.385821	2.570418	0	0
33.59394	-0.00347367	-0.0171067	0.001593909	-0.00114613	0.09517851	-0.06843986	0	0
33.61039	-0.00347367	-0.0171067	0	0	-0.04837157	0.03478248	0	0
33.62695	-0.00347367	-0.0171067	0	0	0	0	0	0
33.64352	-0.003499986	-0.01708778	-0.001588404	0.001142171	-0.04793812	0.03447079	0	0
33.66465	-0.003499986	-0.01708778	0	0	0.04213199	-0.03029579	0	0
33.68122	-0.003499986	-0.01708778	0	0	0	0	0	0
33.69779	-0.003499986	-0.01708778	0	0	0	0	0	0
33.71436	-0.003499986	-0.01708778	0	0	0	0	0	0
33.73092	-0.003499986	-0.01708778	0	0	0	0	0	0
33.74755	-0.003499986	-0.01708778	0	0	0	0	0	0
33.76405	-0.003499986	-0.01708778	0	0	0	0	0	0
33.78062	-0.003499986	-0.01708778	0	0	0	0	0	0
33.79719	-0.003499986	-0.01708778	0	0	0	0	0	0
33.81376	-0.003499986	-0.01708778	0	0	0	0	0	0
33.83032	-0.003499986	-0.01708778	0	0	0	0	0	0
33.84689	-0.003499986	-0.01708778	0	0	0	0	0	0
33.86345	-0.00347367	-0.0171067	0.001588404	-0.001142171	0.04794364	-0.03447476	0	0
33.88002	-0.00347367	-0.0171067	0	0	-0.04793812	0.03447079	0	0
33.89666	-0.003421039	-0.01714455	0.00316297	-0.00227428	0.09525027	-0.0684881	0	0
33.91315	-0.003078938	-0.01739055	0.02074004	-0.01491392	0.530477	-0.3814651	0	0
33.94629	0.003394724	-0.02204925	0.1953755	-0.1405998	3.518803	-2.532498	0	0
33.96286	0.005342055	-0.02345199	0.1175411	-0.08466986	-1.566031	1.125313	0	0
33.97942	0.00873662	-0.02589882	0.2048964	-0.1476909	2.636386	-1.901978	0	0
33.99599	0.01023648	-0.02698059	0.09053204	-0.06529579	-3.451522	2.486688	0	0
34.01256	0.01021017	-0.02696161	-0.001588291	0.001145769	-2.780197	2.00521	0	0
34.02913	0.01021017	-0.02696161	0	0	0.04793473	-0.03457937	0	0
34.04569	0.01021017	-0.02696161	0	0	0	0	0	0
34.06228	0.01021017	-0.02696161	0	0	0	0	0	0
34.07882	0.01021017	-0.02696161	0	0	0	0	0	0
34.09539	0.01021017	-0.02696161	0	0	0	0	0	0
34.11196	0.01021017	-0.02696161	0	0	0	0	0	0
34.12852	0.01021017	-0.02696161	0	0	0	0	0	0
34.14509	0.01021017	-0.02696161	0	0	0	0	0	0
34.16185	0.01021017	-0.02696161	0	0	0	0	0	0
34.17822	0.01021017	-0.02696161	0	0	0	0	0	0
34.21136	0.01021017	-0.02696161	0	0	0	0	0	0
34.22792	0.01021017	-0.02696161	0	0	0	0	0	0
34.24449	0.01021017	-0.02696161	0	0	0	0	0	0
34.26106	0.01021017	-0.02696161	0	0	0	0	0	0
34.27763	0.01018386	-0.02694263	-0.001588235	0.001145656	-0.04793303	0.03457598	0	0
34.29445	0.01018386	-0.02694263	0	0	0.04757156	-0.03431524	0	0
34.31076	0.01018386	-0.02694263	0	0	0	0	0	0
34.32733	0.01015755	-0.02692365	-0.001588291	0.001145769	-0.04830175	0.03484413	0	0
34.37751	0.01013123	-0.02690467	-0.0005243808	0.0003782565	0.01593975	-0.01149904	0	0
34.3936	0.01013123	-0.02690467	0	0	0.007912923	-0.005707902	0	0
34.41016	0.01013123	-0.02690467	0	0	0	0	0	0
34.42673	0.01013123	-0.02690467	0	0	0	0	0	0
34.4433	0.01013123	-0.02690467	0	0	0	0	0	0
34.45987	0.01013123	-0.02690467	0	0	0	0	0	0
34.47643	0.01013123	-0.02690467	0	0	0	0	0	0
34.49309	0.01013123	-0.02690467	0	0	0	0	0	0
34.50961	0.01010492	-0.02688568	-0.001593428	0.001149474	-0.04803445	0.03465131	0	0
34.52613	0.009894414	-0.02673384	-0.01273543	0.009186517	-0.337198	0.2432305	0	0
34.54622	0.009262893	-0.02624039	-0.03144336	0.02456866	-0.5109578	0.4201227	0	0
34.56314	0.008868189	-0.02580395	-0.02331969	0.02578581	0.2194982	0.03288671	0	0
34.57935	0.008026144	-0.02512094	-0.05195035	0.04213848	-0.8640751	0.4935246	0	0
34.59592	7.894737E-05	-0.01886695	-0.4796937	0.3774913	-13.05055	10.2317	0	0
34.61249	-0.01057855	-0.01007537	-0.643288	0.5306613	-4.937286	4.62268	0	0
34.62919	-0.01663005	-0.005056927	-0.3622659	0.3004233	8.446257	-6.919917	0	0
34.6457	-0.02573116	0.003829226	-0.5512483	0.5382282	-5.689743	7.159656	0	0
34.66219	-0.03540625	0.01745194	-0.5868271	0.826264	-1.078239	8.729115	0	0
34.67876	-0.038008	0.03048078	-0.1570422	0.7864221	13.00237	-1.205345	0	0
34.69532	-0.0382445	0.03970531	-0.01427495	0.556794	4.308724	-6.93019	0	0
34.71225	-0.03711453	0.06084611	0.06674534	1.248746	2.418743	20.65722	0	0
34.72846	-0.03661521	0.06855772	0.03081298	0.4758836	-1.084441	-23.32503	0	0
34.74503	-0.03506457	0.08171006	0.09359664	0.7938763	1.915768	9.703162	0	0
34.76159	-0.03227826	0.08976959	0.1681821	0.4864747	2.250994	-9.277398	0	0
34.77816	-0.03070088	0.09531806	0.09521091	0.3349063	-2.202276	-4.574344	0	0
34.79482	-0.0284397	0.1072373	0.135766	0.7156562	1.220723	11.46071	0	0
34.81133	-0.02620453	0.1218479	0.1353516	0.884753	-0.01249461	5.09807	0	0
34.82786	-0.0241006	0.1302402	0.1272572	0.5076101	-0.2449376	-11.41241	0	0
34.84443	-0.020918	0.138528	0.1921019	0.5002518	1.959045	-0.2223047	0	0
34.86136	-0.01757714	0.1502914	0.1972938	0.6946842	0.1549801	5.803835	0	0
34.87756	-0.01641958	0.1562456	0.07146674	0.367607	-3.797905	-9.872346	0	0
34.89413	-0.01170999	0.1693132	0.2842712	0.7887603	6.494982	12.85398	0	0
34.9109	-0.008473481	0.1728789	0.1930008	0.2126312	-2.737838	-17.28216	0	0
34.92726	-0.0006842104	0.1781966	0.4759698	0.3249463	8.540021	3.389678	0	0
34.94392	0.004710491	0.1819021	0.3238353	0.2224317	-4.60681	-3.104259	0	0
34.96043	0.008868189	0.1847927	0.2518289	0.1750845	-2.170908	-1.427464	0	0
34.97696	0.01257828	0.1873391	0.2244586	0.1540539	-0.8284195	-0.6365356	0	0
35.01009	0.01318345	0.1877905	0.01826383	0.01362331	-4.151834	-2.82764	0	0
35.02666	0.007631431	0.1931147	-0.3351203	0.3213711	-7.110103	6.191899	0	0
35.04323	0.003973663	0.1956942	-0.2207833	0.1556977	3.450698	-5.000033	0	0
35.0598	-0.002236838	0.2000214	-0.3748666	0.2611908	-4.650244	3.183786	0	0
35.07636	-0.01052593	0.2060214	-0.5003304	0.3621587	-3.786504	3.04722	0	0
35.09293	-0.01518304	0.2093167	-0.2811041	0.1989066	6.616262	-4.926958	0	0
35.10954	-0.01957645	0.2123947	-0.2645164	0.1853208	0.4999856	-0.4095032	0	0
35.12606	-0.02070757	0.2131686	-0.06844786	0.04682721	5.91736	-4.179745	0	0
35.14263	-0.02070757	0.2131686	0	0	2.06838	-1.41504	0	0
35.1592	-0.02073387	0.2132226	-0.001587729	0.003258656	-0.04791776	0.09834644	0	0
