Time	Pos X	Pos Y	Vel X	Vel Y	Acc X	Acc YForce X	Force Y
0.01656673	5.263158E-05	0.165202	-8.248388E-07	-0.002589035	1.293018E-08	4.058572E-05	0	0
0.04872792	5.263158E-05	0.165202	0	0	-1.293334E-08	-4.059565E-05	0	0
0.06529505	5.263158E-05	0.165202	0	0	0	0	0	0
0.09842931	5.263158E-05	0.165202	0	0	0	0	0	0
0.1152507	5.263158E-05	0.165202	0	0	0	0	0	0
0.1315624	5.263158E-05	0.165202	0	0	0	0	0	0
0.1481287	5.263158E-05	0.165202	0	0	0	0	0	0
0.1646978	5.263158E-05	0.165202	0	0	0	0	0	0
0.1812902	5.263158E-05	0.165202	0	0	0	0	0	0
0.1978313	5.263158E-05	0.165202	0	0	0	0	0	0
0.2143976	5.263158E-05	0.165202	0	0	0	0	0	0
0.231324	5.263158E-05	0.165202	0	0	0	0	0	0
0.2475287	5.263158E-05	0.165202	0	0	0	0	0	0
0.2640955	5.263158E-05	0.165202	0	0	0	0	0	0
0.2808568	5.263158E-05	0.165202	0	0	0	0	0	0
0.297229	5.263158E-05	0.165202	0	0	0	0	0	0
0.3137953	5.263158E-05	0.165202	0	0	0	0	0	0
0.330392	5.263158E-05	0.165202	0	0	0	0	0	0
0.3469288	5.263158E-05	0.165202	0	0	0	0	0	0
0.3634951	5.263158E-05	0.165202	0	0	0	0	0	0
0.3800626	5.263158E-05	0.165202	0	0	0	0	0	0
0.396629	5.263158E-05	0.165202	0	0	0	0	0	0
0.4131953	2.631579E-05	0.1651839	-0.00158851	-0.001093773	-0.04794391	-0.03301192	0	0
0.496029	2.631579E-05	0.1651839	0	0	0.01598099	0.01100376	0	0
0.5125957	2.631579E-05	0.1651839	0	0	0	0	0	0
0.529162	2.631579E-05	0.1651839	0	0	0	0	0	0
0.5460446	2.631579E-05	0.1651839	0	0	0	0	0	0
0.5622955	5.263158E-05	0.1651658	0.001619343	-0.001114086	0.04887335	-0.03362421	0	0
0.5788622	5.263158E-05	0.1651658	0	0	-0.04934363	0.03394776	0	0
0.5954286	5.263158E-05	0.1651658	0	0	0	0	0	0
0.6120901	5.263158E-05	0.1651658	0	0	0	0	0	0
0.6286027	5.263158E-05	0.1651658	0	0	0	0	0	0
0.6451288	5.263158E-05	0.1651658	0	0	0	0	0	0
0.6616955	5.263158E-05	0.1651658	0	0	0	0	0	0
0.6786377	5.263158E-05	0.1651658	0	0	0	0	0	0
0.6948286	5.263158E-05	0.1651658	0	0	0	0	0	0
0.7113962	5.263158E-05	0.1651658	0	0	0	0	0	0
0.7279625	5.263158E-05	0.1651658	0	0	0	0	0	0
0.7476051	5.263158E-05	0.1651658	0	0	0	0	0	0
0.7641727	2.631579E-05	0.1651839	-0.001588396	0.001092795	-0.043866	0.03017922	0	0
0.7807394	2.631579E-05	0.1651839	0	0	0.04793813	-0.0329808	0	0
0.7973062	2.631579E-05	0.1651839	0	0	0	0	0	0
0.8138733	2.631579E-05	0.1651839	0	0	0	0	0	0
0.8304392	2.631579E-05	0.1651839	0	0	0	0	0	0
0.8472562	5.263158E-05	0.1651658	0.001564829	-0.001076582	0.04687511	-0.03224945	0	0
0.8635723	5.263158E-05	0.1651658	0	0	-0.0472286	0.03249265	0	0
0.8802807	5.263158E-05	0.1651658	0	0	0	0	0	0
0.8967062	5.263158E-05	0.1651658	0	0	0	0	0	0
0.9133092	5.263158E-05	0.1651658	0	0	0	0	0	0
0.9298396	2.631579E-05	0.1651476	-0.001591964	-0.001096151	-0.04804703	-0.03308292	0	0
0.9464055	2.631579E-05	0.1651476	0	0	0.04810094	0.03312004	0	0
0.9629726	2.631579E-05	0.1651476	0	0	0	0	0	0
0.9798505	2.631579E-05	0.1651476	0	0	0	0	0	0
0.9963643	5.263158E-05	0.1651295	0.001593561	-0.001097251	0.04772333	-0.03286004	0	0
1.012874	5.263158E-05	0.1651295	0	0	-0.04825514	0.03322621	0	0
1.02924	5.263158E-05	0.1651295	0	0	0	0	0	0
1.045897	5.263158E-05	0.1650933	0	-0.002175624	0	-0.06588305	0	0
1.062409	5.263158E-05	0.1650933	0	0	0	0.06559134	0	0
1.078939	5.263158E-05	0.1650933	0	0	0	0	0	0
1.095506	5.263158E-05	0.1650933	0	0	0	0	0	0
1.112073	2.631579E-05	0.1650752	-0.001588504	-0.001093769	-0.04794253	-0.03301097	0	0
1.128641	2.631579E-05	0.1650752	0	0	0.04794132	0.03301014	0	0
1.145467	2.631579E-05	0.1650752	0	0	0	0	0	0
1.161979	0	0.165057	-0.001593711	-0.001096452	-0.04780419	-0.03288864	0	0
1.178339	0	0.165057	0	0	0.04848202	0.03335498	0	0
1.195002	0	0.165057	0	0	0	0	0	0
1.211474	0	0.165057	0	0	0	0	0	0
1.228041	0	0.165057	0	0	0	0	0	0
1.244608	0	0.165057	0	0	0	0	0	0
1.294307	2.631579E-05	0.1650389	0.0005295027	-0.0003645906	0.007990628	-0.00550197	0	0
1.37714	0	0.1650208	-0.0003176944	-0.0002187494	-0.006392363	0.001100416	0	0
1.393706	0	0.1650208	0	0	0.003196135	0.002200708	0	0
1.410655	-2.631579E-05	0.1650027	-0.001552618	-0.00106906	-0.04632578	-0.03189775	0	0
1.42684	0	0.1649846	0.001626016	-0.001119598	0.09593415	-0.001525294	0	0
1.443406	-2.631579E-05	0.1649664	-0.00158847	-0.001093745	-0.09814935	0.0007893722	0	0
1.459973	-2.631579E-05	0.1649664	0	0	0.04794149	0.03301026	0	0
1.47654	-2.631579E-05	0.1649302	0	-0.002186592	0	-0.06599336	0	0
1.493106	-2.631579E-05	0.1649302	0	0	0	0.06599408	0	0
1.509726	-2.631579E-05	0.1649302	0	0	0	0	0	0
1.526241	-2.631579E-05	0.1649302	0	0	0	0	0	0
1.542807	-2.631579E-05	0.1649302	0	0	0	0	0	0
1.559374	-2.631579E-05	0.1649302	0	0	0	0	0	0
1.575941	-5.263158E-05	0.1649121	-0.00158847	-0.001093745	-0.04794201	-0.03301061	0	0
1.592507	-5.263158E-05	0.1649121	0	0	0.04794201	0.03301061	0	0
1.609074	-5.263158E-05	0.1649121	0	0	0	0	0	0
1.62564	-5.263158E-05	0.1649121	0	0	0	0	0	0
1.649224	-5.263158E-05	0.1649121	0	0	0	0	0	0
1.665835	-5.263158E-05	0.1649121	0	0	0	0	0	0
1.682358	-5.263158E-05	0.1649121	0	0	0	0	0	0
1.698925	-5.263158E-05	0.1649121	0	0	0	0	0	0
1.715492	-5.263158E-05	0.1649121	0	0	0	0	0	0
1.732059	-5.263158E-05	0.1649121	0	0	0	0	0	0
1.748894	-5.263158E-05	0.1649121	0	0	0	0	0	0
1.765192	-5.263158E-05	0.1649121	0	0	0	0	0	0
1.781759	-7.894737E-05	0.164894	-0.00158847	-0.001093745	-0.04833311	-0.0332799	0	0
1.79843	-5.263158E-05	0.1648759	0.001578543	-0.00108691	0.09528376	0.0002056568	0	0
1.814942	-5.263158E-05	0.1648759	0	0	-0.04757103	0.03275516	0	0
1.831459	-5.263158E-05	0.1648759	0	0	0	0	0	0
1.848025	-5.263158E-05	0.1648759	0	0	0	0	0	0
1.864592	-5.263158E-05	0.1648759	0	0	0	0	0	0
1.897726	-5.263158E-05	0.1648396	0	-0.001093734	0	-0.0220066	0	0
1.914512	-5.263158E-05	0.1648396	0	0	0	0.02190954	0	0
1.930859	-5.263158E-05	0.1648396	0	0	0	0	0	0
1.947425	-5.263158E-05	0.1648396	0	0	0	0	0	0
1.963992	-5.263158E-05	0.1648396	0	0	0	0	0	0
1.980558	-5.263158E-05	0.1648396	0	0	0	0	0	0
1.997125	-7.894737E-05	0.1648215	-0.00158847	-0.001093745	-0.04794271	-0.03301109	0	0
2.013692	-7.894737E-05	0.1648215	0	0	0.0479415	0.03301026	0	0
2.030259	-7.894737E-05	0.1648215	0	0	0	0	0	0
2.046825	-7.894737E-05	0.1648215	0	0	0	0	0	0
2.063392	-7.894737E-05	0.1648215	0	0	0	0	0	0
2.079959	-7.894737E-05	0.1648215	0	0	0	0	0	0
2.096639	-7.894737E-05	0.1648215	0	0	0	0	0	0
2.113094	-7.894737E-05	0.1648215	0	0	0	0	0	0
2.129664	-7.894737E-05	0.1648215	0	0	0	0	0	0
2.146225	-7.894737E-05	0.1648215	0	0	0	0	0	0
2.162792	-0.0001052632	0.1648034	-0.00158847	-0.001093745	-0.04794943	-0.03301572	0	0
2.179358	-7.894737E-05	0.1647853	0.001588515	-0.001092877	0.09588574	2.61972E-05	0	0
2.195926	-7.894737E-05	0.1647853	0	0	-0.04794287	0.03298406	0	0
2.22906	-0.0001052632	0.1648034	-0.0007942063	0.0005464033	-0.01597939	0.0109936	0	0
2.245626	-0.0001052632	0.1648034	0	0	0.01597992	-0.01099397	0	0
2.262258	-0.0001052632	0.1648034	0	0	0	0	0	0
2.278759	-0.0001052632	0.1648034	0	0	0	0	0	0
2.295326	-0.0001052632	0.1648034	0	0	0	0	0	0
2.311892	-0.0001052632	0.1648034	0	0	0	0	0	0
2.32846	-0.0001052632	0.1648034	0	0	0	0	0	0
2.345316	-0.0001052632	0.1648034	0	0	0	0	0	0
2.361592	-7.894737E-05	0.1648215	0.001616858	0.001113292	0.04879932	0.03360092	0	0
2.378159	-0.0001052632	0.1648396	-0.001588515	0.001093777	-0.09759934	-0.0005942108	0	0
2.394725	-0.0001842105	0.164894	-0.00476541	0.003281236	-0.095883	0.0660205	0	0
2.411292	-0.0002105263	0.1649121	-0.00158847	0.001093745	0.095883	-0.06602051	0	0
2.427874	-0.0002631579	0.1649483	-0.003174016	0.002184579	-0.04783123	0.03290723	0	0
2.463883	-0.0003421053	0.1649302	-0.002192416	-0.0005027842	0.01866468	-0.05109899	0	0
2.497016	-0.000368421	0.1649121	-0.0007942458	-0.0005468806	0.02022161	-0.000637764	0	0
2.513584	-0.0006842104	0.1651295	-0.01906109	0.01312277	-0.3675402	0.2750418	0	0
2.53015	-0.002815782	0.1665968	-0.1286656	0.08857	-3.307919	2.277035	0	0
2.54696	-0.006368335	0.1690416	-0.2113454	0.1454424	-2.477225	1.703992	0	0
2.563471	-0.01028911	0.1716664	-0.2374581	0.1589683	-0.7836785	0.40593	0	0
2.57985	-0.02325896	0.1802936	-0.7918645	0.5267284	-16.85622	11.18141	0	0
2.596493	-0.03006988	0.184576	-0.4092291	0.2573014	11.58723	-8.158975	0	0
2.613005	-0.0473593	0.1921224	-1.047087	0.4570281	-19.23856	6.023993	0	0
2.629551	-0.06270715	0.1974795	-0.9275994	0.3237755	3.614526	-4.03091	0	0
2.646117	-0.0862591	0.203067	-1.421701	0.3372884	-14.92222	0.4080994	0	0
2.662684	-0.1044865	0.207192	-1.100208	0.2489845	9.703021	-2.665113	0	0
2.679251	-0.1219705	0.2104869	-1.055365	0.1988836	1.353397	-1.512071	0	0
2.695817	-0.1390443	0.2133305	-1.030638	0.1716546	0.7462978	-0.8218073	0	0
2.712576	-0.1589118	0.2162452	-1.185506	0.1739198	-4.647226	0.06797353	0	0
2.729088	-0.1716877	0.2174144	-0.7737344	0.07080885	12.37646	-3.099163	0	0
2.795217	-0.2058325	0.2169288	-0.5163351	-0.007343862	3.114663	-0.9456879	0	0
2.811784	-0.2095365	0.2142842	-0.2235774	-0.1596293	3.540169	-1.84151	0	0
2.828351	-0.2124552	0.2121968	-0.1761752	-0.1259975	1.430622	1.015024	0	0
2.844917	-0.2147674	0.2105409	-0.1395753	-0.09995736	1.104619	0.7859146	0	0
2.861682	-0.2148679	0.2105049	-0.005993394	-0.002147418	4.007719	2.93449	0	0
2.878051	-0.2148679	0.2105049	0	0	0.1808862	0.06481107	0	0
2.894706	-0.2148679	0.2105049	0	0	0	0	0	0
2.911221	-0.2148428	0.2104869	0.001520297	-0.001089922	0.04583319	-0.03285845	0	0
2.927751	-0.2148428	0.2104869	0	0	-0.0460068	0.03298292	0	0
2.944317	-0.2148177	0.2104329	0.001516536	-0.003259743	0.04582257	-0.09849406	0	0
2.961251	-0.2148177	0.2103969	0	-0.002125892	-0.04526851	0.03384538	0	0
2.97745	-0.2148177	0.2102529	0	-0.008889805	0	-0.2041412	0	0
2.994018	-0.2148177	0.2101808	0	-0.004346974	0	0.1386442	0	0
3.010584	-0.2147926	0.2100548	0.001516493	-0.007605849	0.0457685	-0.09835446	0	0
3.043717	-0.2148428	0.2098748	-0.001516536	-0.005433355	-0.06102759	0.04371276	0	0
3.076851	-0.2148177	0.2098208	0.0007582353	-0.001630251	0.03432761	0.05739102	0	0
3.093418	-0.2148428	0.2097308	-0.001516427	-0.005432514	-0.04576651	-0.07650206	0	0
3.109985	-0.2149182	0.2094968	-0.004548578	-0.01412695	-0.09151116	-0.2624004	0	0
3.126868	-0.2185324	0.2068318	-0.2140714	-0.1578431	-6.263737	-4.296431	0	0
3.143118	-0.2252184	0.2019859	-0.4114568	-0.2982184	-5.957361	-4.236719	0	0
3.159893	-0.2349975	0.1948465	-0.5829741	-0.4256106	-5.193707	-3.857556	0	0
3.176251	-0.241533	0.1900651	-0.3995192	-0.292294	5.53696	4.023707	0	0
3.192818	-0.2453254	0.1872669	-0.22891	-0.1688988	5.181656	3.747698	0	0
3.209443	-0.2535051	0.1812877	-0.4920315	-0.3596636	-7.927333	-5.74737	0	0
3.225956	-0.2552552	0.1800044	-0.1059768	-0.07770722	11.64982	8.508483	0	0
3.242525	-0.2553292	0.1799502	-0.00446268	-0.003272812	3.068537	2.24998	0	0
3.259085	-0.2553045	0.1799321	0.001488309	-0.001091487	0.1796335	0.06584435	0	0
3.275652	-0.2553045	0.1799321	0	0	-0.04492697	0.03294825	0	0
3.292221	-0.2553045	0.1799321	0	0	0	0	0	0
3.308786	-0.2553045	0.1799321	0	0	0	0	0	0
3.325352	-0.2553045	0.1799321	0	0	0	0	0	0
3.342025	-0.2553045	0.1799321	0	0	0	0	0	0
3.375052	-0.2552552	0.179896	0.00149251	-0.001094568	0.03003067	-0.0220237	0	0
3.391619	-0.2551813	0.1798417	0.00446133	-0.003273141	0.05986286	-0.04392844	0	0
3.417127	-0.2544174	0.1792814	0.02994962	-0.02196858	0.6057869	-0.4443395	0	0
3.433694	-0.2528639	0.1781424	0.09376844	-0.06874739	1.516773	-1.111785	0	0
3.450261	-0.2506671	0.176533	0.1326005	-0.09714367	1.171961	-0.8570076	0	0
3.467109	-0.2494319	0.1756287	0.07331289	-0.05367263	-1.774263	1.300932	0	0
3.483394	-0.2442603	0.1718474	0.3175701	-0.2321991	7.371911	-5.388094	0	0
3.500133	-0.2397955	0.1685889	0.2667394	-0.1946719	-1.539248	1.136392	0	0
3.516528	-0.2331798	0.1637706	0.4035188	-0.2938907	4.128161	-2.994538	0	0
3.533156	-0.2266182	0.1590028	0.3946122	-0.2867295	-0.269709	0.2168541	0	0
3.549661	-0.2234675	0.1567173	0.1908873	-0.1384689	-6.148606	4.474642	0	0
3.566228	-0.2181311	0.1528517	0.3221051	-0.2333281	3.967554	-2.868201	0	0
3.582795	-0.2170272	0.1520529	0.06663764	-0.04822153	-7.710245	5.586687	0	0
3.599362	-0.2172279	0.1521981	-0.0121172	0.008767701	-2.376894	1.719988	0	0
3.615928	-0.2172279	0.1521981	0	0	0.365711	-0.2646193	0	0
3.632495	-0.2172279	0.1521981	0	0	0	0	0	0
3.649061	-0.2172279	0.1521981	0	0	0	0	0	0
3.665628	-0.2172279	0.1521981	0	0	0	0	0	0
3.682262	-0.2172279	0.1521981	0	0	0	0	0	0
3.698761	-0.2172279	0.1521981	0	0	0	0	0	0
3.715328	-0.2172279	0.1521981	0	0	0	0	0	0
3.731895	-0.2172279	0.1521981	0	0	0	0	0	0
3.748462	-0.2172279	0.1521981	0	0	0	0	0	0
3.765322	-0.2172279	0.1521981	0	0	0	0	0	0
3.781595	-0.2172279	0.1521981	0	0	0	0	0	0
3.798344	-0.2172279	0.1521981	0	0	0	0	0	0
3.814856	-0.2172279	0.1521981	0	0	0	0	0	0
3.914129	-0.217253	0.1522163	-0.0002527727	0.0001828249	-0.002183119	0.001579002	0	0
3.930696	-0.217253	0.1522163	0	0	0.002182086	-0.001578254	0	0
3.947262	-0.217253	0.1522526	0	0.002191988	0	0.06615624	0	0
3.963962	-0.2173032	0.1522889	-0.003005254	0.002174526	-0.09033863	-0.0005249207	0	0
3.980396	-0.2173283	0.1523071	-0.001526956	0.001104413	0.04461641	-0.03229699	0	0
3.996962	-0.2173032	0.1523979	0.001514737	0.005480578	0.09217253	0.1326111	0	0
4.013528	-0.2171025	0.1525794	0.0121179	0.01095936	0.3200224	0.1653594	0	0
4.030096	-0.2172028	0.152761	-0.0060586	0.01095783	-0.5485836	-4.620985E-05	0	0
4.047022	-0.2168013	0.1530514	0.02372207	0.01716078	0.8891474	0.1851986	0	0
4.063229	-0.2166256	0.1531785	0.01084114	0.007841003	-0.3887641	-0.2812836	0	0
4.080043	-0.2163244	0.1533963	0.01791361	0.01295533	0.2141779	0.1548789	0	0
4.096556	-0.2161738	0.1535053	0.009122592	0.006595809	-0.2637797	-0.1908213	0	0
4.113068	-0.215772	0.153832	0.02432822	0.01978709	0.4604373	0.3994416	0	0
4.129496	-0.2141393	0.1550117	0.09938556	0.07181187	2.278614	1.579384	0	0
4.146092	-0.2086047	0.1590391	0.3334752	0.242662	7.088301	5.17339	0	0
4.16263	-0.2044452	0.1620307	0.2515246	0.1809006	-2.47331	-1.863991	0	0
4.179196	-0.1963832	0.1678103	0.4866376	0.3488661	7.102266	5.073884	0	0
4.195763	-0.1798002	0.1794802	1.000979	0.7044189	15.52329	10.73091	0	0
4.212638	-0.1691829	0.1868877	0.6291821	0.4389667	-11.1178	-7.937797	0	0
4.228897	-0.1619891	0.1918156	0.4424574	0.3030948	-5.635526	-4.100739	0	0
4.245463	-0.1515141	0.1989218	0.6323137	0.4289567	5.783896	3.834329	0	0
4.278596	-0.1344213	0.2102889	0.5158746	0.3430673	-2.342849	-1.728163	0	0
4.295197	-0.1070367	0.2197163	1.649662	0.5679156	22.79719	4.521049	0	0
4.311729	-0.08837447	0.2209749	1.128794	0.07612771	-15.72048	-14.84283	0	0
4.32872	-0.01336762	0.2233299	4.414593	0.1386017	98.0146	1.863585	0	0
4.402363	0.002342101	0.2238152	0.2133235	0.006589735	-46.35454	-1.456549	0	0
4.418931	0.006999886	0.222503	0.2811363	-0.07919844	0.751718	-0.9509784	0	0
4.435498	0.009762848	0.2206154	0.1667727	-0.1139396	-3.451451	-1.048476	0	0
4.452064	0.01007861	0.2203996	0.01906086	-0.01302496	-4.458145	3.045743	0	0
4.468819	0.01007861	0.2203996	0	0	-0.5720391	0.3908944	0	0
4.48533	0.01007861	0.2203996	0	0	0	0	0	0
4.501842	0.01005229	0.2204176	-0.00159352	0.001089193	-0.04825363	0.03298203	0	0
4.518353	0.01005229	0.2204176	0	0	0.04825433	-0.0329825	0	0
4.534896	0.01005229	0.2204176	0	0	0	0	0	0
4.551463	0.01002598	0.2203996	-0.001588235	-0.001085619	-0.04796824	-0.03278811	0	0
4.568029	0.01002598	0.2203996	0	0	0.04793441	0.03276499	0	0
4.584596	0.01002598	0.2203996	0	0	0	0	0	0
4.601162	0.009999666	0.2203816	-0.001588383	-0.001084782	-0.04793956	-0.0327402	0	0
4.617729	0.009999666	0.2203816	0	0	0.04793956	0.0327402	0	0
4.634296	0.009973354	0.2203636	-0.001588281	-0.00108565	-0.04793579	-0.03276593	0	0
4.650946	0.009973354	0.2203636	0	0	0.04781537	0.03268362	0	0
4.667457	0.00994704	0.2203816	-0.001593704	0.001089319	-0.04805935	0.03284923	0	0
4.683996	0.009920727	0.2203277	-0.001590983	-0.00326159	8.234066E-05	-0.1316479	0	0
4.700562	0.009815474	0.2202557	-0.006353475	-0.004341827	-0.1438607	-0.03263071	0	0
4.717128	0.009710222	0.2202198	-0.006353419	-0.002170464	1.686539E-06	0.06553563	0	0
4.733696	0.009683908	0.2202378	-0.001588291	0.001085619	0.143816	0.09827161	0	0
4.750263	0.009657594	0.2202557	-0.001588291	0.00108472	0	-2.714469E-05	0	0
4.766829	0.009657594	0.2202557	0	0	0.04793542	-0.03273737	0	0
4.78354	0.009657594	0.2202557	0	0	0	0	0	0
4.800052	0.009657594	0.2202557	0	0	0	0	0	0
4.816529	0.009526027	0.2201299	-0.007984605	-0.007637965	-0.2420347	-0.2315271	0	0
4.833096	0.009183953	0.2198961	-0.02064886	-0.01411026	-0.383256	-0.1958699	0	0
4.849662	0.009078698	0.2198242	-0.006353348	-0.004341702	0.4314581	0.2948285	0	0
4.882797	0.008973443	0.2197523	-0.003176611	-0.002170789	0.0639167	0.04367928	0	0
4.899363	0.008920816	0.2197163	-0.003176857	-0.002170526	-4.956409E-06	5.279653E-06	0	0
4.916137	0.008841875	0.2196264	-0.004706088	-0.005360239	-0.0458678	-0.09567232	0	0
4.932645	0.008710306	0.2195365	-0.007969957	-0.005446635	-0.09806625	-0.002595842	0	0
4.949157	0.008605051	0.2194646	-0.006374504	-0.004356121	0.04831775	0.03302584	0	0
4.965629	0.008499796	0.2193926	-0.00638982	-0.004366587	-0.0004643447	-0.0003173091	0	0
4.982197	0.008447167	0.2193567	-0.003176547	-0.002170276	0.09725388	0.0664742	0	0
4.998762	0.008394539	0.2193207	-0.003177005	-0.002171488	-1.380131E-05	-3.65763E-05	0	0
5.044912	0.008315598	0.2192668	-0.001710538	-0.00116884	0.02338283	0.01598724	0	0
5.06148	0.008289284	0.2192488	-0.001588291	-0.001085619	0.001949169	0.001326916	0	0
5.078249	0.00826297	0.2192308	-0.001569198	-0.00107253	0.000572752	0.0003926218	0	0
5.094614	0.008236656	0.2192128	-0.00160796	-0.001098153	-0.001169877	-0.0007732906	0	0
5.111179	0.008236656	0.2192128	0	0	0.0488291	0.03334771	0	0
5.127783	0.008236656	0.2192128	0	0	0	0	0	0
5.144313	0.008210341	0.2191948	-0.001591875	-0.00108803	-0.04804359	-0.03283729	0	0
5.160879	0.008210341	0.2191948	0	0	0.04809827	0.03287467	0	0
5.177446	0.008210341	0.2191948	0	0	0	0	0	0
5.194013	0.008210341	0.2191948	0	0	0	0	0	0
5.210842	0.008184028	0.2191769	-0.001563585	-0.001068732	-0.04681985	-0.03200201	0	0
5.227355	0.008184028	0.2191769	0	0	0.04689618	0.03205419	0	0
5.26028	0.0081314	0.2191409	-0.001598418	-0.001092069	-0.03233207	-0.02208987	0	0
5.276889	0.0081314	0.2191409	0	0	0.03226889	0.02204671	0	0
5.293902	0.008105085	0.2191229	-0.001546723	-0.00105717	-0.04600295	-0.03144254	0	0
5.313386	0.008052457	0.2190869	-0.002701021	-0.001846153	-0.03162669	-0.02161741	0	0
5.329954	0.008052457	0.2190869	0	0	0.07491969	0.05120774	0	0
5.346521	0.007999829	0.219051	-0.003176639	-0.002170339	-0.09586977	-0.06550001	0	0
5.363089	0.007973515	0.219033	-0.001588291	-0.001085619	0.04793642	0.0327369	0	0
5.379962	0.007947201	0.218979	-0.001559486	-0.003197679	0.0008613624	-0.06315766	0	0
5.396222	0.007894573	0.2189431	-0.003236822	-0.002211457	-0.05062426	0.02976552	0	0
5.412989	0.00781563	0.2188891	-0.004708073	-0.003217957	-0.04454734	-0.03047536	0	0
5.429502	0.007736688	0.2188352	-0.004780672	-0.003266676	-0.002181448	-0.001463899	0	0
5.462488	0.00726303	0.2185115	-0.01435948	-0.009813736	-0.1935168	-0.1322677	0	0
5.479533	0.004815752	0.2168388	-0.1435773	-0.09813248	-2.58277	-1.765291	0	0
5.496044	0.004815752	0.2168388	0	0	4.278739	2.924441	0	0
5.512557	0.004815752	0.2168388	0	0	0	0	0	0
5.529068	0.004815752	0.2168388	0	0	0	0	0	0
5.545322	0.004815752	0.2168388	0	0	0	0	0	0
5.561888	0.004815752	0.2168388	0	0	0	0	0	0
5.578454	0.004815752	0.2168388	0	0	0	0	0	0
5.595115	0.004815752	0.2168388	0	0	0	0	0	0
5.611625	0.004815752	0.2168388	0	0	0	0	0	0
5.628154	0.004815752	0.2168388	0	0	0	0	0	0
5.644721	0.004815752	0.2168388	0	0	0	0	0	0
5.661288	0.004815752	0.2168388	0	0	0	0	0	0
5.677855	0.004815752	0.2168388	0	0	0	0	0	0
5.694422	0.004815752	0.2168388	0	0	0	0	0	0
5.710988	0.004815752	0.2168388	0	0	0	0	0	0
5.727709	0.004815752	0.2168388	0	0	0	0	0	0
5.744121	0.004815752	0.2168388	0	0	0	0	0	0
5.760731	0.004815752	0.2168388	0	0	0	0	0	0
5.777255	0.004815752	0.2168388	0	0	0	0	0	0
5.793821	0.004815752	0.2168388	0	0	0	0	0	0
5.814044	0.004815752	0.2168388	0	0	0	0	0	0
5.830612	0.004815752	0.2168388	0	0	0	0	0	0
5.847178	0.004815752	0.2168388	0	0	0	0	0	0
5.863804	0.004815752	0.2168388	0	0	0	0	0	0
5.880317	0.004815752	0.2168388	0	0	0	0	0	0
5.896879	0.004815752	0.2168388	0	0	0	0	0	0
5.913445	0.004815752	0.2168388	0	0	0	0	0	0
5.930351	0.004815752	0.2168388	0	0	0	0	0	0
5.946579	0.004815752	0.2168388	0	0	0	0	0	0
5.963145	0.004815752	0.2168388	0	0	0	0	0	0
5.979712	0.004842068	0.2168208	0.001588449	-0.00108565	0.04794088	-0.03276593	0	0
5.996279	0	0	-0.2922678	-13.08733	-8.868727	-394.9494	0	0
6.01291	0.004842068	0.2168208	0.2911533	13.03742	17.57404	786.9404	0	0
6.029432	0.004842068	0.2168208	0	0	-8.782094	-393.2495	0	0
6.045979	0.004842068	0.2168208	0	0	0	0	0	0
6.112246	0.004842068	0.2168208	0	0	0	0	0	0
6.128991	0.004842068	0.2168208	0	0	0	0	0	0
6.145379	0.004842068	0.2168208	0	0	0	0	0	0
6.162015	0.004842068	0.2168208	0	0	0	0	0	0
6.182553	0.004842068	0.2168208	0	0	0	0	0	0
6.199121	0.004842068	0.2168208	0	0	0	0	0	0
6.215688	0.004842068	0.2168208	0	0	0	0	0	0
6.232255	0.004842068	0.2168208	0	0	0	0	0	0
6.248822	0.004842068	0.2168208	0	0	0	0	0	0
6.265388	0.004842068	0.2168208	0	0	0	0	0	0
6.2821	0.004842068	0.2168208	0	0	0	0	0	0
6.298521	0.004842068	0.2168208	0	0	0	0	0	0
6.315123	0.004842068	0.2168208	0	0	0	0	0	0
6.331655	0.004842068	0.2168208	0	0	0	0	0	0
6.348222	0.004842068	0.2168208	0	0	0	0	0	0
6.364789	0.004868383	0.2168028	0.001588421	-0.00108565	0.04793934	-0.03276546	0	0
6.381355	0.004868383	0.2168028	0	0	-0.04794072	0.03276641	0	0
6.398184	0.004868383	0.2168028	0	0	0	0	0	0
6.414696	0.004868383	0.2168028	0	0	0	0	0	0
6.464233	0.004868383	0.2168028	0	0	0	0	0	0
6.513888	0.004868383	0.2168028	0	0	0	0	0	0
6.530457	0.004868383	0.2168028	0	0	0	0	0	0
6.547294	0.004868383	0.2168028	0	0	0	0	0	0
6.563591	0.004868383	0.2168028	0	0	0	0	0	0
6.580157	0.004868383	0.2168028	0	0	0	0	0	0
6.596828	0.004868383	0.2168028	0	0	0	0	0	0
6.613336	0.004868383	0.2168028	0	0	0	0	0	0
6.629858	0.004868383	0.2168028	0	0	0	0	0	0
6.646425	0.004868383	0.2168028	0	0	0	0	0	0
6.662991	0.004868383	0.2168028	0	0	0	0	0	0
6.679558	0.004868383	0.2168028	0	0	0	0	0	0
6.696125	0.004868383	0.2168028	0	0	0	0	0	0
6.712906	0.004868383	0.2168028	0	0	0	0	0	0
6.729258	0.004868383	0.2168028	0	0	0	0	0	0
6.745824	0.004868383	0.2168028	0	0	0	0	0	0
6.762443	0.004868383	0.2168028	0	0	0	0	0	0
6.778955	0.004868383	0.2168028	0	0	0	0	0	0
6.795524	0.004868383	0.2168028	0	0	0	0	0	0
6.828656	0.004868383	0.2168028	0	0	0	0	0	0
6.845222	0.004868383	0.2168028	0	0	0	0	0	0
6.862013	0.004868383	0.2168028	0	0	0	0	0	0
6.878356	0.004868383	0.2168028	0	0	0	0	0	0
6.894924	0.004868383	0.2168028	0	0	0	0	0	0
6.911491	0.004868383	0.2168028	0	0	0	0	0	0
6.928057	0.004868383	0.2168028	0	0	0	0	0	0
6.944624	0.004868383	0.2168028	0	0	0	0	0	0
6.96119	0.004868383	0.2168028	0	0	0	0	0	0
6.977756	0.004868383	0.2168028	0	0	0	0	0	0
6.994606	0.004868383	0.2168028	0	0	0	0	0	0
7.010888	0.004868383	0.2168028	0	0	0	0	0	0
7.027635	0.004868383	0.2168028	0	0	0	0	0	0
7.044024	0.004868383	0.2168028	0	0	0	0	0	0
7.06065	0.004868383	0.2168028	0	0	0	0	0	0
7.080871	0.004868383	0.2168028	0	0	0	0	0	0
7.097675	0.004868383	0.2168028	0	0	0	0	0	0
7.114006	0.004868383	0.2168028	0	0	0	0	0	0
7.1307	0.004868383	0.2168028	0	0	0	0	0	0
7.147139	0.004868383	0.2168028	0	0	0	0	0	0
7.163723	0.004868383	0.2168028	0	0	0	0	0	0
7.180272	0.004868383	0.2168028	0	0	0	0	0	0
7.196839	0.004868383	0.2168028	0	0	0	0	0	0
7.213758	0.004868383	0.2168028	0	0	0	0	0	0
7.312806	0.004868383	0.2168028	0	0	0	0	0	0
7.329373	0.004868383	0.2168028	0	0	0	0	0	0
7.34594	0.004868383	0.2168028	0	0	0	0	0	0
7.362506	0.004868383	0.2168028	0	0	0	0	0	0
7.379073	0.004868383	0.2168028	0	0	0	0	0	0
7.39564	0.004868383	0.2168028	0	0	0	0	0	0
7.412399	0.004868383	0.2168028	0	0	0	0	0	0
7.428775	0.004868383	0.2168028	0	0	0	0	0	0
7.44534	0.004868383	0.2168028	0	0	0	0	0	0
7.461936	0.004868383	0.2168028	0	0	0	0	0	0
7.478473	0.004868383	0.2168028	0	0	0	0	0	0
7.511606	0.004868383	0.2168028	0	0	0	0	0	0
7.528172	0.004868383	0.2168028	0	0	0	0	0	0
7.544991	0.004868383	0.2168028	0	0	0	0	0	0
7.561504	0.004894698	0.2167848	0.001593604	-0.001089193	0.04781023	-0.03267722	0	0
7.578016	0.004894698	0.2167848	0	0	-0.0482548	0.03298107	0	0
7.594528	0.004894698	0.2167848	0	0	0	0	0	0
7.611039	0.004894698	0.2167848	0	0	0	0	0	0
7.627573	0.004894698	0.2167848	0	0	0	0	0	0
7.644139	0.004894698	0.2167848	0	0	0	0	0	0
7.660706	0.004894698	0.2167848	0	0	0	0	0	0
7.677272	0.004894698	0.2167848	0	0	0	0	0	0
7.693839	0.004894698	0.2167848	0	0	0	0	0	0
7.710406	0.004894698	0.2167848	0	0	0	0	0	0
7.743632	0.004894698	0.2167848	0	0	0	0	0	0
7.760106	0.004894698	0.2167848	0	0	0	0	0	0
7.776672	0.004894698	0.2167848	0	0	0	0	0	0
7.793239	0.004894698	0.2167848	0	0	0	0	0	0
7.809805	0.004894698	0.2167848	0	0	0	0	0	0
7.826373	0.004894698	0.2167848	0	0	0	0	0	0
7.842939	0.004894698	0.2167848	0	0	0	0	0	0
7.859714	0.004894698	0.2167848	0	0	0	0	0	0
7.876072	0.004894698	0.2167848	0	0	0	0	0	0
7.892639	0.004894698	0.2167848	0	0	0	0	0	0
7.909251	0.004894698	0.2167848	0	0	0	0	0	0
7.925773	0.004894698	0.2167848	0	0	0	0	0	0
7.942339	0.004894698	0.2167848	0	0	0	0	0	0
7.964989	0.004894698	0.2167848	0	0	0	0	0	0
7.9818	0.004894698	0.2167848	0	0	0	0	0	0
7.998313	0.004894698	0.2167848	0	0	0	0	0	0
8.014689	0.004894698	0.2167848	0	0	0	0	0	0
8.031334	0.004894698	0.2167848	0	0	0	0	0	0
8.047824	0.004894698	0.2167848	0	0	0	0	0	0
8.06439	0.004894698	0.2167848	0	0	0	0	0	0
8.080956	0.004894698	0.2167848	0	0	0	0	0	0
8.097523	0.004894698	0.2167848	0	0	0	0	0	0
8.11409	0.004894698	0.2167848	0	0	0	0	0	0
8.130656	0.004894698	0.2167848	0	0	0	0	0	0
8.147223	0.004894698	0.2167848	0	0	0	0	0	0
8.163927	0.004894698	0.2167848	0	0	0	0	0	0
8.18044	0.004894698	0.2167848	0	0	0	0	0	0
8.196922	0.004894698	0.2167848	0	0	0	0	0	0
8.21349	0.004894698	0.2167848	0	0	0	0	0	0
8.230056	0.005052588	0.2166769	0.009530859	-0.006514989	0.2876502	-0.1966284	0	0
8.246623	0.005236794	0.216551	0.01111869	-0.007600233	0.04792209	-0.03275368	0	0
8.263189	0.006236761	0.2158674	0.06036161	-0.0412631	1.486197	-1.015976	0	0
8.279756	0.01265722	0.2114769	0.3875619	-0.2650304	9.875493	-6.7537	0	0
8.296323	0.01847158	0.2074981	0.3509558	-0.2401557	-1.104806	0.7507439	0	0
8.313034	0.02559967	0.2026166	0.4265445	-0.2921134	2.271402	-1.561302	0	0
8.329456	0.03106895	0.1988677	0.3330402	-0.2282774	-2.822047	1.926628	0	0
8.346057	0.03761383	0.1943775	0.3942557	-0.2704847	1.853728	-1.278123	0	0
8.362589	0.04835701	0.186996	0.6498436	-0.4464991	7.714104	-5.312431	0	0
8.379156	0.06147507	0.1779616	0.7918078	-0.5453199	4.289055	-2.985595	0	0
8.396091	0.06524935	0.1753574	0.2228637	-0.1537714	-16.9821	11.68711	0	0
8.41229	0.08194765	0.1637706	1.030877	-0.7153187	24.38658	-16.94802	0	0
8.429116	0.1407216	0.1223044	3.492912	-2.464318	74.55114	-52.96021	0	0
8.484092	0.1548554	0.1121978	0.2570937	-0.1838389	-45.06577	31.7606	0	0
8.500666	0.16816	0.1026199	0.8027388	-0.5778859	7.62613	-5.50734	0	0
8.517226	0.1801569	0.09395915	0.7244259	-0.5229772	-2.363487	1.657146	0	0
8.534197	0.1941293	0.083846	0.823329	-0.5959206	2.949586	-2.175388	0	0
8.55036	0.2058325	0.07531428	0.7240816	-0.5278591	-2.99538	2.054158	0	0
8.566926	0.2134105	0.06972153	0.4574372	-0.3375984	-8.147001	5.813188	0	0
8.583492	0.2206631	0.06438011	0.4377905	-0.3224272	-0.5929701	0.457895	0	0
8.600059	0.2271428	0.05943904	0.3911404	-0.2982605	-1.407985	0.7293954	0	0
8.616748	0.2327812	0.05491825	0.337842	-0.2708799	-1.602692	0.8233364	0	0
8.633192	0.2370623	0.05065207	0.2603393	-0.2594334	-2.339101	0.3454671	0	0
8.649771	0.2362167	0.0448202	-0.05100326	-0.3517697	-9.428087	-2.796131	0	0
8.666326	0.2314852	0.03544066	-0.2858081	-0.5665737	-7.086629	-6.482984	0	0
8.682892	0.2256685	0.02814767	-0.3511186	-0.4402314	-1.971868	3.814554	0	0
8.699458	0.2220657	0.02549543	-0.2174727	-0.1600988	4.033672	8.454906	0	0
8.716025	0.2174036	0.02198099	-0.2814092	-0.2121322	-1.929662	-1.570416	0	0
8.732828	0.2140388	0.01947389	-0.200249	-0.1492073	2.432129	1.885672	0	0
8.749159	0.213687	0.01921185	-0.02154414	-0.01604576	5.393479	4.018938	0	0
8.765726	0.2137121	0.01919313	0.001517348	-0.001129804	0.7010008	0.4534007	0	0
8.782292	0.2138629	0.01908082	0.009101915	-0.006779438	0.2289093	-0.1705112	0	0
8.798859	0.2141142	0.01889363	0.01516896	-0.01129936	0.1831143	-0.1364195	0	0
8.815426	0.2170774	0.01664658	0.1788555	-0.1356324	4.940212	-3.752485	0	0
8.835107	0.2220657	0.01284202	0.2534624	-0.1933116	2.058222	-1.591231	0	0
8.851674	0.2275425	0.008620236	0.3305778	-0.2548273	2.127426	-1.697068	0	0
8.86824	0.232233	0.004975928	0.2831344	-0.2199835	-1.431884	1.051618	0	0
8.884808	0.2330801	0.004261635	0.05113473	-0.04311482	-7.001966	5.338062	0	0
8.901374	0.2330054	0.004280434	-0.004510931	0.001134788	-1.679438	1.335494	0	0
8.917941	0.2330054	0.004280434	0	0	0.1361441	-0.03424896	0	0
8.934507	0.2329805	0.004299233	-0.001503943	0.001134788	-0.04539041	0.03424896	0	0
8.951074	0.2329556	0.004318032	-0.001503943	0.00113476	0	-8.502969E-07	0	0
8.96764	0.2329556	0.004318032	0	0	0.04539171	-0.03424909	0	0
9.033906	0.2329058	0.004355629	-0.0007519608	0.0005673718	-0.009078108	0.006849641	0	0
9.050472	0.2329058	0.004355629	0	0	0.009078108	-0.006849641	0	0
9.067063	0.2328808	0.004374428	-0.001501696	0.001133064	-0.04528998	0.03417233	0	0
9.083606	0.2328559	0.004393226	-0.001506111	0.001136367	-0.0001332539	9.96962E-05	0	0
9.100172	0.232831	0.004412025	-0.001503943	0.001134732	6.546727E-05	-4.939493E-05	0	0
9.116738	0.232831	0.004412025	0	0	0.04539171	-0.03424824	0	0
9.133305	0.232831	0.004412025	0	0	0	0	0	0
9.149871	0.232831	0.004412025	0	0	0	0	0	0
9.166633	0.232831	0.004412025	0	0	0	0	0	0
9.183004	0.232831	0.004412025	0	0	0	0	0	0
9.199656	0.232831	0.004412025	0	0	0	0	0	0
9.216167	0.2328061	0.004430823	-0.001508894	0.001138467	-0.04549924	0.03432937	0	0
9.232704	0.2328061	0.004430823	0	0	0.04565679	-0.03444825	0	0
9.249271	0.2328061	0.004430823	0	0	0	0	0	0
9.265838	0.2327812	0.004449621	-0.001503943	0.001134732	-0.04539041	0.03424726	0	0
9.282405	0.2327812	0.004449621	0	0	0.04539041	-0.03424726	0	0
9.298971	0.2327314	0.004487217	-0.003007887	0.002269435	-0.09078082	0.06849367	0	0
9.315537	0.2327064	0.004506015	-0.001503943	0.001134704	0.04539171	-0.03424824	0	0
9.332104	0.2326068	0.004581206	-0.006015773	0.004538759	-0.1361751	0.1027405	0	0
9.348762	0.2325071	0.004656394	-0.005983605	0.004513729	0.0009682371	-0.0007533474	0	0
9.365237	0.2322081	0.004881951	-0.01815108	0.01369025	-0.3672258	0.2769558	0	0
9.398371	0.229889	0.006667073	-0.06999027	0.05387665	-1.044951	0.8100598	0	0
9.431503	0.2142399	0.01894979	-0.4723205	0.3707145	-6.071438	4.781299	0	0
9.44807	0.2046218	0.0264669	-0.5805788	0.4537597	-2.178286	1.670969	0	0
9.464843	0.1900215	0.03901659	-0.8704559	0.7481982	-8.694703	8.831519	0	0
9.481355	0.1745986	0.05365743	-0.9340427	0.8866829	-1.910367	4.160557	0	0
9.497865	0.162758	0.06563754	-0.7171804	0.7256275	6.56722	-4.877225	0	0
9.514336	0.1595019	0.07049721	-0.1976869	0.2950453	15.75134	-13.0555	0	0
9.530902	0.1429395	0.1014465	-0.9997634	1.868213	-24.27799	47.6181	0	0
9.547468	0.1383732	0.1117587	-0.2756408	0.6224769	21.85532	-37.59856	0	0
9.564034	0.1284727	0.1301491	-0.5976304	1.11011	-9.718225	14.71765	0	0
9.580601	0.1172752	0.1452945	-0.6759222	0.9142348	-2.362988	-5.911875	0	0
9.597168	0.1058919	0.1541587	-0.6870957	0.535042	-0.3372262	-11.44439	0	0
9.613734	0.09406369	0.1623932	-0.7139931	0.497065	-0.8117876	-1.146183	0	0
9.630457	0.07990843	0.1722093	-0.8464709	0.5869948	-3.979633	2.70149	0	0
9.646968	0.07376067	0.1764607	-0.3723439	0.2574871	14.26648	-9.914882	0	0
9.663482	0.06304791	0.1838173	-0.648715	0.4454794	-8.368594	5.69246	0	0
9.680001	0.05693839	0.1879891	-0.3698359	0.2525392	8.442345	-5.840766	0	0
9.696568	0.05255682	0.1910035	-0.2644871	0.1819628	3.184104	-2.133133	0	0
9.713134	0.0480157	0.1940889	-0.2741184	0.1862434	-0.2906892	0.1291979	0	0
9.729701	0.04565247	0.1957123	-0.1426449	0.09798545	3.967993	-2.663707	0	0
9.746539	0.04053042	0.1992283	-0.3041941	0.2088145	-4.836035	3.317707	0	0
9.766241	0.03643124	0.2020399	-0.2080597	0.1427094	2.630935	-1.809112	0	0
9.782808	0.03459146	0.2033013	-0.1110495	0.07613275	2.674726	-1.835627	0	0
9.799375	0.03467031	0.2032112	0.004759864	-0.005438302	3.495235	-2.46189	0	0
9.815942	0.03438118	0.2029769	-0.01745175	-0.01413823	-0.6703673	-0.262572	0	0
9.832598	0.03419719	0.2028148	-0.01104687	-0.009735542	0.1927837	0.1325188	0	0
9.849075	0.03419719	0.2028148	0	0	0.3334048	0.2938277	0	0
9.865642	0.0341709	0.2027968	-0.001586696	-0.001087481	-0.04801788	-0.03291021	0	0
9.88221	0.0341709	0.2027247	0	-0.004350321	0.04788659	-0.09847271	0	0
9.898775	0.03414462	0.2026706	-0.001586788	-0.003263529	-0.04789072	0.03280038	0	0
9.915341	0.03403948	0.2024904	-0.00634656	-0.0108766	-0.1436626	-0.2297829	0	0
9.93217	0.03393434	0.2023823	-0.006247875	-0.006424969	0.002955108	0.1333032	0	0
10.01475	0.03375034	0.2020039	-0.00222807	-0.004582268	0.04043621	0.01853619	0	0
10.03131	0.03372405	0.2019859	-0.001587793	-0.001088232	0.006458486	0.03524441	0	0
10.04787	0.03375034	0.2019679	0.001586605	-0.001087418	0.09583938	2.45891E-05	0	0
10.06444	0.03375034	0.2019679	0	0	-0.04788521	0.03281928	0	0
10.08101	0.03375034	0.2019679	0	0	0	0	0	0
10.09757	0.03372405	0.2019498	-0.001586696	-0.00108838	-0.04788934	-0.03284927	0	0
10.11414	0.03372405	0.2019498	0	0	0.04788934	0.03284927	0	0
10.13081	0.03372405	0.2018778	0	-0.004324433	0	-0.1301222	0	0
10.14727	0.03369777	0.2018597	-0.001596345	-0.001094094	-0.04817919	0.09749464	0	0
10.16384	0.03367148	0.2018057	-0.001586696	-0.003263341	0.0002921131	-0.06567025	0	0
10.18041	0.03364519	0.2017516	-0.001586696	-0.003263341	0	0	0	0
10.19735	0.03364519	0.2017156	0	-0.002126765	0.0473429	0.03391248	0	0
10.21354	0.03364519	0.2016795	0	-0.002227145	0	-0.003029542	0	0
10.26324	0.03356634	0.2014453	-0.001586666	-0.004713824	-0.0240825	-0.03774296	0	0
10.27981	0.03351376	0.2013371	-0.003173617	-0.006526683	-0.02394818	-0.02735726	0	0
10.29637	0.03343491	0.2010307	-0.004760089	-0.01849437	-0.04788256	-0.3612062	0	0
10.31294	0.03159475	0.1993725	-0.1110722	-0.1000919	-3.208599	-2.46269	0	0
10.3295	0.03088491	0.1987776	-0.04284811	-0.03591025	2.059068	1.937062	0	0
10.34607	0.03167361	0.1980565	0.04760887	-0.04353071	2.730154	-0.2299992	0	0
10.36264	0.03301432	0.1971369	0.0809296	-0.05550828	1.005679	-0.3615048	0	0
10.3792	0.03311946	0.1970648	0.00634701	-0.00435352	-2.251037	1.543943	0	0
10.39577	0.03311946	0.1970648	0	0	-0.1915642	0.1313971	0	0
10.41234	0.03311946	0.1970648	0	0	0	0	0	0
10.42902	0.03311946	0.1970648	0	0	0	0	0	0
10.44547	0.03311946	0.1970648	0	0	0	0	0	0
10.46204	0.03311946	0.1970648	0	0	0	0	0	0
10.4786	0.03311946	0.1970648	0	0	0	0	0	0
10.49517	0.03311946	0.1970648	0	0	0	0	0	0
10.51207	0.03311946	0.1970648	0	0	0	0	0	0
10.5283	0.03311946	0.1970648	0	0	0	0	0	0
10.54487	0.03311946	0.1970648	0	0	0	0	0	0
10.56144	0.03311946	0.1970648	0	0	0	0	0	0
10.57812	0.03311946	0.1970648	0	0	0	0	0	0
10.59463	0.03311946	0.1970648	0	0	0	0	0	0
10.61114	0.03311946	0.1970648	0	0	0	0	0	0
10.6277	0.03311946	0.1970648	0	0	0	0	0	0
10.64427	0.03311946	0.1970648	0	0	0	0	0	0
10.66118	0.03311946	0.1970648	0	0	0	0	0	0
10.6774	0.03311946	0.1970648	0	0	0	0	0	0
10.69397	0.03311946	0.1970648	0	0	0	0	0	0
10.71391	0.03311946	0.1970648	0	0	0	0	0	0
10.73048	0.03311946	0.1970648	0	0	0	0	0	0
10.74705	0.03311946	0.1970648	0	0	0	0	0	0
10.78018	0.03311946	0.1970648	0	0	0	0	0	0
10.86302	0.03311946	0.1970648	0	0	0	0	0	0
10.87983	0.03311946	0.1970648	0	0	0	0	0	0
10.89615	0.03311946	0.1970648	0	0	0	0	0	0
10.91286	0.03311946	0.1970648	0	0	0	0	0	0
10.92928	0.03311946	0.1970648	0	0	0	0	0	0
10.94585	0.03311946	0.1970648	0	0	0	0	0	0
10.96241	0.03311946	0.1970648	0	0	0	0	0	0
10.97898	0.03311946	0.1970648	0	0	0	0	0	0
10.99555	0.03311946	0.1970648	0	0	0	0	0	0
11.01243	0.03311946	0.1970648	0	0	0	0	0	0
11.02894	0.03311946	0.1970648	0	0	0	0	0	0
11.04525	0.03311946	0.1970648	0	0	0	0	0	0
11.06182	0.03311946	0.1970648	0	0	0	0	0	0
11.07847	0.03311946	0.1970648	0	0	0	0	0	0
11.09499	0.03311946	0.1970648	0	0	0	0	0	0
11.11152	0.03311946	0.1970648	0	0	0	0	0	0
11.12808	0.03311946	0.1970648	0	0	0	0	0	0
11.14502	0.03311946	0.1970648	0	0	0	0	0	0
11.16122	0.03311946	0.1970648	0	0	0	0	0	0
11.17778	0.03311946	0.1970648	0	0	0	0	0	0
11.19435	0.03311946	0.1970648	0	0	0	0	0	0
11.21091	0.03311946	0.1970648	0	0	0	0	0	0
11.22748	0.03311946	0.1970648	0	0	0	0	0	0
11.24409	0.03311946	0.1970648	0	0	0	0	0	0
11.26062	0.03311946	0.1970648	0	0	0	0	0	0
11.28128	0.03311946	0.1970648	0	0	0	0	0	0
11.29784	0.03311946	0.1970648	0	0	0	0	0	0
11.31441	0.03311946	0.1970648	0	0	0	0	0	0
11.33098	0.03311946	0.1970648	0	0	0	0	0	0
11.34766	0.03311946	0.1970648	0	0	0	0	0	0
11.36411	0.03309318	0.1970467	-0.001598011	-0.001096142	-0.04822947	-0.03308257	0	0
11.38068	0.03311946	0.1970287	0.001586696	-0.00108928	0.09646171	0.0002078429	0	0
11.39724	0.03311946	0.1970287	0	0	-0.04788934	0.03287641	0	0
11.41421	0.03311946	0.1970287	0	0	0	0	0	0
11.43072	0.03311946	0.1970287	0	0	0	0	0	0
11.44694	0.03314575	0.1970467	0.00162041	0.001112266	0.04949958	0.03397704	0	0
11.46351	0.03314575	0.1970467	0	0	-0.04941752	-0.03392071	0	0
11.48008	0.03314575	0.1970467	0	0	0	0	0	0
11.58432	0.03311946	0.1970287	-0.0002521948	-0.0001731092	-0.002087557	-0.001432921	0	0
11.60089	0.03311946	0.1970287	0	0	0.002087557	0.001432921	0	0
11.61745	0.03311946	0.1970287	0	0	0	0	0	0
11.63402	0.03311946	0.1970287	0	0	0	0	0	0
11.65059	0.03311946	0.1970287	0	0	0	0	0	0
11.66715	0.03311946	0.1970287	0	0	0	0	0	0
11.68372	0.03311946	0.1970287	0	0	0	0	0	0
11.70029	0.03311946	0.1970287	0	0	0	0	0	0
11.71685	0.03311946	0.1970287	0	0	0	0	0	0
11.73342	0.03311946	0.1970287	0	0	0	0	0	0
11.74998	0.03311946	0.1970287	0	0	0	0	0	0
11.76655	0.03311946	0.1970287	0	0	0	0	0	0
11.78312	0.03311946	0.1970287	0	0	0	0	0	0
11.79968	0.03311946	0.1970287	0	0	0	0	0	0
11.81625	0.03311946	0.1970287	0	0	0	0	0	0
11.83282	0.03311946	0.1970287	0	0	0	0	0	0
11.84938	0.03311946	0.1970287	0	0	0	0	0	0
11.86595	0.03311946	0.1970287	0	0	0	0	0	0
11.88252	0.03311946	0.1970287	0	0	0	0	0	0
11.89908	0.03311946	0.1970287	0	0	0	0	0	0
11.91565	0.03314575	0.1970107	0.001586921	-0.00108838	0.04789613	-0.03284927	0	0
11.93222	0.03314575	0.1970107	0	0	-0.04789613	0.03284927	0	0
11.94908	0.03314575	0.1970107	0	0	0	0	0	0
11.9656	0.03314575	0.1970107	0	0	0	0	0	0
11.98192	0.03314575	0.1970107	0	0	0	0	0	0
11.99848	0.03314575	0.1970107	0	0	0	0	0	0
12.01505	0.03314575	0.1970107	0	0	0	0	0	0
12.03164	0.03314575	0.1970107	0	0	0	0	0	0
12.04818	0.03314575	0.1970107	0	0	0	0	0	0
12.06475	0.03314575	0.1970107	0	0	0	0	0	0
12.08132	0.03314575	0.1970107	0	0	0	0	0	0
12.09788	0.03314575	0.1970107	0	0	0	0	0	0
12.11445	0.03314575	0.1970107	0	0	0	0	0	0
12.13102	0.03314575	0.1970107	0	0	0	0	0	0
12.14758	0.03314575	0.1970107	0	0	0	0	0	0
12.16415	0.03314575	0.1970107	0	0	0	0	0	0
12.18075	0.03314575	0.1970107	0	0	0	0	0	0
12.19728	0.03314575	0.1970107	0	0	0	0	0	0
12.21385	0.03314575	0.1970107	0	0	0	0	0	0
12.23078	0.03314575	0.1970107	0	0	0	0	0	0
12.24698	0.03314575	0.1970107	0	0	0	0	0	0
12.31325	0.03314575	0.1970107	0	0	0	0	0	0
12.32981	0.03314575	0.1970107	0	0	0	0	0	0
12.34638	0.03314575	0.1970107	0	0	0	0	0	0
12.36295	0.03314575	0.1970107	0	0	0	0	0	0
12.37951	0.03314575	0.1970107	0	0	0	0	0	0
12.39608	0.03314575	0.1970107	0	0	0	0	0	0
12.41291	0.03314575	0.1970107	0	0	0	0	0	0
12.42942	0.03314575	0.1970107	0	0	0	0	0	0
12.44578	0.03314575	0.1970107	0	0	0	0	0	0
12.48314	0.03314575	0.1970107	0	0	0	0	0	0
12.49997	0.03314575	0.1970107	0	0	0	0	0	0
12.51648	0.03314575	0.1970107	0	0	0	0	0	0
12.57388	0.03314575	0.1970107	0	0	0	0	0	0
12.59045	0.03314575	0.1970107	0	0	0	0	0	0
12.60702	0.03314575	0.1970107	0	0	0	0	0	0
12.62358	0.03314575	0.1970107	0	0	0	0	0	0
12.64015	0.03314575	0.1970107	0	0	0	0	0	0
12.65672	0.03314575	0.1970107	0	0	0	0	0	0
12.67328	0.03314575	0.1970107	0	0	0	0	0	0
12.68985	0.03314575	0.1970107	0	0	0	0	0	0
12.72298	0.03314575	0.1970107	0	0	0	0	0	0
12.73955	0.03314575	0.1970107	0	0	0	0	0	0
12.75615	0.03314575	0.1970107	0	0	0	0	0	0
12.77268	0.03314575	0.1970107	0	0	0	0	0	0
12.78925	0.03314575	0.1970107	0	0	0	0	0	0
12.80582	0.03314575	0.1970107	0	0	0	0	0	0
12.8227	0.03314575	0.1970107	0	0	0	0	0	0
12.83895	0.03314575	0.1970107	0	0	0	0	0	0
12.85552	0.03314575	0.1970107	0	0	0	0	0	0
12.87224	0.03314575	0.1970107	0	0	0	0	0	0
12.88865	0.03314575	0.1970107	0	0	0	0	0	0
12.90526	0.03314575	0.1970107	0	0	0	0	0	0
12.92178	0.03314575	0.1970107	0	0	0	0	0	0
12.93835	0.03314575	0.1970107	0	0	0	0	0	0
12.95492	0.03314575	0.1970107	0	0	0	0	0	0
12.97181	0.03314575	0.1970107	0	0	0	0	0	0
12.98805	0.03314575	0.1970107	0	0	0	0	0	0
13.00483	0.03314575	0.1970107	0	0	0	0	0	0
13.02119	0.03314575	0.1970107	0	0	0	0	0	0
13.03775	0.03314575	0.1970107	0	0	0	0	0	0
13.05431	0.03314575	0.1970107	0	0	0	0	0	0
13.07088	0.03314575	0.1970107	0	0	0	0	0	0
13.08745	0.03314575	0.1970107	0	0	0	0	0	0
13.10401	0.03314575	0.1970107	0	0	0	0	0	0
13.12058	0.03314575	0.1970107	0	0	0	0	0	0
13.13715	0.03314575	0.1970107	0	0	0	0	0	0
13.15371	0.03314575	0.1970107	0	0	0	0	0	0
13.17028	0.03314575	0.1970107	0	0	0	0	0	0
13.18695	0.03314575	0.1970107	0	0	0	0	0	0
13.20341	0.03314575	0.1970107	0	0	0	0	0	0
13.21998	0.03314575	0.1970107	0	0	0	0	0	0
13.23654	0.03314575	0.1970107	0	0	0	0	0	0
13.25311	0.03314575	0.1970107	0	0	0	0	0	0
13.26968	0.03314575	0.1970107	0	0	0	0	0	0
13.28625	0.03314575	0.1970107	0	0	0	0	0	0
13.30281	0.03314575	0.1970107	0	0	0	0	0	0
13.31955	0.03314575	0.1970107	0	0	0	0	0	0
13.33595	0.03314575	0.1970107	0	0	0	0	0	0
13.35615	0.03314575	0.1970107	0	0	0	0	0	0
13.37272	0.03314575	0.1970107	0	0	0	0	0	0
13.3896	0.03314575	0.1970107	0	0	0	0	0	0
13.40585	0.03314575	0.1970107	0	0	0	0	0	0
13.42242	0.03314575	0.1970107	0	0	0	0	0	0
13.43914	0.03314575	0.1970107	0	0	0	0	0	0
13.45555	0.03314575	0.1970107	0	0	0	0	0	0
13.47212	0.03314575	0.1970107	0	0	0	0	0	0
13.48869	0.03314575	0.1970107	0	0	0	0	0	0
13.50525	0.03314575	0.1970107	0	0	0	0	0	0
13.52219	0.03314575	0.1970107	0	0	0	0	0	0
13.53839	0.03314575	0.1970107	0	0	0	0	0	0
13.55495	0.03314575	0.1970107	0	0	0	0	0	0
13.57175	0.03314575	0.1970107	0	0	0	0	0	0
13.58824	0.03314575	0.1970107	0	0	0	0	0	0
13.60465	0.03314575	0.1970107	0	0	0	0	0	0
13.62126	0.03314575	0.1970107	0	0	0	0	0	0
13.63779	0.03314575	0.1970107	0	0	0	0	0	0
13.65435	0.03314575	0.1970107	0	0	0	0	0	0
13.67092	0.03314575	0.1970107	0	0	0	0	0	0
13.68749	0.03314575	0.1970107	0	0	0	0	0	0
13.70405	0.03314575	0.1970107	0	0	0	0	0	0
13.72083	0.03314575	0.1970107	0	0	0	0	0	0
13.73719	0.03314575	0.1970107	0	0	0	0	0	0
13.75375	0.03314575	0.1970107	0	0	0	0	0	0
13.77037	0.03314575	0.1970107	0	0	0	0	0	0
13.78689	0.03314575	0.1970107	0	0	0	0	0	0
13.80345	0.03314575	0.1970107	0	0	0	0	0	0
13.8204	0.03322461	0.1969566	0.004652642	-0.003191287	0.1388188	-0.09521703	0	0
13.83741	0.03335604	0.1968664	0.007725568	-0.00530001	0.09048063	-0.06209018	0	0
13.86972	0.03724593	0.1940167	0.1204156	-0.08821462	2.285041	-1.681278	0	0
13.88645	0.04733304	0.1863279	0.6028902	-0.4595499	9.839378	-7.57285	0	0
13.90296	0.05318663	0.1769851	0.3544867	-0.5657856	-7.4721	-3.195624	0	0
13.91942	0.0549184	0.1629369	0.1052326	-0.8536515	-7.560146	-8.731283	0	0
13.93599	0.05512829	0.1400567	0.012669	-1.381057	-2.802934	-15.97044	0	0
13.95255	0.05528571	0.1275963	0.009502187	-0.7521515	-0.09557746	18.98094	0	0
13.96912	0.05510206	0.1017583	-0.01108596	-1.559677	-0.6213873	-24.37258	0	0
13.98569	0.05541689	0.08290705	0.01900415	-1.137927	0.9081736	12.7292	0	0
14.00225	0.05560053	0.06454656	0.01108529	-1.108305	-0.2390055	0.8940188	0	0
14.01904	0.05557429	0.041194	-0.001562234	-1.390671	-0.3791385	-8.464554	0	0
14.03555	0.05536442	0.01996048	-0.01271224	-1.2861	-0.3348117	3.140059	0	0
14.05195	0.05499712	0.005859186	-0.02239841	-0.8599172	-0.294337	12.95055	0	0
14.06858	0.05384265	-0.007433122	-0.06944019	-0.7995179	-1.42448	1.828961	0	0
14.08509	0.05321287	-0.02286428	-0.03814042	-0.9345467	0.9445471	-4.074827	0	0
14.10165	0.05211068	-0.02977216	-0.06654795	-0.4170806	-0.8588983	15.64553	0	0
14.11822	0.05043089	-0.03886712	-0.1013981	-0.5490043	-1.051962	-3.982152	0	0
14.13478	0.04938088	-0.04844838	-0.06338239	-0.5783593	1.147383	-0.8859863	0	0
14.15135	0.04812072	-0.05349963	-0.07606765	-0.3049115	-0.3828638	8.253147	0	0
14.16792	0.04704421	-0.05823356	-0.06498191	-0.2857569	0.3345876	0.5781196	0	0
14.18448	0.04557369	-0.06188035	-0.08876617	-0.2201334	-0.7178516	1.980634	0	0
14.20117	0.04221175	-0.06422443	-0.2014885	-0.1404864	-3.389965	2.395273	0	0
14.21768	0.04213295	-0.06432053	-0.004772601	-0.005820344	5.92564	4.056522	0	0
14.23418	0.04215921	-0.06433976	0.001591711	-0.001164832	0.1927744	0.141015	0	0
14.25075	0.04215921	-0.06433976	0	0	-0.04813353	0.03522465	0	0
14.26732	0.04218549	-0.06435898	0.001585705	-0.001160272	0.04785806	-0.03501809	0	0
14.3062	0.04215921	-0.06433976	-0.0006756653	0.0004943893	-0.04078324	0.02984139	0	0
14.32277	0.04215921	-0.06433976	0	0	0.01218503	-0.008915877	0	0
14.33933	0.04215921	-0.06430131	0	0.002320678	0	0.07003619	0	0
14.3559	0.04213295	-0.06428209	-0.001585572	0.001160339	-0.04785541	-0.03502112	0	0
14.37247	0.04210668	-0.06426287	-0.001585797	0.001160339	-6.784807E-06	0	0	0
14.38903	0.04208041	-0.06424365	-0.001585797	0.001159889	0	-1.357664E-05	0	0
14.4056	0.04208041	-0.06424365	0	0	0.04786082	-0.03500653	0	0
14.42217	0.04205414	-0.06422443	-0.001585572	0.001160339	-0.04785403	0.03502011	0	0
14.43884	0.04205414	-0.06422443	0	0	0.047703	-0.03490958	0	0
14.45535	0.04205414	-0.06422443	0	0	0	0	0	0
14.47187	0.04202787	-0.06420521	-0.00159065	0.00116389	-0.04815977	0.03523885	0	0
14.48843	0.04202787	-0.06420521	0	0	0.04808202	-0.03518197	0	0
14.505	0.04202787	-0.06420521	0	0	0	0	0	0
14.53813	0.04202787	-0.06420521	0	0	0	0	0	0
14.5547	0.04202787	-0.06420521	0	0	0	0	0	0
14.57127	0.04202787	-0.06420521	0	0	0	0	0	0
14.58783	0.04202787	-0.06420521	0	0	0	0	0	0
14.60496	0.04202787	-0.06420521	0	0	0	0	0	0
14.62097	0.04202787	-0.06420521	0	0	0	0	0	0
14.63753	0.04202787	-0.06420521	0	0	0	0	0	0
14.6541	0.04202787	-0.06420521	0	0	0	0	0	0
14.67067	0.04202787	-0.06420521	0	0	0	0	0	0
14.68723	0.04202787	-0.06420521	0	0	0	0	0	0
14.7038	0.04202787	-0.06420521	0	0	0	0	0	0
14.72037	0.04202787	-0.06420521	0	0	0	0	0	0
14.73693	0.04202787	-0.06420521	0	0	0	0	0	0
14.7535	0.04202787	-0.06420521	0	0	0	0	0	0
14.77007	0.04202787	-0.06420521	0	0	0	0	0	0
14.78663	0.04202787	-0.06420521	0	0	0	0	0	0
14.8032	0.04202787	-0.06420521	0	0	0	0	0	0
14.81977	0.04202787	-0.06420521	0	0	0	0	0	0
14.83633	0.04202787	-0.06420521	0	0	0	0	0	0
14.8529	0.04202787	-0.06420521	0	0	0	0	0	0
14.88615	0.04202787	-0.06420521	0	0	0	0	0	0
14.90266	0.04202787	-0.06420521	0	0	0	0	0	0
14.91918	0.04202787	-0.06420521	0	0	0	0	0	0
14.93573	0.04202787	-0.06420521	0	0	0	0	0	0
14.9523	0.04202787	-0.06420521	0	0	0	0	0	0
14.96886	0.04202787	-0.06420521	0	0	0	0	0	0
14.98572	0.04202787	-0.06420521	0	0	0	0	0	0
15.002	0.04202787	-0.06420521	0	0	0	0	0	0
15.01875	0.04202787	-0.06420521	0	0	0	0	0	0
15.03526	0.04202787	-0.06420521	0	0	0	0	0	0
15.0517	0.04202787	-0.06420521	0	0	0	0	0	0
15.06826	0.04202787	-0.06420521	0	0	0	0	0	0
15.08483	0.04202787	-0.06420521	0	0	0	0	0	0
15.1014	0.04202787	-0.06420521	0	0	0	0	0	0
15.11796	0.04202787	-0.06420521	0	0	0	0	0	0
15.13483	0.04202787	-0.06420521	0	0	0	0	0	0
15.1511	0.04202787	-0.06420521	0	0	0	0	0	0
15.18423	0.04202787	-0.06420521	0	0	0	0	0	0
15.25758	0.04202787	-0.06420521	0	0	0	0	0	0
15.27443	0.04202787	-0.06420521	0	0	0	0	0	0
15.29094	0.04202787	-0.06420521	0	0	0	0	0	0
15.30728	0.04202787	-0.06420521	0	0	0	0	0	0
15.32396	0.04202787	-0.06420521	0	0	0	0	0	0
15.34041	0.04202787	-0.06420521	0	0	0	0	0	0
15.35698	0.04202787	-0.06420521	0	0	0	0	0	0
15.37354	0.04202787	-0.06420521	0	0	0	0	0	0
15.39011	0.04202787	-0.06420521	0	0	0	0	0	0
15.40668	0.04202787	-0.06420521	0	0	0	0	0	0
15.42353	0.04202787	-0.06420521	0	0	0	0	0	0
15.45638	0.04202787	-0.06420521	0	0	0	0	0	0
15.47307	0.04202787	-0.06420521	0	0	0	0	0	0
15.48958	0.04202787	-0.06420521	0	0	0	0	0	0
15.50608	0.04202787	-0.06420521	0	0	0	0	0	0
15.52265	0.04202787	-0.06420521	0	0	0	0	0	0
15.53961	0.0420016	-0.06418598	-0.001548402	0.001133137	-0.04617533	0.03379162	0	0
15.55578	0.04171263	-0.06385924	-0.01787317	0.02020983	-0.4927251	0.5757853	0	0
15.57264	0.04102959	-0.06301372	-0.04051262	0.05014954	-0.6854696	0.9065046	0	0
15.58891	0.03947948	-0.06157307	-0.09525957	0.08853243	-1.652361	1.158465	0	0
15.60548	0.03569536	-0.05857884	-0.2283966	0.1807216	-4.05402	2.807158	0	0
15.62204	0.03254114	-0.05600937	-0.1904109	0.1551114	1.146442	-0.7729385	0	0
15.63861	0.02701974	-0.05141302	-0.3332916	0.2774523	-4.312521	3.692576	0	0
15.65518	0.01705098	-0.0439402	-0.6016809	0.4510342	-8.100003	5.238709	0	0
15.67175	0.008999757	-0.03795259	-0.4860007	0.3614339	3.491234	-2.70414	0	0
15.68831	-0.001526315	-0.03015216	-0.6354281	0.4708888	-4.510118	3.303639	0	0
15.70523	-0.009447088	-0.023945	-0.4681283	0.3668517	4.996201	-3.106936	0	0
15.72144	-0.01978689	-0.01536634	-0.6377313	0.5291088	-5.118775	4.897069	0	0
15.73801	-0.02680936	-0.008810596	-0.4239018	0.3957281	6.52323	-4.069005	0	0
15.75458	-0.03301432	-0.002060844	-0.3745532	0.4074393	1.489429	0.3534654	0	0
15.77114	-0.0409245	0.006685859	-0.4774599	0.527952	-3.105821	3.637186	0	0
15.78771	-0.04226429	0.01218564	-0.08087429	0.3319865	11.96932	-5.914423	0	0
15.80428	-0.04297353	0.02493485	-0.04281202	0.769588	1.148788	13.2076	0	0
15.82084	-0.04160755	0.03527296	0.08245514	0.6240457	3.780788	-4.392727	0	0
15.83741	-0.03984732	0.04801583	0.1062479	0.7691609	0.7180873	4.379711	0	0
15.85398	-0.03737732	0.05792034	0.1490979	0.5978719	1.293255	-5.169662	0	0
15.87054	-0.03488058	0.06789255	0.1507034	0.6019241	0.04845401	0.122298	0	0
15.88711	-0.0314633	0.08043904	0.2062676	0.7573075	1.676932	4.689481	0	0
15.90368	-0.02922852	0.08693757	0.1348918	0.3922521	-2.154127	-11.01739	0	0
15.92024	-0.0244688	0.09904384	0.2873301	0.73082	4.600862	10.21859	0	0
15.93681	-0.02133887	0.108336	0.1889232	0.5608756	-2.970096	-5.129228	0	0
15.9534	-0.01962906	0.1177197	0.103044	0.5655219	-2.589827	0.1401168	0	0
15.96994	-0.0174456	0.1300032	0.1320067	0.742633	0.8741187	5.345377	0	0
15.98651	-0.01591971	0.1391468	0.09210821	0.5519391	-1.205143	-5.75996	0	0
16.06948	-0.009789161	0.1741454	0.07388476	0.4217997	-0.1830753	-1.307399	0	0
16.13561	-0.005605204	0.190787	0.06327262	0.2516653	-0.07117454	-1.141074	0	0
16.15708	-0.01015755	0.1939085	-0.2120414	0.1453961	-3.143034	-1.213188	0	0
16.17365	-0.0150515	0.1972631	-0.2953994	0.2024846	-2.191537	1.500894	0	0
16.19021	-0.02104952	0.2013732	-0.3620416	0.2480833	-2.011265	1.376171	0	0
16.20708	-0.0246266	0.2038237	-0.2120555	0.1452733	4.48579	-3.074847	0	0
16.22335	-0.02554707	0.2044543	-0.05659585	0.03876931	4.692052	-3.214481	0	0
16.2401	-0.02820305	0.2062735	-0.1584902	0.1085605	-3.085658	2.11348	0	0
16.25662	-0.03180506	0.2087766	-0.2181464	0.1515907	-1.793097	1.293367	0	0
16.27305	-0.03293546	0.2096228	-0.06880106	0.05150319	4.533608	-3.038311	0	0
16.28964	-0.03658893	0.2122328	-0.2201691	0.1572872	-4.583598	3.203262	0	0
16.30618	-0.04100332	0.2155436	-0.2669143	0.2001878	-1.410856	1.294817	0	0
16.32275	-0.04615141	0.2197883	-0.3107396	0.256207	-1.323792	1.692125	0	0
16.33931	-0.04730678	0.2218379	-0.06973821	0.1237156	7.273436	-3.998599	0	0
16.35588	-0.04604638	0.226403	0.07608709	0.2755802	4.401269	4.583546	0	0
16.3727	-0.04160755	0.2312352	0.2639173	0.2873065	5.6263	0.3512523	0	0
16.38901	-0.03792917	0.2337491	0.2254537	0.1540836	-1.160833	-4.020675	0	0
16.40622	-0.03380291	0.2366035	0.239786	0.1658723	0.427529	0.3516541	0	0
16.42215	-0.03319832	0.2370163	0.03796581	0.0259247	-6.091297	-4.22387	0	0
16.43875	-0.03309318	0.2370881	0.006333519	0.00432452	-0.9725228	-0.6640893	0	0
16.45528	-0.03301432	0.2371419	0.004770475	0.003256786	-0.0471755	-0.03222616	0	0
16.47185	-0.03293546	0.2372676	0.00476004	0.007584043	-0.0003152738	0.1307399	0	0
16.48841	-0.03285659	0.2373932	0.004760264	0.007583144	6.78793E-06	-2.715172E-05	0	0
16.50498	-0.03275144	0.2375009	0.006346869	0.006500223	0.04788383	-0.03268261	0	0
16.52155	-0.03267258	0.2375547	0.00476004	0.003249662	-0.04789062	-0.09810214	0	0
16.53812	-0.03267258	0.2375547	0	0	-0.14365	-0.09806934	0	0
16.55468	-0.03264629	0.2375368	0.001587012	-0.001083045	0.04789613	-0.03268638	0	0
16.57134	-0.03264629	0.2375368	0	0	-0.0477669	0.03259818	0	0
16.58785	-0.03262001	0.2375188	0.00159192	-0.001087451	0.04799175	-0.03278348	0	0
16.60438	-0.03262001	0.2375188	0	0	-0.04818013	0.03291216	0	0
16.65861	-0.03248857	0.2374291	0.002423752	-0.001654716	0.03425371	-0.02338529	0	0
16.67541	-0.03248857	0.2374291	0	0	-0.03412217	0.0232955	0	0
16.69175	-0.03248857	0.2374291	0	0	0	0	0	0
16.73274	-0.03248857	0.2374291	0	0	0	0	0	0
16.74931	-0.03248857	0.2374291	0	0	0	0	0	0
16.78244	-0.03251485	0.2374471	-0.0007933024	0.0005419101	-0.01596128	0.01090325	0	0
16.79901	-0.03251485	0.2374471	0	0	0.01596128	-0.01090325	0	0
16.81558	-0.03251485	0.2374471	0	0	0	0	0	0
16.83214	-0.03254114	0.237465	-0.00158683	0.001082921	-0.04789062	0.03268262	0	0
16.84871	-0.03254114	0.237465	0	0	0.04789062	-0.03268262	0	0
16.86555	-0.03254114	0.237465	0	0	0	0	0	0
16.88206	-0.03254114	0.237465	0	0	0	0	0	0
16.89841	-0.03254114	0.237465	0	0	0	0	0	0
16.91509	-0.03251485	0.2374471	0.001576304	-0.001075738	0.04772956	-0.0325727	0	0
16.93155	-0.03251485	0.2374471	0	0	-0.04757569	0.0324677	0	0
16.94811	-0.03251485	0.2374471	0	0	0	0	0	0
16.96468	-0.03248857	0.2374291	0.001586605	-0.00108382	0.04788383	-0.03270976	0	0
16.98125	-0.03248857	0.2374291	0	0	-0.04788383	0.03270976	0	0
17.00106	-0.03246228	0.2374112	0.001327095	-0.0009056663	0.03648174	-0.02489671	0	0
17.01762	-0.03246228	0.2374112	0	0	-0.03648174	0.02489671	0	0
17.03419	-0.03246228	0.2374112	0	0	0	0	0	0
17.05076	-0.03243599	0.2373932	0.00158683	-0.00108382	0.04789062	-0.03270976	0	0
17.06733	-0.03243599	0.2373932	0	0	-0.04789062	0.03270976	0	0
17.08389	-0.0324097	0.2373753	0.001586605	-0.001082921	0.04788383	-0.03268262	0	0
17.10046	-0.03238341	0.2373573	0.00158683	-0.00108382	6.78793E-06	-2.714469E-05	0	0
17.11703	-0.03235712	0.2373394	0.00158683	-0.001082921	0	2.714469E-05	0	0
17.13359	-0.03238341	0.2373214	-0.00158683	-0.00108382	-0.09578124	-2.714469E-05	0	0
17.15016	-0.03235712	0.2373035	0.00158683	-0.001082921	0.09578124	2.714469E-05	0	0
17.16677	-0.03235712	0.2373035	0	0	-0.04783005	0.03264128	0	0
17.18329	-0.03235712	0.2373035	0	0	0	0	0	0
17.19986	-0.03233084	0.2372855	0.001586788	-0.001083945	0.04795559	-0.03275878	0	0
17.21643	-0.03230455	0.2372676	0.00158683	-0.001082921	1.275445E-06	3.091286E-05	0	0
17.23299	-0.03230455	0.2372676	0	0	-0.04789062	0.03268262	0	0
17.24956	-0.03230455	0.2372676	0	0	0	0	0	0
17.26634	-0.03227826	0.2372496	0.001566629	-0.001070023	0.04697809	-0.03208649	0	0
17.2827	-0.03227826	0.2372496	0	0	-0.04728096	0.03229336	0	0
17.29926	-0.03225197	0.2372317	0.001587012	-0.001083045	0.04820972	-0.03290039	0	0
17.31588	-0.03225197	0.2372317	0	0	-0.04783005	0.03264128	0	0
17.33289	-0.03222568	0.2372137	0.001544983	-0.001055388	0.04594272	-0.03138378	0	0
17.34896	-0.03222568	0.2372137	0	0	-0.04669757	0.03189942	0	0
17.36553	-0.03225197	0.2371958	-0.001586605	-0.001082921	-0.04861138	-0.03317919	0	0
17.3821	-0.03225197	0.2371958	0	0	0.04788383	0.03268262	0	0
17.39866	-0.03222568	0.2371778	0.001586605	-0.00108382	0.04788383	-0.03270976	0	0
17.41545	-0.03222568	0.2371778	0	0	-0.04757165	0.03249651	0	0
17.4318	-0.03222568	0.2371778	0	0	0	0	0	0
17.44847	-0.03222568	0.2371778	0	0	0	0	0	0
17.46498	-0.03222568	0.2371778	0	0	0	0	0	0
17.48149	-0.03222568	0.2371778	0	0	0	0	0	0
17.49806	-0.03222568	0.2371778	0	0	0	0	0	0
17.51463	-0.03222568	0.2371778	0	0	0	0	0	0
17.5312	-0.03219939	0.2371599	0.00158683	-0.001082921	0.04789062	-0.03268262	0	0
17.54776	-0.0321731	0.2371419	0.00158683	-0.00108382	0	-2.714469E-05	0	0
17.56433	-0.0321731	0.2371419	0	0	-0.04789062	0.03270976	0	0
17.5809	-0.03214682	0.237124	0.00158683	-0.001082921	0.04789062	-0.03268262	0	0
17.59758	-0.03214682	0.237124	0	0	-0.04772578	0.03257012	0	0
17.61403	-0.03214682	0.2370881	0	-0.002182065	0	-0.06585865	0	0
17.6306	-0.03214682	0.2370881	0	0	0	0.06607928	0	0
17.64717	-0.03212053	0.2370701	0.00158697	-0.00108407	0.04789486	-0.03271729	0	0
17.66373	-0.03212053	0.2370701	0	0	-0.04790037	0.03272106	0	0
17.6803	-0.03209424	0.2370522	0.00158683	-0.001082921	0.04789062	-0.03268262	0	0
17.69687	-0.03206795	0.2370342	0.00158683	-0.00108382	0	-2.714469E-05	0	0
17.73	-0.03201537	0.2369983	0.00158683	-0.001083371	0	9.048231E-06	0	0
17.74657	-0.03201537	0.2369624	0	-0.002166741	-0.03192708	-0.02179746	0	0
17.76314	-0.03198908	0.2369445	0.00158683	-0.001082921	0.04789062	0.03270976	0	0
17.7797	-0.03198908	0.2369445	0	0	-0.04789062	0.03268262	0	0
17.79627	-0.03201537	0.2369265	-0.00158683	-0.00108382	-0.04789062	-0.03270976	0	0
17.81284	-0.03198908	0.2369086	0.00158683	-0.001082921	0.09578124	2.714469E-05	0	0
17.8487	-0.03198908	0.2369086	0	0	-0.03026725	0.02065567	0	0
17.86526	-0.03198908	0.2369086	0	0	0	0	0	0
17.88183	-0.03198908	0.2369086	0	0	0	0	0	0
17.8984	-0.03198908	0.2369086	0	0	0	0	0	0
17.91497	-0.03198908	0.2369086	0	0	0	0	0	0
17.93153	-0.03198908	0.2369086	0	0	0	0	0	0
17.9481	-0.03198908	0.2369086	0	0	0	0	0	0
17.96467	-0.03198908	0.2369086	0	0	0	0	0	0
17.98123	-0.03196279	0.2368906	0.00158683	-0.00108382	0.04789062	-0.03270976	0	0
17.9978	-0.03196279	0.2368906	0	0	-0.04789062	0.03270976	0	0
18.01438	-0.03198908	0.2368727	-0.001585552	-0.001082049	-0.04783278	-0.03264314	0	0
18.03093	-0.03196279	0.2368547	0.001588293	-0.001084819	0.09579233	-8.362073E-05	0	0
18.0475	-0.03196279	0.2368547	0	0	-0.04795409	0.03275311	0	0
18.06407	-0.03191022	0.2368189	0.0031738	-0.00216699	0.09578548	-0.0653999	0	0
18.08064	-0.03188393	0.2368009	0.00158683	-0.001082921	-0.04789761	0.03271917	0	0
18.0972	-0.03188393	0.236765	0	-0.00216764	-0.04789062	-0.0327369	0	0
18.11377	-0.03180506	0.2367112	0.004760489	-0.003249662	0.1436719	-0.03265547	0	0
18.13047	-0.03175248	0.2366753	0.003149007	-0.00214991	-0.048445	0.03306116	0	0
18.1469	-0.0316999	0.2366394	0.003199072	-0.002184091	0.001511062	-0.001031649	0	0
18.16349	-0.0316999	0.2366035	0	-0.002165148	-0.09687722	0.0005736593	0	0
18.18003	-0.03167361	0.2365855	0.001588842	-0.001084294	0.0479541	0.03262211	0	0
18.1966	-0.03164732	0.2365676	0.00158683	-0.00108382	-6.076445E-05	1.430517E-05	0	0
18.21317	-0.03164732	0.2365676	0	0	-0.04789062	0.03270976	0	0
18.22974	-0.03164732	0.2365676	0	0	0	0	0	0
18.2463	-0.03164732	0.2365676	0	0	0	0	0	0
18.26287	-0.03164732	0.2365676	0	0	0	0	0	0
18.27944	-0.03162104	0.2365496	0.00158683	-0.001082921	0.04789062	-0.03268262	0	0
18.29609	-0.03162104	0.2365496	0	0	-0.04777511	0.03260379	0	0
18.31257	-0.03162104	0.2365496	0	0	0	0	0	0
18.32914	-0.03162104	0.2365496	0	0	0	0	0	0
18.34571	-0.03162104	0.2365496	0	0	0	0	0	0
18.36227	-0.03162104	0.2365496	0	0	0	0	0	0
18.37884	-0.03164732	0.2365317	-0.00158683	-0.00108382	-0.04789062	-0.03270976	0	0
18.39541	-0.03162104	0.2365137	0.00158683	-0.001082921	0.09578124	2.714469E-05	0	0
18.41217	-0.03162104	0.2365137	0	0	-0.04760835	0.03248998	0	0
18.42854	-0.03162104	0.2365137	0	0	0	0	0	0
18.4452	-0.03162104	0.2365137	0	0	0	0	0	0
18.46167	-0.03162104	0.2365137	0	0	0	0	0	0
18.47824	-0.03162104	0.2365137	0	0	0	0	0	0
18.49481	-0.03162104	0.2365137	0	0	0	0	0	0
18.51138	-0.03162104	0.2365137	0	0	0	0	0	0
18.52794	-0.03162104	0.2365137	0	0	0	0	0	0
18.54451	-0.03159475	0.2364958	0.00158683	-0.00108382	0.04789062	-0.03270976	0	0
18.56108	-0.03156846	0.2364778	0.00158683	-0.001082921	0	2.714469E-05	0	0
18.57779	-0.03154217	0.2364599	0.001572886	-0.001074297	-0.000418956	0.0002591257	0	0
18.5943	-0.03151588	0.2364419	0.001592329	-0.001087577	0.0005852072	-0.0003997016	0	0
18.61081	-0.03151588	0.236406	0	-0.002173999	-0.04822037	-0.03290004	0	0
18.62783	-0.03143701	0.2363522	0.004635087	-0.003164934	0.1382478	-0.02955598	0	0
18.74341	-0.03125298	0.2361906	0.001592178	-0.001397635	-0.02294823	0.01332815	0	0
18.75992	-0.03125298	0.2361906	0	0	-0.01205325	0.01058051	0	0
18.77645	-0.03125298	0.2361906	0	0	0	0	0	0
18.79301	-0.03125298	0.2361547	0	-0.002166741	0	-0.06547907	0	0
18.81256	-0.03125298	0.2361547	0	0	0	0.06000086	0	0
18.82913	-0.03125298	0.2361547	0	0	0	0	0	0
18.84569	-0.03125298	0.2361547	0	0	0	0	0	0
18.86226	-0.03122669	0.2361368	0.001586942	-0.00108382	0.04789401	-0.03270976	0	0
18.87883	-0.03122669	0.2361368	0	0	-0.04789401	0.03270976	0	0
18.8954	-0.03122669	0.2361368	0	0	0	0	0	0
18.91204	-0.03122669	0.2361368	0	0	0	0	0	0
18.92853	-0.03122669	0.2361368	0	0	0	0	0	0
18.9451	-0.03122669	0.2361368	0	0	0	0	0	0
18.96166	-0.03122669	0.2361368	0	0	0	0	0	0
18.97823	-0.03122669	0.2361368	0	0	0	0	0	0
18.9948	-0.03122669	0.2361368	0	0	0	0	0	0
19.01136	-0.03122669	0.2361368	0	0	0	0	0	0
19.02812	-0.03122669	0.2361368	0	0	0	0	0	0
19.04462	-0.03122669	0.2361368	0	0	0	0	0	0
19.06106	-0.03122669	0.2361368	0	0	0	0	0	0
19.07765	-0.03122669	0.2361368	0	0	0	0	0	0
19.09419	-0.03122669	0.2361368	0	0	0	0	0	0
19.11076	-0.03122669	0.2361368	0	0	0	0	0	0
19.12733	-0.03122669	0.2361368	0	0	0	0	0	0
19.1439	-0.03122669	0.2361368	0	0	0	0	0	0
19.16046	-0.03122669	0.2361368	0	0	0	0	0	0
19.17703	-0.03122669	0.2361368	0	0	0	0	0	0
19.19373	-0.03122669	0.2361368	0	0	0	0	0	0
19.21016	-0.03122669	0.2361368	0	0	0	0	0	0
19.22673	-0.03122669	0.2361368	0	0	0	0	0	0
19.2433	-0.03122669	0.2361368	0	0	0	0	0	0
19.25986	-0.03122669	0.2361368	0	0	0	0	0	0
19.27643	-0.03122669	0.2361368	0	0	0	0	0	0
19.293	-0.03122669	0.2361368	0	0	0	0	0	0
19.30957	-0.03122669	0.2361368	0	0	0	0	0	0
19.32614	-0.03122669	0.2361368	0	0	0	0	0	0
19.3427	-0.03122669	0.2361368	0	0	0	0	0	0
19.35935	-0.03122669	0.2361368	0	0	0	0	0	0
19.37583	-0.03122669	0.2361368	0	0	0	0	0	0
19.3924	-0.03125298	0.2361547	-0.001586942	0.00108382	-0.04801839	0.03279471	0	0
19.40897	-0.03125298	0.2361547	0	0	0.04789401	-0.03270976	0	0
19.42554	-0.03125298	0.2361547	0	0	0	0	0	0
19.4421	-0.03122669	0.2361368	0.001586942	-0.00108382	0.04789401	-0.03270976	0	0
19.45893	-0.03122669	0.2361368	0	0	-0.04752469	0.03245753	0	0
19.47523	-0.03122669	0.2361368	0	0	0	0	0	0
19.49195	-0.03122669	0.2361368	0	0	0	0	0	0
19.50846	-0.03122669	0.2361368	0	0	0	0	0	0
19.52498	-0.03122669	0.2361368	0	0	0	0	0	0
19.5415	-0.03122669	0.2361368	0	0	0	0	0	0
19.55807	-0.03125298	0.2361547	-0.001586942	0.00108382	-0.0479658	0.03275879	0	0
19.57464	-0.03127927	0.2361727	-0.00158683	0.001082921	3.390452E-06	-2.714469E-05	0	0
19.59152	-0.03130556	0.2361906	-0.001557072	0.001063496	0.0008895862	-0.0005807075	0	0
19.60777	-0.03148959	0.2363522	-0.01132446	0.009940764	-0.2947803	0.2679165	0	0
19.62434	-0.03214682	0.2369445	-0.03967029	0.03575347	-0.8637325	0.786545	0	0
19.64433	-0.0354851	0.2399056	-0.1669582	0.1480947	-3.481429	3.072625	0	0
19.66107	-0.04247444	0.2456102	-0.4175984	0.340836	-6.823535	5.247272	0	0
19.67747	-0.05302918	0.2558639	-0.6436811	0.6253253	-6.823191	8.585904	0	0
19.69409	-0.05701708	0.2672551	-0.2398539	0.6851268	12.22836	1.810858	0	0
19.71061	-0.05806623	0.2797821	-0.06353895	0.7586635	5.320584	2.219088	0	0
19.72762	-0.05704331	0.2947847	0.06012384	0.8818035	3.688622	3.673028	0	0
19.74373	-0.05641376	0.3011831	0.03906551	0.3970403	-0.6356516	-14.63271	0	0
19.7603	-0.0544199	0.3114388	0.1203499	0.6190385	2.487099	6.792587	0	0
19.77687	-0.05079836	0.3164405	0.2185962	0.301901	2.965079	-9.571228	0	0
19.79366	-0.04772689	0.3217809	0.1828683	0.3179561	-1.070874	0.48122	0	0
19.81018	-0.04339379	0.3299067	0.2624222	0.492118	2.388432	5.228825	0	0
19.82669	-0.04000496	0.3356747	0.2052356	0.3493235	-1.731677	-4.323983	0	0
19.8432	-0.03869121	0.3453533	0.07957315	0.5862263	-3.805424	7.174107	0	0
19.85971	-0.03895397	0.3535323	-0.0159115	0.4952807	-2.891386	-2.753938	0	0
19.87627	-0.03890142	0.3563184	0.003174053	0.168282	0.5771326	-9.888195	0	0
19.89324	-0.03898025	0.371841	-0.004645697	0.91483	-0.2332613	22.26936	0	0
19.90975	-0.03877003	0.3770584	0.01273232	0.3160163	0.519091	-17.8869	0	0
19.92597	-0.03813939	0.38671	0.0388758	0.594968	0.7987131	8.52229	0	0
19.94277	-0.03758755	0.3905182	0.03284394	0.2266521	-0.1826517	-11.15303	0	0
19.95928	-0.03343491	0.3954896	0.251465	0.3010492	6.56211	2.233099	0	0
19.97579	-0.0321731	0.3964197	0.07642639	0.05633195	-5.300371	-7.410323	0	0
19.99224	-0.0321731	0.3964197	0	0	-2.31937	-1.709549	0	0
20.0088	-0.0321731	0.3964197	0	0	0	0	0	0
20.02537	-0.03214682	0.3964018	0.00158683	-0.001079323	0.04789062	-0.03257403	0	0
20.04194	-0.03212053	0.3963839	0.001586605	-0.001079323	-6.78793E-06	0	0	0
20.05851	-0.03209424	0.3963303	0.001586647	-0.003237596	1.275299E-06	-0.06513307	0	0
20.07507	-0.03209424	0.3963303	0	0	-0.04788511	0.09771086	0	0
20.09164	-0.03214682	0.396366	-0.003173435	0.002158646	-0.09577996	0.06515182	0	0
20.10839	-0.03219939	0.3964376	-0.003138609	0.004269612	0.00104519	0.06335531	0	0
20.15793	-0.0466766	0.4107711	-0.2922577	0.289357	-4.36156	4.30074	0	0
20.17447	-0.0498009	0.4209621	-0.1888438	0.6159824	1.564978	4.942872	0	0
20.19104	-0.05182198	0.4341754	-0.121993	0.797555	2.018957	5.483659	0	0
20.20761	-0.05415751	0.4415155	-0.1409731	0.4430495	-0.572821	-10.699	0	0
20.22447	-0.05727938	0.446921	-0.1850696	0.3204503	-1.318842	-3.666703	0	0
20.24074	-0.05859076	0.4517727	-0.0806216	0.2982748	3.152248	-0.6692576	0	0
20.2575	-0.06333622	0.456897	-0.2831767	0.3057812	-6.133602	0.2273025	0	0
20.27387	-0.06671663	0.4592175	-0.206442	0.1417116	2.315989	-4.951917	0	0
20.29044	-0.07284456	0.4634645	-0.3698831	0.25635	-4.961508	3.480028	0	0
20.30703	-0.07535703	0.4651567	-0.1514263	0.1019927	6.588109	-4.655029	0	0
20.32357	-0.0751477	0.4650127	0.01265612	-0.008707982	4.952304	-3.341145	0	0
20.34014	-0.07512153	0.4649947	0.001579409	-0.001086519	-0.3345656	0.2302018	0	0
20.35671	-0.07504302	0.4649047	0.004738678	-0.005432593	0.09534691	-0.1311648	0	0
20.40641	-0.07501686	0.4648867	0.0005264698	-0.0003627725	-0.06356235	0.07650374	0	0
20.42298	-0.07488602	0.4647607	0.007897497	-0.00760563	0.111229	-0.1092949	0	0
20.43954	-0.07483368	0.4646886	0.003159269	-0.004347873	-0.143	0.0983193	0	0
20.45611	-0.07475517	0.4645626	0.004738678	-0.007607429	0.04766667	-0.09837359	0	0
20.47268	-0.0746505	0.4644186	0.006318087	-0.008692148	0.04766667	-0.03273689	0	0
20.48924	-0.07457199	0.4643286	0.004738678	-0.005434392	-0.04766667	0.09831929	0	0
20.50581	-0.07438879	0.4641666	0.01105766	-0.009778667	0.1907074	-0.1311105	0	0
20.54156	-0.0731325	0.4631945	0.03514729	-0.02719617	0.4605083	-0.332961	0	0
20.55812	-0.07132617	0.4618446	0.1090305	-0.08147989	1.412386	-1.037713	0	0
20.57469	-0.07135235	0.4617546	-0.001580491	-0.005431419	-3.338439	2.29528	0	0
20.59126	-0.07140471	0.4617186	-0.003160618	-0.002173037	-0.04769107	0.09834383	0	0
20.60782	-0.07140471	0.4617186	0	0	0.09538763	0.06558239	0	0
20.62476	-0.07143089	0.4617006	-0.001545436	-0.001062542	-0.04612099	-0.03170982	0	0
20.64096	-0.07143089	0.4617006	0	0	0.04664135	0.03206759	0	0
20.65752	-0.07143089	0.4617006	0	0	0	0	0	0
20.6743	-0.07143089	0.4616646	0	-0.002144329	0	-0.06431246	0	0
20.69066	-0.07143089	0.4616646	0	0	0	0.06471971	0	0
20.74419	-0.07153562	0.4615566	-0.001956187	-0.002017422	-0.02798835	-0.02886448	0	0
20.77733	-0.07166652	0.4612867	-0.003950772	-0.008146191	-0.02301358	-0.07071391	0	0
20.79389	-0.07177125	0.4611787	-0.006321235	-0.006517312	-0.04769382	0.0327731	0	0
20.81046	-0.07239955	0.4604589	-0.03792426	-0.04344635	-0.9537812	-1.114521	0	0
20.82703	-0.07164034	0.4597212	0.04582581	-0.04452927	2.527582	-0.03268258	0	0
20.84392	-0.06587821	0.4554043	0.3410879	-0.2555376	8.824168	-6.30617	0	0
20.86016	-0.0612129	0.4504068	0.2872874	-0.3077468	-1.623796	-1.575767	0	0
20.87694	-0.0558891	0.4442448	0.3172185	-0.3671618	0.9063998	-1.799258	0	0
20.8933	-0.04888208	0.4389126	0.4285195	-0.3260928	3.359071	1.239463	0	0
20.90997	-0.04226429	0.4300501	0.3968919	-0.5315163	-0.9576641	-6.220103	0	0
20.92648	-0.04087196	0.4203529	0.08433231	-0.5873509	-9.41897	-1.682573	0	0
20.943	-0.04047788	0.4095537	0.0238611	-0.6538735	-1.831033	-2.014265	0	0
20.95956	-0.03976849	0.3957221	0.04281854	-0.8348762	0.5730273	-5.471175	0	0
20.97613	-0.03911162	0.3878363	0.03964893	-0.4759904	-0.09565905	10.83119	0	0
20.9927	-0.03785034	0.3815799	0.0761314	-0.3776371	1.101043	2.968308	0	0
21.00926	-0.0359319	0.3771656	0.1157972	-0.2664435	1.197116	3.355831	0	0
21.02583	-0.03396062	0.3667494	0.1189864	-0.6287237	0.0962493	-10.93364	0	0
21.0424	-0.03246228	0.3585508	0.0904403	-0.4948678	-0.861522	4.039778	0	0
21.05958	-0.02886041	0.3375676	0.2095913	-1.221006	3.530146	-21.51365	0	0
21.07553	-0.02538928	0.3204235	0.2176617	-1.075042	0.2435768	4.405475	0	0
21.0921	-0.02281183	0.3054895	0.1555572	-0.9013181	-1.909939	5.342628	0	0
21.10866	-0.0198395	0.2946059	0.1794516	-0.6570831	0.7211759	7.37145	0	0
21.12523	-0.01518304	0.2852194	0.2810643	-0.5665727	3.067032	2.731925	0	0
21.1418	-0.01431481	0.2793348	0.05240659	-0.3551926	-6.900905	6.379462	0	0
21.15837	-0.01136793	0.2708174	0.1778741	-0.5141158	3.786616	-4.796309	0	0
21.17493	-0.008605051	0.2641038	0.1667678	-0.4052318	-0.3351887	3.286123	0	0
21.1915	-0.006841999	0.2624383	0.1064181	-0.1005282	-1.821358	9.195975	0	0
21.30747	-0.00155263	0.2513835	0.04560956	-0.09532427	-0.458801	0.03926336	0	0
21.32404	-0.001526315	0.2514014	0.001588418	0.001081122	-0.3321401	0.7273802	0	0
21.34078	-0.001526315	0.2514014	0	0	-0.047686	-0.03245644	0	0
21.35717	-0.001526315	0.2514014	0	0	0	0	0	0
21.3738	-0.00155263	0.2514193	-0.001582043	0.001076783	-0.0479061	0.03260624	0	0
21.3903	-0.00155263	0.2514193	0	0	0.04774615	-0.03249738	0	0
21.40687	-0.001578946	0.2514373	-0.001588418	0.001082921	-0.04803532	0.03274859	0	0
21.42344	-0.001605262	0.251491	-0.001588608	0.003245538	-5.73072E-06	0.06527169	0	0
21.44	-0.001684209	0.2515448	-0.00476526	0.003246963	-0.09587709	4.301378E-05	0	0
21.45657	-0.001684209	0.2515448	0	0	0.1438158	-0.09799355	0	0
21.47314	-0.001710525	0.2515627	-0.001588418	0.001081122	-0.04793854	0.03262833	0	0
21.48971	-0.001710525	0.2515627	0	0	0.04793854	-0.03262833	0	0
21.5064	-0.00173684	0.2515807	-0.001576439	0.001074754	-0.04739696	0.03231338	0	0
21.52291	-0.00173684	0.2515807	0	0	0.04747592	-0.03236721	0	0
21.54205	-0.00173684	0.2515807	0	0	0	0	0	0
21.55861	-0.00173684	0.2515807	0	0	0	0	0	0
21.57518	-0.00173684	0.2515807	0	0	0	0	0	0
21.59196	-0.00173684	0.2515807	0	0	0	0	0	0
21.60847	-0.00173684	0.2515807	0	0	0	0	0	0
21.62488	-0.00173684	0.2515807	0	0	0	0	0	0
21.64149	-0.001789472	0.2516165	-0.003168082	0.00215808	-0.09593874	0.06535293	0	0
21.65801	-0.001868419	0.2516703	-0.004779015	0.003254532	-0.04862086	0.0330929	0	0
21.67458	-0.001842103	0.2516882	0.001588418	0.001081122	0.1924465	-0.06568817	0	0
21.69115	-0.001842103	0.2516882	0	0	-0.04793854	-0.03262833	0	0
21.70772	-0.001868419	0.2517062	-0.001588418	0.001082921	-0.04793854	0.03268262	0	0
21.72428	-0.001894735	0.2517241	-0.001588418	0.001081122	0	-5.428939E-05	0	0
21.74085	-0.001894735	0.2517241	0	0	0.04793854	-0.03262833	0	0
21.75742	-0.00192105	0.251742	-0.001588418	0.001082921	-0.04793854	0.03268262	0	0
21.77398	-0.00192105	0.251742	0	0	0.04793854	-0.03268262	0	0
21.79055	-0.00192105	0.251742	0	0	0	0	0	0
21.80712	-0.00192105	0.251742	0	0	0	0	0	0
21.82369	-0.00192105	0.251742	0	0	0	0	0	0
21.84025	-0.00192105	0.251742	0	0	0	0	0	0
21.85682	-0.001947366	0.2517599	-0.001588418	0.001081122	-0.04793854	0.03262833	0	0
21.87339	-0.001947366	0.2517599	0	0	0.04793854	-0.03262833	0	0
21.89018	-0.001973682	0.2517779	-0.001567484	0.001068649	-0.04699298	0.03203796	0	0
21.90669	-0.001999997	0.2517958	-0.001593739	0.001084744	-0.0007884124	0.0004833101	0	0
21.92309	-0.002026313	0.2518137	-0.001604489	0.00109206	-0.0003266102	0.0002222994	0	0
21.95622	-0.002052629	0.2518316	-0.0007942547	0.0005414916	0.01635718	-0.011115	0	0
21.97279	-0.002052629	0.2518316	0	0	0.01598105	-0.01089525	0	0
21.98936	-0.002052629	0.2518316	0	0	0	0	0	0
22.00592	-0.002052629	0.2518316	0	0	0	0	0	0
22.02277	-0.002078944	0.2518495	-0.001561806	0.001063009	-0.04673723	0.03181068	0	0
22.03928	-0.00210526	0.2518675	-0.001593739	0.001086548	-0.0009571678	0.000705577	0	0
22.0558	-0.00210526	0.2518675	0	0	0.04826026	-0.03290195	0	0
22.07231	-0.00210526	0.2518675	0	0	0	0	0	0
22.08882	-0.00210526	0.2518675	0	0	0	0	0	0
22.10533	-0.00210526	0.2518675	0	0	0	0	0	0
22.13846	-0.00210526	0.2518675	0	0	0	0	0	0
22.15502	-0.00210526	0.2518675	0	0	0	0	0	0
22.17159	-0.00210526	0.2518675	0	0	0	0	0	0
22.18816	-0.00210526	0.2518675	0	0	0	0	0	0
22.2049	-0.00210526	0.2518675	0	0	0	0	0	0
22.22141	-0.00210526	0.2518675	0	0	0	0	0	0
22.23792	-0.00210526	0.2518675	0	0	0	0	0	0
22.25443	-0.00210526	0.2518675	0	0	0	0	0	0
22.27099	-0.002078944	0.2518495	0.001588601	-0.001083045	0.04804362	-0.03275425	0	0
22.28756	-0.002078944	0.2518495	0	0	-0.04794683	0.03268826	0	0
22.30447	-0.002078944	0.2518495	0	0	0	0	0	0
22.32069	-0.002078944	0.2518495	0	0	0	0	0	0
22.33749	-0.002052629	0.2517958	0.001565883	-0.003199126	0.0474195	-0.09687884	0	0
22.35382	-0.002052629	0.2517958	0	0	-0.04725845	0.09654982	0	0
22.37052	-0.002052629	0.2517958	0	0	0	0	0	0
22.38703	-0.002026313	0.2517779	0.001593555	-0.001084618	0.04798585	-0.03266052	0	0
22.40354	-0.002026313	0.2517779	0	0	-0.0482519	0.0328416	0	0
22.44007	-0.001999997	0.2517241	0.0007205451	-0.001472902	0.01358652	-0.02777288	0	0
22.45663	-0.001999997	0.2517241	0	0	-0.01357236	0.02774394	0	0
22.4732	-0.001973682	0.2517062	0.001588235	-0.001080998	0.04793027	-0.03262269	0	0
22.49011	-0.001973682	0.2517062	0	0	-0.04744687	0.03229368	0	0
22.50633	-0.001973682	0.2517062	0	0	0	0	0	0
22.52313	-0.001973682	0.2517062	0	0	0	0	0	0
22.53964	-0.001973682	0.2517062	0	0	0	0	0	0
22.55615	-0.001973682	0.2517062	0	0	0	0	0	0
22.57266	-0.001973682	0.2517062	0	0	0	0	0	0
22.58917	-0.001973682	0.2517062	0	0	0	0	0	0
22.60573	-0.001973682	0.2517062	0	0	0	0	0	0
22.70514	-0.001973682	0.2517062	0	0	0	0	0	0
22.72177	-0.001973682	0.2517062	0	0	0	0	0	0
22.73827	-0.001973682	0.2517062	0	0	0	0	0	0
22.75484	-0.001973682	0.2517062	0	0	0	0	0	0
22.7714	-0.001973682	0.2517062	0	0	0	0	0	0
22.78797	-0.001999997	0.2517241	-0.001588418	0.001081122	-0.04793854	0.03262833	0	0
22.80454	-0.001999997	0.2517241	0	0	0.04793854	-0.03262833	0	0
22.82134	-0.001999997	0.2517241	0	0	0	0	0	0
22.83785	-0.001999997	0.2517241	0	0	0	0	0	0
22.85436	-0.001999997	0.2517241	0	0	0	0	0	0
22.87836	-0.001999997	0.2517241	0	0	0	0	0	0
22.89492	-0.001999997	0.2517241	0	0	0	0	0	0
22.91149	-0.001999997	0.2517241	0	0	0	0	0	0
22.92806	-0.001999997	0.2517241	0	0	0	0	0	0
22.94462	-0.001999997	0.2517241	0	0	0	0	0	0
22.99433	-0.001999997	0.2517241	0	0	0	0	0	0
23.01097	-0.001999997	0.2517241	0	0	0	0	0	0
23.02749	-0.001999997	0.2517241	0	0	0	0	0	0
23.04403	-0.001999997	0.2517241	0	0	0	0	0	0
23.06059	-0.001973682	0.2517062	0.001588418	-0.001081122	0.04797997	-0.03265652	0	0
23.07752	-0.001999997	0.2516882	-0.001554241	-0.00105962	-0.09381416	0.0006418613	0	0
23.09373	-0.001999997	0.2516882	0	0	0.04690709	0.03197941	0	0
23.11029	-0.001999997	0.2516882	0	0	0	0	0	0
23.12686	-0.001999997	0.2516882	0	0	0	0	0	0
23.14343	-0.001999997	0.2516882	0	0	0	0	0	0
23.16	-0.001999997	0.2516882	0	0	0	0	0	0
23.1766	-0.001999997	0.2516882	0	0	0	0	0	0
23.19313	-0.001999997	0.2516882	0	0	0	0	0	0
23.2097	-0.001999997	0.2516882	0	0	0	0	0	0
23.22663	-0.001999997	0.2516882	0	0	0	0	0	0
23.24283	-0.001999997	0.2516882	0	0	0	0	0	0
23.2594	-0.001999997	0.2516882	0	0	0	0	0	0
23.29253	-0.001999997	0.2516882	0	0	0	0	0	0
23.3091	-0.001999997	0.2516882	0	0	0	0	0	0
23.32566	-0.001999997	0.2516882	0	0	0	0	0	0
23.34575	-0.001999997	0.2516882	0	0	0	0	0	0
23.36232	-0.001999997	0.2516882	0	0	0	0	0	0
23.37889	-0.001999997	0.2516882	0	0	0	0	0	0
23.39575	-0.001999997	0.2516882	0	0	0	0	0	0
23.41202	-0.001999997	0.2516882	0	0	0	0	0	0
23.42859	-0.001999997	0.2516882	0	0	0	0	0	0
23.44516	-0.001999997	0.2516882	0	0	0	0	0	0
23.4618	-0.001999997	0.2516882	0	0	0	0	0	0
23.49486	-0.001999997	0.2516882	0	0	0	0	0	0
23.51142	-0.001999997	0.2516882	0	0	0	0	0	0
23.52799	-0.001999997	0.2516882	0	0	0	0	0	0
23.54456	-0.001999997	0.2516882	0	0	0	0	0	0
23.56137	-0.001999997	0.2516882	0	0	0	0	0	0
23.57769	-0.001999997	0.2516882	0	0	0	0	0	0
23.59426	-0.001999997	0.2516882	0	0	0	0	0	0
23.61091	-0.001999997	0.2516882	0	0	0	0	0	0
23.62739	-0.001999997	0.2516882	0	0	0	0	0	0
23.64396	-0.001999997	0.2516882	0	0	0	0	0	0
23.66053	-0.001999997	0.2516882	0	0	0	0	0	0
23.67709	-0.001999997	0.2516882	0	0	0	0	0	0
23.69366	-0.001999997	0.2516882	0	0	0	0	0	0
23.71023	-0.001999997	0.2516882	0	0	0	0	0	0
23.7268	-0.001999997	0.2516882	0	0	0	0	0	0
23.74336	-0.001999997	0.2516882	0	0	0	0	0	0
23.75993	-0.001999997	0.2516882	0	0	0	0	0	0
23.77653	-0.001973682	0.2516703	0.001585497	-0.001079134	0.04780637	-0.03253836	0	0
23.79306	-0.001973682	0.2516703	0	0	-0.04785316	0.03257021	0	0
23.80963	-0.001973682	0.2516703	0	0	0	0	0	0
23.8262	-0.001973682	0.2516703	0	0	0	0	0	0
23.84276	-0.001999997	0.2516524	-0.001588418	-0.001082921	-0.04793854	-0.03268262	0	0
23.85933	-0.001973682	0.2516344	0.001588418	-0.001081122	0.09587709	5.428939E-05	0	0
23.8761	-0.001973682	0.2516344	0	0	-0.04765053	0.0324323	0	0
23.89246	-0.001973682	0.2516344	0	0	0	0	0	0
23.90903	-0.001973682	0.2516344	0	0	0	0	0	0
23.92563	-0.001973682	0.2516344	0	0	0	0	0	0
23.94216	-0.001973682	0.2516344	0	0	0	0	0	0
23.9753	-0.001973682	0.2516344	0	0	0	0	0	0
23.99186	-0.001973682	0.2516344	0	0	0	0	0	0
24.00843	-0.001973682	0.2516344	0	0	0	0	0	0
24.025	-0.001973682	0.2516344	0	0	0	0	0	0
24.04156	-0.001973682	0.2516344	0	0	0	0	0	0
24.05813	-0.001973682	0.2516344	0	0	0	0	0	0
24.07474	-0.001973682	0.2516344	0	0	0	0	0	0
24.09126	-0.001973682	0.2516344	0	0	0	0	0	0
24.10826	-0.001973682	0.2516344	0	0	0	0	0	0
24.1244	-0.001973682	0.2516344	0	0	0	0	0	0
24.14129	-0.001973682	0.2516344	0	0	0	0	0	0
24.15753	-0.001973682	0.2516344	0	0	0	0	0	0
24.17854	-0.001973682	0.2516344	0	0	0	0	0	0
24.19533	-0.001973682	0.2516344	0	0	0	0	0	0
24.21184	-0.001973682	0.2516344	0	0	0	0	0	0
24.22835	-0.001973682	0.2516344	0	0	0	0	0	0
24.24486	-0.001973682	0.2516344	0	0	0	0	0	0
24.26138	-0.001973682	0.2516344	0	0	0	0	0	0
24.27794	-0.001973682	0.2516344	0	0	0	0	0	0
24.2945	-0.001973682	0.2516344	0	0	0	0	0	0
24.31107	-0.001973682	0.2516344	0	0	0	0	0	0
24.32792	-0.001973682	0.2516344	0	0	0	0	0	0
24.34421	-0.001973682	0.2516344	0	0	0	0	0	0
24.36095	-0.001973682	0.2516344	0	0	0	0	0	0
24.37734	-0.001999997	0.2516165	-0.001605235	-0.001092568	-0.0484461	-0.03297378	0	0
24.39397	-0.001999997	0.2516165	0	0	0.04860277	0.03308042	0	0
24.41048	-0.001999997	0.2516165	0	0	0	0	0	0
24.42704	-0.001999997	0.2516165	0	0	0	0	0	0
24.44361	-0.001999997	0.2516165	0	0	0	0	0	0
24.46018	-0.001999997	0.2516165	0	0	0	0	0	0
24.47674	-0.001999997	0.2516165	0	0	0	0	0	0
24.49354	-0.001999997	0.2516165	0	0	0	0	0	0
24.50988	-0.001999997	0.2516165	0	0	0	0	0	0
24.52645	-0.001973682	0.2515986	0.001588418	-0.001082921	0.04827759	-0.03291376	0	0
24.54308	-0.001973682	0.2515986	0	0	-0.04783666	0.03261315	0	0
24.55958	-0.001973682	0.2515986	0	0	0	0	0	0
24.57615	-0.001973682	0.2515986	0	0	0	0	0	0
24.59271	-0.001973682	0.2515986	0	0	0	0	0	0
24.60928	-0.001973682	0.2515986	0	0	0	0	0	0
24.62585	-0.001973682	0.2515986	0	0	0	0	0	0
24.64265	-0.001973682	0.2515986	0	0	0	0	0	0
24.65898	-0.001973682	0.2515986	0	0	0	0	0	0
24.67555	-0.001973682	0.2515986	0	0	0	0	0	0
24.69219	-0.001973682	0.2515986	0	0	0	0	0	0
24.7087	-0.001973682	0.2515986	0	0	0	0	0	0
24.72525	-0.001973682	0.2515986	0	0	0	0	0	0
24.74182	-0.001973682	0.2515986	0	0	0	0	0	0
24.75838	-0.001973682	0.2515986	0	0	0	0	0	0
24.79152	-0.001973682	0.2515986	0	0	0	0	0	0
24.85458	-0.001973682	0.2515986	0	0	0	0	0	0
24.87114	-0.001973682	0.2515986	0	0	0	0	0	0
24.88783	-0.001973682	0.2515986	0	0	0	0	0	0
24.90434	-0.001973682	0.2515986	0	0	0	0	0	0
24.92085	-0.001973682	0.2515986	0	0	0	0	0	0
24.93741	-0.001973682	0.2515986	0	0	0	0	0	0
24.95398	-0.001973682	0.2515986	0	0	0	0	0	0
24.97054	-0.001973682	0.2515986	0	0	0	0	0	0
24.98711	-0.001973682	0.2515986	0	0	0	0	0	0
25.00392	-0.001973682	0.2515986	0	0	0	0	0	0
25.02025	-0.001999997	0.2516165	-0.00161161	0.001098733	-0.0486385	0.03315981	0	0
25.03694	-0.001999997	0.2516165	0	0	0.04880425	-0.03327282	0	0
25.05338	-0.001999997	0.2516165	0	0	0	0	0	0
25.06996	-0.001999997	0.2516165	0	0	0	0	0	0
25.08651	-0.001999997	0.2516165	0	0	0	0	0	0
25.1235	-0.001999997	0.2516165	0	0	0	0	0	0
25.13966	-0.001999997	0.2516165	0	0	0	0	0	0
25.15652	-0.001999997	0.2516165	0	0	0	0	0	0
25.17279	-0.001999997	0.2516165	0	0	0	0	0	0
25.18936	-0.001999997	0.2516165	0	0	0	0	0	0
25.20592	-0.001999997	0.2516165	0	0	0	0	0	0
25.22257	-0.001999997	0.2516165	0	0	0	0	0	0
25.23908	-0.001999997	0.2516165	0	0	0	0	0	0
25.25563	-0.001999997	0.2516165	0	0	0	0	0	0
25.27261	-0.001999997	0.2516165	0	0	0	0	0	0
25.28876	-0.001999997	0.2516165	0	0	0	0	0	0
25.30533	-0.001999997	0.2516165	0	0	0	0	0	0
25.32189	-0.001999997	0.2516165	0	0	0	0	0	0
25.33865	-0.001999997	0.2516165	0	0	0	0	0	0
25.35503	-0.001999997	0.2516165	0	0	0	0	0	0
25.37168	-0.001999997	0.2516165	0	0	0	0	0	0
25.38819	-0.002026313	0.2516703	-0.001593739	0.003256036	-0.04805764	0.09818257	0	0
25.40473	-0.002342101	0.2521005	-0.01909397	0.02600983	-0.5294992	0.6884546	0	0
25.4213	-0.003526301	0.2534089	-0.07147846	0.07897586	-1.582333	1.599899	0	0
25.43786	-0.008394539	0.2577631	-0.2938474	0.2628241	-6.711109	5.548553	0	0
25.52079	-0.0242847	0.2710501	-0.1916234	0.1602303	1.027469	-1.031186	0	0
25.53726	-0.0243636	0.2711395	-0.004788423	0.005429592	1.8796	-1.557328	0	0
25.55383	-0.0241006	0.2718555	0.01587493	0.0432143	0.625313	1.143438	0	0
25.5704	-0.02304855	0.2754346	0.06350163	0.2160337	1.437377	5.2157	0	0
25.58697	-0.02239099	0.2883666	0.03969019	0.7805808	-0.7186307	17.03807	0	0
25.60353	-0.02331157	0.3210844	-0.05556591	1.974848	-2.874835	36.04306	0	0
25.6201	-0.02386389	0.3426033	-0.03333826	1.298886	0.6708317	-20.40057	0	0
25.63667	-0.02567857	0.3893917	-0.1095341	2.824153	-2.299594	46.03265	0	0
25.65323	-0.02744048	0.4229512	-0.1063493	2.025652	0.09611709	-24.09882	0	0
25.6699	-0.02962291	0.4600631	-0.1309929	2.227513	-0.7416523	6.075053	0	0
25.70293	-0.0312004	0.4959247	-0.04774608	1.085431	1.674993	-22.97963	0	0
25.73644	-0.03246228	0.5161136	-0.03765869	0.6025053	0.151582	-7.256862	0	0
25.75264	-0.03361891	0.5183657	-0.07142618	0.1390717	-0.6794031	-9.324302	0	0
25.7692	-0.03495944	0.5237638	-0.08091438	0.3258296	-0.2896222	5.700684	0	0
25.78577	-0.03509085	0.5240729	-0.00793235	0.0186615	2.202602	-9.270352	0	0
25.80234	-0.03498572	0.5241457	0.00634597	0.004389247	0.4309205	-0.4307373	0	0
25.8189	-0.03482801	0.5242184	0.009520051	0.004393351	0.09579948	0.0001238623	0	0
25.83547	-0.03477545	0.5242184	0.003172985	0	-0.1915659	-0.1325992	0	0
25.85204	-0.03472288	0.5242184	0.003172985	0	0	0	0	0
25.8686	-0.03464403	0.5241639	0.00475959	-0.003291935	0.04788383	-0.0993508	0	0
25.88517	-0.03451261	0.5240366	0.007932574	-0.00768478	0.09576087	-0.1325763	0	0
25.90174	-0.03432861	0.5239093	0.01110706	-0.007685665	0.09581177	-2.670354E-05	0	0
25.91831	-0.03432861	0.5239093	0	0	-0.3352118	0.2319538	0	0
25.93487	-0.03430233	0.5238911	0.001586788	-0.001097438	0.04788934	-0.03312075	0	0
25.95144	-0.03422347	0.5238365	0.00475959	-0.003295533	0.09576087	-0.06634246	0	0
25.968	-0.03403948	0.5237092	0.01110729	-0.007682067	0.191585	-0.1323935	0	0
25.98457	-0.03398691	0.5236729	0.00317321	-0.002194623	-0.2394647	0.1656209	0	0
26.00114	-0.03372405	0.5234546	0.01586605	-0.01317494	0.3830706	-0.3313865	0	0
26.01814	-0.03340862	0.5232365	0.01854855	-0.01282806	0.07990031	0.01033191	0	0
26.03466	-0.03335604	0.5232	0.00318384	-0.002205585	-0.4584041	0.3169201	0	0
26.05117	-0.03332976	0.5231455	0.001591736	-0.003302581	-0.04820796	-0.0332164	0	0
26.07229	-0.03317204	0.5230364	0.007466493	-0.005163657	0.156087	-0.0494471	0	0
26.08886	-0.03311946	0.5230001	0.003173069	-0.002194371	-0.113905	0.07877548	0	0
26.10543	-0.03311946	0.5229637	0	-0.002194623	-0.09575791	-7.623686E-06	0	0
26.122	-0.03311946	0.5229637	0	0	0	0.06623387	0	0
26.13873	-0.03309318	0.5229455	0.001570871	-0.00108643	0.04717273	-0.03262513	0	0
26.15524	-0.03309318	0.5229455	0	0	-0.04725122	0.03267941	0	0
26.23796	-0.03314575	0.5229092	-0.000635565	-0.0004395319	-0.006404734	-0.004429264	0	0
26.25481	-0.03314575	0.5229092	0	0	0.006383018	0.004414246	0	0
26.2711	-0.03317204	0.5228909	-0.001614297	-0.001120124	-0.04872237	-0.03380736	0	0
26.28766	-0.03317204	0.5228909	0	0	0.04914105	0.03409787	0	0
26.30435	-0.03322461	0.5228546	-0.003151304	-0.002179319	-0.09477375	-0.06554182	0	0
26.3208	-0.03319832	0.5227637	0.001598238	-0.005526003	0.1433497	-0.101009	0	0
26.33737	-0.03298803	0.5223637	0.01268745	-0.02412975	0.3357941	-0.5633429	0	0
26.35438	-0.03180506	0.5210731	0.06953882	-0.07586683	1.692685	-1.540413	0	0
26.3705	-0.02959662	0.5185655	0.1370573	-0.1556249	2.038299	-2.407795	0	0
26.38741	-0.02552077	0.5146976	0.2410237	-0.2287284	3.148222	-2.213661	0	0
26.40392	-0.01962906	0.5106331	0.356816	-0.2461556	3.464505	-0.5214201	0	0
26.4202	-0.01741929	0.5091096	0.1357416	-0.09358157	-6.741894	4.652904	0	0
26.43694	-0.01597233	0.5076411	0.08641371	-0.08770218	-1.493706	0.1780347	0	0
26.45345	-0.01294664	0.5051219	0.1832422	-0.152568	2.911565	-1.950469	0	0
26.46997	-0.005105219	0.4979511	0.4748401	-0.4342263	8.829411	-8.528447	0	0
26.48647	0.004657861	0.4799362	0.5917532	-1.091911	3.541493	-19.92236	0	0
26.50303	0.0104733	0.4632665	0.3510207	-1.006186	-7.28041	2.59255	0	0
26.5196	0.0167879	0.4487715	0.3811497	-0.8749155	0.9092946	3.961763	0	0
26.53617	0.02362718	0.4371718	0.41282	-0.7001641	0.9558134	5.274008	0	0
26.55274	0.03138443	0.4231304	0.4681744	-0.8474427	1.670503	-4.444621	0	0
26.5693	0.03637868	0.4070835	0.3014885	-0.9687032	-5.030591	-3.65965	0	0
26.60244	0.04026769	0.3723234	0.1173774	-1.049123	-3.704607	-1.61817	0	0
26.619	0.04192279	0.3509786	0.09991342	-1.288524	-0.3514031	-4.817125	0	0
26.63557	0.04363019	0.3296031	0.1030587	-1.290223	0.09493057	-0.05128159	0	0
26.65214	0.04583629	0.3050607	0.1331606	-1.481387	0.9084761	-5.769349	0	0
26.6687	0.04691292	0.2901725	0.06498559	-0.8986534	-2.057525	17.58694	0	0
26.68527	0.04846203	0.2744504	0.09351477	-0.9490951	0.861062	-1.522421	0	0
26.7184	0.05048339	0.2589993	0.06100831	-0.4663421	-0.6540815	9.713756	0	0
26.73516	0.04998465	0.2555772	-0.02976148	-0.2042045	-1.81938	5.254257	0	0
26.75154	0.05014215	0.2557206	0.009617537	0.008753348	1.188461	6.42708	0	0
26.7681	0.05014215	0.2557206	0	0	-0.2919384	-0.2657061	0	0
26.78469	0.05014215	0.2557206	0	0	0	0	0	0
26.80124	0.05011589	0.2557385	-0.001586956	0.001082742	-0.04789719	0.03267911	0	0
26.8178	0.05011589	0.2557385	0	0	0.0479303	-0.0327017	0	0
26.83437	0.05011589	0.2557385	0	0	0	0	0	0
26.85094	0.0500109	0.2558102	-0.00633765	0.004326287	-0.1912707	0.1305676	0	0
26.8675	0.0499059	0.2558818	-0.006337875	0.004326287	-6.78793E-06	0	0	0
26.88427	0.04987964	0.2558998	-0.001566189	0.001070352	0.1431691	-0.09769072	0	0
26.90078	0.04977464	0.2560073	-0.006359106	0.006510266	-0.1440452	0.1634899	0	0
26.91721	0.04964339	0.2560969	-0.007988675	0.005452606	-0.04946811	-0.0321069	0	0
26.93377	0.04966964	0.256079	0.001584539	-0.001081246	0.2901394	-0.1980242	0	0
26.95034	0.04966964	0.256079	0	0	-0.04782698	0.03263584	0	0
26.96691	0.04966964	0.256079	0	0	0	0	0	0
26.98776	0.04966964	0.256079	0	0	0	0	0	0
27.00435	0.04966964	0.256079	0	0	0	0	0	0
27.02089	0.04966964	0.256079	0	0	0	0	0	0
27.03746	0.04966964	0.256079	0	0	0	0	0	0
27.05403	0.04964339	0.2560969	-0.001584356	0.001081122	-0.04781597	0.03262833	0	0
27.07059	0.04964339	0.2560969	0	0	0.04781597	-0.03262833	0	0
27.08716	0.04964339	0.2560969	0	0	0	0	0	0
27.10392	0.04959089	0.2561327	-0.003132022	0.002138682	-0.09396747	0.06416511	0	0
27.12044	0.04956464	0.2561506	-0.001589664	0.001084744	0.04635103	-0.03167301	0	0
27.13695	0.04956464	0.2561506	0	0	0.04813686	-0.03284729	0	0
27.15346	0.04953839	0.2561327	-0.001589889	-0.001084744	-0.04814369	-0.03284729	0	0
27.16999	0.04953839	0.2561327	0	0	0.04811035	0.03282454	0	0
27.18656	0.04953839	0.2561327	0	0	0	0	0	0
27.20313	0.04953839	0.2561327	0	0	0	0	0	0
27.2197	0.04953839	0.2561327	0	0	0	0	0	0
27.23652	0.04956464	0.2561148	0.00156033	-0.001064576	0.04672773	-0.03188121	0	0
27.25303	0.04956464	0.2561148	0	0	-0.04680526	0.03193411	0	0
27.2694	0.04956464	0.2561148	0	0	0	0	0	0
27.30257	0.04956464	0.2561148	0	0	0	0	0	0
27.3191	0.04956464	0.2561148	0	0	0	0	0	0
27.33566	0.04956464	0.2561148	0	0	0	0	0	0
27.35223	0.04959089	0.2560969	0.001584356	-0.001082921	0.04781597	-0.03268262	0	0
27.38536	0.04956464	0.2561148	-0.0007922237	0.0005414916	-0.04781872	0.0326845	0	0
27.40193	0.04956464	0.2561148	0	0	0.01594019	-0.01089525	0	0
27.41865	0.04956464	0.2561148	0	0	0	0	0	0
27.43507	0.04956464	0.2561148	0	0	0	0	0	0
27.45163	0.04956464	0.2561148	0	0	0	0	0	0
27.4682	0.04956464	0.2561148	0	0	0	0	0	0
27.48477	0.04956464	0.2561148	0	0	0	0	0	0
27.5179	0.04951213	0.2561148	-0.001584672	0	-0.03188489	0	0	0
27.53447	0.04948588	0.2560969	-0.001584581	-0.001082921	1.836419E-06	-0.02178925	0	0
27.55103	0.04945963	0.256079	-0.001584581	-0.001081122	0	5.428939E-05	0	0
27.5676	0.04943338	0.2560969	-0.001584356	0.001081122	6.784417E-06	0.06525666	0	0
27.58417	0.04940713	0.2561148	-0.001584581	0.001082921	-6.784417E-06	5.428939E-05	0	0
27.60074	0.04938088	0.2561327	-0.001584581	0.001081122	0	-5.428939E-05	0	0
27.61731	0.04938088	0.2561327	0	0	0.04781725	-0.03262457	0	0
27.63431	0.04935462	0.2561148	-0.001544051	-0.001053469	-0.04599065	-0.03137833	0	0
27.65044	0.04935462	0.2561148	0	0	0.0466076	0.03179926	0	0
27.667	0.04935462	0.2561148	0	0	0	0	0	0
27.68357	0.04935462	0.2561148	0	0	0	0	0	0
27.70013	0.04935462	0.2561148	0	0	0	0	0	0
27.7167	0.04935462	0.2561148	0	0	0	0	0	0
27.73327	0.04935462	0.2561148	0	0	0	0	0	0
27.74983	0.04930212	0.256079	-0.003169162	-0.002164043	-0.09565101	-0.0653147	0	0
27.76641	0.04927587	0.256061	-0.00158367	-0.0010805	0.04783649	0.03269198	0	0
27.78296	0.04924962	0.2560431	-0.001585859	-0.001081994	-6.609155E-05	-4.509293E-05	0	0
27.8161	0.04911835	0.2559177	-0.003961453	-0.003785726	-0.04780988	-0.05441381	0	0
27.83295	0.04885583	0.2557385	-0.01558232	-0.0106366	-0.2325008	-0.1370667	0	0
27.87098	0.04202787	0.2511863	-0.1795115	-0.1196799	-2.986832	-1.986797	0	0
27.88755	0.03480173	0.2463275	-0.4361704	-0.2932773	-4.700405	-3.179231	0	0
27.9045	0.02738789	0.2415922	-0.437527	-0.2794552	-0.04048182	0.4124511	0	0
27.92068	0.01878726	0.2359752	-0.5312446	-0.3469494	-2.828401	-2.036979	0	0
27.93725	0.01155212	0.2311094	-0.4367142	-0.2936991	2.885823	1.625625	0	0
27.95403	0.00826297	0.2289002	-0.1960283	-0.1316678	7.217797	4.859067	0	0
27.97038	0.0009210524	0.223923	-0.4489479	-0.3043485	-7.633568	-5.211816	0	0
27.98706	-0.004684176	0.2201299	-0.3362034	-0.2275117	3.413836	2.326574	0	0
28.00352	-0.01007861	0.216551	-0.3276833	-0.2173986	0.257137	0.3052141	0	0
28.02009	-0.01563031	0.2129346	-0.3351013	-0.2182841	-0.224586	-0.02680937	0	0
28.03665	-0.01812959	0.2111889	-0.1508572	-0.1053752	5.560498	3.407597	0	0
28.05363	-0.02044452	0.2097128	-0.1364001	-0.08697443	0.4310546	0.5486413	0	0
28.06979	-0.02344307	0.2076962	-0.185543	-0.1247787	-1.483218	-1.141001	0	0
28.08663	-0.02357458	0.2076422	-0.007809182	-0.003208532	5.385718	3.683839	0	0
28.10292	-0.02360088	0.2076602	-0.001614077	0.00110562	0.1869686	0.1302014	0	0
28.11965	-0.02360088	0.2076962	0	0.002152623	0.04887331	0.03170265	0	0
28.18575	-0.02370608	0.2078763	-0.001591518	0.002724017	-0.01921328	0.006898034	0	0
28.20271	-0.02373238	0.2079303	-0.00155125	0.003185995	0.000484815	0.005562161	0	0
28.21889	-0.02375869	0.2079483	-0.0016258	0.001113571	-0.002250061	-0.06254949	0	0
28.23573	-0.02381129	0.2079843	-0.003122523	0.002137115	-0.0453225	0.03099409	0	0
28.25224	-0.02386389	0.2080203	-0.003186013	0.002181471	-0.001903405	0.001329783	0	0
28.26859	-0.02386389	0.2080564	0	0.002203619	0.09697464	0.0006741399	0	0
28.28516	-0.02389019	0.2080744	-0.001587434	0.001086393	-0.04823091	-0.0339446	0	0
28.30172	-0.02389019	0.2081104	0	0.002173936	0.04790609	0.03282022	0	0
28.31829	-0.02394279	0.2081464	-0.003174643	0.002173686	-0.0958054	-7.553421E-06	0	0
28.37083	-0.02391649	0.2081644	0.0005006195	0.0003426336	0.05318363	-0.02649662	0	0
28.38734	-0.02394279	0.2081824	-0.001592638	0.001090935	-0.03031518	0.01083712	0	0
28.40385	-0.02394279	0.2081824	0	0	0.04822693	-0.03303477	0	0
28.42087	-0.02394279	0.2081824	0	0	0	0	0	0
28.43697	-0.02394279	0.2081824	0	0	0	0	0	0
28.45353	-0.02394279	0.2081824	0	0	0	0	0	0
28.4701	-0.02394279	0.2081824	0	0	0	0	0	0
28.48691	-0.02394279	0.2081824	0	0	0	0	0	0
28.50323	-0.02394279	0.2081824	0	0	0	0	0	0
28.51994	-0.02394279	0.2081824	0	0	0	0	0	0
28.53637	-0.02394279	0.2081824	0	0	0	0	0	0
28.55293	-0.02394279	0.2081824	0	0	0	0	0	0
28.5695	-0.02394279	0.2081824	0	0	0	0	0	0
28.58607	-0.02391649	0.2082004	0.001587504	0.001086519	0.04791373	0.03279308	0	0
28.60263	-0.02391649	0.2082004	0	0	-0.04791097	-0.03279119	0	0
28.6192	-0.02391649	0.2082004	0	0	0	0	0	0
28.63577	-0.02391649	0.2082004	0	0	0	0	0	0
28.65233	-0.02391649	0.2082004	0	0	0	0	0	0
28.66904	-0.02391649	0.2082004	0	0	0	0	0	0
28.68556	-0.02394279	0.2082184	-0.00159227	0.001089781	-0.04791965	0.03279714	0	0
28.70203	-0.02394279	0.2082184	0	0	0.04826597	-0.03303416	0	0
28.7186	-0.02391649	0.2082364	0.001587504	0.001087418	0.04804927	0.03291307	0	0
28.73517	-0.02391649	0.2082364	0	0	-0.04791097	-0.03281834	0	0
28.75174	-0.02386389	0.2082724	0.003175121	0.002173037	0.09582534	0.06558239	0	0
28.7683	-0.02386389	0.2082724	0	0	-0.09582534	-0.06558239	0	0
28.78487	-0.02381129	0.2082724	0.003175009	0	0.09582195	0	0	0
28.80461	-0.02378499	0.2082904	0.001332534	0.000912767	-0.05075062	0.025142	0	0
28.82117	-0.02375869	0.2083084	0.001587504	0.001086519	0.007023109	0.004785954	0	0
28.83774	-0.02362718	0.2083985	0.007938661	0.005435017	0.1916893	0.1312455	0	0
28.85468	-0.02357458	0.2084345	0.003105995	0.002126682	-0.1442558	-0.09875429	0	0
28.87087	-0.02360088	0.2084525	-0.001623771	0.00111134	-0.1427528	-0.03064485	0	0
28.92322	-0.02491589	0.2097848	-0.02512102	0.02545119	-0.3428034	0.3550961	0	0
28.93979	-0.02941257	0.2130786	-0.2714197	0.1988149	-3.57398	2.515638	0	0
28.95635	-0.03464403	0.2170187	-0.3157715	0.2378234	-1.338538	1.17728	0	0
28.97292	-0.03619471	0.2184036	-0.09359957	0.08359267	6.705161	-4.654694	0	0
28.98949	-0.04250071	0.2262412	-0.3806307	0.4730817	-8.662616	11.7548	0	0
29.00606	-0.04536359	0.2292774	-0.1728041	0.1832646	6.272219	-8.746698	0	0
29.02262	-0.04854079	0.2318817	-0.1917978	0.1572107	-0.5732628	-0.7863519	0	0
29.03919	-0.05029964	0.2374291	-0.1061647	0.3348438	2.584561	5.361286	0	0
29.05582	-0.04882957	0.2427403	0.08839756	0.3193735	5.860767	-0.4660101	0	0
29.07232	-0.04415549	0.2485151	0.283237	0.3499371	5.880604	0.9224669	0	0
29.08889	-0.04142366	0.2503438	0.1648936	0.1103788	-3.578615	-7.244064	0	0
29.10546	-0.03721965	0.2532476	0.2537255	0.1752511	2.680798	1.957738	0	0
29.12237	-0.03658893	0.2536777	0.03729751	0.025436	-6.464456	-4.474805	0	0
29.13859	-0.03424976	0.2552368	0.1442141	0.09612021	3.22712	2.133499	0	0
29.15539	-0.03038538	0.2578348	0.2299974	0.1546288	2.597768	1.77181	0	0
29.17172	-0.0303328	0.2578348	0.003219588	0	-6.844167	-4.666706	0	0
29.18829	-0.0303328	0.2578348	0	0	-0.09786025	0	0	0
29.20486	-0.0303328	0.2578348	0	0	0	0	0	0
29.22145	-0.0303328	0.2578348	0	0	0	0	0	0
29.23799	-0.0303328	0.2578348	0	0	0	0	0	0
29.25456	-0.0303328	0.2578348	0	0	0	0	0	0
29.27112	-0.03035909	0.2578169	-0.001587055	-0.001081122	-0.0478974	-0.03262833	0	0
29.28769	-0.0303328	0.2577631	0.001586872	-0.003244791	0.09578378	-0.0652959	0	0
29.3045	-0.03030651	0.2577452	0.001564429	-0.001065784	-0.0006724646	0.06528902	0	0
29.32083	-0.03028022	0.2577273	0.001610301	-0.001097036	0.001384522	-0.0009432217	0	0
29.33739	-0.03030651	0.2577094	-0.001586942	-0.001081122	-0.09719798	0.0004837831	0	0
29.35396	-0.03030651	0.2576736	0	-0.002164043	0.04789401	-0.03268262	0	0
29.37055	-0.03030651	0.2576377	0	-0.002159757	0	0.0001292617	0	0
29.38709	-0.03028022	0.2576198	0.001588954	-0.001082493	0.0479575	0.03251378	0	0
29.40366	-0.03028022	0.2576198	0	0	-0.04798513	0.03269039	0	0
29.42023	-0.03028022	0.2576198	0	0	0	0	0	0
29.43679	-0.03028022	0.2576198	0	0	0	0	0	0
29.45336	-0.03028022	0.2576198	0	0	0	0	0	0
29.47012	-0.03028022	0.2576198	0	0	0	0	0	0
29.48663	-0.03028022	0.2576198	0	0	0	0	0	0
29.50314	-0.03028022	0.2576198	0	0	0	0	0	0
29.51965	-0.03028022	0.2576198	0	0	0	0	0	0
29.55276	-0.03025392	0.2576377	0.0007941111	0.000540997	0.01600396	0.01090287	0	0
29.56933	-0.03025392	0.2576377	0	0	-0.01598614	-0.01089073	0	0
29.58589	-0.03022763	0.2576198	0.001587125	-0.001081246	0.04790228	-0.03263396	0	0
29.60246	-0.03017505	0.257584	0.003173997	-0.002162244	0.04789464	-0.03262645	0	0
29.61903	-0.03009617	0.2575661	0.004760939	-0.001081122	0.04789402	0.03262833	0	0
29.63563	-0.02996471	0.2574765	0.007920346	-0.005397466	0.09526335	-0.1301477	0	0
29.70186	-0.02949145	0.2574765	0.007145101	0	-0.009358992	0.06515984	0	0
29.71843	-0.02896558	0.2578348	0.03174132	0.02162784	0.2970424	0.261194	0	0
29.735	-0.02573116	0.2599666	0.19523	0.1286751	4.934097	3.230692	0	0
29.75182	-0.02170712	0.2625995	0.2392017	0.1565069	1.316911	0.8335352	0	0
29.76833	-0.01107849	0.2696181	0.643694	0.4250624	12.13426	8.05633	0	0
29.7847	-0.004657861	0.2738419	0.3923381	0.2581021	-7.64535	-5.078339	0	0
29.80439	-0.0007631577	0.2763829	0.197748	0.1290114	-5.396235	-3.579851	0	0
29.82096	0.0008421051	0.2774743	0.09689385	0.06587828	-2.781224	-1.741003	0	0
29.83753	0.001447367	0.2778858	0.03653371	0.02483702	-1.821673	-1.238628	0	0
29.85409	0.007289344	0.281714	0.3526224	0.2310705	9.539577	6.224138	0	0
29.87066	0.007394602	0.2817855	0.006353362	0.004317292	-10.45042	-6.843424	0	0
29.88723	0.007394602	0.2817497	0	-0.002158646	-0.1917448	-0.1954442	0	0
29.90393	0.007420917	0.2817318	0.001575649	-0.001070694	0.04736235	0.03270267	0	0
29.92094	0.007447231	0.281714	0.001546826	-0.001051127	-0.0008549757	0.0005804262	0	0
29.93693	0.007473545	0.2816603	0.001645954	-0.003357269	0.003003959	-0.06988512	0	0
29.9535	0.007578802	0.281553	0.006353334	-0.006477737	0.1445994	-0.09585331	0	0
29.97006	0.008605051	0.2808196	0.06194448	-0.04426664	1.677744	-1.140471	0	0
29.98663	0.01036805	0.2795853	0.1064148	-0.07450207	1.342116	-0.9125072	0	0
30.00355	0.01044699	0.2794601	0.004665921	-0.007402057	-3.038603	2.003858	0	0
30.03652	0.01034174	0.2793885	-0.003191748	-0.002169913	-0.1574862	0.1048645	0	0
30.08603	0.01028911	0.279317	-0.001063003	-0.001445355	0.0258082	0.008784303	0	0
30.1026	0.01028911	0.279317	0	0	0.01608798	0.02187466	0	0
30.11916	0.01028911	0.279317	0	0	0	0	0	0
30.13573	0.01028911	0.279317	0	0	0	0	0	0
30.15261	0.01028911	0.279317	0	0	0	0	0	0
30.16886	0.01028911	0.279317	0	0	0	0	0	0
30.18543	0.0102628	0.2792991	-0.001588235	-0.001079323	-0.04838704	-0.03288257	0	0
30.202	0.01023648	0.2792812	-0.001588235	-0.001079323	0	0	0	0
30.21856	0.01023648	0.2792812	0	0	0.04793303	0.03257403	0	0
30.23517	0.01023648	0.2792812	0	0	0	0	0	0
30.2517	0.01023648	0.2792812	0	0	0	0	0	0
30.26869	0.01023648	0.2792812	0	0	0	0	0	0
30.3014	0.01021017	0.2792991	-0.0008044725	0.0005466791	-0.01618664	0.01099963	0	0
30.31822	0.01021017	0.2792991	0	0	0.01624086	-0.01103648	0	0
30.33453	0.01013123	0.2793528	-0.004839986	0.003290916	-0.1460711	0.09932005	0	0
30.35125	0.01013123	0.2793528	0	0	0.1465519	-0.09964701	0	0
30.36767	0.01010492	0.2793706	-0.00160287	0.00108923	-0.04837748	0.03287491	0	0
30.38427	0.01005229	0.2794064	-0.003168865	0.00215344	-0.04742016	0.03222551	0	0
30.4008	0.009973354	0.2794959	-0.004776309	0.005413301	-0.04851276	0.0983828	0	0
30.41737	0.009710222	0.2797105	-0.01588452	0.01295877	-0.3356715	0.2280113	0	0
30.43394	0.009368147	0.2799788	-0.0206453	0.01619338	-0.1436807	0.09762084	0	0
30.45082	0.007736688	0.2813383	-0.09661748	0.0805112	-2.270884	1.922523	0	0
30.46707	0.001789472	0.2858453	-0.3660547	0.277407	-8.1321	5.94267	0	0
30.48385	-0.004789437	0.2917457	-0.3920485	0.3516158	-0.7870322	2.246868	0	0
30.5002	-0.00939446	0.3019872	-0.2815907	0.6262538	3.333625	8.288591	0	0
30.51687	-0.01491995	0.3191376	-0.3314962	1.028919	-1.511285	12.19386	0	0
30.53334	-0.01899771	0.3329425	-0.2476457	0.8383854	2.530614	-5.7503	0	0
30.5499	-0.0248896	0.3499071	-0.3556347	1.023981	-3.269088	5.61842	0	0
30.56647	-0.03251485	0.3594796	-0.4602084	0.5777311	-3.155858	-13.46707	0	0
30.58342	-0.04357766	0.3697864	-0.6528698	0.6082564	-5.748682	0.9108225	0	0
30.5996	-0.0529767	0.3761471	-0.5806984	0.39298	2.178388	-6.497803	0	0
30.61644	-0.06223531	0.3824556	-0.5497995	0.3746177	0.9356014	-0.5559982	0	0
30.63274	-0.0731325	0.3898566	-0.6687655	0.4542004	-3.5904	2.401811	0	0
30.64931	-0.07847012	0.3934687	-0.3221793	0.2180251	10.54681	-7.186948	0	0
30.66598	-0.08787835	0.3998721	-0.5643086	0.384079	-7.284414	4.995701	0	0
30.68572	-0.09497654	0.4047032	-0.3595999	0.2447459	5.62212	-3.826646	0	0
30.7025	-0.09935598	0.4076383	-0.2609189	0.1748722	2.701828	-1.9131	0	0
30.71885	-0.1028724	0.410055	-0.2150748	0.1478068	1.383577	-0.8168339	0	0
30.73542	-0.1059179	0.4121497	-0.1838488	0.1264537	0.9486834	-0.648734	0	0
30.75204	-0.1079212	0.4135285	-0.120541	0.08296511	1.907778	-1.310525	0	0
30.76855	-0.1079472	0.4135106	-0.001575043	-0.001084618	3.590605	-2.536772	0	0
30.78511	-0.1080512	0.4134389	-0.006280584	-0.004323186	-0.142251	-0.09790362	0	0
30.80168	-0.1080512	0.4134389	0	0	0.1895593	0.1304815	0	0
30.81825	-0.1080772	0.413421	-0.001569965	-0.001081122	-0.04738165	-0.03262833	0	0
30.83482	-0.1082073	0.4133315	-0.007849377	-0.005403811	-0.189513	-0.130459	0	0
30.98392	-0.1177423	0.4067255	-0.06395037	-0.04430535	-0.3386341	-0.2348156	0	0
31.00071	-0.1222297	0.4036295	-0.267199	-0.1843519	-1.225161	-0.8441858	0	0
31.01705	-0.129689	0.3984767	-0.4565515	-0.3153765	-5.714998	-3.954558	0	0
31.03374	-0.1335684	0.3957937	-0.2324996	-0.1608028	6.784553	4.680672	0	0
31.05018	-0.1369272	0.3934687	-0.2041976	-0.1413461	0.8541556	0.5872052	0	0
31.06676	-0.1373404	0.3931825	-0.02492898	-0.01726302	5.428462	3.75738	0	0
31.08332	-0.1373404	0.3931825	0	0	0.7524014	0.5210289	0	0
31.09988	-0.1373404	0.3931825	0	0	0	0	0	0
31.11646	-0.1373404	0.3931825	0	0	0	0	0	0
31.13302	-0.1373663	0.3931647	-0.001559261	-0.001079696	-0.04705859	-0.03258529	0	0
31.14982	-0.1373663	0.3931647	0	0	0.04673842	0.0323636	0	0
31.16615	-0.1373921	0.3931825	-0.001580927	0.001094699	-0.04771248	0.03303808	0	0
31.18272	-0.1374179	0.3932004	-0.001558002	0.001079447	0.0006968142	-0.0004635721	0	0
31.19937	-0.1374695	0.3932004	-0.003102443	0	-0.04650157	-0.03250108	0	0
31.21585	-0.1374954	0.3931825	-0.001566477	-0.001084693	0.04635821	-0.03273798	0	0
31.23242	-0.1375212	0.3931647	-0.001558722	-0.001079323	0.0002346238	0.0001624622	0	0
31.24899	-0.1375212	0.3931647	0	0	0.04704233	0.03257403	0	0
31.26555	-0.1375728	0.3931289	-0.003117086	-0.002158398	-0.09406842	-0.06513682	0	0
31.28212	-0.1375728	0.3931289	0	0	0.09406842	0.06513682	0	0
31.29869	-0.1376245	0.3930931	-0.003117263	-0.002159143	-0.09409002	-0.06517058	0	0
31.31525	-0.1376503	0.3930753	-0.001558722	-0.001079323	0.04704227	0.0325928	0	0
31.33182	-0.1377019	0.3930395	-0.003116904	-0.002158895	-0.04702872	-0.03258341	0	0
31.34846	-0.137831	0.3929501	-0.00775788	-0.005372493	-0.1397592	-0.09677491	0	0
31.36495	-0.1379859	0.3928428	-0.009393794	-0.006507706	-0.04937484	-0.03426277	0	0
31.38152	-0.1383732	0.3925745	-0.02337454	-0.01618985	-0.4229135	-0.2928819	0	0
31.3985	-0.1413923	0.3905182	-0.1778103	-0.1211122	-4.603639	-3.127674	0	0
31.41465	-0.1490186	0.3852262	-0.4721226	-0.3276047	-8.882874	-6.232316	0	0
31.43122	-0.1542131	0.3816156	-0.3135416	-0.2179387	4.846524	3.351593	0	0
31.44779	-0.1576287	0.3792386	-0.2060939	-0.1434249	3.242217	2.248443	0	0
31.46435	-0.1612714	0.376701	-0.2199711	-0.1532409	-0.4188383	-0.2962652	0	0
31.48092	-0.1625786	0.3757897	-0.07890481	-0.0550077	4.258369	2.965367	0	0
31.49748	-0.1641414	0.3746997	-0.09433103	-0.06579014	-0.4655644	-0.3254147	0	0
31.51407	-0.1645768	0.374396	-0.02624346	-0.0183106	2.053468	1.431946	0	0
31.53062	-0.1646792	0.3743245	-0.00619289	-0.00432016	0.6051623	0.4222567	0	0
31.54718	-0.1646792	0.3743245	0	0	0.1870418	0.1304803	0	0
31.56411	-0.1647048	0.3743066	-0.001512494	-0.001054696	-0.04515846	-0.03149001	0	0
31.58035	-0.1646792	0.3742888	0.001576818	-0.001101386	0.09316055	-0.001407972	0	0
31.59688	-0.1647048	0.3742709	-0.001547904	-0.001079388	-0.09534157	0.0006712056	0	0
31.61364	-0.1647048	0.3742709	0	0	0.04648571	0.03241553	0	0
31.71285	-0.1646536	0.3742352	0.0005162471	-0.0003604868	0.00445168	-0.003108534	0	0
31.72942	-0.1645768	0.3741816	0.004637491	-0.003234371	0.03559728	-0.0248232	0	0
31.74934	-0.1644487	0.3740922	0.006426652	-0.004484372	0.04902967	-0.03425468	0	0
31.76591	-0.1643975	0.3740922	0.003091005	0	-0.09140437	0.1228821	0	0
31.78248	-0.1643207	0.3740386	0.004638391	-0.00323617	0.0466975	-0.09766219	0	0
31.79905	-0.1642695	0.3740386	0.003091361	0	-0.04668944	0.09766781	0	0
31.81579	-0.1641926	0.373985	0.004588732	-0.003199744	0.04494752	-0.09604874	0	0
31.83218	-0.164167	0.3740029	0.001562136	0.001089313	-0.09134283	0.129444	0	0
31.84882	-0.1640133	0.3738957	0.009238492	-0.006443834	0.232449	-0.2281124	0	0
31.86533	-0.1637572	0.373717	0.0155113	-0.01081911	0.1892267	-0.1319854	0	0
31.88188	-0.1629373	0.3731453	0.04953078	-0.03454317	1.028842	-0.7174803	0	0
31.89845	-0.1608099	0.3716266	0.1284299	-0.09167746	2.382416	-1.72521	0	0
31.91501	-0.1548298	0.3673925	0.3609598	-0.2555675	7.018169	-4.946496	0	0
31.93158	-0.1479118	0.362516	0.4175685	-0.2943494	1.708454	-1.170439	0	0
31.94815	-0.1451303	0.3605512	0.1679116	-0.1186061	-7.535093	5.304248	0	0
31.96471	-0.129275	0.3493713	0.9570268	-0.6748216	23.81691	-16.78758	0	0
31.98128	-0.1180019	0.3415319	0.6804484	-0.4731878	-8.347152	6.085319	0	0
31.99792	-0.1010233	0.3297282	1.020362	-0.7093722	10.23622	-7.1125	0	0
32.01442	-0.08714713	0.3201914	0.8412499	-0.578172	-5.405612	3.95963	0	0
32.03098	-0.06815742	0.3072226	1.146221	-0.782797	9.224233	-6.189135	0	0
32.04755	-0.05373769	0.2973943	0.8703766	-0.5932356	-8.325007	5.720977	0	0
32.06447	-0.03524855	0.2848081	1.09261	-0.7437778	6.635955	-4.495245	0	0
32.08068	-0.0224173	0.2760787	0.7914438	-0.5384375	-9.089203	6.197183	0	0
32.09749	-0.007236716	0.2657869	0.9031999	-0.6123291	3.384493	-2.237781	0	0
32.11382	0.002368417	0.2592143	0.5883009	-0.4025683	-9.50367	6.330593	0	0
32.13038	0.008157713	0.2553084	0.3495231	-0.235809	-7.259819	5.070162	0	0
32.14695	0.02149669	0.2462199	0.8051422	-0.5485848	13.75219	-9.440679	0	0
32.16354	0.02583635	0.2432605	0.2615813	-0.1783815	-16.39338	11.16505	0	0
32.18008	0.03327718	0.2381829	0.4498544	-0.306983	5.682748	-3.881646	0	0
32.19665	0.03821822	0.2348084	0.2982417	-0.2036863	-4.579372	3.120015	0	0
32.21321	0.04310486	0.2314686	0.2949581	-0.2015879	-0.09909984	0.06332928	0	0
32.23008	0.04812072	0.2280379	0.2973489	-0.2033785	0.0715051	-0.05355507	0	0
32.24659	0.05061463	0.2263311	0.1510545	-0.103382	-4.382882	2.995826	0	0
32.26291	0.05082461	0.2261873	0.0128672	-0.008808694	-4.209268	2.880762	0	0
32.27948	0.05085086	0.2261694	0.001584356	-0.00108382	-0.3430844	0.2348949	0	0
32.29605	0.05085086	0.2261694	0	0	-0.04781597	0.03270976	0	0
32.32918	0.05174325	0.2255225	0.02693226	-0.01952361	0.5418781	-0.3928157	0	0
32.34575	0.0577515	0.2214424	0.3626588	-0.2462745	6.754832	-4.562238	0	0
32.36232	0.06275958	0.2180079	0.3022883	-0.2073047	-1.821987	1.176113	0	0
32.37888	0.06501351	0.2164611	0.1360478	-0.09336774	-5.017148	3.438623	0	0
32.3957	0.06718819	0.2149679	0.1292987	-0.08877793	-0.2021502	0.1374762	0	0
32.41201	0.06839316	0.2141403	0.07387207	-0.05073923	-1.672973	1.148142	0	0
32.42858	0.06828839	0.2142122	-0.006324383	0.004344275	-2.439148	1.675346	0	0
32.44515	0.06831458	0.2141943	0.001581208	-0.001085619	0.2385912	-0.1638745	0	0
32.46175	0.06831458	0.2141943	0	0	-0.04767157	0.03273014	0	0
32.47828	0.06828839	0.2142122	-0.001584492	0.001087873	-0.04782006	0.03283209	0	0
32.49485	0.0682622	0.2142302	-0.001580759	0.001085619	0.0001127853	-6.810798E-05	0	0
32.52798	0.068236	0.2142482	-0.0007906042	0.0005432593	0.01589794	-0.0109123	0	0
32.54455	0.068236	0.2142482	0	0	0.01590699	-0.0109304	0	0
32.56112	0.06820981	0.2142662	-0.001580759	0.001085619	-0.04770739	0.03276405	0	0
32.57769	0.06820981	0.2142662	0	0	0.04770739	-0.03276405	0	0
32.59435	0.06818362	0.2142842	-0.001572518	0.001080547	-0.04732793	0.03252112	0	0
32.63256	0.06818362	0.2142842	0	0	0.02865468	-0.01968991	0	0
32.64913	0.06815742	0.2143022	-0.001581208	0.001085619	-0.02886118	0.01981538	0	0
32.6657	0.06813123	0.2143202	-0.001580759	0.001086519	1.357235E-05	2.714469E-05	0	0
32.68241	0.06805264	0.2143742	-0.004703553	0.003230237	-0.09384637	0.06442312	0	0
32.69892	0.06797406	0.2144282	-0.004759614	0.00326995	-0.001687649	0.001195512	0	0
32.7154	0.06794787	0.2144461	-0.001589175	0.001091399	0.09610449	-0.0660377	0	0
32.73196	0.06792168	0.2144641	-0.001581208	0.001086519	0.0002410617	-0.0001476842	0	0
32.74853	0.06771211	0.2146441	-0.01264922	0.01085979	-0.3340332	0.2949579	0	0
32.7651	0.06718819	0.2150039	-0.03162416	0.02171958	-0.5726651	0.3277491	0	0
32.78167	0.067031	0.2151478	-0.0094877	0.008687651	0.6680799	-0.3933043	0	0
32.79849	0.06697861	0.2151838	-0.003113665	0.002138652	0.1908745	-0.1961139	0	0
32.81501	0.06674282	0.2153457	-0.01427825	0.009804877	-0.334866	0.2299376	0	0
32.83136	0.06561619	0.2161193	-0.06887589	0.0472904	-1.660954	1.140374	0	0
32.84793	0.06081963	0.2193747	-0.2895208	0.1964962	-6.70151	4.531734	0	0
32.8645	0.05208443	0.2253607	-0.5272579	0.3613196	-7.17492	4.97438	0	0
32.88107	0.04538986	0.2299061	-0.4040853	0.2743585	3.717356	-2.62449	0	0
32.89763	0.03750871	0.2352931	-0.4757067	0.3251587	-2.161539	1.533151	0	0
32.9142	0.0348543	0.237106	-0.1602208	0.1094299	9.521383	-6.510708	0	0
32.93077	0.03059571	0.2400133	-0.2570489	0.1754817	-2.922277	1.993449	0	0
32.94733	0.03022763	0.2402645	-0.0222173	0.01516269	7.087231	-4.838439	0	0
32.96411	0.03025392	0.2402465	0.001567453	-0.001069621	0.7133903	-0.4868653	0	0
33.00847	0.03025392	0.2402465	0	0	-0.02563788	0.01749515	0	0
33.02515	0.03025392	0.2402465	0	0	0	0	0	0
33.04161	0.03025392	0.2402465	0	0	0	0	0	0
33.05817	0.03022763	0.2402286	-0.001586942	-0.001082921	-0.04806	-0.03279589	0	0
33.12444	0.03030651	0.2402107	0.001190207	-0.0002707302	0.03352581	0.009804784	0	0
33.14101	0.03030651	0.2402107	0	0	-0.0143682	0.003268261	0	0
33.15758	0.03030651	0.2402107	0	0	0	0	0	0
33.17414	0.03028022	0.2401927	-0.001586942	-0.001082921	-0.04789401	-0.03268262	0	0
33.19071	0.03028022	0.2401927	0	0	0.04789401	0.03268262	0	0
33.20728	0.03028022	0.2401927	0	0	0	0	0	0
33.22384	0.03028022	0.2401927	0	0	0	0	0	0
33.24041	0.03028022	0.2401927	0	0	0	0	0	0
33.25698	0.03028022	0.2401927	0	0	0	0	0	0
33.27354	0.03028022	0.2401927	0	0	0	0	0	0
33.29011	0.03028022	0.2401927	0	0	0	0	0	0
33.30685	0.03028022	0.2401568	0	-0.002143142	0	-0.06433942	0	0
33.32325	0.03028022	0.2401568	0	0	0	0.06468015	0	0
33.33981	0.03028022	0.2401568	0	0	0	0	0	0
33.3564	0.03028022	0.2401568	0	0	0	0	0	0
33.37295	0.03028022	0.2401568	0	0	0	0	0	0
33.38951	0.03030651	0.2401389	0.001586942	-0.00108382	0.04792159	-0.0327286	0	0
33.40608	0.03030651	0.2401389	0	0	-0.04789401	0.03270976	0	0
33.42265	0.03038538	0.2400851	0.004760939	-0.003248762	0.1436854	-0.09804785	0	0
33.43946	0.03043796	0.2400492	0.003128502	-0.002134873	-0.04891229	0.03337518	0	0
33.45578	0.03049055	0.2399774	0.003220603	-0.004396357	0.002779601	-0.06825171	0	0
33.47235	0.03051684	0.2399594	0.001586942	-0.001082921	-0.04966419	0.1007303	0	0
33.52205	0.030622	0.2398518	0.002115923	-0.002166141	0.007982337	-0.01634583	0	0
33.58856	0.03064829	0.2397979	0.0003953246	-0.0008095263	-0.01480631	0.01167411	0	0
33.60488	0.03064829	0.2397979	0	0	-0.004772808	0.009773521	0	0
33.64209	0.03064829	0.2397979	0	0	0	0	0	0
33.65834	0.03067459	0.23978	0.001617861	-0.00110402	0.03026134	-0.02065017	0	0
33.67511	0.03067459	0.23978	0	0	-0.04899638	0.03343487	0	0
33.69148	0.03070088	0.2397621	0.001606548	-0.0010963	0.04848571	-0.03308639	0	0
33.70814	0.03067459	0.2397441	-0.001578221	-0.001076969	-0.09643848	0.0005853403	0	0
33.72825	0.03067459	0.2397441	0	0	0.04291712	0.02928642	0	0
33.74482	0.03067459	0.2397441	0	0	0	0	0	0
33.77795	0.03070088	0.2397262	0.0007934711	-0.0005419101	0.01596467	-0.01090325	0	0
33.7947	0.03070088	0.2397262	0	0	-0.01590729	0.01086406	0	0
33.81109	0.03070088	0.2397262	0	0	0	0	0	0
33.82766	0.03070088	0.2397262	0	0	0	0	0	0
33.84422	0.03070088	0.2397262	0	0	0	0	0	0
33.86079	0.03070088	0.2397262	0	0	0	0	0	0
33.87776	0.03070088	0.2397262	0	0	0	0	0	0
33.89392	0.03070088	0.2397262	0	0	0	0	0	0
33.91079	0.03070088	0.2397262	0	0	0	0	0	0
33.92706	0.03070088	0.2397262	0	0	0	0	0	0
33.94363	0.03070088	0.2397262	0	0	0	0	0	0
33.96019	0.03070088	0.2397262	0	0	0	0	0	0
33.97676	0.03070088	0.2397262	0	0	0	0	0	0
33.99333	0.03070088	0.2397262	0	0	0	0	0	0
34.0099	0.03067459	0.2397082	-0.001586942	-0.001082921	-0.04789401	-0.03268262	0	0
34.02646	0.03067459	0.2397082	0	0	0.04789401	0.03268262	0	0
34.04303	0.03070088	0.2396903	0.001586942	-0.001082921	0.04789401	-0.03268262	0	0
34.05989	0.03070088	0.2396903	0	0	-0.04746775	0.03239174	0	0
34.07616	0.03070088	0.2396903	0	0	0	0	0	0
34.09273	0.03070088	0.2396903	0	0	0	0	0	0
34.10929	0.03070088	0.2396903	0	0	0	0	0	0
34.12586	0.03070088	0.2396903	0	0	0	0	0	0
34.14243	0.03070088	0.2396903	0	0	0	0	0	0
34.15899	0.03070088	0.2396903	0	0	0	0	0	0
34.17556	0.03070088	0.2396903	0	0	0	0	0	0
34.19213	0.03070088	0.2396903	0	0	0	0	0	0
34.20869	0.03070088	0.2396903	0	0	0	0	0	0
34.24183	0.03070088	0.2396903	0	0	0	0	0	0
34.25853	0.03070088	0.2396903	0	0	0	0	0	0
34.27504	0.03070088	0.2396903	0	0	0	0	0	0
34.29155	0.03070088	0.2396903	0	0	0	0	0	0
34.30809	0.03070088	0.2396903	0	0	0	0	0	0
34.32466	0.03070088	0.2396903	0	0	0	0	0	0
34.34122	0.03067459	0.2396723	-0.001586942	-0.001082921	-0.04789401	-0.03268262	0	0
34.35779	0.03067459	0.2396723	0	0	0.04789401	0.03268262	0	0
34.37461	0.03067459	0.2396723	0	0	0	0	0	0
34.42406	0.03070088	0.2396544	0.000531715	-0.0003628395	0.008023595	-0.005475258	0	0
34.44063	0.03070088	0.2396544	0	0	-0.008054661	0.005496457	0	0
34.4572	0.03070088	0.2396544	0	0	0	0	0	0
34.47376	0.03070088	0.2396544	0	0	0	0	0	0
34.49033	0.03070088	0.2396544	0	0	0	0	0	0
34.5108	0.03070088	0.2396544	0	0	0	0	0	0
34.52737	0.03070088	0.2396544	0	0	0	0	0	0
34.54424	0.03070088	0.2396544	0	0	0	0	0	0
34.56075	0.03067459	0.2396365	-0.001592442	-0.001087577	-0.04770302	-0.03257932	0	0
34.57726	0.03070088	0.2396185	0.001592442	-0.001086674	0.09645313	2.733396E-05	0	0
34.59363	0.03070088	0.2396185	0	0	-0.04842798	0.03304699	0	0
34.61029	0.03070088	0.2396185	0	0	0	0	0	0
34.62677	0.03070088	0.2396185	0	0	0	0	0	0
34.64333	0.03072717	0.2396006	0.001586942	-0.001082921	0.04802116	-0.03276939	0	0
34.6599	0.03072717	0.2396006	0	0	-0.04789401	0.03268262	0	0
34.67647	0.03072717	0.2396006	0	0	0	0	0	0
34.69304	0.03072717	0.2396006	0	0	0	0	0	0
34.7096	0.03072717	0.2396006	0	0	0	0	0	0
34.72637	0.03072717	0.2396006	0	0	0	0	0	0
34.74274	0.03072717	0.2396006	0	0	0	0	0	0
34.7593	0.03070088	0.2395826	-0.001586942	-0.001082921	-0.04818804	-0.03288326	0	0
34.77591	0.03070088	0.2395826	0	0	0.04784443	0.03264879	0	0
34.79243	0.03070088	0.2395826	0	0	0	0	0	0
34.809	0.03070088	0.2395826	0	0	0	0	0	0
34.82557	0.03070088	0.2395826	0	0	0	0	0	0
34.84214	0.03070088	0.2395826	0	0	0	0	0	0
34.8587	0.03070088	0.2395826	0	0	0	0	0	0
34.87527	0.03070088	0.2395826	0	0	0	0	0	0
34.89184	0.03072717	0.2395647	0.001586942	-0.001082921	0.04789401	-0.03268262	0	0
34.90841	0.03072717	0.2395647	0	0	-0.04789401	0.03268262	0	0
34.92501	0.03072717	0.2395647	0	0	0	0	0	0
34.94154	0.03072717	0.2395647	0	0	0	0	0	0
34.95811	0.03072717	0.2395647	0	0	0	0	0	0
34.97467	0.03072717	0.2395647	0	0	0	0	0	0
34.99124	0.03072717	0.2395647	0	0	0	0	0	0
35.00781	0.03072717	0.2395647	0	0	0	0	0	0
35.02438	0.03072717	0.2395647	0	0	0	0	0	0
35.12378	0.03072717	0.2395647	0	0	0	0	0	0
35.14034	0.03072717	0.2395647	0	0	0	0	0	0
35.15718	0.03075346	0.2395467	0.001561416	-0.001066387	0.04674156	-0.03192268	0	0
35.17348	0.03075346	0.2395467	0	0	-0.04712363	0.03218362	0	0
35.19004	0.03075346	0.2395467	0	0	0	0	0	0
35.20661	0.03075346	0.2395467	0	0	0	0	0	0
35.22318	0.03075346	0.2395467	0	0	0	0	0	0
35.23975	0.03072717	0.2395288	-0.001586942	-0.001082921	-0.04789401	-0.03268262	0	0
35.25631	0.03072717	0.2395288	0	0	0.04789401	0.03268262	0	0
35.28945	0.03072717	0.2395288	0	0	0	0	0	0
35.30629	0.03072717	0.2395288	0	0	0	0	0	0
35.32258	0.03072717	0.2395288	0	0	0	0	0	0
35.33915	0.03072717	0.2395288	0	0	0	0	0	0
35.35572	0.03072717	0.2395288	0	0	0	0	0	0
35.39246	0.03072717	0.2395288	0	0	0	0	0	0
35.40903	0.03072717	0.2395288	0	0	0	0	0	0
35.42559	0.03072717	0.2395288	0	0	0	0	0	0
35.44216	0.03072717	0.2395288	0	0	0	0	0	0
35.45873	0.03072717	0.2395288	0	0	0	0	0	0
35.47541	0.03072717	0.2395288	0	0	0	0	0	0
35.49193	0.03072717	0.2395288	0	0	0	0	0	0
35.50843	0.03075346	0.2395108	0.001593178	-0.001087176	0.04825444	-0.03292857	0	0
35.525	0.03075346	0.2395108	0	0	-0.04817651	0.03287539	0	0
35.54196	0.03077975	0.2394929	0.001549719	-0.001057595	0.04621725	-0.03154064	0	0
35.55813	0.03077975	0.2394929	0	0	-0.046776	0.03192196	0	0
35.5747	0.03077975	0.2394929	0	0	0	0	0	0
35.5915	0.03077975	0.2394929	0	0	0	0	0	0
35.60801	0.03077975	0.2394929	0	0	0	0	0	0
35.62452	0.03077975	0.2394929	0	0	0	0	0	0
35.64096	0.03077975	0.2394929	0	0	0	0	0	0
35.65755	0.03077975	0.2394929	0	0	0	0	0	0
35.6741	0.03077975	0.2394929	0	0	0	0	0	0
35.69067	0.03075346	0.2395108	-0.00158683	0.001082921	-0.04791268	0.03269767	0	0
35.70723	0.03075346	0.2395108	0	0	0.04789062	-0.03268262	0	0
35.72409	0.03075346	0.2395108	0	0	0	0	0	0
35.74037	0.03075346	0.2395108	0	0	0	0	0	0
35.75694	0.03075346	0.2395108	0	0	0	0	0	0
35.79015	0.03075346	0.2395108	0	0	0	0	0	0
35.80664	0.03075346	0.2395108	0	0	0	0	0	0
35.82321	0.03075346	0.2395108	0	0	0	0	0	0
35.83977	0.03077975	0.2394929	0.001587561	-0.00108342	0.04791268	-0.03269767	0	0
35.85634	0.03077975	0.2394929	0	0	-0.04792372	0.0327052	0	0
35.87291	0.03077975	0.2394929	0	0	0	0	0	0
35.88947	0.03077975	0.2394929	0	0	0	0	0	0
35.90604	0.03077975	0.2394929	0	0	0	0	0	0
35.92261	0.03077975	0.2394929	0	0	0	0	0	0
35.93917	0.03077975	0.2394929	0	0	0	0	0	0
35.95574	0.03077975	0.2394929	0	0	0	0	0	0
35.97231	0.03077975	0.2394929	0	0	0	0	0	0
35.98888	0.03077975	0.2394929	0	0	0	0	0	0
36.00544	0.03080604	0.239475	0.001586942	-0.00108382	0.04789401	-0.03270976	0	0
36.02232	0.03080604	0.239475	0	0	-0.04745692	0.03241124	0	0
36.03857	0.03080604	0.239475	0	0	0	0	0	0
36.05514	0.03080604	0.239475	0	0	0	0	0	0
36.07186	0.03077975	0.239457	-0.001572818	-0.001073283	-0.04725557	-0.03224695	0	0
36.08836	0.03080604	0.2394391	0.00159281	-0.001086925	0.09528655	-0.00041064	0	0
36.13798	0.03085862	0.2394032	0.001059832	-0.0007232239	-0.008060749	0.005500612	0	0
36.18768	0.03112153	0.2391879	0.005290064	-0.004332915	0.04259544	-0.03634704	0	0
36.20424	0.03141072	0.2389905	0.01745546	-0.01191483	0.1835868	-0.1144179	0	0
36.22081	0.03198908	0.2385598	0.03491025	-0.02599729	0.5267866	-0.4250097	0	0
36.23738	0.03293546	0.2378778	0.05712317	-0.04116358	0.6703872	-0.4577195	0	0
36.25774	0.038008	0.2343416	0.249108	-0.1736591	5.198601	-3.587739	0	0
36.27431	0.04378778	0.2303551	0.348868	-0.2406234	2.701322	-1.813272	0	0
36.29101	0.05379017	0.2234018	0.5989186	-0.4163502	7.516254	-5.282162	0	0
36.30752	0.06296927	0.2170726	0.5559723	-0.3833513	-1.293144	0.9936206	0	0
36.32403	0.0700955	0.2121788	0.4316307	-0.2964174	-3.765642	2.632764	0	0
36.34057	0.08529257	0.2017156	0.9185659	-0.6324342	14.73135	-10.16558	0	0
36.35714	0.09776626	0.1931328	0.7529133	-0.5180598	-5.002862	3.454212	0	0
36.37407	0.1148866	0.1812515	1.011493	-0.7019603	7.7204	-5.490707	0	0
36.39027	0.1280844	0.1720826	0.8142449	-0.5656772	-5.95296	4.11303	0	0
36.40709	0.1450015	0.1602178	1.006058	-0.7056036	5.80832	-4.237133	0	0
36.42341	0.1567559	0.1519258	0.7202812	-0.5081111	-8.624755	5.960337	0	0
36.43998	0.1716621	0.1413848	0.8997408	-0.6362565	5.456935	-3.896595	0	0
36.45663	0.1787301	0.1363435	0.4244738	-0.3027608	-14.30735	10.03949	0	0
36.47311	0.1854496	0.1315343	0.4076557	-0.2917583	-0.5075697	0.3320564	0	0
36.48968	0.2047732	0.11761	1.166372	-0.8404716	22.95625	-16.60225	0	0
36.50624	0.2136367	0.1111731	0.5350052	-0.3885316	-19.0547	13.63958	0	0
36.52281	0.2248434	0.1029866	0.6764324	-0.4941433	4.268284	-3.18737	0	0
36.53938	0.2324822	0.09737404	0.4610805	-0.3387721	-6.499333	4.689115	0	0
36.55595	0.2395969	0.0921221	0.4294437	-0.317008	-0.9547998	0.6568418	0	0
36.57271	0.2464889	0.08701115	0.4110833	-0.3048475	-0.5508233	0.36482	0	0
36.58908	0.2522224	0.08274134	0.3502644	-0.2608498	-1.835517	1.327852	0	0
36.60574	0.2565852	0.07948092	0.2619568	-0.1957625	-2.674057	1.970919	0	0
36.62225	0.2588982	0.07774839	0.1400619	-0.1049138	-3.674985	2.738982	0	0
36.63878	0.2606679	0.07642087	0.1070424	-0.08029579	-0.9991764	0.7449459	0	0
36.65535	0.2618713	0.07551717	0.07263844	-0.05454719	-1.039391	0.7779003	0	0
36.67192	0.2618713	0.07551717	0	0	-2.192233	1.646237	0	0
36.68848	0.2618713	0.07551717	0	0	0	0	0	0
36.70505	0.2618959	0.07549872	0.00148227	-0.001113502	0.04473501	-0.03360555	0	0
