Time	Pos X	Pos Y	Vel X	Vel Y	Acc X	Acc YForce X	Force Y
0.0163583	-0.008315598	0.223941	0.0001233927	-0.003322995	-1.831445E-06	4.932124E-05	0	0
0.07697549	-0.008315598	0.223941	0	0	1.832638E-06	-4.935335E-05	0	0
0.09354301	-0.008315598	0.223941	0	0	0	0	0	0
0.1101097	-0.008315598	0.223941	0	0	0	0	0	0
0.1266765	-0.008315598	0.223941	0	0	0	0	0	0
0.1432432	-0.008289284	0.2239589	0.001588339	0.001084752	0.04793758	0.03273885	0	0
0.1598096	-0.008289284	0.2239589	0	0	-0.04793816	-0.03273925	0	0
0.1763759	-0.00826297	0.2239769	0.001588433	0.001085678	0.0479416	0.03276759	0	0
0.1929426	-0.00826297	0.2239769	0	0	-0.04794102	-0.03276719	0	0
0.2096539	-0.008210341	0.2239769	0.003149268	0	0.09463525	0	0	0
0.2261614	-0.008078772	0.2240668	0.007970294	0.005443216	0.1451297	0.1638598	0	0
0.2426456	-0.007947201	0.2240847	0.007981612	0.001090181	0.0003430664	-0.1319431	0	0
0.2592115	-0.007368288	0.2243004	0.03494601	0.01301945	0.8158628	0.3609444	0	0
0.2757791	-0.007078829	0.2242106	0.01747143	-0.0054244	-0.5274	-0.5566534	0	0
0.2923431	-0.004421024	0.222539	0.1604569	-0.1009176	4.315695	-2.882247	0	0
0.3254773	0.003263146	0.2181518	0.23191	-0.1324058	1.437737	-0.6335868	0	0
0.3420437	0.0119468	0.2181158	0.5241746	-0.002171355	5.880503	2.620378	0	0
0.3586096	0.03156846	0.2216761	1.184457	0.2149143	19.92867	6.552089	0	0
0.3752663	0.0394532	0.223222	0.473367	0.0928115	-21.40376	-3.675286	0	0
0.391779	0.05478722	0.226924	0.928622	0.2241916	13.72515	3.960883	0	0
0.4083102	0.06000682	0.2282355	0.3157422	0.07933549	-18.54746	-4.383752	0	0
0.4248773	0.06721438	0.2310556	0.4350518	0.1702192	3.604701	2.745868	0	0
0.4414429	0.06815742	0.231738	0.05692744	0.04119562	-11.41242	-3.894145	0	0
0.4580104	0.06813123	0.23172	-0.00158073	-0.001083801	-1.765853	-1.276048	0	0
0.474833	0.06815742	0.2317021	0.001556767	-0.001067371	0.09396496	0.0004920532	0	0
0.4911431	0.06815742	0.2317021	0	0	-0.04698582	0.03221503	0	0
0.5078575	0.06815742	0.2317021	0	0	0	0	0	0
0.5242762	0.06815742	0.2317021	0	0	0	0	0	0
0.5408433	0.06813123	0.2316841	-0.00158077	-0.001083828	-0.04792273	-0.03285741	0	0
0.5574101	0.06813123	0.2316841	0	0	0.04770859	0.03271058	0	0
0.5934166	0.06810503	0.2316662	-0.0007275418	-0.0004990986	-0.01383863	-0.009493392	0	0
0.6596164	0.06789548	0.2315584	-0.003165492	-0.001627652	-0.02385321	-0.01104191	0	0
0.6761827	0.06789548	0.2315584	0	0	0.0382462	0.01966567	0	0
0.6929871	0.06786928	0.2315405	-0.001558892	-0.001068524	-0.04671435	-0.03201979	0	0
0.7094986	0.06786928	0.2315405	0	0	0.04679132	0.03207255	0	0
0.7258829	0.06786928	0.2315405	0	0	0	0	0	0
0.7424505	0.06784309	0.2315225	-0.00158118	-0.001083801	-0.04798449	-0.03289039	0	0
0.7755831	0.06784309	0.2315225	0	0	0.03181436	0.02180677	0	0
0.7921495	0.06784309	0.2315225	0	0	0	0	0	0
0.8090687	0.0678169	0.2315045	-0.001547869	-0.00106127	-0.04622493	-0.03169333	0	0
0.8252829	0.0678169	0.2315045	0	0	0.04671621	0.03203017	0	0
0.8418497	0.0677907	0.2315225	-0.001581254	0.001083851	-0.04823698	0.03306346	0	0
0.8584184	0.06776451	0.2315045	-0.001581066	-0.001083723	5.666976E-06	-0.06541552	0	0
0.8751166	0.06776451	0.2315045	0	0	0.0475267	0.03257661	0	0
0.8915515	0.06776451	0.2315045	0	0	0	0	0	0
0.9081194	0.06771211	0.2314686	-0.00316228	-0.002168446	-0.09581838	-0.06570482	0	0
0.9246866	0.06765972	0.2314327	-0.003162439	-0.002167656	-4.806274E-06	2.384868E-05	0	0
0.9412525	0.06750255	0.2313609	-0.009487551	-0.004336523	-0.1909005	-0.06545937	0	0
0.9578164	0.06747635	0.2313429	-0.001581521	-0.001084035	0.2386375	0.0981739	0	0
0.9743851	0.06742396	0.231307	-0.003162132	-0.002167446	-0.04770551	-0.03269917	0	0
0.9909531	0.06734537	0.2312531	-0.00474342	-0.00325222	-0.04772019	-0.03273636	0	0
1.007724	0.06658563	0.2307323	-0.0453024	-0.03105608	-1.216584	-0.8339883	0	0
1.024245	0.06535416	0.2298881	-0.07453812	-0.05109459	-0.8781652	-0.601905	0	0
1.040652	0.06205181	0.2276247	-0.2012736	-0.1379537	-3.848799	-2.637804	0	0
1.05722	0.05942993	0.2258279	-0.1582503	-0.1084475	1.304719	0.8948011	0	0
1.073785	0.05525947	0.2229704	-0.2517674	-0.1725091	-2.822506	-1.933487	0	0
1.090352	0.04880332	0.2185834	-0.3896969	-0.2647994	-4.163049	-2.785548	0	0
1.106917	0.04339379	0.214842	-0.3265597	-0.2258616	1.905609	1.175222	0	0
1.123486	0.03735104	0.2106309	-0.3646993	-0.254154	-1.15106	-0.8538708	0	0
1.140053	0.02836081	0.2043642	-0.5426669	-0.3782677	-5.37084	-3.745597	0	0
1.156821	0.01823482	0.1970287	-0.6039016	-0.43748	-1.836984	-1.776313	0	0
1.173186	0.01292033	0.1927358	-0.324739	-0.2623131	8.425506	5.286777	0	0
1.189753	0.0081314	0.1839257	-0.2890627	-0.5317872	1.083315	-8.182615	0	0
1.206356	0.006973571	0.1631907	-0.06973564	-1.248862	6.612168	-21.61803	0	0
1.222887	0.007157772	0.1542131	0.01114318	-0.5430915	2.440998	21.30081	0	0
1.239451	0.007368288	0.1362888	0.01270919	-1.082124	0.04731955	-16.28771	0	0
1.272586	0.007763002	0.1074204	0.01191229	-0.8712346	-0.01603449	4.24332	0	0
1.289152	0.007763002	0.09700697	0	-0.6285894	-0.239677	4.882055	0	0
1.305718	0.008184028	0.08793082	0.02541518	-0.5478808	0.7670813	2.435949	0	0
1.322437	0.009289207	0.08016268	0.06610277	-0.4646266	1.222399	2.501252	0	0
1.338853	0.01034174	0.07363539	0.06411486	-0.39761	-0.05999357	2.022505	0	0
1.355419	0.01231517	0.0640102	0.1191259	-0.5810236	1.667901	-5.560981	0	0
1.371987	0.01473578	0.06145692	0.1461061	-0.1541143	0.8142886	12.88456	0	0
1.388552	0.01994472	0.05779066	0.3144445	-0.2213179	5.080681	-2.028296	0	0
1.405119	0.024574	0.05452892	0.2794317	-0.1968848	-1.056754	0.7374417	0	0
1.421686	0.03056942	0.05029944	0.3618947	-0.2552996	2.48881	-1.763015	0	0
1.458531	0.03968967	0.04385355	0.2475272	-0.1749439	-2.141225	1.504446	0	0
1.474265	0.04342006	0.0412126	0.2370935	-0.1678517	-0.1984381	0.1348851	0	0
1.490832	0.04402417	0.04078466	0.03646508	-0.02583097	-6.211291	4.396846	0	0
1.507569	0.0500109	0.03653989	0.3576971	-0.2536185	9.645558	-6.839723	0	0
1.540587	0.05793509	0.03090991	0.2399919	-0.1705094	-2.365673	1.670351	0	0
1.557098	0.06427974	0.02635482	0.3842745	-0.2758865	2.913073	-2.127569	0	0
1.573663	0.07109052	0.02149467	0.4111614	-0.2934033	0.812898	-0.5296028	0	0
1.590229	0.07805164	0.01651546	0.4201953	-0.3005612	0.2726717	-0.2160465	0	0
1.606796	0.08680761	0.01019698	0.5285264	-0.3813953	3.269568	-2.439674	0	0
1.623363	0.09252454	0.006084662	0.3450695	-0.2482162	-5.536782	4.019382	0	0
1.63993	0.09800084	0.002136658	0.330567	-0.238314	-0.437694	0.2988537	0	0
1.656496	0.100346	0.0004432347	0.141568	-0.1022233	-5.704369	4.107491	0	0
1.67318	0.1001637	0.0005373363	-0.01093043	0.005640088	-4.586374	3.24398	0	0
1.689629	0.1001637	0.0005373363	0	0	0.3298906	-0.1702231	0	0
1.706196	0.1001376	0.0005561563	-0.001572709	0.00113601	-0.04763497	0.03440801	0	0
1.723214	0.1001376	0.0005561563	0	0	0.04682762	-0.03382484	0	0
1.73933	0.1000855	0.000593796	-0.003233022	0.002335614	-0.09757454	0.07049023	0	0
1.755896	0.1000855	0.000593796	0	0	0.09892523	-0.07146601	0	0
1.772463	0.1000595	0.0006126156	-0.001572709	0.001135989	-0.04746701	0.03428606	0	0
1.789262	0.1000595	0.0006126156	0	0	0.04713445	-0.03404584	0	0
1.805596	0.1000334	0.0006314352	-0.001595137	0.001152185	-0.04814272	0.03477402	0	0
1.822284	0.09998131	0.0007067124	-0.003122053	0.004510766	-0.04623913	0.1017069	0	0
1.838797	0.09995525	0.0007255315	-0.001577863	0.001139677	0.04651037	-0.1015358	0	0
1.85531	0.0999292	0.0007443504	-0.001577863	0.00113967	0	-2.115023E-07	0	0
1.871863	0.0999292	0.0007443504	0	0	0.04771925	-0.03446697	0	0
1.888832	0.0999292	0.0007443504	0	0	0	0	0	0
1.904996	0.09990314	0.0007631693	-0.001611889	0.001164239	-0.04864831	0.0351378	0	0
1.921563	0.09985103	0.0008008066	-0.00314535	0.002271809	-0.04685016	0.03383838	0	0
1.938367	0.0996426	0.0009513517	-0.01240405	0.008958898	-0.2774468	0.2003857	0	0
1.954879	0.09959049	0.0009889869	-0.003155955	0.002279341	0.2775921	-0.2004945	0	0
1.971263	0.09953837	0.001026622	-0.003180957	0.002297042	-0.000760039	0.000538076	0	0
1.988406	0.09953837	0.001026622	0	0	0.09487607	-0.06851218	0	0
2.004414	0.09953837	0.001026622	0	0	0	0	0	0
2.020964	0.09953837	0.001026622	0	0	0	0	0	0
2.03753	0.09953837	0.001026622	0	0	0	0	0	0
2.054096	0.09953837	0.001026622	0	0	0	0	0	0
2.070663	0.09948626	0.001064256	-0.003145418	0.002271682	-0.09493163	0.06856147	0	0
2.08723	0.09925175	0.001271238	-0.01415487	0.01249343	-0.3322707	0.3084975	0	0
2.103796	0.09886087	0.001591093	-0.02359525	0.01930789	-0.2849214	0.2056682	0	0
2.120363	0.09714066	0.002832595	-0.1038352	0.07493936	-2.421769	1.679046	0	0
2.13693	0.09432452	0.004938337	-0.1699826	0.1271029	-1.99636	1.57432	0	0
2.15352	0.09255063	0.00625376	-0.1069309	0.07929409	1.901645	-1.441917	0	0
2.170063	0.08772167	0.009765322	-0.2918882	0.2122577	-5.582265	4.013022	0	0
2.18663	0.07799933	0.01681516	-0.5868752	0.4255535	-8.909263	6.442008	0	0
2.203197	0.07365599	0.01999791	-0.2621649	0.192111	9.800059	-7.045513	0	0
2.219764	0.0670834	0.02480403	-0.3967333	0.2901066	-4.061341	2.957556	0	0
2.236331	0.05804	0.03139494	-0.5458606	0.3978284	-4.500739	3.251097	0	0
2.252899	0.05148079	0.03609278	-0.395898	0.28355	4.525785	-3.448854	0	0
2.269603	0.04423428	0.04126841	-0.433804	0.3098332	-1.139261	0.7899386	0	0
2.286115	0.04018888	0.04413242	-0.2450064	0.1734557	5.683937	-4.105779	0	0
2.302626	0.03787661	0.04576802	-0.140044	0.09906167	3.17852	-2.252835	0	0
2.319163	0.03798173	0.04569369	0.006356054	-0.004494696	4.42987	-3.133477	0	0
2.33573	0.038008	0.04567511	0.001586201	-0.001121629	-0.1440861	0.1018925	0	0
2.352661	0.03806056	0.04563794	0.003103921	-0.00219521	0.04530805	-0.03204929	0	0
2.386459	0.03808684	0.04561936	0.0007775134	-0.0005497926	-0.04585971	0.03243556	0	0
2.403197	0.03808684	0.04561936	0	0	-0.01538536	0.01087924	0	0
2.43616	0.03806056	0.04563794	-0.0007972135	0.0005637228	-0.01604027	0.01134234	0	0
2.452732	0.03808684	0.04561936	0.001585676	-0.001121258	0.04810536	-0.0340161	0	0
2.469293	0.03806056	0.04560077	-0.001586772	-0.001122257	-0.0957488	-3.017457E-05	0	0
2.485861	0.03808684	0.04558219	0.001586018	-0.0011215	0.09576946	2.287232E-05	0	0
2.502426	0.03813939	0.04554502	0.003172721	-0.002243709	0.04788782	-0.03386906	0	0
2.518993	0.03819195	0.04550786	0.003172493	-0.002243547	-6.893978E-06	4.877085E-06	0	0
2.535559	0.03821822	0.04548927	0.001585976	-0.001121854	-0.04788324	0.03385423	0	0
2.552303	0.0382445	0.04547069	0.001569486	-0.00110981	-0.0004950369	0.0003615732	0	0
2.568692	0.03827078	0.0454521	0.001603322	-0.001133963	0.001021199	-0.000728968	0	0
2.585327	0.03829706	0.04543352	0.001579722	-0.001117047	-0.0007146253	0.0005122097	0	0
2.601826	0.03834961	0.04539635	0.003185241	-0.002252948	0.04845607	-0.03428254	0	0
2.618393	0.03837589	0.04537777	0.001586201	-0.001121629	-0.0483597	0.03421443	0	0
2.63536	0.03842844	0.0453406	0.003097292	-0.002190741	0.04506139	-0.03188138	0	0
2.651526	0.03845472	0.04532202	0.001625477	-0.001149402	-0.0444204	0.03142834	0	0
2.668383	0.03845472	0.04532202	0	0	-0.04922205	0.03480573	0	0
2.684896	0.03845472	0.04532202	0	0	0	0	0	0
2.701227	0.03845472	0.04532202	0	0	0	0	0	0
2.717919	0.03845472	0.04532202	0	0	0	0	0	0
2.734359	0.03848099	0.04530343	0.001598166	-0.001130476	0.04823656	-0.03412054	0	0
2.750943	0.03848099	0.04530343	0	0	-0.04839396	0.03423189	0	0
2.767492	0.03848099	0.04530343	0	0	0	0	0	0
2.784059	0.03848099	0.04530343	0	0	0	0	0	0
2.800626	0.03848099	0.04530343	0	0	0	0	0	0
2.817193	0.03848099	0.04530343	0	0	0	0	0	0
2.833759	0.03850727	0.04528484	0.001586246	-0.001121886	0.04787439	-0.03385956	0	0
2.850326	0.03850727	0.04528484	0	0	-0.04787508	0.03386005	0	0
2.866894	0.03850727	0.04528484	0	0	0	0	0	0
2.883459	0.03848099	0.04530343	-0.001586361	0.001121967	-0.04787922	0.03386297	0	0
2.900027	0.03848099	0.04530343	0	0	0.04787853	-0.03386249	0	0
2.916593	0.03845472	0.04532202	-0.001586044	0.001121902	-0.0478676	0.03385956	0	0
2.933159	0.03842844	0.0453406	-0.001586201	0.001121629	-4.718763E-06	-8.249929E-06	0	0
2.949726	0.03842844	0.04537777	0	0.002243707	0.04787301	0.03386537	0	0
2.966293	0.0385861	0.04560077	0.009516755	0.0134609	0.2872245	0.3385451	0	0
2.982859	0.03874376	0.0457866	0.009516941	0.01121745	5.621757E-06	-0.06771081	0	0
2.999426	0.03898025	0.04606532	0.01427427	0.01682372	0.1435817	0.1692039	0	0
3.016129	0.03916417	0.04638119	0.01101179	0.01891072	-0.09806035	0.06272876	0	0
3.03264	0.03926928	0.0467156	0.006365382	0.02025357	-0.1398917	0.04042989	0	0
3.049152	0.03926928	0.04719859	0	0.02925108	-0.1927539	0.2724589	0	0
3.065693	0.03879631	0.04827582	-0.02859336	0.06512444	-0.8650781	1.085331	0	0
3.08226	0.03438118	0.0523591	-0.266513	0.2464817	-7.186325	5.477865	0	0
3.099188	0.0284134	0.05897608	-0.3525399	0.3908908	-2.568409	4.311464	0	0
3.115701	0.01989211	0.06855772	-0.5160319	0.5802445	-4.888957	5.662309	0	0
3.131959	0.01786652	0.07466863	-0.1245869	0.3758597	11.94464	-6.236647	0	0
3.198259	0.0150778	0.1208071	-0.04206229	0.6959074	0.9995936	3.876634	0	0
3.214792	0.01549876	0.1262465	0.02546056	0.3289914	0.8151656	-4.429573	0	0
3.23136	0.01615649	0.135524	0.03970008	0.5599861	0.430183	6.978466	0	0
3.247926	0.01602494	0.1419851	-0.007940679	0.3900163	-1.437842	-5.129848	0	0
3.264493	0.01652481	0.1509089	0.03017301	0.5386589	1.150331	4.486269	0	0
3.28106	0.01762975	0.1575155	0.06669621	0.3987899	1.102304	-4.221376	0	0
3.314735	0.01997103	0.1664519	0.06952377	0.2653645	0.05627797	-2.655619	0	0
3.331352	0.02023408	0.1664157	0.01583047	-0.0021809	-1.067616	-5.319763	0	0
3.34787	0.02023408	0.1664157	0	0	-0.4777679	0.06582016	0	0
3.364437	0.02023408	0.1664157	0	0	0	0	0	0
3.381003	0.02023408	0.1664157	0	0	0	0	0	0
3.397899	0.02020778	0.1664338	-0.001556834	0.001072431	-0.04652536	0.03204919	0	0
3.414136	0.02020778	0.1664338	0	0	0.0469877	-0.03236768	0	0
3.430922	0.02020778	0.1664338	0	0	0	0	0	0
3.447434	0.02020778	0.1664338	0	0	0	0	0	0
3.463838	0.02023408	0.1664157	0.001603607	-0.001104651	0.0487184	-0.03355987	0	0
3.480403	0.02020778	0.1664338	-0.001587935	0.001093856	-0.09680642	0.06668551	0	0
3.496973	0.02020778	0.1664338	0	0	0.04792328	-0.03301216	0	0
3.513536	0.02020778	0.1664338	0	0	0	0	0	0
3.530102	0.02020778	0.1664338	0	0	0	0	0	0
3.547004	0.02020778	0.1664338	0	0	0	0	0	0
3.563236	0.02020778	0.1664338	0	0	0	0	0	0
3.580029	0.02020778	0.1664338	0	0	0	0	0	0
3.59654	0.02020778	0.1664338	0	0	0	0	0	0
3.612936	0.02020778	0.1664338	0	0	0	0	0	0
3.629503	0.02020778	0.1664338	0	0	0	0	0	0
3.646075	0.02023408	0.1664157	0.001587249	-0.001093384	0.04789674	-0.03299387	0	0
3.662636	0.02023408	0.1664157	0	0	-0.04790535	0.03299981	0	0
3.679202	0.02020778	0.1663976	-0.001587775	-0.001092846	-0.04792914	-0.03298904	0	0
3.695769	0.02020778	0.1663976	0	0	0.04792052	0.03298311	0	0
3.712622	0.02020778	0.1663976	0	0	0	0	0	0
3.729134	0.02020778	0.1663976	0	0	0	0	0	0
3.74547	0.02020778	0.1663976	0	0	0	0	0	0
3.778603	0.02020778	0.1663976	0	0	0	0	0	0
3.79518	0.02018147	0.1664157	-0.00158686	0.001092139	-0.03192217	0.02197008	0	0
3.811736	0.02018147	0.1664157	0	0	0.04789289	-0.03296176	0	0
3.828303	0.02018147	0.1664157	0	0	0	0	0	0
3.845215	0.02020778	0.1664338	0.001555495	0.001071434	0.04646251	0.03200363	0	0
3.861731	0.02020778	0.1664338	0	0	-0.04653343	-0.03205248	0	0
3.878239	0.02020778	0.1664338	0	0	0	0	0	0
3.894752	0.02020778	0.1664338	0	0	0	0	0	0
3.911264	0.02020778	0.1663976	0	-0.002193758	0	-0.06642666	0	0
3.927775	0.02020778	0.1663976	0	0	0	0.0664305	0	0
3.944295	0.02020778	0.1663976	0	0	0	0	0	0
3.960836	0.02020778	0.1663976	0	0	0	0	0	0
3.977402	0.02020778	0.1663614	0	-0.002186654	0	-0.06604801	0	0
3.993973	0.02020778	0.1663614	0	0	0	0.06598766	0	0
4.010831	0.02020778	0.1663614	0	0	0	0	0	0
4.027347	0.02023408	0.1663432	0.001592726	-0.001097156	0.04772482	-0.03287544	0	0
4.043671	0.02023408	0.1663432	0	0	-0.0484999	0.03340937	0	0
4.060237	0.02023408	0.1663432	0	0	0	0	0	0
4.076804	0.02023408	0.1663432	0	0	0	0	0	0
4.093393	0.02023408	0.1663432	0	0	0	0	0	0
4.159637	0.02023408	0.1663432	0	0	0	0	0	0
4.176202	0.02023408	0.1663432	0	0	0	0	0	0
4.192962	0.02023408	0.1663432	0	0	0	0	0	0
4.226849	0.02023408	0.1663432	0	0	0	0	0	0
4.291222	0.02023408	0.1662708	0	-0.001125471	0	-0.01145408	0	0
4.307788	0.02023408	0.1662346	0	-0.002186592	0	-0.01311008	0	0
4.324355	0.02023408	0.1662346	0	0	0	0.06599336	0	0
4.340922	0.02026039	0.1661802	0.001587887	-0.003280337	0.04792391	-0.09900361	0	0
4.357579	0.02026039	0.166144	0	-0.002175593	-0.04779323	0.03325127	0	0
4.374055	0.02026039	0.166144	0	0	0	0.06566142	0	0
4.390622	0.02026039	0.166144	0	0	0	0	0	0
4.407188	0.02026039	0.166144	0	0	0	0	0	0
4.423755	0.02026039	0.166144	0	0	0	0	0	0
4.440635	0.02026039	0.166144	0	0	0	0	0	0
4.457147	0.02026039	0.166144	0	0	0	0	0	0
4.473455	0.02026039	0.166144	0	0	0	0	0	0
4.490023	0.02026039	0.166144	0	0	0	0	0	0
4.506588	0.02023408	0.1661259	-0.001587979	-0.001092909	-0.04792667	-0.03298501	0	0
4.523156	0.02026039	0.1661078	0.001587842	-0.001093714	0.09585058	-2.429987E-05	0	0
4.539722	0.02026039	0.1661078	0	0	-0.04792254	0.03300931	0	0
4.556289	0.02026039	0.1661078	0	0	0	0	0	0
4.572855	0.02023408	0.1660897	-0.001587887	-0.001092846	-0.04792391	-0.03298311	0	0
4.589422	0.02026039	0.1660715	0.001587887	-0.001093745	0.09584782	-2.714548E-05	0	0
4.605989	0.02028669	0.1660172	0.001587775	-0.003280337	-3.394063E-06	-0.06599336	0	0
4.622556	0.02031299	0.1659628	0.001587775	-0.003280337	0	0	0	0
4.639122	0.0203393	0.1659085	0.001587887	-0.003280337	3.394063E-06	0	0	0
4.655689	0.02036561	0.1658542	0.001587821	-0.003280431	-2.013277E-06	-2.853021E-06	0	0
4.672255	0.02036561	0.1658179	0	-0.002186654	-0.04792328	0.03301216	0	0
4.688822	0.02039191	0.1657998	0.001587775	-0.001093745	0.04792121	0.03298548	0	0
4.705389	0.02044452	0.1657273	0.003175571	-0.004373956	0.04792047	-0.09899839	0	0
4.721955	0.02047082	0.165673	0.001587821	-0.003280431	-0.04791978	0.0330036	0	0
4.738522	0.02049713	0.1656549	0.001587775	-0.001093745	-1.380834E-06	0.06599716	0	0
4.755092	0.02049713	0.1656549	0	0	-0.04791638	0.0330074	0	0
4.771655	0.02049713	0.1656549	0	0	0	0	0	0
4.804789	0.02049713	0.1656549	0	0	0	0	0	0
4.821404	0.02049713	0.1656549	0	0	0	0	0	0
4.837923	0.02049713	0.1656549	0	0	0	0	0	0
4.854489	0.02049713	0.1656187	0	-0.002186654	0	-0.06609132	0	0
4.887622	0.02049713	0.1656187	0	0	0	0.04399726	0	0
4.904462	0.02049713	0.1656187	0	0	0	0	0	0
4.920974	0.02049713	0.1656187	0	0	0	0	0	0
4.937322	0.02049713	0.1656187	0	0	0	0	0	0
4.953998	0.02049713	0.1656187	0	0	0	0	0	0
4.970455	0.02049713	0.1656187	0	0	0	0	0	0
4.987021	0.02047082	0.1656368	-0.001587821	0.001093777	-0.04808105	0.03312084	0	0
5.003589	0.02047082	0.1656368	0	0	0.04792121	-0.03301073	0	0
5.020155	0.02047082	0.1656368	0	0	0	0	0	0
5.036722	0.02047082	0.1656368	0	0	0	0	0	0
5.053288	0.02047082	0.1656368	0	0	0	0	0	0
5.069855	0.02047082	0.165673	0	0.002186592	0	0.06599336	0	0
5.086592	0.02041822	0.1657455	-0.003143341	0.004329717	-0.09438539	0.06435183	0	0
5.103102	0.02036561	0.1658904	-0.003186485	0.008777075	-0.001297667	0.1337672	0	0
5.119555	0.02026039	0.1662889	-0.00639502	0.02422113	-0.09733525	0.4685162	0	0
5.136126	0.02018147	0.1666693	-0.004762453	0.02295527	0.04943601	-0.03833152	0	0
5.169255	0.01889249	0.1971189	-0.03890766	0.9191158	-0.6870293	18.03148	0	0
5.202662	0.02273292	0.2406413	0.1149583	1.302785	2.312507	5.766306	0	0
5.21923	0.02581006	0.2588739	0.1857308	1.10049	1.41616	-4.047929	0	0
5.235797	0.0293074	0.2757566	0.2111058	1.019074	0.7658206	-2.457147	0	0
5.252364	0.03430233	0.2950707	0.3015034	1.165832	2.728284	4.429292	0	0
5.26893	0.03677289	0.3040779	0.1491276	0.5436941	-4.598843	-18.7767	0	0
5.285497	0.0405567	0.3272994	0.2284042	1.401733	2.392675	25.89678	0	0
5.302063	0.04171263	0.3404783	0.06977663	0.7955267	-4.787665	-18.29639	0	0
5.318632	0.04192279	0.3485499	0.0126841	0.4871572	-1.723031	-9.306477	0	0
5.335269	0.04215921	0.3621409	0.01421033	0.8168994	0.04596244	9.930205	0	0
5.351778	0.04192279	0.3711263	-0.01432074	0.5442728	-0.8607595	-8.224929	0	0
5.36833	0.0404516	0.3824199	-0.08888038	0.6822912	-2.25518	4.174596	0	0
5.384896	0.03842844	0.392664	-0.1221325	0.6184028	-1.004056	-1.929128	0	0
5.401814	0.03766639	0.3995501	-0.04504469	0.4070365	2.302295	-6.312638	0	0
5.41803	0.03698313	0.401697	-0.04213416	0.1323935	0.08784129	-8.288863	0	0
5.434596	0.03301432	0.4133852	-0.2395787	0.7055622	-6.022941	17.48421	0	0
5.451347	0.03054313	0.4163223	-0.1475179	0.1753295	2.763129	-15.91451	0	0
5.46773	0.02701974	0.4197975	-0.2150741	0.2121336	-2.038878	1.110767	0	0
5.484374	0.02770344	0.4249226	0.0410765	0.3079163	7.755866	2.900158	0	0
5.500863	0.02909705	0.4261953	0.08452	0.07718558	1.311184	-6.963767	0	0
5.517429	0.02912334	0.4261774	0.0015871	-0.001081153	-2.508914	-2.367751	0	0
5.533997	0.02914964	0.4261594	0.001587167	-0.001082921	2.01322E-06	-5.335207E-05	0	0
5.550563	0.02917593	0.4261774	0.001587146	0.001082983	-6.359476E-07	0.06536899	0	0
5.56713	0.02920222	0.4261953	0.0015871	0.001081153	-1.377321E-06	-5.523337E-05	0	0
5.583695	0.02922852	0.4262132	0.001587192	0.001083014	2.754681E-06	5.617581E-05	0	0
5.600262	0.02922852	0.4262132	0	0	-0.04790429	-0.03268732	0	0
5.616966	0.02922852	0.4262132	0	0	0	0	0	0
5.633477	0.02920222	0.4262311	-0.001592463	0.001084806	-0.04794471	0.03266055	0	0
5.649988	0.02920222	0.4262311	0	0	0.04822372	-0.03285061	0	0
5.666529	0.02920222	0.4262311	0	0	0	0	0	0
5.683096	0.02872894	0.4265538	-0.02856848	0.01947694	-0.8628938	0.5882894	0	0
5.699663	0.02615193	0.4284901	-0.1555528	0.1168761	-3.832505	2.939596	0	0
5.716229	0.02278553	0.4321125	-0.2032081	0.2186636	-1.438301	3.072088	0	0
5.732795	0.02147038	0.4367411	-0.07938687	0.279397	3.737147	1.833043	0	0
5.749558	0.02049713	0.4472444	-0.05805906	0.6265681	0.639908	10.41633	0	0
5.76593	0.02099691	0.458336	0.03052821	0.6775041	2.673569	1.537253	0	0
5.782581	0.02141778	0.4665433	0.02527468	0.4928822	-0.1590874	-5.590728	0	0
5.799093	0.02060235	0.4740206	-0.0493858	0.4528601	-2.251314	-1.206826	0	0
5.815633	0.01955014	0.4819212	-0.06361567	0.4776645	-0.4305366	0.7504779	0	0
5.832195	0.01694575	0.4856223	-0.1572514	0.2234672	-2.8287	-7.679204	0	0
5.848762	0.01647219	0.4877898	-0.02858362	0.1308301	3.883816	-2.796236	0	0
5.865329	0.01720883	0.4903556	0.04446455	0.1548783	2.20463	0.7257859	0	0
5.881895	0.01726144	0.4903195	0.003176091	-0.002182157	-1.246142	-4.740299	0	0
5.898462	0.01726144	0.4902833	0	-0.002182094	-0.09585875	1.897329E-06	0	0
5.931595	0.01731406	0.4902472	0.001588	-0.001091047	0.03195154	0.02195254	0	0
5.948162	0.01734037	0.4902291	0.001588	-0.001090148	0	1.809698E-05	0	0
5.964728	0.01734037	0.4902291	0	0	-0.047928	0.03290214	0	0
5.981295	0.01734037	0.4902291	0	0	0	0	0	0
5.998236	0.01734037	0.4902291	0	0	0	0	0	0
6.030995	0.01734037	0.4902291	0	0	0	0	0	0
6.064128	0.01736668	0.490211	0.0007940228	-0.0005450895	0.01205033	-0.008272442	0	0
6.080792	0.01734037	0.4902291	-0.00157873	0.001083784	-0.04764891	0.03271055	0	0
6.097262	0.01734037	0.4902291	0	0	0.04764616	-0.03270867	0	0
6.113829	0.01731406	0.490211	-0.001588046	-0.001090179	-0.04806912	-0.03299902	0	0
6.130395	0.01726144	0.4901749	-0.003176091	-0.002182157	-0.04793007	-0.03295786	0	0
6.146962	0.01720883	0.4901387	-0.003175908	-0.002182032	5.523257E-06	3.787577E-06	0	0
6.163529	0.01720883	0.4901387	0	0	0.09585048	0.06585479	0	0
6.180362	0.01718252	0.4901568	-0.001562854	0.001072885	-0.04679196	0.03212226	0	0
6.196876	0.0171036	0.4901387	-0.004779269	-0.001093642	-0.09645251	-0.06496892	0	0
6.213229	0.01689313	0.4900664	-0.01287044	-0.004421327	-0.2461831	-0.1012486	0	0
6.229795	0.01676159	0.4901568	-0.007940111	0.005454336	0.1497697	0.2999952	0	0
6.24641	0.01615649	0.4905725	-0.03642007	0.02501937	-0.8583163	0.5896423	0	0
6.262928	0.0150778	0.4912774	-0.06530125	0.04267399	-0.8716736	0.5328405	0	0
6.279495	0.01055224	0.4941702	-0.2731715	0.1746179	-6.282849	3.987986	0	0
6.296062	0.003868402	0.4986931	-0.4034372	0.2730022	-3.931484	2.969286	0	0
6.312956	-0.004289447	0.5042703	-0.4829019	0.3301396	-2.374873	1.707603	0	0
6.329196	-0.007157772	0.5062817	-0.1766197	0.1238512	9.243882	-6.225976	0	0
6.345761	-0.006815684	0.506191	0.02065087	-0.005472798	6.013349	-3.942151	0	0
6.36233	-0.005999928	0.5059917	0.04923489	-0.01202982	0.8626799	-0.197894	0	0
6.379002	-0.00173684	0.5053756	0.2557014	-0.03695587	6.211237	-0.7498634	0	0
6.395514	0.003447355	0.506626	0.3139669	0.0757299	1.755829	3.395781	0	0
6.412028	0.01344656	0.5115219	0.6054875	0.2964622	8.826946	6.683547	0	0
6.428595	0.01883988	0.514988	0.3255506	0.209222	-8.462152	-2.637164	0	0
6.445162	0.02194384	0.51615	0.1873614	0.07014003	-4.17068	-4.197623	0	0
6.461729	0.02723011	0.513663	0.3190888	-0.1501202	3.975656	-6.647657	0	0
6.478295	0.03514342	0.5082031	0.4776759	-0.3295795	4.786374	-5.416327	0	0
6.494863	0.04129231	0.5039623	0.3711368	-0.2559649	-3.215401	2.221725	0	0
6.511428	0.04809446	0.4993085	0.4106263	-0.280937	1.191845	-0.7536914	0	0
6.527995	0.05127082	0.4979873	0.1917251	-0.07974758	-6.60683	6.072257	0	0
6.544562	0.05216316	0.4987113	0.05386359	0.04369765	-4.160729	3.725638	0	0
6.56113	0.05263555	0.4990008	0.0285116	0.01747863	-0.7651136	-0.7912803	0	0
6.577695	0.05274052	0.499037	0.006336988	0.002184145	-0.66926	-0.4616084	0	0
6.594262	0.05276676	0.4990189	0.001584177	-0.001091947	-0.1434525	-0.09888117	0	0
6.610828	0.052793	0.4990008	0.001583952	-0.001091947	-6.788126E-06	0	0	0
6.627396	0.05295046	0.4988922	0.009503616	-0.0065549	0.2390159	-0.1648723	0	0
6.643962	0.05321287	0.4987113	0.01584088	-0.01092549	0.1912646	-0.1319085	0	0
6.66053	0.05326536	0.498675	0.003167947	-0.002185566	-0.3824809	0.263779	0	0
6.677216	0.05381641	0.498295	0.03302468	-0.02277777	0.8978479	-0.6192461	0	0
6.693726	0.05502335	0.4974626	0.07310154	-0.05041697	1.207263	-0.8325951	0	0
6.710238	0.05929882	0.49455	0.2589247	-0.1763858	5.627104	-3.814591	0	0
6.726797	0.0641225	0.4912593	0.2913173	-0.1987347	0.9794983	-0.6757956	0	0
6.743363	0.0671096	0.489199	0.1803122	-0.1243668	-3.351153	2.245107	0	0
6.760275	0.06763352	0.4888377	0.0309795	-0.02136846	-4.460588	3.076573	0	0
6.776495	0.06763352	0.4888377	0	0	-0.935017	0.6449384	0	0
6.793303	0.06765972	0.4888196	0.001558599	-0.001074529	0.04719006	-0.03253376	0	0
6.809632	0.06768592	0.4888015	0.001604249	-0.001107826	0.001377612	-0.001004833	0	0
6.826196	0.06776451	0.4887473	0.00474458	-0.003271008	0.0954706	-0.06576385	0	0
6.842763	0.06789548	0.488657	0.007905591	-0.005454179	0.0954091	-0.06589489	0	0
6.859331	0.06868128	0.488115	0.04743085	-0.03271608	1.192875	-0.8227658	0	0
6.875896	0.07135235	0.4862725	0.1612447	-0.1112263	3.435106	-2.369578	0	0
6.892464	0.07504302	0.4837264	0.2227632	-0.1536786	1.856711	-1.281269	0	0
6.90938	0.07504302	0.4837264	0	0	-6.652828	4.589615	0	0
6.925596	0.07491218	0.4838166	-0.008068414	0.005566705	-0.2435192	0.1680132	0	0
6.991938	0.07488602	0.4838347	-0.0003944181	0.0002722294	0.09295262	-0.06413025	0	0
7.016537	0.07485985	0.4838166	-0.001063716	-0.0007341824	-0.007359701	-0.01106665	0	0
7.033465	0.07485985	0.4838166	0	0	0.02561518	0.01767973	0	0
7.049672	0.07485985	0.4838166	0	0	0	0	0	0
7.066488	0.07488602	0.4837986	0.001556031	-0.001073981	0.04711911	-0.03252185	0	0
7.083	0.07488602	0.4837986	0	0	-0.04668833	0.03222452	0	0
7.099513	0.07488602	0.4837986	0	0	0	0	0	0
7.116024	0.07488602	0.4837986	0	0	0	0	0	0
7.132505	0.07488602	0.4837986	0	0	0	0	0	0
7.149072	0.07485985	0.4837805	-0.0015795	-0.001090179	-0.04779391	-0.03298759	0	0
7.165638	0.07485985	0.4837805	0	0	0.04767147	0.03290309	0	0
7.182205	0.07483368	0.4837625	-0.001579905	-0.001088349	-0.04768299	-0.03284737	0	0
7.199082	0.07470284	0.4836722	-0.007752461	-0.005348717	-0.1845644	-0.1273884	0	0
7.215593	0.07446731	0.4835097	-0.01426493	-0.009840871	-0.1950534	-0.1345434	0	0
7.232106	0.07368216	0.482932	-0.04754774	-0.03498412	-1.007842	-0.7613667	0	0
7.248472	0.07184979	0.4816686	-0.1119654	-0.07720309	-1.959271	-1.284095	0	0
7.265038	0.06957175	0.4800986	-0.1375066	-0.09476729	-0.775565	-0.533343	0	0
7.281605	0.06501351	0.4769236	-0.2751436	-0.1916447	-4.154013	-2.923851	0	0
7.298172	0.05205819	0.4680201	-0.7820076	-0.5374356	-15.29763	-10.43629	0	0
7.314738	0.04278966	0.4616646	-0.5594817	-0.3836387	6.716133	4.6418	0	0
7.331305	0.03616843	0.4571308	-0.3996695	-0.2736702	4.82335	3.318998	0	0
7.347871	0.02202275	0.4471725	-0.8538839	-0.6011168	-13.70881	-9.882783	0	0
7.364439	0.01121006	0.4333322	-0.6526557	-0.8354014	6.073254	-7.070928	0	0
7.381211	0.009210266	0.4235784	-0.1192286	-0.5815281	15.99962	7.614683	0	0
7.397722	0.008894502	0.400051	-0.0191245	-1.424957	3.0076	-25.34059	0	0
7.414235	0.008762933	0.3816156	-0.007967886	-1.116458	0.3378402	9.341852	0	0
7.430746	0.008499796	0.3601047	-0.01593669	-1.302788	-0.2413047	-5.642284	0	0
7.447272	0.007368288	0.3467641	-0.06846743	-0.8072397	-1.590026	14.99948	0	0
7.463839	0.006447279	0.332639	-0.05559379	-0.8526178	0.3890142	-1.371232	0	0
7.480406	0.005815724	0.3239955	-0.03812183	-0.5217346	0.52732	9.986362	0	0
7.496973	0.005394685	0.3158153	-0.02541471	-0.4937739	0.3835126	0.8438786	0	0
7.513539	0.005342055	0.3057039	-0.003176934	-0.61036	0.6711665	-3.518725	0	0
7.530316	0.005684149	0.3007899	0.02039007	-0.2928911	0.7067885	9.521077	0	0
7.546829	0.006920942	0.292872	0.0748987	-0.4795012	1.637369	-5.605523	0	0
7.579806	0.006684111	0.286811	-0.007181788	-0.1837974	-1.658544	5.975081	0	0
7.596372	0.01247304	0.2827692	0.3494505	-0.2439805	7.198522	-1.214779	0	0
7.612938	0.01418326	0.2815709	0.1032322	-0.07233652	-7.431311	5.180522	0	0
7.629506	0.01933969	0.2780647	0.311243	-0.2116337	6.277869	-4.204057	0	0
7.646072	0.02239099	0.2759892	0.1841874	-0.1252806	-3.834655	2.606215	0	0
7.662638	0.02962291	0.2710322	0.4365445	-0.2992271	7.61659	-5.250019	0	0
7.679423	0.03651008	0.266342	0.4103253	-0.27943	-0.7861621	0.5935999	0	0
7.695934	0.04081942	0.2634412	0.2609908	-0.1756848	-4.485043	3.115837	0	0
7.712446	0.04213295	0.2625458	0.07955042	-0.05422996	-5.494305	3.677846	0	0
7.728906	0.04192279	0.2627249	-0.01276765	0.01088169	-2.799905	1.974764	0	0
7.745472	0.04192279	0.2627249	0	0	0.3865914	-0.3294864	0	0
7.778606	0.04192279	0.2626891	0	-0.001081137	0	-0.02175315	0	0
7.795171	0.04192279	0.2626891	0	0	0	0.02175378	0	0
7.811738	0.04194906	0.2626711	0.001585526	-0.001081153	0.04785541	-0.03263208	0	0
7.828306	0.04194906	0.2626711	0	0	-0.04785128	0.03262926	0	0
7.861439	0.04194906	0.2626711	0	0	0	0	0	0
7.878062	0.04194906	0.2626711	0	0	0	0	0	0
7.894573	0.04194906	0.2626353	0	-0.002169675	0	-0.06548187	0	0
7.911139	0.04197533	0.2626174	0.001585842	-0.001081215	0.04794499	0.03290756	0	0
7.927705	0.0420016	0.2625637	0.001585751	-0.003243459	-2.754681E-06	-0.0652604	0	0
7.961121	0.04349886	0.2614354	0.04480752	-0.03376643	0.8647454	-0.6106784	0	0
7.977633	0.04620393	0.2595904	0.1638256	-0.111734	2.383831	-1.561624	0	0
7.994149	0.05292422	0.2550038	0.4068901	-0.2777034	7.359319	-5.025093	0	0
8.010538	0.05735807	0.251975	0.2705322	-0.1848033	-4.143916	2.823232	0	0
8.027104	0.06189452	0.2488737	0.2738369	-0.187205	0.1002778	-0.07287522	0	0
8.043671	0.06304791	0.2480848	0.06962237	-0.04762068	-6.163561	4.212905	0	0
8.060237	0.06296927	0.2481386	-0.004746596	0.00324715	-2.244589	1.535282	0	0
8.076805	0.06296927	0.2481386	0	0	0.1432526	-0.09799919	0	0
8.09337	0.06299549	0.2481207	0.00158229	-0.001083045	0.04775498	-0.03268732	0	0
8.109937	0.06299549	0.2481207	0	0	-0.04775773	0.0326892	0	0
8.126504	0.06299549	0.2481207	0	0	0	0	0	0
8.14325	0.06299549	0.2481207	0	0	0	0	0	0
8.159762	0.06296927	0.2481386	-0.001587316	0.001086486	-0.04772671	0.03266797	0	0
8.176205	0.06296927	0.2481386	0	0	0.04816592	-0.0329686	0	0
8.192786	0.06299549	0.2481207	0.001580743	-0.001081987	0.04786672	-0.03276381	0	0
8.209339	0.06299549	0.2481207	0	0	-0.04770691	0.03265442	0	0
8.225905	0.06299549	0.2481207	0	0	0	0	0	0
8.242472	0.0630217	0.2481027	0.001582199	-0.001082084	0.0477536	-0.03265923	0	0
8.259332	0.0630217	0.2481027	0	0	-0.04733397	0.03237224	0	0
8.275604	0.0630217	0.2481027	0	0	0	0	0	0
8.292171	0.06299549	0.2480848	-0.001582199	-0.001082084	-0.04818074	-0.03295135	0	0
8.308865	0.06299549	0.2480848	0	0	0.04757012	0.03253375	0	0
8.325378	0.0630217	0.2481027	0.001587224	0.001085521	0.04779659	0.03268863	0	0
8.34187	0.0630217	0.2481027	0	0	-0.04808937	-0.03288887	0	0
8.358438	0.0630217	0.2481027	0	0	0	0	0	0
8.375004	0.06299549	0.2480848	-0.001582199	-0.001082084	-0.04775223	-0.03265829	0	0
8.391571	0.06299549	0.2480848	0	0	0.04775223	0.03265829	0	0
8.408436	0.06299549	0.2480848	0	0	0	0	0	0
8.424705	0.06299549	0.2480848	0	0	0	0	0	0
8.441459	0.06299549	0.2480848	0	0	0	0	0	0
8.457837	0.06299549	0.2480489	0	-0.002189902	0	-0.06609517	0	0
8.474486	0.06291685	0.2479952	-0.004722942	-0.003230969	-0.1429996	-0.03152107	0	0
8.49097	0.06157994	0.2470807	-0.08110712	-0.05547942	-2.305412	-1.576952	0	0
8.507536	0.05599404	0.2432964	-0.3371851	-0.2284312	-7.748297	-5.233099	0	0
8.524105	0.04743807	0.2374471	-0.51638	-0.3530275	-5.407958	-3.760217	0	0
8.540671	0.04118722	0.2331745	-0.3773236	-0.2579038	4.19661	2.870758	0	0
8.557236	0.0332509	0.2277505	-0.47912	-0.3274548	-3.072577	-2.099296	0	0
8.573802	0.02688826	0.2234018	-0.384072	-0.2625029	2.868886	1.960479	0	0
8.607076	0.01586709	0.2158674	-0.3312275	-0.2264353	1.060283	0.7236673	0	0
8.623501	0.009210266	0.2113149	-0.4052828	-0.2771702	-1.49008	-1.020847	0	0
8.640068	0.005920983	0.2091007	-0.1985415	-0.1336499	6.266338	4.350109	0	0
8.656634	0.00192105	0.2063996	-0.2414503	-0.1630456	-1.295028	-0.8871913	0	0
8.673201	0.0005526315	0.205463	-0.08260268	-0.0565355	4.794308	3.214667	0	0
8.689768	-0.0003157895	0.2048686	-0.05241799	-0.0358803	0.911002	0.6233931	0	0
8.706334	-0.0003421053	0.2048866	-0.001588516	0.001087481	1.534081	1.115722	0	0
8.7229	-0.0003421053	0.2048866	0	0	0.04794428	-0.03282212	0	0
8.73967	-0.0003421053	0.2048866	0	0	0	0	0	0
8.773475	-0.0003157895	0.2049046	0.0007784613	0.0005329259	0.01539243	0.01053748	0	0
8.790039	-0.0003157895	0.2049046	0	0	-0.01545509	-0.01058038	0	0
8.806713	-0.0003157895	0.2049046	0	0	0	0	0	0
8.823224	-0.0003157895	0.2049046	0	0	0	0	0	0
8.839739	-0.0002894737	0.2048866	0.001593468	-0.001090872	0.04824927	-0.03303095	0	0
8.856753	-0.0002894737	0.2048506	0	-0.002117664	-0.04752467	-0.03062376	0	0
8.872872	-0.0002894737	0.2048506	0	0	0	0.06391308	0	0
8.889439	-0.0002894737	0.2048506	0	0	0	0	0	0
8.906006	-0.0002894737	0.2048506	0	0	0	0	0	0
8.922572	-0.0002631579	0.2048326	0.001588516	-0.001086581	0.0479429	-0.03279402	0	0
8.939138	-0.0002631579	0.2048326	0	0	-0.04794428	0.03279497	0	0
8.972271	-0.0002631579	0.2048326	0	0	0	0	0	0
8.988837	-0.0002894737	0.2048506	-0.001588516	0.001086581	-0.03196285	0.02186331	0	0
9.005404	-0.0002631579	0.2048326	0.001588516	-0.001086581	0.09588856	-0.06558993	0	0
9.02197	-0.0002631579	0.2048326	0	0	-0.04794428	0.03279497	0	0
9.038536	-0.0002894737	0.2048506	-0.001588516	0.001086581	-0.04794428	0.03279497	0	0
9.055102	-0.0002894737	0.2048506	0	0	0.04794428	-0.03279497	0	0
9.071669	-0.0002631579	0.2048326	0.001588516	-0.001086581	0.04794428	-0.03279497	0	0
9.088236	-0.0002631579	0.2048326	0	0	-0.0479429	0.03279402	0	0
9.104802	-0.0002631579	0.2048326	0	0	0	0	0	0
9.121368	-0.0002894737	0.2048146	-0.001588516	-0.001087481	-0.04794428	-0.03282212	0	0
9.137935	-0.0002894737	0.2048146	0	0	0.04794428	0.03282212	0	0
9.154501	-0.0002894737	0.2048146	0	0	0	0	0	0
9.171067	-0.0002894737	0.2048146	0	0	0	0	0	0
9.187634	-0.0002894737	0.2047785	0	-0.002174836	0	-0.06563856	0	0
9.204201	-0.0002894737	0.2047785	0	0	0	0.06563856	0	0
9.221002	-0.0002894737	0.2047785	0	0	0	0	0	0
9.237335	-0.0003157895	0.2047605	-0.001611145	-0.001102973	-0.04862446	-0.0332878	0	0
9.253901	-0.0003157895	0.2047605	0	0	0.04897119	0.03352517	0	0
9.270537	-0.0003157895	0.2047605	0	0	0	0	0	0
9.287035	-0.0003157895	0.2047245	0	-0.002184014	0	-0.06591555	0	0
9.303601	-0.0003157895	0.2047245	0	0	0	0.06605435	0	0
9.320168	-0.0003157895	0.2047245	0	0	0	0	0	0
9.336734	-0.0003157895	0.2047245	0	0	0	0	0	0
9.369867	-0.0003421053	0.2047065	-0.0007942353	-0.0005437246	-0.01598066	-0.01094018	0	0
9.386436	-0.0003421053	0.2047065	0	0	0.01598004	0.01093976	0	0
9.403131	-0.0003421053	0.2047065	0	0	0	0	0	0
9.419569	-0.0003421053	0.2047065	0	0	0	0	0	0
9.436135	-0.0003421053	0.2047065	0	0	0	0	0	0
9.452703	-0.0003421053	0.2047065	0	0	0	0	0	0
9.469269	-0.0003421053	0.2047065	0	0	0	0	0	0
9.485835	-0.0003421053	0.2047065	0	0	0	0	0	0
9.502402	-0.0003421053	0.2047065	0	0	0	0	0	0
9.518969	-0.0003421053	0.2047065	0	0	0	0	0	0
9.535725	-0.0003421053	0.2047065	0	0	0	0	0	0
9.552101	-0.0003421053	0.2047065	0	0	0	0	0	0
9.568668	-0.0003421053	0.2047065	0	0	0	0	0	0
9.585235	-0.0003421053	0.2047065	0	0	0	0	0	0
9.618459	-0.0003421053	0.2047065	0	0	0	0	0	0
9.635026	-0.0003421053	0.2047065	0	0	0	0	0	0
9.651806	-0.0003421053	0.2047065	0	0	0	0	0	0
9.668159	-0.0003421053	0.2047065	0	0	0	0	0	0
9.721382	-0.0003421053	0.2047065	0	0	0	0	0	0
9.737949	-0.0003421053	0.2047065	0	0	0	0	0	0
9.754516	-0.0003421053	0.2047065	0	0	0	0	0	0
9.771082	-0.0003421053	0.2047065	0	0	0	0	0	0
9.78765	-0.0003421053	0.2047065	0	0	0	0	0	0
9.804216	-0.0003421053	0.2047065	0	0	0	0	0	0
9.820783	-0.0003421053	0.2047065	0	0	0	0	0	0
9.837438	-0.0003421053	0.2047065	0	0	0	0	0	0
9.85395	-0.0003421053	0.2047065	0	0	0	0	0	0
9.870483	-0.0003421053	0.2047065	0	0	0	0	0	0
9.887051	-0.0003421053	0.2047065	0	0	0	0	0	0
9.904487	-0.0003421053	0.2047065	0	0	0	0	0	0
9.937008	-0.0003421053	0.2047065	0	0	0	0	0	0
9.953318	-0.0003421053	0.2047065	0	0	0	0	0	0
9.970033	-0.0003421053	0.2047065	0	0	0	0	0	0
9.986451	-0.0003421053	0.2047065	0	0	0	0	0	0
10.00302	-0.0003421053	0.2047065	0	0	0	0	0	0
10.01958	-0.0003157895	0.2046884	0.001588608	-0.001087543	0.04794842	-0.03282495	0	0
10.03615	-0.0003421053	0.2046704	-0.001588425	-0.001086519	-0.09588855	3.092692E-05	0	0
10.05272	-0.0003421053	0.2046704	0	0	0.04794014	0.03279214	0	0
10.06928	-0.0003421053	0.2046704	0	0	0	0	0	0
10.08585	-0.0003421053	0.2046344	0	-0.002174961	0	-0.06564423	0	0
10.10262	-0.0003421053	0.2045984	0	-0.002147882	0	0.0008121703	0	0
10.11898	-0.0003157895	0.2045443	0.001608705	-0.003303905	0.04855221	-0.03488983	0	0
10.13565	-0.0002894737	0.2044903	0.001579061	-0.003243026	-0.0008976617	0.001843477	0	0
10.15216	-0.0002894737	0.2044543	0	-0.002181093	-0.04759314	0.03200682	0	0
10.16868	0.001236841	0.203049	0.09237316	-0.0850474	2.796117	-2.508346	0	0
10.20631	0.007078829	0.199012	0.1552635	-0.1072931	1.161419	-0.4108185	0	0
10.22288	0.0178139	0.1914728	0.6480077	-0.455094	9.092471	-6.417874	0	0
10.23944	0.02665158	0.1852985	0.5334433	-0.3726813	-3.45766	2.487292	0	0
10.25623	0.03821822	0.1772745	0.6889237	-0.4779182	4.66115	-3.1549	0	0
10.27258	0.04675537	0.1713225	0.5223698	-0.3641873	-5.026896	3.432602	0	0
10.28926	0.05748921	0.1638431	0.6435246	-0.4484161	3.668815	-2.550617	0	0
10.30571	0.06522314	0.1584587	0.4700135	-0.3272203	-5.236576	3.657695	0	0
10.32228	0.07467666	0.1518713	0.5706813	-0.3976639	3.04869	-2.133359	0	0
10.33884	0.07904548	0.1488019	0.2637025	-0.1852712	-9.265174	6.410393	0	0
10.35541	0.08497906	0.1446401	0.3581719	-0.2512215	2.851177	-1.990441	0	0
10.37198	0.09239408	0.1394016	0.4475461	-0.3161785	2.697318	-1.960405	0	0
10.38854	0.09711459	0.1360703	0.2849633	-0.2010965	-4.9069	3.47328	0	0
10.40534	0.1018568	0.1326824	0.2823403	-0.2017126	-0.07862258	-0.01846664	0	0
10.42168	0.1046947	0.130623	0.1737078	-0.1260507	-3.27863	2.283546	0	0
10.43824	0.1071668	0.1287452	0.1492219	-0.1133516	-0.744172	0.3859475	0	0
10.45481	0.1077391	0.1281617	0.03454527	-0.03522393	-3.461145	2.358034	0	0
10.47138	0.1076871	0.1281252	-0.003140561	-0.002201946	-1.137426	0.996663	0	0
10.48794	0.107583	0.1280522	-0.006280673	-0.004402992	-0.09477422	-0.06643153	0	0
10.52108	0.1034192	0.1251335	-0.1256681	-0.08809014	-2.402172	-1.683853	0	0
10.53793	0.0926289	0.1175735	-0.6400288	-0.448425	-10.28875	-7.20777	0	0
10.55421	0.08048366	0.1090683	-0.7462766	-0.5226084	-3.206657	-2.238923	0	0
10.5897	0.06024281	0.09489574	-0.5703557	-0.3993613	3.398613	2.381009	0	0
10.62283	0.03958457	0.08042061	-0.6235026	-0.4368854	-0.7745026	-0.5468346	0	0
10.6394	0.03269887	0.07559095	-0.415646	-0.2915361	4.182322	2.924603	0	0
10.65601	0.02644121	0.07119889	-0.3765859	-0.2643139	1.17711	0.8203622	0	0
10.67253	0.02073387	0.06715334	-0.3455696	-0.2449511	0.9361283	0.5844061	0	0
10.68909	0.01494626	0.06304829	-0.3493612	-0.2477958	-0.114614	-0.08599043	0	0
10.70605	0.006947257	0.05738309	-0.4717943	-0.3341428	-3.652461	-2.575931	0	0
10.72223	0.00347367	0.05493679	-0.2146961	-0.1512017	7.759462	5.521333	0	0
10.73879	-0.001026315	0.05172833	-0.2716353	-0.1936739	-1.738849	-1.297044	0	0
10.75558	-0.005236794	0.04875861	-0.2508099	-0.1769003	0.624379	0.5028973	0	0
10.77193	-0.01268353	0.04353748	-0.45557	-0.3194139	-6.179848	-4.301191	0	0
10.7885	-0.01552507	0.04152887	-0.1714958	-0.1212262	8.630507	6.021176	0	0
10.80512	-0.01555138	0.04154747	-0.001582964	0.001119337	5.119434	3.686241	0	0
10.82163	-0.01555138	0.04154747	0	0	0.04777806	-0.03378459	0	0
10.83819	-0.01555138	0.04158468	0	0.002246021	0	0.0679023	0	0
10.85476	-0.01555138	0.04158468	0	0	0	-0.06778698	0	0
10.87133	-0.01555138	0.04158468	0	0	0	0	0	0
10.88789	-0.01555138	0.04158468	0	0	0	0	0	0
10.90446	-0.01555138	0.04158468	0	0	0	0	0	0
10.92103	-0.01555138	0.04158468	0	0	0	0	0	0
10.93759	-0.01555138	0.04158468	0	0	0	0	0	0
10.95416	-0.01555138	0.04158468	0	0	0	0	0	0
10.97073	-0.01557769	0.04156607	-0.001588102	-0.00112301	-0.04793176	-0.03389447	0	0
10.98729	-0.01557769	0.04156607	0	0	0.04793176	0.03389447	0	0
11.00386	-0.01557769	0.04156607	0	0	0	0	0	0
11.02077	-0.01555138	0.04154747	0.001556033	-0.001100334	0.04648488	-0.03287132	0	0
11.03699	-0.01555138	0.04154747	0	0	-0.04696253	0.03320909	0	0
11.05356	-0.01555138	0.04154747	0	0	0	0	0	0
11.07013	-0.01557769	0.04152887	-0.001588102	-0.00112301	-0.04793176	-0.03389447	0	0
11.08669	-0.01563031	0.04149166	-0.003176133	-0.002245666	-0.04792826	-0.0338828	0	0
11.10326	-0.01570923	0.04139864	-0.004764361	-0.005615052	-0.04793421	-0.1016912	0	0
11.11984	-0.0171299	0.0403939	-0.08569257	-0.0606044	-2.441645	-1.659057	0	0
11.13639	-0.01818221	0.03964948	-0.06356472	-0.04496722	0.6678391	0.4719447	0	0
11.16953	-0.01847158	0.03944473	-0.008733912	-0.006179593	1.103516	0.7806333	0	0
11.18638	-0.01847158	0.03944473	0	0	0.1747109	0.123615	0	0
11.20266	-0.01849789	0.03942612	-0.001616312	-0.001143538	-0.0487818	-0.03451305	0	0
11.21941	-0.0185242	0.0394075	-0.001570663	-0.001111464	0.001382308	0.0009712465	0	0
11.23579	-0.0185242	0.0394075	0	0	0.04740543	0.03354598	0	0
11.25243	-0.0185505	0.03938889	-0.001581218	-0.001118854	-0.04788389	-0.03388216	0	0
11.26892	-0.01857681	0.03937028	-0.001594726	-0.001128266	-0.0004076846	-0.0002840683	0	0
11.28549	-0.01860312	0.03935166	-0.001587933	-0.001123685	0.0002054752	0.0001385738	0	0
11.30206	-0.01862942	0.03929582	-0.001588046	-0.00337083	-3.39416E-06	-0.06782288	0	0
11.31862	-0.01870834	0.03923998	-0.004763799	-0.00337083	-0.09584995	0	0	0
11.33519	-0.01886618	0.03905382	-0.009527823	-0.01123685	-0.1437868	-0.2374106	0	0
11.352	-0.01915555	0.03877458	-0.01721456	-0.01661209	-0.2303091	-0.1610523	0	0
11.36833	-0.01986581	0.03812293	-0.04350475	-0.03991499	-0.7934167	-0.7032626	0	0
11.40146	-0.01460422	0.03331582	0.1588086	-0.1450915	4.090646	-2.126602	0	0
11.41805	-0.00923658	0.02951039	0.3235633	-0.2293926	3.3136	-1.695491	0	0
11.43459	-0.005842039	0.02710195	0.2051784	-0.1455747	-3.572968	2.529704	0	0
11.45116	0.001526315	0.02186877	0.4447547	-0.3158755	7.235427	-5.14324	0	0
11.46772	0.005342055	0.01915569	0.2303318	-0.1637708	-6.471483	4.590659	0	0
11.48459	0.007868258	0.0173583	0.1497494	-0.1065465	-2.410062	1.711468	0	0
11.5011	0.0119468	0.01445431	0.2470202	-0.1758826	2.914002	-2.077142	0	0
11.51762	0.01365705	0.01323579	0.1035764	-0.07379669	-4.34377	3.091368	0	0
11.53399	0.01444636	0.01267325	0.04820666	-0.03435653	-1.683711	1.199316	0	0
11.55064	0.01444636	0.01267325	0	0	-1.459754	1.040355	0	0
11.56715	0.01444636	0.01267325	0	0	0	0	0	0
11.58369	0.01444636	0.01267325	0	0	0	0	0	0
11.60026	0.01444636	0.01267325	0	0	0	0	0	0
11.61682	0.01447267	0.012692	0.001588066	0.00113194	0.04792932	0.034163	0	0
11.63339	0.01447267	0.012692	0	0	-0.04792932	-0.034163	0	0
11.64996	0.01447267	0.012692	0	0	0	0	0	0
11.66672	0.01447267	0.012692	0	0	0	0	0	0
11.68309	0.01447267	0.012692	0	0	0	0	0	0
11.69966	0.01447267	0.012692	0	0	0	0	0	0
11.71626	0.01447267	0.012692	0	0	0	0	0	0
11.73279	0.01447267	0.012692	0	0	0	0	0	0
11.74936	0.01447267	0.012692	0	0	0	0	0	0
11.76592	0.01447267	0.012692	0	0	0	0	0	0
11.78249	0.01447267	0.012692	0	0	0	0	0	0
11.79932	0.01447267	0.012692	0	0	0	0	0	0
11.81562	0.01447267	0.012692	0	0	0	0	0	0
11.83234	0.01447267	0.012692	0	0	0	0	0	0
11.84876	0.01447267	0.012692	0	0	0	0	0	0
11.86536	0.01447267	0.012692	0	0	0	0	0	0
11.88189	0.01447267	0.012692	0	0	0	0	0	0
11.89846	0.01447267	0.012692	0	0	0	0	0	0
11.91502	0.01447267	0.012692	0	0	0	0	0	0
11.93159	0.01447267	0.012692	0	0	0	0	0	0
11.96472	0.01447267	0.012692	0	0	0	0	0	0
11.98145	0.01447267	0.012692	0	0	0	0	0	0
11.99786	0.01447267	0.012692	0	0	0	0	0	0
12.01442	0.01447267	0.012692	0	0	0	0	0	0
12.03099	0.01447267	0.012692	0	0	0	0	0	0
12.04756	0.01447267	0.012692	0	0	0	0	0	0
12.06412	0.01447267	0.012692	0	0	0	0	0	0
12.08069	0.01447267	0.012692	0	0	0	0	0	0
12.09726	0.01447267	0.012692	0	0	0	0	0	0
12.11382	0.01447267	0.012692	0	0	0	0	0	0
12.16352	0.01447267	0.012692	0	0	0	0	0	0
12.18009	0.01444636	0.01271075	-0.001588066	0.00113194	-0.023965	0.01708175	0	0
12.19666	0.01444636	0.01271075	0	0	0.04792932	-0.034163	0	0
12.21322	0.01444636	0.01271075	0	0	0	0	0	0
12.22979	0.01444636	0.01271075	0	0	0	0	0	0
12.24636	0.01444636	0.01271075	0	0	0	0	0	0
12.26292	0.01444636	0.01271075	0	0	0	0	0	0
12.29616	0.01444636	0.01271075	0	0	0	0	0	0
12.31272	0.01444636	0.01271075	0	0	0	0	0	0
12.32929	0.01439374	0.01278576	-0.003176189	0.004527592	-0.09586034	0.1366469	0	0
12.34586	0.01436743	0.01284202	-0.001588214	0.003395847	0.04792657	-0.0341571	0	0
12.36242	0.01434112	0.01286077	-0.001587975	0.001131763	7.213054E-06	-0.06833021	0	0
12.37899	0.01423588	0.01308579	-0.006353531	0.01358433	-0.1438331	0.375841	0	0
12.39556	0.01392015	0.01349828	-0.0190573	0.0248979	-0.3834337	0.3414737	0	0
12.41224	0.01144687	0.01608459	-0.1481959	0.1549686	-3.883104	3.911132	0	0
12.42876	0.0081314	0.01967976	-0.2008041	0.2177443	-1.584571	1.890819	0	0
12.44527	0.002447363	0.02753148	-0.3442384	0.4755181	-4.343485	7.805917	0	0
12.46182	-0.001789472	0.03542203	-0.2559569	0.4766864	2.669952	0.03533212	0	0
12.47839	-0.005052588	0.0476258	-0.1969735	0.7366635	1.780944	7.849741	0	0
12.49495	-0.006684111	0.05641958	-0.0984789	0.5307933	2.972657	-6.213354	0	0
12.51152	-0.006920942	0.06265976	-0.01429598	0.3766796	2.540719	-4.651296	0	0
12.52809	-0.006947257	0.07457639	-0.001588439	0.7193306	0.3835364	10.34182	0	0
12.54465	-0.007078829	0.08255719	-0.007942195	0.4817503	-0.1917678	-7.1706	0	0
12.56122	-0.006894628	0.09291212	0.01111843	0.6250247	0.5752674	4.324155	0	0
12.57786	-0.006131502	0.1014465	0.04585906	0.5128656	1.046156	-3.377484	0	0
12.59437	-0.00536837	0.1130027	0.04621709	0.6998658	0.01079924	5.640593	0	0
12.61092	-0.005315739	0.1157457	0.003180808	0.1657781	-1.301835	-16.156	0	0
12.62749	-0.003447355	0.1260276	0.1127759	0.6206152	3.309682	13.73571	0	0
12.64405	-0.00210526	0.1336298	0.08101366	0.4588961	-0.958614	-4.880834	0	0
12.66062	-0.002868413	0.139438	-0.04606667	0.350605	-3.835513	-3.268421	0	0
12.67743	-0.005710464	0.1472938	-0.1690745	0.4673458	-3.685545	3.497776	0	0
12.69394	-0.006420964	0.1568988	-0.04302952	0.5816978	3.782705	3.43179	0	0
12.71045	-0.006078872	0.1616682	0.02071789	0.2888459	1.930345	-8.867895	0	0
12.72696	-0.006184132	0.171051	-0.006374758	0.5682486	-0.8203967	8.460636	0	0
12.74348	-0.005815724	0.1791187	0.02231164	0.4885958	0.8686574	-2.41198	0	0
12.76002	-0.004315763	0.190047	0.09066831	0.6605861	2.067949	5.203109	0	0
12.77659	-0.003657878	0.1963074	0.03971227	0.3778991	-1.539008	-8.537902	0	0
12.87598	0.02054974	0.2332643	0.2435431	0.3718089	1.757709	-0.05251748	0	0
12.89258	0.02218057	0.239475	0.09826195	0.3742063	-1.252484	0.02066813	0	0
12.90912	0.02391649	0.2441395	0.1049737	0.2820709	0.2025671	-2.780732	0	0
12.9261	0.02825564	0.2483179	0.2554557	0.2459935	4.488972	-1.07621	0	0
12.94225	0.03028022	0.2497701	0.1253795	0.08993511	-3.925821	-4.709988	0	0
12.95882	0.0303328	0.2497701	0.003174067	0	-3.735583	-2.749141	0	0
12.97564	0.03030651	0.2497522	-0.001563009	-0.001066589	-0.1418831	-0.03194606	0	0
12.99195	0.03030651	0.2496805	0	-0.004395902	0.04717443	-0.1004846	0	0
13.00866	0.03030651	0.2496446	0	-0.002145395	0	0.06814993	0	0
13.02517	0.03025392	0.2496088	-0.003184516	-0.002171292	-0.09585233	-0.0007794952	0	0
13.04165	0.03020134	0.2495729	-0.00319108	-0.002176594	-0.0001989514	-0.0001607279	0	0
13.05822	0.03017505	0.249555	-0.001587125	-0.001082146	0.04854018	0.03312108	0	0
13.07479	0.03014876	0.2495371	-0.001586759	-0.001081897	1.102863E-05	7.518722E-06	0	0
13.09135	0.03014876	0.2495012	0	-0.002164416	0.04788987	-0.03267145	0	0
13.10792	0.03006988	0.2494474	-0.004759955	-0.003246216	-0.1436516	-0.03264784	0	0
13.12475	0.0300173	0.2494116	-0.003124601	-0.00213044	0.0489633	0.03340688	0	0
13.17429	0.02983325	0.2492861	-0.003715348	-0.002533426	-0.008901448	-0.006072239	0	0
13.19079	0.0296755	0.2490709	-0.009559522	-0.01303709	-0.08849568	-0.1590522	0	0
13.20732	0.02951774	0.2486048	-0.009544742	-0.02820362	0.0004474678	-0.4591673	0	0
13.22388	0.02951774	0.2483538	0	-0.01515187	0.2884095	0.3943792	0	0
13.2573	0.03017505	0.2478696	0.0196706	-0.01448787	0.3935532	0.01328468	0	0
13.27387	0.03138443	0.2470448	0.07299822	-0.04978647	1.066914	-0.7062118	0	0
13.29086	0.03156846	0.2468834	0.01082877	-0.009496879	-1.852392	1.200463	0	0
13.307	0.03156846	0.2468834	0	0	-0.3268224	0.2866246	0	0
13.32357	0.03159475	0.2468655	0.00158683	-0.001082021	0.04851761	-0.03308301	0	0
13.34039	0.03156846	0.2468476	-0.001562279	-0.001066166	-0.09429933	0.0004747833	0	0
13.3567	0.03154217	0.2468296	-0.001612353	-0.001099425	-0.001511347	-0.001003825	0	0
13.37327	0.03151588	0.2468117	-0.001586464	-0.001082671	0.0007874709	0.0005096089	0	0
13.38983	0.03148959	0.2467938	-0.001587195	-0.001082271	-2.205375E-05	1.210022E-05	0	0
13.40644	0.03148959	0.2467938	0	0	0.04784931	0.0326273	0	0
13.42297	0.03148959	0.2467938	0	0	0	0	0	0
13.43953	0.03148959	0.2467938	0	0	0	0	0	0
13.45648	0.03148959	0.2467938	0	0	0	0	0	0
13.47267	0.03148959	0.2467938	0	0	0	0	0	0
13.48924	0.0314633	0.2467758	-0.001586464	-0.001081772	-0.04842878	-0.03302243	0	0
13.5058	0.0314633	0.2467758	0	0	0.04788097	0.03264889	0	0
13.52237	0.0314633	0.2467758	0	0	0	0	0	0
13.53893	0.0314633	0.2467758	0	0	0	0	0	0
13.5555	0.0314633	0.2467758	0	0	0	0	0	0
13.57207	0.0314633	0.2467758	0	0	0	0	0	0
13.58863	0.0314633	0.2467758	0	0	0	0	0	0
13.6052	0.0314633	0.2467758	0	0	0	0	0	0
13.62176	0.0314633	0.2467758	0	0	0	0	0	0
13.63833	0.0314633	0.2467758	0	0	0	0	0	0
13.6549	0.0314633	0.2467758	0	0	0	0	0	0
13.67146	0.0314633	0.2467758	0	0	0	0	0	0
13.68803	0.03143701	0.2467579	-0.001586921	-0.001082983	-0.04789613	-0.03268638	0	0
13.7046	0.03143701	0.2467579	0	0	0.04789613	0.03268638	0	0
13.72116	0.03141072	0.24674	-0.001587146	-0.001082084	-0.04790292	-0.03265923	0	0
13.73773	0.03141072	0.24674	0	0	0.04790292	0.03265923	0	0
13.75429	0.03138443	0.246722	-0.001586921	-0.001082983	-0.04789613	-0.03268638	0	0
13.77086	0.03138443	0.246722	0	0	0.04789613	0.03268638	0	0
13.78743	0.03138443	0.246722	0	0	0	0	0	0
13.804	0.03138443	0.246722	0	0	0	0	0	0
13.82056	0.03138443	0.246722	0	0	0	0	0	0
13.83713	0.03138443	0.246722	0	0	0	0	0	0
13.85369	0.03138443	0.246722	0	0	0	0	0	0
13.87026	0.03138443	0.246722	0	0	0	0	0	0
13.88683	0.03138443	0.246722	0	0	0	0	0	0
13.90339	0.03138443	0.246722	0	0	0	0	0	0
13.91996	0.03138443	0.246722	0	0	0	0	0	0
13.93653	0.03138443	0.246722	0	0	0	0	0	0
13.98623	0.03138443	0.246722	0	0	0	0	0	0
14.00279	0.03138443	0.246722	0	0	0	0	0	0
14.01937	0.03138443	0.246722	0	0	0	0	0	0
14.03593	0.03138443	0.246722	0	0	0	0	0	0
14.05249	0.03138443	0.246722	0	0	0	0	0	0
14.06906	0.03138443	0.246722	0	0	0	0	0	0
14.08563	0.03138443	0.246722	0	0	0	0	0	0
14.10219	0.03138443	0.246722	0	0	0	0	0	0
14.11876	0.03138443	0.246722	0	0	0	0	0	0
14.13532	0.03138443	0.246722	0	0	0	0	0	0
14.15196	0.03138443	0.246722	0	0	0	0	0	0
14.18523	0.03138443	0.246722	0	0	0	0	0	0
14.2018	0.03138443	0.246722	0	0	0	0	0	0
14.21851	0.03138443	0.246722	0	0	0	0	0	0
14.23493	0.03138443	0.246722	0	0	0	0	0	0
14.25153	0.03138443	0.246722	0	0	0	0	0	0
14.26806	0.03138443	0.246722	0	0	0	0	0	0
14.28463	0.03138443	0.246722	0	0	0	0	0	0
14.3012	0.03135814	0.24674	-0.001586921	0.001082983	-0.04789475	0.03268544	0	0
14.31776	0.03133185	0.2468296	-0.001586921	0.005412217	0	0.1306641	0	0
14.33459	0.03127927	0.2469731	-0.003125089	0.00852635	-0.04606533	0.09326265	0	0
14.3509	0.03138443	0.2472959	0.006447528	0.01979027	0.2889021	0.3399456	0	0
14.36761	0.03214682	0.2481027	0.04560567	0.04826733	1.185651	0.862244	0	0
14.38412	0.03656265	0.251258	0.2674794	0.191124	6.677711	4.299541	0	0
14.4006	0.04848828	0.2600024	0.7239163	0.5308086	13.83862	10.29883	0	0
14.41716	0.06008548	0.2683829	0.7000087	0.5058481	-0.7235738	-0.7554389	0	0
14.43373	0.07739771	0.2803545	1.045028	0.7226466	10.41301	6.54318	0	0
14.4503	0.09007142	0.2890282	0.7649864	0.5235437	-8.451925	-6.009111	0	0
14.46686	0.09771413	0.2942306	0.4613418	0.3140345	-9.164275	-6.32318	0	0
14.48343	0.1091435	0.3019336	0.6899169	0.4649847	6.898807	4.555949	0	0
14.5	0.1129644	0.3044531	0.2306435	0.1520872	-13.8617	-9.44381	0	0
14.51656	0.1141334	0.3050428	0.07056571	0.03559453	-4.831435	-3.515957	0	0
14.53313	0.1141594	0.3049535	0.001567807	-0.005393328	-2.082481	-1.237087	0	0
14.5497	0.1141334	0.3049356	-0.001567807	-0.001079385	-0.09463846	0.1302025	0	0
14.56626	0.1141334	0.3049356	0	0	0.04731923	0.03257778	0	0
14.58283	0.1141074	0.3049177	-0.001568257	-0.001077586	-0.04733281	-0.03252349	0	0
14.59939	0.1140295	0.3048641	-0.004703871	-0.003236357	-0.09463845	-0.06515557	0	0
14.61596	0.1139256	0.3047926	-0.006271678	-0.004313943	-0.04731923	-0.03252349	0	0
14.63253	0.1138736	0.3047212	-0.003136064	-0.004313943	0.09463846	0	0	0
14.64909	0.1137957	0.3045961	-0.004703871	-0.007550299	-0.04731923	-0.09767905	0	0
14.66566	0.1139516	0.3038456	0.009407741	-0.0453018	0.4259138	-1.139408	0	0
14.68223	0.1144191	0.3023089	0.02822232	-0.09276237	0.5678579	-1.432445	0	0
14.69884	0.1124707	0.2999321	-0.1172745	-0.1430583	-4.385045	-1.51584	0	0
14.71536	0.1066985	0.2881699	-0.349417	-0.7120172	-7.006278	-17.17171	0	0
14.73193	0.1043303	0.2797463	-0.1429515	-0.5084804	6.240302	6.151785	0	0
14.74849	0.1009712	0.2539824	-0.2027666	-1.555203	-1.805325	-31.59198	0	0
14.76506	0.09977287	0.2425071	-0.07233815	-0.6926864	3.936564	26.03231	0	0
14.78162	0.09701031	0.2194106	-0.1667578	-1.394188	-2.849756	-21.17257	0	0
14.88103	0.07917624	0.1356515	-0.1794163	-0.8426426	-0.1091562	4.756063	0	0
14.89759	0.0755402	0.1273592	-0.2194718	-0.5005253	-0.3454019	2.950107	0	0
14.91416	0.0725828	0.1188343	-0.1785298	-0.5146238	1.235703	-0.4255188	0	0
14.93072	0.07145707	0.105204	-0.06795269	-0.8227721	3.337512	-9.300738	0	0
14.94729	0.07166652	0.1015749	0.0126432	-0.2190662	2.432529	18.22093	0	0
14.96386	0.07224248	0.0813601	0.034767	-1.220238	0.667736	-30.21717	0	0
14.98042	0.07253044	0.06421366	0.01738215	-1.035021	-0.524706	5.590186	0	0
14.99699	0.07279221	0.05135724	0.01580039	-0.7760148	-0.04773893	7.81705	0	0
15.01356	0.07305397	0.03931443	0.01579721	-0.7267797	-9.589407E-05	1.48579	0	0
15.03012	0.0731325	0.03150687	0.004741119	-0.471374	-0.3336832	7.70838	0	0
15.04669	0.07321102	0.01383573	0.00473985	-1.066694	-3.828775E-05	-17.96936	0	0
15.06326	0.07308014	0.01044093	-0.0079002	-0.2049223	-0.3814994	26.0098	0	0
15.07982	0.07263515	-0.004171009	-0.0268614	-0.8820292	-0.572283	-20.43631	0	0
15.09639	0.07239955	-0.01151063	-0.01422098	-0.4430203	0.3814996	13.2497	0	0
15.11296	0.0656948	-0.03566747	-0.4047227	-1.458194	-11.7857	-30.63888	0	0
15.19543	0.05880056	-0.04060168	-0.083598	-0.05983115	3.242529	14.11984	0	0
15.21199	0.05672854	-0.04210832	-0.1250672	-0.09094106	-0.418728	-0.3141267	0	0
15.22871	0.05323911	-0.04468473	-0.2087001	-0.1540928	-2.512474	-1.897186	0	0
15.24522	0.05071962	-0.04651819	-0.1525863	-0.1110389	1.68856	1.295566	0	0
15.26174	0.05071962	-0.04651819	0	0	4.62049	3.362386	0	0
15.27826	0.05071962	-0.04651819	0	0	0	0	0	0
15.31139	0.05071962	-0.04651819	0	0	0	0	0	0
15.32796	0.05071962	-0.04651819	0	0	0	0	0	0
15.34453	0.05071962	-0.04651819	0	0	0	0	0	0
15.36131	0.05071962	-0.04651819	0	0	0	0	0	0
15.37766	0.05071962	-0.04651819	0	0	0	0	0	0
15.39433	0.05071962	-0.04651819	0	0	0	0	0	0
15.41084	0.05071962	-0.04651819	0	0	0	0	0	0
15.42736	0.05071962	-0.04651819	0	0	0	0	0	0
15.44392	0.05071962	-0.04651819	0	0	0	0	0	0
15.46049	0.05071962	-0.04651819	0	0	0	0	0	0
15.47706	0.05071962	-0.04651819	0	0	0	0	0	0
15.4939	0.05071962	-0.04651819	0	0	0	0	0	0
15.51041	0.05071962	-0.04651819	0	0	0	0	0	0
15.52676	0.05069337	-0.04649909	-0.00160552	0.00116848	-0.0488583	0.03555852	0	0
15.54343	0.05069337	-0.04649909	0	0	0.04861842	-0.03538394	0	0
15.55995	0.05069337	-0.04649909	0	0	0	0	0	0
15.57646	0.05069337	-0.04649909	0	0	0	0	0	0
15.67603	0.05064088	-0.04646088	-0.0005272487	0.0003837257	-0.004542104	0.003305692	0	0
15.69242	0.05064088	-0.04646088	0	0	0.004546586	-0.003308955	0	0
15.70905	0.05064088	-0.04646088	0	0	0	0	0	0
15.72556	0.05064088	-0.04646088	0	0	0	0	0	0
15.74212	0.05064088	-0.04646088	0	0	0	0	0	0
15.75869	0.05064088	-0.04646088	0	0	0	0	0	0
15.77526	0.05061463	-0.04644177	-0.001584447	0.001153368	-0.04781734	0.03480772	0	0
15.79183	0.05061463	-0.04644177	0	0	0.04782147	-0.03481072	0	0
15.80862	0.05061463	-0.04644177	0	0	0	0	0	0
15.82496	0.05061463	-0.04644177	0	0	0	0	0	0
15.84152	0.05061463	-0.04644177	0	0	0	0	0	0
15.85809	0.05058838	-0.04642267	-0.001584447	0.001153143	-0.04782147	0.03480393	0	0
15.87467	0.05058838	-0.04642267	0	0	0.04780771	-0.03479392	0	0
15.89122	0.05043089	-0.04630805	-0.009511838	0.006922446	-0.2870761	0.2089258	0	0
15.90779	0.0498009	-0.04577321	-0.03802854	0.03228486	-0.8609083	0.7656816	0	0
15.92436	0.04880332	-0.04428381	-0.0602171	0.08990581	-0.6696907	1.739104	0	0
15.94092	0.04701795	-0.04100211	-0.1077712	0.1980953	-1.435269	3.265353	0	0
15.95749	0.04397164	-0.03814309	-0.1838865	0.1725804	-2.297297	-0.7700847	0	0
15.97405	0.03322461	-0.02979116	-0.6487291	0.5041525	-14.02979	10.00744	0	0
15.99075	0.02331157	-0.0214239	-0.5938743	0.5012689	1.64935	-0.0867032	0	0
16.00726	0.01170999	-0.006810618	-0.7025778	0.8849632	-3.273704	11.55531	0	0
16.02377	0.007499859	0.007869152	-0.2550048	0.8891437	13.55342	0.1265956	0	0
16.04032	0.006657796	0.01915569	-0.05087386	0.6818851	6.17419	-6.268791	0	0
16.05689	0.006236761	0.04842437	-0.02541373	1.766661	0.7687424	32.75368	0	0
16.07346	0.006289391	0.05958718	0.003176723	0.6737881	0.8628616	-32.98297	0	0
16.09002	0.005815724	0.07957306	-0.02859059	1.20635	-0.9587395	16.07276	0	0
16.10659	0.005631519	0.09357343	-0.0111186	0.8450641	0.5273057	-10.90364	0	0
16.12334	0.005736779	0.1025649	0.006284022	0.5367958	0.5223258	-9.252426	0	0
16.13972	0.005631519	0.1266661	-0.006425228	1.471175	-0.383588	28.20126	0	0
16.17288	0.005710464	0.1443492	0.002381056	0.5333399	0.1777695	-18.93177	0	0
16.18942	0.005605204	0.1619944	-0.006361559	1.066421	-0.1759018	10.72562	0	0
16.2064	0.006078872	0.1722817	0.02790005	0.6059431	1.022016	-13.73595	0	0
16.22256	0.006473594	0.1783413	0.02443303	0.375083	-0.1046411	-6.967774	0	0
16.23942	0.007157772	0.1879891	0.04056849	0.572069	0.4886568	5.965655	0	0
16.25569	0.008394539	0.1929163	0.07602558	0.3028784	1.070159	-8.124658	0	0
16.27245	0.009262893	0.1951712	0.05181149	0.1345427	-0.7331459	-5.096812	0	0
16.28882	0.01097324	0.1978221	0.1044515	0.1618903	1.588679	0.825352	0	0
16.30539	0.01486733	0.2005261	0.2350472	0.1632161	3.964435	0.0402481	0	0
16.32198	0.0177876	0.2024904	0.1760046	0.11839	-1.780578	-1.351842	0	0
16.33853	0.02054974	0.2043822	0.166973	0.114359	-0.2725727	-0.1216561	0	0
16.35509	0.020918	0.2045263	0.02223088	0.008699446	-4.37185	-3.191385	0	0
16.37166	0.020918	0.2045263	0	0	-0.6708907	-0.2625347	0	0
16.38823	0.0209443	0.2045083	0.001588095	-0.001087668	0.0479288	-0.0328259	0	0
16.40479	0.02097061	0.2044903	0.001587912	-0.001087543	-5.520538E-06	3.781094E-06	0	0
16.42136	0.02097061	0.2044903	0	0	-0.04792604	0.03282401	0	0
16.43807	0.02099691	0.2044723	0.001574317	-0.001078232	0.04731144	-0.03240308	0	0
16.45458	0.02099691	0.2044723	0	0	-0.04739022	0.03245703	0	0
16.47109	0.02099691	0.2044723	0	0	0	0	0	0
16.48763	0.02099691	0.2044723	0	0	0	0	0	0
16.52076	0.02102322	0.2044543	0.0007938646	-0.0005432593	0.0159824	-0.01093711	0	0
16.55389	0.02107583	0.2043822	0.001587821	-0.002174961	0.01198116	-0.02462314	0	0
16.57046	0.02104952	0.2043642	-0.001587729	-0.001087418	-0.06389464	0.02188225	0	0
16.58703	0.02104952	0.2043642	0	0	0.04791776	0.03281834	0	0
16.60359	0.02107583	0.2043462	0.001587912	-0.001087543	0.04792604	-0.03282401	0	0
16.62016	0.02107583	0.2043462	0	0	-0.04792604	0.03282401	0	0
16.63721	0.02104952	0.2043282	-0.001542964	-0.001056759	-0.04590091	-0.03143702	0	0
16.65329	0.02104952	0.2043282	0	0	0.04656676	0.03189305	0	0
16.66986	0.02104952	0.2043282	0	0	0	0	0	0
16.68643	0.02104952	0.2043282	0	0	0	0	0	0
16.70325	0.02104952	0.2043282	0	0	0	0	0	0
16.71956	0.02104952	0.2042921	0	-0.002209688	0	-0.06669237	0	0
16.73628	0.02107583	0.2042741	0.001573419	-0.001077617	0.04764494	0.03428043	0	0
16.7527	0.02110213	0.2042201	0.001602302	-0.003292197	0.000871708	-0.06683616	0	0
16.76926	0.02110213	0.204184	0	-0.002174836	-0.04857849	0.03387607	0	0
16.78583	0.02110213	0.204184	0	0	0	0.06563668	0	0
16.8024	0.02110213	0.204184	0	0	0	0	0	0
16.81897	0.02110213	0.204184	0	0	0	0	0	0
16.83553	0.02110213	0.204148	0	-0.002175337	0	-0.06565558	0	0
16.85236	0.02110213	0.204112	0	-0.002140338	0	0.001047936	0	0
16.88523	0.02110213	0.2040039	0	-0.003288949	0	-0.02311097	0	0
16.9018	0.02112843	0.2039859	0.001587729	-0.001087418	0.03211897	0.04453587	0	0
16.91841	0.02115474	0.2039679	0.001583354	-0.001084422	-0.0001318522	9.030369E-05	0	0
16.93493	0.02112843	0.2039498	-0.001592312	-0.001090557	-0.09584732	-0.0001851715	0	0
16.9515	0.02115474	0.2039318	0.001587729	-0.001087418	0.09611215	9.48689E-05	0	0
16.96806	0.02115474	0.2039318	0	0	-0.04791776	0.03281834	0	0
16.98496	0.02115474	0.2039318	0	0	0	0	0	0
17.0012	0.02115474	0.2038958	0	-0.002218511	0	-0.06695481	0	0
17.03445	0.02115474	0.2038958	0	0	0	0.04482749	0	0
17.05101	0.02115474	0.2038958	0	0	0	0	0	0
17.06758	0.02115474	0.2038958	0	0	0	0	0	0
17.08453	0.02115474	0.2038958	0	0	0	0	0	0
17.10071	0.02115474	0.2038958	0	0	0	0	0	0
17.11756	0.02115474	0.2038958	0	0	0	0	0	0
17.13385	0.02115474	0.2038958	0	0	0	0	0	0
17.15058	0.02115474	0.2038958	0	0	0	0	0	0
17.16709	0.02115474	0.2038598	0	-0.002182121	0	-0.06564871	0	0
17.1836	0.02120735	0.2037877	0.003185615	-0.004363739	0.09645855	-0.06605809	0	0
17.20012	0.02125995	0.2037517	0.003185728	-0.002181869	3.41904E-06	0.06606191	0	0
17.21668	0.02131256	0.2037156	0.003175458	-0.002174836	-0.0003104333	0.0002126166	0	0
17.23325	0.02131256	0.2037156	0	0	-0.09583552	0.06563668	0	0
17.25015	0.02131256	0.2037156	0	0	0	0	0	0
17.26666	0.02131256	0.2037156	0	0	0	0	0	0
17.28295	0.02131256	0.2037156	0	0	0	0	0	0
17.29952	0.02131256	0.2037156	0	0	0	0	0	0
17.31608	0.02131256	0.2037156	0	0	0	0	0	0
17.39892	0.02131256	0.2036796	0	-0.0004349872	0	-0.004376148	0	0
17.43205	0.02131256	0.2036796	0	0	0	0.003750963	0	0
17.44862	0.02133887	0.2036616	0.001587617	-0.001087418	0.03194291	-0.02187889	0	0
17.46519	0.02133887	0.2036616	0	0	-0.04791437	0.03281834	0	0
17.48175	0.02133887	0.2036616	0	0	0	0	0	0
17.49833	0.02133887	0.2036616	0	0	0	0	0	0
17.51488	0.02133887	0.2036616	0	0	0	0	0	0
17.53145	0.02133887	0.2036616	0	0	0	0	0	0
17.54802	0.02133887	0.2036616	0	0	0	0	0	0
17.56459	0.02133887	0.2036616	0	0	0	0	0	0
17.58115	0.02133887	0.2036616	0	0	0	0	0	0
17.59772	0.02133887	0.2036616	0	0	0	0	0	0
17.61441	0.02133887	0.2036616	0	0	0	0	0	0
17.63092	0.02133887	0.2036616	0	0	0	0	0	0
17.64742	0.02133887	0.2036616	0	0	0	0	0	0
17.66398	0.02133887	0.2036616	0	0	0	0	0	0
17.68055	0.02133887	0.2036616	0	0	0	0	0	0
17.69712	0.02133887	0.2036616	0	0	0	0	0	0
17.71369	0.02133887	0.2036616	0	0	0	0	0	0
17.73025	0.02133887	0.2036616	0	0	0	0	0	0
17.74682	0.02133887	0.2036616	0	0	0	0	0	0
17.76339	0.02133887	0.2036616	0	0	0	0	0	0
17.77995	0.02133887	0.2036616	0	0	0	0	0	0
17.79652	0.02133887	0.2036616	0	0	0	0	0	0
17.81309	0.02133887	0.2036616	0	0	0	0	0	0
17.82966	0.02133887	0.2036616	0	0	0	0	0	0
17.84622	0.02133887	0.2036616	0	0	0	0	0	0
17.86309	0.02133887	0.2036616	0	0	0	0	0	0
17.87935	0.02133887	0.2036616	0	0	0	0	0	0
17.89781	0.02133887	0.2036616	0	0	0	0	0	0
17.93113	0.02133887	0.2036616	0	0	0	0	0	0
17.94751	0.02133887	0.2036616	0	0	0	0	0	0
17.96408	0.02133887	0.2036616	0	0	0	0	0	0
17.98065	0.02133887	0.2036616	0	0	0	0	0	0
17.99722	0.02133887	0.2036616	0	0	0	0	0	0
18.01378	0.02133887	0.2036616	0	0	0	0	0	0
18.03035	0.02133887	0.2036616	0	0	0	0	0	0
18.04692	0.02133887	0.2036616	0	0	0	0	0	0
18.06373	0.02133887	0.2036616	0	0	0	0	0	0
18.08005	0.02133887	0.2036616	0	0	0	0	0	0
18.09675	0.02133887	0.2036616	0	0	0	0	0	0
18.11327	0.02133887	0.2036616	0	0	0	0	0	0
18.12978	0.02133887	0.2036616	0	0	0	0	0	0
18.14632	0.02133887	0.2036616	0	0	0	0	0	0
18.16288	0.02133887	0.2036616	0	0	0	0	0	0
18.22915	0.02133887	0.2036616	0	0	0	0	0	0
18.24586	0.02136517	0.2036436	0.001574137	-0.001078109	0.01897026	-0.01299252	0	0
18.26229	0.02136517	0.2036436	0	0	-0.04751029	0.03253926	0	0
18.27888	0.02136517	0.2036436	0	0	0	0	0	0
18.29542	0.02139147	0.2036256	0.001590476	-0.001089299	0.04799789	-0.03287322	0	0
18.31199	0.02136517	0.2036075	-0.001588095	-0.001088568	-0.09602342	2.20859E-05	0	0
18.32892	0.02139147	0.2035895	0.001553217	-0.001063781	0.09377397	0.0007399353	0	0
18.34512	0.02139147	0.2035895	0	0	-0.04687889	0.03210682	0	0
18.36169	0.02139147	0.2035895	0	0	0	0	0	0
18.37825	0.02139147	0.2035895	0	0	0	0	0	0
18.39497	0.02139147	0.2035895	0	0	0	0	0	0
18.41148	0.02139147	0.2035895	0	0	0	0	0	0
18.42799	0.02139147	0.2035895	0	0	0	0	0	0
18.44452	0.02141778	0.2035715	0.001591761	-0.001090179	0.04817532	-0.03299474	0	0
18.46109	0.02141778	0.2035715	0	0	-0.04810035	0.03294339	0	0
18.47765	0.02141778	0.2035715	0	0	0	0	0	0
18.49422	0.02141778	0.2035715	0	0	0	0	0	0
18.51079	0.02141778	0.2035715	0	0	0	0	0	0
18.52757	0.02141778	0.2035715	0	0	0	0	0	0
18.54392	0.02141778	0.2035715	0	0	0	0	0	0
18.57706	0.02144408	0.2035535	0.0007938084	-0.000543709	0.0160404	-0.01098667	0	0
18.59362	0.02144408	0.2035535	0	0	-0.01597268	0.01094029	0	0
18.61019	0.02147038	0.2035355	0.001587729	-0.001087418	0.04792328	-0.03282212	0	0
18.62676	0.02144408	0.2035175	-0.001587729	-0.001087418	-0.09583552	0	0	0
18.64365	0.02144408	0.2035175	0	0	0.0474561	0.03250215	0	0
18.66016	0.02147038	0.2034994	0.001593048	-0.001091061	0.04769392	-0.03266503	0	0
18.67667	0.02147038	0.2034994	0	0	-0.04823934	0.03303858	0	0
18.69318	0.02147038	0.2034994	0	0	0	0	0	0
18.70959	0.02147038	0.2034994	0	0	0	0	0	0
18.72616	0.02147038	0.2034994	0	0	0	0	0	0
18.74272	0.02149669	0.2034814	0.001587729	-0.001087418	0.04791776	-0.03281834	0	0
18.75929	0.02149669	0.2034814	0	0	-0.04791776	0.03281834	0	0
18.77586	0.02149669	0.2034814	0	0	0	0	0	0
18.80961	0.02149669	0.2034454	0	-0.001067569	0	-0.02121653	0	0
18.82618	0.02149669	0.2034454	0	0	0	0.02121573	0	0
18.85931	0.02152299	0.2034274	0.0007938541	-0.0005437403	0.01597238	-0.01094008	0	0
18.87588	0.0215756	0.2033913	0.003175346	-0.002175735	0.04791755	-0.03283706	0	0
18.89244	0.02168081	0.2033193	0.006350804	-0.004349672	0.09583551	-0.06560953	0	0
18.90901	0.02223318	0.2029409	0.03334469	-0.02284111	0.814724	-0.5581047	0	0
18.92558	0.02299595	0.2023823	0.04604066	-0.03371625	0.3831872	-0.3282315	0	0
18.94236	0.0246266	0.201265	0.09715144	-0.06656516	1.53247	-0.9849187	0	0
18.95871	0.024574	0.201265	-0.003217495	0	-3.029315	2.009056	0	0
18.99184	0.0244688	0.2011569	-0.003174952	-0.003263603	0.000859748	-0.06595489	0	0
19.00841	0.024311	0.2010488	-0.009524914	-0.006526307	-0.1277615	-0.06564573	0	0
19.02498	0.0241795	0.2009587	-0.007937409	-0.005439788	0.04791098	0.0327912	0	0
19.04155	0.0241006	0.2009046	-0.004762513	-0.003263153	0.09581855	0.06569096	0	0
19.05811	0.02194384	0.1994266	-0.1301818	-0.08921324	-3.78516	-2.593979	0	0
19.09125	0.02191754	0.1994085	-0.0007938084	-0.0005441587	2.603291	1.784026	0	0
19.10781	0.02189124	0.1994266	-0.001587617	0.001088317	-0.01597146	0.03284548	0	0
19.12449	0.02189124	0.1994266	0	0	0.04775219	-0.03273431	0	0
19.14101	0.02189124	0.1994266	0	0	0	0	0	0
19.15752	0.02189124	0.1994266	0	0	0	0	0	0
19.17408	0.02189124	0.1994266	0	0	0	0	0	0
19.19065	0.02189124	0.1994266	0	0	0	0	0	0
19.20722	0.02189124	0.1994266	0	0	0	0	0	0
19.22379	0.02189124	0.1994266	0	0	0	0	0	0
19.24035	0.02189124	0.1994266	0	0	0	0	0	0
19.25692	0.02189124	0.1994266	0	0	0	0	0	0
19.27349	0.02191754	0.1994085	0.001587617	-0.001088317	0.04791437	-0.03284548	0	0
19.29012	0.02191754	0.1994085	0	0	-0.04782352	0.03278321	0	0
19.30713	0.02191754	0.1994085	0	0	0	0	0	0
19.32319	0.02191754	0.1994085	0	0	0	0	0	0
19.33975	0.02191754	0.1994085	0	0	0	0	0	0
19.35632	0.02191754	0.1994085	0	0	0	0	0	0
19.37318	0.02191754	0.1994085	0	0	0	0	0	0
19.38946	0.02191754	0.1994085	0	0	0	0	0	0
19.40602	0.02191754	0.1994085	0	0	0	0	0	0
19.42271	0.02191754	0.1994085	0	0	0	0	0	0
19.43922	0.02191754	0.1994085	0	0	0	0	0	0
19.45573	0.02191754	0.1994085	0	0	0	0	0	0
19.47229	0.02191754	0.1994085	0	0	0	0	0	0
19.48885	0.02194384	0.1993905	0.001587617	-0.001087418	0.04793644	-0.03283346	0	0
19.50542	0.02197015	0.1993725	0.001587729	-0.001088317	3.393965E-06	-2.714469E-05	0	0
19.52229	0.02199645	0.1993184	0.001559606	-0.003206465	-0.0008411973	-0.06335688	0	0
19.53856	0.02207536	0.1992643	0.00485007	-0.003323747	0.09930637	-0.003539582	0	0
19.55531	0.02207536	0.1992283	0	-0.002152841	-0.1468827	0.03546049	0	0
19.57169	0.02210166	0.1992103	0.001605547	-0.001100608	0.04845828	0.03175827	0	0
19.58825	0.02212797	0.1991922	0.001587729	-0.001087418	-0.0005407485	0.0004003235	0	0
19.60484	0.02215427	0.1991742	0.001585973	-0.001087191	-5.296198E-05	6.847624E-06	0	0
19.62139	0.02218057	0.1991562	0.001589263	-0.001089446	9.92928E-05	-6.806551E-05	0	0
19.63796	0.02220687	0.1991381	0.001587434	-0.001088192	-5.523886E-05	3.786753E-05	0	0
19.65453	0.02220687	0.1991381	0	0	-0.04790334	0.03283792	0	0
19.67109	0.02220687	0.1991381	0	0	0	0	0	0
19.70524	0.02220687	0.1991381	0	0	0	0	0	0
19.72181	0.02220687	0.1991381	0	0	0	0	0	0
19.73844	0.02220687	0.1991381	0	0	0	0	0	0
19.75495	0.02220687	0.1991381	0	0	0	0	0	0
19.77151	0.02220687	0.1991381	0	0	0	0	0	0
19.78808	0.02218057	0.1991201	-0.001587617	-0.001088317	-0.04792541	-0.03285305	0	0
19.80465	0.02220687	0.1991021	0.0015878	-0.001087543	0.09583977	2.33656E-05	0	0
19.8215	0.02228578	0.199048	0.004683167	-0.003210253	0.09263451	-0.06352597	0	0
19.83778	0.02254881	0.1988317	0.0161477	-0.01328033	0.3459605	-0.3038807	0	0
19.85435	0.02657269	0.196073	0.2429379	-0.1665563	6.903355	-4.665627	0	0
19.87091	0.0303328	0.1934575	0.2269605	-0.157869	-0.4822548	0.2622144	0	0
19.88748	0.03884887	0.1874655	0.5140901	-0.3617201	8.666087	-6.152593	0	0
19.90405	0.04573125	0.1825164	0.4153737	-0.2986908	-2.979265	1.902229	0	0
19.92061	0.05528571	0.175683	0.5768412	-0.4125628	4.87338	-3.436862	0	0
19.93718	0.06268094	0.170508	0.4463768	-0.3123633	-3.937879	3.024375	0	0
19.95375	0.06765972	0.1669953	0.30052	-0.2120267	-4.401967	3.028164	0	0
19.97031	0.07865319	0.1568443	0.6635674	-0.6127146	10.95679	-12.09278	0	0
19.98712	0.07922854	0.1506728	0.03423544	-0.3672292	-18.85759	7.355836	0	0
20.00363	0.07679604	0.1361068	-0.1473691	-0.8824586	-5.45165	-15.46686	0	0
20.02001	0.07485985	0.1281981	-0.118161	-0.4826435	0.8879938	12.15531	0	0
20.03665	0.07017406	0.1090317	-0.2816997	-1.152246	-4.952714	-20.27867	0	0
20.13598	0.055653	0.04678991	-0.1461832	-0.6265866	1.168561	4.532767	0	0
20.15255	0.05512829	0.0403939	-0.03167116	-0.386064	0.9880075	2.075225	0	0
20.16924	0.0520057	0.03262591	-0.187059	-0.4653407	-4.671865	-2.383522	0	0
20.18568	0.04982714	0.02667237	-0.1325199	-0.3621501	1.646088	3.114478	0	0
20.20225	0.04641401	0.02252333	-0.2060171	-0.2504362	-2.226738	3.384586	0	0
20.21881	0.0440767	0.02089604	-0.1410806	-0.09822357	1.95979	4.593787	0	0
20.23579	0.0407406	0.01851922	-0.1965252	-0.1400154	-1.65296	-1.245931	0	0
20.2523	0.03677289	0.01569115	-0.2403217	-0.1712948	-1.307928	-0.9341207	0	0
20.26852	0.0346966	0.01421064	-0.1280374	-0.0912974	3.431012	2.444438	0	0
20.28508	0.0324097	0.01257948	-0.1380532	-0.09846842	-0.3055312	-0.2187516	0	0
20.30165	0.02917593	0.01027204	-0.1951908	-0.1392774	-1.724516	-1.231687	0	0
20.31835	0.02615193	0.008150828	-0.1810284	-0.1269841	0.4256608	0.369481	0	0
20.33478	0.02333787	0.006141029	-0.171277	-0.1223257	0.2942972	0.1405908	0	0
20.35137	0.02310115	0.005971926	-0.01427003	-0.01019417	4.755177	3.39606	0	0
20.36792	0.02310115	0.005971926	0	0	0.4306703	0.3076606	0	0
20.38448	0.02310115	0.005971926	0	0	0	0	0	0
20.40105	0.02310115	0.005971926	0	0	0	0	0	0
20.43443	0.02310115	0.005971926	0	0	0	0	0	0
20.45075	0.02310115	0.005971926	0	0	0	0	0	0
20.46745	0.02310115	0.005971926	0	0	0	0	0	0
20.48397	0.02310115	0.005971926	0	0	0	0	0	0
20.50048	0.02310115	0.005971926	0	0	0	0	0	0
20.51702	0.02312746	0.005953137	0.001590363	-0.001136094	0.04812191	-0.03437644	0	0
20.53358	0.02312746	0.005953137	0	0	-0.04803874	0.03431703	0	0
20.55015	0.02315376	0.005934347	0.001587504	-0.001134161	0.04791097	-0.03422903	0	0
20.56672	0.02315376	0.005934347	0	0	-0.04791097	0.03422903	0	0
20.58354	0.02315376	0.005934347	0	0	0	0	0	0
20.60005	0.02315376	0.005934347	0	0	0	0	0	0
20.61642	0.02315376	0.005934347	0	0	0	0	0	0
20.63299	0.02315376	0.005934347	0	0	0	0	0	0
20.64956	0.02318006	0.005953137	0.001587617	0.001134161	0.04791437	0.03422903	0	0
20.68359	0.02318006	0.005953137	0	0	-0.03137461	-0.02241337	0	0
20.70016	0.02318006	0.005953137	0	0	0	0	0	0
20.71673	0.02315376	0.005971926	-0.001587434	0.001134002	-0.04790609	0.03422228	0	0
20.73329	0.02315376	0.005971926	0	0	0.04790609	-0.03422228	0	0
20.75016	0.02315376	0.005971926	0	0	0	0	0	0
20.76642	0.02315376	0.005971926	0	0	0	0	0	0
20.78299	0.02315376	0.005971926	0	0	0	0	0	0
20.79956	0.02315376	0.005971926	0	0	0	0	0	0
20.81621	0.02315376	0.005971926	0	0	0	0	0	0
20.83269	0.02315376	0.005971926	0	0	0	0	0	0
20.84926	0.02315376	0.005971926	0	0	0	0	0	0
20.86583	0.02315376	0.005971926	0	0	0	0	0	0
20.89927	0.02318006	0.005953137	0.0007865191	-0.000561859	0.01572822	-0.01123564	0	0
20.91553	0.02318006	0.005953137	0	0	-0.01582479	0.01130463	0	0
20.93209	0.02318006	0.005953137	0	0	0	0	0	0
20.94866	0.02318006	0.005953137	0	0	0	0	0	0
20.96531	0.02318006	0.005953137	0	0	0	0	0	0
20.98179	0.02318006	0.005953137	0	0	0	0	0	0
21.01493	0.02315376	0.005971926	-0.0007938084	0.0005670662	-0.0159997	0.01142957	0	0
21.0315	0.02315376	0.005971926	0	0	0.01597084	-0.01140896	0	0
21.04807	0.02315376	0.005971926	0	0	0	0	0	0
21.06463	0.02315376	0.005971926	0	0	0	0	0	0
21.0812	0.02315376	0.005971926	0	0	0	0	0	0
21.09776	0.02315376	0.005971926	0	0	0	0	0	0
21.11433	0.02315376	0.005971926	0	0	0	0	0	0
21.13093	0.02315376	0.005971926	0	0	0	0	0	0
21.14746	0.02315376	0.005971926	0	0	0	0	0	0
21.16403	0.02315376	0.005971926	0	0	0	0	0	0
21.1806	0.02315376	0.005971926	0	0	0	0	0	0
21.19716	0.02318006	0.005953137	0.001587617	-0.001134132	0.04791437	-0.03422818	0	0
21.21399	0.02318006	0.005953137	0	0	-0.04753675	0.03395842	0	0
21.23051	0.02318006	0.005953137	0	0	0	0	0	0
21.24702	0.02318006	0.005953137	0	0	0	0	0	0
21.26353	0.02315376	0.005971926	-0.001593119	0.001138063	-0.04824707	0.03446585	0	0
21.27999	0.02315376	0.005971926	0	0	0.04830846	-0.03450971	0	0
21.29656	0.02315376	0.005971926	0	0	0	0	0	0
21.31313	0.02315376	0.005971926	0	0	0	0	0	0
21.3297	0.02315376	0.005971926	0	0	0	0	0	0
21.34626	0.02315376	0.005971926	0	0	0	0	0	0
21.36283	0.02315376	0.005971926	0	0	0	0	0	0
21.3794	0.02315376	0.005971926	0	0	0	0	0	0
21.39597	0.02315376	0.005971926	0	0	0	0	0	0
21.45924	0.02315376	0.005971926	0	0	0	0	0	0
21.47581	0.02315376	0.005971926	0	0	0	0	0	0
21.49237	0.02312746	0.006028295	-0.001587687	0.003402817	-0.04791649	0.1026972	0	0
21.50894	0.02294334	0.006234971	-0.01111309	0.01247501	-0.2874939	0.273815	0	0
21.52551	0.02252251	0.006685859	-0.02540164	0.02721561	-0.4312293	0.4448723	0	0
21.54208	0.02133887	0.008019382	-0.07144478	0.08049164	-1.389585	1.607874	0	0
21.55864	0.02012886	0.009558859	-0.0730361	0.09292302	-0.04802628	0.3751799	0	0
21.57521	0.0150515	0.01377949	-0.3064703	0.2547578	-7.045058	4.884183	0	0
21.59178	0.009052385	0.01924928	-0.362107	0.3301575	-1.67912	2.275567	0	0
21.60835	0.005052588	0.02388819	-0.2414282	0.2800047	3.642095	-1.513612	0	0
21.64151	-0.002026313	0.04797868	-0.2134574	0.7264253	0.5624502	8.976831	0	0
21.65832	-0.002236838	0.06913043	-0.01252564	1.258467	4.020997	10.64708	0	0
21.67464	-0.002315785	0.07749029	-0.004835382	0.5120299	0.2320926	-22.5275	0	0
21.69121	-0.002263154	0.08938351	0.003176822	0.7178762	0.2435755	6.257841	0	0
21.70778	-0.001499999	0.1044894	0.04605884	0.9116892	1.294107	5.84895	0	0
21.72434	-0.001394736	0.1183958	0.006354417	0.8394867	-1.198282	-2.179076	0	0
21.74091	-0.001026315	0.127341	0.02223791	0.5399318	0.4793923	-9.041103	0	0
21.75748	-0.0006842104	0.1326824	0.02064949	0.3224073	-0.04793836	-6.564904	0	0
21.77405	-0.0007105262	0.1436219	-0.001588421	0.66031	-0.6711416	10.19793	0	0
21.79091	-0.0009999997	0.1528699	-0.01716438	0.5483629	-0.4658998	-3.348501	0	0
21.80718	-0.00136842	0.1655281	-0.02264726	0.7781146	-0.1654829	6.934318	0	0
21.82375	-0.001131578	0.1739826	0.0142958	0.5103147	1.125112	-8.155925	0	0
21.84045	-0.0008157893	0.179191	0.01890653	0.3118309	0.1385859	-5.965871	0	0
21.85688	0.0009736839	0.188296	0.1089156	0.5541751	2.716637	7.314384	0	0
21.87347	0.0004736842	0.1909133	-0.03013841	0.1577626	-4.211204	-12.00522	0	0
21.89001	-0.0005526315	0.1918337	-0.06203423	0.05562871	-0.962618	-3.082406	0	0
21.90699	-0.0005263158	0.1918156	0.00154988	-0.001062788	1.896699	-1.691094	0	0
21.92315	-0.0004210526	0.1917434	0.006516498	-0.004468503	0.1499015	-0.1027906	0	0
21.94001	-0.0003947368	0.1917254	0.001560046	-0.001069758	-0.1500958	0.1029239	0	0
21.98705	-0.0003947368	0.1917254	0	0	-0.02441386	0.01674112	0	0
22.00361	-0.0003947368	0.1917254	0	0	0	0	0	0
22.02018	-0.000368421	0.1917073	0.001588425	-0.001089217	0.04793876	-0.03287263	0	0
22.03675	-0.0003157895	0.1916352	0.003176848	-0.004356867	0.0479387	-0.09861789	0	0
22.05331	-5.263158E-05	0.1914547	0.01588607	-0.01089342	0.3835872	-0.197285	0	0
22.06988	0.0001052632	0.1913103	0.009530545	-0.008713734	-0.1918212	0.0657869	0	0
22.08645	0.0002631579	0.191166	0.009530544	-0.008714634	-2.810737E-08	-2.715172E-05	0	0
22.10313	0.0003157895	0.1911299	0.003154333	-0.002162994	-0.1917501	0.1970257	0	0
22.11964	0.0003421053	0.1910757	0.001593746	-0.003278597	-0.0470093	-0.03360511	0	0
22.13615	0.0003947368	0.1910397	0.003189332	-0.002186994	0.04833016	0.03306454	0	0
22.15271	0.0004473684	0.1910035	0.003176848	-0.002179333	-0.0003775111	0.0002316717	0	0
22.16928	0.0005	0.1909314	0.003176848	-0.004356867	0	-0.06571811	0	0
22.18585	0.0005263158	0.1908772	0.001588425	-0.00326765	-0.0479387	0.03287262	0	0
22.2027	0.0005526315	0.1908592	0.001561456	-0.00107161	-0.0008069446	0.06570925	0	0
22.21899	0.0005263158	0.1908411	-0.001615955	-0.001108098	-0.09588344	-0.001101057	0	0
22.23555	0.0005526315	0.1908231	0.00158897	-0.001089593	0.09757296	0.0005633622	0	0
22.25224	0.0005526315	0.1908231	0	0	-0.04779015	0.0327708	0	0
22.26868	0.0005526315	0.1908231	0	0	0	0	0	0
22.28525	0.0005263158	0.190805	-0.001588421	-0.001089217	-0.04811591	-0.03299418	0	0
22.30182	0.0005263158	0.1907689	0	-0.002178434	0.04793865	-0.03287263	0	0
22.31838	0.0005	0.1907509	-0.001588425	-0.001089217	-0.04793876	0.03287263	0	0
22.33495	0.0004473684	0.1907148	-0.003176848	-0.002179333	-0.0479387	-0.03289977	0	0
22.35152	0.0004210526	0.1906967	-0.001588425	-0.001089217	0.0479387	0.03289977	0	0
22.36808	0.0004210526	0.1906607	0	-0.002178434	0.04793876	-0.03287263	0	0
22.38465	0.0004210526	0.1906246	0	-0.002178434	0	0	0	0
22.40122	0.0004210526	0.1905885	0	-0.002179333	0	-2.714469E-05	0	0
22.41779	0.0004473684	0.1905343	0.001588242	-0.003267274	0.04793048	-0.03283225	0	0
22.43435	0.0004473684	0.1904982	0	-0.002179835	-0.047936	0.03282088	0	0
22.45092	0.0004473684	0.1904621	0	-0.002178434	0	4.229944E-05	0	0
22.46749	0.0004473684	0.190426	0	-0.002178183	0	7.567474E-06	0	0
22.48405	0.0004736842	0.1903719	0.001588789	-0.003269303	0.04795251	-0.03293196	0	0
22.50062	0.0004736842	0.1903358	0	-0.002179333	-0.04795527	0.03289914	0	0
22.51719	0.0005	0.1903177	0.001588425	-0.001089217	0.04793876	0.03289977	0	0
22.55067	0.0005	0.1902816	0	-0.001077924	-0.0317375	0.0002256393	0	0
22.56723	0.0005	0.1902816	0	0	0	0.02153744	0	0
22.5838	0.0005	0.1902816	0	0	0	0	0	0
22.60037	0.0005	0.1902816	0	0	0	0	0	0
22.61694	0.0005	0.1902816	0	0	0	0	0	0
22.6335	0.0004736842	0.1902636	-0.001588608	-0.001089342	-0.04794703	-0.03287831	0	0
22.65007	0.0004736842	0.1902636	0	0	0.04794703	0.03287831	0	0
22.66664	0.0004736842	0.1902636	0	0	0	0	0	0
22.68355	0.0004736842	0.1902636	0	0	0	0	0	0
22.69977	0.0004736842	0.1902636	0	0	0	0	0	0
22.71634	0.0004736842	0.1902636	0	0	0	0	0	0
22.7329	0.0004736842	0.1902636	0	0	0	0	0	0
22.74947	0.0004736842	0.1902636	0	0	0	0	0	0
22.76604	0.0004736842	0.1902636	0	0	0	0	0	0
22.79917	0.0004736842	0.1902636	0	0	0	0	0	0
22.81574	0.0004736842	0.1902275	0	-0.002179333	0	-0.04384995	0	0
22.83231	0.0004736842	0.1902275	0	0	0	0.0657724	0	0
22.84888	0.0004736842	0.1901914	0	-0.002178183	0	-0.0657339	0	0
22.86544	0.0004736842	0.1901914	0	0	0	0.06573769	0	0
22.88201	0.0004473684	0.1901733	-0.001588423	-0.001090116	-0.04794146	-0.03290167	0	0
22.89857	0.0004473684	0.1901733	0	0	0.0479387	0.03289977	0	0
22.91521	0.0004736842	0.1901553	0.001581504	-0.001084472	0.04762571	-0.032658	0	0
22.93171	0.0004473684	0.1901373	-0.001595587	-0.00109413	-0.09589033	-0.0002914691	0	0
22.94827	0.0004473684	0.1901373	0	0	0.04826327	0.03309519	0	0
22.96484	0.0004473684	0.1901011	0	-0.002179333	0	-0.0657724	0	0
22.98141	0.0004210526	0.1900831	-0.001588425	-0.001089217	-0.04793876	0.03289977	0	0
22.99798	0.0004210526	0.1900831	0	0	0.04793876	0.03287263	0	0
23.03111	0.000368421	0.190047	-0.001588515	-0.00108928	-0.03196222	-0.02191719	0	0
23.04768	0.0003421053	0.190029	-0.001588423	-0.001090116	1.8575E-06	-1.683696E-05	0	0
23.06424	0.0003421053	0.190029	0	0	0.0479387	0.03289977	0	0
23.08084	0.0003157895	0.1900109	-0.001586051	-0.001087589	-0.04783132	-0.03279896	0	0
23.09738	0.0002894737	0.1899929	-0.001590987	-0.001090975	-0.0001489882	-0.0001022008	0	0
23.11394	0.0002894737	0.1899929	0	0	0.04805482	0.03295225	0	0
23.13051	0.0002631579	0.1899748	-0.001588425	-0.001089217	-0.04793876	-0.03287263	0	0
23.14708	0.0002631579	0.1899387	0	-0.002179333	0.04793876	-0.03289977	0	0
23.16364	0.0001578947	0.1898665	-0.006353696	-0.004357767	-0.1917549	-0.06574526	0	0
23.18021	7.894737E-05	0.1897763	-0.004765273	-0.005447883	0.04793871	-0.03289977	0	0
23.19692	5.263158E-05	0.189686	-0.001575186	-0.005401587	0.09587413	0.001391371	0	0
23.21343	5.263158E-05	0.1896499	0	-0.002186634	0.0474191	0.09678236	0	0
23.22994	7.894737E-05	0.1896319	0.001593561	-0.001092739	0.0482521	0.03312247	0	0
23.24648	5.263158E-05	0.1896138	-0.001591539	-0.001092254	-0.09637619	1.468902E-05	0	0
23.26305	5.263158E-05	0.1896138	0	0	0.0480798	0.03299658	0	0
23.27961	7.894737E-05	0.1895958	0.001588424	-0.001089217	0.04793875	-0.03287263	0	0
23.29618	7.894737E-05	0.1895958	0	0	-0.04793875	0.03287263	0	0
23.31275	5.263158E-05	0.1895777	-0.001588607	-0.001089342	-0.04794702	-0.03287831	0	0
23.34588	5.263158E-05	0.1895777	0	0	0.03196407	0.02191845	0	0
23.36245	5.263158E-05	0.1895777	0	0	0	0	0	0
23.37901	5.263158E-05	0.1895777	0	0	0	0	0	0
23.39558	5.263158E-05	0.1895777	0	0	0	0	0	0
23.42908	5.263158E-05	0.1895777	0	0	0	0	0	0
23.44528	5.263158E-05	0.1895777	0	0	0	0	0	0
23.46185	7.894737E-05	0.1895597	0.001588424	-0.001090116	0.04848014	-0.03327133	0	0
23.47841	5.263158E-05	0.1895416	-0.001588424	-0.001089217	-0.09587749	2.714821E-05	0	0
23.49513	5.263158E-05	0.1895055	0	-0.002159444	0.04771899	-0.03215146	0	0
23.51164	7.894737E-05	0.1894875	0.00159393	-0.001092992	0.04796683	0.03209322	0	0
23.52811	7.894737E-05	0.1894875	0	0	-0.04832744	0.03313917	0	0
23.54468	7.894737E-05	0.1894875	0	0	0	0	0	0
23.56125	5.263158E-05	0.1894694	-0.001588424	-0.001089217	-0.04793875	-0.03287263	0	0
23.57782	5.263158E-05	0.1894694	0	0	0.04793875	0.03287263	0	0
23.59438	5.263158E-05	0.1894694	0	0	0	0	0	0
23.66065	0.003315777	0.1872669	0.0492438	-0.03323832	0.5944997	-0.4012722	0	0
23.67726	0.01515673	0.1791368	0.712834	-0.4894389	8.007005	-5.504603	0	0
23.69378	0.0264675	0.1713587	0.684611	-0.4707839	-0.851822	0.5630433	0	0
23.71035	0.04029397	0.1618313	0.8346633	-0.5751421	4.535116	-3.154078	0	0
23.72691	0.05583664	0.1510542	0.9381573	-0.6505098	3.123633	-2.27473	0	0
23.76005	0.08829614	0.127724	0.9796297	-0.7041063	0.8344271	-1.078364	0	0
23.77683	0.1135359	0.1074204	1.503913	-1.209786	10.50305	-10.13037	0	0
23.79334	0.1266086	0.09586886	0.7917107	-0.6995897	-21.39087	15.32366	0	0
23.82631	0.1533908	0.07684498	0.8122623	-0.5769652	0.4153152	2.478051	0	0
23.84288	0.1613739	0.07106964	0.481862	-0.3485998	-6.669423	4.609757	0	0
23.85945	0.17041	0.06454656	0.5454197	-0.3937343	1.918176	-1.362164	0	0
23.87601	0.17442	0.06164199	0.2420706	-0.17534	-9.155622	6.591533	0	0
23.89291	0.1802587	0.05740162	0.3455065	-0.2509228	3.090922	-2.258599	0	0
23.90942	0.186822	0.0526188	0.397534	-0.289692	1.557286	-1.16044	0	0
23.92571	0.190529	0.04990965	0.2275761	-0.1663205	-5.181839	3.761469	0	0
23.94245	0.1943573	0.04706856	0.228787	-0.1697876	0.03666952	-0.1049952	0	0
23.95896	0.1945853	0.04690138	0.01380587	-0.01012408	-6.466183	4.802345	0	0
23.97541	0.1945853	0.04690138	0	0	-0.4187592	0.3070833	0	0
23.99199	0.1945853	0.04690138	0	0	0	0	0	0
24.00855	0.1946106	0.0468828	0.001529745	-0.001121888	0.04617047	-0.03386061	0	0
24.02511	0.1946106	0.0468828	0	0	-0.04617844	0.03386645	0	0
24.04168	0.1946106	0.0468828	0	0	0	0	0	0
24.05825	0.1946106	0.0468828	0	0	0	0	0	0
24.07482	0.1946359	0.04690138	0.001529041	0.001121372	0.04614655	0.03384306	0	0
24.09155	0.1946613	0.0468828	0.00151336	-0.001109872	-0.0004708047	-0.06699199	0	0
24.10795	0.1947373	0.04682707	0.004635689	-0.003399506	0.0942375	-0.06910526	0	0
24.12458	0.1948386	0.04675276	0.006092818	-0.004468798	0.04412609	-0.03238129	0	0
24.14109	0.1953198	0.04636261	0.02914705	-0.0236311	0.695698	-0.5782527	0	0
24.15765	0.1980028	0.04439267	0.1620189	-0.1189604	4.017946	-2.882687	0	0
24.17421	0.2004554	0.0425891	0.1480418	-0.1088637	-0.4219294	0.304791	0	0
24.19078	0.2045714	0.03955641	0.2484386	-0.1830536	3.029982	-2.239058	0	0
24.20735	0.2051516	0.03912828	0.03502223	-0.02584169	-6.440918	4.744666	0	0
24.22392	0.205883	0.03858841	0.04414611	-0.03258701	0.2753592	-0.2035741	0	0
24.25705	0.2059082	0.03856979	0.0007609666	-0.0005618425	-0.8729444	0.6443724	0	0
24.27368	0.2059334	0.03855117	0.001515564	-0.001119206	0.01516217	-0.01119914	0	0
24.29018	0.2059334	0.03855117	0	0	-0.04573981	0.03377772	0	0
24.30675	0.2059334	0.03855117	0	0	0	0	0	0
24.32332	0.2059334	0.03855117	0	0	0	0	0	0
24.33988	0.2059586	0.03853256	0.001521845	-0.001123845	0.04592939	-0.03391771	0	0
24.35674	0.2059838	0.03851394	0.001495334	-0.001104267	-0.0007930949	0.0005856812	0	0
24.37325	0.2059838	0.03851394	0	0	-0.04481198	0.03309253	0	0
24.40678	0.206009	0.03849532	0.0007525354	-0.0005554005	0.01504118	-0.01110098	0	0
24.42325	0.206009	0.03849532	0	0	-0.01505036	0.01110776	0	0
24.43982	0.206009	0.03849532	0	0	0	0	0	0
24.45681	0.2059838	0.03851394	-0.001484629	0.001095714	-0.04423833	0.03264961	0	0
24.47295	0.2059838	0.03851394	0	0	0.04480878	-0.03307063	0	0
24.48952	0.2059838	0.03851394	0	0	0	0	0	0
24.58892	0.2059334	0.03855117	-0.0005072819	0.000374615	-0.004374227	0.003230258	0	0
24.60549	0.2059334	0.03855117	0	0	0.004374227	-0.003230258	0	0
24.62206	0.2059334	0.03855117	0	0	0	0	0	0
24.63863	0.2059334	0.03855117	0	0	0	0	0	0
24.65519	0.2059082	0.03856979	-0.001521845	0.001123845	-0.04592939	0.03391771	0	0
24.67176	0.2057821	0.03866288	-0.007611003	0.005619423	-0.1837817	0.1356846	0	0
24.68833	0.2056812	0.03873735	-0.006089181	0.004494931	0.04593134	-0.0339392	0	0
24.72146	0.2046975	0.03946334	-0.02968813	0.02191059	-0.4748118	0.3504039	0	0
24.73803	0.2032843	0.04057999	-0.0853016	0.06740057	-1.118945	0.9152603	0	0
24.75459	0.2031328	0.04069163	-0.009141866	0.006738798	2.298505	-1.830776	0	0
24.77116	0.2030571	0.04078466	-0.004571833	0.005615628	0.1379239	-0.03389735	0	0
24.78773	0.2013651	0.04206832	-0.1021318	0.07748168	-2.944367	2.168922	0	0
24.8043	0.1963326	0.04576802	-0.3037611	0.2233142	-6.085183	4.401234	0	0
24.82086	0.1880413	0.05195097	-0.5004614	0.3732034	-5.936427	4.523664	0	0
24.83743	0.1856784	0.05378724	-0.1426245	0.1108377	10.79954	-7.918211	0	0
24.87057	0.1579111	0.07459483	-0.8380206	0.6279745	-13.9914	10.40481	0	0
24.9037	0.1340595	0.09285701	-0.7198829	0.5511854	1.782753	-1.158783	0	0
24.92027	0.1202849	0.1027666	-0.8314349	0.5981433	-2.244517	0.9448313	0	0
24.93717	0.1020391	0.1156908	-1.079569	0.7647019	-7.414022	4.976616	0	0
24.9534	0.08889666	0.1249693	-0.8095911	0.5715646	8.147957	-5.828897	0	0
24.97019	0.07250426	0.1365073	-0.9764076	0.6872594	-5.05169	3.503577	0	0
24.9867	0.06116047	0.1444583	-0.6868477	0.4814157	8.694392	-6.180713	0	0
25.0031	0.05058838	0.1518895	-0.6447387	0.4531922	1.279396	-0.8575106	0	0
25.01973	0.03803428	0.1614325	-0.7550722	0.5739691	-3.341028	3.657264	0	0
25.03624	0.03277773	0.1666874	-0.3184223	0.318323	13.17812	-7.715414	0	0
25.0528	0.02212797	0.1765873	-0.642821	0.5975591	-9.807871	8.442426	0	0
25.06977	0.0135518	0.1825164	-0.5054384	0.3494355	4.09669	-7.398944	0	0
25.08594	0.00557889	0.1880252	-0.4929948	0.3406274	0.3754865	-0.2657824	0	0
25.1025	-0.003842086	0.195099	-0.5688477	0.4271241	-2.317259	2.642419	0	0
25.11907	-0.007368288	0.2016255	-0.2128419	0.3939367	10.74613	-1.00177	0	0
25.13564	-0.009683908	0.2076062	-0.1397711	0.3609967	2.205281	-0.9941321	0	0
25.15232	-0.01231517	0.2102349	-0.1576975	0.1575423	-0.5390947	-6.118431	0	0
25.16877	-0.01547245	0.2123947	-0.1919663	0.1313239	-1.034294	-0.7913162	0	0
25.18534	-0.0171299	0.2135285	-0.1000441	0.06843268	2.784313	-1.90497	0	0
25.2019	-0.02225948	0.2171086	-0.3096576	0.2161224	-6.32651	4.457542	0	0
25.21847	-0.02310115	0.2176842	-0.0508034	0.03474071	7.812685	-5.474427	0	0
25.23504	-0.02546818	0.2193027	-0.1428738	0.09769672	-2.778691	1.900016	0	0
25.25161	-0.02544188	0.2192848	0.001587392	-0.001085619	4.359848	-2.981257	0	0
25.26841	-0.02538928	0.2192488	0.00313081	-0.002141164	0.0462556	-0.03163426	0	0
25.28474	-0.02531038	0.2191948	0.00483058	-0.003302727	0.05130213	-0.03505804	0	0
25.31787	-0.02515259	0.219051	0.004762288	-0.004341577	-0.001380555	-0.02100084	0	0
25.33445	-0.02507369	0.218997	0.004758888	-0.003254609	-6.838822E-05	0.02186481	0	0
25.35101	-0.02504739	0.2189431	0.001588785	-0.003258584	-0.09567943	-0.0001199621	0	0
25.36757	-0.02496849	0.2188532	0.00476174	-0.00542747	0.09579307	-0.06547974	0	0
25.38414	-0.02491589	0.2187453	0.003175262	-0.006513565	-0.04788001	-0.03277839	0	0
25.41727	-0.02491589	0.2185654	0	-0.005427509	-0.06389129	0.02185317	0	0
25.43403	-0.024837	0.2184036	0.004709157	-0.009660676	0.09439703	-0.08485562	0	0
25.45054	-0.0248107	0.2183496	0.001592894	-0.003268145	-0.0936823	0.1921747	0	0
25.46697	-0.0247581	0.2181698	0.003200319	-0.01094221	0.04879024	-0.2329313	0	0
25.48356	-0.0247581	0.2180259	0	-0.008675964	-0.09692056	0.06863263	0	0
25.5001	-0.0248107	0.2178101	-0.003178556	-0.01304154	-0.09593452	-0.1317611	0	0
25.51667	-0.0248896	0.2176482	-0.004762836	-0.009771697	-0.04784398	0.09874669	0	0
25.53324	-0.02520519	0.2173964	-0.01904915	-0.01519867	-0.4311867	-0.1637957	0	0
25.5498	-0.02533668	0.2172705	-0.007937072	-0.007600233	0.3353633	0.2293212	0	0
25.56637	-0.02546818	0.2171806	-0.007936959	-0.005428095	3.400992E-06	0.06555524	0	0
25.58294	-0.02552077	0.2171086	-0.003174784	-0.004342476	0.1437227	0.03276405	0	0
25.59951	-0.02557337	0.2170367	-0.003174784	-0.004343376	0	-2.715172E-05	0	0
25.61607	-0.02557337	0.2170007	0	-0.002171238	0.09581516	0.06555525	0	0
25.63264	-0.02559967	0.2169827	-0.001587392	-0.001085619	-0.04790758	0.03276405	0	0
25.64921	-0.02559967	0.2169827	0	0	0.04790758	0.03276405	0	0
25.66578	-0.02559967	0.2169827	0	0	0	0	0	0
25.68234	-0.02559967	0.2169827	0	0	0	0	0	0
25.69891	-0.02559967	0.2169827	0	0	0	0	0	0
25.71548	-0.02562597	0.2169647	-0.001587392	-0.001085619	-0.04790758	-0.03276405	0	0
25.73204	-0.02562597	0.2169647	0	0	0.04790758	0.03276405	0	0
25.74861	-0.02559967	0.2169467	0.001587392	-0.001085619	0.04790758	-0.03276405	0	0
25.76518	-0.02559967	0.2169467	0	0	-0.04790758	0.03276405	0	0
25.78175	-0.02559967	0.2169467	0	0	0	0	0	0
25.79831	-0.02557337	0.2169288	0.001587392	-0.001085619	0.04790758	-0.03276405	0	0
25.81488	-0.02554707	0.2169108	0.001587392	-0.001085619	0	0	0	0
25.83145	-0.02544188	0.2168388	0.006349567	-0.004343376	0.1437227	-0.0983193	0	0
25.84801	-0.02533668	0.2167309	0.006349567	-0.006514614	0	-0.06552809	0	0
25.86458	-0.02499479	0.2163891	0.02063406	-0.02062709	0.431082	-0.4258907	0	0
25.88115	-0.02270662	0.214752	0.1381302	-0.0988261	3.546042	-2.360051	0	0
25.89772	-0.01663005	0.2105229	0.3667829	-0.2552725	6.901148	-4.721833	0	0
25.91428	-0.006841999	0.2034274	0.5908757	-0.4283337	6.763525	-5.223298	0	0
25.93085	0.001105263	0.1978762	0.4796976	-0.3350722	-3.355555	2.814798	0	0
25.94742	0.006499908	0.1941791	0.3256215	-0.2231545	-4.650028	3.377683	0	0
25.96398	0.01442005	0.1887473	0.4780608	-0.3278615	4.600629	-3.160061	0	0
25.98055	0.02394279	0.1822093	0.5747937	-0.3946392	2.919403	-2.015356	0	0
25.99712	0.02978067	0.1781966	0.3523342	-0.2421749	-6.713453	4.601116	0	0
26.01394	0.0357742	0.174073	0.356234	-0.2450916	0.1167805	-0.08734266	0	0
26.03025	0.03932182	0.1716302	0.2175409	-0.1497953	-4.186007	2.876213	0	0
26.04697	0.04008378	0.1711053	0.04558242	-0.03139976	-5.207102	3.585155	0	0
26.06339	0.04008378	0.1711053	0	0	-1.375759	0.9477012	0	0
26.07995	0.04008378	0.1711053	0	0	0	0	0	0
26.09652	0.04008378	0.1711053	0	0	0	0	0	0
26.11309	0.04005751	0.1711234	-0.00158593	0.001092815	-0.04786347	0.03298121	0	0
26.12965	0.04005751	0.1711234	0	0	0.04786347	-0.03298121	0	0
26.14622	0.04003124	0.1711415	-0.001585705	0.001092815	-0.04785668	0.03298121	0	0
26.16279	0.04000496	0.1711596	-0.00158593	0.001091915	-6.78793E-06	-2.714469E-05	0	0
26.17936	0.03992614	0.1712139	-0.004757791	0.003277544	-0.09572694	0.06596242	0	0
26.19608	0.03982104	0.1712863	-0.006284887	0.00432998	-0.04587397	0.03161517	0	0
26.21259	0.03979477	0.1713044	-0.001591243	0.001095573	0.1412317	-0.09732329	0	0
26.24562	0.03976849	0.1713225	-0.0007954377	0.000548111	0.0160628	-0.01105015	0	0
26.26219	0.03976849	0.1713225	0	0	0.01603747	-0.01105092	0	0
26.36181	0.03953202	0.1714854	-0.002373658	0.001635164	-0.02042911	0.0140732	0	0
26.37838	0.03953202	0.1714854	0	0	0.02042878	-0.01407296	0	0
26.39495	0.03953202	0.1714854	0	0	0	0	0	0
26.41151	0.03950575	0.1715035	-0.001586113	0.001092041	-0.0478745	0.03296166	0	0
26.42808	0.03950575	0.1715035	0	0	0.04787174	-0.03295976	0	0
26.44475	0.03950575	0.1715035	0	0	0	0	0	0
26.46121	0.03950575	0.1715035	0	0	0	0	0	0
26.47778	0.03947948	0.1715216	-0.00158593	0.001092815	-0.04802104	0.03308978	0	0
26.49434	0.0394532	0.1715759	-0.001586113	0.003277022	-5.509362E-06	0.06592331	0	0
26.51091	0.03942693	0.171594	-0.00158593	0.001092815	5.509362E-06	-0.06592331	0	0
26.52748	0.03940065	0.1716121	-0.00158593	0.001092815	0	0	0	0
26.54405	0.03940065	0.1716121	0	0	0.04786347	-0.03298121	0	0
26.56084	0.03932182	0.1716664	-0.004694244	0.003232728	-0.1407167	0.09690569	0	0
26.57718	0.03929555	0.1716845	-0.00160796	0.001107994	0.0931496	-0.06412829	0	0
26.59375	0.03921673	0.1717388	-0.004757791	0.003277544	-0.09571777	0.06592876	0	0
26.61037	0.0390328	0.1718655	-0.01106121	0.007618039	-0.1898878	0.1307555	0	0
26.62688	0.03887514	0.1720103	-0.009549238	0.008769207	0.04562619	0.03473831	0	0
26.64345	0.03863866	0.1721731	-0.01427756	0.009833998	-0.1429644	0.03219477	0	0
26.66001	0.0382445	0.172517	-0.02379394	0.02075597	-0.2872546	0.3296828	0	0
26.67658	0.03779778	0.1728608	-0.02696419	0.02075268	-0.09568367	-9.928095E-05	0	0
26.69344	0.03693057	0.1734941	-0.05144467	0.0375686	-0.7324139	0.5031032	0	0
26.72628	0.03043796	0.1781786	-0.1976768	0.1426258	-2.942196	2.113754	0	0
26.74285	0.02583635	0.1814503	-0.2778178	0.1975283	-1.622026	1.111209	0	0
26.75941	0.02073387	0.1850275	-0.3079865	0.2159222	-0.9106002	0.5551917	0	0
26.77599	0.01799806	0.1871585	-0.1650011	0.1285238	4.313571	-2.636625	0	0
26.79255	0.01263091	0.1910577	-0.3242604	0.2355705	-4.806734	3.230862	0	0
26.80911	0.008841875	0.1937642	-0.2287327	0.1633833	2.884526	-2.179743	0	0
26.82568	0.006763055	0.1952253	-0.1254634	0.08818133	3.116676	-2.269601	0	0
26.84225	0.00673674	0.1952433	-0.001588376	0.001088317	3.73834	-2.628321	0	0
26.85881	0.00673674	0.1952433	0	0	0.04793727	-0.03284548	0	0
26.87538	0.006763055	0.1952614	0.001588376	0.001089217	0.04793727	0.03287263	0	0
26.89195	0.00673674	0.1952433	-0.001588559	-0.001089342	-0.09588558	-0.06575283	0	0
26.90859	0.006763055	0.1952253	0.001581457	-0.001083577	0.09546793	0.0001736289	0	0
26.9251	0.006763055	0.1952253	0	0	-0.04770375	0.03268548	0	0
26.94165	0.006763055	0.1952253	0	0	0	0	0	0
26.95821	0.006763055	0.1952253	0	0	0	0	0	0
26.97478	0.00678937	0.1952073	0.001588347	-0.001088317	0.04793642	-0.03284548	0	0
26.99135	0.00678937	0.1952073	0	0	-0.04793642	0.03284548	0	0
27.00792	0.00678937	0.1952073	0	0	0	0	0	0
27.02448	0.00678937	0.1952073	0	0	0	0	0	0
27.04105	0.00678937	0.1952073	0	0	0	0	0	0
27.0577	0.00678937	0.1952073	0	0	0	0	0	0
27.07418	0.006815684	0.1951892	0.001596065	-0.001094509	0.04816934	-0.03303235	0	0
27.09075	0.006841999	0.1951712	0.00158853	-0.001088443	-0.0002279634	0.0001835387	0	0
27.10732	0.006868313	0.1951531	0.001588347	-0.001089217	-5.519903E-06	-2.336208E-05	0	0
27.12388	0.006920942	0.1951171	0.003176695	-0.002176635	0.04793642	-0.03281834	0	0
27.14045	0.006947257	0.195063	0.00158853	-0.003267127	-0.04793366	-0.03291303	0	0
27.17427	0.006973571	0.1950449	0.0007779186	-0.0005330209	-0.01608607	0.0542566	0	0
27.19079	0.006999886	0.1950269	0.001593668	-0.001092866	0.01620521	-0.01112155	0	0
27.22384	0.006999886	0.1950269	0	0	-0.03215475	0.02205027	0	0
27.24082	0.006999886	0.1949908	0	-0.002123582	0	-0.04244476	0	0
27.25697	0.0070262	0.1949728	0.001629238	-0.001117258	0.04917333	0.03037268	0	0
27.27384	0.007052515	0.1949547	0.001559619	-0.001068633	-0.002108152	0.001472419	0	0
27.29035	0.007052515	0.1949547	0	0	-0.0467171	0.03201002	0	0
27.30687	0.007052515	0.1949547	0	0	0	0	0	0
27.32323	0.007052515	0.1949547	0	0	0	0	0	0
27.3398	0.007052515	0.1949547	0	0	0	0	0	0
27.35637	0.007052515	0.1949547	0	0	0	0	0	0
27.37294	0.007052515	0.1949547	0	0	0	0	0	0
27.3895	0.007052515	0.1949187	0	-0.002178036	0	-0.06574082	0	0
27.40607	0.007052515	0.1949187	0	0	0	0.06574082	0	0
27.42263	0.007078829	0.1949006	0.001588347	-0.001089217	0.04793642	-0.03287263	0	0
27.4392	0.007078829	0.1949006	0	0	-0.04793642	0.03287263	0	0
27.45577	0.007078829	0.1948645	0	-0.002177785	0	-0.06572946	0	0
27.47248	0.007078829	0.1948645	0	0	0	0.06544314	0	0
27.48899	0.007078829	0.1948645	0	0	0	0	0	0
27.50547	0.007105144	0.1948465	0.001597174	-0.001094365	0.04841461	-0.03317313	0	0
27.52203	0.007105144	0.1948465	0	0	-0.04833915	0.03312143	0	0
27.5386	0.007131458	0.1948285	0.001588347	-0.001089217	0.04793918	-0.03287452	0	0
27.55517	0.007184087	0.1947924	0.003176667	-0.002176635	0.04793558	-0.03281834	0	0
27.57174	0.007157772	0.1947744	-0.001588347	-0.001089217	-0.1438084	0.03281834	0	0
27.58857	0.007157772	0.1947744	0	0	0.04755862	0.03261355	0	0
27.60487	0.007157772	0.1947744	0	0	0	0	0	0
27.62144	0.007184087	0.1947563	0.001588347	-0.001088317	0.04832307	-0.03311041	0	0
27.6381	0.007184087	0.1947563	0	0	-0.04779336	0.03274746	0	0
27.65461	0.007184087	0.1947563	0	0	0	0	0	0
27.67114	0.007184087	0.1947563	0	0	0	0	0	0
27.6877	0.007184087	0.1947563	0	0	0	0	0	0
27.70427	0.007184087	0.1947563	0	0	0	0	0	0
27.72084	0.007184087	0.1947563	0	0	0	0	0	0
27.7374	0.007184087	0.1947563	0	0	0	0	0	0
27.75397	0.007210401	0.1947383	0.001588347	-0.001089217	0.04793642	-0.03287263	0	0
27.77054	0.007210401	0.1947383	0	0	-0.04793918	0.03287452	0	0
27.78721	0.007210401	0.1947383	0	0	0	0	0	0
27.80372	0.007210401	0.1947383	0	0	0	0	0	0
27.82024	0.007210401	0.1947383	0	0	0	0	0	0
27.8368	0.007210401	0.1947383	0	0	0	0	0	0
27.90307	0.007210401	0.1947022	0	-0.0005443679	0	-0.006571622	0	0
27.91964	0.007210401	0.1947022	0	0	0	0.006571622	0	0
27.93621	0.007210401	0.1947022	0	0	0	0	0	0
27.95283	0.007210401	0.1947022	0	0	0	0	0	0
27.96934	0.007210401	0.1947022	0	0	0	0	0	0
27.98637	0.007210401	0.1947022	0	0	0	0	0	0
28.00287	0.007210401	0.1947022	0	0	0	0	0	0
28.01904	0.007210401	0.1947022	0	0	0	0	0	0
28.03561	0.007210401	0.1947022	0	0	0	0	0	0
28.0524	0.007210401	0.1947022	0	0	0	0	0	0
28.06874	0.007210401	0.1947022	0	0	0	0	0	0
28.11844	0.007210401	0.1947022	0	0	0	0	0	0
28.15157	0.007236716	0.1946842	0.0007942652	-0.0005442214	0.009588609	-0.006570005	0	0
28.16814	0.007236716	0.1946842	0	0	-0.01598187	0.0109506	0	0
28.18471	0.00726303	0.1946661	0.00158853	-0.001089342	0.0479447	-0.03287831	0	0
28.2015	0.007236716	0.1946481	-0.001566525	-0.001073365	-0.09456653	0.000478888	0	0
28.21784	0.007236716	0.1946481	0	0	0.04727782	0.03239422	0	0
28.23441	0.007236716	0.1946481	0	0	0	0	0	0
28.25097	0.00726303	0.1946301	0.001588165	-0.001089091	0.04793091	-0.03286884	0	0
28.26754	0.00726303	0.1946301	0	0	-0.04793091	0.03286884	0	0
28.28411	0.00726303	0.1946301	0	0	0	0	0	0
28.30067	0.00726303	0.1946301	0	0	0	0	0	0
28.31724	0.007236716	0.194612	-0.001588347	-0.001088317	-0.04793642	-0.03284548	0	0
28.33381	0.00726303	0.194594	0.001588347	-0.001089217	0.09587284	-2.714469E-05	0	0
28.35037	0.00726303	0.194594	0	0	-0.04793642	0.03287263	0	0
28.36694	0.007289344	0.194576	0.001588137	-0.001088192	0.0479273	-0.03283981	0	0
28.38351	0.00726303	0.1945579	-0.001588502	-0.001089342	-0.09587115	-3.47126E-05	0	0
28.40014	0.007289344	0.1945399	0.001581764	-0.001083825	0.09548643	0.0001661663	0	0
28.41664	0.007341973	0.1945038	0.003190285	-0.00218685	0.04854806	-0.03329126	0	0
28.44978	0.007420917	0.1943415	0.002382507	-0.004899677	-0.01627563	-0.0546598	0	0
28.46634	0.007473545	0.1942693	0.003176667	-0.004355068	0.01597852	0.01095755	0	0
28.48291	0.007657745	0.1940709	0.01111832	-0.01197779	0.2396796	-0.2300541	0	0
28.49948	0.009262893	0.1924291	0.09688695	-0.09909625	2.588502	-2.62924	0	0
28.51604	0.01184155	0.1902997	0.1556481	-0.1285321	1.773415	-0.8883753	0	0
28.53261	0.01697205	0.184576	0.3097134	-0.3455248	4.649967	-6.54923	0	0
28.54918	0.02023408	0.1783232	0.1968963	-0.3774177	-3.405023	-0.9625849	0	0
28.56576	0.02173342	0.1703089	0.09039627	-0.4831891	-3.212328	-3.190351	0	0
28.58231	0.02210166	0.1577695	0.02225282	-0.7577504	-2.056574	-8.286276	0	0
28.59888	0.02239099	0.1546669	0.01746401	-0.1872742	-0.1446098	17.22692	0	0
28.61544	0.0224699	0.1371628	0.004763511	-1.056672	-0.3833238	-26.23998	0	0
28.63231	0.02268032	0.1225783	0.01247544	-0.8646939	0.230675	5.742339	0	0
28.64858	0.02289074	0.1152338	0.0129345	-0.4514748	0.01385452	12.47098	0	0
28.66515	0.02325896	0.1004379	0.02222618	-0.8930782	0.282981	-13.44916	0	0
28.68171	0.02378499	0.08934674	0.03175087	-0.6694654	0.2874556	6.748647	0	0
28.69828	0.0241532	0.07453949	0.02222517	-0.8937677	-0.2874862	-6.769455	0	0
28.71487	0.0248896	0.06393622	0.04438268	-0.6390583	0.668215	7.681396	0	0
28.73141	0.02502109	0.05691989	0.007949998	-0.42419	-1.099604	6.48511	0	0
28.74798	0.02557337	0.04082188	0.03333557	-0.9716779	0.7667559	-16.53654	0	0
28.76455	0.02552077	0.0353475	-0.003174784	-0.3304345	-1.101884	19.35276	0	0
28.78111	0.02623083	0.02390688	0.04285879	-0.6905568	1.389296	-10.86851	0	0
28.79793	0.02638861	0.01982948	0.009383463	-0.2424833	-1.002783	13.42244	0	0
28.81444	0.0246003	0.01154789	-0.1082917	-0.5014943	-3.530714	-7.771341	0	0
28.83081	0.0240743	0.008657786	-0.03213065	-0.1765405	2.316011	9.881643	0	0
28.84738	0.0224173	0.006084662	-0.1000166	-0.1553141	-2.061022	0.644436	0	0
28.86395	0.02233839	0.006103451	-0.004762962	0.001134104	2.87476	4.721615	0	0
28.88052	0.02236469	0.006084662	0.001587617	-0.001134104	0.1916609	-0.06845468	0	0
28.96335	0.02236469	0.006084662	0	0	-0.01597207	0.01140955	0	0
28.97991	0.02236469	0.006084662	0	0	0	0	0	0
28.99657	0.02236469	0.006084662	0	0	0	0	0	0
29.01308	0.02239099	0.006065873	0.001592935	-0.001137903	0.04802788	-0.03430842	0	0
29.02961	0.02239099	0.006065873	0	0	-0.04820529	0.03443516	0	0
29.04618	0.02239099	0.006065873	0	0	0	0	0	0
29.06275	0.02239099	0.006065873	0	0	0	0	0	0
29.09648	0.02236469	0.006084662	-0.0007798031	0.0005570476	-0.01550404	0.01107521	0	0
29.11304	0.02236469	0.006084662	0	0	0.01550404	-0.01107521	0	0
29.12961	0.02236469	0.006084662	0	0	0	0	0	0
29.14618	0.02236469	0.006084662	0	0	0	0	0	0
29.16275	0.02236469	0.006084662	0	0	0	0	0	0
29.17931	0.02236469	0.006084662	0	0	0	0	0	0
29.19622	0.02236469	0.006084662	0	0	0	0	0	0
29.22902	0.02236469	0.006084662	0	0	0	0	0	0
29.24558	0.02236469	0.006084662	0	0	0	0	0	0
29.26215	0.02236469	0.006084662	0	0	0	0	0	0
29.27872	0.02236469	0.006084662	0	0	0	0	0	0
29.29528	0.02236469	0.006084662	0	0	0	0	0	0
29.3123	0.02236469	0.006084662	0	0	0	0	0	0
29.32841	0.02236469	0.006084662	0	0	0	0	0	0
29.34498	0.02236469	0.006084662	0	0	0	0	0	0
29.36155	0.02236469	0.006084662	0	0	0	0	0	0
29.37812	0.02236469	0.006084662	0	0	0	0	0	0
29.39486	0.02236469	0.006084662	0	0	0	0	0	0
29.41125	0.02236469	0.006084662	0	0	0	0	0	0
29.42782	0.02236469	0.006084662	0	0	0	0	0	0
29.44439	0.02236469	0.006084662	0	0	0	0	0	0
29.46095	0.02236469	0.006084662	0	0	0	0	0	0
29.47752	0.02236469	0.006084662	0	0	0	0	0	0
29.49409	0.02236469	0.006084662	0	0	0	0	0	0
29.51094	0.02236469	0.006084662	0	0	0	0	0	0
29.52722	0.02236469	0.006084662	0	0	0	0	0	0
29.54379	0.02236469	0.006084662	0	0	0	0	0	0
29.56035	0.02236469	0.006084662	0	0	0	0	0	0
29.57699	0.02236469	0.006084662	0	0	0	0	0	0
29.5935	0.02236469	0.006084662	0	0	0	0	0	0
29.61005	0.02236469	0.006084662	0	0	0	0	0	0
29.62662	0.02236469	0.006084662	0	0	0	0	0	0
29.64319	0.02236469	0.006084662	0	0	0	0	0	0
29.65976	0.02236469	0.006084662	0	0	0	0	0	0
29.67632	0.02236469	0.006084662	0	0	0	0	0	0
29.69289	0.02236469	0.006084662	0	0	0	0	0	0
29.70946	0.02236469	0.006084662	0	0	0	0	0	0
29.72602	0.02236469	0.006084662	0	0	0	0	0	0
29.74261	0.02236469	0.006084662	0	0	0	0	0	0
29.75916	0.02236469	0.006084662	0	0	0	0	0	0
29.77572	0.02236469	0.006084662	0	0	0	0	0	0
29.85856	0.02236469	0.007925489	0	0.02222353	0	0.2235777	0	0
29.87521	0.01836636	0.01197932	-0.2401511	0.2434844	-2.414026	2.224139	0	0
29.89172	0.01523566	0.01496034	-0.189602	0.1805377	1.524348	-1.898206	0	0
29.90826	0.009420774	0.02400034	-0.3515541	0.5465365	-4.899852	11.07328	0	0
29.92483	0.007315659	0.03311073	-0.127065	0.5499038	6.780558	0.1017056	0	0
29.94139	0.006657796	0.04299823	-0.03970866	0.596811	2.636419	1.415663	0	0
29.95796	0.007341973	0.05666048	0.04129701	0.8246548	2.444756	6.876338	0	0
29.97453	0.007947201	0.0671903	0.0365316	0.6355816	-0.1438202	-5.706239	0	0
29.99109	0.008631364	0.08040219	0.04129619	0.7974709	0.1437956	4.885828	0	0
30.00766	0.009447088	0.08664323	0.04924281	0.3767532	0.2398433	-12.69802	0	0
30.02431	0.01178893	0.09768603	0.1406413	0.6631855	2.751602	8.623199	0	0
30.05739	0.01434112	0.1122892	0.07715418	0.4414628	-1.276629	-4.458503	0	0
30.07396	0.01497257	0.1200765	0.03811399	0.4700398	-0.7863654	0.575611	0	0
30.09052	0.01613018	0.1297115	0.06987369	0.5815721	0.9585097	3.366052	0	0
30.10739	0.01689313	0.1363617	0.04524953	0.3944102	-0.7366285	-5.598925	0	0
30.12366	0.01773498	0.1453854	0.05173149	0.5545053	0.1956257	4.83168	0	0
30.14023	0.01797175	0.1531059	0.01429125	0.4660085	-1.140055	-2.694726	0	0
30.1568	0.01918186	0.1636256	0.07303388	0.6348981	1.772754	5.096803	0	0
30.17336	0.02052343	0.1706347	0.08097778	0.4230712	0.2397338	-6.392579	0	0
30.18993	0.02110213	0.1769309	0.03493418	0.3800815	-1.389679	-1.297507	0	0
30.20694	0.01978689	0.1843773	-0.07729676	0.4376244	-3.342118	1.713565	0	0
30.22306	0.01860312	0.1886932	-0.07344836	0.2677848	0.1161517	-5.126064	0	0
30.23963	0.015604	0.1908953	-0.1810481	0.1329339	-3.29228	-4.126097	0	0
30.25619	0.01539352	0.1910397	-0.01270436	0.008714634	5.080915	-3.749162	0	0
30.28933	0.01563031	0.1908772	0.007146215	-0.004901926	0.3993944	-0.2739657	0	0
30.30589	0.01563031	0.1908772	0	0	-0.1437821	0.09862694	0	0
30.32253	0.01563031	0.1908772	0	0	0	0	0	0
30.33903	0.01563031	0.1908772	0	0	0	0	0	0
30.3556	0.01563031	0.1908772	0	0	0	0	0	0
30.37217	0.01565661	0.1908592	0.001587771	-0.001089991	0.04791627	-0.03289409	0	0
30.38873	0.01570923	0.190787	0.003176499	-0.004357369	0.04794789	-0.09860967	0	0
30.4053	0.01576185	0.1907509	0.00317602	-0.002178434	-1.443397E-05	0.06576419	0	0
30.4221	0.01576185	0.1907509	0	0	-0.09517315	0.0652793	0	0
30.43843	0.01576185	0.1907509	0	0	0	0	0	0
30.455	0.01576185	0.1907509	0	0	0	0	0	0
30.47157	0.01578816	0.1907328	0.001588066	-0.001090116	0.04792518	-0.03289788	0	0
30.48813	0.01578816	0.1906967	0	-0.002178434	-0.04792794	-0.03284548	0	0
30.5047	0.01581447	0.1906787	0.001588137	-0.001089342	0.04793283	0.03287073	0	0
30.52127	0.01584078	0.1906246	0.001588249	-0.003268027	3.394356E-06	-0.0657604	0	0
30.53783	0.01586709	0.1905704	0.001588066	-0.00326855	-5.519903E-06	-1.579023E-05	0	0
30.5544	0.01586709	0.1905704	0	0	-0.04792794	0.09864503	0	0
30.57097	0.01586709	0.1905704	0	0	0	0	0	0
30.58774	0.01586709	0.1905343	0	-0.002151435	0	-0.06452559	0	0
30.60423	0.01584078	0.1905163	-0.001595598	-0.001095286	-0.04796748	0.03175036	0	0
30.62074	0.01581447	0.1904621	-0.001593386	-0.003278597	6.702155E-05	-0.06615902	0	0
30.63725	0.01578816	0.190408	-0.001593458	-0.003279878	-2.157542E-06	-3.880049E-05	0	0
30.6538	0.01565661	0.1902816	-0.007950288	-0.007635086	-0.1923034	-0.1317514	0	0
30.67037	0.01549876	0.1901733	-0.009528174	-0.0065371	-0.04765086	0.03315829	0	0
30.68693	0.0153409	0.190029	-0.009528287	-0.008715534	-3.400992E-06	-0.06574526	0	0
30.7532	0.01526197	0.1899387	-0.00119107	-0.001361785	0.1006494	0.08877667	0	0
30.76977	0.01526197	0.1899387	0	0	0.01437896	0.01643988	0	0
30.78636	0.01526197	0.1899026	0	-0.002175576	0	-0.06560237	0	0
30.8029	0.01528828	0.1898846	0.001590941	-0.001091227	0.04801745	0.03272761	0	0
30.81947	0.01531459	0.1898304	0.001588249	-0.003268926	-8.130987E-05	-0.06578748	0	0
30.83603	0.01536721	0.1897582	0.003176077	-0.004357767	0.04792349	-0.03286316	0	0
30.8526	0.01539352	0.1897041	0.001588066	-0.00326855	-0.04792625	0.03287263	0	0
30.86917	0.01541983	0.1896138	0.001587884	-0.005447256	-5.515754E-06	-0.06574969	0	0
30.88574	0.01541983	0.1895777	0	-0.002178183	-0.04791691	0.09864946	0	0
30.9023	0.01541983	0.1895777	0	0	0	0.06573769	0	0
30.91896	0.01541983	0.1895777	0	0	0	0	0	0
30.93547	0.01541983	0.1895777	0	0	0	0	0	0
30.952	0.01539352	0.1895597	-0.001591181	-0.001092254	-0.04814943	-0.03305181	0	0
30.96857	0.01541983	0.1895416	0.001588066	-0.001089217	0.09604385	9.175143E-05	0	0
30.98514	0.01541983	0.1895416	0	0	-0.04792794	0.03287263	0	0
31.00171	0.01541983	0.1895416	0	0	0	0	0	0
31.01827	0.01541983	0.1895416	0	0	0	0	0	0
31.05155	0.01539352	0.1895597	-0.0007905746	0.0005422362	-0.01586013	0.01087809	0	0
31.06808	0.01539352	0.1895597	0	0	0.0158735	-0.01088725	0	0
31.08464	0.01539352	0.1895597	0	0	0	0	0	0
31.10121	0.01539352	0.1895597	0	0	0	0	0	0
31.1181	0.01539352	0.1895597	0	0	0	0	0	0
31.13435	0.01539352	0.1895597	0	0	0	0	0	0
31.15091	0.01539352	0.1895597	0	0	0	0	0	0
31.16764	0.01539352	0.1895597	0	0	0	0	0	0
31.18405	0.01541983	0.1895416	0.001603761	-0.001099981	0.04840438	-0.03319941	0	0
31.20066	0.01541983	0.1895416	0	0	-0.04856654	0.03331063	0	0
31.21718	0.01541983	0.1895416	0	0	0	0	0	0
31.23375	0.01541983	0.1895416	0	0	0	0	0	0
31.25031	0.01541983	0.1895416	0	0	0	0	0	0
31.26721	0.01539352	0.1895597	-0.001557054	0.001067946	-0.04653129	0.0319147	0	0
31.28345	0.01539352	0.1895597	0	0	0.046992	-0.03223069	0	0
31.30001	0.01539352	0.1895597	0	0	0	0	0	0
31.31658	0.01539352	0.1895597	0	0	0	0	0	0
31.33315	0.01539352	0.1895597	0	0	0	0	0	0
31.34971	0.01539352	0.1895597	0	0	0	0	0	0
31.36628	0.01539352	0.1895597	0	0	0	0	0	0
31.38285	0.01539352	0.1895597	0	0	0	0	0	0
31.39942	0.01539352	0.1895597	0	0	0	0	0	0
31.41632	0.01539352	0.1895597	0	0	0	0	0	0
31.43255	0.01539352	0.1895597	0	0	0	0	0	0
31.44934	0.01539352	0.1895597	0	0	0	0	0	0
31.46568	0.01539352	0.1895597	0	0	0	0	0	0
31.48225	0.01539352	0.1895597	0	0	0	0	0	0
31.49882	0.01539352	0.1895597	0	0	0	0	0	0
31.51539	0.01539352	0.1895597	0	0	0	0	0	0
31.53195	0.01539352	0.1895597	0	0	0	0	0	0
31.54852	0.01539352	0.1895597	0	0	0	0	0	0
31.56508	0.01539352	0.1895597	0	0	0	0	0	0
31.58165	0.01541983	0.1895416	0.001588066	-0.001089217	0.04792794	-0.03287263	0	0
31.59822	0.01539352	0.1895236	-0.001588249	-0.001089342	-0.09586692	-3.787686E-06	0	0
31.61478	0.01539352	0.1895236	0	0	0.04793622	0.03287831	0	0
31.63135	0.01539352	0.1895236	0	0	0	0	0	0
31.64798	0.01539352	0.1895236	0	0	0	0	0	0
31.66448	0.01539352	0.1895236	0	0	0	0	0	0
31.69762	0.01539352	0.1895236	0	0	0	0	0	0
31.73075	0.01541983	0.1895055	0.0007940332	-0.0005450582	0.01198199	-0.008224944	0	0
31.74755	0.0153409	0.1895597	-0.004697621	0.003222911	-0.1099732	0.07545552	0	0
31.76388	0.01536721	0.1895416	0.001611009	-0.001104992	0.1904058	-0.1306239	0	0
31.78045	0.01539352	0.1895236	0.001588066	-0.001089217	-0.0006973783	0.0004795053	0	0
31.79702	0.01536721	0.1894694	-0.001588066	-0.00326855	-0.09585588	-0.0657724	0	0
31.81359	0.01555138	0.1893069	0.01111635	-0.009806549	0.3834201	-0.1973172	0	0
31.83015	0.01607756	0.1889459	0.03176049	-0.02179153	0.6230413	-0.3617075	0	0
31.86364	0.01823482	0.1874655	0.06441653	-0.04420617	0.6523842	-0.4477871	0	0
31.87988	0.01828744	0.1874294	0.003240334	-0.002223621	-1.230254	0.8442693	0	0
31.89645	0.01828744	0.1874294	0	0	-0.0987714	0.06778011	0	0
31.91301	0.01828744	0.1874294	0	0	0	0	0	0
31.92958	0.01828744	0.1874294	0	0	0	0	0	0
31.94615	0.01828744	0.1874294	0	0	0	0	0	0
31.96271	0.01828744	0.1874294	0	0	0	0	0	0
31.97928	0.01828744	0.1874294	0	0	0	0	0	0
31.99585	0.01826113	0.1874474	-0.001587771	0.001089991	-0.04791627	0.03289409	0	0
32.01241	0.01807698	0.1876099	-0.01111779	0.009810607	-0.287633	0.2632039	0	0
32.02898	0.01802436	0.187646	-0.003175796	0.002179333	0.2397174	-0.2303388	0	0
32.04555	0.01805067	0.187628	0.001587842	-0.001089217	0.1437669	-0.09864502	0	0
32.06211	0.01805067	0.187628	0	0	-0.04792115	0.03287263	0	0
32.07879	0.01807698	0.1876099	0.001577421	-0.001082885	0.04744824	-0.03257279	0	0
32.09525	0.0181559	0.1875558	0.00479566	-0.003291428	0.09712664	-0.06665393	0	0
32.11182	0.01812959	0.1875377	-0.001587842	-0.001090116	-0.1932998	0.06665826	0	0
32.12838	0.01812959	0.1875377	0	0	0.04792115	0.03289977	0	0
32.14495	0.0181559	0.1875197	0.001587842	-0.001090116	0.04792115	-0.03289977	0	0
32.16152	0.0181559	0.1875197	0	0	-0.04792115	0.03289977	0	0
32.17809	0.01818221	0.1875016	0.001587954	-0.001089217	0.04792455	-0.03287263	0	0
32.19465	0.01818221	0.1875016	0	0	-0.04792455	0.03287263	0	0
32.21122	0.01818221	0.1875016	0	0	0	0	0	0
32.2279	0.01818221	0.1875016	0	0	0	0	0	0
32.24441	0.01818221	0.1875016	0	0	0	0	0	0
32.26092	0.01818221	0.1875016	0	0	0	0	0	0
32.27748	0.01818221	0.1875016	0	0	0	0	0	0
32.29405	0.01818221	0.1875016	0	0	0	0	0	0
32.31062	0.0181559	0.1875197	-0.001587954	0.001089217	-0.04792455	0.03287263	0	0
32.32719	0.0181559	0.1875197	0	0	0.04792455	-0.03287263	0	0
32.34375	0.0181559	0.1875197	0	0	0	0	0	0
32.36032	0.0181559	0.1875197	0	0	0	0	0	0
32.37701	0.0181559	0.1875197	0	0	0	0	0	0
32.39352	0.0181559	0.1875197	0	0	0	0	0	0
32.41002	0.0181559	0.1875197	0	0	0	0	0	0
32.42659	0.0181559	0.1875197	0	0	0	0	0	0
32.44315	0.0181559	0.1875197	0	0	0	0	0	0
32.45972	0.0181559	0.1875197	0	0	0	0	0	0
32.47628	0.0181559	0.1875197	0	0	0	0	0	0
32.49285	0.0181559	0.1875197	0	0	0	0	0	0
32.52599	0.0181559	0.1875197	0	0	0	0	0	0
32.54262	0.01818221	0.1875016	0.0015814	-0.001084721	0.03177393	-0.02179452	0	0
32.55912	0.01818221	0.1875016	0	0	-0.04773224	0.03274072	0	0
32.57568	0.01818221	0.1875016	0	0	0	0	0	0
32.60882	0.01818221	0.1875016	0	0	0	0	0	0
32.62568	0.01818221	0.1875016	0	0	0	0	0	0
32.64195	0.01818221	0.1875016	0	0	0	0	0	0
32.65852	0.01818221	0.1875016	0	0	0	0	0	0
32.67508	0.01818221	0.1875016	0	0	0	0	0	0
32.69165	0.01818221	0.1875016	0	0	0	0	0	0
32.70824	0.01818221	0.1875016	0	0	0	0	0	0
32.72478	0.0181559	0.1875197	-0.001590151	0.001090724	-0.04799638	0.0329219	0	0
32.74135	0.0181559	0.1875197	0	0	0.04802402	-0.03294086	0	0
32.77479	0.0181559	0.1875197	0	0	0	0	0	0
32.79129	0.0181559	0.1875197	0	0	0	0	0	0
32.8078	0.0181559	0.1875197	0	0	0	0	0	0
32.82432	0.0181559	0.1875197	0	0	0	0	0	0
32.84083	0.0181559	0.1875197	0	0	0	0	0	0
32.85734	0.0181559	0.1875197	0	0	0	0	0	0
32.87388	0.0181559	0.1875197	0	0	0	0	0	0
32.89087	0.01818221	0.1875016	0.001548728	-0.001062311	0.04619293	-0.03168487	0	0
32.90702	0.01818221	0.1875016	0	0	-0.0467407	0.0320606	0	0
32.92389	0.01818221	0.1875016	0	0	0	0	0	0
32.94015	0.01818221	0.1875016	0	0	0	0	0	0
32.95672	0.0181559	0.1874835	-0.001587954	-0.001090116	-0.04837004	-0.03320561	0	0
32.97343	0.0181559	0.1874835	0	0	0.04772127	0.03276023	0	0
32.98994	0.0181559	0.1874835	0	0	0	0	0	0
33.00645	0.0181559	0.1874835	0	0	0	0	0	0
33.02298	0.0181559	0.1874835	0	0	0	0	0	0
33.05649	0.0181559	0.1874835	0	0	0	0	0	0
33.07268	0.0181559	0.1874835	0	0	0	0	0	0
33.08951	0.0181559	0.1874835	0	0	0	0	0	0
33.10602	0.0181559	0.1874835	0	0	0	0	0	0
33.12253	0.0181559	0.1874835	0	0	0	0	0	0
33.13904	0.0181559	0.1874835	0	0	0	0	0	0
33.17208	0.0181559	0.1874835	0	0	0	0	0	0
33.18865	0.0181559	0.1874835	0	0	0	0	0	0
33.20522	0.0181559	0.1874835	0	0	0	0	0	0
33.22178	0.0181559	0.1874835	0	0	0	0	0	0
33.23835	0.0181559	0.1874835	0	0	0	0	0	0
33.25492	0.0181559	0.1874835	0	0	0	0	0	0
33.27164	0.0181559	0.1874835	0	0	0	0	0	0
33.28815	0.0181559	0.1874835	0	0	0	0	0	0
33.30462	0.01818221	0.1874655	0.001597518	-0.001096682	0.04844184	-0.03325489	0	0
33.32118	0.0181559	0.1874474	-0.001587954	-0.001089217	-0.09642636	0.0002259675	0	0
33.33775	0.0181559	0.1874113	0	-0.002180233	0.04792455	-0.03292692	0	0
33.35432	0.0181559	0.1873752	0	-0.002179333	0	2.715172E-05	0	0
33.37088	0.01818221	0.1872849	0.001587954	-0.005449682	0.04792455	-0.09869933	0	0
33.38772	0.01823482	0.1869599	0.003125421	-0.0193073	0.04602988	-0.4148803	0	0
33.40423	0.01734037	0.1856597	-0.05417643	-0.07875408	-1.718492	-1.782819	0	0
33.42058	0.01410433	0.1819563	-0.1978793	-0.2264568	-4.372703	-4.494415	0	0
33.43725	0.01202574	0.1701097	-0.1246889	-0.7106407	2.21629	-14.66165	0	0
33.45376	0.01228886	0.1623932	0.01593694	-0.4673854	4.23824	7.331333	0	0
33.47028	0.01231517	0.1405843	0.001592579	-1.320036	-0.4342637	-25.81327	0	0
33.48685	0.01226254	0.1313703	-0.003176358	-0.5561581	-0.1441259	23.08576	0	0
33.50342	0.01186786	0.1129844	-0.02382291	-1.109777	-0.6231141	-16.70824	0	0
33.51999	0.01149949	0.1000528	-0.0222349	-0.7805538	0.04792622	9.935964	0	0
33.53655	0.01060487	0.0879676	-0.05399983	-0.7294618	-0.9586675	1.541959	0	0
33.55312	0.01023648	0.07378301	-0.02223552	-0.8561838	0.9586488	-3.824477	0	0
33.56985	0.008973443	0.06465752	-0.07547273	-0.5452914	-1.598605	9.335462	0	0
33.58625	0.006473594	0.05426935	-0.1524356	-0.6334488	-2.322742	-2.660594	0	0
33.60282	0.005421	0.0496312	-0.06353471	-0.2799589	2.696693	10.72266	0	0
33.63596	0.000736842	0.03776914	-0.1413682	-0.357998	-1.566012	-1.570149	0	0
33.67196	-0.004763122	0.02663501	-0.1527797	-0.3092873	-0.1650652	0.7045864	0	0
33.68852	-0.008683993	0.01748939	-0.2366642	-0.5520306	-1.595778	-4.61783	0	0
33.70509	-0.01144687	0.01154789	-0.1667675	-0.3586299	2.109488	5.836844	0	0
33.72166	-0.0137886	0.003904432	-0.1413472	-0.4613601	0.7671864	-3.100404	0	0
33.73822	-0.01415695	-0.0009121226	-0.02223361	-0.2907278	3.594855	5.149694	0	0
33.75479	-0.01410433	-0.00739539	0.003176189	-0.3913308	0.7668691	-3.036207	0	0
33.7715	-0.01242041	-0.00932022	0.1007826	-0.1152015	2.933274	8.298252	0	0
33.78801	-0.009894414	-0.01113287	0.1529981	-0.1097907	1.571885	0.1628843	0	0
33.80452	-0.006157817	-0.01381594	0.2263231	-0.1625118	2.220623	-1.596638	0	0
33.82106	-0.00557889	-0.01423182	0.03500861	-0.02514936	-5.789213	4.156611	0	0
33.83804	-0.00557889	-0.01423182	0	0	-1.044299	0.7501995	0	0
33.85419	-0.005605204	-0.01421292	-0.001629652	0.001170756	-0.04918298	0.03533349	0	0
33.87076	-0.005605204	-0.01421292	0	0	0.04981383	-0.03578669	0	0
33.88758	-0.005605204	-0.01421292	0	0	0	0	0	0
