Time	Pos X	Pos Y	Vel X	Vel Y	Acc X	Acc YForce X	Force Y
0.01650949	0.01928708	0.2143202	-0.0003053819	-0.003393438	4.836538E-06	5.374415E-05	0	0
0.05047629	0.01926078	0.2143022	-0.0007744663	-0.0005299471	7.431242E-06	-4.536346E-05	0	0
0.06704618	0.01928708	0.2142842	0.001587587	-0.001085445	0.04673937	-0.01099197	0	0
0.08360976	0.01926078	0.2142662	-0.001588192	-0.001086758	-0.09584805	-3.963258E-05	0	0
0.1001789	0.01926078	0.2142662	0	0	0.04793429	0.03280018	0	0
0.117078	0.01923447	0.2142482	-0.001556658	-0.001064298	-0.04651152	-0.03180027	0	0
0.1335898	0.01918186	0.2142122	-0.003186333	-0.002179422	-0.04877665	-0.03337597	0	0
0.1498795	0.01912924	0.2141763	-0.003229803	-0.002209155	-0.001325258	-0.0009064653	0	0
0.1666171	0.01886618	0.2139603	-0.01571673	-0.01290011	-0.3780789	-0.3237007	0	0
0.1831254	0.01670897	0.2124847	-0.1306743	-0.08938543	-3.457788	-2.300588	0	0
0.1996377	0.01610387	0.2120348	-0.03664555	-0.02724798	2.84758	1.88178	0	0
0.2161555	0.01610387	0.2120348	0	0	1.109461	0.8249451	0	0
0.2327131	0.01610387	0.2120348	0	0	0	0	0	0
0.2492795	0.01610387	0.2120348	0	0	0	0	0	0
0.2658462	0.01610387	0.2120348	0	0	0	0	0	0
0.2824133	0.01610387	0.2120348	0	0	0	0	0	0
0.3557859	0.01610387	0.2120348	0	0	0	0	0	0
0.3723538	0.01610387	0.2120348	0	0	0	0	0	0
0.388919	0.01610387	0.2120348	0	0	0	0	0	0
0.4054853	0.01610387	0.2120348	0	0	0	0	0	0
0.422052	0.01610387	0.2120348	0	0	0	0	0	0
0.4553138	0.01613018	0.2120528	0.0007909386	0.0005411803	0.01587323	0.01086087	0	0
0.4718268	0.01613018	0.2120528	0	0	-0.01589034	-0.01087258	0	0
0.4883411	0.01610387	0.2120708	-0.001593049	0.001090005	-0.04823433	0.03300316	0	0
0.5048849	0.01610387	0.2120708	0	0	0.04818941	-0.03297242	0	0
0.5214517	0.01610387	0.2120708	0	0	0	0	0	0
0.538018	0.01610387	0.2120708	0	0	0	0	0	0
0.5545847	0.01610387	0.2120708	0	0	0	0	0	0
0.571395	0.01610387	0.2120708	0	0	0	0	0	0
0.5877182	0.01613018	0.2120888	0.001611699	0.001101852	0.04864265	0.03325499	0	0
0.6042849	0.01613018	0.2120888	0	0	-0.04900284	-0.03350124	0	0
0.6208517	0.01613018	0.2120888	0	0	0	0	0	0
0.637418	0.01613018	0.2120888	0	0	0	0	0	0
0.6539848	0.01613018	0.2120888	0	0	0	0	0	0
0.6705515	0.01615649	0.2121068	0.001588112	0.00108655	0.0479307	0.03279308	0	0
0.6871183	0.01615649	0.2121068	0	0	-0.0479307	-0.03279308	0	0
0.7039894	0.01615649	0.2121068	0	0	0	0	0	0
0.720502	0.01615649	0.2121068	0	0	0	0	0	0
0.7368185	0.01615649	0.2121068	0	0	0	0	0	0
0.7533852	0.01615649	0.2121068	0	0	0	0	0	0
0.7700384	0.01615649	0.2121068	0	0	0	0	0	0
0.7865475	0.01615649	0.2121068	0	0	0	0	0	0
0.8030859	0.01615649	0.2121068	0	0	0	0	0	0
0.819653	0.01615649	0.2121068	0	0	0	0	0	0
0.852786	0.01615649	0.2121068	0	0	0	0	0	0
0.8693528	0.01615649	0.2121068	0	0	0	0	0	0
0.8859191	0.01615649	0.2121068	0	0	0	0	0	0
0.9024858	0.01615649	0.2121068	0	0	0	0	0	0
0.9190518	0.01615649	0.2121068	0	0	0	0	0	0
0.9356189	0.01615649	0.2121068	0	0	0	0	0	0
0.9521852	0.01615649	0.2121068	0	0	0	0	0	0
0.968752	0.01615649	0.2121068	0	0	0	0	0	0
0.9853195	0.01615649	0.2121068	0	0	0	0	0	0
1.001885	0.01615649	0.2121068	0	0	0	0	0	0
1.018451	0.01615649	0.2121068	0	0	0	0	0	0
1.035225	0.01615649	0.2121068	0	0	0	0	0	0
1.051585	0.01615649	0.2121068	0	0	0	0	0	0
1.068248	0.01615649	0.2121068	0	0	0	0	0	0
1.084719	0.01615649	0.2121068	0	0	0	0	0	0
1.101285	0.01615649	0.2121068	0	0	0	0	0	0
1.117852	0.01615649	0.2121068	0	0	0	0	0	0
1.134418	0.01615649	0.2121068	0	0	0	0	0	0
1.150985	0.01615649	0.2121068	0	0	0	0	0	0
1.167552	0.01615649	0.2121068	0	0	0	0	0	0
1.18433	0.01615649	0.2121068	0	0	0	0	0	0
1.220854	0.01615649	0.2121068	0	0	0	0	0	0
1.253619	0.01615649	0.2121068	0	0	0	0	0	0
1.270185	0.01615649	0.2121068	0	0	0	0	0	0
1.286752	0.01615649	0.2121068	0	0	0	0	0	0
1.303413	0.01615649	0.2121068	0	0	0	0	0	0
1.319925	0.01615649	0.2121068	0	0	0	0	0	0
1.336452	0.01615649	0.2121068	0	0	0	0	0	0
1.353019	0.01615649	0.2121068	0	0	0	0	0	0
1.369586	0.01615649	0.2121068	0	0	0	0	0	0
1.386153	0.01615649	0.2121068	0	0	0	0	0	0
1.402718	0.01615649	0.2121068	0	0	0	0	0	0
1.419285	0.01615649	0.2121068	0	0	0	0	0	0
1.436008	0.01615649	0.2121068	0	0	0	0	0	0
1.452419	0.01615649	0.2121068	0	0	0	0	0	0
1.469029	0.01615649	0.2121068	0	0	0	0	0	0
1.485552	0.01615649	0.2121068	0	0	0	0	0	0
1.502554	0.01615649	0.2121068	0	0	0	0	0	0
1.518686	0.01615649	0.2121068	0	0	0	0	0	0
1.535578	0.01615649	0.2121068	0	0	0	0	0	0
1.551818	0.01615649	0.2121068	0	0	0	0	0	0
1.568385	0.01615649	0.2121068	0	0	0	0	0	0
1.584952	0.01615649	0.2121068	0	0	0	0	0	0
1.601519	0.01615649	0.2121068	0	0	0	0	0	0
1.618135	0.01615649	0.2121068	0	0	0	0	0	0
1.634652	0.01615649	0.2121068	0	0	0	0	0	0
1.651219	0.01615649	0.2121068	0	0	0	0	0	0
1.667786	0.01615649	0.2121068	0	0	0	0	0	0
1.684685	0.01615649	0.2121068	0	0	0	0	0	0
1.700919	0.01615649	0.2121068	0	0	0	0	0	0
1.717705	0.01615649	0.2121068	0	0	0	0	0	0
1.734217	0.01615649	0.2121068	0	0	0	0	0	0
1.75073	0.01615649	0.2121068	0	0	0	0	0	0
1.76724	0.01615649	0.2121068	0	0	0	0	0	0
1.783752	0.01615649	0.2121068	0	0	0	0	0	0
1.800319	0.01615649	0.2121068	0	0	0	0	0	0
1.817277	0.01615649	0.2121068	0	0	0	0	0	0
1.833452	0.01615649	0.2121068	0	0	0	0	0	0
1.850019	0.01615649	0.2121068	0	0	0	0	0	0
1.866586	0.01615649	0.2121068	0	0	0	0	0	0
1.883152	0.01615649	0.2121068	0	0	0	0	0	0
1.949422	0.01615649	0.2121068	0	0	0	0	0	0
1.965986	0.01615649	0.2121068	0	0	0	0	0	0
1.982554	0.01615649	0.2121068	0	0	0	0	0	0
1.999405	0.01615649	0.2121068	0	0	0	0	0	0
2.015685	0.01615649	0.2121068	0	0	0	0	0	0
2.032252	0.01615649	0.2121068	0	0	0	0	0	0
2.048819	0.01615649	0.2121068	0	0	0	0	0	0
2.081951	0.01615649	0.2121068	0	0	0	0	0	0
2.10093	0.01615649	0.2121068	0	0	0	0	0	0
2.117497	0.01615649	0.2121068	0	0	0	0	0	0
2.134064	0.01615649	0.2121068	0	0	0	0	0	0
2.151011	0.01615649	0.2121068	0	0	0	0	0	0
2.167197	0.01615649	0.2121068	0	0	0	0	0	0
2.183764	0.01615649	0.2121068	0	0	0	0	0	0
2.200546	0.01615649	0.2121068	0	0	0	0	0	0
2.216898	0.01615649	0.2121068	0	0	0	0	0	0
2.233464	0.01615649	0.2121068	0	0	0	0	0	0
2.250031	0.01615649	0.2121068	0	0	0	0	0	0
2.266598	0.01615649	0.2121068	0	0	0	0	0	0
2.283165	0.01615649	0.2121068	0	0	0	0	0	0
2.299731	0.01615649	0.2121068	0	0	0	0	0	0
2.316297	0.01615649	0.2121068	0	0	0	0	0	0
2.332864	0.01615649	0.2121068	0	0	0	0	0	0
2.349652	0.01615649	0.2121068	0	0	0	0	0	0
2.365997	0.01613018	0.2120888	-0.001609679	-0.001101305	-0.04858197	-0.03323866	0	0
2.382678	0.01599864	0.2119628	-0.007886088	-0.007552206	-0.1900487	-0.1953323	0	0
2.399188	0.0150778	0.2113689	-0.05577331	-0.03597525	-1.442789	-0.8563549	0	0
2.432264	0.0002105263	0.201229	-0.4494845	-0.30656	-7.939881	-5.45682	0	0
2.448831	-0.01986581	0.1876099	-1.211845	-0.8220712	-15.35684	-10.38436	0	0
2.465398	-0.0284134	0.1817756	-0.5159488	-0.3521726	21.00278	14.18198	0	0
2.482245	-0.04168636	0.1728246	-0.7878356	-0.5312991	-8.136881	-5.360804	0	0
2.498758	-0.05851208	0.161795	-1.01896	-0.6679457	-6.928199	-4.096119	0	0
2.515098	-0.07085487	0.1547758	-0.755361	-0.4295699	8.023627	7.255856	0	0
2.531664	-0.08892278	0.1483659	-1.090644	-0.3869254	-10.18894	1.295927	0	0
2.548231	-0.1088314	0.1450218	-1.201689	-0.2018451	-3.351452	5.585895	0	0
2.564798	-0.1190398	0.1443492	-0.6161942	-0.0406035	17.67052	4.866351	0	0
2.581364	-0.1392508	0.1433491	-1.220028	-0.06036908	-18.22465	-0.5965564	0	0
2.597932	-0.1580907	0.1414575	-1.13713	-0.1141695	2.501889	-1.623722	0	0
2.614499	-0.1660362	0.1401113	-0.4795891	-0.08126223	19.8442	0.9931208	0	0
2.631351	-0.177991	0.1363981	-0.7093935	-0.2203376	-6.876383	-4.16152	0	0
2.647631	-0.18115	0.1357426	-0.194052	-0.04026742	15.55438	5.434999	0	0
2.6974	-0.2105937	0.1308782	-0.591604	-0.09773853	-6.019081	-0.8701333	0	0
2.713912	-0.2126312	0.1294016	-0.1234017	-0.08942804	7.063941	0.1253833	0	0
2.730465	-0.2163244	0.1267208	-0.2231037	-0.1619477	-3.015325	-2.193238	0	0
2.747031	-0.2166005	0.1265201	-0.01666751	-0.0121125	6.232992	4.52402	0	0
2.763599	-0.2166256	0.1265384	-0.00151465	0.00110091	0.4573272	0.398793	0	0
2.780459	-0.2166256	0.1265384	0	0	0.04531121	-0.03293404	0	0
2.796733	-0.2166256	0.1265384	0	0	0	0	0	0
2.813483	-0.2166256	0.1265384	0	0	0	0	0	0
2.829865	-0.2166256	0.1265384	0	0	0	0	0	0
2.846433	-0.2166256	0.1265384	0	0	0	0	0	0
2.862998	-0.2166507	0.1265566	-0.001515746	0.001101052	-0.04574727	0.03323125	0	0
2.879565	-0.2168766	0.1267208	-0.01363533	0.009910555	-0.3658041	0.2658962	0	0
2.896135	-0.219786	0.1288364	-0.1755768	0.1276717	-4.887051	3.553782	0	0
2.913052	-0.2237177	0.1316984	-0.2324123	0.1691777	-1.697212	1.239444	0	0
2.929266	-0.2262933	0.1336115	-0.1588565	0.1179995	2.22019	-1.544749	0	0
2.946084	-0.2347984	0.1398201	-0.5056952	0.3691515	-10.5001	7.603309	0	0
2.978966	-0.2407389	0.1442037	-0.180666	0.1333163	6.53985	-4.745196	0	0
3.000831	-0.2435168	0.1462761	-0.1270458	0.09477735	0.9794205	-0.7039486	0	0
3.017626	-0.243492	0.1462579	0.001476413	-0.001082466	3.32442	-2.479557	0	0
3.033966	-0.243492	0.1462579	0	0	-0.04455791	0.03266866	0	0
3.050533	-0.243492	0.1462579	0	0	0	0	0	0
3.067099	-0.243492	0.1462579	0	0	0	0	0	0
3.083667	-0.243492	0.1462579	0	0	0	0	0	0
3.100232	-0.243492	0.1462579	0	0	0	0	0	0
3.1168	-0.2434673	0.1462397	0.001495762	-0.001097312	0.04514446	-0.0331186	0	0
3.133366	-0.2434673	0.1462397	0	0	-0.04514283	0.03311741	0	0
3.14994	-0.2434425	0.1462215	0.001495202	-0.001096901	0.04511751	-0.03309883	0	0
3.166499	-0.2434177	0.1462034	0.001497351	-0.001096917	6.484299E-05	-4.848731E-07	0	0
3.183067	-0.2434177	0.1462034	0	0	-0.04520055	0.03311266	0	0
3.199633	-0.2433929	0.1461852	0.001495869	-0.001097391	0.04514705	-0.03312051	0	0
3.216199	-0.2433681	0.146167	0.001496704	-0.001097343	2.519953E-05	1.430035E-06	0	0
3.232766	-0.2433433	0.1461488	0.001495805	-0.001097343	-2.714899E-05	0	0	0
3.249332	-0.2433185	0.1461307	0.001496769	-0.001096491	2.909962E-05	2.571954E-05	0	0
3.265899	-0.243269	0.1460943	0.002992423	-0.002194623	0.04514056	-0.03314289	0	0
3.282467	-0.2432442	0.1460761	0.001495762	-0.001097312	-0.04516933	0.03311693	0	0
3.299033	-0.2431946	0.1460398	0.002992595	-0.00219385	0.04517582	-0.03309456	0	0
3.315836	-0.2431698	0.1460216	0.001475638	-0.001081898	-0.04545934	0.03332238	0	0
3.332166	-0.243145	0.1460034	0.001518381	-0.001113236	0.001290035	-0.0009458192	0	0
3.348859	-0.2431202	0.1459853	0.001484525	-0.001088175	-0.001025247	0.0007588968	0	0
3.365299	-0.2430954	0.1459671	0.001508208	-0.001105778	0.0007148013	-0.0005312628	0	0
3.381866	-0.2430954	0.1459671	0	0	-0.04569338	0.03350116	0	0
3.398433	-0.2430954	0.1459671	0	0	0	0	0	0
3.415	-0.2430706	0.1459489	0.001496747	-0.001097375	0.04517323	-0.03311979	0	0
3.431917	-0.2430706	0.1459489	0	0	-0.0447004	0.03277313	0	0
3.448133	-0.2430458	0.1459671	0.001529097	0.001121093	0.04614957	0.03383562	0	0
3.4647	-0.2428723	0.1461307	0.01047483	0.009874007	0.2728769	0.2669953	0	0
3.481267	-0.2422028	0.1466214	0.04041578	0.02962193	0.9036456	0.5960106	0	0
3.497833	-0.2410615	0.1474573	0.06888816	0.05046036	0.8593476	0.6289413	0	0
3.514477	-0.2386033	0.1492924	0.1476985	0.1102535	2.373089	1.800454	0	0
3.530991	-0.2344748	0.1522708	0.2499964	0.1803518	3.085158	2.114066	0	0
3.547533	-0.2298391	0.1556831	0.2802308	0.2062816	0.914627	0.7844079	0	0
3.5641	-0.2164248	0.165365	0.8097144	0.5844181	15.99216	11.42097	0	0
3.580667	-0.2044452	0.1739826	0.7230785	0.5201489	-2.614695	-1.939662	0	0
3.597538	-0.1863138	0.1868877	1.074756	0.7649619	10.51737	7.321461	0	0
3.614049	-0.1713555	0.1974434	0.9059333	0.6392988	-5.057331	-3.764431	0	0
3.630367	-0.155549	0.2085605	0.9686518	0.681275	1.910432	1.27861	0	0
3.646936	-0.1341887	0.2234018	1.289216	0.8957548	9.747595	6.52182	0	0
3.663501	-0.1237072	0.2306425	0.6327501	0.4371078	-19.81276	-13.84239	0	0
3.680099	-0.09794872	0.2482103	1.551902	1.058431	27.71614	18.7354	0	0
3.696639	-0.0882178	0.2547171	0.5883158	0.3933901	-29.07775	-20.06867	0	0
3.713201	-0.06978125	0.2670582	1.113217	0.7451648	15.85718	10.62706	0	0
3.730136	-0.05664985	0.2757387	0.7753952	0.512579	-10.08525	-6.943559	0	0
3.746334	-0.04775314	0.2814457	0.5492498	0.3523234	-6.825374	-4.836733	0	0
3.846213	0.01976059	0.3053823	0.6759534	0.2396556	1.091546	-0.970628	0	0
3.866353	0.02023408	0.3050607	0.02350964	-0.01596922	-5.436141	-2.129858	0	0
3.882921	0.02023408	0.3050607	0	0	-0.6404563	0.4350381	0	0
3.899488	0.02023408	0.3050607	0	0	0	0	0	0
3.916054	0.02023408	0.3050607	0	0	0	0	0	0
3.932621	0.02023408	0.3049892	0	-0.004313943	0	-0.1302007	0	0
3.949283	0.02020778	0.3049356	-0.001578642	-0.003217648	-0.04750814	0.03299223	0	0
3.965755	0.02020778	0.3048998	0	-0.002169429	0.04764454	0.03163601	0	0
3.982321	0.02015517	0.3048641	-0.003175662	-0.002156909	-0.09612179	0.0003789447	0	0
3.998889	0.02012886	0.3048463	-0.001587819	-0.001077509	0.04792155	0.03257661	0	0
4.015454	0.02004994	0.3047569	-0.00476378	-0.005393561	-0.09585483	-0.1302643	0	0
4.032022	0.01999733	0.3046497	-0.003175479	-0.006470356	0.04793672	-0.0324989	0	0
4.048856	0.01989211	0.3044353	-0.006250575	-0.01273794	-0.09206463	-0.1876439	0	0
4.065155	0.01978689	0.3043281	-0.006455678	-0.006576926	-0.006190269	0.1859478	0	0
4.081877	0.01947122	0.3040422	-0.01887772	-0.01709714	-0.3761865	-0.3185919	0	0
4.098389	0.01931339	0.3038992	-0.009558575	-0.008657845	0.280409	0.2539347	0	0
4.114854	0.01915555	0.3037205	-0.009586094	-0.01085288	-0.0008344675	-0.06656149	0	0
4.131421	0.01844528	0.3032024	-0.04287352	-0.03127788	-1.007735	-0.618341	0	0
4.147988	0.01718252	0.3023446	-0.07622011	-0.05177333	-1.006417	-0.6185626	0	0
4.164555	0.01657743	0.3019336	-0.0365255	-0.02480967	1.19802	0.8137883	0	0
4.181121	0.01657743	0.3019336	0	0	1.102405	0.7488003	0	0
4.197969	0.01660374	0.3019158	0.001561549	-0.001059532	0.04673221	-0.03170842	0	0
4.214255	0.01660374	0.3019158	0	0	-0.04712833	0.0319772	0	0
4.230822	0.01665635	0.30188	0.003176	-0.002158708	0.09667548	-0.06570975	0	0
4.247389	0.01676159	0.3018085	0.006351746	-0.00431357	0.09584421	-0.06503388	0	0
4.263955	0.01697205	0.3016298	0.01270484	-0.01078697	0.1917423	-0.1953731	0	0
4.280523	0.01726144	0.3012903	0.0174671	-0.02049396	0.1437295	-0.292966	0	0
4.297088	0.01734037	0.3010937	0.004764411	-0.01186672	-0.3833846	0.2603816	0	0
4.314041	0.01862942	0.3000751	0.07603712	-0.06008635	2.126381	-1.438605	0	0
4.330221	0.02394279	0.2964649	0.3283904	-0.2231264	7.616365	-4.920771	0	0
4.346789	0.03283031	0.290387	0.5364359	-0.3668514	6.352973	-4.388851	0	0
4.363355	0.03677289	0.287705	0.2379953	-0.161898	-9.007214	6.185681	0	0
4.37992	0.03853355	0.286507	0.1062829	-0.07232089	-3.975431	2.703677	0	0
4.396491	0.04528481	0.2819107	0.4074364	-0.2773831	9.088437	-6.188523	0	0
4.413054	0.04607264	0.2813741	0.04756298	-0.03239701	-10.86116	7.393801	0	0
4.429621	0.04607264	0.2813741	0	0	-1.435619	0.9778564	0	0
4.446187	0.0460989	0.2813562	0.001585122	-0.001079385	0.04784115	-0.03257732	0	0
4.462754	0.0460989	0.2813562	0	0	-0.04784115	0.03257732	0	0
4.479321	0.04612515	0.2813383	0.001585031	-0.001079323	0.04783701	-0.0325745	0	0
4.495888	0.04612515	0.2813383	0	0	-0.0478377	0.03257497	0	0
4.595288	0.04615141	0.2812847	0.0002641807	-0.0005399795	0.002278081	-0.004656347	0	0
4.611854	0.04615141	0.2812847	0	0	-0.002278081	0.004656347	0	0
4.628421	0.04615141	0.2812847	0	0	0	0	0	0
4.645275	0.04615141	0.2812847	0	0	0	0	0	0
4.661792	0.04615141	0.2812847	0	0	0	0	0	0
4.678122	0.04615141	0.2812847	0	0	0	0	0	0
4.694689	0.04615141	0.2812847	0	0	0	0	0	0
4.727822	0.04615141	0.2812847	0	0	0	0	0	0
4.744387	0.04615141	0.2812847	0	0	0	0	0	0
4.764921	0.04615141	0.2812847	0	0	0	0	0	0
4.781488	0.04615141	0.2812847	0	0	0	0	0	0
4.798056	0.04612515	0.2812668	-0.001584985	-0.001079292	-0.04783357	-0.03257216	0	0
4.814895	0.04612515	0.2812668	0	0	0.04744576	0.03230808	0	0
4.831189	0.04612515	0.281231	0	-0.002194779	0	-0.06624144	0	0
4.847756	0.0460989	0.2812131	-0.001585076	-0.001081153	-0.04823545	0.03388876	0	0
4.864322	0.0460989	0.2812131	0	0	0.04783977	0.03263067	0	0
4.880942	0.0460989	0.2811773	0	-0.002151772	0	-0.06483889	0	0
4.897455	0.0460989	0.2811416	0	-0.002165752	0	-0.000421952	0	0
4.914022	0.0460989	0.2811058	0	-0.002160445	0	0.0001604401	0	0
4.930589	0.0460989	0.28107	0	-0.00215877	0	5.053851E-05	0	0
4.947489	0.04607264	0.2810521	-0.001553771	-0.001058037	-0.04642722	0.0328903	0	0
4.963724	0.04607264	0.2810163	0	-0.002204673	0.04689156	-0.03460455	0	0
4.980289	0.04599386	0.2809269	-0.00475564	-0.005399036	-0.1449881	-0.09738853	0	0
4.996858	0.04591507	0.2808375	-0.004755044	-0.005398104	1.798924E-05	2.813629E-05	0	0
5.013539	0.04538986	0.2803724	-0.0314847	-0.0278806	-0.803903	-0.6761683	0	0
5.030057	0.04181771	0.2778679	-0.2162624	-0.1516256	-5.565707	-3.727338	0	0
5.046559	0.03127927	0.2706205	-0.6386014	-0.4391723	-12.79039	-8.708252	0	0
5.063123	0.02268032	0.2647663	-0.5191531	-0.3534392	3.612445	2.592804	0	0
5.07969	0.01155212	0.2571898	-0.6716997	-0.4573182	-4.604397	-3.135436	0	0
5.096257	0.004263132	0.2522618	-0.4399641	-0.2974578	6.993796	4.824594	0	0
5.112823	-0.003552617	0.2469731	-0.4718002	-0.3192545	-0.9608594	-0.6578515	0	0
5.12939	-0.006078872	0.2452156	-0.1524895	-0.1060843	9.637372	6.433858	0	0
5.145956	-0.009604968	0.2428838	-0.2128478	-0.1407536	-1.821696	-1.046367	0	0
5.179155	-0.01123637	0.2417357	-0.04914033	-0.03458358	3.289604	2.133423	0	0
5.195657	-0.01121006	0.2417895	0.001594476	0.003261529	1.020796	0.7614524	0	0
5.212224	-0.01121006	0.2417895	0	0	-0.04821576	-0.09862617	0	0
5.228791	-0.01118374	0.2418075	0.001588281	0.001082952	0.0479351	0.03268403	0	0
5.245357	-0.01118374	0.2418075	0	0	-0.04793717	-0.03268544	0	0
5.261923	-0.01115743	0.2418254	0.001588372	0.001083014	0.04794131	0.03268826	0	0
5.295238	-0.01113112	0.2418792	0.0007898211	0.001615145	-0.01600928	0.01066812	0	0
5.311625	-0.01110481	0.2418972	0.001605705	0.001094832	0.01641561	-0.01046873	0	0
5.32826	-0.01110481	0.2418972	0	0	-0.048624	-0.03315374	0	0
5.344757	-0.01110481	0.2418972	0	0	0	0	0	0
5.361322	-0.01110481	0.241933	0	0.002166029	0	0.06551418	0	0
5.377889	-0.01107849	0.2419869	0.001588327	0.003248949	0.04793924	0.03268496	0	0
5.394456	-0.01105218	0.2420407	0.001588179	0.003248762	-4.455147E-06	-5.642717E-06	0	0
5.411023	-0.01105218	0.2421125	0	0.004331808	-0.04793203	0.03268686	0	0
5.427589	-0.01102587	0.2421304	0.001588327	0.001082983	0.04793786	-0.09805396	0	0
5.444155	-0.01102587	0.2421663	0	0.002165067	-0.04793855	0.03265923	0	0
5.460722	-0.01102587	0.242238	0	0.004331808	0	0.06539521	0	0
5.477299	-0.01105218	0.2423636	-0.001587321	0.007575186	-0.04789236	0.09785857	0	0
5.493876	-0.01086799	0.2425968	0.01111093	0.01406857	0.383008	0.1958551	0	0
5.516654	-0.01084168	0.2426148	0.001155177	0.0007876447	-0.2529712	-0.3374623	0	0
5.533222	-0.01071012	0.2427045	0.007941003	0.005413549	0.1724666	0.1175706	0	0
5.566355	-0.01071012	0.2427045	0	0	-0.1597748	-0.1089219	0	0
5.582922	-0.01071012	0.2427045	0	0	0	0	0	0
5.59949	-0.01071012	0.2427045	0	0	0	0	0	0
5.616055	-0.01071012	0.2427045	0	0	0	0	0	0
5.632622	-0.0106838	0.2426865	0.001588281	-0.001082952	0.04793717	-0.03268544	0	0
5.649189	-0.0106838	0.2426865	0	0	-0.04793648	0.03268497	0	0
5.668853	-0.01065749	0.2427045	0.001338061	0.0009123424	0.03693135	0.02518124	0	0
5.686016	-0.01065749	0.2427045	0	0	-0.03633361	-0.02477368	0	0
5.701987	-0.01057855	0.2427583	0.004942377	0.003369906	0.1491634	0.1017054	0	0
5.718554	-0.01042068	0.2428659	0.009529797	0.006496812	0.1409848	0.09609891	0	0
5.735121	-0.00994704	0.2431888	0.02858868	0.01948988	0.5752066	0.3921371	0	0
5.751688	-0.008473481	0.2441574	0.08894676	0.05846681	1.821637	1.176343	0	0
5.768254	-0.005868354	0.2458971	0.1572548	0.1050152	2.061631	1.404893	0	0
5.784822	-0.0008421051	0.2492144	0.303385	0.2002297	4.410344	2.873663	0	0
5.801387	0.001473683	0.250792	0.1397933	0.0952324	-4.937419	-3.168962	0	0
5.817955	0.005236794	0.2532117	0.2271418	0.1460558	2.636297	1.533919	0	0
5.851088	0.006420964	0.2539824	0.03573935	0.02325918	-3.8511	-2.47072	0	0
5.867655	0.006420964	0.2539824	0	0	-0.7190979	-0.4679891	0	0
5.884221	0.006420964	0.2539824	0	0	0	0	0	0
5.900787	0.006420964	0.2539824	0	0	0	0	0	0
5.917674	0.006420964	0.2539824	0	0	0	0	0	0
5.933921	0.006420964	0.2539824	0	0	0	0	0	0
5.950488	0.00639465	0.2539644	-0.001588393	-0.001082952	-0.04840592	-0.03300272	0	0
5.967054	0.00639465	0.2539644	0	0	0.04793987	0.03268497	0	0
5.983722	0.00639465	0.2539644	0	0	0	0	0	0
6.000188	0.00639465	0.2539644	0	0	0	0	0	0
6.016756	0.00639465	0.2539644	0	0	0	0	0	0
6.033322	0.00639465	0.2539644	0	0	0	0	0	0
6.049888	0.00639465	0.2539644	0	0	0	0	0	0
6.066455	0.006368335	0.2539824	-0.00158833	0.00108289	-0.04793796	0.03268309	0	0
6.083021	0.006368335	0.2539824	0	0	0.04793727	-0.03268261	0	0
6.099587	0.006368335	0.2539824	0	0	0	0	0	0
6.116155	0.00634202	0.2539644	-0.001588347	-0.001082921	-0.0479378	-0.03268356	0	0
6.132826	0.00634202	0.2539644	0	0	0.04778582	0.03257994	0	0
6.149288	0.006315705	0.2539107	-0.001598544	-0.003265939	-0.04824553	-0.09856907	0	0
6.165854	0.006315705	0.2539107	0	0	0.04839947	0.09888356	0	0
6.182421	0.006289391	0.2538927	-0.001588393	-0.001081153	-0.04793987	-0.03263067	0	0
6.199374	0.006263076	0.2538748	-0.001552233	-0.001056521	0.001078788	0.000734846	0	0
6.215887	0.006263076	0.2538748	0	0	0.04638322	0.03157057	0	0
6.232121	0.006263076	0.2538748	0	0	0	0	0	0
6.248689	0.006236761	0.2538569	-0.001588302	-0.00108289	-0.04842003	-0.03301233	0	0
6.26542	0.006236761	0.2538569	0	0	0.04769891	0.03252068	0	0
6.281932	0.006210446	0.253839	-0.001593697	-0.001084744	-0.04794125	-0.03263103	0	0
6.298388	0.006184132	0.2538211	-0.001599025	-0.00108839	-0.0001616187	-0.0001105907	0	0
6.314956	0.006157817	0.2538031	-0.00158833	-0.00108289	0.0003238511	0.0001665417	0	0
6.331522	0.006157817	0.2538031	0	0	0.04793658	0.03268214	0	0
6.348478	0.006131502	0.2537852	-0.001551943	-0.001056343	-0.04629608	-0.03151181	0	0
6.364991	0.006131502	0.2537852	0	0	0.04636995	0.03156209	0	0
6.381222	0.006131502	0.2537852	0	0	0	0	0	0
6.397788	0.006105187	0.2537673	-0.001588467	-0.001081184	-0.04843351	-0.03296609	0	0
6.414526	0.006105187	0.2537673	0	0	0.04769636	0.03246435	0	0
6.431038	0.006078872	0.2537494	-0.001593651	-0.001086517	-0.04792955	-0.03267735	0	0
6.447489	0.006052558	0.2537315	-0.001599581	-0.001088768	-0.0001799137	-6.828832E-05	0	0
6.464057	0.006052558	0.2537315	0	0	0.04844417	0.03297392	0	0
6.480622	0.006026243	0.2537135	-0.001588559	-0.001081246	-0.04794417	-0.03263302	0	0
6.497189	0.006026243	0.2537135	0	0	0.04794693	0.0326349	0	0
6.513756	0.006026243	0.2537135	0	0	0	0	0	0
6.549901	0.005999928	0.2536598	-0.0007280352	-0.001487428	-0.01381145	-0.02821777	0	0
6.566635	0.005973613	0.2536418	-0.001572551	-0.001072151	-0.01597077	0.007853359	0	0
6.583035	0.005973613	0.2536418	0	0	0.04746038	0.03235805	0	0
6.599658	0.005973613	0.2536418	0	0	0	0	0	0
6.616169	0.005973613	0.2536418	0	0	0	0	0	0
6.632734	0.005947298	0.2536239	-0.001588559	-0.001081246	-0.04802642	-0.032689	0	0
6.649301	0.005947298	0.2536239	0	0	0.04794624	0.03263443	0	0
6.665869	0.005920983	0.253606	-0.00158833	-0.00108289	-0.04793589	-0.03268167	0	0
6.682435	0.005894668	0.2535881	-0.001588513	-0.001081215	-5.519744E-06	5.053148E-05	0	0
6.699002	0.005894668	0.2535881	0	0	0.04794348	0.03263255	0	0
6.715569	0.005894668	0.2535881	0	0	0	0	0	0
6.73225	0.005894668	0.2535881	0	0	0	0	0	0
6.748763	0.005894668	0.2535881	0	0	0	0	0	0
6.765268	0.005894668	0.2535881	0	0	0	0	0	0
6.781835	0.005894668	0.2535881	0	0	0	0	0	0
6.798797	0.005894668	0.2535881	0	0	0	0	0	0
6.814969	0.005894668	0.2535881	0	0	0	0	0	0
6.831535	0.005894668	0.2535881	0	0	0	0	0	0
6.848102	0.005894668	0.2535881	0	0	0	0	0	0
6.864668	0.005894668	0.2535881	0	0	0	0	0	0
6.881356	0.005894668	0.2535881	0	0	0	0	0	0
6.897801	0.005894668	0.2535881	0	0	0	0	0	0
6.914369	0.005894668	0.2535881	0	0	0	0	0	0
6.931393	0.005894668	0.2535881	0	0	0	0	0	0
6.947502	0.005894668	0.2535881	0	0	0	0	0	0
6.964416	0.005894668	0.2535881	0	0	0	0	0	0
6.980636	0.005894668	0.2535881	0	0	0	0	0	0
6.997202	0.005894668	0.2535881	0	0	0	0	0	0
7.013769	0.005868354	0.2535702	-0.001588393	-0.001081153	-0.04793918	-0.0326302	0	0
7.030335	0.005868354	0.2535702	0	0	0.04793987	0.03263067	0	0
7.046975	0.005868354	0.2535702	0	0	0	0	0	0
7.063488	0.005868354	0.2535702	0	0	0	0	0	0
7.080035	0.005868354	0.2535702	0	0	0	0	0	0
7.096602	0.005868354	0.2535702	0	0	0	0	0	0
7.113169	0.005868354	0.2535702	0	0	0	0	0	0
7.129738	0.005868354	0.2535702	0	0	0	0	0	0
7.146544	0.005868354	0.2535702	0	0	0	0	0	0
7.162871	0.005868354	0.2535702	0	0	0	0	0	0
7.179572	0.005868354	0.2535702	0	0	0	0	0	0
7.212569	0.005868354	0.2535702	0	0	0	0	0	0
7.229136	0.005868354	0.2535702	0	0	0	0	0	0
7.245703	0.005868354	0.2535702	0	0	0	0	0	0
7.262269	0.005868354	0.2535702	0	0	0	0	0	0
7.278837	0.005868354	0.2535702	0	0	0	0	0	0
7.295404	0.005868354	0.2535702	0	0	0	0	0	0
7.31197	0.005868354	0.2535343	0	-0.002164292	0	-0.06532128	0	0
7.328537	0.005842039	0.2535164	-0.001588421	-0.001081153	-0.0479421	0.03269155	0	0
7.345103	0.005842039	0.2535164	0	0	0.04794072	0.03263067	0	0
7.36167	0.005815724	0.2534985	-0.001588421	-0.001082952	-0.04794072	-0.03268497	0	0
7.378236	0.005815724	0.2534985	0	0	0.04794003	0.0326845	0	0
7.398187	0.005789409	0.2534806	-0.00131899	-0.0008977653	-0.03611926	-0.02458444	0	0
7.414756	0.005789409	0.2534806	0	0	0.03611691	0.02458284	0	0
7.431745	0.005789409	0.2534806	0	0	0	0	0	0
7.447889	0.005789409	0.2534806	0	0	0	0	0	0
7.48128	0.005763094	0.2534626	-0.0007880749	-0.0005364002	-0.01590922	-0.01082855	0	0
7.497792	0.005736779	0.2534447	-0.001593743	-0.00108658	-0.0161447	-0.011025	0	0
7.514155	0.005736779	0.2534447	0	0	0.04847947	0.03305228	0	0
7.530817	0.005684149	0.2534089	-0.003158722	-0.002149991	-0.09564701	-0.06510235	0	0
7.547328	0.005605204	0.2533551	-0.004781366	-0.003258029	-0.04891517	-0.03340217	0	0
7.563855	0.005421	0.2532296	-0.01114525	-0.007589582	-0.1926197	-0.1311058	0	0
7.580422	0.004736807	0.2527278	-0.04129915	-0.03029207	-0.9111479	-0.6859918	0	0
7.597364	0.003631563	0.251975	-0.06523682	-0.04443428	-0.7143701	-0.4220448	0	0
7.613554	0.003499986	0.2518854	-0.008126804	-0.005535062	1.723683	1.174048	0	0
7.630386	0.003499986	0.2518854	0	0	0.2461033	0.1676178	0	0
7.646688	0.003499986	0.2518854	0	0	0	0	0	0
7.663255	0.003499986	0.2518854	0	0	0	0	0	0
7.679821	0.003499986	0.2518854	0	0	0	0	0	0
7.696389	0.003499986	0.2518854	0	0	0	0	0	0
7.712955	0.003499986	0.2518854	0	0	0	0	0	0
7.729958	0.003499986	0.2518854	0	0	0	0	0	0
7.746468	0.003499986	0.2518854	0	0	0	0	0	0
7.762655	0.003499986	0.2518854	0	0	0	0	0	0
7.779492	0.003499986	0.2518854	0	0	0	0	0	0
7.79579	0.003499986	0.2518854	0	0	0	0	0	0
7.812357	0.003499986	0.2518854	0	0	0	0	0	0
7.828923	0.003499986	0.2518854	0	0	0	0	0	0
7.845489	0.003499986	0.2518854	0	0	0	0	0	0
7.862056	0.003499986	0.2518854	0	0	0	0	0	0
7.878622	0.003499986	0.2518854	0	0	0	0	0	0
7.895189	0.003499986	0.2518854	0	0	0	0	0	0
7.911756	0.003499986	0.2518854	0	0	0	0	0	0
7.94511	0.003499986	0.2518854	0	0	0	0	0	0
7.961456	0.003499986	0.2518854	0	0	0	0	0	0
7.978025	0.003499986	0.2518854	0	0	0	0	0	0
7.99459	0.003499986	0.2518854	0	0	0	0	0	0
8.011155	0.003499986	0.2518854	0	0	0	0	0	0
8.027725	0.003499986	0.2518854	0	0	0	0	0	0
8.044681	0.003526301	0.2519033	0.001552042	0.00105813	0.04629441	0.03156199	0	0
8.060858	0.003526301	0.2519033	0	0	-0.04684341	-0.03193628	0	0
8.077422	0.003526301	0.2519033	0	0	0	0	0	0
8.094717	0.003552617	0.2518854	0.001521574	-0.001037359	0.04493821	-0.03063738	0	0
8.110556	0.003552617	0.2518854	0	0	-0.04592253	0.03130845	0	0
8.127122	0.003552617	0.2518854	0	0	0	0	0	0
8.143749	0.003578932	0.2518675	0.001582664	-0.001077215	0.04767982	-0.03245252	0	0
8.160261	0.003578932	0.2518675	0	0	-0.04775803	0.03250575	0	0
8.176822	0.003578932	0.2518675	0	0	0	0	0	0
8.193388	0.003578932	0.2518675	0	0	0	0	0	0
8.215018	0.003552617	0.2518854	-0.001216602	0.0008280609	-0.03185109	0.02167894	0	0
8.231586	0.003552617	0.2518854	0	0	0.03185029	-0.0216784	0	0
8.248322	0.003526301	0.2518675	-0.001572293	-0.001070157	-0.04721005	-0.03213277	0	0
8.264833	0.003526301	0.2518316	0	-0.002171417	0.04728994	-0.03312267	0	0
8.281348	0.002684204	0.251258	-0.05099051	-0.03473285	-1.543963	-0.985941	0	0
8.297854	7.894737E-05	0.2495191	-0.1578351	-0.1053469	-3.235658	-2.13846	0	0
8.31442	-0.007631431	0.244265	-0.4654529	-0.3171758	-9.301595	-6.405177	0	0
8.330987	-0.01099956	0.2419689	-0.2033005	-0.1385923	7.912232	5.389972	0	0
8.397253	-0.07716228	0.1957123	-0.9984406	-0.6980448	-9.599281	-6.753958	0	0
8.41382	-0.08973207	0.1783232	-0.7587142	-1.049606	2.894082	-4.244199	0	0
8.430387	-0.09455926	0.1629913	-0.2913863	-0.9254873	14.10439	3.746008	0	0
8.446953	-0.09823541	0.1414757	-0.2219059	-1.298758	2.097046	-11.26597	0	0
8.463519	-0.1006066	0.1259363	-0.1431305	-0.9380145	2.377581	10.88788	0	0
8.480086	-0.1041741	0.1119599	-0.2153402	-0.8436173	-2.179356	2.848995	0	0
8.496653	-0.1109634	0.09695191	-0.4098223	-0.9059379	-5.869649	-1.880891	0	0
8.51351	-0.1131463	0.09394077	-0.1294932	-0.1786267	8.387205	21.76052	0	0
8.529786	-0.1234739	0.08507921	-0.6345195	-0.5444438	-15.24216	-11.0407	0	0
8.546533	-0.1346022	0.07723217	-0.6645136	-0.4685769	-0.9082851	2.297404	0	0
8.562921	-0.140799	0.07276801	-0.3781297	-0.2724055	8.643085	5.920466	0	0
8.579487	-0.144383	0.07016479	-0.2163448	-0.1571396	4.909385	3.497758	0	0
8.59607	-0.1501251	0.06597032	-0.3462534	-0.2529311	-3.918844	-2.889662	0	0
8.612619	-0.1560113	0.0616605	-0.3556806	-0.2604264	-0.2845304	-0.2262229	0	0
8.629187	-0.1598354	0.05875384	-0.2308213	-0.175446	3.770322	2.566118	0	0
8.645753	-0.1645512	0.05515924	-0.2846645	-0.2169832	-1.625036	-1.253631	0	0
8.66232	-0.1668808	0.05347198	-0.1406133	-0.1018433	4.347598	3.475027	0	0
8.679628	-0.1689272	0.05183965	-0.1182365	-0.09430939	0.6605595	0.2224017	0	0
8.695453	-0.1689272	0.05183965	0	0	3.568591	2.846427	0	0
8.712151	-0.1688761	0.05180254	0.003063603	-0.002222295	0.09420036	-0.06833162	0	0
8.728662	-0.1688761	0.05180254	0	0	-0.09225262	0.06691875	0	0
8.745152	-0.1688249	0.05176544	0.003101145	-0.002249957	0.09396869	-0.06817658	0	0
8.761719	-0.1687482	0.05170977	0.004630562	-0.003360036	0.04626577	-0.03358055	0	0
8.778286	-0.1686971	0.05167267	0.003087763	-0.00223982	-0.0465631	0.03380916	0	0
8.794852	-0.1686971	0.05167267	0	0	-0.09319156	0.06759985	0	0
8.811419	-0.1686715	0.05165412	0.001543521	-0.001119862	0.04658623	-0.03379945	0	0
8.844554	-0.1686715	0.05165412	0	0	-0.0310557	0.02253167	0	0
8.861256	-0.1686715	0.05165412	0	0	0	0	0	0
8.877767	-0.1686715	0.05165412	0	0	0	0	0	0
8.894278	-0.1686715	0.05165412	0	0	0	0	0	0
8.910818	-0.1686715	0.05165412	0	0	0	0	0	0
8.927385	-0.1686715	0.05165412	0	0	0	0	0	0
8.944315	-0.1686715	0.05165412	0	0	0	0	0	0
8.96052	-0.1686715	0.05165412	0	0	0	0	0	0
8.977086	-0.1686715	0.05165412	0	0	0	0	0	0
8.993651	-0.1686715	0.05165412	0	0	0	0	0	0
9.010364	-0.1686459	0.05163556	0.001530044	-0.001110308	0.04597833	-0.0333651	0	0
9.026787	-0.1686459	0.05163556	0	0	-0.04617551	0.03350819	0	0
9.043352	-0.1686203	0.05161701	0.001544509	-0.001119927	0.04681956	-0.03394895	0	0
9.059918	-0.1685948	0.05159845	0.001543521	-0.001120087	-2.983152E-05	-4.841913E-06	0	0
9.082554	-0.168518	0.05154279	0.003389641	-0.002459119	0.04709281	-0.03415746	0	0
9.099121	-0.1684669	0.05150568	0.003087763	-0.00223982	-0.007700422	0.005593972	0	0
9.115687	-0.1684157	0.05146857	0.003087042	-0.002240174	-2.178384E-05	-1.068111E-05	0	0
9.132254	-0.1683902	0.05145001	0.00154442	-0.001120087	-0.04655909	0.03380624	0	0
9.148954	-0.1683646	0.05143146	0.001531093	-0.001110845	-0.0004006173	0.0002777981	0	0
9.165387	-0.168339	0.05141291	0.001556969	-0.001129188	0.0007809506	-0.0005535801	0	0
9.181978	-0.1683134	0.05139435	0.001541214	-0.001118413	-0.0004770676	0.0003262635	0	0
9.198521	-0.1683134	0.05139435	0	0	-0.04651527	0.03375474	0	0
9.215087	-0.1683134	0.05139435	0	0	0	0	0	0
9.232013	-0.1682878	0.0513758	0.001511614	-0.001096294	0.04513346	-0.03273293	0	0
9.24822	-0.1682878	0.0513758	0	0	-0.04562191	0.03308718	0	0
9.265037	-0.1682878	0.0513758	0	0	0	0	0	0
9.281353	-0.1682878	0.0513758	0	0	0	0	0	0
9.298059	-0.1682878	0.0513758	0	0	0	0	0	0
9.314487	-0.1683134	0.05139435	-0.001557511	0.001129581	-0.04700712	0.0340918	0	0
9.331054	-0.1683134	0.05146857	0	0.004479865	0.0472055	0.1015414	0	0
9.34762	-0.1682367	0.05163556	0.004632361	0.01008011	0.139809	0.1690205	0	0
9.383537	-0.1674181	0.05230345	0.02279112	0.01859519	0.3459896	0.1622428	0	0
9.400133	-0.1664713	0.05306396	0.05705073	0.0458256	0.6524009	0.5185449	0	0
9.416673	-0.1611175	0.05697548	0.3236933	0.2364945	8.047056	5.754232	0	0
9.482845	-0.1128345	0.09144221	0.7296533	0.520861	4.908105	3.438025	0	0
9.499413	-0.104903	0.09704368	0.4787472	0.3381056	-3.03247	-2.208796	0	0
9.516218	-0.08785223	0.1090683	1.014584	0.7155123	16.05604	11.30878	0	0
9.532547	-0.08241814	0.1129478	0.3327919	0.2375845	-20.57652	-14.42389	0	0
9.549113	-0.06805264	0.1235275	0.8671529	0.638629	16.2444	12.19162	0	0
9.56568	-0.06503972	0.1257356	0.181871	0.133291	-20.68304	-15.25201	0	0
9.582262	-0.05226814	0.1347227	0.7701845	0.5419605	17.74767	12.32835	0	0
9.598813	-0.04221175	0.1418395	0.6075994	0.429995	-4.906971	-3.379225	0	0
9.615379	-0.0265201	0.152761	0.9472047	0.6592552	10.25462	6.922674	0	0
9.631947	-0.01389384	0.1615413	0.7621223	0.52998	-5.58596	-3.901646	0	0
9.648808	0.002184207	0.1728246	0.9535666	0.6691989	5.727031	4.164716	0	0
9.665079	0.01394646	0.1814142	0.7228708	0.5278873	-6.962813	-4.265039	0	0
9.681832	0.02807157	0.1927719	0.843129	0.6779464	3.641455	4.543832	0	0
9.698346	0.03690429	0.2014633	0.5348682	0.5263079	-9.26626	-4.558223	0	0
9.714779	0.04914461	0.2106129	0.7448727	0.556789	6.374092	0.9251671	0	0
9.731367	0.0575679	0.2163891	0.5077878	0.3482136	-7.179829	-6.316451	0	0
9.747912	0.0622091	0.2195005	0.2805149	0.1880557	-6.859309	-4.833715	0	0
9.764889	0.06847174	0.2237253	0.3689035	0.2488607	2.636763	1.813902	0	0
9.781045	0.06878604	0.2238691	0.01945401	0.008900375	-10.54701	-7.242433	0	0
9.797612	0.06875985	0.2238871	-0.001580759	0.00108472	-0.6428044	-0.2388398	0	0
9.814178	0.06875985	0.2238871	0	0	0.04770876	-0.03273785	0	0
9.830937	0.06875985	0.2238871	0	0	0	0	0	0
9.847312	0.06873366	0.2238691	-0.001599356	-0.001097481	-0.04827004	-0.033123	0	0
9.863878	0.06870747	0.2238152	-0.001581299	-0.003255246	0.0005481484	-0.06550419	0	0
9.880445	0.06868128	0.2237253	-0.00158085	-0.00542481	1.357313E-05	-0.06548135	0	0
9.897011	0.06857651	0.2235096	-0.006324298	-0.01301918	-0.1431658	-0.2292119	0	0
9.913993	0.06839316	0.2233478	-0.01079632	-0.009525748	-0.1333007	0.1041314	0	0
9.930144	0.06836697	0.2232939	-0.001621915	-0.003338857	0.2768919	0.1867261	0	0
9.946711	0.06831458	0.223258	-0.003162149	-0.002169564	-0.04707647	0.03573883	0	0
9.963277	0.06831458	0.223222	0	-0.002170464	0.09543934	-2.715328E-05	0	0
9.980042	0.06831458	0.2231501	0	-0.004288675	0	-0.06355095	0	0
9.996552	0.0682622	0.2230423	-0.003172926	-0.006531777	-0.09535564	-0.06741173	0	0
10.01298	0.068236	0.2229884	-0.001594888	-0.003283219	0.0479135	0.09863501	0	0
10.03229	0.06818362	0.2229165	-0.002711907	-0.003722075	-0.03125247	-0.01227851	0	0
10.04886	0.06815742	0.2228266	-0.001581026	-0.005424773	0.03151333	-0.04744767	0	0
10.0656	0.06813123	0.2227367	-0.001564637	-0.005369174	0.000492077	0.001669272	0	0
10.08212	0.06807884	0.2226648	-0.003172277	-0.00435331	-0.04834476	0.03054894	0	0
10.09856	0.06810503	0.2226468	0.001592761	-0.001093551	0.1445581	0.09889207	0	0
10.11514	0.06810503	0.2226468	0	0	-0.04823343	0.0331159	0	0
10.1317	0.06807884	0.2226288	-0.001582028	-0.001085282	-0.04774707	-0.03275482	0	0
10.14826	0.06807884	0.2226288	0	0	0.04775807	0.03276236	0	0
10.2311	0.06792168	0.2227367	-0.001897314	0.001302053	-0.01908738	0.01309893	0	0
10.24773	0.06784309	0.2228266	-0.004724858	0.005403037	-0.02842688	0.04122948	0	0
10.26424	0.06763352	0.2229704	-0.01269159	0.008709534	-0.2403604	0.09975869	0	0
10.2808	0.06742396	0.2231142	-0.01266015	0.008687058	0.0009509309	-0.0006797715	0	0
10.29736	0.06718819	0.22324	-0.01423132	0.007594836	-0.04743868	-0.03297754	0	0
10.31393	0.06629743	0.2238511	-0.05376912	0.03688889	-1.193287	0.8841216	0	0
10.3308	0.0620256	0.2267803	-0.2532849	0.1736747	-5.967808	4.091464	0	0
10.3473	0.05546936	0.2312711	-0.3972678	0.2721152	-4.314859	2.950051	0	0
10.36363	0.04562621	0.2379675	-0.6027382	0.4100522	-6.257846	4.201037	0	0
10.38032	0.03940065	0.2422201	-0.3728989	0.2547207	6.959398	-4.703347	0	0
10.39683	0.03364519	0.2461123	-0.3486243	0.2357632	0.7310743	-0.5709392	0	0
10.41335	0.03012246	0.2485151	-0.2133447	0.1455199	4.096779	-2.732909	0	0
10.4299	0.02783491	0.2500749	-0.138212	0.09423977	2.272412	-1.550985	0	0
10.44646	0.02268032	0.2535881	-0.3111856	0.212093	-5.223359	3.558867	0	0
10.46303	0.01836636	0.2565269	-0.2603915	0.1773885	1.5331	-1.047474	0	0
10.4796	0.0167879	0.2576019	-0.09526504	0.06487963	4.983241	-3.39533	0	0
10.49616	0.01691944	0.2575123	0.00794034	-0.00540772	3.114655	-2.121216	0	0
10.51273	0.01686682	0.2574765	-0.003176274	-0.002162493	-0.335529	0.0979496	0	0
10.52929	0.01684051	0.2574227	-0.001588046	-0.003245351	0.04793696	-0.03268356	0	0
10.54594	0.01676159	0.257369	-0.004741865	-0.003228313	-0.09496379	0.000513029	0	0
10.56245	0.01676159	0.257369	0	0	0.1430151	0.09736624	0	0
10.57899	0.01673528	0.2573511	-0.001590242	-0.001084481	-0.04810854	-0.03280809	0	0
10.59556	0.01670897	0.2573332	-0.001588046	-0.001081184	6.635494E-05	9.958867E-05	0	0
10.61213	0.01670897	0.2573332	0	0	0.04792731	0.0326302	0	0
10.6287	0.01670897	0.2573332	0	0	0	0	0	0
10.64526	0.01670897	0.2573332	0	0	0	0	0	0
10.66202	0.01670897	0.2572973	0	-0.002137026	0	-0.06411909	0	0
10.6784	0.01670897	0.2572973	0	0	0	0.06449556	0	0
10.69505	0.01668266	0.2572794	-0.00157952	-0.001075303	-0.04782278	-0.03255673	0	0
10.71156	0.01668266	0.2572794	0	0	0.04762887	0.03242473	0	0
10.7281	0.01663005	0.2572078	-0.003181953	-0.004334521	-0.09630037	-0.1311823	0	0
10.76159	0.01557769	0.2563477	-0.03141665	-0.02567511	-0.5643259	-0.4265335	0	0
10.77779	0.01407802	0.2553264	-0.09256092	-0.06303895	-1.230296	-0.7518052	0	0
10.79436	0.01326238	0.2546275	-0.04923481	-0.04218597	1.322198	0.6363777	0	0
10.81093	0.01326238	0.2546275	0	0	1.485995	1.273248	0	0
10.82749	0.01326238	0.2545917	0	-0.002162368	0	-0.06526416	0	0
10.84406	0.013315	0.2545558	0.003176484	-0.002164167	0.09587201	-5.429954E-05	0	0
10.86066	0.01334131	0.2545379	0.001585021	-0.00107901	-0.0479849	0.03271903	0	0
10.87767	0.01342025	0.2544841	0.004639438	-0.003160034	0.09086958	-0.06191089	0	0
10.89376	0.01344656	0.2544662	0.001635438	-0.001115145	-0.09074971	0.0617753	0	0
10.91033	0.01347287	0.2544483	0.001588397	-0.001081309	-0.00144065	0.001036252	0	0
10.93114	0.01349918	0.2544304	0.001263863	-0.0008603807	-0.008681526	0.00590999	0	0
10.94771	0.01349918	0.2544304	0	0	-0.0338067	0.02301407	0	0
10.96473	0.01352549	0.2544125	0.001545681	-0.00105223	0.04601699	-0.03132628	0	0
10.98084	0.0135518	0.2543945	0.001633018	-0.001113495	0.002635832	-0.001848991	0	0
10.99776	0.01357811	0.2543766	0.001555705	-0.001059053	-0.002341075	0.001648515	0	0
11.01398	0.01360442	0.2543587	0.001622016	-0.001104195	0.00200133	-0.001362414	0	0
11.03054	0.01360442	0.2543229	0	-0.002164167	-0.04947082	-0.03232873	0	0
11.08024	0.01363073	0.2543049	0.0005293945	-0.0003603878	0.007988924	0.02722026	0	0
11.09683	0.01363073	0.2543049	0	0	-0.00798697	0.005437167	0	0
11.11338	0.01365705	0.254287	0.001589678	-0.001083982	0.04797797	-0.03271557	0	0
11.12994	0.01368336	0.2542691	0.001588214	-0.001081184	-4.421472E-05	8.447128E-05	0	0
11.14651	0.01370967	0.2542512	0.001588123	-0.001081122	-2.758115E-06	1.876221E-06	0	0
11.16308	0.01373598	0.2542332	0.001588214	-0.001082983	2.758115E-06	-5.617068E-05	0	0
11.17964	0.01373598	0.2542332	0	0	-0.04793515	0.03268638	0	0
11.1964	0.01376229	0.2542153	0.001570583	-0.001069182	0.04713845	-0.03208972	0	0
11.21291	0.01376229	0.2541795	0	-0.002171041	-0.04721277	-0.03312262	0	0
11.22935	0.01376229	0.2541795	0	0	0	0.06588816	0	0
11.24591	0.01376229	0.2541795	0	0	0	0	0	0
11.26248	0.0137886	0.2541616	0.001588123	-0.001081122	0.04793102	-0.03262927	0	0
11.27905	0.0137886	0.2541616	0	0	-0.04793102	0.03262927	0	0
11.29597	0.0137886	0.2541616	0	0	0	0	0	0
11.31925	0.0137886	0.2541616	0	0	0	0	0	0
11.33599	0.0137886	0.2541616	0	0	0	0	0	0
11.35251	0.0137886	0.2541616	0	0	0	0	0	0
11.36895	0.0137886	0.2541616	0	0	0	0	0	0
11.38553	0.0137886	0.2541616	0	0	0	0	0	0
11.40209	0.0137886	0.2541616	0	0	0	0	0	0
11.41865	0.01381491	0.2541437	0.001588214	-0.001081184	0.04794896	-0.03264147	0	0
11.43522	0.01381491	0.2541437	0	0	-0.0479324	0.0326302	0	0
11.45208	0.01381491	0.2541437	0	0	0	0	0	0
11.46835	0.01381491	0.2541437	0	0	0	0	0	0
11.4851	0.01384122	0.2541257	0.001571031	-0.001071266	0.04757263	-0.03243917	0	0
11.50149	0.01384122	0.2541257	0	0	-0.04741516	0.0323318	0	0
11.51805	0.01384122	0.2541257	0	0	0	0	0	0
11.53463	0.01386753	0.2541078	0.001586753	-0.001080189	0.047869	-0.03258704	0	0
11.55119	0.01389384	0.2540899	0.001589587	-0.001082119	8.55367E-05	-5.822961E-05	0	0
11.56775	0.01389384	0.2540899	0	0	-0.04799731	0.03267439	0	0
11.58432	0.01392015	0.254072	0.001588214	-0.001082983	0.04793515	-0.03268638	0	0
11.60088	0.01394646	0.254054	0.001588214	-0.001081184	0	5.429603E-05	0	0
11.61745	0.01397278	0.2540361	0.001588214	-0.001081184	0	0	0	0
11.63402	0.01405171	0.2539824	0.004764586	-0.003245351	0.09586862	-0.06531846	0	0
11.65058	0.01439374	0.2537494	0.02064656	-0.01406439	0.4793465	-0.326538	0	0
11.66715	0.0150515	0.2533013	0.03970429	-0.02704579	0.5751964	-0.3918021	0	0
11.68372	0.01631434	0.252441	0.07623	-0.05193102	1.102412	-0.7510809	0	0
11.70028	0.01691944	0.2520288	0.03652572	-0.02488343	-1.198347	0.816345	0	0
11.71685	0.01691944	0.2520288	0	0	-1.102412	0.7510265	0	0
11.78312	0.01691944	0.2520288	0	0	0	0	0	0
11.79968	0.01691944	0.2520288	0	0	0	0	0	0
11.81625	0.01691944	0.2520288	0	0	0	0	0	0
11.83721	0.01691944	0.2520288	0	0	0	0	0	0
11.85386	0.01691944	0.2520288	0	0	0	0	0	0
11.87037	0.01691944	0.2520288	0	0	0	0	0	0
11.88691	0.01691944	0.2520288	0	0	0	0	0	0
11.90348	0.01691944	0.2520288	0	0	0	0	0	0
11.92004	0.01691944	0.2520288	0	0	0	0	0	0
11.93661	0.01691944	0.2520288	0	0	0	0	0	0
11.96975	0.01691944	0.2520288	0	0	0	0	0	0
11.98645	0.01691944	0.2520288	0	0	0	0	0	0
12.00288	0.01691944	0.2520288	0	0	0	0	0	0
12.01947	0.01691944	0.2520288	0	0	0	0	0	0
12.03601	0.01691944	0.2520288	0	0	0	0	0	0
12.05258	0.01691944	0.2520288	0	0	0	0	0	0
12.06915	0.01691944	0.2520288	0	0	0	0	0	0
12.08602	0.01691944	0.2520288	0	0	0	0	0	0
12.10228	0.01691944	0.2520288	0	0	0	0	0	0
12.11904	0.01691944	0.2520288	0	0	0	0	0	0
12.13541	0.01691944	0.2520288	0	0	0	0	0	0
12.15198	0.01691944	0.2520288	0	0	0	0	0	0
12.16858	0.01691944	0.2520288	0	0	0	0	0	0
12.18511	0.01691944	0.2520288	0	0	0	0	0	0
12.20168	0.01691944	0.2520288	0	0	0	0	0	0
12.21824	0.01691944	0.2520288	0	0	0	0	0	0
12.23481	0.01691944	0.2520288	0	0	0	0	0	0
12.25138	0.01691944	0.2520288	0	0	0	0	0	0
12.26794	0.01691944	0.2520288	0	0	0	0	0	0
12.28466	0.01691944	0.2520288	0	0	0	0	0	0
12.30108	0.01691944	0.2520288	0	0	0	0	0	0
12.31764	0.01691944	0.2520288	0	0	0	0	0	0
12.33421	0.01691944	0.2520288	0	0	0	0	0	0
12.35078	0.01689313	0.2520109	-0.001588046	-0.001082983	-0.04793007	-0.03268638	0	0
12.36734	0.01689313	0.2520109	0	0	0.04793007	0.03268638	0	0
12.38423	0.01691944	0.2519929	0.001558087	-0.001060788	0.04657809	-0.03171162	0	0
12.40074	0.01691944	0.2519929	0	0	-0.04664991	0.03176051	0	0
12.41704	0.01691944	0.2519929	0	0	0	0	0	0
12.43361	0.01691944	0.2519929	0	0	0	0	0	0
12.45018	0.01691944	0.2519929	0	0	0	0	0	0
12.46674	0.01691944	0.2519929	0	0	0	0	0	0
12.48331	0.01691944	0.2519929	0	0	0	0	0	0
12.49988	0.01694575	0.251975	0.001588046	-0.001082983	0.04792869	-0.03268544	0	0
12.51732	0.01694575	0.251975	0	0	-0.04669096	0.03184136	0	0
12.53301	0.01694575	0.251975	0	0	0	0	0	0
12.54957	0.01697205	0.2519571	0.001588046	-0.001081184	0.04923528	-0.03352071	0	0
12.56614	0.01697205	0.2519571	0	0	-0.04793007	0.03263208	0	0
12.58271	0.01697205	0.2519212	0	-0.002164043	0	-0.06531282	0	0
12.59927	0.01699836	0.2519033	0.001588046	-0.001081184	0.04792869	0.03268168	0	0
12.61589	0.01699836	0.2519033	0	0	-0.04785844	0.03258331	0	0
12.63241	0.01705098	0.2518675	0.00318574	-0.002170665	0.09615135	-0.06551458	0	0
12.64941	0.01705098	0.2518675	0	0	-0.09503528	0.06475412	0	0
12.66554	0.01705098	0.2518675	0	0	0	0	0	0
12.68211	0.01705098	0.2518316	0	-0.002164043	0	-0.06618724	0	0
12.71881	0.01707729	0.2518137	0.0007168716	-0.0004888776	0.01345844	0.0314493	0	0
12.73547	0.0171036	0.2517958	0.001578323	-0.001074565	0.01614213	-0.01097478	0	0
12.75198	0.01707729	0.2517779	-0.001593458	-0.001084869	-0.09559797	-0.0003105547	0	0
12.76851	0.0171036	0.2517599	0.001592354	-0.001085921	0.09644778	-3.186037E-05	0	0
12.78507	0.0171036	0.2517599	0	0	-0.0481252	0.03281946	0	0
12.80164	0.0171036	0.2517599	0	0	0	0	0	0
12.8182	0.0171036	0.2517241	0	-0.002164167	0	-0.06531846	0	0
12.83504	0.0171036	0.2517241	0	0	0	0.06478699	0	0
12.85155	0.0171036	0.2517241	0	0	0	0	0	0
12.86791	0.0171036	0.2517241	0	0	0	0	0	0
12.88447	0.0171036	0.2516882	0	-0.002164167	0	-0.06574614	0	0
12.90104	0.0171036	0.2516882	0	0	0	0.06531846	0	0
12.9176	0.0171036	0.2516882	0	0	0	0	0	0
12.93417	0.0171036	0.2516524	0	-0.002164167	0	-0.06531846	0	0
12.95074	0.01707729	0.2516344	-0.001588046	-0.001081184	-0.04793007	0.03268638	0	0
12.9673	0.01705098	0.2516165	-0.001587954	-0.001081122	2.761629E-06	1.876221E-06	0	0
12.98387	0.01699836	0.2515448	-0.003176203	-0.004328335	-0.04793484	-0.09800389	0	0
13.00044	0.01691944	0.251491	-0.004764136	-0.00324715	-0.04792668	0.03263208	0	0
13.01717	0.01670897	0.2513477	-0.01257705	-0.00856806	-0.2346192	-0.1597852	0	0
13.03357	0.01536721	0.2504334	-0.08181778	-0.05574879	-2.089749	-1.423958	0	0
13.05019	0.009683908	0.2465606	-0.3418641	-0.2329561	-7.874505	-5.366043	0	0
13.06671	0.003078938	0.2421304	-0.4000123	-0.2683062	-1.754816	-1.066806	0	0
13.08327	-0.004473655	0.2369804	-0.4559541	-0.3109086	-1.691295	-1.288006	0	0
13.09984	-0.01036805	0.2329591	-0.3558069	-0.2427411	3.022798	2.057535	0	0
13.1164	-0.01286771	0.2312531	-0.1508885	-0.1029778	6.184803	4.218307	0	0
13.13297	-0.01741929	0.2281816	-0.2747497	-0.185406	-3.738352	-2.48783	0	0
13.14977	-0.01862942	0.2273552	-0.07205258	-0.04920575	6.075792	4.082566	0	0
13.1661	-0.01860312	0.2273732	0.001610199	0.001099915	2.223211	1.518272	0	0
13.18279	-0.01860312	0.2273732	0	0	-0.04876152	-0.03330864	0	0
13.19924	-0.01860312	0.2273732	0	0	0	0	0	0
13.2158	-0.01857681	0.2274271	0.001587842	0.003253259	0.04809141	0.09853239	0	0
13.23237	-0.01847158	0.2274989	0.006351844	0.004338229	0.143782	0.03274539	0	0
13.24934	-0.01844528	0.2275169	0.001550556	0.001058295	-0.1431806	-0.09781185	0	0
13.2655	-0.01841897	0.2275349	0.001627086	0.001111529	0.002309678	0.001606607	0	0
13.28236	-0.01841897	0.2275349	0	0	-0.04927289	-0.03366033	0	0
13.29864	-0.01841897	0.2275349	0	0	0	0	0	0
13.3152	-0.01841897	0.2275349	0	0	0	0	0	0
13.33189	-0.01841897	0.2275349	0	0	0	0	0	0
13.34834	-0.01841897	0.2275349	0	0	0	0	0	0
13.3649	-0.01841897	0.2275349	0	0	0	0	0	0
13.38147	-0.01841897	0.2275349	0	0	0	0	0	0
13.39804	-0.01841897	0.2275349	0	0	0	0	0	0
13.4146	-0.01841897	0.2275349	0	0	0	0	0	0
13.43146	-0.01841897	0.2275349	0	0	0	0	0	0
13.44774	-0.01841897	0.2275349	0	0	0	0	0	0
13.4643	-0.01841897	0.2275349	0	0	0	0	0	0
13.48087	-0.01841897	0.2275349	0	0	0	0	0	0
13.50071	-0.01839266	0.2275169	0.001326089	-0.000905906	0.03642737	-0.02488503	0	0
13.51753	-0.01834005	0.227481	0.003128611	-0.002136321	0.04917603	-0.03356792	0	0
13.53384	-0.01831374	0.227463	0.00161227	-0.00110133	-0.04576326	0.03123609	0	0
13.55055	-0.01768237	0.2269959	0.03779215	-0.02796053	1.095569	-0.8133276	0	0
13.56706	-0.01563031	0.2255584	0.1242848	-0.08706247	2.603832	-1.779245	0	0
13.58354	-0.004315763	0.2178281	0.6864641	-0.4690067	17.03919	-11.57641	0	0
13.60011	0.007894573	0.2094787	0.7370598	-0.5039955	1.530945	-1.058706	0	0
13.61668	0.02112843	0.200418	0.7988434	-0.5469407	1.864742	-1.296162	0	0
13.63324	0.03848099	0.1885127	1.047463	-0.7186475	7.503779	-5.18242	0	0
13.64981	0.04935462	0.1810346	0.6563714	-0.4513998	-11.80384	8.066016	0	0
13.66663	0.05247809	0.1788837	0.1856895	-0.1278755	-14.09768	9.690073	0	0
13.71607	0.0601117	0.1743806	0.1543884	-0.0910738	-0.4723614	0.5553712	0	0
13.73267	0.05730561	0.1766777	-0.1690356	0.1383764	-4.897039	3.47416	0	0
13.74921	0.0524256	0.1804382	-0.2951865	0.2274688	-3.807463	2.688968	0	0
13.76577	0.04641401	0.1853346	-0.3628812	0.2955618	-2.045266	2.057299	0	0
13.78271	0.03976849	0.1909855	-0.3923608	0.3336386	-0.8798951	1.136503	0	0
13.7989	0.03201537	0.1985793	-0.4787268	0.4688889	-2.60668	4.082098	0	0
13.81547	0.02680936	0.2021481	-0.3142352	0.2154113	5.020722	-7.736815	0	0
13.83204	0.02381129	0.2042021	-0.1809747	0.1239863	4.021928	-2.759292	0	0
13.84875	0.02123365	0.2059673	-0.154193	0.1055982	0.8046584	-0.5524718	0	0
13.86517	0.01807698	0.2081284	-0.1922859	0.1316379	-1.149679	0.7859029	0	0
13.88178	0.01573554	0.2096948	-0.1409966	0.09432518	1.553144	-1.129907	0	0
13.8983	0.01347287	0.2112429	-0.1369062	0.09366976	0.1234511	-0.01978119	0	0
13.93144	0.01078906	0.2130786	-0.08100232	0.05540574	1.125739	-0.7705241	0	0
13.94832	0.01078906	0.2130786	0	0	1.619422	-1.107688	0	0
13.96457	0.01076274	0.2130966	-0.00161956	0.001107948	-0.04887982	0.03343889	0	0
13.98135	0.01076274	0.2130966	0	0	0.04904215	-0.03354995	0	0
13.99786	0.01073643	0.2131146	-0.001593612	0.001089256	-0.04787209	0.03272124	0	0
14.01427	0.01073643	0.2131146	0	0	0.04840459	-0.0330852	0	0
14.03088	0.0106838	0.2131506	-0.0031679	0.002167174	-0.09593044	0.06562643	0	0
14.0474	0.01060487	0.2132406	-0.004777907	0.005445841	-0.04859152	0.09895323	0	0
14.06397	0.01049961	0.2133125	-0.006352996	0.004344275	-0.04760206	-0.03329132	0	0
14.08092	0.01042068	0.2133665	-0.004658044	0.003185671	0.05057443	-0.03457073	0	0
14.0971	0.01042068	0.2133665	0	0	0.1405881	-0.09614928	0	0
14.11367	0.01042068	0.2134025	0	0.002172013	0	0.06631301	0	0
14.13045	0.01042068	0.2134025	0	0	0	-0.06512783	0	0
14.1468	0.01031542	0.2137984	-0.00643711	0.02421169	-0.1942836	0.7307522	0	0
14.16348	0.01005229	0.2143742	-0.0157836	0.0345375	-0.2830389	0.3126956	0	0
14.17994	0.008605051	0.2164071	-0.08791744	0.1234973	-2.177129	2.684968	0	0
14.1965	0.008236656	0.2252889	-0.02223764	0.5361342	1.988631	12.49368	0	0
14.21351	0.00931552	0.2340723	0.06343692	0.5164635	2.551877	-0.5859064	0	0
14.22964	0.01031542	0.2437269	0.06200329	0.5986768	-0.04326827	2.481273	0	0
14.2462	0.01073643	0.2570286	0.02541339	0.8029357	-1.1192	6.247805	0	0
14.26355	0.01089431	0.2684187	0.009103431	0.6567741	-0.4809943	-4.310428	0	0
14.27934	0.0098681	0.2823579	-0.06499092	0.8827837	-2.236301	6.821376	0	0
14.29607	0.00923658	0.2934083	-0.03774064	0.6603891	0.8378733	-6.838038	0	0
14.31247	0.008683993	0.3194055	-0.03369169	1.58507	0.1221976	27.90692	0	0
14.32904	0.008683993	0.3485141	0	1.757104	1.021965	5.218288	0	0
14.3456	0.00873662	0.3704474	0.003176766	1.323972	0.09588049	-13.0727	0	0
14.36217	0.008341912	0.391448	-0.02382597	1.26767	-0.8149909	-1.699312	0	0
14.37913	0.007920887	0.4165372	-0.02482716	1.479472	-0.02986454	6.317836	0	0
14.3953	0.007789316	0.4275936	-0.008134576	0.6835772	0.5038122	-24.02153	0	0
14.44868	0.008894502	0.4693891	0.02070671	0.7830787	0.4146982	1.430695	0	0
14.46524	0.01055224	0.4756072	0.1000785	0.3753886	1.134893	-5.829331	0	0
14.48181	0.01036805	0.477609	-0.0111184	0.1208354	-3.356316	-7.683317	0	0
14.49837	0.00931552	0.4791243	-0.06353447	0.0914671	-1.582011	-0.8863873	0	0
14.51494	0.008499796	0.4798279	-0.04924003	0.04247381	0.4314317	-1.478706	0	0
14.53174	0.008526109	0.4798099	0.001566559	-0.001073426	1.522827	-1.305242	0	0
14.54825	0.008526109	0.4798099	0	0	-0.04703381	0.03222816	0	0
14.56476	0.008526109	0.4798099	0	0	0	0	0	0
14.58127	0.008552423	0.4797918	0.001593612	-0.001093768	0.04825781	-0.03312152	0	0
14.59777	0.008578737	0.4797738	0.001594313	-0.001092405	2.123299E-05	4.128833E-05	0	0
14.61434	0.008631364	0.4797016	0.003176766	-0.004357118	0.04784941	-0.09871677	0	0
14.63091	0.008657678	0.4796475	0.001588383	-0.003266939	-0.04794025	0.03290356	0	0
14.64747	0.008710306	0.4795392	0.003176822	-0.006533878	0.04794194	-0.09860209	0	0
14.66433	0.00873662	0.4793769	0.001561152	-0.009634562	-0.04834221	-0.09277507	0	0
14.68061	0.008789247	0.4792686	0.003232972	-0.006649482	0.05045708	0.0900925	0	0
14.69717	0.008868189	0.4789619	0.004765205	-0.01851325	0.04665106	-0.3612099	0	0
14.71374	0.008841875	0.4785831	-0.001588383	-0.02286857	-0.1917627	-0.1314514	0	0
14.7303	0.008315598	0.4778976	-0.03176799	-0.04137643	-0.910875	-0.5586004	0	0
14.74687	0.007578802	0.4768876	-0.04447562	-0.06096907	-0.3835388	-0.5913412	0	0
14.76344	0.007736688	0.4765269	0.009530521	-0.021773	1.630002	1.183008	0	0
14.78	0.007947201	0.4763826	0.01270734	-0.008708839	0.09588221	0.3942998	0	0
14.79657	0.008394539	0.476076	0.02700296	-0.01850606	0.4314673	-0.2956977	0	0
14.81314	0.008420854	0.476058	0.001588439	-0.00108838	-0.7670558	0.5256969	0	0
14.8297	0.008420854	0.476058	0	0	-0.04794194	0.03284927	0	0
14.84627	0.008420854	0.476058	0	0	0	0	0	0
14.86284	0.008420854	0.476058	0	0	0	0	0	0
14.87948	0.008394539	0.476076	-0.001581248	0.001083453	-0.04761662	0.03262636	0	0
14.89597	0.008394539	0.476076	0	0	0.04772353	-0.03269961	0	0
14.91254	0.008394539	0.476076	0	0	0	0	0	0
14.9291	0.008394539	0.476076	0	0	0	0	0	0
14.94567	0.008394539	0.476076	0	0	0	0	0	0
14.96224	0.008394539	0.476076	0	0	0	0	0	0
14.97905	0.008394539	0.476076	0	0	0	0	0	0
14.99537	0.008394539	0.476076	0	0	0	0	0	0
15.01207	0.008394539	0.476076	0	0	0	0	0	0
15.0285	0.008368226	0.476058	-0.001601474	-0.00109735	-0.04833537	-0.03312001	0	0
15.04509	0.008394539	0.47604	0.001585827	-0.001086629	0.09651516	0.0003246701	0	0
15.0782	0.008394539	0.4760039	0	-0.001089195	-0.03190751	-5.164126E-05	0	0
15.09477	0.008394539	0.4760039	0	0	0	0.02192685	0	0
15.11133	0.008394539	0.4759679	0	-0.00217676	0	-0.06569853	0	0
15.1279	0.008420854	0.4759498	0.001588347	-0.001088317	0.0479378	0.03285022	0	0
15.14447	0.008447167	0.4758596	0.001588383	-0.005443699	1.064597E-06	-0.1314495	0	0
15.16103	0.008578737	0.4757695	0.007942026	-0.0054419	0.1917644	5.429251E-05	0	0
15.19417	0.008789247	0.4755892	0.006353376	-0.005441744	-0.03196493	3.148146E-06	0	0
15.21073	0.008789247	0.4755892	0	0	-0.1278351	0.1094923	0	0
15.2273	0.008789247	0.4755171	0	-0.00435352	0	-0.1313971	0	0
15.24387	0.008841875	0.4754449	0.003176822	-0.004355319	0.09588218	-5.429251E-05	0	0
15.26043	0.009026071	0.4752826	0.0111181	-0.009794856	0.239675	-0.1641703	0	0
15.27726	0.009105012	0.4751564	0.004691419	-0.007500779	-0.1924509	0.06869757	0	0
15.29718	0.009289207	0.4749221	0.009248352	-0.01176738	0.1240212	-0.1161196	0	0
15.31378	0.00939446	0.4747778	0.006338514	-0.008686538	-0.07967374	0.08435604	0	0
15.33031	0.009341833	0.4746336	-0.00318373	-0.008726129	-0.2873736	-0.001194838	0	0
15.34688	0.009289207	0.4745615	-0.003176709	-0.00435352	0.0002121316	0.1321177	0	0
15.38001	0.009183953	0.4743451	-0.003176674	-0.006529193	7.120807E-07	-0.0437763	0	0
15.39658	0.009183953	0.4742009	0	-0.008705242	0.06391726	-0.04378387	0	0
15.41315	0.009157639	0.4740747	-0.001588291	-0.007618222	-0.04793611	0.03280726	0	0
15.42986	0.009183953	0.4740206	0.001574066	-0.003233927	0.09501079	0.1317231	0	0
15.44637	0.009210266	0.4738944	0.00159352	-0.007643301	0.0005854463	-0.1326932	0	0
15.46288	0.00923658	0.4738043	0.001593796	-0.005458641	8.361994E-06	0.06615593	0	0
15.49598	0.009183953	0.4731553	-0.001590351	-0.01961062	-0.0641945	-0.2853131	0	0
15.51254	0.007684059	0.471227	-0.09053894	-0.1164045	-1.79123	-1.949217	0	0
15.52911	0.005789409	0.4673357	-0.1143613	-0.2348787	-0.7189819	-3.575661	0	0
15.54594	0.005078904	0.4564474	-0.0422059	-0.6467946	2.160246	-12.33226	0	0
15.56224	0.00536837	0.4508561	0.01776049	-0.3430606	1.809893	9.167237	0	0
15.57881	0.003999979	0.4454301	-0.08257722	-0.3274344	-3.052624	0.4754051	0	0
15.59538	0.003631563	0.4362028	-0.02224403	-0.5571252	1.820912	-6.932282	0	0
15.61199	0.003973663	0.4307674	0.02059351	-0.327193	1.291278	6.930989	0	0
15.62851	0.004210501	0.4185972	0.01433601	-0.7366741	-0.1888623	-12.35888	0	0
15.64507	0.004710491	0.4086229	0.03018118	-0.6020864	0.4788974	4.067719	0	0
15.66202	0.005052588	0.3980474	0.02018427	-0.6239678	-0.298282	-0.6528843	0	0
15.67821	0.005631519	0.3829204	0.03577003	-0.934644	0.4703928	-9.376496	0	0
15.69505	0.006052558	0.3723412	0.02499664	-0.6280733	-0.3261836	9.281977	0	0
15.71134	0.006710425	0.3579972	0.04038547	-0.8805599	0.464449	-7.62028	0	0
15.72791	0.008420854	0.3464426	0.1032476	-0.6974735	1.913263	5.572391	0	0
15.74458	0.01031542	0.335264	0.1136174	-0.6703818	0.311956	0.8150032	0	0
15.76109	0.01134162	0.3282102	0.06215596	-0.4272452	-1.550744	7.3267	0	0
15.77761	0.01394646	0.3134038	0.157719	-0.8965004	2.893593	-14.20877	0	0
15.79418	0.01794544	0.3082231	0.2413927	-0.3127285	2.52928	17.64621	0	0
15.81074	0.02065496	0.3028092	0.1635561	-0.3268	-2.349249	-0.4247057	0	0
15.82764	0.02402169	0.2966972	0.1992145	-0.361656	1.0655	-1.041523	0	0
15.84388	0.02807157	0.2940876	0.2494627	-0.1607494	1.516495	6.063373	0	0
15.86066	0.03054313	0.2924072	0.1472259	-0.1000966	-3.096028	1.836745	0	0
15.87718	0.03419719	0.2898864	0.2212983	-0.1526655	2.224434	-1.578672	0	0
15.89369	0.03695685	0.288009	0.1671315	-0.1136977	-1.640233	1.179988	0	0
15.9102	0.03950575	0.2862745	0.1543584	-0.1050408	-0.3867744	0.2621346	0	0
15.92671	0.03984732	0.286042	0.02068496	-0.01407739	-4.047552	2.754318	0	0
15.94328	0.03984732	0.286042	0	0	-0.6253534	0.4255914	0	0
15.95984	0.03984732	0.286042	0	0	0	0	0	0
15.97641	0.03989987	0.2859705	0.003172043	-0.004317541	0.09574348	-0.1303186	0	0
15.99297	0.04005751	0.2858632	0.009515679	-0.00647811	0.1914623	-0.06520986	0	0
16.00954	0.04037279	0.2856486	0.01903158	-0.01295262	0.2872071	-0.1954124	0	0
16.02628	0.04294726	0.283896	0.1537842	-0.1046912	4.045764	-2.754328	0	0
16.04267	0.04583629	0.2819286	0.1762492	-0.1200238	0.6780347	-0.4627637	0	0
16.05924	0.05192696	0.2777784	0.3676336	-0.2505055	5.806745	-3.958911	0	0
16.07581	0.05533818	0.2754524	0.2059016	-0.1403966	-4.881083	3.323094	0	0
16.09237	0.05804	0.2736093	0.1631011	-0.111264	-1.291794	0.8792717	0	0
16.10894	0.05838095	0.2733767	0.02057954	-0.01404199	-4.301557	2.934336	0	0
16.12551	0.05840718	0.2733588	0.001583007	-0.001079323	-0.5733166	0.3912142	0	0
16.15864	0.0584334	0.2733409	0.0007915492	-0.0005405921	-0.01592478	0.0108397	0	0
16.17939	0.0584334	0.2733409	0	0	-0.01469026	0.01003278	0	0
16.1964	0.05845963	0.273323	0.001541653	-0.001051127	0.04082584	-0.0278358	0	0
16.21252	0.05848585	0.2733051	0.001626641	-0.001110922	0.002564966	-0.001804627	0	0
16.22942	0.05851208	0.2732872	0.001551919	-0.001058126	-0.00226282	0.001598809	0	0
16.26245	0.05853831	0.2732693	0.000794155	-0.0005423718	-0.01517867	0.01033102	0	0
16.27879	0.05853831	0.2732693	0	0	-0.01608646	0.01098632	0	0
16.29536	0.05853831	0.2732693	0	0	0	0	0	0
16.31199	0.05853831	0.2732693	0	0	0	0	0	0
16.3285	0.05856453	0.2732514	0.001588677	-0.001083189	0.04794361	-0.03268883	0	0
16.34506	0.05856453	0.2732156	0	-0.002160943	-0.04803762	-0.03258858	0	0
16.36163	0.05859076	0.2731977	0.001583007	-0.001081122	0.04778075	0.0325928	0	0
16.37819	0.05859076	0.2731977	0	0	-0.047778	0.03263021	0	0
16.39476	0.05859076	0.2731977	0	0	0	0	0	0
16.41155	0.05859076	0.2731977	0	0	0	0	0	0
16.42806	0.05859076	0.2731977	0	0	0	0	0	0
16.44446	0.05859076	0.2731977	0	0	0	0	0	0
16.46109	0.05859076	0.2731977	0	0	0	0	0	0
16.4776	0.05859076	0.2731977	0	0	0	0	0	0
16.49416	0.05856453	0.2731798	-0.001583919	-0.001079945	-0.04789927	-0.03265859	0	0
16.51073	0.05859076	0.2731619	0.001583007	-0.001081122	0.09560554	-3.554146E-05	0	0
16.52764	0.05859076	0.2731261	0	-0.002116583	-0.0472853	-0.0309298	0	0
16.54386	0.05859076	0.2730903	0	-0.002206163	0	-0.002703536	0	0
16.56043	0.05864321	0.2730545	0.003165789	-0.002160445	0.09654406	0.00139423	0	0
16.57717	0.05882679	0.2728577	0.01096344	-0.01175568	0.2340804	-0.2880428	0	0
16.59356	0.05922015	0.2725534	0.02400307	-0.0185656	0.3935594	-0.2055355	0	0
16.61013	0.06068854	0.2715512	0.08863243	-0.06049606	1.96113	-1.272348	0	0
16.62669	0.06102938	0.2712111	0.02057325	-0.02052513	-2.05403	1.206325	0	0
16.64326	0.0610556	0.2711932	0.001582333	-0.001081122	-0.5731469	0.5868212	0	0
16.65983	0.06102938	0.2711754	-0.001582333	-0.001079323	-0.09550978	5.42929E-05	0	0
16.6764	0.06092451	0.2711037	-0.00633023	-0.004322689	-0.1432918	-0.09788498	0	0
16.69296	0.06084585	0.2710501	-0.004747672	-0.003239768	0.04776167	0.03268262	0	0
16.70953	0.0607672	0.2709964	-0.004747672	-0.003241567	0	-5.428939E-05	0	0
16.7261	0.05866943	0.2695644	-0.1266358	-0.08644214	-3.678803	-2.511143	0	0
16.74266	0.05268803	0.2655184	-0.3610381	-0.2442202	-7.074681	-4.762026	0	0
16.77582	0.03714081	0.2548784	-0.4689462	-0.320931	-2.170283	-1.542831	0	0
16.79236	0.03035909	0.2502542	-0.4099116	-0.2795045	1.187869	0.8335664	0	0
16.80934	0.02389019	0.2458792	-0.381032	-0.2576958	0.8615194	0.6505859	0	0
16.82549	0.0158934	0.240426	-0.4949384	-0.33751	-3.4377	-2.408797	0	0
16.84206	0.01010492	0.2365137	-0.3494335	-0.2361714	4.446634	3.096911	0	0
16.85863	0.003710509	0.2321869	-0.3859229	-0.2611346	-1.101252	-0.7533922	0	0
16.87539	0.0004473684	0.22996	-0.1947439	-0.132905	5.73677	3.847828	0	0
16.8919	-0.00449997	0.2265826	-0.2996222	-0.20454	-3.15253	-2.153274	0	0
16.90833	-0.006420964	0.2253068	-0.1169071	-0.07764256	5.546281	3.851947	0	0
16.9249	-0.00939446	0.2232759	-0.1794806	-0.1225841	-1.896221	-1.361905	0	0
16.94146	-0.009920727	0.2229165	-0.03176555	-0.02169889	4.458048	3.044722	0	0
16.95803	-0.0102628	0.2226828	-0.02064739	-0.01410495	0.3355465	0.2291855	0	0
16.9746	-0.0102628	0.2226828	0	0	0.6231396	0.4256883	0	0
16.99117	-0.0102628	0.2226828	0	0	0	0	0	0
17.00773	-0.0102628	0.2226828	0	0	0	0	0	0
17.0245	-0.0102628	0.2226828	0	0	0	0	0	0
17.04087	-0.0102628	0.2226828	0	0	0	0	0	0
17.0613	-0.0102628	0.2226828	0	0	0	0	0	0
17.07787	-0.0102628	0.2226828	0	0	0	0	0	0
17.09443	-0.0102628	0.2226828	0	0	0	0	0	0
17.11105	-0.0102628	0.2226828	0	0	0	0	0	0
17.12757	-0.0102628	0.2226828	0	0	0	0	0	0
17.14413	-0.0102628	0.2226828	0	0	0	0	0	0
17.16109	-0.0102628	0.2226828	0	0	0	0	0	0
17.17727	-0.0102628	0.2226828	0	0	0	0	0	0
17.19383	-0.0102628	0.2226828	0	0	0	0	0	0
17.2104	-0.0102628	0.2226828	0	0	0	0	0	0
17.22697	-0.0102628	0.2226828	0	0	0	0	0	0
17.24365	-0.0102628	0.2226828	0	0	0	0	0	0
17.26016	-0.0102628	0.2226828	0	0	0	0	0	0
17.27667	-0.0102628	0.2226828	0	0	0	0	0	0
17.30204	-0.0102628	0.2226828	0	0	0	0	0	0
17.3187	-0.0102628	0.2226828	0	0	0	0	0	0
17.33521	-0.0102628	0.2226828	0	0	0	0	0	0
17.35174	-0.0102628	0.2226828	0	0	0	0	0	0
17.3683	-0.01028911	0.2227007	-0.001588235	0.00108472	-0.04799381	0.03277842	0	0
17.38487	-0.0102628	0.2227187	0.001588235	0.001085619	0.09586606	2.714469E-05	0	0
17.40176	-0.0102628	0.2227187	0	0	-0.04747392	-0.03245023	0	0
17.41827	-0.0102628	0.2227187	0	0	0	0	0	0
17.43457	-0.0102628	0.2227187	0	0	0	0	0	0
17.45114	-0.0102628	0.2227187	0	0	0	0	0	0
17.46781	-0.0102628	0.2227187	0	0	0	0	0	0
17.48427	-0.0102628	0.2227187	0	0	0	0	0	0
17.50084	-0.01023648	0.2227367	0.001588418	0.001084845	0.04808803	0.03284276	0	0
17.5174	-0.01018386	0.2227367	0.003176526	0	0.04793197	-0.03274256	0	0
17.53397	-0.01013123	0.2227727	0.003176892	0.002170589	1.103981E-05	0.06551226	0	0
17.55054	-0.01005229	0.2227906	0.004764818	0.00108472	0.04792644	-0.03277348	0	0
17.5671	-0.009999666	0.2227906	0.003176526	0	-0.04793473	-0.0327369	0	0
17.5839	-0.009894414	0.2228266	0.006265768	0.002139633	0.09258859	0.06412759	0	0
17.6004	-0.009789161	0.2228625	0.006380231	0.002179623	0.003437885	0.001201095	0	0
17.61691	-0.009683908	0.2228625	0.006373655	0	-0.0001992115	-0.06602821	0	0
17.63342	-0.009499714	0.2228086	0.01115523	-0.003265962	0.1447832	-0.09889142	0	0
17.64994	-0.008920816	0.2224491	0.03505131	-0.02176745	0.7235175	-0.5601819	0	0
17.66651	-0.007710373	0.2216581	0.07306244	-0.04774386	1.148964	-0.7851898	0	0
17.73278	0.02086539	0.2055711	0.4312091	-0.2427537	4.323555	-2.354163	0	0
17.74951	0.02386389	0.2049226	0.1791948	-0.0387526	-3.036241	2.457783	0	0
17.76602	0.02373238	0.2050127	-0.007964225	0.005454401	-5.629675	1.32973	0	0
17.78248	0.02373238	0.2050127	0	0	0.2415706	-0.1654427	0	0
17.79905	0.02373238	0.2050127	0	0	0	0	0	0
17.81561	0.02370608	0.2049947	-0.001587687	-0.001087543	-0.04791925	-0.03282401	0	0
17.83218	0.02367978	0.2050127	-0.001587504	0.001087418	5.516389E-06	0.06564423	0	0
17.84908	0.02367978	0.2050127	0	0	0.04743044	-0.03248918	0	0
17.86531	0.02362718	0.2050487	-0.003240787	0.002219815	-0.09780716	0.06699415	0	0
17.88188	0.02362718	0.2050487	0	0	0.09880821	-0.06767983	0	0
17.89862	0.02357458	0.2050848	-0.003142448	0.002152533	-0.09435046	0.06462874	0	0
17.91513	0.02354828	0.2050667	-0.001592935	-0.001091061	0.04660076	-0.0975493	0	0
17.93164	0.02352198	0.2050848	-0.001592822	0.001091061	3.41591E-06	0.06607717	0	0
17.94815	0.02346937	0.2051208	-0.003185757	0.002181219	-0.04823592	0.03301126	0	0
17.96471	0.02344307	0.2051388	-0.001588236	0.001087919	0.04830506	-0.03305865	0	0
18.03444	0.02328526	0.2052108	-0.002263241	0.001033275	-0.007822833	-0.0006332848	0	0
18.05123	0.02325896	0.2052289	-0.001566761	0.001073209	0.008050536	0.000461592	0	0
18.06774	0.02320636	0.2052289	-0.00318587	0	-0.0486241	-0.03222996	0	0
18.08414	0.02320636	0.2052289	0	0	0.0967961	0	0	0
18.10076	0.02320636	0.2052289	0	0	0	0	0	0
18.11727	0.02320636	0.2052289	0	0	0	0	0	0
18.13384	0.02318006	0.2052108	-0.001587504	-0.001087418	-0.04799109	-0.03287322	0	0
18.15041	0.02318006	0.2052108	0	0	0.04791097	0.03281834	0	0
18.16698	0.02315376	0.2051928	-0.001587617	-0.001086519	-0.04791437	-0.03279119	0	0
18.18354	0.02315376	0.2051928	0	0	0.04791437	0.03279119	0	0
18.20011	0.02315376	0.2051928	0	0	0	0	0	0
18.21685	0.02315376	0.2051928	0	0	0	0	0	0
18.23324	0.02312746	0.2051748	-0.001604125	-0.001098803	-0.04841539	-0.03316386	0	0
18.24981	0.02312746	0.2051748	0	0	0.04866472	0.03333465	0	0
18.26638	0.02312746	0.2051748	0	0	0	0	0	0
18.28294	0.02310115	0.2051568	-0.001587982	-0.001087668	-0.04792816	-0.03282779	0	0
18.29951	0.02310115	0.2051568	0	0	0.04793092	0.03282968	0	0
18.31608	0.02310115	0.2051568	0	0	0	0	0	0
18.33264	0.02307485	0.2051388	-0.001587617	-0.001087418	-0.04791437	-0.03281834	0	0
18.34921	0.02307485	0.2051388	0	0	0.04791437	0.03281834	0	0
18.36578	0.02307485	0.2051388	0	0	0	0	0	0
18.38236	0.02307485	0.2051388	0	0	0	0	0	0
18.39891	0.02307485	0.2051388	0	0	0	0	0	0
18.46519	0.02304855	0.2051208	-0.0003968304	-0.0002718232	-0.004791318	-0.003281985	0	0
18.48174	0.02304855	0.2051208	0	0	0.004790656	0.003281532	0	0
18.49855	0.02304855	0.2051208	0	0	0	0	0	0
18.51488	0.02304855	0.2051208	0	0	0	0	0	0
18.53157	0.02304855	0.2051208	0	0	0	0	0	0
18.54808	0.02302225	0.2051028	-0.001592935	-0.001091061	-0.0479727	-0.03285829	0	0
18.56459	0.02302225	0.2051028	0	0	0.04823871	0.03304049	0	0
18.58115	0.02299595	0.2050848	-0.00158908	-0.00108752	-0.04806368	-0.03289337	0	0
18.59771	0.02299595	0.2050848	0	0	0.04798064	0.03283655	0	0
18.61428	0.02299595	0.2050848	0	0	0	0	0	0
18.63085	0.02299595	0.2050848	0	0	0	0	0	0
18.64766	0.02299595	0.2050848	0	0	0	0	0	0
18.66398	0.02296964	0.2050667	-0.00161106	-0.001103553	-0.04862469	-0.03330722	0	0
18.68068	0.02296964	0.2050667	0	0	0.04878758	0.0334188	0	0
18.69719	0.02296964	0.2050667	0	0	0	0	0	0
18.7137	0.02296964	0.2050667	0	0	0	0	0	0
18.73025	0.02296964	0.2050667	0	0	0	0	0	0
18.74681	0.02296964	0.2050667	0	0	0	0	0	0
18.76338	0.02296964	0.2050667	0	0	0	0	0	0
18.77995	0.02296964	0.2050667	0	0	0	0	0	0
18.79651	0.02296964	0.2050667	0	0	0	0	0	0
18.81327	0.02296964	0.2050667	0	0	0	0	0	0
18.91248	0.02294334	0.2050487	-0.0002651166	-0.0001815882	-0.002286104	-0.001565838	0	0
18.92905	0.02294334	0.2050487	0	0	0.002289908	0.001568444	0	0
18.94562	0.02294334	0.2050487	0	0	0	0	0	0
18.96238	0.02294334	0.2050487	0	0	0	0	0	0
18.97875	0.02294334	0.2050487	0	0	0	0	0	0
18.99532	0.02294334	0.2050487	0	0	0	0	0	0
19.01192	0.02294334	0.2050487	0	0	0	0	0	0
19.04794	0.02294334	0.2050487	0	0	0	0	0	0
19.06434	0.02294334	0.2050487	0	0	0	0	0	0
19.08091	0.02294334	0.2050487	0	0	0	0	0	0
19.09748	0.02294334	0.2050487	0	0	0	0	0	0
19.11404	0.02294334	0.2050487	0	0	0	0	0	0
19.13061	0.02294334	0.2050487	0	0	0	0	0	0
19.14718	0.02294334	0.2050487	0	0	0	0	0	0
19.16375	0.02294334	0.2050487	0	0	0	0	0	0
19.18054	0.02291704	0.2050307	-0.001566516	-0.001072965	-0.04696126	-0.03216552	0	0
19.19705	0.02291704	0.2050307	0	0	0.04703926	0.03221894	0	0
19.21356	0.02291704	0.2050307	0	0	0	0	0	0
19.23007	0.02291704	0.2050307	0	0	0	0	0	0
19.24658	0.02291704	0.2050307	0	0	0	0	0	0
19.26315	0.02291704	0.2050307	0	0	0	0	0	0
19.27971	0.02291704	0.2050307	0	0	0	0	0	0
19.29662	0.02291704	0.2050307	0	0	0	0	0	0
19.31313	0.02291704	0.2050307	0	0	0	0	0	0
19.32941	0.02291704	0.2050307	0	0	0	0	0	0
19.34615	0.02291704	0.2050307	0	0	0	0	0	0
19.36255	0.02291704	0.2050307	0	0	0	0	0	0
19.37911	0.02291704	0.2050307	0	0	0	0	0	0
19.39568	0.02291704	0.2050307	0	0	0	0	0	0
19.41225	0.02291704	0.2050307	0	0	0	0	0	0
19.42882	0.02291704	0.2050307	0	0	0	0	0	0
19.44538	0.02291704	0.2050307	0	0	0	0	0	0
19.46195	0.02294334	0.2050127	0.001587617	-0.001087418	0.04791437	-0.03281834	0	0
19.47875	0.02294334	0.2050127	0	0	-0.0475775	0.03258761	0	0
19.49508	0.02294334	0.2050127	0	0	0	0	0	0
19.51178	0.02294334	0.2050127	0	0	0	0	0	0
19.52829	0.02294334	0.2050127	0	0	0	0	0	0
19.5448	0.02294334	0.2050127	0	0	0	0	0	0
19.56135	0.02294334	0.2050127	0	0	0	0	0	0
19.57792	0.02294334	0.2050127	0	0	0	0	0	0
19.59448	0.02294334	0.2050127	0	0	0	0	0	0
19.61105	0.02294334	0.2050127	0	0	0	0	0	0
19.62762	0.02294334	0.2050127	0	0	0	0	0	0
19.64418	0.02294334	0.2050127	0	0	0	0	0	0
19.66075	0.02294334	0.2050127	0	0	0	0	0	0
19.67739	0.02294334	0.2050127	0	0	0	0	0	0
19.69389	0.02294334	0.2050127	0	0	0	0	0	0
19.74359	0.02291704	0.2050307	-0.0005292259	0.0003624866	-0.007995239	0.005476238	0	0
19.76046	0.02291704	0.2050307	0	0	0.00795011	-0.005445327	0	0
19.77672	0.02291704	0.2050307	0	0	0	0	0	0
19.79329	0.02291704	0.2050307	0	0	0	0	0	0
19.80986	0.02291704	0.2050307	0	0	0	0	0	0
19.82642	0.02291704	0.2050307	0	0	0	0	0	0
19.84299	0.02291704	0.2050307	0	0	0	0	0	0
19.85956	0.02289074	0.2050487	-0.001587617	0.001087418	-0.04791437	0.03281834	0	0
19.87613	0.02265402	0.2052469	-0.01428833	0.0119598	-0.3833081	0.3281291	0	0
19.91156	0.02107583	0.2063996	-0.04453325	0.03252783	-0.5815687	0.3954953	0	0
19.94464	0.01862942	0.2081824	-0.07395175	0.05389202	-0.4293444	0.3117967	0	0
19.96121	0.01189418	0.2134025	-0.4065872	0.3151222	-6.700095	5.261817	0	0
19.97778	0.006657796	0.2220896	-0.3160685	0.5243513	2.732018	6.314911	0	0
19.99434	0.008499796	0.2344493	0.1111961	0.7461221	12.89561	6.69344	0	0
20.01114	0.01347287	0.2565986	0.2961521	1.319013	5.544639	17.1742	0	0
20.02765	0.01720883	0.2682039	0.2262583	0.7028471	-2.098645	-18.50113	0	0
20.04404	0.0243636	0.2852015	0.4363337	1.036599	6.383449	10.14154	0	0
20.06061	0.03601074	0.3083124	0.7030229	1.394976	8.090142	10.87155	0	0
20.07718	0.04688666	0.3249242	0.6563964	1.002574	-1.40711	-11.84205	0	0
20.09374	0.06351969	0.344889	1.004203	1.205358	10.49743	6.120388	0	0
20.11031	0.07582802	0.3592117	0.7429318	0.8645162	-7.886088	-10.28781	0	0
20.12688	0.08970597	0.3794531	0.8376747	1.221772	2.859348	10.782	0	0
20.14345	0.09873058	0.3938264	0.5447267	0.8675743	-8.84119	-10.68971	0	0
20.16024	0.1103135	0.4106278	0.689619	1.000319	4.34286	3.978771	0	0
20.17658	0.1154319	0.4182031	0.3133136	0.4637022	-11.35757	-16.19607	0	0
20.19326	0.121426	0.428759	0.3592794	0.6327134	1.392058	5.118446	0	0
20.20977	0.1283174	0.4380511	0.4173587	0.5627509	1.749613	-2.10759	0	0
20.22629	0.1328446	0.4415514	0.2741757	0.2119834	-4.335747	-10.62164	0	0
20.24284	0.1359974	0.443706	0.1904168	0.1301315	-2.532807	-2.47514	0	0
20.30927	0.1359974	0.443706	0	0	-2.294542	-1.568099	0	0
20.32584	0.1359974	0.443706	0	0	0	0	0	0
20.34241	0.1359974	0.443706	0	0	0	0	0	0
20.42524	0.1362041	0.443311	0.00249479	-0.004769389	0.0250986	-0.04798198	0	0
20.44181	0.1362816	0.4432212	0.004677427	-0.005419377	0.0219578	-0.00653902	0	0
20.45845	0.1362816	0.4432212	0	0	-0.1408246	0.1631626	0	0
20.47497	0.1362816	0.4431853	0	-0.002174148	0	-0.06555932	0	0
20.49151	0.1363849	0.4430416	0.006247297	-0.008686563	0.1890007	-0.1970214	0	0
20.50807	0.1364365	0.4429339	0.003118703	-0.00650367	-0.09451364	0.06594437	0	0
20.52464	0.1364107	0.44288	-0.001558722	-0.003250561	-0.1411731	0.09818467	0	0
20.54121	0.1364107	0.44288	0	0	0.04704504	0.09810778	0	0
20.55777	0.1364107	0.44288	0	0	0	0	0	0
20.57434	0.1364107	0.44288	0	0	0	0	0	0
20.59104	0.1364107	0.44288	0	0	0	0	0	0
20.60747	0.1364365	0.4428621	0.001571751	-0.001093786	0.04743827	-0.03301244	0	0
20.62404	0.1364365	0.4428621	0	0	-0.04763296	0.03314792	0	0
20.64061	0.1364365	0.4428621	0	0	0	0	0	0
20.65718	0.1364365	0.4428621	0	0	0	0	0	0
20.69031	0.1364365	0.4428621	0	0	0	0	0	0
20.72414	0.1364882	0.4427543	0.001527087	-0.003184551	0.02280422	-0.04755538	0	0
20.74015	0.1364882	0.4426107	0	-0.008970045	-0.03063687	-0.1160703	0	0
20.75666	0.1364882	0.4425389	0	-0.004350306	0	0.1420405	0	0
20.77314	0.1364882	0.4425029	0	-0.002179433	0	0.06580876	0	0
20.78971	0.1364624	0.442485	-0.001559622	-0.001082921	-0.04719717	0.03318259	0	0
20.80628	0.1364624	0.4424491	0	-0.00216764	0.04706948	-0.0327369	0	0
20.82284	0.1364882	0.4424311	0.001559622	-0.00108472	0.04706948	0.03268262	0	0
20.83941	0.1364882	0.4423952	0	-0.00216764	-0.04706948	-0.03268262	0	0
20.86016	0.1364624	0.4423054	-0.001245003	-0.0043252	-0.03335923	-0.05781073	0	0
20.8933	0.1363849	0.4421798	-0.002338668	-0.003793139	-0.02029575	0.009873739	0	0
20.90986	0.1362557	0.44209	-0.007795411	-0.005420001	-0.1097941	-0.03273377	0	0
20.92643	0.1362816	0.442072	0.001559622	-0.001082921	0.2823355	0.1308933	0	0
20.94329	0.1362041	0.4420182	-0.004595952	-0.003193573	-0.1841327	-0.06313626	0	0
20.95957	0.1361266	0.4419643	-0.00476037	-0.003310288	-0.004961289	-0.003521878	0	0
20.97613	0.1360749	0.4418566	-0.00312014	-0.006504867	0.0499537	-0.09729185	0	0
20.99283	0.1355066	0.4414616	-0.03403502	-0.02365434	-0.9295881	-0.5156723	0	0
21.00926	0.1335426	0.4400973	-0.1194976	-0.08300997	-2.579266	-1.791356	0	0
21.02585	0.1323016	0.4392357	-0.07481028	-0.0519414	1.353184	0.9407921	0	0
21.05896	0.132043	0.4390562	-0.0078098	-0.005420147	1.348104	0.9360454	0	0
21.07589	0.1311378	0.438428	-0.05348564	-0.03711928	-0.9128692	-0.6335331	0	0
21.0921	0.1229296	0.4326686	-0.5063468	-0.3552881	-13.66738	-9.602355	0	0
21.10867	0.1169637	0.4284721	-0.3601053	-0.2532973	4.461604	3.111583	0	0
21.12523	0.1046167	0.4199229	-0.7452685	-0.5160316	-11.62425	-7.929335	0	0
21.1418	0.09565455	0.4137613	-0.5409536	-0.3719185	6.166237	4.34934	0	0
21.15845	0.08691208	0.4077637	-0.5250973	-0.3602324	0.4773615	0.3518169	0	0
21.17493	0.07480751	0.3994785	-0.7342684	-0.5025797	-6.312795	-4.296051	0	0
21.1915	0.06577341	0.3933077	-0.5452996	-0.372469	5.717239	3.936495	0	0
21.20807	0.05305542	0.3845648	-0.7676588	-0.5277224	-6.710814	-4.685558	0	0
21.22464	0.04357766	0.3778626	-0.5720792	-0.4045501	5.902604	3.717349	0	0
21.24151	0.03017505	0.3680714	-0.7943507	-0.5803082	-6.646945	-5.255982	0	0
21.25777	0.02183863	0.3601226	-0.5126901	-0.4888526	8.501023	2.760293	0	0
21.27453	0.01731406	0.3508	-0.2698725	-0.5560545	7.352372	-2.034832	0	0
21.2909	0.01257828	0.3401569	-0.289316	-0.6502035	-0.5868055	-2.841424	0	0
21.30756	0.009999666	0.3355854	-0.1547903	-0.2744161	4.073125	11.37796	0	0
21.32407	0.001999997	0.3297996	-0.4847025	-0.3505666	-9.948179	-2.296245	0	0
21.3406	-0.003578932	0.3259422	-0.3373663	-0.2332648	4.459192	3.550189	0	0
21.35717	-0.009210266	0.3221202	-0.3398297	-0.2306378	-0.07440643	0.07934832	0	0
21.37374	-0.01197311	0.3202092	-0.1668233	-0.1153907	5.221645	3.478365	0	0
21.3903	-0.01352549	0.3191554	-0.09370176	-0.06360631	2.207194	1.563126	0	0
21.40687	-0.01810328	0.3160118	-0.2763162	-0.1897504	-5.511314	-3.807036	0	0
21.42344	-0.01797175	0.3160297	0.007939545	0.001079323	8.578856	5.759252	0	0
21.44	-0.01794544	0.3160118	0.001587842	-0.001079323	-0.1916948	-0.06514806	0	0
21.45657	-0.01794544	0.3160118	0	0	-0.04792115	0.03257403	0	0
21.57254	-0.01491995	0.3139576	0.02608934	-0.01771356	0.1968501	-0.1336529	0	0
21.58911	-0.01021017	0.31076	0.2842825	-0.1930099	1.948127	-1.322652	0	0
21.60567	-0.005289424	0.3074191	0.2970169	-0.2016535	0.3843245	-0.2608638	0	0
21.62224	-0.001236841	0.3046676	0.2446144	-0.1660844	-1.581511	1.073477	0	0
21.63881	0.004289447	0.3008793	0.3336059	-0.2286881	2.685923	-1.889491	0	0
21.65537	0.009026071	0.2976624	0.2858703	-0.1941497	-1.440663	1.042372	0	0
21.67194	0.01805067	0.2914597	0.5447259	-0.3743956	7.811829	-5.439519	0	0
21.68851	0.02636231	0.2858095	0.5016917	-0.3410427	-1.298775	1.006592	0	0
21.70534	0.03482801	0.2800504	0.5029423	-0.3421476	0.03744432	-0.03308278	0	0
21.72185	0.0432362	0.2743251	0.5092778	-0.3467754	0.1900134	-0.1387935	0	0
21.73821	0.05048339	0.2693854	0.4431038	-0.3020226	-2.013478	1.361693	0	0
21.75488	0.05649246	0.2653214	0.3605086	-0.2438136	-2.50108	1.762635	0	0
21.77134	0.05898413	0.2636203	0.1513385	-0.1033238	-6.313129	4.240238	0	0
21.78791	0.05901036	0.2636024	0.001583007	-0.001081122	-4.533721	3.09531	0	0
21.80447	0.05903658	0.2635845	0.001582782	-0.001081122	-6.78793E-06	0	0	0
21.83761	0.05919392	0.263477	0.004748684	-0.003242466	0.06369808	-0.04348634	0	0
21.85418	0.05932504	0.2633875	0.007914362	-0.005405609	0.06369355	-0.04352253	0	0
21.87096	0.05977083	0.263083	0.02655895	-0.01813743	0.5590262	-0.381742	0	0
21.89222	0.0612129	0.262098	0.06782672	-0.04632833	1.084684	-0.7409711	0	0
21.90879	0.06134399	0.2620085	0.007912338	-0.005405609	-1.583845	1.081798	0	0
21.92536	0.06134399	0.2620085	0	0	-0.2387948	0.1631416	0	0
21.94201	0.06131777	0.2620264	-0.001574401	0.00107555	-0.04739274	0.03237629	0	0
21.95852	0.06131777	0.2620264	0	0	0.04746906	-0.03242842	0	0
21.97506	0.06131777	0.2620264	0	0	0	0	0	0
21.99162	0.06131777	0.2620264	0	0	0	0	0	0
22.00819	0.06131777	0.2620264	0	0	0	0	0	0
22.02476	0.06131777	0.2620264	0	0	0	0	0	0
22.04158	0.06131777	0.2620264	0	0	0	0	0	0
22.05789	0.06131777	0.2620264	0	0	0	0	0	0
22.07461	0.06131777	0.2620264	0	0	0	0	0	0
22.09102	0.06131777	0.2620264	0	0	0	0	0	0
22.10759	0.06129156	0.2620443	-0.001582333	0.001081122	-0.04797582	0.03277928	0	0
22.12416	0.06129156	0.2620443	0	0	0.04775214	-0.03262645	0	0
22.14073	0.06129156	0.2620443	0	0	0	0	0	0
22.15729	0.06129156	0.2620443	0	0	0	0	0	0
22.17386	0.06129156	0.2620443	0	0	0	0	0	0
22.19069	0.06129156	0.2620443	0	0	0	0	0	0
22.2072	0.06129156	0.2620085	0	-0.002169487	0	-0.06506699	0	0
22.22356	0.06129156	0.2620085	0	0	0	0.0660072	0	0
22.24022	0.06129156	0.2620085	0	0	0	0	0	0
22.25669	0.06129156	0.2619727	0	-0.002175266	0	-0.06564967	0	0
22.27326	0.06129156	0.2619727	0	0	0	0.06584677	0	0
22.28982	0.06126534	0.2619548	-0.00158274	-0.001081246	-0.04776993	-0.03263396	0	0
22.30639	0.06126534	0.2619548	0	0	0.04776993	0.03263396	0	0
22.32296	0.06126534	0.2619548	0	0	0	0	0	0
22.33953	0.0612129	0.2619189	-0.00316489	-0.002162244	-0.09551657	-0.06525666	0	0
22.35609	0.06118669	0.261901	-0.001582557	-0.001081122	0.04775489	0.03262833	0	0
22.37266	0.06108182	0.2617936	-0.006330005	-0.006484933	-0.1432783	-0.1630873	0	0
22.38923	0.05924637	0.2605398	-0.1107876	-0.07567853	-3.152535	-2.088267	0	0
22.40579	0.05331784	0.2564911	-0.3578469	-0.2443821	-7.456264	-5.091485	0	0
22.42236	0.04869831	0.2533372	-0.2788355	-0.1903692	2.384568	1.630113	0	0
22.43893	0.039243	0.2468834	-0.5707235	-0.3895493	-8.809199	-6.011267	0	0
22.4555	0.03088491	0.2411795	-0.5044953	-0.3442869	1.998773	1.36602	0	0
22.47206	0.02254881	0.2354905	-0.5032261	-0.343428	0.03830558	0.02592593	0	0
22.48891	0.0164985	0.2313609	-0.3590383	-0.245064	4.314836	2.943552	0	0
22.50543	0.01089431	0.2275349	-0.3392856	-0.2316307	0.5919486	0.4025681	0	0
22.52176	0.004421024	0.2231501	-0.3963869	-0.2684974	-1.738331	-1.122331	0	0
22.53833	-0.0001315789	0.22004	-0.2747957	-0.1877284	3.696012	2.455137	0	0
22.55495	-0.004184186	0.2172705	-0.2438298	-0.1666293	0.9330464	0.6357484	0	0
22.57146	-0.004763122	0.2168748	-0.03506169	-0.02396543	6.300998	4.305852	0	0
22.58803	-0.004763122	0.2168748	0	0	1.059933	0.7244877	0	0
22.6046	-0.004763122	0.2168748	0	0	0	0	0	0
22.62116	-0.004763122	0.2168748	0	0	0	0	0	0
22.63773	-0.004763122	0.2168748	0	0	0	0	0	0
22.6543	-0.004763122	0.2168748	0	0	0	0	0	0
22.67086	-0.004763122	0.2168748	0	0	0	0	0	0
22.68743	-0.004763122	0.2168748	0	0	0	0	0	0
22.72394	-0.004789437	0.2168928	-0.0007208399	0.0004926692	-0.01358182	0.009282704	0	0
22.74051	-0.004789437	0.2168928	0	0	0.01358182	-0.009282704	0	0
22.75707	-0.004789437	0.2168928	0	0	0	0	0	0
22.77364	-0.004789437	0.2168928	0	0	0	0	0	0
22.79021	-0.004789437	0.2168928	0	0	0	0	0	0
22.80677	-0.004789437	0.2168928	0	0	0	0	0	0
22.82334	-0.004789437	0.2168928	0	0	0	0	0	0
22.83991	-0.004789437	0.2168928	0	0	0	0	0	0
22.85647	-0.004789437	0.2168928	0	0	0	0	0	0
22.87304	-0.004789437	0.2168928	0	0	0	0	0	0
22.88961	-0.004789437	0.2168928	0	0	0	0	0	0
22.90617	-0.004789437	0.2168928	0	0	0	0	0	0
22.92274	-0.004789437	0.2168928	0	0	0	0	0	0
22.93931	-0.004789437	0.2168928	0	0	0	0	0	0
22.95587	-0.004789437	0.2168928	0	0	0	0	0	0
22.97244	-0.004789437	0.2168928	0	0	0	0	0	0
22.98901	-0.004789437	0.2168928	0	0	0	0	0	0
23.00578	-0.004789437	0.2168928	0	0	0	0	0	0
23.02229	-0.004789437	0.2168928	0	0	0	0	0	0
23.03871	-0.004763122	0.2168748	0.001602611	-0.001095329	0.04866382	-0.03326004	0	0
23.12886	-0.004763122	0.2168748	0	0	-0.01503767	0.01027772	0	0
23.14537	-0.004763122	0.2168748	0	0	0	0	0	0
23.16238	-0.004763122	0.2168748	0	0	0	0	0	0
23.17851	-0.004763122	0.2168748	0	0	0	0	0	0
23.19507	-0.004763122	0.2168748	0	0	0	0	0	0
23.21164	-0.004763122	0.2168748	0	0	0	0	0	0
23.22821	-0.004763122	0.2168748	0	0	0	0	0	0
23.24478	-0.004763122	0.2168748	0	0	0	0	0	0
23.26134	-0.004763122	0.2168748	0	0	0	0	0	0
23.27797	-0.004763122	0.2168748	0	0	0	0	0	0
23.29448	-0.004763122	0.2168748	0	0	0	0	0	0
23.31104	-0.004763122	0.2168748	0	0	0	0	0	0
23.328	-0.004763122	0.2168748	0	0	0	0	0	0
23.34418	-0.004763122	0.2168748	0	0	0	0	0	0
23.36074	-0.004736807	0.2168568	0.001588376	-0.001085619	0.04851537	-0.03315917	0	0
23.37731	-0.004736807	0.2168568	0	0	-0.04793727	0.03276405	0	0
23.39388	-0.004736807	0.2168568	0	0	0	0	0	0
23.41045	-0.004736807	0.2168568	0	0	0	0	0	0
23.42701	-0.004736807	0.2168568	0	0	0	0	0	0
23.44359	-0.004736807	0.2168568	0	0	0	0	0	0
23.46015	-0.004736807	0.2168568	0	0	0	0	0	0
23.47671	-0.004736807	0.2168568	0	0	0	0	0	0
23.49328	-0.004736807	0.2168568	0	0	0	0	0	0
23.51014	-0.004736807	0.2168568	0	0	0	0	0	0
23.52665	-0.004736807	0.2168568	0	0	0	0	0	0
23.54298	-0.004736807	0.2168568	0	0	0	0	0	0
23.55967	-0.004736807	0.2168568	0	0	0	0	0	0
23.5819	-0.004736807	0.2168568	0	0	0	0	0	0
23.59846	-0.004736807	0.2168568	0	0	0	0	0	0
23.61521	-0.004736807	0.2168568	0	0	0	0	0	0
23.6316	-0.004736807	0.2168568	0	0	0	0	0	0
23.64816	-0.004736807	0.2168568	0	0	0	0	0	0
23.66473	-0.004736807	0.2168568	0	0	0	0	0	0
23.6813	-0.004736807	0.2168568	0	0	0	0	0	0
23.69786	-0.004736807	0.2168568	0	0	0	0	0	0
23.71443	-0.004736807	0.2168568	0	0	0	0	0	0
23.731	-0.004736807	0.2168568	0	0	0	0	0	0
23.74756	-0.004736807	0.2168568	0	0	0	0	0	0
23.76413	-0.004736807	0.2168568	0	0	0	0	0	0
23.78083	-0.004736807	0.2168568	0	0	0	0	0	0
23.79734	-0.004736807	0.2168568	0	0	0	0	0	0
23.81383	-0.004736807	0.2168568	0	0	0	0	0	0
23.83086	-0.004736807	0.2168568	0	0	0	0	0	0
23.84696	-0.004710491	0.2168388	0.001634314	-0.001116997	0.04932652	-0.03371297	0	0
23.86388	-0.004736807	0.2168208	-0.001555278	-0.001062979	-0.09659013	0.001635815	0	0
23.8801	-0.004736807	0.2168208	0	0	0.0469411	0.03208262	0	0
23.89666	-0.004736807	0.2168208	0	0	0	0	0	0
23.91342	-0.004736807	0.2168208	0	0	0	0	0	0
23.9298	-0.004736807	0.2168208	0	0	0	0	0	0
23.94644	-0.004763122	0.2168028	-0.001580913	-0.001080519	-0.04787189	-0.03271936	0	0
23.96295	-0.004763122	0.2168028	0	0	0.04767912	0.03258761	0	0
23.9795	-0.004763122	0.2168028	0	0	0	0	0	0
23.99648	-0.004763122	0.2168028	0	0	0	0	0	0
24.01263	-0.004789437	0.2167489	-0.001629103	-0.00334123	-0.04916643	-0.1008385	0	0
24.04576	-0.004868383	0.2166949	-0.002382578	-0.001628429	-0.01528724	0.03475102	0	0
24.06233	-0.005605204	0.2161912	-0.04447466	-0.03040183	-0.8468943	-0.578922	0	0
24.07904	-0.007236716	0.2150399	-0.09765748	-0.06891661	-1.598344	-1.157514	0	0
24.09555	-0.007499859	0.21486	-0.01593473	-0.01089491	2.460025	1.746574	0	0
24.11206	-0.007473545	0.214842	0.001593824	-0.001089382	0.530785	0.2969227	0	0
24.1286	-0.007526174	0.214806	-0.003182529	-0.002176146	-0.1445334	-0.0328857	0	0
24.14558	-0.007526174	0.21477	0	-0.002118718	0.09493951	0.001713159	0	0
24.16173	-0.007578802	0.214734	-0.003259217	-0.002228583	-0.09836902	-0.003315926	0	0
24.17861	-0.007657745	0.2146441	-0.004677215	-0.005329875	-0.04293614	-0.09390528	0	0
24.19486	-0.007789316	0.2145541	-0.008094485	-0.005534389	-0.1031394	-0.006172608	0	0
24.21163	-0.007973515	0.2144282	-0.01098674	-0.007512087	-0.08759109	-0.05989392	0	0
24.228	-0.007999829	0.2144102	-0.001607726	-0.001099813	0.2830756	0.193534	0	0
24.24456	-0.008026144	0.2143922	-0.001588347	-0.001085619	0.0005884076	0.000430993	0	0
24.26117	-0.008052457	0.2143742	-0.001585007	-0.001084272	0.0001007203	4.062576E-05	0	0
24.2777	-0.008078772	0.2143562	-0.001591646	-0.001087873	-0.0002003704	-0.0001087053	0	0
24.29469	-0.008078772	0.2143562	0	0	0.04747573	0.03244917	0	0
24.31083	-0.008105085	0.2143382	-0.001630335	-0.00111528	-0.04920645	-0.03366116	0	0
24.3274	-0.008105085	0.2143382	0	0	0.04984635	0.0340989	0	0
24.34397	-0.008105085	0.2143382	0	0	0	0	0	0
24.36053	-0.008105085	0.2143382	0	0	0	0	0	0
24.37725	-0.008105085	0.2143382	0	0	0	0	0	0
24.39376	-0.008105085	0.2143382	0	0	0	0	0	0
24.41023	-0.008105085	0.2143382	0	0	0	0	0	0
24.4268	-0.008105085	0.2143382	0	0	0	0	0	0
24.44337	-0.008105085	0.2143382	0	0	0	0	0	0
24.46394	-0.008105085	0.2143382	0	0	0	0	0	0
24.4805	-0.008105085	0.2143382	0	0	0	0	0	0
24.49734	-0.008105085	0.2143382	0	0	0	0	0	0
24.51364	-0.008105085	0.2143382	0	0	0	0	0	0
24.53036	-0.008105085	0.2143382	0	0	0	0	0	0
24.54687	-0.008105085	0.2143382	0	0	0	0	0	0
24.56334	-0.008105085	0.2143382	0	0	0	0	0	0
24.5799	-0.008105085	0.2143382	0	0	0	0	0	0
24.59647	-0.008105085	0.2143382	0	0	0	0	0	0
24.61304	-0.008105085	0.2143382	0	0	0	0	0	0
24.62961	-0.008105085	0.2143382	0	0	0	0	0	0
24.64617	-0.0081314	0.2143202	-0.001588347	-0.001085619	-0.04793642	-0.03276405	0	0
24.66296	-0.0081314	0.2143202	0	0	0.04762663	0.03255231	0	0
24.67931	-0.0081314	0.2143202	0	0	0	0	0	0
24.69598	-0.0081314	0.2143202	0	0	0	0	0	0
24.71249	-0.0081314	0.2143202	0	0	0	0	0	0
24.72951	-0.008157713	0.2143022	-0.001546625	-0.001058016	-0.04613285	-0.03155857	0	0
24.74557	-0.008157713	0.2143022	0	0	0.04674991	0.03198068	0	0
24.76214	-0.008184028	0.2142842	-0.001588347	-0.001085619	-0.04866761	-0.03326381	0	0
24.77871	-0.008184028	0.2142482	0	-0.002172138	0.04793642	-0.03279119	0	0
24.79555	-0.008210341	0.2142302	-0.001562212	-0.001068679	-0.04675739	0.03302679	0	0
24.81184	-0.00826297	0.2141943	-0.003230568	-0.002208099	-0.05035108	-0.03438778	0	0
24.82858	-0.008473481	0.2140503	-0.01257906	-0.008602298	-0.2830667	-0.1936126	0	0
24.84498	-0.008657678	0.2139243	-0.01123194	-0.007679838	0.04065593	0.02783989	0	0
24.86155	-0.008815561	0.2138164	-0.009529861	-0.006516413	0.05163055	0.03529102	0	0
24.87811	-0.00923658	0.2135285	-0.02541272	-0.017378	-0.4793456	-0.3278034	0	0
24.89468	-0.00939446	0.2134205	-0.009529692	-0.006517312	0.4793506	0.3277762	0	0
24.91125	-0.009526027	0.2133305	-0.007941401	-0.005430794	0.04793473	0.0327912	0	0
24.92815	-0.009526027	0.2132946	0	-0.002128999	0.2372681	0.09864894	0	0
24.94438	-0.009526027	0.2132946	0	0	0	0.06425701	0	0
24.96117	-0.009526027	0.2132946	0	0	0	0	0	0
25.04378	-0.009552341	0.2132766	-0.0003185384	-0.0002179058	-0.003204626	-0.002192221	0	0
25.06035	-0.009552341	0.2132766	0	0	0.003211898	0.002197196	0	0
25.07691	-0.009526027	0.2132585	0.001588474	-0.001086644	0.047943	-0.03279686	0	0
25.09377	-0.009526027	0.2132585	0	0	-0.04752984	0.03251423	0	0
25.11005	-0.009526027	0.2132585	0	0	0	0	0	0
25.12679	-0.009526027	0.2132585	0	0	0	0	0	0
25.1433	-0.009526027	0.2132585	0	0	0	0	0	0
25.15981	-0.009526027	0.2132585	0	0	0	0	0	0
25.17632	-0.009526027	0.2132585	0	0	0	0	0	0
25.19288	-0.009526027	0.2132585	0	0	0	0	0	0
25.20945	-0.009526027	0.2132585	0	0	0	0	0	0
25.22601	-0.009526027	0.2132585	0	0	0	0	0	0
25.24258	-0.009526027	0.2132585	0	0	0	0	0	0
25.25915	-0.009526027	0.2132585	0	0	0	0	0	0
25.27571	-0.009526027	0.2132585	0	0	0	0	0	0
25.29241	-0.009526027	0.2132585	0	0	0	0	0	0
25.30892	-0.009526027	0.2132585	0	0	0	0	0	0
25.32541	-0.009526027	0.2132585	0	0	0	0	0	0
25.34198	-0.009526027	0.2132585	0	0	0	0	0	0
25.35895	-0.009499714	0.2132406	0.001550275	-0.001059634	0.04622068	-0.03159247	0	0
25.37511	-0.009499714	0.2132406	0	0	-0.04679009	0.03198167	0	0
25.39168	-0.009499714	0.2132406	0	0	0	0	0	0
25.40825	-0.009526027	0.2132585	-0.001588291	0.001085619	-0.04793473	0.03276405	0	0
25.425	-0.009526027	0.2132585	0	0	0.04766583	-0.03258026	0	0
25.46053	-0.009526027	0.2132585	0	0	0	0	0	0
25.47754	-0.009526027	0.2132585	0	0	0	0	0	0
25.49367	-0.009526027	0.2132585	0	0	0	0	0	0
25.51023	-0.009499714	0.2132406	0.001588291	-0.001085619	0.04858072	-0.03320559	0	0
25.5268	-0.009499714	0.2132406	0	0	-0.04793473	0.03276405	0	0
25.54337	-0.009499714	0.2132406	0	0	0	0	0	0
25.5601	-0.009499714	0.2132406	0	0	0	0	0	0
25.5765	-0.009499714	0.2132406	0	0	0	0	0	0
25.59307	-0.009526027	0.2132585	-0.001588291	0.001085619	-0.04817321	0.03292705	0	0
25.60963	-0.009552341	0.2132766	-0.001588291	0.001086519	0	2.714469E-05	0	0
25.6262	-0.009631281	0.2134025	-0.004764818	0.007602931	-0.09586775	0.1966657	0	0
25.64277	-0.0098681	0.2137804	-0.01429445	0.02280969	-0.287605	0.458941	0	0
25.65967	-0.01115743	0.2157055	-0.07629582	0.1139188	-1.852648	2.722409	0	0
25.6759	-0.01334131	0.2203277	-0.1345298	0.2847299	-1.757605	5.155385	0	0
25.69247	-0.01665635	0.2327616	-0.2000732	0.7504245	-1.998119	14.19689	0	0
25.75623	-0.01920816	0.2850227	-0.04002042	0.8196198	1.992397	0.8613691	0	0
25.77325	-0.01802436	0.3001645	0.06957195	0.8898824	1.356709	0.8698215	0	0
25.78937	-0.015604	0.3063471	0.1501562	0.3835622	2.432036	-15.28077	0	0
25.80593	-0.001263157	0.3187625	0.8656148	0.7493938	21.88868	11.19222	0	0
25.8225	0.00639465	0.3238884	0.4622262	0.3093987	-12.17429	-13.27908	0	0
25.83907	0.02286444	0.3349247	0.994004	0.6660797	16.04816	10.76403	0	0
25.85563	0.03992614	0.3462998	1.030084	0.6867587	1.088947	0.6241293	0	0
25.8722	0.05213692	0.3541038	0.7369595	0.4709965	-8.847012	-6.51209	0	0
25.88877	0.06320518	0.3608549	0.6681581	0.4075418	-2.076429	-1.915069	0	0
25.90534	0.06661183	0.3628196	0.2056259	0.1185942	-13.96005	-8.720956	0	0
25.9219	0.08806113	0.3672854	1.294683	0.2695519	32.8678	4.555913	0	0
25.93887	0.1019349	0.3682143	0.8178402	0.05475953	-14.22086	-6.40575	0	0
25.95504	0.121063	0.3708226	1.183036	0.1613189	11.02226	3.216152	0	0
25.9716	0.1279809	0.3749141	0.4175649	0.2469653	-23.38328	2.616291	0	0
25.98817	0.132405	0.3780055	0.2670732	0.1866184	-4.542109	-1.821377	0	0
26.00492	0.1436098	0.3857625	0.669081	0.4631994	12.06801	8.30278	0	0
26.0213	0.1479118	0.3887838	0.2625107	0.184363	-12.27032	-8.415298	0	0
26.03787	0.1543673	0.393415	0.3896554	0.2795393	3.858111	2.888054	0	0
26.05444	0.1617841	0.3996574	0.4476762	0.3767917	1.751071	2.935083	0	0
26.071	0.1632448	0.4012855	0.0881699	0.09826876	-10.84992	-8.405838	0	0
26.08757	0.1691574	0.4065287	0.3568827	0.3164791	8.109767	6.585601	0	0
26.10499	0.1700266	0.4071372	0.04990521	0.03493724	-9.032697	-8.284265	0	0
26.1207	0.1700522	0.4070835	0.00162717	-0.003417435	-1.457118	-1.157613	0	0
26.13727	0.1700522	0.4070477	0	-0.002160445	-0.05040505	0.03893796	0	0
26.15384	0.1700777	0.4070298	0.001542532	-0.001081122	0.04655372	0.03257403	0	0
26.17053	0.1700266	0.406994	-0.003062343	-0.002143908	-0.1384415	-0.03195171	0	0
26.18705	0.1699755	0.4069582	-0.003096302	-0.002167682	-0.001022649	-0.0007159449	0	0
26.20354	0.1699499	0.4069045	-0.001549311	-0.003255811	0.04686906	-0.03296693	0	0
26.22011	0.1699243	0.4068866	-0.001543432	-0.001079323	0.0001778027	0.06583053	0	0
26.23668	0.1699499	0.4068329	0.001543432	-0.003241567	0.09316174	-0.06525666	0	0
26.25324	0.1698732	0.4067076	-0.004629396	-0.007562457	-0.1862963	-0.1304047	0	0
26.26981	0.1698221	0.406636	-0.003085965	-0.00432089	0.04658086	0.09783068	0	0
26.28638	0.1697454	0.4065823	-0.004629396	-0.003241567	-0.04658086	0.03257402	0	0
26.30294	0.1697198	0.4065644	-0.001542532	-0.001079323	0.09316174	0.06525666	0	0
26.31951	0.1696176	0.4066002	-0.006172828	0.002160445	-0.1397426	0.09777639	0	0
26.33608	0.1694897	0.4067255	-0.00771626	0.007562457	-0.04658087	0.163033	0	0
26.35732	0.1690551	0.4070298	-0.0204588	0.01432046	-0.3369868	0.1787209	0	0
26.37389	0.1680832	0.4077457	-0.05866121	0.04321609	-1.010293	0.7641681	0	0
26.3907	0.162066	0.4121676	-0.3580865	0.2631474	-8.972628	6.590496	0	0
26.40702	0.157064	0.4156954	-0.306331	0.216047	1.562074	-1.421574	0	0
26.42359	0.1491988	0.4212488	-0.4747465	0.3352036	-5.119627	3.622216	0	0
26.44016	0.140541	0.4275578	-0.522584	0.3808104	-1.443737	1.376416	0	0
26.45674	0.136669	0.430355	-0.2334729	0.1686637	8.720872	-6.399282	0	0
26.52299	0.1263496	0.4375127	-0.1557642	0.1080421	0.9381233	-0.7318428	0	0
26.53956	0.1264791	0.4373871	0.007815198	-0.007582244	1.975189	-1.396141	0	0
26.55613	0.1265309	0.4373153	0.003126439	-0.004333482	-0.141507	0.09804785	0	0
26.57269	0.1265309	0.4373153	0	0	-0.09436155	0.1307923	0	0
26.58926	0.1265309	0.4373153	0	0	0	0	0	0
26.60583	0.1265309	0.4373153	0	0	0	0	0	0
26.62239	0.1265309	0.4373153	0	0	0	0	0	0
26.63896	0.1265309	0.4373153	0	0	0	0	0	0
26.65553	0.1265309	0.4373153	0	0	0	0	0	0
26.67209	0.1265309	0.4373153	0	0	0	0	0	0
26.68866	0.1264791	0.4373512	-0.003126439	0.002165842	-0.09435612	0.06536523	0	0
26.70523	0.1264532	0.4373692	-0.00156322	0.00108472	0.04717806	-0.03262833	0	0
26.72193	0.1264532	0.4373692	0	0	0.04698334	-0.03260178	0	0
26.75496	0.1264791	0.4373512	0.0007842281	-0.0005441767	0.01577023	-0.01094298	0	0
26.78806	0.1264532	0.4372974	-0.0007822852	-0.001625785	-0.0236885	-0.01635587	0	0
26.80463	0.1264532	0.4372615	0	-0.002165842	0.01574868	-0.01087222	0	0
26.8212	0.126505	0.4372256	0.003126439	-0.00216764	0.09435612	-5.428939E-05	0	0
26.83802	0.126505	0.4371897	0	-0.002133178	-0.09363922	0.001032169	0	0
26.85433	0.1265309	0.4371718	0.001587528	-0.00109976	0.04791168	0.03118862	0	0
26.87104	0.1265827	0.4371359	0.003100028	-0.002147546	0.04580292	-0.03172999	0	0
26.88746	0.1265827	0.4371359	0	0	-0.09356443	0.06481679	0	0
26.90406	0.1265568	0.4371179	-0.001560166	-0.001080805	-0.04724364	-0.03272804	0	0
26.9206	0.1265568	0.4371179	0	0	0.04708862	0.03262065	0	0
26.93716	0.1265568	0.4371538	0	0.002165842	0	0.06543303	0	0
26.95373	0.1265568	0.4371538	0	0	0	-0.065369	0	0
26.9703	0.1265568	0.4371538	0	0	0	0	0	0
26.98686	0.1265309	0.4371718	-0.0015634	0.001083045	-0.04718621	0.03268826	0	0
27.00343	0.1265309	0.4371718	0	0	0.04718621	-0.03268826	0	0
27.02	0.1264791	0.4372076	-0.003126439	0.002165842	-0.09435612	0.06536523	0	0
27.03667	0.1264791	0.4372076	0	0	0.09406373	-0.06516267	0	0
27.05313	0.1264791	0.4372076	0	0	0	0	0	0
27.0697	0.1264791	0.4372076	0	0	0	0	0	0
27.08626	0.1264791	0.4372076	0	0	0	0	0	0
27.10283	0.1264791	0.4372076	0	0	0	0	0	0
27.1194	0.1264791	0.4372076	0	0	0	0	0	0
27.13622	0.1264791	0.4372076	0	0	0	0	0	0
27.15253	0.126505	0.4371897	0.001588456	-0.001100404	0.04794247	-0.03321216	0	0
27.16925	0.1264791	0.4371718	-0.001548953	-0.001073038	-0.0950044	0.0008286666	0	0
27.18566	0.1264791	0.4371718	0	0	0.0467502	0.03238621	0	0
27.20223	0.1264273	0.4371359	-0.003126439	-0.002165842	-0.09479813	-0.06567144	0	0
27.2188	0.1263755	0.4370641	-0.00312554	-0.004333482	2.714469E-05	-0.06541952	0	0
27.2358	0.126013	0.436777	-0.02132857	-0.01688895	-0.5422826	-0.3740373	0	0
27.27346	0.1245364	0.4356107	-0.03920573	-0.03096751	-0.3270448	-0.2575532	0	0
27.29003	0.1236553	0.4346777	-0.0531787	-0.05631368	-0.2576625	-0.4673851	0	0
27.30659	0.1177942	0.4305881	-0.3537765	-0.2468502	-9.072059	-5.750403	0	0
27.33973	0.09703638	0.416179	-0.6265095	-0.4348915	-5.487611	-3.783544	0	0
27.35638	0.08586729	0.4081932	-0.6706166	-0.4794828	-0.8859063	-0.8956322	0	0
27.3729	0.0778947	0.4022695	-0.4827266	-0.3586695	5.664337	3.64217	0	0
27.3899	0.06993838	0.3961514	-0.4678038	-0.3597254	0.4451445	-0.03149981	0	0
27.40642	0.06150129	0.3902142	-0.5109695	-0.3595699	-1.287771	0.004639311	0	0
27.42256	0.05045713	0.382402	-0.6841114	-0.4839116	-5.302038	-3.807655	0	0
27.43913	0.04502219	0.3787025	-0.3280542	-0.2233047	10.88493	7.966942	0	0
27.45569	0.03443375	0.3714658	-0.6391191	-0.4368092	-9.38796	-6.443578	0	0
27.47247	0.02709863	0.3665172	-0.4373116	-0.2950271	6.052935	4.252555	0	0
27.48883	0.01878726	0.3608727	-0.5080504	-0.3450307	-2.135027	-1.509196	0	0
27.50539	0.01334131	0.3571399	-0.328756	-0.22534	5.445598	3.635289	0	0
27.522	0.008157713	0.3533716	-0.3121639	-0.226934	0.5002031	-0.04805422	0	0
27.53853	0.002157891	0.3480498	-0.3629858	-0.3219623	-1.533806	-2.867958	0	0
27.55509	0.001131578	0.3442462	-0.06194837	-0.22959	9.095799	2.791014	0	0
27.57166	0.002157891	0.3366926	0.06194837	-0.4559349	3.739211	-6.831101	0	0
27.58823	0.002263154	0.3328354	0.006353671	-0.2328208	-1.677851	6.733596	0	0
27.62207	0.005868354	0.3213165	0.1065241	-0.3403518	1.987065	-2.133078	0	0
27.67106	0.0150515	0.3081874	0.1874484	-0.2679957	0.9769424	0.8735058	0	0
27.68763	0.01539352	0.3019158	0.02064232	-0.378511	-2.54435	-1.685728	0	0
27.7042	0.01539352	0.2961253	0	-0.3495959	-0.6230223	0.8727099	0	0
27.72076	0.01673528	0.2916027	0.08098875	-0.2729824	2.444527	2.312466	0	0
27.73733	0.01607756	0.2885454	-0.03969998	-0.1845373	-3.642393	2.669279	0	0
27.75389	0.0142885	0.2871865	-0.1080003	-0.0820362	-2.061428	3.093666	0	0
27.77046	0.01399909	0.2860599	-0.01746912	-0.06799915	2.732395	0.4236632	0	0
27.78703	0.01541983	0.2850942	0.08575632	-0.05828884	3.11535	0.2930578	0	0
27.8037	0.01691944	0.2840748	0.08995721	-0.06115024	0.1263905	-0.0860896	0	0
27.82016	0.01705098	0.2839854	0.007990479	-0.005431004	-2.473903	1.681707	0	0
27.83673	0.01705098	0.2839854	0	0	-0.241919	0.1644286	0	0
27.8533	0.0171036	0.2839496	0.003175908	-0.002160445	0.0958491	-0.06520236	0	0
27.86986	0.01720883	0.2838781	0.006351816	-0.004317292	0.0958491	-0.06509378	0	0
27.88676	0.01739298	0.2837529	0.01089861	-0.007409485	0.1358694	-0.09240236	0	0
27.903	0.01810328	0.28327	0.04374514	-0.02973944	0.9913102	-0.6739195	0	0
27.93613	0.0189188	0.2826798	0.02461216	-0.01781333	-0.387529	0.2415576	0	0
27.95281	0.0189451	0.2826619	0.00157749	-0.001072286	-0.462447	0.3360952	0	0
27.96932	0.0189451	0.2826262	0	-0.002165877	-0.04753212	-0.03295153	0	0
27.98583	0.01902402	0.282501	0.00477893	-0.0075815	0.1447032	-0.1639819	0	0
28.0024	0.01907663	0.2824294	0.003175683	-0.004319091	-0.04846419	0.09861865	0	0
28.01897	0.01915555	0.2823758	0.004763525	-0.003237969	0.04792115	0.03262832	0	0
28.03553	0.01912924	0.2823579	-0.001588024	-0.001079447	-0.1917012	0.06514807	0	0
28.0521	0.01912924	0.2823579	0	0	0.04792943	0.03257966	0	0
28.06867	0.01915555	0.28234	0.001587842	-0.001079323	0.04792115	-0.03257403	0	0
28.08524	0.01915555	0.28234	0	0	-0.04792115	0.03257403	0	0
28.10192	0.01915555	0.28234	0	0	0	0	0	0
28.11843	0.01915555	0.28234	0	0	0	0	0	0
28.13956	0.01920816	0.2823042	0.002489529	-0.001693649	0.06613114	-0.04498959	0	0
28.15613	0.01923447	0.2822506	0.001587842	-0.003237969	-0.02391703	-0.0409627	0	0
28.1727	0.01928708	0.2822148	0.003175683	-0.002160445	0.04792115	0.03251975	0	0
28.18948	0.01931339	0.2821611	0.00156745	-0.003196386	-0.0482229	-0.03106271	0	0
28.20649	0.01939231	0.2821074	0.004638562	-0.003154779	0.09087124	0.00123112	0	0
28.22239	0.01941861	0.2820538	0.001654113	-0.003373111	-0.09066585	-0.006632815	0	0
28.23896	0.01949753	0.2820001	0.004763961	-0.003240141	0.0957796	0.004095318	0	0
28.25553	0.01955014	0.2819644	0.003175318	-0.002158398	-0.04794535	0.03264708	0	0
28.27209	0.01957645	0.2819465	0.001588024	-0.001079447	-0.0479046	0.03256278	0	0
28.28866	0.01970797	0.2818213	0.007938983	-0.00755706	0.1916834	-0.195506	0	0
28.30523	0.01994472	0.2816603	0.01428859	-0.009716387	0.1916206	-0.06516486	0	0
28.32207	0.0209443	0.2809806	0.05935089	-0.0403578	1.348725	-0.9171047	0	0
28.33836	0.0247055	0.2784225	0.2309074	-0.1570477	5.178182	-3.522114	0	0
28.40463	0.0414762	0.2670403	0.2530777	-0.171763	0.2685493	-0.1782468	0	0
28.42119	0.04131858	0.2671477	-0.009515328	0.00648388	-3.170175	2.1519	0	0
28.43816	0.04131858	0.2671477	0	0	0.2838078	-0.1933906	0	0
28.45467	0.04131858	0.2671477	0	0	0	0	0	0
28.47118	0.04131858	0.2671477	0	0	0	0	0	0
28.48746	0.04131858	0.2671477	0	0	0	0	0	0
28.5042	0.04131858	0.2671477	0	0	0	0	0	0
28.5206	0.04131858	0.2671477	0	0	0	0	0	0
28.53723	0.04131858	0.2671477	0	0	0	0	0	0
28.55374	0.04131858	0.2671477	0	0	0	0	0	0
28.5703	0.04131858	0.2671477	0	0	0	0	0	0
28.58686	0.04131858	0.2671477	0	0	0	0	0	0
28.60343	0.04134485	0.2671298	0.001585705	-0.001079323	0.04785668	-0.03257403	0	0
28.62029	0.04131858	0.2671119	-0.00155861	-0.001062648	-0.09407789	0.0004989014	0	0
28.6368	0.04131858	0.2671119	0	0	0.0467109	0.03184714	0	0
28.65313	0.04134485	0.267094	0.001608671	-0.001096779	0.04898116	-0.03339498	0	0
28.66969	0.04134485	0.267094	0	0	-0.04889881	0.03333884	0	0
28.68633	0.04134485	0.267094	0	0	0	0	0	0
28.70283	0.04134485	0.267094	0	0	0	0	0	0
28.7194	0.04134485	0.267094	0	0	0	0	0	0
28.73596	0.04134485	0.267094	0	0	0	0	0	0
28.75253	0.04137112	0.267076	0.001585705	-0.001081122	0.04785668	-0.03262833	0	0
28.7691	0.04139739	0.2670582	0.001585705	-0.001079323	0	5.42929E-05	0	0
28.78567	0.04139739	0.2670582	0	0	-0.04785668	0.03257403	0	0
28.80242	0.04139739	0.2670223	0	-0.002138607	0	-0.06418858	0	0
28.8188	0.04139739	0.2669865	0	-0.002184844	0	-0.001395499	0	0
28.83537	0.04144993	0.2669507	0.003171411	-0.002162244	0.0962508	0.0006858974	0	0
28.85193	0.0414762	0.2669328	0.001585705	-0.001081122	-0.04785668	0.03262833	0	0
28.8685	0.04160755	0.2668075	0.007928303	-0.007564256	0.19142	-0.1956614	0	0
28.88507	0.04205414	0.2665031	0.02695609	-0.01837188	0.5742598	-0.3261746	0	0
28.90199	0.04460198	0.2647663	0.1505809	-0.1026466	3.691689	-2.516616	0	0
28.9185	0.05014215	0.2609876	0.3355253	-0.2288502	5.531958	-3.774933	0	0
28.93477	0.05318663	0.2589097	0.1871483	-0.1277297	-4.526493	3.084853	0	0
28.95133	0.05801377	0.2556131	0.2913668	-0.198984	3.174008	-2.170072	0	0
28.96803	0.06244502	0.2525844	0.2653627	-0.1813696	-0.7817033	0.5295013	0	0
29.00103	0.06307412	0.2521543	0.01906301	-0.01303498	-4.955749	3.387029	0	0
29.0176	0.06307412	0.2521543	0	0	-0.3845815	0.2629708	0	0
29.0392	0.06307412	0.2521543	0	0	0	0	0	0
29.05576	0.06307412	0.2521543	0	0	0	0	0	0
29.07233	0.06307412	0.2521543	0	0	0	0	0	0
29.08912	0.06307412	0.2521543	0	0	0	0	0	0
29.12214	0.06307412	0.2521543	0	0	0	0	0	0
29.1386	0.06307412	0.2521543	0	0	0	0	0	0
29.15517	0.06307412	0.2521543	0	0	0	0	0	0
29.17218	0.06307412	0.2521543	0	0	0	0	0	0
29.1883	0.06307412	0.2521543	0	0	0	0	0	0
29.20521	0.06307412	0.2521543	0	0	0	0	0	0
29.23104	0.06307412	0.2521543	0	0	0	0	0	0
29.24773	0.06307412	0.2521543	0	0	0	0	0	0
29.26424	0.06307412	0.2521543	0	0	0	0	0	0
29.28074	0.06307412	0.2521543	0	0	0	0	0	0
29.29731	0.06307412	0.2521543	0	0	0	0	0	0
29.31388	0.06307412	0.2521543	0	0	0	0	0	0
29.33045	0.06310033	0.2521363	0.001582108	-0.001082921	0.04774811	-0.03268262	0	0
29.34701	0.06310033	0.2521363	0	0	-0.04774811	0.03268262	0	0
29.36382	0.06307412	0.2521543	-0.00155984	0.001067679	-0.04674241	0.03199424	0	0
29.38015	0.06307412	0.2521543	0	0	0.04707877	-0.03222447	0	0
29.39684	0.06307412	0.2521543	0	0	0	0	0	0
29.41335	0.06307412	0.2521543	0	0	0	0	0	0
29.42985	0.06307412	0.2521543	0	0	0	0	0	0
29.44641	0.06307412	0.2521543	0	0	0	0	0	0
29.46298	0.06307412	0.2521543	0	0	0	0	0	0
29.47955	0.06307412	0.2521543	0	0	0	0	0	0
29.49641	0.06307412	0.2521543	0	0	0	0	0	0
29.51268	0.06307412	0.2521543	0	0	0	0	0	0
29.52925	0.06307412	0.2521543	0	0	0	0	0	0
29.54582	0.06310033	0.2521363	0.001582108	-0.001082921	0.04774811	-0.03268262	0	0
29.56238	0.06310033	0.2521363	0	0	-0.04774811	0.03268262	0	0
29.57895	0.06310033	0.2521363	0	0	0	0	0	0
29.59552	0.06310033	0.2521363	0	0	0	0	0	0
29.61209	0.06310033	0.2521363	0	0	0	0	0	0
29.62865	0.06310033	0.2521363	0	0	0	0	0	0
29.64522	0.06310033	0.2521363	0	0	0	0	0	0
29.66179	0.06310033	0.2521363	0	0	0	0	0	0
29.67835	0.06310033	0.2521363	0	0	0	0	0	0
29.69506	0.06310033	0.2521363	0	0	0	0	0	0
29.71157	0.06310033	0.2521363	0	0	0	0	0	0
29.72805	0.06307412	0.2521184	-0.001590163	-0.001086626	-0.04820209	-0.03293855	0	0
29.74462	0.06307412	0.2521184	0	0	0.04811307	0.03287772	0	0
29.81089	0.06307412	0.2521184	0	0	0	0	0	0
29.82766	0.06307412	0.2521184	0	0	0	0	0	0
29.84417	0.06307412	0.2521184	0	0	0	0	0	0
29.86059	0.06307412	0.2521184	0	0	0	0	0	0
29.87716	0.06307412	0.2521184	0	0	0	0	0	0
29.89372	0.06307412	0.2521184	0	0	0	0	0	0
29.91474	0.06307412	0.2521184	0	0	0	0	0	0
29.9313	0.06307412	0.2521184	0	0	0	0	0	0
29.94787	0.06307412	0.2521184	0	0	0	0	0	0
29.96444	0.06307412	0.2521184	0	0	0	0	0	0
29.98101	0.06307412	0.2521184	0	0	0	0	0	0
29.99757	0.06307412	0.2521184	0	0	0	0	0	0
30.01429	0.06307412	0.2521184	0	0	0	0	0	0
30.0308	0.06307412	0.2521184	0	0	0	0	0	0
30.04731	0.06307412	0.2521184	0	0	0	0	0	0
30.06384	0.06307412	0.2521184	0	0	0	0	0	0
30.08041	0.06307412	0.2521184	0	0	0	0	0	0
30.09697	0.06307412	0.2521184	0	0	0	0	0	0
30.11354	0.06307412	0.2521184	0	0	0	0	0	0
30.13011	0.06307412	0.2521184	0	0	0	0	0	0
30.16324	0.06307412	0.2521184	0	0	0	0	0	0
30.22951	0.06307412	0.2521184	0	0	0	0	0	0
30.24608	0.06307412	0.2521184	0	0	0	0	0	0
30.26297	0.06307412	0.2521184	0	0	0	0	0	0
30.27921	0.06307412	0.2521184	0	0	0	0	0	0
30.29578	0.06307412	0.2521184	0	0	0	0	0	0
30.31235	0.06307412	0.2521184	0	0	0	0	0	0
30.32891	0.06307412	0.2521184	0	0	0	0	0	0
30.34548	0.06307412	0.2521184	0	0	0	0	0	0
30.36205	0.06307412	0.2521184	0	0	0	0	0	0
30.37862	0.06307412	0.2521184	0	0	0	0	0	0
30.39518	0.06307412	0.2521184	0	0	0	0	0	0
30.41175	0.06307412	0.2521184	0	0	0	0	0	0
30.42832	0.06307412	0.2521184	0	0	0	0	0	0
30.44488	0.06307412	0.2521184	0	0	0	0	0	0
30.46145	0.06307412	0.2521184	0	0	0	0	0	0
30.47802	0.06307412	0.2521184	0	0	0	0	0	0
30.49459	0.06307412	0.2521184	0	0	0	0	0	0
30.52772	0.06307412	0.2521184	0	0	0	0	0	0
30.54428	0.06307412	0.2521184	0	0	0	0	0	0
30.56085	0.06307412	0.2521184	0	0	0	0	0	0
30.5777	0.06307412	0.2521184	0	0	0	0	0	0
30.59399	0.06307412	0.2521184	0	0	0	0	0	0
30.61055	0.06307412	0.2521184	0	0	0	0	0	0
30.62723	0.06304791	0.2521363	-0.001571434	0.001073828	-0.04726814	0.03230035	0	0
30.64375	0.06304791	0.2521363	0	0	0.04734148	-0.03235046	0	0
30.66025	0.06304791	0.2521363	0	0	0	0	0	0
30.67682	0.06304791	0.2521363	0	0	0	0	0	0
30.69339	0.06304791	0.2521363	0	0	0	0	0	0
30.70995	0.06304791	0.2521363	0	0	0	0	0	0
30.72652	0.06304791	0.2521363	0	0	0	0	0	0
30.74332	0.06304791	0.2521363	0	0	0	0	0	0
30.75966	0.06304791	0.2521363	0	0	0	0	0	0
30.7808	0.06304791	0.2521363	0	0	0	0	0	0
30.79737	0.06304791	0.2521363	0	0	0	0	0	0
30.81393	0.06304791	0.2521363	0	0	0	0	0	0
30.8305	0.06304791	0.2521363	0	0	0	0	0	0
30.84707	0.06304791	0.2521363	0	0	0	0	0	0
30.86363	0.06304791	0.2521363	0	0	0	0	0	0
30.8802	0.06304791	0.2521363	0	0	0	0	0	0
30.89692	0.06304791	0.2521363	0	0	0	0	0	0
30.91343	0.06304791	0.2521363	0	0	0	0	0	0
30.92995	0.06304791	0.2521363	0	0	0	0	0	0
30.94647	0.06304791	0.2521363	0	0	0	0	0	0
30.96304	0.06304791	0.2521363	0	0	0	0	0	0
30.97998	0.06304791	0.2521363	0	0	0	0	0	0
30.99617	0.06304791	0.2521363	0	0	0	0	0	0
31.01274	0.06307412	0.2521184	0.001582108	-0.001081122	0.04830422	-0.03300834	0	0
31.0293	0.06307412	0.2521184	0	0	-0.04774811	0.03262833	0	0
31.04587	0.06307412	0.2521184	0	0	0	0	0	0
31.06244	0.06307412	0.2521184	0	0	0	0	0	0
31.07906	0.06307412	0.2521184	0	0	0	0	0	0
31.09557	0.06307412	0.2521184	0	0	0	0	0	0
31.11214	0.06307412	0.2521184	0	0	0	0	0	0
31.12871	0.06307412	0.2521184	0	0	0	0	0	0
31.14561	0.06307412	0.2521184	0	0	0	0	0	0
31.16184	0.06307412	0.2521184	0	0	0	0	0	0
31.22443	0.06307412	0.2521184	0	0	0	0	0	0
31.241	0.06307412	0.2521184	0	0	0	0	0	0
31.25756	0.06307412	0.2521184	0	0	0	0	0	0
31.2742	0.06307412	0.2521184	0	0	0	0	0	0
31.29071	0.06307412	0.2521184	0	0	0	0	0	0
31.30726	0.06307412	0.2521184	0	0	0	0	0	0
31.32383	0.06307412	0.2521184	0	0	0	0	0	0
31.34039	0.06307412	0.2521184	0	0	0	0	0	0
31.35696	0.06307412	0.2521184	0	0	0	0	0	0
31.37353	0.06307412	0.2521184	0	0	0	0	0	0
31.3901	0.06307412	0.2521184	0	0	0	0	0	0
31.40679	0.06307412	0.2521184	0	0	0	0	0	0
31.42323	0.06307412	0.2521184	0	0	0	0	0	0
31.4398	0.06307412	0.2521184	0	0	0	0	0	0
31.45636	0.06307412	0.2521184	0	0	0	0	0	0
31.47293	0.06307412	0.2521184	0	0	0	0	0	0
31.48985	0.06304791	0.2521005	-0.001549114	-0.001060337	-0.04625971	-0.03166384	0	0
31.50606	0.06304791	0.2521005	0	0	0.04675503	0.03200288	0	0
31.52263	0.06304791	0.2521005	0	0	0	0	0	0
31.5392	0.06304791	0.2521005	0	0	0	0	0	0
31.55576	0.06304791	0.2521005	0	0	0	0	0	0
31.57241	0.06304791	0.2521005	0	0	0	0	0	0
31.58893	0.06304791	0.2521005	0	0	0	0	0	0
31.60546	0.06304791	0.2521005	0	0	0	0	0	0
31.62203	0.06304791	0.2521005	0	0	0	0	0	0
31.6386	0.06304791	0.2521005	0	0	0	0	0	0
31.65547	0.06304791	0.2521005	0	0	0	0	0	0
31.67198	0.06304791	0.2521005	0	0	0	0	0	0
31.69172	0.0630217	0.2521184	-0.001327876	0.0009089042	-0.03662805	0.02507116	0	0
31.70851	0.06294306	0.2521722	-0.004684837	0.003203125	-0.09191155	0.06281437	0	0
31.72502	0.06283821	0.2522797	-0.006350081	0.006513876	-0.05001248	0.09943215	0	0
31.84083	0.05919392	0.283735	-0.03146822	0.2716149	-0.1898282	2.003478	0	0
31.85762	0.06540657	0.3054537	0.3699699	1.293373	3.027419	7.705523	0	0
31.92693	0.08962765	0.3715372	0.3494544	0.9534324	-0.2382651	-3.948053	0	0
31.9435	0.1041481	0.392503	0.8764566	1.265497	6.136611	3.633801	0	0
31.96006	0.1078691	0.3993175	0.2246017	0.4113246	-19.67302	-25.77898	0	0
31.97663	0.112029	0.4136717	0.2510874	0.8664212	0.7993399	13.73484	0	0
31.99321	0.1117951	0.4241877	-0.01410618	0.6342369	-8.000336	-7.004511	0	0
32.00977	0.1102355	0.4371718	-0.09421178	0.7843484	-2.417592	4.530372	0	0
32.02633	0.1069066	0.4480169	-0.2009308	0.6546148	-3.222085	-3.916945	0	0
32.0429	0.10407	0.4556561	-0.1712184	0.4611012	0.8967223	-5.840252	0	0
32.05947	0.09938204	0.4611967	-0.2829675	0.3344336	-3.372594	-3.822834	0	0
32.07603	0.09633248	0.4635545	-0.1840713	0.1423141	2.984691	-5.798178	0	0
32.0926	0.09249844	0.4663452	-0.2314231	0.1684463	-1.429077	0.7886717	0	0
32.10917	0.0914025	0.4673537	-0.06615126	0.06087382	4.987913	-3.246545	0	0
32.12581	0.09393328	0.4689928	0.1520577	0.09848441	6.57043	1.132482	0	0
32.1423	0.09398545	0.4689207	0.003163493	-0.004369795	-4.493636	-3.104146	0	0
32.15887	0.09403761	0.4688487	0.003148925	-0.004347873	-0.0004406843	0.0006631463	0	0
32.17544	0.09411586	0.4687946	0.004722938	-0.003263153	0.0475038	0.0327369	0	0
32.19201	0.09411586	0.4687946	0	0	-0.1425385	0.09848216	0	0
32.20857	0.09411586	0.4687946	0	0	0	0	0	0
32.22514	0.09411586	0.4687946	0	0	0	0	0	0
32.24171	0.09406369	0.4687586	-0.003148925	-0.002174836	-0.09503475	-0.06563668	0	0
32.25827	0.09411586	0.4686145	0.003148925	-0.008697545	0.1900695	-0.1968558	0	0
32.27484	0.09419411	0.4685245	0.004723387	-0.00543619	0.04751737	0.09842788	0	0
32.30801	0.09419411	0.4684524	0	-0.002172585	-0.09496914	0.06561854	0	0
32.32454	0.09419411	0.4684524	0	0	0	0.04371249	0	0
32.34111	0.09416803	0.4684344	-0.001574463	-0.001086519	-0.04756666	-0.03282521	0	0
32.35768	0.09416803	0.4683984	0	-0.002174836	0.04751737	-0.03284548	0	0
32.37424	0.09416803	0.4683623	0	-0.002174836	0	0	0	0
32.39081	0.09419411	0.4683443	0.001574463	-0.001086519	0.04751737	0.03284548	0	0
32.40738	0.09422019	0.4683263	0.001574013	-0.001088317	-1.357235E-05	-5.428939E-05	0	0
32.42395	0.09422019	0.4683263	0	0	-0.0475038	0.03284548	0	0
32.44051	0.09424628	0.4683083	0.001574463	-0.001086519	0.04751737	-0.03279119	0	0
32.45708	0.09429844	0.4682362	0.003148925	-0.004349672	0.04751737	-0.09848215	0	0
32.47365	0.09429844	0.4682362	0	0	-0.09503475	0.1312734	0	0
32.49022	0.09429844	0.4682002	0	-0.002174836	0	-0.06563668	0	0
32.50678	0.09432452	0.4681822	0.001574013	-0.001086519	0.0475038	0.03284548	0	0
32.52335	0.09429844	0.4681282	-0.001574013	-0.003261355	-0.0950076	-0.06563669	0	0
32.53992	0.09429844	0.4681282	0	0	0.0475038	0.09842788	0	0
32.55648	0.09429844	0.4681282	0	0	0	0	0	0
32.57314	0.09429844	0.4681282	0	0	0	0	0	0
32.60618	0.09429844	0.4680561	0	-0.002181114	0	-0.04388746	0	0
32.62275	0.09432452	0.4680021	0.001574013	-0.003261355	0.03173009	-0.02177627	0	0
32.63931	0.09432452	0.4680021	0	0	-0.0475038	0.09842788	0	0
32.6562	0.09432452	0.4680021	0	0	0	0	0	0
32.67656	0.09432452	0.46793	0	-0.003538896	0	-0.09501231	0	0
32.69322	0.09435061	0.467912	0.001565451	-0.0010803	0.04228041	0.06640285	0	0
32.70969	0.09437669	0.467858	0.001583578	-0.003280237	0.0005470748	-0.06639422	0	0
32.72626	0.09448101	0.4677499	0.00629695	-0.006522709	0.1426605	-0.09814047	0	0
32.74283	0.09448101	0.4677139	0	-0.002174836	-0.1900423	0.1312191	0	0
32.7594	0.09463751	0.4676058	0.009445876	-0.006522709	0.2850771	-0.1312191	0	0
32.77596	0.09471574	0.4675518	0.004722488	-0.003261355	-0.1425521	0.09842788	0	0
32.79253	0.09492438	0.4674077	0.01259345	-0.008697545	0.2375461	-0.1640646	0	0
32.8091	0.09523733	0.4671916	0.0188895	-0.01304542	0.1900152	-0.1312191	0	0
32.82566	0.09555025	0.4669755	0.01888815	-0.01304362	-4.069947E-05	5.430344E-05	0	0
32.84233	0.09625427	0.4664532	0.04223175	-0.03132866	0.7023279	-0.5501335	0	0
32.8588	0.0983136	0.4650307	0.1250792	-0.08639908	2.500341	-1.662029	0	0
32.87537	0.09836572	0.4649587	0.003146227	-0.004347873	-3.691419	2.484032	0	0
32.89196	0.09828754	0.4649407	-0.004712829	-0.00108502	-0.2370231	0.09840513	0	0
32.9085	0.09823541	0.4649047	-0.003150579	-0.002176043	0.04714879	-0.03292716	0	0
32.92507	0.09820934	0.4648867	-0.001573563	-0.001088317	0.04762734	0.03285033	0	0
32.94164	0.09815722	0.4648507	-0.003146227	-0.002173037	-0.04746308	-0.0327369	0	0
32.95842	0.09813116	0.4648327	-0.001552734	-0.001072443	0.04777816	0.03299944	0	0
32.97477	0.0981051	0.4648147	-0.001594034	-0.001100968	-0.001246435	-0.0008608866	0	0
32.99134	0.0981051	0.4648147	0	0	0.04842584	0.03344677	0	0
33.00795	0.0981051	0.4648147	0	0	0	0	0	0
33.02447	0.09807903	0.4647967	-0.001577836	-0.001089781	-0.04761919	-0.03288964	0	0
33.04104	0.09807903	0.4647967	0	0	0.04769057	0.03293894	0	0
33.05761	0.09807903	0.4647967	0	0	0	0	0	0
33.07417	0.09807903	0.4647967	0	0	0	0	0	0
33.09074	0.09807903	0.4647967	0	0	0	0	0	0
33.10731	0.09807903	0.4647967	0	0	0	0	0	0
33.12387	0.09807903	0.4647967	0	0	0	0	0	0
33.14044	0.09807903	0.4647967	0	0	0	0	0	0
33.15707	0.09805297	0.4647787	-0.001567699	-0.001082779	-0.04723168	-0.03262199	0	0
33.17358	0.09805297	0.4647787	0	0	0.04731324	0.03267833	0	0
33.19014	0.09805297	0.4647787	0	0	0	0	0	0
33.20671	0.09805297	0.4647787	0	0	0	0	0	0
33.22328	0.09807903	0.4647607	0.001573113	-0.001086519	0.04747666	-0.03279119	0	0
33.23985	0.09807903	0.4647607	0	0	-0.04747666	0.03279119	0	0
33.25641	0.09807903	0.4647607	0	0	0	0	0	0
33.27298	0.09807903	0.4647607	0	0	0	0	0	0
33.28955	0.09807903	0.4647607	0	0	0	0	0	0
33.30618	0.09807903	0.4647607	0	0	0	0	0	0
33.32269	0.09807903	0.4647607	0	0	0	0	0	0
33.33925	0.09807903	0.4647607	0	0	0	0	0	0
33.35582	0.09807903	0.4647607	0	0	0	0	0	0
33.37238	0.09805297	0.4647427	-0.001573113	-0.001086519	-0.04747666	-0.03279119	0	0
33.38924	0.09800084	0.4647427	-0.003093258	0	-0.04548533	0.03251048	0	0
33.40551	0.09800084	0.4647427	0	0	0.09336548	0	0	0
33.42226	0.09800084	0.4647427	0	0	0	0	0	0
33.43877	0.09800084	0.4647427	0	0	0	0	0	0
33.45522	0.09800084	0.4647427	0	0	0	0	0	0
33.47178	0.09797478	0.4647246	-0.001573113	-0.001088317	-0.04765221	-0.03296694	0	0
33.48835	0.09800084	0.4647066	0.001573113	-0.001086519	0.09495331	5.428939E-05	0	0
33.52441	0.09800084	0.4647066	0	0	-0.02988927	0.02064393	0	0
33.54098	0.09800084	0.4647066	0	0	0	0	0	0
33.55754	0.09800084	0.4647066	0	0	0	0	0	0
33.57411	0.0980269	0.4646886	0.001573113	-0.001086519	0.04748212	-0.03279497	0	0
33.59068	0.0980269	0.4646886	0	0	-0.04747666	0.03279119	0	0
33.60739	0.0980269	0.4646526	0	-0.00215468	0	-0.06475256	0	0
33.6239	0.0980269	0.4646166	0	-0.002180568	0	-0.0007793267	0	0
33.64041	0.09813116	0.4644366	0.006313255	-0.01090213	0.1911727	-0.264099	0	0
33.65694	0.09852209	0.4640945	0.0236457	-0.02069033	0.524483	-0.2961927	0	0
33.67351	0.09948626	0.4633565	0.05819755	-0.04454906	1.043858	-0.7208049	0	0
33.69008	0.1018568	0.4617186	0.1430868	-0.09886239	2.561962	-1.63918	0	0
33.70695	0.1056056	0.4591275	0.2221371	-0.153534	2.363701	-1.634748	0	0
33.73978	0.1056056	0.4591275	0	0	-4.469749	3.089347	0	0
33.75634	0.1056056	0.4591275	0	0	0	0	0	0
33.77291	0.1056056	0.4591275	0	0	0	0	0	0
33.78948	0.1056317	0.4591095	0.001570865	-0.001086519	0.04740879	-0.03279119	0	0
33.80605	0.1056317	0.4591095	0	0	-0.04740879	0.03279119	0	0
33.82261	0.1056317	0.4591095	0	0	0	0	0	0
33.83956	0.1056317	0.4591095	0	0	0	0	0	0
33.85575	0.1056317	0.4590735	0	-0.002221887	0	-0.06705668	0	0
33.87258	0.1056317	0.4590735	0	0	0	0.06728908	0	0
33.88888	0.1055796	0.4590375	-0.003191993	-0.002208119	-0.09633454	-0.06664116	0	0
33.9056	0.1055536	0.4590196	-0.001556529	-0.00107482	0.04952376	0.03431759	0	0
33.92202	0.1055536	0.4590196	0	0	0.04697613	0.03243814	0	0
33.93858	0.1055536	0.4590196	0	0	0	0	0	0
33.95515	0.1055536	0.4590196	0	0	0	0	0	0
33.97215	0.1055536	0.4590196	0	0	0	0	0	0
33.98828	0.1055536	0.4590196	0	0	0	0	0	0
34.02142	0.1055536	0.4590196	0	0	0	0	0	0
34.03798	0.1055536	0.4590196	0	0	0	0	0	0
34.05455	0.1055536	0.4590196	0	0	0	0	0	0
34.07122	0.1055536	0.4590196	0	0	0	0	0	0
34.08768	0.1055536	0.4590196	0	0	0	0	0	0
34.12082	0.1055536	0.4590196	0	0	0	0	0	0
34.13739	0.1055536	0.4590196	0	0	0	0	0	0
34.15395	0.1055536	0.4590196	0	0	0	0	0	0
34.17052	0.1055536	0.4590196	0	0	0	0	0	0
34.18709	0.1055536	0.4590196	0	0	0	0	0	0
34.20382	0.1055536	0.4590196	0	0	0	0	0	0
34.22022	0.1055536	0.4590196	0	0	0	0	0	0
34.23684	0.1055536	0.4590196	0	0	0	0	0	0
34.25335	0.1055536	0.4590196	0	0	0	0	0	0
34.26992	0.1055536	0.4590196	0	0	0	0	0	0
34.28649	0.1055536	0.4590196	0	0	0	0	0	0
34.30305	0.1055536	0.4590196	0	0	0	0	0	0
34.3199	0.1055536	0.4590196	0	0	0	0	0	0
34.33619	0.1055536	0.4590196	0	0	0	0	0	0
34.37342	0.1055796	0.4590016	0.0006990026	-0.0004834785	0.01306054	-0.00903357	0	0
34.38999	0.1055796	0.4590016	0	0	-0.01299293	0.00898681	0	0
34.40656	0.1055796	0.4590016	0	0	0	0	0	0
34.42347	0.1055796	0.4590016	0	0	0	0	0	0
34.43969	0.1055276	0.4589656	-0.003209723	-0.002218228	-0.09686963	-0.06694625	0	0
34.4565	0.1054755	0.4588936	-0.003096807	-0.004282158	0.003419224	-0.06249819	0	0
34.47301	0.1053454	0.4588037	-0.007879725	-0.005446552	-0.143539	-0.03494436	0	0
34.48952	0.1051893	0.4585878	-0.009457855	-0.01307619	-0.0477876	-0.2310343	0	0
34.50595	0.1041481	0.4570409	-0.06335415	-0.09413083	-1.636011	-2.460397	0	0
34.52252	0.1001637	0.4516649	-0.2405011	-0.3244967	-5.367934	-6.980584	0	0
34.53909	0.09403761	0.4446399	-0.3697698	-0.4240282	-3.901338	-3.003869	0	0
34.55566	0.08986259	0.4408692	-0.2520048	-0.2276022	3.554153	5.928149	0	0
34.57222	0.08918385	0.440187	-0.04096885	-0.04117437	6.369079	5.626404	0	0
34.58879	0.08960155	0.4404024	0.02521209	0.01300224	1.997345	1.635054	0	0
34.60536	0.08960155	0.4404024	0	0	-0.7609023	-0.3924085	0	0
34.62212	0.08960155	0.4404024	0	0	0	0	0	0
34.63863	0.08960155	0.4404024	0	0	0	0	0	0
34.65506	0.08960155	0.4404024	0	0	0	0	0	0
34.67162	0.08960155	0.4404024	0	0	0	0	0	0
34.68819	0.08960155	0.4404024	0	0	0	0	0	0
34.70476	0.08960155	0.4404024	0	0	0	0	0	0
34.72132	0.08960155	0.4404024	0	0	0	0	0	0
34.7382	0.08960155	0.4404024	0	0	0	0	0	0
34.77103	0.08957544	0.4404204	-0.0007953225	0.0005474651	-0.01600192	0.01101502	0	0
34.78759	0.08957544	0.4404204	0	0	0.01610203	-0.01108393	0	0
34.80416	0.08957544	0.4404204	0	0	0	0	0	0
34.82783	0.08957544	0.4404204	0	0	0	0	0	0
34.8444	0.08960155	0.4404024	0.001575812	-0.00108472	0.03916283	-0.02695798	0	0
34.86097	0.08957544	0.4403845	-0.001575812	-0.001082921	-0.09511618	5.428939E-05	0	0
34.87753	0.08954933	0.4403306	-0.001575812	-0.003250561	0	-0.06541951	0	0
34.8941	0.08962765	0.4401691	0.004727435	-0.009751684	0.1902324	-0.1962043	0	0
34.91067	0.08978428	0.4395947	0.00945397	-0.03467146	0.1426471	-0.7520801	0	0
34.92734	0.08986259	0.4386793	0.00469778	-0.05491097	-0.1430973	-0.6089368	0	0
34.94385	0.08727771	0.4336372	-0.1565645	-0.3053951	-4.860192	-7.549197	0	0
34.96037	0.0847178	0.4193317	-0.1549807	-0.8660743	0.04795511	-16.97606	0	0
34.97693	0.08362034	0.4056517	-0.06624255	-0.8257289	2.682137	1.219451	0	0
34.9935	0.08192151	0.3872463	-0.1025415	-1.110949	-1.095505	-8.607961	0	0
35.01007	0.08001302	0.3757182	-0.1151966	-0.6958359	-0.3819306	12.52814	0	0
