Time	Pos X	Pos Y	Vel X	Vel Y	Acc X	Acc YForce X	Force Y
0.01653634	0.008420854	0.2389187	-0.0001382794	-0.003923298	2.271313E-06	6.444228E-05	0	0
0.03999157	0.008447167	0.2389007	0.001121864	-0.000764904	-2.070087E-05	-5.188416E-05	0	0
0.0565587	0.008447167	0.2389007	0	0	-0.02803094	0.01911192	0	0
0.07312582	0.008473481	0.2388828	0.001588301	-0.001082928	0.04793532	-0.03268302	0	0
0.08969453	0.008473481	0.2388828	0	0	-0.04793305	0.03268147	0	0
0.1065814	0.008473481	0.2388828	0	0	0	0	0	0
0.1228272	0.008499796	0.2388648	0.001619774	-0.001104347	0.0488875	-0.03333105	0	0
0.1393936	0.008499796	0.2388648	0	0	-0.04936508	0.03365666	0	0
0.1725258	0.008499796	0.2388648	0	0	0	0	0	0
0.222226	0.008499796	0.2388648	0	0	0	0	0	0
0.2387924	0.008499796	0.2388648	0	0	0	0	0	0
0.2553591	0.008499796	0.2388648	0	0	0	0	0	0
0.2721927	0.008499796	0.2388648	0	0	0	0	0	0
0.2887034	0.008526109	0.2388469	0.001593733	-0.001087533	0.0477963	-0.0326153	0	0
0.3052212	0.008526109	0.2388469	0	0	-0.04825333	0.03292716	0	0
0.3216256	0.008526109	0.238811	0	-0.002187329	0	-0.0664392	0	0
0.3382445	0.008578737	0.2387751	0.003166772	-0.002160011	0.09589501	0.000827234	0	0
0.3547587	0.008631364	0.2387392	0.003186775	-0.002173693	0.0006037081	-0.0004129495	0	0
0.3713259	0.008683993	0.2387033	0.003176656	-0.002165853	-0.0003058836	0.0002369945	0	0
0.3878922	0.008762933	0.2386495	0.004765131	-0.003249837	0.04794169	-0.03271567	0	0
0.4044594	0.008894502	0.2385598	0.007941555	-0.005416432	0.09586751	-0.0653899	0	0
0.4210261	0.008920816	0.2385418	0.00158834	-0.001082954	-0.1917439	0.130787	0	0
0.4375924	0.008973443	0.2385059	0.003176754	-0.002166858	0.04794046	-0.03271367	0	0
0.4541588	0.008999757	0.238488	0.001588433	-0.001082979	-0.04793821	0.03271329	0	0
0.4708384	0.008999757	0.238488	0	0	-0.0477782	0.03257474	0	0
0.5038593	0.009052385	0.2384521	0.001593751	-0.001087095	0.03206706	-0.02187288	0	0
0.5204257	0.009078698	0.2384341	0.001588377	-0.001082979	-0.0001083832	8.299771E-05	0	0
0.536992	0.009078698	0.2384341	0	0	-0.0479399	0.03268614	0	0
0.5535588	0.009105012	0.2384162	0.001588337	-0.001083851	0.04793809	-0.03271205	0	0
0.5701255	0.009105012	0.2384162	0	0	-0.04793749	0.03271164	0	0
0.5869137	0.009105012	0.2384162	0	0	0	0	0	0
0.603426	0.009131325	0.2383982	0.001593577	-0.001086525	0.04785452	-0.03262793	0	0
0.6199374	0.009131325	0.2383982	0	0	-0.04825555	0.03290135	0	0
0.6364501	0.009131325	0.2383982	0	0	0	0	0	0
0.6529604	0.009157639	0.2383803	0.001593767	-0.001086654	0.04826243	-0.03290604	0	0
0.6695259	0.009157639	0.2383803	0	0	-0.0481852	0.03285339	0	0
0.703784	0.009183953	0.2383623	0.0007680977	-0.0005241355	0.01511299	-0.01031282	0	0
0.7203512	0.009183953	0.2383623	0	0	-0.01511253	0.0103125	0	0
0.7370352	0.009210266	0.2383444	0.001577175	-0.001075342	0.04743227	-0.03234003	0	0
0.7534842	0.009210266	0.2383444	0	0	-0.04760122	0.03245522	0	0
0.770051	0.009210266	0.2383444	0	0	0	0	0	0
0.7866178	0.009210266	0.2383444	0	0	0	0	0	0
0.8031845	0.009210266	0.2383444	0	0	0	0	0	0
0.8197513	0.009210266	0.2383444	0	0	0	0	0	0
0.836318	0.009210266	0.2383444	0	0	0	0	0	0
0.9025842	0.00923658	0.2383265	0.0003970893	-0.0002707414	0.004793857	-0.003268524	0	0
0.9191509	0.00923658	0.2383265	0	0	-0.004793857	0.003268524	0	0
0.9357181	0.00923658	0.2383265	0	0	0	0	0	0
0.9522848	0.009262893	0.2383085	0.001588337	-0.001083851	0.04793697	-0.03271129	0	0
0.9688516	0.00923658	0.2382906	-0.001588337	-0.001082952	-0.09587497	2.714548E-05	0	0
0.9854179	0.00923658	0.2382906	0	0	0.04793809	0.03268491	0	0
1.002208	0.00923658	0.2382906	0	0	0	0	0	0
1.035118	0.009262893	0.2382726	0.000799571	-0.0005451595	0.01608788	-0.01096896	0	0
1.051742	0.009289207	0.2382547	0.001582836	-0.001080098	0.01581268	-0.01079942	0	0
1.068252	0.00931552	0.2382367	0.001593751	-0.001086682	0.0003294243	-0.000198717	0	0
1.085271	0.009341833	0.2382188	0.00154616	-0.001054195	-0.001419435	0.0009689377	0	0
1.117951	0.009552341	0.2380752	0.006441433	-0.004393708	0.09849852	-0.06719486	0	0
1.134805	0.01063118	0.2373394	0.06401331	-0.04366105	1.162279	-0.7927415	0	0
1.151085	0.01502519	0.2343416	0.2698933	-0.1841322	6.213583	-4.239505	0	0
1.167652	0.02002364	0.2309299	0.3017159	-0.205939	0.9688043	-0.6638818	0	0
1.184337	0.02575746	0.2270138	0.3436486	-0.2347006	1.261063	-0.8649637	0	0
1.200785	0.02975437	0.2242825	0.2430045	-0.1660627	-3.037577	2.071587	0	0
1.21736	0.03453889	0.2205794	0.2886507	-0.223407	1.38224	-1.736477	0	0
1.233921	0.03834961	0.2156336	0.2301098	-0.2986524	-1.766692	-2.270814	0	0
1.250888	0.03932182	0.2037697	0.05729895	-0.6992159	-5.154248	-11.94719	0	0
1.267053	0.03871748	0.1928982	-0.03738721	-0.6725554	-2.85786	0.8046792	0	0
1.28362	0.03816567	0.1849733	-0.03330698	-0.4783392	0.1246562	5.933548	0	0
1.300187	0.03716709	0.1635531	-0.06027631	-1.292965	-0.8139418	-24.58562	0	0
1.316752	0.03653637	0.1547032	-0.03807508	-0.5342484	0.6700851	22.89983	0	0
1.333443	0.03585305	0.136744	-0.04093892	-1.075972	-0.08611421	-16.28936	0	0
1.349954	0.03551138	0.123637	-0.0206933	-0.7938315	0.609768	8.497659	0	0
1.366467	0.03474917	0.1072373	-0.04615961	-0.9931625	-0.7711524	-6.035995	0	0
1.383019	0.03440747	0.09555675	-0.02064428	-0.7056991	0.7716869	8.694052	0	0
1.399585	0.03390805	0.08848254	-0.03014634	-0.427022	-0.2869142	8.414642	0	0
1.416152	0.03235712	0.07623645	-0.09361688	-0.7391965	-1.915621	-9.421821	0	0
1.432718	0.02996471	0.07042333	-0.1444134	-0.3508979	-1.533103	11.71934	0	0
1.449287	0.02754566	0.06624763	-0.1460016	-0.2520244	-0.04793097	2.983954	0	0
1.466036	0.02796639	0.06565603	0.02511942	-0.03532112	5.136023	6.50413	0	0
1.482547	0.02799269	0.0658594	0.00159253	0.01231698	-0.7073504	1.432269	0	0
1.49906	0.02799269	0.06589638	0	0.002239281	-0.04822278	-0.3051589	0	0
1.532118	0.02804528	0.06597032	0.001590853	0.002236908	0.03209262	-4.787594E-05	0	0
1.548685	0.02807157	0.06598882	0.001587213	0.001116232	-7.335714E-05	-0.02258315	0	0
1.565607	0.02807157	0.06598882	0	0	-0.0473954	-0.03333155	0	0
1.581818	0.02807157	0.06598882	0	0	0	0	0	0
1.598385	0.02807157	0.06598882	0	0	0	0	0	0
1.615141	0.02807157	0.06598882	0	0	0	0	0	0
1.631653	0.02809787	0.06597032	0.00159253	-0.001119971	0.04787027	-0.03366551	0	0
1.648164	0.02809787	0.06597032	0	0	-0.04822556	0.03391538	0	0
1.681218	0.02812416	0.06595184	0.0007955125	-0.0005592311	0.01604982	-0.01128274	0	0
1.697785	0.02817675	0.06591486	0.003174288	-0.002231918	0.04793834	-0.03370886	0	0
1.714351	0.02820305	0.06589638	0.001587293	-0.001115839	-0.04789718	0.03368444	0	0
1.730918	0.02822934	0.06587789	0.001587213	-0.001115782	-2.413851E-06	1.697074E-06	0	0
1.747484	0.02825564	0.0658594	0.001587247	-0.001116256	1.0365E-06	-1.430019E-05	0	0
1.764051	0.02828193	0.06580394	0.001587213	-0.003347797	-1.0365E-06	-0.06735069	0	0
1.780618	0.02833452	0.06576696	0.003174357	-0.002231966	0.04790097	0.03367643	0	0
1.797269	0.02838711	0.06572998	0.003158223	-0.002220701	-0.0004856826	0.000339129	0	0
1.813781	0.0284397	0.06569301	0.003184968	-0.002239427	0.000806449	-0.0005646603	0	0
1.830318	0.02851858	0.06563754	0.004770176	-0.003353878	0.04796592	-0.03372157	0	0
1.846885	0.02859746	0.0655451	0.004761526	-0.005580261	-0.0002612916	-0.06725527	0	0
1.913151	0.03669405	0.05969828	0.1221821	-0.08823188	1.417553	-0.9978067	0	0
1.929719	0.04194906	0.0559192	0.3171885	-0.2281024	2.354182	-1.688564	0	0
1.946376	0.0480157	0.05159845	0.3641993	-0.2593878	1.414925	-0.9416219	0	0
1.962851	0.05494464	0.04658556	0.4205802	-0.304278	1.701697	-1.354882	0	0
1.979418	0.06480387	0.03925859	0.5951084	-0.4422596	5.282036	-4.175967	0	0
1.995985	0.07090724	0.0330175	0.368411	-0.376724	-6.841864	1.977903	0	0
2.012551	0.07224248	0.02082121	0.08059994	-0.736212	-8.68653	-10.84984	0	0
2.029118	0.07114289	0.01400445	-0.06637353	-0.4114723	-4.43586	9.801085	0	0
2.045946	0.0692051	0.004581206	-0.1151524	-0.5599719	-1.460672	-4.446785	0	0
2.062251	0.06438457	-0.008036874	-0.2956519	-0.7738907	-5.447761	-6.456408	0	0
2.078968	0.05906281	-0.01357021	-0.3183364	-0.330992	-0.6869454	13.41216	0	0
2.095384	0.05460356	-0.01985161	-0.2716428	-0.3826426	1.409265	-1.558875	0	0
2.111992	0.05134956	-0.02265576	-0.1959271	-0.1688412	2.292743	6.474108	0	0
2.128518	0.05085086	-0.02305385	-0.03017655	-0.02408874	5.002398	4.368669	0	0
2.145086	0.05085086	-0.02305385	0	0	0.9118454	0.72789	0	0
2.178218	0.05085086	-0.02305385	0	0	0	0	0	0
2.194785	0.05085086	-0.02305385	0	0	0	0	0	0
2.211562	0.05085086	-0.02305385	0	0	0	0	0	0
2.227918	0.05085086	-0.02305385	0	0	0	0	0	0
2.244585	0.05085086	-0.02305385	0	0	0	0	0	0
2.261098	0.05085086	-0.02305385	0	0	0	0	0	0
2.277618	0.05085086	-0.02305385	0	0	0	0	0	0
2.294185	0.05085086	-0.02305385	0	0	0	0	0	0
2.310751	0.05085086	-0.02305385	0	0	0	0	0	0
2.327644	0.05085086	-0.02305385	0	0	0	0	0	0
2.343884	0.05082461	-0.02303489	-0.001616292	0.001167373	-0.04878226	0.03523317	0	0
2.360451	0.05077212	-0.02299698	-0.003168488	0.002288615	-0.04731277	0.03417678	0	0
2.377018	0.05077212	-0.02299698	0	0	0.09562515	-0.06907053	0	0
2.393585	0.05069337	-0.02290219	-0.004753205	0.005721476	-0.1434541	0.172677	0	0
2.410152	0.05019464	-0.02250412	-0.03010344	0.02402753	-0.7650827	0.5524858	0	0
2.426719	0.0498009	-0.02218191	-0.02376738	0.01944917	0.1912256	-0.138177	0	0
2.443286	0.04919711	-0.02170813	-0.03644447	0.02859734	-0.3826008	0.2760961	0	0
2.459856	0.0490921	-0.02163234	-0.006337413	0.004574547	0.9085674	-0.7249571	0	0
2.476419	0.04911835	-0.02165128	0.001585015	-0.001144058	0.2391148	-0.172599	0	0
2.492985	0.04911835	-0.02165128	0	0	-0.04784306	0.03453296	0	0
2.509552	0.04911835	-0.02165128	0	0	0	0	0	0
2.526119	0.04914461	-0.02167024	0.001584627	-0.001143891	0.04782551	-0.03452368	0	0
2.542685	0.04917086	-0.02168918	0.001584672	-0.001143811	1.377321E-06	2.39977E-06	0	0
2.559309	0.04917086	-0.02168918	0	0	-0.04774512	0.03446226	0	0
2.592386	0.04919711	-0.02170813	0.000793684	-0.0005729347	0.01596941	-0.0115278	0	0
2.62623	0.04919711	-0.02167024	0	0.001119806	-0.01186006	0.0252947	0	0
2.642797	0.04932837	-0.02153759	0.007923134	0.008006671	0.15717	0.1366137	0	0
2.659363	0.04974839	-0.02123443	0.02535386	0.01830008	0.5260831	0.310669	0	0
2.675931	0.05003715	-0.02102602	0.01742852	0.01257908	-0.239189	-0.1726613	0	0
2.692497	0.05029964	-0.02083657	0.01584538	0.01143603	-0.0477799	-0.03449794	0	0
2.709063	0.05035214	-0.02079868	0.00316912	0.00228706	-0.382595	-0.2761342	0	0
2.72593	0.05037839	-0.02077973	0.001556183	0.001123186	-0.04824321	-0.03481166	0	0
2.742439	0.05045713	-0.02068502	0.004770024	0.005737659	0.0962934	0.1382593	0	0
2.758763	0.05069337	-0.02028723	0.01447186	0.02436836	0.295496	0.5674491	0	0
2.77533	0.05082461	-0.01951073	0.007921557	0.04686927	-0.1991502	0.6840994	0	0
2.82503	0.04922336	0.00115834	-0.03221858	0.4158805	-0.6057355	5.568571	0	0
2.841596	0.04945963	0.01900595	0.01426142	1.077315	0.7014124	9.981458	0	0
2.858163	0.05074587	0.03389375	0.0776422	0.8986813	1.912918	-5.391401	0	0
2.874729	0.05358025	0.05426935	0.1710882	1.229909	2.820327	9.996902	0	0
2.891296	0.05667608	0.06977694	0.1868702	0.9360669	0.4763145	-8.868425	0	0
2.907862	0.05919392	0.08511601	0.1519862	0.9259218	-1.052845	-0.3061938	0	0
2.924566	0.06234017	0.1042145	0.1883573	1.143377	1.093214	6.5361	0	0
2.940996	0.06454181	0.1175369	0.134	0.8108516	-1.640541	-10.03585	0	0
2.957563	0.06637603	0.1260458	0.110717	0.5136102	-0.7056125	-9.008164	0	0
2.974129	0.07211158	0.1412938	0.3462186	0.920426	7.10776	12.27825	0	0
2.990696	0.07658675	0.1512721	0.2701213	0.6022893	-2.296689	-9.601661	0	0
3.007262	0.08228745	0.1595106	0.3441201	0.4973132	2.233371	-3.168298	0	0
3.023829	0.08858336	0.1704356	0.3800325	0.659453	1.083891	4.893634	0	0
3.040396	0.09583709	0.1809985	0.4378485	0.637597	1.744942	-0.6596346	0	0
3.056963	0.1001637	0.1894875	0.261161	0.512409	-5.332595	-3.77829	0	0
3.07353	0.1054755	0.1994085	0.3206196	0.5988295	1.794477	2.608196	0	0
3.090096	0.1103915	0.2086145	0.2967493	0.5557151	-0.7204266	-1.301233	0	0
3.106695	0.112055	0.2163172	0.1002164	0.4640495	-5.925961	-2.763947	0	0
3.123708	0.1128605	0.2214064	0.04734732	0.299142	-1.572943	-4.906276	0	0
3.139796	0.1124707	0.2315225	-0.02422487	0.6287687	-2.1622	9.958041	0	0
3.156364	0.1116391	0.2338568	-0.05019319	0.1408982	-0.7952036	-14.9396	0	0
3.17293	0.1104955	0.234934	-0.06903712	0.0650249	-0.5687271	-2.289927	0	0
3.189754	0.1105215	0.2348443	0.00154514	-0.005335582	2.113886	-2.107244	0	0
3.206063	0.1105215	0.2348084	0	-0.002201045	-0.04663476	0.09460527	0	0
3.22263	0.1105215	0.2347006	0	-0.006502209	0	-0.1308308	0	0
3.239196	0.1104955	0.2346827	-0.001569111	-0.001083851	-0.04735723	0.1635311	0	0
3.255763	0.1105215	0.2346647	0.001569111	-0.001083851	0.09471446	0	0	0
3.27233	0.1104955	0.2346468	-0.001569111	-0.001082952	-0.09471446	2.714548E-05	0	0
3.288896	0.1104955	0.2346109	0	-0.002167765	0.04735791	-0.03274114	0	0
3.305463	0.1104695	0.234557	-0.001569111	-0.003250655	-0.04735791	-0.03268308	0	0
3.32203	0.1104695	0.234557	0	0	0.04735723	0.09810778	0	0
3.338597	0.1104695	0.234557	0	0	0	0	0	0
3.355164	0.1104435	0.2345391	-0.001569111	-0.001083851	-0.04735655	-0.03271117	0	0
3.37173	0.1104435	0.2345391	0	0	0.04735723	0.03271164	0	0
3.388296	0.1104175	0.2345211	-0.001569179	-0.001083898	-0.04736029	-0.03271376	0	0
3.404907	0.1103655	0.2344852	-0.003130024	-0.00216204	-0.04704716	-0.03249746	0	0
3.42143	0.1103395	0.2344673	-0.00157366	-0.001086682	0.04697217	0.03245507	0	0
3.504477	0.1083113	0.2331386	-0.02442229	-0.01599844	-0.2294724	-0.1497612	0	0
3.52083	0.1052673	0.2310735	-0.1861427	-0.1262839	-1.626973	-1.109517	0	0
3.538006	0.1011536	0.2283792	-0.2395035	-0.1568616	-1.59148	-0.9119766	0	0
3.553963	0.09776626	0.2260795	-0.2122767	-0.1441201	0.8217357	0.3845541	0	0
3.57053	0.09022804	0.2212446	-0.455008	-0.2918346	-7.463063	-4.541658	0	0
3.587096	0.08646806	0.2188352	-0.2269687	-0.1454439	6.882485	4.418239	0	0
3.603663	0.07982998	0.214698	-0.4006753	-0.2497194	-5.242663	-3.147155	0	0
3.620559	0.07865319	0.2140323	-0.06965289	-0.0394035	9.892403	6.285162	0	0
3.636881	0.07614198	0.2134565	-0.1538508	-0.03527739	-2.534752	0.1242153	0	0
3.653448	0.0730278	0.2155976	-0.18797	0.1292345	-1.037376	5.001904	0	0
3.670096	0.06847174	0.2187273	-0.2736771	0.1879977	-2.58037	1.769174	0	0
3.686582	0.06372937	0.2219817	-0.2876574	0.1974027	-0.4219381	0.2838497	0	0
3.703149	0.06055744	0.2241566	-0.1914632	0.1312836	2.910308	-2.000399	0	0
3.719715	0.05908903	0.225199	-0.08863889	0.06292006	3.103379	-2.063306	0	0
3.73664	0.05830227	0.2257381	-0.04648519	0.03185222	1.258652	-0.927644	0	0
3.752848	0.05830227	0.2257381	0	0	1.402976	-0.9613364	0	0
3.769664	0.0583285	0.2257561	0.001559642	0.001068709	0.04722777	0.03236176	0	0
3.785982	0.05830227	0.2257381	-0.001607153	-0.001101265	-0.09557614	-0.06549138	0	0
3.802687	0.05830227	0.2257381	0	0	0.04866752	0.03334831	0	0
3.819115	0.05830227	0.2257381	0	0	0	0	0	0
3.835681	0.05830227	0.2257381	0	0	0	0	0	0
3.852256	0.05830227	0.2257381	0	0	0	0	0	0
3.868815	0.0583285	0.2257201	0.001583782	-0.001085251	0.04779967	-0.03275364	0	0
3.885381	0.0583285	0.2257201	0	0	-0.04781171	0.03276189	0	0
3.901948	0.0583285	0.2257201	0	0	0	0	0	0
3.918515	0.0583285	0.2257201	0	0	0	0	0	0
3.935082	0.0583285	0.2257201	0	0	0	0	0	0
3.951648	0.0583285	0.2257201	0	0	0	0	0	0
3.968215	0.0583285	0.2257201	0	0	0	0	0	0
3.984817	0.0583285	0.2257201	0	0	0	0	0	0
4.001349	0.0583285	0.2257201	0	0	0	0	0	0
4.017916	0.0583285	0.2257201	0	0	0	0	0	0
4.034482	0.0583285	0.2257201	0	0	0	0	0	0
4.051049	0.0583285	0.2257201	0	0	0	0	0	0
4.067874	0.0583285	0.2257201	0	0	0	0	0	0
4.084182	0.0583285	0.2257201	0	0	0	0	0	0
4.117316	0.0583285	0.2257201	0	0	0	0	0	0
4.133923	0.05835472	0.2257022	0.001579234	-0.001081237	0.03174959	-0.02173764	0	0
4.150451	0.05835472	0.2257022	0	0	-0.04766002	0.03263086	0	0
4.167016	0.05835472	0.2257022	0	0	0	0	0	0
4.183583	0.05838095	0.2256842	0.001583007	-0.00108472	0.04777869	-0.03273926	0	0
4.200149	0.05838095	0.2256842	0	0	-0.04777731	0.03273832	0	0
4.250004	0.05840718	0.2256662	0.000526049	-0.0003604631	0.007919973	-0.005426981	0	0
4.266516	0.05840718	0.2256662	0	0	-0.007926346	0.005431348	0	0
4.283027	0.05840718	0.2256662	0	0	0	0	0	0
4.316115	0.05840718	0.2256662	0	0	0	0	0	0
4.332682	0.05840718	0.2256662	0	0	0	0	0	0
4.349249	0.0584334	0.2256483	0.001583053	-0.001084751	0.047778	-0.03273879	0	0
4.366086	0.0584334	0.2256483	0	0	-0.04739061	0.03247334	0	0
4.382597	0.0584334	0.2256483	0	0	0	0	0	0
4.398949	0.0584334	0.2256483	0	0	0	0	0	0
4.415518	0.0584334	0.2256483	0	0	0	0	0	0
4.432132	0.0584334	0.2256483	0	0	0	0	0	0
4.44865	0.0584334	0.2256483	0	0	0	0	0	0
4.465216	0.0584334	0.2256483	0	0	0	0	0	0
4.481782	0.0584334	0.2256483	0	0	0	0	0	0
4.498349	0.0584334	0.2256483	0	0	0	0	0	0
4.515192	0.05845963	0.2256303	0.001557103	-0.00106697	0.04660647	-0.03193602	0	0
4.531702	0.0584334	0.2256483	-0.001588494	0.001088479	-0.09431268	0.06462562	0	0
4.56531	0.05845963	0.2256303	0.0007803632	-0.0005347262	0.04726607	-0.032388	0	0
4.581877	0.05845963	0.2256303	0	0	-0.01555277	0.01065718	0	0
4.598445	0.05845963	0.2256303	0	0	0	0	0	0
4.61501	0.05845963	0.2256303	0	0	0	0	0	0
4.631577	0.05845963	0.2256303	0	0	0	0	0	0
4.648286	0.05845963	0.2256303	0	0	0	0	0	0
4.705304	0.0584334	0.2256123	-0.0004599662	-0.0003151814	-0.006238845	-0.004275027	0	0
4.721872	0.0584334	0.2256123	0	0	0.006250772	0.004283199	0	0
4.738437	0.0584334	0.2256123	0	0	0	0	0	0
4.755361	0.0584334	0.2256123	0	0	0	0	0	0
4.771571	0.0584334	0.2256123	0	0	0	0	0	0
4.788137	0.0584334	0.2256123	0	0	0	0	0	0
4.804895	0.0584334	0.2256123	0	0	0	0	0	0
4.82127	0.0584334	0.2256123	0	0	0	0	0	0
4.837837	0.0584334	0.2256123	0	0	0	0	0	0
4.854404	0.0584334	0.2256123	0	0	0	0	0	0
4.870971	0.0584334	0.2256123	0	0	0	0	0	0
4.887537	0.0584334	0.2256123	0	0	0	0	0	0
4.904466	0.0584334	0.2256123	0	0	0	0	0	0
4.920671	0.0584334	0.2256123	0	0	0	0	0	0
4.93749	0.0584334	0.2256123	0	0	0	0	0	0
4.953804	0.0584334	0.2256123	0	0	0	0	0	0
4.970371	0.0584334	0.2256123	0	0	0	0	0	0
4.986938	0.0584334	0.2256123	0	0	0	0	0	0
5.003504	0.0584334	0.2256123	0	0	0	0	0	0
5.020547	0.0584334	0.2256123	0	0	0	0	0	0
5.036637	0.0584334	0.2256123	0	0	0	0	0	0
5.053204	0.0584334	0.2256123	0	0	0	0	0	0
5.069771	0.05845963	0.2256303	0.001583053	0.001084751	0.047778	0.03273879	0	0
5.086597	0.05845963	0.2256303	0	0	-0.04740686	-0.03248447	0	0
5.102904	0.05851208	0.2257022	0.003216468	0.004408024	0.097076	0.1330383	0	0
5.119619	0.05937749	0.2262951	0.05177562	0.03547664	1.470512	0.9408479	0	0
5.136132	0.05992816	0.2266365	0.03334785	0.02067391	-0.5545949	-0.445497	0	0
5.152605	0.06137021	0.2276247	0.08753858	0.05998622	1.642832	1.191782	0	0
5.169171	0.06351969	0.22899	0.1297509	0.08241556	1.277628	0.678863	0	0
5.185738	0.06645463	0.230427	0.1771635	0.08673939	1.431	0.130501	0	0
5.202304	0.0704621	0.2322767	0.2418981	0.1116556	1.953777	0.7520047	0	0
5.218871	0.07190215	0.2328693	0.08692649	0.03576903	-4.677255	-2.29036	0	0
5.235437	0.07182361	0.2327077	-0.004740613	-0.009754662	-2.766638	-1.373967	0	0
5.252212	0.07179743	0.2326897	-0.001560768	-0.001070418	0.09537226	0.2604642	0	0
5.268723	0.07169271	0.2326179	-0.006342777	-0.004350055	-0.1436659	-0.09853014	0	0
5.285236	0.07164034	0.232582	-0.003171022	-0.002174776	0.09604441	0.06586996	0	0
5.301703	0.07158798	0.232582	-0.003179745	0	-0.0002644901	0.06594139	0	0
5.318271	0.0715618	0.232564	-0.001580309	-0.00108382	0.04841671	-0.03280844	0	0
5.334838	0.0715618	0.232564	0	0	0.04769382	0.03270976	0	0
5.351404	0.07150944	0.2325281	-0.003160891	-0.002168727	-0.09539999	-0.06545514	0	0
5.36797	0.07150944	0.2325281	0	0	0.09540273	0.06545702	0	0
5.384537	0.07148325	0.2325461	-0.001580309	0.00108472	-0.04769519	0.03273785	0	0
5.401104	0.07143089	0.2325461	-0.003160709	0	-0.04769725	-0.03273737	0	0
5.41767	0.07140471	0.232564	-0.0015804	0.001083883	0.04769587	0.03271306	0	0
5.483937	0.07109052	0.2324563	-0.004741288	-0.001626002	-0.03815963	-0.03271492	0	0
5.500505	0.07095961	0.2323665	-0.007901766	-0.005418945	-0.03815403	-0.04578929	0	0
5.51707	0.07059303	0.2321151	-0.02212912	-0.01517613	-0.4294009	-0.2944851	0	0
5.533637	0.07022643	0.2318637	-0.02212856	-0.01517572	1.697807E-05	1.239624E-05	0	0
5.550203	0.06938842	0.2312531	-0.05058539	-0.03685741	-0.8588659	-0.6543829	0	0
5.56677	0.0677907	0.2300857	-0.09644119	-0.07046653	-1.383991	-1.014369	0	0
5.583337	0.0670572	0.2294391	-0.04427556	-0.03903214	1.574407	0.9487191	0	0
5.599957	0.06718819	0.2293493	0.007881085	-0.005403481	1.57158	1.013296	0	0
5.633037	0.07315867	0.2245341	0.1804909	-0.1455662	3.47305	-2.820188	0	0
5.649603	0.0794639	0.2168568	0.3805951	-0.4634144	4.030628	-6.402305	0	0
5.66617	0.08189537	0.1992643	0.1467721	-1.061943	-7.057096	-18.06441	0	0
5.682736	0.08197378	0.1833295	0.004733418	-0.9618574	-4.286921	3.020724	0	0
5.699303	0.08202606	0.166941	0.003155762	-0.9892415	-0.04761512	-0.8264776	0	0
5.71587	0.08147712	0.1568443	-0.03313432	-0.6094353	-1.095253	11.46274	0	0
5.732554	0.07663907	0.1401113	-0.2899887	-1.002966	-7.724756	-11.83523	0	0
5.749004	0.07266133	0.1373084	-0.2418093	-0.1703858	1.454099	25.12805	0	0
5.765575	0.06949318	0.1364891	-0.1911855	-0.0494414	1.533081	3.662653	0	0
5.782137	0.06923129	0.1367076	-0.01581304	0.01319261	5.29298	1.89038	0	0
5.798704	0.0682622	0.1374905	-0.05849605	0.04725412	-1.288398	1.028156	0	0
5.815609	0.06097694	0.1435309	-0.4309447	0.357312	-11.12715	9.263184	0	0
5.831837	0.05384265	0.1528699	-0.4396236	0.5754763	-0.2619395	6.584404	0	0
5.848632	0.04176517	0.1647672	-0.7191045	0.7083756	-8.463126	4.024403	0	0
5.865144	0.0309112	0.1722455	-0.6573605	0.4529206	1.853806	-7.669803	0	0
5.881657	0.02052343	0.1793898	-0.6290529	0.432638	0.8571627	-0.6141619	0	0
5.898168	0.00781563	0.1881516	-0.7696808	0.5306778	-4.258377	2.968758	0	0
5.914679	-0.0002368421	0.193674	-0.4876905	0.3344599	8.539487	-5.942048	0	0
5.931238	-0.008920816	0.1997691	-0.5244374	0.3680896	-1.111184	1.016922	0	0
5.947803	-0.01310451	0.2028868	-0.2525503	0.1882061	8.20805	-5.430537	0	0
5.964715	-0.01947122	0.2114229	-0.3764614	0.5047315	-3.701294	9.45479	0	0
5.981227	-0.01920816	0.2199501	0.01593149	0.5164282	11.73989	0.3499483	0	0
6.01407	-0.01384122	0.2391699	0.1634139	0.5852093	2.988222	1.393613	0	0
6.030762	-0.01076274	0.2457178	0.1844319	0.3922841	0.4243118	-3.894778	0	0
6.047204	-0.007499859	0.2519929	0.1984502	0.3816586	0.4230879	-0.3206896	0	0
6.063785	-0.0008157893	0.2594829	0.4031032	0.4517078	6.197218	2.121203	0	0
6.080337	0.007341973	0.2667896	0.4928717	0.4414505	2.709335	-0.3095803	0	0
6.096904	0.008341912	0.2722313	0.06035468	0.3284519	-13.0594	-3.411874	0	0
6.179737	-0.03138443	0.309563	-0.4795966	0.4506873	-5.432077	1.229726	0	0
6.19638	-0.04137112	0.3163512	-0.600069	0.4078796	-1.211078	-0.4303355	0	0
6.21289	-0.05077212	0.3227454	-0.5693958	0.3872798	0.9252017	-0.6213539	0	0
6.229437	-0.06110803	0.3297817	-0.6246501	0.4252417	-1.671476	1.148371	0	0
6.246004	-0.06676903	0.333639	-0.341708	0.2328329	8.544621	-5.810589	0	0
6.26257	-0.06653323	0.3334783	0.01423308	-0.009701595	10.74263	-7.319916	0	0
6.279438	-0.06564239	0.3329425	0.05281333	-0.03176061	1.153909	-0.6597704	0	0
6.295949	-0.06556379	0.3329604	0.00476083	0.001081227	-1.43964	0.9839332	0	0
6.312462	-0.06551138	0.3329247	0.003173546	-0.002162018	-0.04806411	-0.09820781	0	0
6.328973	-0.06551138	0.3329247	0	0	-0.09609727	0.06546746	0	0
6.36197	-0.06556379	0.3329247	-0.001588241	0	-0.03208073	0	0	0
6.378537	-0.06556379	0.3329247	0	0	0.032044	0	0	0
6.395103	-0.06558999	0.3328711	-0.001581749	-0.003234558	-0.04773866	-0.09762195	0	0
6.411671	-0.06561619	0.332889	-0.001581208	0.001079323	1.632031E-05	0.1301969	0	0
6.445555	-0.06577341	0.3327818	-0.00463972	-0.003162776	-0.06062249	-0.08408228	0	0
6.462091	-0.06606162	0.3326568	-0.0174295	-0.007558609	-0.2536609	-0.087183	0	0
6.478579	-0.06611403	0.3326568	-0.003178594	0	0.4315338	0.2288834	0	0
6.495116	-0.06621883	0.3327283	-0.006337224	0.004319728	-0.0956442	0.1308026	0	0
6.511683	-0.06653323	0.3329425	-0.01897829	0.01293463	-0.3818654	0.2602417	0	0
6.528249	-0.06669043	0.3330497	-0.009488872	0.00646713	0.2864036	-0.195198	0	0
6.544816	-0.06765972	0.3337104	-0.05850987	0.03988508	-1.479521	1.008599	0	0
6.561383	-0.07051447	0.3356569	-0.172313	0.1174879	-3.434685	2.342126	0	0
6.578149	-0.076953	0.3400497	-0.3840105	0.2620016	-6.35084	4.335353	0	0
6.594661	-0.08544932	0.3458177	-0.5145565	0.3493181	-3.922837	2.623814	0	0
6.627684	-0.09132421	0.3498356	-0.1779038	0.1216726	6.796288	-4.595669	0	0
6.644217	-0.09815722	0.3545146	-0.4133097	0.2830157	-4.750368	3.25582	0	0
6.660783	-0.1050591	0.3592474	-0.4166118	0.2856835	-0.09976464	0.08059883	0	0
6.67735	-0.1101055	0.3627125	-0.3046099	0.2091572	3.38032	-2.309632	0	0
6.693918	-0.114549	0.365767	-0.2681996	0.1843647	1.098867	-0.7482416	0	0
6.710742	-0.1157695	0.3666065	-0.07254262	0.04990045	5.859321	-4.026787	0	0
6.727256	-0.1157954	0.3666244	-0.001572336	0.001082814	2.128776	-1.4643	0	0
6.743767	-0.1157954	0.3666244	0	0	0.04761077	-0.0327879	0	0
6.76028	-0.1157954	0.3666244	0	0	0	0	0	0
6.77679	-0.1157954	0.3666244	0	0	0	0	0	0
6.793317	-0.1157954	0.3666244	0	0	0	0	0	0
6.809884	-0.1157954	0.3666244	0	0	0	0	0	0
6.826451	-0.1157954	0.3666244	0	0	0	0	0	0
6.843338	-0.1158214	0.3666065	-0.001537616	-0.001058903	-0.04596283	-0.03165302	0	0
6.859584	-0.1158474	0.3665887	-0.001598225	-0.001098808	-0.001829268	-0.00120439	0	0
6.892873	-0.116107	0.3663743	-0.007799295	-0.006439616	-0.1251849	-0.1078183	0	0
6.909286	-0.1163407	0.3662135	-0.01423595	-0.009795982	-0.1295045	-0.06752957	0	0
6.925898	-0.1166522	0.3659992	-0.01875341	-0.01290295	-0.13679	-0.09407981	0	0
6.94242	-0.1168858	0.3658384	-0.01414047	-0.009731522	0.1392228	0.09571659	0	0
6.958999	-0.1169637	0.3657848	-0.004697072	-0.003232046	0.2852897	0.1963524	0	0
6.975552	-0.1170416	0.3657312	-0.004704379	-0.003237073	-0.000220515	-0.0001517394	0	0
6.992119	-0.1170416	0.3657312	0	0	0.1420397	0.09773726	0	0
7.008957	-0.1170935	0.3656955	-0.0030827	-0.002122094	-0.09228174	-0.06352566	0	0
7.025252	-0.1171194	0.3656777	-0.001593044	-0.001095561	0.04495984	0.03098217	0	0
7.041979	-0.1171973	0.365624	-0.004655118	-0.003205265	-0.09272984	-0.06388891	0	0
7.058492	-0.1172233	0.3656062	-0.001571975	-0.001081071	0.09275442	0.06390505	0	0
7.075011	-0.1172752	0.3655705	-0.003142771	-0.002163135	-0.04755383	-0.03275812	0	0
7.091519	-0.1173271	0.3655705	-0.003144407	0	-4.955213E-05	0.06549563	0	0
7.108085	-0.1174569	0.365624	-0.007833638	0.003234558	-0.1417783	0.09779647	0	0
7.190919	-0.1188582	0.3661957	-0.01691698	0.006900991	-0.09138122	0.03688546	0	0
7.207598	-0.1191176	0.3660528	-0.01555621	-0.00856813	0.01367439	-0.1554489	0	0
7.224051	-0.119377	0.3659099	-0.01576764	-0.008685336	-0.006381767	-0.003537562	0	0
7.24062	-0.1225149	0.364463	-0.1893796	-0.08732517	-5.257399	-2.381408	0	0
7.257185	-0.1358424	0.3615515	-0.804544	-0.1757592	-18.5657	-2.668945	0	0
7.273752	-0.1490186	0.3608906	-0.7953401	-0.03989113	0.2777964	4.100802	0	0
7.290319	-0.1648841	0.3593903	-0.9576411	-0.0905588	-4.898324	-1.529176	0	0
7.306884	-0.17018	0.3583722	-0.3197064	-0.0614583	19.25429	0.878318	0	0
7.323451	-0.1740626	0.3566934	-0.2343637	-0.101337	2.575869	-1.203644	0	0
7.340018	-0.1757214	0.3555325	-0.1001245	-0.07007347	4.051466	0.9435613	0	0
7.356585	-0.1756703	0.355604	0.003079757	0.00431202	3.1148	2.245023	0	0
7.373151	-0.1756959	0.3555861	-0.001539879	-0.001077555	-0.1394249	-0.1626624	0	0
7.407846	-0.1756959	0.3555861	0	0	0.03003944	0.02102059	0	0
7.424413	-0.1756959	0.3555861	0	0	0	0	0	0
7.457546	-0.1756959	0.3555861	0	0	0	0	0	0
7.474114	-0.1756959	0.3555861	0	0	0	0	0	0
7.490679	-0.1756959	0.3555861	0	0	0	0	0	0
7.507247	-0.1756959	0.3555861	0	0	0	0	0	0
7.523819	-0.1756959	0.3555861	0	0	0	0	0	0
7.54038	-0.1756703	0.355604	0.001540455	0.001077958	0.04649303	0.03253426	0	0
7.556946	-0.1756959	0.3555861	-0.001539923	-0.001077586	-0.0929874	-0.06506945	0	0
7.573513	-0.1756959	0.3555861	0	0	0.04647697	0.03252302	0	0
7.590078	-0.1756959	0.3555861	0	0	0	0	0	0
7.606645	-0.1756959	0.3555861	0	0	0	0	0	0
7.623212	-0.1756959	0.3555861	0	0	0	0	0	0
7.639779	-0.1756959	0.3555861	0	0	0	0	0	0
7.656345	-0.1756959	0.3555861	0	0	0	0	0	0
7.672912	-0.1756959	0.3555861	0	0	0	0	0	0
7.689479	-0.1756959	0.3555861	0	0	0	0	0	0
7.706045	-0.1756959	0.3555861	0	0	0	0	0	0
7.722612	-0.1756959	0.3555861	0	0	0	0	0	0
7.739179	-0.1756959	0.3555861	0	0	0	0	0	0
7.755745	-0.1756959	0.3555861	0	0	0	0	0	0
7.789006	-0.1756703	0.3555683	0.0007670031	-0.0005367229	0.01539329	-0.01077171	0	0
7.805447	-0.1756703	0.3555683	0	0	-0.01543228	0.01079899	0	0
7.822013	-0.1756703	0.3555683	0	0	0	0	0	0
7.838579	-0.1756703	0.3555683	0	0	0	0	0	0
7.855145	-0.1756703	0.3555683	0	0	0	0	0	0
7.871712	-0.1756703	0.3555683	0	0	0	0	0	0
7.888278	-0.1756703	0.3555683	0	0	0	0	0	0
7.904845	-0.1756703	0.3555683	0	0	0	0	0	0
7.921412	-0.1756448	0.3555504	0.001539879	-0.001077555	0.04647496	-0.03252162	0	0
7.937979	-0.1756448	0.3555504	0	0	-0.04647496	0.03252162	0	0
7.954623	-0.1756193	0.3555325	0.001532688	-0.001074314	0.04614968	-0.03234791	0	0
7.971112	-0.1755938	0.3555147	0.001547137	-0.001082634	0.0004360914	-0.000251122	0	0
7.987679	-0.1755173	0.3554611	0.004619636	-0.003234464	0.0929489	-0.06509694	0	0
8.004246	-0.1754407	0.3554075	0.004620535	-0.003232666	2.71525E-05	5.429095E-05	0	0
8.020812	-0.175109	0.3551753	0.0200226	-0.01401582	0.4648552	-0.3254502	0	0
8.087077	-0.1670599	0.3494785	0.1214691	-0.08597078	1.224735	-0.8686921	0	0
8.103726	-0.1618866	0.3456212	0.3107207	-0.2316792	2.282496	-1.757337	0	0
8.120238	-0.1588092	0.3419069	0.1863737	-0.2249462	-3.749778	0.2030396	0	0
8.136778	-0.1614765	0.3363355	-0.1612646	-0.336856	-10.51808	-3.385923	0	0
8.153344	-0.1631679	0.3320497	-0.1021035	-0.2587052	1.787028	2.360634	0	0
8.170278	-0.1678274	0.3208343	-0.275164	-0.6623183	-5.166029	-12.04825	0	0
8.186786	-0.1693619	0.3142613	-0.09295385	-0.398173	5.448617	7.898718	0	0
8.203045	-0.1719942	0.3094915	-0.1618982	-0.2933548	-2.104061	3.198867	0	0
8.219611	-0.1738329	0.3031309	-0.1109869	-0.3839535	1.550971	-2.760012	0	0
8.236177	-0.176002	0.2988241	-0.1309348	-0.2599717	-0.6020646	3.741994	0	0
8.252831	-0.1758744	0.2957678	0.007659051	-0.1835184	4.171964	2.301405	0	0
8.269311	-0.1729137	0.2891891	0.1796613	-0.3992043	5.191187	-6.509601	0	0
8.285877	-0.1693875	0.2838245	0.2128557	-0.3238282	1.004497	2.280962	0	0
8.302444	-0.1618866	0.2786193	0.4527796	-0.3142054	7.241336	0.2904311	0	0
8.31901	-0.1559086	0.2744504	0.3608564	-0.2516479	-2.774406	1.8881	0	0
8.352402	-0.140541	0.2637277	0.4602173	-0.3211153	1.988878	-1.390511	0	0
8.368914	-0.1273077	0.2545558	0.8014369	-0.5554717	6.837539	-4.696157	0	0
8.385276	-0.112029	0.243996	0.9337857	-0.6453807	4.025928	-2.734949	0	0
8.401936	-0.1042522	0.2386315	0.4667974	-0.3219999	-14.14176	9.792913	0	0
8.418447	-0.09317677	0.2310017	0.670756	-0.4620818	6.148579	-4.222941	0	0
8.434977	-0.08328062	0.2241926	0.5987119	-0.4119467	-2.180445	1.517362	0	0
8.451546	-0.07263515	0.2168748	0.6424875	-0.4416531	1.322597	-0.897524	0	0
8.46811	-0.06393904	0.2109009	0.5249888	-0.3606479	-3.54622	2.444812	0	0
8.484676	-0.05911525	0.2075882	0.2911812	-0.199966	-7.05714	4.849948	0	0
8.501243	-0.05512829	0.2048506	0.2406671	-0.1652521	-1.524606	1.047729	0	0
8.51781	-0.05344905	0.2036976	0.1013597	-0.06959205	-4.204428	2.887108	0	0
8.534376	-0.05163826	0.2024544	0.1093053	-0.07504606	0.239806	-0.1646069	0	0
8.551044	-0.04930212	0.2008505	0.1401628	-0.09622826	0.9285015	-0.6373723	0	0
8.567554	-0.04854079	0.2003278	0.04611081	-0.03165612	-2.834741	1.946214	0	0
8.584076	-0.04846203	0.2002738	0.00476714	-0.003273097	-1.251609	0.8592477	0	0
8.600642	-0.04846203	0.2002738	0	0	-0.1440758	0.09892176	0	0
8.61721	-0.04843577	0.2002557	0.001584715	-0.001088255	0.04782679	-0.03284359	0	0
8.633777	-0.04843577	0.2002557	0	0	-0.04782679	0.03284359	0	0
8.650612	-0.04840952	0.2002377	0.001559358	-0.001070108	0.04668528	-0.03203775	0	0
8.666909	-0.04838326	0.2002197	0.001611051	-0.00110634	0.001560189	-0.001093542	0	0
8.683639	-0.04838326	0.2002197	0	0	-0.04878026	0.03349837	0	0
8.700043	-0.04835701	0.2002017	0.001600334	-0.001098228	0.04829957	-0.03314555	0	0
8.716659	-0.04833075	0.2001836	0.001580167	-0.001085132	-0.0006107499	0.0003966228	0	0
8.733177	-0.04833075	0.2001836	0	0	-0.04768953	0.03274934	0	0
8.749743	-0.04827825	0.2001476	0.003169752	-0.002175986	0.09580946	-0.06577171	0	0
8.766309	-0.04822574	0.2001476	0.00316957	0	-5.509521E-06	0.06567705	0	0
8.782876	-0.04819948	0.2001296	0.001584806	-0.001088317	-0.04782964	-0.03284643	0	0
8.799442	-0.04817323	0.2001116	0.001584897	-0.001087481	2.754602E-06	2.52552E-05	0	0
8.816231	-0.04817323	0.2001116	0	0	-0.04751638	0.03260346	0	0
8.832576	-0.04817323	0.2001116	0	0	0	0	0	0
8.849252	-0.04817323	0.2000755	0	-0.002162444	0	-0.06548699	0	0
8.865709	-0.04817323	0.2000755	0	0	0	0.06526458	0	0
8.882276	-0.04817323	0.2000755	0	0	0	0	0	0
8.898842	-0.04817323	0.2000755	0	0	0	0	0	0
8.915408	-0.04817323	0.2000755	0	0	0	0	0	0
8.931974	-0.04814697	0.2000575	0.001584897	-0.001087481	0.04783505	-0.03282212	0	0
8.948541	-0.04812072	0.2000394	0.001584672	-0.00108838	-6.788321E-06	-2.714977E-05	0	0
8.965334	-0.04804195	0.1999854	0.004690428	-0.003220122	0.09309952	-0.06390204	0	0
8.99824	-0.04759561	0.1996789	0.01356404	-0.009312056	0.1785444	-0.1225747	0	0
9.014807	-0.04691292	0.1992103	0.04120913	-0.02829158	0.5587935	-0.3836356	0	0
9.031379	-0.04420802	0.1973533	0.1632213	-0.1120554	3.681911	-2.527707	0	0
9.04794	-0.03598446	0.1917434	0.4965465	-0.3387276	10.06006	-6.841177	0	0
9.064903	-0.02922852	0.1871044	0.3982752	-0.273481	-2.931328	1.946237	0	0
9.081076	-0.0247055	0.1839979	0.2796749	-0.1920839	-3.579261	2.456497	0	0
9.097641	-0.01360442	0.1763703	0.6701394	-0.460458	11.92705	-8.1977	0	0
9.114207	-0.009631281	0.1736388	0.2398332	-0.1648806	-12.98779	8.921316	0	0
9.130774	-0.002447363	0.1686976	0.4336471	-0.298271	5.849651	-4.025962	0	0
9.14746	0.002394732	0.165365	0.2901815	-0.1997164	-4.314402	2.963807	0	0
9.163972	0.007736688	0.1616863	0.3235212	-0.222793	1.004259	-0.6951125	0	0
9.180486	0.01121006	0.159293	0.210331	-0.1449265	-3.427333	2.357752	0	0
9.197041	0.01436743	0.1571164	0.1907223	-0.1314754	-0.59297	0.4067624	0	0
9.230605	0.01691944	0.1553565	0.07603272	-0.05243465	-2.288327	1.577049	0	0
9.247172	0.01702467	0.1552839	0.006351929	-0.004381152	-1.389952	0.9585432	0	0
9.263739	0.01702467	0.1552839	0	0	-0.1917071	0.1322272	0	0
9.280305	0.01702467	0.1552839	0	0	0	0	0	0
9.296872	0.01702467	0.1552839	0	0	0	0	0	0
9.313438	0.01702467	0.1552839	0	0	0	0	0	0
9.330089	0.01699836	0.155302	-0.001580153	0.001089159	-0.04757136	0.03278972	0	0
9.346573	0.01699836	0.155302	0	0	0.04768911	-0.03287088	0	0
9.363139	0.01697205	0.1553202	-0.001588046	0.001095576	-0.04804901	0.03314851	0	0
9.379705	0.01697205	0.1553202	0	0	0.04793007	-0.03306645	0	0
9.396273	0.01699836	0.1553383	0.001587954	0.001095513	0.04792593	0.03306359	0	0
9.41315	0.01697205	0.1553565	-0.001558792	0.001075394	-0.09408885	-0.0006015589	0	0
9.429406	0.01699836	0.1553383	0.001618323	-0.001116464	0.09588828	-0.06615232	0	0
9.446175	0.01699836	0.1553383	0	0	-0.04900329	0.03380686	0	0
9.46254	0.01697205	0.1553565	-0.001607572	0.001109047	-0.04851802	0.03347208	0	0
9.479196	0.01697205	0.1553565	0	0	0.04868336	-0.03358614	0	0
9.495708	0.01697205	0.1553565	0	0	0	0	0	0
9.512239	0.01697205	0.1553565	0	0	0	0	0	0
9.528806	0.01697205	0.1553565	0	0	0	0	0	0
9.545372	0.01697205	0.1553565	0	0	0	0	0	0
9.561939	0.01697205	0.1553565	0	0	0	0	0	0
9.578769	0.01694575	0.1553746	-0.001563208	0.001078441	-0.04680724	0.03229183	0	0
9.595277	0.01694575	0.1553746	0	0	0.04689026	-0.0323491	0	0
9.611639	0.01691944	0.1553928	-0.001607853	0.00110833	-0.04891509	0.0337183	0	0
9.628205	0.01691944	0.1553928	0	0	0.04882867	-0.03365873	0	0
9.644772	0.01691944	0.1553928	0	0	0	0	0	0
9.661338	0.01691944	0.1553928	0	0	0	0	0	0
9.677904	0.01691944	0.1553928	0	0	0	0	0	0
9.694471	0.01691944	0.1553928	0	0	0	0	0	0
9.711038	0.01691944	0.1553928	0	0	0	0	0	0
9.727604	0.01691944	0.1553928	0	0	0	0	0	0
9.744381	0.01691944	0.1553928	0	0	0	0	0	0
9.760893	0.01691944	0.1553928	0	0	0	0	0	0
9.777404	0.01691944	0.1553928	0	0	0	0	0	0
9.793917	0.01691944	0.1553928	0	0	0	0	0	0
9.810437	0.01691944	0.1553928	0	0	0	0	0	0
9.827003	0.01691944	0.1553928	0	0	0	0	0	0
9.84357	0.01691944	0.1553928	0	0	0	0	0	0
9.860136	0.01694575	0.1553746	0.001588046	-0.001094676	0.04793007	-0.0330393	0	0
9.876703	0.01694575	0.1553746	0	0	-0.04792869	0.03303835	0	0
9.893484	0.01694575	0.1553746	0	0	0	0	0	0
9.909996	0.01694575	0.1553746	0	0	0	0	0	0
9.926403	0.01691944	0.1553928	-0.001603461	0.001105303	-0.04870938	0.0335765	0	0
9.942969	0.01691944	0.1553928	0	0	0.04862908	-0.03352115	0	0
9.959537	0.01691944	0.1553928	0	0	0	0	0	0
9.976103	0.01694575	0.1553746	0.001588046	-0.001094676	0.04792869	-0.03303835	0	0
9.993054	0.01694575	0.1553746	0	0	-0.04737912	0.03265952	0	0
10.00957	0.01694575	0.1553746	0	0	0	0	0	0
10.02608	0.01697205	0.1553565	0.001593273	-0.001099183	0.04824617	-0.03328453	0	0
10.05945	0.01697205	0.1553565	0	0	-0.03193845	0.022034	0	0
10.07611	0.01697205	0.1553565	0	0	0	0	0	0
10.09263	0.01697205	0.1553565	0	0	0	0	0	0
10.14673	0.01697205	0.1553565	0	0	0	0	0	0
10.1633	0.01697205	0.1553565	0	0	0	0	0	0
10.17987	0.01697205	0.1553565	0	0	0	0	0	0
10.1967	0.01697205	0.1553565	0	0	0	0	0	0
10.21321	0.01697205	0.1553565	0	0	0	0	0	0
10.22972	0.01697205	0.1553565	0	0	0	0	0	0
10.24623	0.01697205	0.1553565	0	0	0	0	0	0
10.2627	0.01694575	0.1553746	-0.00159761	0.001102175	-0.04844324	0.03342049	0	0
10.27927	0.01694575	0.1553746	0	0	0.04836074	-0.03336357	0	0
10.29584	0.01691944	0.1553928	-0.001588137	0.00109474	-0.04793145	0.03304026	0	0
10.3124	0.01691944	0.1553928	0	0	0.0479342	-0.03304216	0	0
10.32897	0.01691944	0.1553928	0	0	0	0	0	0
10.34553	0.01691944	0.1553928	0	0	0	0	0	0
10.3621	0.01691944	0.1553928	0	0	0	0	0	0
10.37867	0.01691944	0.1553928	0	0	0	0	0	0
10.39534	0.01691944	0.1553928	0	0	0	0	0	0
10.41185	0.01691944	0.1553928	0	0	0	0	0	0
10.42837	0.01691944	0.1553928	0	0	0	0	0	0
10.44493	0.01691944	0.1553928	0	0	0	0	0	0
10.4615	0.01691944	0.1553928	0	0	0	0	0	0
10.47807	0.01689313	0.1554109	-0.001588046	0.001095576	-0.04792869	0.0330655	0	0
10.49463	0.01689313	0.1554109	0	0	0.04792869	-0.0330655	0	0
10.5112	0.01686682	0.1554291	-0.001588137	0.001095639	-0.04793283	0.03306836	0	0
10.52777	0.0168142	0.1554654	-0.003176203	0.002190253	-0.04793208	0.03303835	0	0
10.56271	0.01676159	0.1555017	-0.001505618	0.00103871	0.03243053	-0.02235452	0	0
10.57946	0.0167879	0.1555198	0.001570327	0.001083352	0.05949646	0.000863488	0	0
10.59585	0.01676159	0.155538	-0.001605981	0.00110795	-0.09586117	0.0007423473	0	0
10.61249	0.01665635	0.1556105	-0.006322811	0.004361069	-0.142827	0.09850538	0	0
10.629	0.01665635	0.1556105	0	0	0.1907076	-0.1315378	0	0
10.64555	0.01665635	0.1556468	0	0.00219303	0	0.06634235	0	0
10.66211	0.01660374	0.1556831	-0.003176091	0.002190253	-0.09592088	-8.388115E-05	0	0
10.67868	0.01655112	0.1557557	-0.003176203	0.004381404	-3.387133E-06	0.0661329	0	0
10.69524	0.01644589	0.1558646	-0.006352294	0.006572556	-0.09586013	0.0661329	0	0
10.71181	0.01639327	0.1559009	-0.00317602	0.002190126	0.0958629	-0.1322658	0	0
10.72857	0.01639327	0.1559372	0	0.002165076	0.09530115	-0.0007516834	0	0
10.74495	0.01639327	0.1559372	0	0	0	-0.06534399	0	0
10.76151	0.01628803	0.1560097	-0.006352406	0.004381404	-0.1928427	0.1330082	0	0
10.77811	0.01610387	0.156173	-0.01109813	0.009841056	-0.1431149	0.1646447	0	0
10.79465	0.01555138	0.156554	-0.03340432	0.02303613	-0.6732215	0.3982396	0	0
10.81121	0.01513042	0.1568443	-0.0254103	0.01752202	0.2414683	-0.16656	0	0
10.84434	0.01352549	0.1579872	-0.04843977	0.0344931	-0.4633805	0.3414785	0	0
10.86091	0.01352549	0.1579872	0	0	0.9746662	-0.6940426	0	0
10.87768	0.01352549	0.1579872	0	0	0	0	0	0
10.89404	0.01349918	0.1580053	-0.001607275	0.001107814	-0.04850764	0.03343389	0	0
10.91061	0.01336762	0.1581685	-0.007941127	0.009853887	-0.1923073	0.2655468	0	0
10.92721	0.01320976	0.1583136	-0.009510782	0.0087421	-0.04732868	-0.03352294	0	0
10.96103	0.01313082	0.1584043	-0.002334073	0.002681643	0.1423472	-0.1202067	0	0
10.97775	0.01313082	0.1584043	0	0	0.04618445	-0.05306185	0	0
10.99416	0.01310451	0.1584225	-0.001602886	0.001104789	-0.04837519	0.03334259	0	0
11.01077	0.01310451	0.1584225	0	0	0.04853864	-0.03345525	0	0
11.0273	0.01310451	0.1584225	0	0	0	0	0	0
11.04386	0.01310451	0.1584225	0	0	0	0	0	0
11.06081	0.01305189	0.158495	-0.003105685	0.004281991	-0.09267879	0.1277817	0	0
11.077	0.0128414	0.1586401	-0.01300087	0.008961573	-0.2986374	0.1412301	0	0
11.09356	0.01276246	0.1586945	-0.004764811	0.003284029	0.2514305	-0.1733241	0	0
11.11013	0.01168368	0.1594743	-0.06511936	0.04707289	-1.821609	1.321626	0	0
11.1267	0.009289207	0.161088	-0.144539	0.09740911	-2.397026	1.519238	0	0
11.14336	0.000736842	0.1669772	-0.513091	0.3533138	-11.08941	7.699948	0	0
11.15983	-0.0006578946	0.167937	-0.08471312	0.0582987	12.92921	-8.904086	0	0
11.1764	-0.006868313	0.1722455	-0.3748616	0.2600611	-8.784002	6.108188	0	0
11.19296	-0.008762933	0.1735484	-0.1143529	0.07863405	7.861941	-5.475321	0	0
11.20953	-0.008920816	0.1736569	-0.009530352	0.006553667	3.163551	-2.17539	0	0
11.2261	-0.008947129	0.173675	-0.001588383	0.001091978	0.2397029	-0.1648436	0	0
11.24266	-0.008920816	0.1736569	0.001588383	-0.001091978	0.09588049	-0.06591572	0	0
11.25923	-0.008920816	0.1736569	0	0	-0.04794025	0.03295786	0	0
11.27596	-0.008894502	0.1736388	0.001572899	-0.001082224	0.04724041	-0.03250349	0	0
11.29247	-0.008868189	0.1736207	0.001593428	-0.001095446	0.0006175305	-0.0003977458	0	0
11.30898	-0.008868189	0.1736207	0	0	-0.04825363	0.0331733	0	0
11.3255	-0.008841875	0.1736026	0.001593244	-0.00109532	0.04824527	-0.03316756	0	0
11.34206	-0.008841875	0.1736026	0	0	-0.04815765	0.03310732	0	0
11.35863	-0.008841875	0.1736026	0	0	0	0	0	0
11.3752	-0.008815561	0.1735846	0.001588383	-0.001091978	0.04794025	-0.03295786	0	0
11.39176	-0.008815561	0.1735846	0	0	-0.04793886	0.03295691	0	0
11.40855	-0.008815561	0.1735846	0	0	0	0	0	0
11.4249	-0.008815561	0.1735846	0	0	0	0	0	0
11.44158	-0.008815561	0.1735846	0	0	0	0	0	0
11.45809	-0.008789247	0.1735665	0.0015933	-0.00109532	0.04800024	-0.03299794	0	0
11.4746	-0.008762933	0.1735484	0.001594072	-0.001096792	2.337974E-05	-4.458438E-05	0	0
11.49116	-0.008710306	0.1735122	0.003176766	-0.002183956	0.04785392	-0.03287122	0	0
11.50773	-0.008710306	0.1735122	0	0	-0.09588049	0.06591572	0	0
11.5243	-0.008683993	0.1734941	0.001588291	-0.001091915	0.04793611	-0.03295501	0	0
11.54086	-0.008683993	0.1734941	0	0	-0.04793473	0.03295407	0	0
11.55743	-0.008683993	0.1734941	0	0	0	0	0	0
11.57417	-0.008657678	0.173476	0.001572059	-0.001080717	0.04720164	-0.03244894	0	0
11.6734	-0.008578737	0.1734217	0.0007955501	-0.0005470732	-0.006695956	0.004601697	0	0
11.70653	-0.008026144	0.1730417	0.01667779	-0.01146814	0.1199915	-0.08250943	0	0
11.7231	-0.007894573	0.1729151	0.007942082	-0.007645645	-0.1757696	0.07691165	0	0
11.73979	-0.007605116	0.172716	0.01734284	-0.0119261	0.2826741	-0.1287103	0	0
11.75623	-0.005631519	0.1713225	0.1200247	-0.08474582	3.099035	-2.197767	0	0
11.7728	-0.00347367	0.1698382	0.1302555	-0.08959886	0.309935	-0.1470194	0	0
11.78936	0.003236831	0.1651476	0.4050466	-0.2831235	8.293451	-5.840754	0	0
11.80593	0.01028911	0.1601815	0.4256764	-0.299755	0.6226084	-0.5019392	0	0
11.8225	0.01799806	0.1547939	0.4653129	-0.3251964	1.196232	-0.7678241	0	0
11.83906	0.02549447	0.1495467	0.4525368	-0.3167602	-0.3856059	0.2546207	0	0
11.85563	0.03256743	0.1446219	0.4269488	-0.2972789	-0.7723151	0.5879985	0	0
11.8722	0.04060924	0.1390194	0.4854328	-0.3381858	1.765153	-1.234643	0	0
11.88889	0.04646653	0.134923	0.3508003	-0.2453361	-4.047489	2.791363	0	0
11.92232	0.0473593	0.1342673	0.02671013	-0.01961774	-6.466116	4.50344	0	0
11.93893	0.0473593	0.1342673	0	0	-0.533834	0.392084	0	0
11.95545	0.0473593	0.1342673	0	0	0	0	0	0
11.97202	0.04733304	0.1342491	-0.001585031	-0.00110001	-0.04789974	-0.03324238	0	0
11.98859	0.04733304	0.1342127	0	-0.002198348	0.0478377	-0.03314885	0	0
12.00515	0.04730678	0.1341945	-0.001584897	-0.001100073	-0.04783505	0.03314789	0	0
12.02172	0.04728053	0.1341763	-0.001584897	-0.001099174	0	2.714977E-05	0	0
12.0385	0.04725427	0.1341216	-0.001565031	-0.003257503	0.0005957757	-0.06472677	0	0
12.05485	0.04722801	0.134067	-0.001605414	-0.00334112	-0.001218806	-0.002523665	0	0
12.07142	0.04712299	0.1339941	-0.006339814	-0.004398494	-0.1438116	-0.03211869	0	0
12.08803	0.04675537	0.1336298	-0.02212794	-0.02193061	-0.4758429	-0.5284055	0	0
12.10455	0.04370899	0.1314432	-0.1844003	-0.1323538	-4.897532	-3.332676	0	0
12.12112	0.03222568	0.1232537	-0.6931735	-0.4943476	-15.37694	-10.94074	0	0
12.13768	0.02536298	0.1183044	-0.4142573	-0.2987563	8.418192	5.903299	0	0
12.15425	0.01273615	0.1071823	-0.7622007	-0.6713686	-10.50156	-11.24611	0	0
12.17082	0.007578802	0.09713545	-0.3113163	-0.6064669	13.6085	1.958848	0	0
12.1876	0.004789437	0.09041298	-0.1661853	-0.4005122	4.35163	6.175378	0	0
12.20411	0.003894717	0.08691917	-0.05418632	-0.2115931	3.363678	5.673829	0	0
12.22062	-0.0003157895	0.0651568	-0.2550128	-1.318056	-6.081434	-33.50594	0	0
12.23713	-0.003947348	0.05571532	-0.2199483	-0.5718309	1.061854	22.59786	0	0
12.25365	-0.004973643	0.0533978	-0.06214046	-0.1403223	4.778191	13.06545	0	0
12.27022	-0.01028911	0.04351889	-0.3208607	-0.5963266	-7.820573	-13.78406	0	0
12.28678	-0.01789283	0.03821604	-0.4589612	-0.3200807	-4.168002	8.337358	0	0
12.30335	-0.02252251	0.03493752	-0.2794642	-0.1979028	5.417387	3.687442	0	0
12.31992	-0.02559967	0.03279374	-0.1857486	-0.1294064	2.828505	2.067346	0	0
12.33671	-0.02978067	0.02986498	-0.2490396	-0.1744505	-1.897512	-1.350457	0	0
12.35305	-0.03385548	0.0268965	-0.2492998	-0.1816136	-0.007853201	-0.2161883	0	0
12.36962	-0.03556395	0.02571964	-0.1031292	-0.07103985	4.441351	3.359751	0	0
12.38618	-0.03863866	0.02349561	-0.1856005	-0.1342501	-2.489133	-1.907799	0	0
12.40275	-0.03919045	0.02310299	-0.03330825	-0.02369993	4.596454	3.336603	0	0
12.41932	-0.03919045	0.02310299	0	0	1.005303	0.7153063	0	0
12.50215	-0.03895397	0.02293472	0.002854974	-0.00203156	0.02872275	-0.02043871	0	0
12.51872	-0.03855982	0.02265423	0.02378779	-0.01692802	0.2105906	-0.149863	0	0
12.53528	-0.03756127	0.02194358	0.06027624	-0.04289758	1.101192	-0.7837402	0	0
12.55185	-0.03322461	0.01885619	0.2618065	-0.1863872	6.082894	-4.331024	0	0
12.56841	-0.02557337	0.01340453	0.4618564	-0.3290819	6.038215	-4.30703	0	0
12.58498	-0.02015517	0.009540089	0.3270624	-0.2332717	-4.068327	2.891725	0	0
12.60155	-0.01352549	0.004806767	0.400191	-0.2857204	2.207154	-1.582996	0	0
12.61811	-0.01034174	0.002531667	0.1921828	-0.1373332	-6.27806	4.478591	0	0
12.63468	-0.005631519	-0.0008368104	0.2843256	-0.2033334	2.781035	-1.992004	0	0
12.65124	-0.002999991	-0.002720126	0.1588485	-0.1136837	-3.787125	2.70579	0	0
12.66781	-0.002605257	-0.003002716	0.02382754	-0.01705814	-4.075176	2.916332	0	0
12.68438	-0.002657888	-0.002965035	-0.003177004	0.002274509	-0.8150457	0.583494	0	0
12.70096	-0.002657888	-0.002965035	0	0	0.09584908	-0.06862112	0	0
12.71751	-0.002657888	-0.002965035	0	0	0	0	0	0
12.73408	-0.002657888	-0.002965035	0	0	0	0	0	0
12.75064	-0.002657888	-0.002965035	0	0	0	0	0	0
12.7675	-0.002657888	-0.002965035	0	0	0	0	0	0
12.78378	-0.002657888	-0.002965035	0	0	0	0	0	0
12.80053	-0.002631573	-0.002983875	0.001571054	-0.001124751	0.04757334	-0.03405876	0	0
12.81691	-0.002631573	-0.002983875	0	0	-0.04741451	0.03394505	0	0
12.85006	-0.002631573	-0.002983875	0	0	0	0	0	0
12.86661	-0.002657888	-0.002965035	-0.001590157	0.001138427	-0.03199525	0.02290608	0	0
12.88318	-0.002657888	-0.002965035	0	0	0.04801867	-0.03437759	0	0
12.89974	-0.002657888	-0.002965035	0	0	0	0	0	0
12.93288	-0.002605257	-0.002965035	0.001588456	0	0.03196103	0	0	0
12.94944	-0.002605257	-0.002965035	0	0	-0.03196042	0	0	0
12.96614	-0.002578942	-0.002983875	0.001575719	-0.001128091	0.04736445	-0.03390921	0	0
12.98258	-0.002578942	-0.002983875	0	0	-0.04755667	0.03404683	0	0
12.99914	-0.002578942	-0.002983875	0	0	0	0	0	0
13.01571	-0.002578942	-0.002983875	0	0	0	0	0	0
13.03228	-0.002578942	-0.002983875	0	0	0	0	0	0
13.0492	-0.002578942	-0.002983875	0	0	0	0	0	0
13.06541	-0.002605257	-0.002965035	-0.001623654	0.001162408	-0.04900479	0.03508357	0	0
13.08198	-0.002605257	-0.002965035	0	0	0.04953807	-0.03546536	0	0
13.09873	-0.002605257	-0.002965035	0	0	0	0	0	0
13.11511	-0.002605257	-0.002965035	0	0	0	0	0	0
13.13176	-0.002605257	-0.002965035	0	0	0	0	0	0
13.14827	-0.002605257	-0.002965035	0	0	0	0	0	0
13.16481	-0.002605257	-0.002965035	0	0	0	0	0	0
13.18179	-0.002605257	-0.002965035	0	0	0	0	0	0
13.21482	-0.002605257	-0.002965035	0	0	0	0	0	0
13.23108	-0.002605257	-0.002965035	0	0	0	0	0	0
13.24784	-0.002605257	-0.002965035	0	0	0	0	0	0
13.26421	-0.002605257	-0.002965035	0	0	0	0	0	0
13.28078	-0.002605257	-0.002965035	0	0	0	0	0	0
13.29738	-0.002605257	-0.002965035	0	0	0	0	0	0
13.31439	-0.002605257	-0.002965035	0	0	0	0	0	0
13.33047	-0.002605257	-0.002965035	0	0	0	0	0	0
13.34704	-0.002605257	-0.002965035	0	0	0	0	0	0
13.39674	-0.002631573	-0.002946196	-0.0005294883	0.0003790706	-0.007990223	0.00572035	0	0
13.41331	-0.002684204	-0.002908516	-0.003176836	0.002274336	-0.0399497	0.02860044	0	0
13.42988	-0.002789466	-0.002833159	-0.006354009	0.00454885	-0.09589004	0.06864693	0	0
13.44649	-0.00294736	-0.002682449	-0.009505841	0.009073349	-0.09500217	0.1363769	0	0
13.46301	-0.003131569	-0.002475234	-0.01114839	0.01254072	-0.04957361	0.1046485	0	0
13.48001	-0.003289462	-0.002211525	-0.009289289	0.01551472	0.05546124	0.08872119	0	0
13.49614	-0.003868402	-0.001571176	-0.0358784	0.03968408	-0.802484	0.7294537	0	0
13.51271	-0.004894698	-0.0006485377	-0.0619509	0.05569379	-0.7972647	0.489557	0	0
13.52927	-0.0081314	0.002230712	-0.195379	0.1738018	-4.027099	3.564713	0	0
13.54584	-0.01541983	0.008488809	-0.4399559	0.3777612	-7.381771	6.155861	0	0
13.56257	-0.02136517	0.01426688	-0.355485	0.3454834	2.537361	-0.9695709	0	0
13.57907	-0.02815046	0.02250464	-0.4110039	0.4989843	-1.670565	4.61884	0	0
13.59559	-0.03314575	0.027214	-0.3024918	0.2851774	3.285969	-6.474509	0	0
13.61211	-0.03451261	0.03501207	-0.08273205	0.4719962	6.652273	5.65513	0	0
13.62868	-0.03472288	0.04074745	-0.01269289	0.3462085	2.116771	-3.80164	0	0
13.64524	-0.03162104	0.04903712	0.1872385	0.5003942	6.034288	4.653602	0	0
13.66181	-0.02988584	0.05360179	0.1047429	0.2755401	-2.489866	-6.786503	0	0
13.67838	-0.02704603	0.06016115	0.1714206	0.3959464	2.012455	3.634079	0	0
13.69494	-0.02223318	0.06905654	0.2905212	0.5369577	3.59467	4.255974	0	0
13.71167	-0.01883988	0.07701092	0.2028584	0.4755287	-2.633013	-1.845061	0	0
13.72818	-0.01623541	0.08737904	0.1577322	0.6279172	-1.357615	4.584578	0	0
13.74464	-0.01541983	0.09522626	0.04954534	0.4767051	-3.281044	-4.585896	0	0
13.76121	-0.01523566	0.1069809	0.01111699	0.7095518	-1.163521	7.050055	0	0
13.79471	-0.01481471	0.1231807	0.01256673	0.4836076	0.02895755	-4.513099	0	0
13.81128	-0.01576185	0.1356515	-0.05716331	0.752654	-1.392736	5.373731	0	0
13.82784	-0.01628803	0.1411847	-0.03176397	0.3340206	0.7665533	-12.63438	0	0
13.86128	-0.02057604	0.1571164	-0.1282497	0.4765017	-1.929706	2.849611	0	0
13.87754	-0.02315376	0.1623388	-0.158483	0.3210825	-0.6083196	-3.127159	0	0
13.8943	-0.02399539	0.1700192	-0.05022603	0.4583404	3.278337	4.156569	0	0
13.91081	-0.0264938	0.1731141	-0.1512917	0.1874107	-3.037667	-8.143161	0	0
13.92732	-0.02914964	0.1750861	-0.160853	0.1194352	-0.2895176	-2.058317	0	0
13.94381	-0.02846599	0.1784859	0.04147007	0.2062345	6.131711	2.630586	0	0
13.96037	-0.02630972	0.1804021	0.1301606	0.115666	2.683404	-2.740222	0	0
13.97694	-0.02115474	0.1839437	0.311173	0.2137866	5.463281	2.961457	0	0
13.99351	-0.01676159	0.186996	0.2651864	0.1842484	-1.387959	-0.8915182	0	0
14.01007	-0.01107849	0.1908592	0.343052	0.2331931	2.350124	1.477239	0	0
14.02664	-0.008526109	0.1926456	0.1540711	0.1078369	-5.703783	-3.783475	0	0
14.0434	-0.006157817	0.1943054	0.1412751	0.0990087	-0.3839179	-0.2648721	0	0
14.05977	-0.003578932	0.1962533	0.157539	0.118994	0.4908583	0.6031734	0	0
14.07643	-0.003236831	0.1964877	0.0205405	0.01407628	-4.148354	-3.176937	0	0
14.09294	-0.003236831	0.1964877	0	0	-0.6193073	-0.4244076	0	0
14.10947	-0.003236831	0.1964517	0	-0.002181029	0	-0.06600025	0	0
14.12646	-0.003236831	0.1964517	0	0	0	0.06505959	0	0
14.14261	-0.003210515	0.1964336	0.001630066	-0.001117786	0.0491969	-0.03373581	0	0
14.15917	-0.003210515	0.1964336	0	0	-0.04983375	0.03417252	0	0
14.176	-0.003210515	0.1964336	0	0	0	0	0	0
14.19251	-0.0031842	0.1963795	0.001593633	-0.0032757	0.04780424	-0.09826126	0	0
14.20887	-0.003131569	0.1963435	0.003216069	-0.002204436	0.04934729	0.03258308	0	0
14.22553	-0.003131569	0.1963074	0	-0.00216492	-0.09739193	0.001196653	0	0
14.24204	-0.003157884	0.1962894	-0.001593739	-0.001091963	-0.04804935	0.03234839	0	0
14.25857	-0.003157884	0.1962533	0	-0.00218256	0.04823519	-0.03300738	0	0
14.27514	-0.003210515	0.1961811	-0.00317699	-0.00435442	-0.09599504	-0.0656243	0	0
14.29208	-0.003210515	0.1961451	0	-0.002128723	0.09481744	0.06642604	0	0
14.30827	-0.003368408	0.1959287	-0.009750471	-0.01336499	-0.2942783	-0.3391209	0	0
14.3911	-0.003499986	0.1956581	-0.001588495	-0.00326586	0.08242357	0.1019859	0	0
14.40767	-0.00347367	0.1954598	0.001588312	-0.0119744	0.03195997	-0.08761145	0	0
14.42467	-0.003447355	0.1953696	0.001548036	-0.005305049	-0.001199849	0.1986852	0	0
14.4408	-0.003421039	0.1952073	0.001631125	-0.01006107	0.002507775	-0.1435453	0	0
14.45737	-0.003842086	0.1948465	-0.02541591	-0.0217757	-0.8271369	-0.35825	0	0
14.47394	-0.003868402	0.1948285	-0.001588495	-0.00108928	0.7191542	0.6243533	0	0
14.50707	-0.003842086	0.1947744	0.0007942247	-0.001632973	0.04794226	-0.01093955	0	0
14.52364	-0.003842086	0.1947022	0	-0.004355319	-0.01598045	-0.05477582	0	0
14.5402	-0.003842086	0.1946301	0	-0.004355319	0	0	0	0
14.55677	-0.003789456	0.1943775	0.003176062	-0.01523923	0.09584547	-0.3284488	0	0
14.57334	-0.00376314	0.1942513	0.001588861	-0.007624014	-0.0479032	0.2298343	0	0
14.5899	-0.00294736	0.1934755	0.04924344	-0.04682463	1.438466	-1.183281	0	0
14.60647	-0.0008421051	0.1919961	0.1270807	-0.08930743	2.34927	-1.282207	0	0
14.62304	-0.0007631577	0.1918698	0.004765271	-0.007623618	-3.691594	2.465293	0	0
14.6396	-0.0007894735	0.1918517	-0.001588516	-0.00108928	-0.1917632	0.1972124	0	0
14.65633	-0.0008157893	0.1918337	-0.001572938	-0.0010786	0.0004678593	0.0003207484	0	0
14.69013	-0.0008421051	0.1918156	-0.000778637	-0.000533928	0.01572015	0.01077969	0	0
14.70687	-0.0008421051	0.1918156	0	0	0.01540781	0.01056547	0	0
14.72338	-0.0008421051	0.1918156	0	0	0	0	0	0
14.73989	-0.0008421051	0.1918156	0	0	0	0	0	0
14.75641	-0.0008421051	0.1918156	0	0	0	0	0	0
14.77296	-0.0008684208	0.1917976	-0.001589245	-0.001089781	-0.04805478	-0.03295226	0	0
14.78953	-0.0008684208	0.1917976	0	0	0.04797455	0.03289724	0	0
14.8061	-0.0008947366	0.1917795	-0.001588608	-0.001089342	-0.04794566	-0.03287736	0	0
14.82295	-0.0008947366	0.1917795	0	0	0.04753655	0.03259683	0	0
14.83946	-0.0008947366	0.1917795	0	0	0	0	0	0
14.85598	-0.0009210524	0.1917615	-0.001593742	-0.001092866	-0.04825898	-0.03309228	0	0
14.87249	-0.0009473682	0.1917434	-0.001593562	-0.001092739	5.467256E-06	3.821086E-06	0	0
14.88893	-0.0009473682	0.1917434	0	0	0.04835404	0.0331574	0	0
14.90551	-0.0009473682	0.1917434	0	0	0	0	0	0
14.92206	-0.0009473682	0.1917434	0	0	0	0	0	0
14.93863	-0.0009736839	0.1917254	-0.001588513	-0.00108928	-0.04796074	-0.03288778	0	0
14.95555	-0.0009736839	0.1917254	0	0	0.04744435	0.03253368	0	0
14.97176	-0.0009999997	0.1917073	-0.001622611	-0.001112659	-0.0489719	-0.03358107	0	0
14.98833	-0.001026315	0.1916893	-0.001588418	-0.001089217	0.001042927	0.0007150122	0	0
15.0049	-0.001078947	0.1916532	-0.003177033	-0.002178559	-0.04794587	-0.03287736	0	0
15.02159	-0.001131578	0.1916171	-0.003152526	-0.002161759	0.0007368039	0.0005051024	0	0
15.03803	-0.001236841	0.1915449	-0.006403447	-0.00439099	-0.09811583	-0.06728028	0	0
15.0546	-0.00136842	0.1914547	-0.007941653	-0.005445771	-0.04660288	-0.03195659	0	0
15.07163	-0.00173684	0.1912021	-0.02163632	-0.01483741	-0.4076275	-0.2795459	0	0
15.08814	-0.002394732	0.1907509	-0.03983426	-0.02731713	-0.5425162	-0.3720452	0	0
15.1043	-0.003447355	0.190029	-0.06516056	-0.04469069	-0.7752152	-0.5317889	0	0
15.12086	-0.003421039	0.1900109	0.001588495	-0.00108928	2.039972	1.332538	0	0
15.13743	-0.003421039	0.1900109	0	0	-0.04794364	0.03287641	0	0
15.154	-0.003421039	0.1900109	0	0	0	0	0	0
15.17056	-0.003421039	0.1900109	0	0	0	0	0	0
15.18721	-0.003421039	0.1900109	0	0	0	0	0	0
15.2037	-0.003421039	0.1900109	0	0	0	0	0	0
15.22026	-0.003421039	0.1900109	0	0	0	0	0	0
15.23683	-0.003421039	0.1900109	0	0	0	0	0	0
15.2534	-0.003421039	0.1900109	0	0	0	0	0	0
15.26996	-0.003421039	0.1900109	0	0	0	0	0	0
15.28653	-0.003421039	0.1900109	0	0	0	0	0	0
15.30329	-0.003421039	0.1900109	0	0	0	0	0	0
15.31966	-0.003421039	0.1900109	0	0	0	0	0	0
15.33631	-0.003421039	0.1900109	0	0	0	0	0	0
15.35279	-0.003421039	0.1900109	0	0	0	0	0	0
15.36936	-0.003421039	0.1900109	0	0	0	0	0	0
15.38593	-0.003421039	0.1900109	0	0	0	0	0	0
15.40286	-0.003421039	0.1900109	0	0	0	0	0	0
15.41906	-0.003421039	0.1900109	0	0	0	0	0	0
15.43588	-0.003421039	0.1900109	0	0	0	0	0	0
15.45219	-0.003421039	0.1900109	0	0	0	0	0	0
15.46876	-0.003421039	0.1900109	0	0	0	0	0	0
15.48533	-0.003421039	0.1900109	0	0	0	0	0	0
15.50193	-0.003421039	0.1900109	0	0	0	0	0	0
15.51846	-0.003421039	0.1900109	0	0	0	0	0	0
15.55196	-0.003421039	0.1900109	0	0	0	0	0	0
15.62102	-0.003394724	0.1899929	0.0003810607	-0.000261305	0.003715489	-0.002547824	0	0
15.63759	-0.003394724	0.1899929	0	0	-0.004450211	0.003051646	0	0
15.65454	-0.003394724	0.1899929	0	0	0	0	0	0
15.67072	-0.003394724	0.1899929	0	0	0	0	0	0
15.68756	-0.003394724	0.1899929	0	0	0	0	0	0
15.70385	-0.003394724	0.1899929	0	0	0	0	0	0
15.72042	-0.003394724	0.1899929	0	0	0	0	0	0
15.73699	-0.003394724	0.1899929	0	0	0	0	0	0
15.75361	-0.003394724	0.1899929	0	0	0	0	0	0
15.77012	-0.003421039	0.1900109	-0.001593449	0.001092676	-0.04809176	0.03297799	0	0
15.78669	-0.003421039	0.1900109	0	0	0.04816801	-0.03303028	0	0
15.80325	-0.003421039	0.1900109	0	0	0	0	0	0
15.81982	-0.003421039	0.1900109	0	0	0	0	0	0
15.83639	-0.003421039	0.1900109	0	0	0	0	0	0
15.85317	-0.003421039	0.1900109	0	0	0	0	0	0
15.86952	-0.003447355	0.190029	-0.001609998	0.001104024	-0.04859123	0.03332048	0	0
15.8862	-0.003447355	0.190029	0	0	0.0487526	-0.03343114	0	0
15.90265	-0.003447355	0.190029	0	0	0	0	0	0
15.91922	-0.003447355	0.190029	0	0	0	0	0	0
15.93578	-0.00347367	0.190047	-0.001588495	0.001090179	-0.04794364	0.03290356	0	0
15.95235	-0.003499986	0.1900651	-0.001588495	0.00108928	0	-2.714977E-05	0	0
15.96892	-0.003578932	0.1901192	-0.004765485	0.003268738	-0.09588727	0.06577998	0	0
15.98548	-0.004078925	0.1904621	-0.03017961	0.02069872	-0.767022	0.526053	0	0
16.00205	-0.004921013	0.1910397	-0.05083148	0.03486144	-0.6232926	0.4274442	0	0
16.01862	-0.008078772	0.1932049	-0.1906027	0.1306961	-4.218425	2.89238	0	0
16.0353	-0.01392015	0.1972451	-0.3501276	0.2421643	-4.797626	3.352344	0	0
16.05175	-0.02283813	0.2033553	-0.5421603	0.3714643	-5.79589	3.902505	0	0
16.06832	-0.03714081	0.2131506	-0.8630131	0.5910409	-9.716356	6.64942	0	0
16.08488	-0.04812072	0.2206693	-0.663054	0.4540384	6.035125	-4.134984	0	0
16.10145	-0.055207	0.2255225	-0.427729	0.2929382	7.103758	-4.863133	0	0
16.20085	-0.1122888	0.2646768	-0.5742443	0.3938935	-1.263383	0.8705254	0	0
16.21742	-0.1192733	0.2694928	-0.4215333	0.2906606	1.316786	-0.8901498	0	0
16.23399	-0.12407	0.272804	-0.2895626	0.1998867	3.982881	-2.739563	0	0
16.25056	-0.1349382	0.2802829	-0.6560049	0.4514305	-11.05989	7.592044	0	0
16.26747	-0.1409796	0.284361	-0.357177	0.2411004	8.92514	-6.281961	0	0
16.28369	-0.1471651	0.2885454	-0.3813527	0.2579779	-0.729626	0.509364	0	0
16.30049	-0.1532623	0.2926753	-0.3628441	0.2457736	0.5604632	-0.3695587	0	0
16.31682	-0.1625017	0.2989313	-0.5658354	0.3831255	-6.126643	4.145527	0	0
16.33352	-0.1677507	0.3024161	-0.3144029	0.208732	7.613668	-5.280838	0	0
16.34996	-0.1720453	0.3052393	-0.2612406	0.1717354	1.604442	-1.11656	0	0
16.36654	-0.1732712	0.305954	-0.0739173	0.04309409	5.672367	-3.895408	0	0
16.38309	-0.1766396	0.3058826	-0.2035302	-0.004318169	-3.911724	-1.430905	0	0
16.39966	-0.1781949	0.3048284	-0.09387592	-0.06363149	3.311087	-1.791007	0	0
16.41623	-0.1864663	0.2990564	-0.4992625	-0.3483965	-12.23459	-8.594225	0	0
16.43279	-0.1924565	0.2948383	-0.3615705	-0.2546051	4.15555	2.830629	0	0
16.44936	-0.1989133	0.2903155	-0.3897337	-0.2729986	-0.8499651	-0.5551156	0	0
16.46593	-0.2021733	0.288009	-0.196775	-0.1392183	5.823504	4.037497	0	0
16.48249	-0.2023249	0.2879017	-0.009146363	-0.006475938	5.662643	4.006172	0	0
16.49914	-0.2022996	0.2879196	0.001517381	0.001074252	0.3210747	0.2273287	0	0
16.51565	-0.2022996	0.2879196	0	0	-0.04576305	-0.03239862	0	0
16.5322	-0.2022996	0.2879196	0	0	0	0	0	0
16.54877	-0.2022996	0.2879196	0	0	0	0	0	0
16.56533	-0.2022744	0.2879017	0.001524544	-0.001079323	0.04600818	-0.03257216	0	0
16.5819	-0.2022491	0.2878838	0.001523995	-0.001079572	-1.655715E-05	-7.505532E-06	0	0
16.61589	-0.2022239	0.287866	0.0007429414	-0.0005259762	-0.01544806	0.01094928	0	0
16.63246	-0.2021986	0.2878481	0.001524544	-0.001079323	0.01545774	-0.01094353	0	0
16.64903	-0.2021986	0.2878481	0	0	-0.04601083	0.03257403	0	0
16.66559	-0.2021986	0.2878481	0	0	0	0	0	0
16.68216	-0.2021986	0.2878481	0	0	0	0	0	0
16.69873	-0.2021733	0.2878302	0.001524544	-0.001079323	0.04601083	-0.03257403	0	0
16.7153	-0.2021733	0.2878302	0	0	-0.04601083	0.03257403	0	0
16.73231	-0.2021733	0.2878302	0	0	0	0	0	0
16.74843	-0.2021733	0.2878302	0	0	0	0	0	0
16.765	-0.2021733	0.2878302	0	0	0	0	0	0
16.78185	-0.2021733	0.2878302	0	0	0	0	0	0
16.79813	-0.2021481	0.2878123	0.001550056	-0.001098032	0.04678077	-0.03313868	0	0
16.81487	-0.2021228	0.2877944	0.001508909	-0.001068254	-0.001245961	0.0009017121	0	0
16.83126	-0.2020976	0.2877766	0.001540685	-0.00109075	0.0009590471	-0.0006789726	0	0
16.84789	-0.2020976	0.2877766	0	0	-0.04665642	0.03303109	0	0
16.8644	-0.2020471	0.2877408	0.003059302	-0.002165877	0.09231397	-0.06535502	0	0
16.88096	-0.2020218	0.2877229	0.001525246	-0.00107982	-0.046386	0.03283964	0	0
16.89753	-0.2020218	0.2876872	0	-0.002158646	-0.04604262	-0.03256652	0	0
16.9141	-0.2019965	0.2876693	0.001524544	-0.001079323	0.04601083	0.03257403	0	0
16.93095	-0.201946	0.2876335	0.002996987	-0.002121761	0.04405549	-0.03118973	0	0
16.94723	-0.2018703	0.2875799	0.004654548	-0.003295255	0.05002527	-0.03541612	0	0
16.9638	-0.2018197	0.2875441	0.003049088	-0.002158646	-0.04887773	0.0346037	0	0
16.98037	-0.2017945	0.2875262	0.001524544	-0.001079323	-0.04601083	0.03257403	0	0
16.99693	-0.2017187	0.2874726	0.004574158	-0.003238342	0.09204284	-0.06516308	0	0
17.0135	-0.2016429	0.2874189	0.004574531	-0.003237969	1.12436E-05	1.125062E-05	0	0
17.03007	-0.2016177	0.2874011	0.001524544	-0.001079323	-0.09204879	0.06514807	0	0
17.04663	-0.2015924	0.2873832	0.001524544	-0.001079323	0	0	0	0
17.0632	-0.2015672	0.2873653	0.001524544	-0.001079323	0	0	0	0
17.08006	-0.2015419	0.2873474	0.001498699	-0.0010604	-0.0007730957	0.0005660352	0	0
17.09633	-0.2015419	0.2873474	0	0	-0.04523083	0.03200295	0	0
17.11308	-0.2015166	0.2873295	0.00150805	-0.001067646	0.04567078	-0.0323333	0	0
17.12959	-0.2015166	0.2873295	0	0	-0.04534078	0.03209967	0	0
17.14611	-0.2015166	0.2873295	0	0	0	0	0	0
17.16262	-0.2015166	0.2873295	0	0	0	0	0	0
17.17917	-0.2014914	0.2873116	0.001526125	-0.001080443	0.04616218	-0.03268119	0	0
17.19573	-0.2014661	0.2872938	0.001524719	-0.001079447	-4.245251E-05	3.005354E-05	0	0
17.2123	-0.2014661	0.2872938	0	0	-0.04601877	0.03257966	0	0
17.22917	-0.2014408	0.2872759	0.00149853	-0.00106028	0.0448232	-0.03171453	0	0
17.24568	-0.2014156	0.287258	0.001529651	-0.001082939	0.0009324228	-0.0006788613	0	0
17.262	-0.2013651	0.2872222	0.003095605	-0.002190932	0.0476916	-0.03374428	0	0
17.2787	-0.2012893	0.2871686	0.004538478	-0.00321245	0.04369439	-0.03093453	0	0
17.29521	-0.2012135	0.2871149	0.004589325	-0.003248441	0.001530951	-0.001083645	0	0
17.31172	-0.2011124	0.2870434	0.006121115	-0.004332255	0.04638439	-0.03281916	0	0
17.32827	-0.2010871	0.2870255	0.00152773	-0.001080941	-0.1389726	0.09836834	0	0
17.34483	-0.2010871	0.2870255	0	0	-0.04614151	0.03264729	0	0
17.3614	-0.2010619	0.2870077	0.001525443	-0.001079323	0.04603797	-0.03257403	0	0
17.37797	-0.2010366	0.2869898	0.001524544	-0.001079323	-2.714469E-05	0	0	0
17.39454	-0.2009608	0.2869361	0.00457543	-0.003237969	0.09207594	-0.06514807	0	0
17.4111	-0.2008345	0.2868467	0.007626317	-0.005396615	0.09207594	-0.06514806	0	0
17.42781	-0.2007587	0.2867931	0.004537815	-0.00321135	-0.09282644	0.06567923	0	0
17.44432	-0.2002027	0.2863997	0.03367217	-0.02382646	0.8771056	-0.620629	0	0
17.46083	-0.1997982	0.2861136	0.02449336	-0.01732702	-0.277945	0.1968105	0	0
17.49393	-0.1973956	0.2844146	0.07257982	-0.05132051	0.969175	-0.6851335	0	0
17.5105	-0.197345	0.2844146	0.003054484	0	-1.399712	1.033205	0	0
17.52738	-0.1970666	0.2842179	0.01649659	-0.01165826	0.4019582	-0.3486161	0	0
17.54389	-0.1928114	0.2812131	0.2577024	-0.1819788	7.22471	-5.101521	0	0
17.5602	-0.1879143	0.2777605	0.3002203	-0.2116628	1.295348	-0.904351	0	0
17.57677	-0.1751856	0.2688126	0.7683098	-0.5401005	14.23678	-9.989321	0	0
17.59342	-0.1649865	0.2617399	0.612374	-0.4246611	-4.693724	3.474766	0	0
17.60993	-0.1508711	0.2519212	0.8548627	-0.594638	7.31117	-5.124897	0	0
17.62647	-0.1365398	0.241951	0.8668315	-0.6030551	0.362197	-0.2547168	0	0
17.64303	-0.1256503	0.2343954	0.6572924	-0.4560536	-6.330461	4.441116	0	0
17.65997	-0.1184949	0.2294391	0.4224671	-0.2926309	-7.008773	4.877635	0	0
17.67617	-0.1044605	0.2197703	0.8663692	-0.596873	13.39622	-9.181516	0	0
17.693	-0.09075005	0.2103069	0.814898	-0.5624708	-1.55861	1.041738	0	0
17.70951	-0.08753887	0.2080924	0.1944993	-0.1341293	-18.61118	12.8497	0	0
17.75904	-0.05287173	0.1842508	0.6998408	-0.4813001	7.651384	-5.256518	0	0
17.77557	-0.04441813	0.1784317	0.5114377	-0.3520547	-2.85179	1.956341	0	0
17.79214	-0.03141072	0.1694761	0.7851292	-0.5405583	8.269547	-5.695606	0	0
17.8087	-0.02909705	0.1678827	0.1396533	-0.09617848	-19.4805	13.41141	0	0
17.82527	-0.01797175	0.160254	0.6716018	-0.4605201	16.05516	-10.99649	0	0
17.84184	-0.01470947	0.1580053	0.1969118	-0.1357348	-14.327	9.802606	0	0
17.8584	-0.009578655	0.1545035	0.3096963	-0.2113665	3.403844	-2.282571	0	0
17.87513	-0.008657678	0.1538683	0.05507664	-0.03798958	-7.648775	5.208242	0	0
17.89154	-0.006999886	0.1527246	0.1010065	-0.0696806	1.386165	-0.9564368	0	0
17.90815	-0.005210479	0.15149	0.1077235	-0.07432684	0.2034009	-0.1406936	0	0
17.92467	-0.005052588	0.151381	0.009556716	-0.006594897	-2.962851	2.044272	0	0
17.94124	-0.005052588	0.151381	0	0	-0.2888213	0.1993098	0	0
17.95781	-0.005052588	0.151381	0	0	0	0	0	0
17.97437	-0.005052588	0.151381	0	0	0	0	0	0
17.99094	-0.005052588	0.151381	0	0	0	0	0	0
18.02423	-0.005052588	0.151381	0	0	0	0	0	0
18.04074	-0.005052588	0.151381	0	0	0	0	0	0
18.05726	-0.005078904	0.1513992	-0.001593725	0.001100085	-0.04825983	0.03331186	0	0
18.07377	-0.005078904	0.1513992	0	0	0.04825426	-0.03330801	0	0
18.09034	-0.005078904	0.1513992	0	0	0	0	0	0
18.10691	-0.005078904	0.1513992	0	0	0	0	0	0
18.12347	-0.005078904	0.1513992	0	0	0	0	0	0
18.14004	-0.005052588	0.1514174	0.001588404	0.001096412	0.04793812	0.03308979	0	0
18.15661	-0.005052588	0.1514174	0	0	-0.04793812	-0.03308979	0	0
18.17334	-0.005052588	0.1514174	0	0	0	0	0	0
18.18974	-0.005078904	0.1513992	-0.001604474	-0.001107505	-0.04842313	-0.03342457	0	0
18.20637	-0.005078904	0.1513992	0	0	0.04858254	0.03353461	0	0
18.22288	-0.005078904	0.1513992	0	0	0	0	0	0
18.23944	-0.005078904	0.1513992	0	0	0	0	0	0
18.25601	-0.005078904	0.1513992	0	0	0	0	0	0
18.27258	-0.005078904	0.1513992	0	0	0	0	0	0
18.30593	-0.005078904	0.1513992	0	0	0	0	0	0
18.32228	-0.005078904	0.1513992	0	0	0	0	0	0
18.33896	-0.005078904	0.1513992	0	0	0	0	0	0
18.37307	-0.005078904	0.1513992	0	0	0	0	0	0
18.38964	-0.005078904	0.1513992	0	0	0	0	0	0
18.4062	-0.005078904	0.1513992	0	0	0	0	0	0
18.42277	-0.005078904	0.1513992	0	0	0	0	0	0
18.43934	-0.005078904	0.1513992	0	0	0	0	0	0
18.45591	-0.005078904	0.1513992	0	0	0	0	0	0
18.47256	-0.005078904	0.1513992	0	0	0	0	0	0
18.48907	-0.005078904	0.1513992	0	0	0	0	0	0
18.50561	-0.005078904	0.1513992	0	0	0	0	0	0
18.52217	-0.005078904	0.1513992	0	0	0	0	0	0
18.53874	-0.005078904	0.1513992	0	0	0	0	0	0
18.55564	-0.005078904	0.1513992	0	0	0	0	0	0
18.57187	-0.005078904	0.1513992	0	0	0	0	0	0
18.58864	-0.005078904	0.1513992	0	0	0	0	0	0
18.60515	-0.005078904	0.1513992	0	0	0	0	0	0
18.62157	-0.005078904	0.1513992	0	0	0	0	0	0
18.65471	-0.005078904	0.1513992	0	0	0	0	0	0
18.67128	-0.005052588	0.151381	0.001588221	-0.001096286	0.03195507	-0.02205732	0	0
18.68784	-0.005052588	0.151381	0	0	-0.04793536	0.03308789	0	0
18.70441	-0.005078904	0.1513629	-0.001588404	-0.001095513	-0.04794364	-0.03306645	0	0
18.73754	-0.005078904	0.1513629	0	0	0.03195997	0.02204261	0	0
18.75411	-0.005078904	0.1513629	0	0	0	0	0	0
18.77077	-0.005078904	0.1513629	0	0	0	0	0	0
18.78724	-0.005078904	0.1513629	0	0	0	0	0	0
18.80381	-0.005078904	0.1513629	0	0	0	0	0	0
18.82037	-0.005078904	0.1513629	0	0	0	0	0	0
18.83694	-0.005078904	0.1513629	0	0	0	0	0	0
18.85351	-0.005078904	0.1513629	0	0	0	0	0	0
18.87034	-0.005078904	0.1513629	0	0	0	0	0	0
18.88664	-0.005078904	0.1513629	0	0	0	0	0	0
18.93634	-0.005078904	0.1513629	0	0	0	0	0	0
18.95291	-0.005078904	0.1513629	0	0	0	0	0	0
18.96947	-0.005078904	0.1513629	0	0	0	0	0	0
18.98604	-0.005052588	0.1513447	0.001588404	-0.001096412	0.04793812	-0.03308979	0	0
19.00261	-0.005052588	0.1513447	0	0	-0.04794088	0.03309169	0	0
19.01917	-0.005026273	0.1513266	0.001588376	-0.001096412	0.04794003	-0.03309169	0	0
19.03595	-0.004999958	0.1513084	0.001568334	-0.00108169	-0.0006010303	0.0004415073	0	0
19.05231	-0.004999958	0.1513084	0	0	-0.04733513	0.03264734	0	0
19.06898	-0.004973643	0.1512902	0.00157859	-0.001089638	0.04780153	-0.03299551	0	0
19.08544	-0.004973643	0.1512902	0	0	-0.04764193	0.03288535	0	0
19.10201	-0.004973643	0.1512902	0	0	0	0	0	0
19.11857	-0.004973643	0.1512902	0	0	0	0	0	0
19.13514	-0.004973643	0.1512902	0	0	0	0	0	0
19.15171	-0.004973643	0.1512902	0	0	0	0	0	0
19.16828	-0.004973643	0.1512902	0	0	0	0	0	0
19.18484	-0.004973643	0.1512902	0	0	0	0	0	0
19.20141	-0.004973643	0.1512902	0	0	0	0	0	0
19.21798	-0.004999958	0.1513084	-0.001588404	0.001096412	-0.04793812	0.03308979	0	0
19.25111	-0.005052588	0.151381	-0.001588467	0.002192051	-1.27425E-06	0.02204515	0	0
19.26768	-0.005078904	0.1513992	-0.001588404	0.001096412	1.27425E-06	-0.02204515	0	0
19.28424	-0.005131534	0.1515445	-0.003176751	0.0087686	-0.04793642	0.2315471	0	0
19.30081	-0.004999958	0.1518531	0.007941906	0.01863181	0.3355618	0.2976724	0	0
19.31738	-0.004947328	0.1519621	0.003176779	0.006576675	-0.1438118	-0.3638248	0	0
19.33395	-0.004763122	0.1523071	0.01111871	0.02082194	0.2396881	0.429923	0	0
19.36719	-0.005236794	0.1527065	-0.01424708	0.01201389	-0.5092078	-0.176818	0	0
19.38365	-0.00536837	0.1530514	-0.007997148	0.02096496	0.1257537	0.1801029	0	0
19.40043	-0.00557889	0.1533419	-0.01254239	0.01730469	-0.1367507	-0.110125	0	0
19.417	-0.005684149	0.1535234	-0.006353503	0.01095693	0.1855633	-0.1903268	0	0
19.43357	-0.005920983	0.1538683	-0.01429532	0.02081744	-0.2396847	0.2975909	0	0
19.45013	-0.005920983	0.1538683	0	0	0.4314338	-0.6282717	0	0
19.46677	-0.005920983	0.1539046	0	0.002181732	0	0.06570486	0	0
19.48327	-0.005920983	0.1539772	0	0.004398764	0	0.06689474	0	0
19.49983	-0.005920983	0.154195	0	0.01315614	0	0.2648929	0	0
19.5164	-0.005684149	0.1546124	0.01429532	0.0251968	0.4315828	0.3635132	0	0
19.53296	-0.005105219	0.155302	0.03494432	0.04162499	0.623188	0.495804	0	0
19.54982	-0.0031842	0.157062	0.1139587	0.1044053	2.363975	1.87828	0	0
19.5661	0.001105263	0.1612875	0.2635548	0.2596216	4.515079	4.684707	0	0
19.58266	0.001473683	0.1667961	0.02223791	0.3324999	-7.347672	2.219012	0	0
19.59923	-0.001026315	0.174055	-0.1509002	0.4381467	-5.225319	3.188427	0	0
19.6158	-0.005184164	0.1770213	-0.2509682	0.1790498	-3.020059	-7.819559	0	0
19.63237	-0.008631364	0.1793898	-0.2080734	0.1429644	1.294568	-1.089059	0	0
19.64893	-0.01136793	0.1812696	-0.1651795	0.113462	1.294541	-0.8903842	0	0
19.6655	-0.01128899	0.1812154	0.004764649	-0.003272148	5.128924	-3.523045	0	0
19.68207	-0.01126268	0.1811973	0.001588235	-0.001091016	-0.09586436	0.06582669	0	0
19.69864	-0.01121006	0.1811612	0.003176414	-0.002182032	0.04793133	-0.03292692	0	0
19.7152	-0.01118374	0.1811069	0.001588235	-0.003272148	-0.04793133	-0.03289977	0	0
19.73177	-0.01113112	0.1810708	0.00317647	-0.002182032	0.04793303	0.03289977	0	0
19.74834	-0.01113112	0.1810346	0	-0.002182032	-0.09586606	0	0	0
19.7649	-0.01113112	0.1810346	0	0	0	0.06585384	0	0
19.81461	-0.01110481	0.1810166	0.0005294117	-0.0003633721	0.007988838	-0.005483296	0	0
19.83117	-0.01110481	0.1810166	0	0	-0.007988838	0.005483296	0	0
19.84774	-0.01110481	0.1810166	0	0	0	0	0	0
19.86431	-0.01110481	0.1810166	0	0	0	0	0	0
19.88088	-0.01110481	0.1810166	0	0	0	0	0	0
19.89744	-0.01110481	0.1809804	0	-0.002182283	0	-0.06586522	0	0
19.91401	-0.01110481	0.1809804	0	0	0	0.06586143	0	0
19.93058	-0.01107849	0.1809624	0.001588235	-0.001091016	0.04793027	-0.03292502	0	0
19.94714	-0.01107849	0.1809624	0	0	-0.04793579	0.03292882	0	0
19.96413	-0.01105218	0.1809443	0.001549295	-0.001064304	0.04618095	-0.03172448	0	0
19.98028	-0.01107849	0.1809262	-0.001629257	-0.001119235	-0.09593442	-0.001657917	0	0
19.99684	-0.01107849	0.1809262	0	0	0.04980178	0.03421184	0	0
20.01366	-0.01107849	0.1808901	0	-0.002148482	0	-0.06435601	0	0
20.02998	-0.01105218	0.180872	0.001612687	-0.001107852	0.04867098	0.03140628	0	0
20.04668	-0.01107849	0.1808539	-0.001574763	-0.001081799	-0.09651966	0.0007888919	0	0
20.0632	-0.01105218	0.1808358	0.001593499	-0.001094671	0.09537128	-0.0003874473	0	0
20.07971	-0.01107849	0.1808178	-0.001593499	-0.001094671	-0.096506	0	0	0
20.09624	-0.01107849	0.1808178	0	0	0.04821958	0.03312493	0	0
20.13004	-0.01107849	0.1807816	0	-0.00106971	0	-0.02125426	0	0
20.1466	-0.01105218	0.1807635	0.001588362	-0.001091141	0.03154032	-0.0004255632	0	0
20.16327	-0.01105218	0.1807274	0	-0.0021684	-0.04779928	-0.03241843	0	0
20.17974	-0.01105218	0.1806913	0	-0.002195173	0	-0.0008080562	0	0
20.1963	-0.01102587	0.180637	0.001588235	-0.003273047	0.04807694	-0.03262796	0	0
20.21287	-0.01099956	0.1805828	0.001588418	-0.003273424	5.519903E-06	-1.137711E-05	0	0
20.22943	-0.01097324	0.1805286	0.001588235	-0.003272148	-5.519903E-06	3.852337E-05	0	0
20.246	-0.01094693	0.1804744	0.001588235	-0.003273047	0	-2.714469E-05	0	0
20.26284	-0.01089431	0.1804021	0.00312573	-0.004294353	0.0460281	-0.0305749	0	0
20.27935	-0.01081537	0.1803478	0.004780666	-0.003284012	0.04962613	0.03029683	0	0
20.2957	-0.01078906	0.1802936	0.001608982	-0.003315802	-0.09650492	-0.0009672962	0	0
20.31237	-0.01076274	0.1802394	0.001578422	-0.003252825	-0.0009253803	0.00190703	0	0
20.32889	-0.01071012	0.1802032	0.003187167	-0.002189341	0.04848225	0.03204988	0	0
20.37854	-0.0106838	0.180149	0.0005299608	-0.001091847	-0.04016206	0.01658795	0	0
20.3951	-0.01065749	0.1800948	0.001588235	-0.003273047	0.01598181	-0.03293997	0	0
20.41167	-0.01063118	0.1800767	0.001588235	-0.001091016	0	0.06585383	0	0
20.42824	-0.01060487	0.1800587	0.001588235	-0.001091016	0	0	0	0
20.44497	-0.01057855	0.1800044	0.001572485	-0.00324148	-0.0004729726	-0.06457772	0	0
20.46148	-0.01052593	0.1799683	0.003187536	-0.002189594	0.04858292	0.03164215	0	0
20.47799	-0.0104733	0.1799321	0.003187111	-0.002189341	-1.285359E-05	7.657157E-06	0	0
20.4945	-0.01044699	0.179914	0.001593612	-0.001094671	-0.048253	0.03314789	0	0
20.51151	-0.01034174	0.1798417	0.006187725	-0.004250532	0.1370491	-0.09414399	0	0
20.52803	-0.01021017	0.1797514	0.00796789	-0.005473353	0.05310494	-0.03647851	0	0
20.5442	-0.009894414	0.1794621	0.01951985	-0.01788004	0.3533991	-0.3795471	0	0
20.56077	-0.008657678	0.1784678	0.07464952	-0.06001576	1.683685	-1.286844	0	0
20.57734	-0.006920942	0.1769128	0.1048296	-0.09386153	0.9108362	-1.021467	0	0
20.5939	-0.006973571	0.1755745	-0.003176695	-0.08078194	-3.259636	0.3947428	0	0
20.66017	-0.003236831	0.1699287	0.05639077	-0.0851997	0.719133	-0.05333379	0	0
20.67674	-0.003263146	0.1699468	-0.001588418	0.001092815	-0.6999584	1.041773	0	0
20.6933	-0.003263146	0.1699468	0	0	0.04793854	-0.03298121	0	0
20.70987	-0.003263146	0.1699468	0	0	0	0	0	0
20.72667	-0.003263146	0.1699468	0	0	0	0	0	0
20.74318	-0.003289462	0.1699649	-0.001593909	0.001096602	-0.04785085	0.03292117	0	0
20.75969	-0.003289462	0.1699649	0	0	0.0482682	-0.0332083	0	0
20.77621	-0.003315777	0.169983	-0.001593725	0.001096475	-0.04825983	0.03320255	0	0
20.79272	-0.003342093	0.1700011	-0.001593357	0.001096222	1.114537E-05	-7.66993E-06	0	0
20.80927	-0.003342093	0.1700011	0	0	0.04818468	-0.03315084	0	0
20.82584	-0.003342093	0.1700011	0	0	0	0	0	0
20.84241	-0.003342093	0.1700011	0	0	0	0	0	0
20.85897	-0.003342093	0.1700011	0	0	0	0	0	0
20.87554	-0.003342093	0.1700011	0	0	0	0	0	0
20.89229	-0.003315777	0.169983	0.001571219	-0.001080992	0.04716158	-0.03244695	0	0
20.90867	-0.003315777	0.169983	0	0	-0.04742222	0.03262627	0	0
20.92531	-0.003315777	0.169983	0	0	0	0	0	0
20.94182	-0.003289462	0.1699649	0.001593725	-0.001096475	0.04807657	-0.03307646	0	0
20.95838	-0.003289462	0.1699649	0	0	-0.04820137	0.03316233	0	0
20.99186	-0.003263146	0.1699106	0.0007859228	-0.001621689	0.01570731	-0.03241078	0	0
21.0085	-0.003236831	0.1698925	0.001581862	-0.001088304	0.01588085	0.01064229	0	0
21.02464	-0.003236831	0.1698563	0	-0.002242426	-0.04825175	-0.03520434	0	0
21.04121	-0.003236831	0.1698201	0	-0.002185629	0	0.001736107	0	0
21.07492	-0.003263146	0.1697658	-0.0007806381	-0.001611212	-0.01552652	0.01142489	0	0
21.0911	-0.003263146	0.1697296	0	-0.002237932	0.01564702	-0.0125619	0	0
21.10767	-0.003236831	0.1697115	0.001588418	-0.001092815	0.04850535	0.03496833	0	0
21.12424	-0.003236831	0.1696753	0	-0.00218473	-0.04793854	-0.03295407	0	0
21.1408	-0.003236831	0.1696391	0	-0.002185629	0	-2.714469E-05	0	0
21.15748	-0.003210515	0.1695848	0.001578048	-0.00325707	0.04746983	-0.03223039	0	0
21.17399	-0.003210515	0.1695485	0	-0.002192951	-0.04754895	0.0320635	0	0
21.1905	-0.003131569	0.1694942	0.004780636	-0.003289046	0.1447548	-0.03318913	0	0
21.20707	-0.003105253	0.1694761	0.001588587	-0.00109294	-0.09649733	0.06638943	0	0
21.22364	-0.003052622	0.1694037	0.003176822	-0.004371258	0.04793579	-0.09894553	0	0
21.2402	-0.00294736	0.1693313	0.006353643	-0.004371258	0.09587666	0	0	0
21.25677	-0.002499995	0.1690235	0.02700611	-0.01858089	0.6233287	-0.4288721	0	0
21.27334	0.000368421	0.1670496	0.1731379	-0.119142	4.410521	-3.035114	0	0
21.2899	0.007341973	0.1622482	0.4209245	-0.2898144	7.478212	-5.150906	0	0
21.30659	0.009262893	0.1609249	0.1151515	-0.07932823	-9.196483	6.330621	0	0
21.32304	0.01739298	0.1553202	0.4942039	-0.340692	11.44048	-7.888429	0	0
21.3396	0.02041822	0.153233	0.1826034	-0.1259858	-9.437262	6.502681	0	0
21.35617	0.02370608	0.1509634	0.198479	-0.1370088	0.4791553	-0.3326958	0	0
21.37274	0.02496849	0.1500916	0.0761992	-0.0526197	-3.690624	2.547016	0	0
21.38964	0.02499479	0.1500734	0.001555625	-0.001074395	-2.229899	1.539862	0	0
21.40616	0.02499479	0.1500734	0	0	-0.04654695	0.03214772	0	0
21.42244	0.02502109	0.1500553	0.001615476	-0.00111581	0.04926275	-0.03402581	0	0
21.43918	0.02502109	0.1500553	0	0	-0.04892131	0.03378997	0	0
21.52184	0.02509999	0.1498918	0.0009545016	-0.001977597	0.009602489	-0.01989505	0	0
21.55497	0.02509999	0.1498192	0	-0.002192698	-0.00824302	-0.001857602	0	0
21.57154	0.02512629	0.149801	0.001587575	-0.001096539	0.03194207	0.02205478	0	0
21.58829	0.02515259	0.1497465	0.001570397	-0.003254022	-0.0005156623	-0.06476625	0	0
21.6048	0.02525778	0.1496738	0.006370215	-0.004399832	0.1443105	-0.03444974	0	0
21.62124	0.02528408	0.1496193	0.001599732	-0.003314806	-0.1447651	0.03292622	0	0
21.63782	0.02533668	0.1495467	0.00317161	-0.00438111	0.0475983	-0.03228892	0	0
21.65437	0.02538928	0.1495104	0.003178443	-0.002195352	0.0002062357	0.0659701	0	0
21.67094	0.02546818	0.1494559	0.004762175	-0.003289237	0.04782467	-0.03303252	0	0
21.68751	0.02549447	0.1494377	0.001587392	-0.001096412	-0.09581516	0.06617958	0	0
21.70407	0.02552077	0.1493832	0.001587209	-0.003288858	-5.512241E-06	-0.06616434	0	0
21.72088	0.02554707	0.149365	0.001564872	-0.001080858	-0.0006692869	0.06615774	0	0
21.73721	0.02557337	0.1493105	0.001610758	-0.003337653	0.001384916	-0.06811415	0	0
21.7539	0.02557337	0.1492742	0	-0.002176684	-0.04877561	0.03515551	0	0
21.77042	0.02557337	0.1492379	0	-0.00220017	0	-0.000707245	0	0
21.78693	0.02557337	0.1492015	0	-0.002200425	0	-7.699462E-06	0	0
21.80347	0.02554707	0.1490744	-0.001589405	-0.007685519	-0.04808181	-0.1659321	0	0
21.82004	0.02544188	0.1488927	-0.006348837	-0.01096376	-0.1437227	-0.09899451	0	0
21.83661	0.02399539	0.1473847	-0.08730993	-0.09102651	-2.44327	-2.416159	0	0
21.85348	0.01918186	0.1409664	-0.2852582	-0.3803585	-5.919233	-8.651872	0	0
21.86974	0.01568292	0.1310787	-0.2151845	-0.6080929	2.114828	-6.873039	0	0
21.88631	0.01142056	0.1158188	-0.2572474	-0.9209828	-1.281262	-9.530818	0	0
21.90288	0.008815561	0.1045627	-0.1572559	-0.6794968	3.017751	7.288062	0	0
21.91944	0.004210501	0.09122168	-0.277994	-0.805359	-3.644302	-3.798965	0	0
21.93601	0.00118421	0.08285181	-0.1826673	-0.5052064	2.87713	9.059145	0	0
21.95258	-0.0003421053	0.08038377	-0.09213918	-0.1489885	2.732302	10.7513	0	0
21.98607	-0.01426219	0.0655266	-0.4155876	-0.4435644	-6.46118	-5.884424	0	0
22.00263	-0.01626172	0.06415817	-0.1207755	-0.08265589	5.890265	7.210852	0	0
22.01919	-0.0189451	0.06227119	-0.1619689	-0.1138987	-1.24365	-0.9432359	0	0
22.03576	-0.02086539	0.06092015	-0.1159223	-0.08155809	1.389771	0.9760979	0	0
22.06889	-0.02086539	0.06092015	0	0	2.332451	1.641015	0	0
22.08546	-0.02086539	0.06092015	0	0	0	0	0	0
22.10203	-0.02083909	0.06090164	0.001587912	-0.001117228	0.04792604	-0.03371995	0	0
22.11859	-0.02083909	0.06090164	0	0	-0.04793156	0.03372383	0	0
22.13518	-0.02081278	0.06088313	0.001585903	-0.001116039	0.04784063	-0.03366663	0	0
22.15172	-0.02078648	0.06086462	0.001589742	-0.001118741	0.0001158723	-8.154066E-05	0	0
22.16829	-0.02073387	0.0608276	0.003175458	-0.002234648	0.04788733	-0.03369949	0	0
22.18486	-0.02047082	0.06064248	0.01587752	-0.01117347	0.3833489	-0.2697741	0	0
22.20142	-0.02018147	0.06043885	0.01746547	-0.01229124	0.04792453	-0.03373447	0	0
22.21799	-0.02010255	0.06038331	0.0047633	-0.003352422	-0.3833523	0.2697741	0	0
22.23475	-0.01997103	0.06029075	0.007849517	-0.005524331	0.09261443	-0.06517691	0	0
22.26777	-0.01836636	0.05916127	0.04859696	-0.03420575	0.818615	-0.5762089	0	0
22.28428	-0.01776129	0.05873532	0.03663993	-0.02579352	-0.2413911	0.1698279	0	0
22.30082	-0.01773498	0.0587168	0.001590334	-0.001119449	-1.060301	0.7464266	0	0
22.31739	-0.01773498	0.0587168	0	0	-0.04803232	0.03381035	0	0
22.33396	-0.01773498	0.0587168	0	0	0	0	0	0
22.36709	-0.01773498	0.0587168	0	0	0	0	0	0
22.38366	-0.01773498	0.0587168	0	0	0	0	0	0
22.40022	-0.01773498	0.0587168	0	0	0	0	0	0
22.41679	-0.01773498	0.0587168	0	0	0	0	0	0
22.43339	-0.01773498	0.0587168	0	0	0	0	0	0
22.44993	-0.01773498	0.0587168	0	0	0	0	0	0
22.46649	-0.01770867	0.05869828	0.001588137	-0.001118127	0.04797978	-0.03378016	0	0
22.48306	-0.01768237	0.05867976	0.001587842	-0.001117774	-8.91055E-06	1.067087E-05	0	0
22.49963	-0.01765606	0.05866124	0.001587954	-0.001117999	3.390452E-06	-6.784417E-06	0	0
22.51645	-0.01760344	0.0586242	0.003127657	-0.002202027	0.04611265	-0.0324656	0	0
22.53296	-0.01755083	0.05858716	0.003186802	-0.002243521	0.001774378	-0.001244864	0	0
22.54947	-0.01752452	0.05856863	0.001593273	-0.001121744	-0.04825669	0.03397068	0	0
22.56598	-0.01747191	0.05853159	0.003186547	-0.002243262	0.04824617	-0.03396088	0	0
22.5825	-0.0174456	0.05851307	0.001593273	-0.001121744	-0.04824617	0.03396088	0	0
22.59903	-0.0174456	0.05851307	0	0	-0.04821832	0.0339481	0	0
22.61559	-0.0174456	0.05851307	0	0	0	0	0	0
22.63216	-0.0174456	0.05851307	0	0	0	0	0	0
22.64873	-0.0174456	0.05851307	0	0	0	0	0	0
22.66556	-0.0174456	0.05851307	0	0	0	0	0	0
22.68186	-0.0174456	0.05851307	0	0	0	0	0	0
22.69843	-0.0174456	0.05851307	0	0	0	0	0	0
22.715	-0.0174456	0.05851307	0	0	0	0	0	0
22.73157	-0.01741929	0.05849455	0.001587771	-0.00111787	0.04791627	-0.03373544	0	0
22.74813	-0.01739298	0.05847603	0.001588207	-0.001118256	1.316203E-05	-1.165469E-05	0	0
22.76469	-0.01736668	0.05842046	0.001588137	-0.003354382	-2.125987E-06	-0.06749808	0	0
22.78126	-0.01670897	0.05795738	0.03969907	-0.02795132	1.150257	-0.7423798	0	0
22.79783	-0.01484102	0.05660489	0.1127501	-0.08163685	2.204684	-1.620232	0	0
22.8144	-0.009052385	0.05252605	0.3494025	-0.246199	7.142183	-4.966495	0	0
22.83096	0.0004736842	0.04580518	0.5749946	-0.4056726	6.808385	-4.812922	0	0
22.84753	0.007947201	0.04052416	0.4511024	-0.3187632	-3.739075	2.622929	0	0
22.88116	0.02318006	0.02973435	0.4530008	-0.3208718	0.03782216	-0.04200866	0	0
22.89772	0.0284397	0.02599988	0.3174725	-0.2254128	-2.700101	1.901809	0	0
22.91429	0.03477545	0.02149467	0.3824265	-0.2719348	1.960316	-1.404036	0	0
22.93086	0.03887514	0.01857539	0.247458	-0.1762085	-4.073359	2.889025	0	0
22.94743	0.04118722	0.01692754	0.1395574	-0.09946423	-3.256446	2.316146	0	0
22.96399	0.04097705	0.01707738	-0.01268587	0.009044165	-4.59471	3.27479	0	0
22.98056	0.04100332	0.01705865	0.001585705	-0.001130478	0.4307169	-0.3070713	0	0
22.99713	0.04097705	0.01707738	-0.001585705	0.001130478	-0.09571337	0.06823581	0	0
23.01369	0.04100332	0.01705865	0.001585705	-0.001130478	0.09571337	-0.06823581	0	0
23.03026	0.04097705	0.01707738	-0.001585705	0.001130478	-0.09571337	0.06823581	0	0
23.04683	0.04097705	0.01707738	0	0	0.04785668	-0.03411791	0	0
23.06384	0.04097705	0.01707738	0	0	0	0	0	0
23.07996	0.04097705	0.01707738	0	0	0	0	0	0
23.09653	0.04097705	0.01707738	0	0	0	0	0	0
23.1131	0.04097705	0.01707738	0	0	0	0	0	0
23.12966	0.04097705	0.01707738	0	0	0	0	0	0
23.14623	0.04095078	0.01709611	-0.001585888	0.001130609	-0.04786495	0.0341238	0	0
23.1628	0.04095078	0.01709611	0	0	0.04786495	-0.0341238	0	0
23.17942	0.0409245	0.01711483	-0.001580109	0.001126329	-0.0476001	0.03393018	0	0
23.19594	0.0409245	0.01711483	0	0	0.04767955	-0.03398681	0	0
23.27876	0.04089823	0.01713356	-0.0003171776	0.0002261217	-0.003192896	0.002276274	0	0
23.29533	0.04089823	0.01713356	0	0	0.003191119	-0.002275007	0	0
23.31202	0.04089823	0.01713356	0	0	0	0	0	0
23.32846	0.0409245	0.01711483	0.001597476	-0.00113887	0.04821192	-0.03437116	0	0
23.34503	0.0409245	0.01711483	0	0	-0.04839019	0.03449826	0	0
23.3616	0.0409245	0.01711483	0	0	0	0	0	0
23.37816	0.0409245	0.01711483	0	0	0	0	0	0
23.39473	0.0409245	0.01711483	0	0	0	0	0	0
23.41159	0.0409245	0.01711483	0	0	0	0	0	0
23.4281	0.0409245	0.01711483	0	0	0	0	0	0
23.44443	0.0409245	0.01711483	0	0	0	0	0	0
23.46113	0.0409245	0.01711483	0	0	0	0	0	0
23.47764	0.0409245	0.01711483	0	0	0	0	0	0
23.49416	0.0409245	0.01711483	0	0	0	0	0	0
23.5107	0.0409245	0.01711483	0	0	0	0	0	0
23.52727	0.0409245	0.01711483	0	0	0	0	0	0
23.5604	0.0409245	0.01711483	0	0	0	0	0	0
23.57697	0.04084569	0.01717102	-0.004757117	0.003391435	-0.09571338	0.06823581	0	0
23.59353	0.04076688	0.01726466	-0.004757341	0.00565228	-6.773877E-06	0.06823242	0	0
23.61023	0.04042533	0.01754558	-0.02045305	0.01682219	-0.4718232	0.335775	0	0
23.62675	0.03979477	0.01810733	-0.03818848	0.03402108	-0.5340269	0.5178711	0	0
23.64326	0.03869121	0.01908082	-0.06684196	0.0589638	-0.8677107	0.755338	0	0
23.6598	0.03624728	0.02100829	-0.1477201	0.1165034	-2.446823	1.740758	0	0
23.69293	0.0265201	0.02863308	-0.2935668	0.2301165	-2.935794	2.286952	0	0
23.7095	0.01610387	0.03698693	-0.6287247	0.5042396	-6.74339	5.515369	0	0
23.72607	0.005920983	0.04678991	-0.6146403	0.591709	0.425068	2.63983	0	0
23.74264	-0.0001052632	0.05493679	-0.363745	0.4917463	7.572036	-3.016878	0	0
23.75934	-0.002789466	0.06852078	-0.1606869	0.8131906	6.103011	9.661166	0	0
23.79288	-0.002631573	0.08555768	0.004708055	0.5080044	3.292	-6.074389	0	0
23.80944	-0.001078947	0.09862186	0.09374906	0.7888281	1.777322	5.605441	0	0
23.826	0.001105263	0.1116855	0.1318543	0.7886127	1.150284	-0.00650262	0	0
23.84257	0.003210515	0.1203505	0.1270733	0.5230201	-0.1443003	-8.016061	0	0
23.85914	0.008894502	0.1294745	0.3430861	0.5507291	6.51928	0.8362577	0	0
23.8757	0.01278878	0.1361068	0.2350859	0.4003679	-3.25964	-4.538171	0	0
23.89227	0.01786652	0.1423125	0.3064932	0.3745773	2.155201	-0.7784085	0	0
23.90895	0.0242584	0.1507273	0.3832992	0.5046073	2.310427	3.911479	0	0
23.92546	0.02644121	0.1577151	0.1321654	0.4231002	-7.566167	-2.455646	0	0
23.94197	0.02783491	0.1623026	0.08443553	0.277926	-1.445398	-4.396297	0	0
23.95854	0.02859746	0.171232	0.04602762	0.5389825	-1.161292	7.893238	0	0
23.9751	0.02809787	0.177618	-0.03015584	0.3854604	-2.299221	-4.633304	0	0
23.99167	0.02901817	0.185768	0.0555495	0.4919347	2.586592	3.213401	0	0
24.00852	0.03093749	0.1910577	0.1139228	0.3139709	1.746928	-5.325893	0	0
24.0248	0.03488058	0.1934034	0.2421309	0.1440399	3.86955	-5.128822	0	0
24.04155	0.03674661	0.1946481	0.1114532	0.07434424	-3.956615	-2.110221	0	0
24.05794	0.03690429	0.1947203	0.009619493	0.00440169	-3.073346	-2.11087	0	0
24.0745	0.03690429	0.1947203	0	0	-0.2918625	-0.1335505	0	0
24.15734	0.03693057	0.1947022	0.000317231	-0.0002178434	0.00319135	-0.002191509	0	0
24.17414	0.03695685	0.1946481	0.001564052	-0.003219885	0.01251327	-0.03012891	0	0
24.19048	0.03706197	0.194576	0.006436735	-0.004418141	0.1470579	-0.03616344	0	0
24.20704	0.03716709	0.1945038	0.00634507	-0.004355068	-0.002786343	0.001917229	0	0
24.22361	0.03721965	0.1944677	0.003172535	-0.002177534	-0.0957473	0.06571811	0	0
24.24019	0.03721965	0.1944677	0	0	-0.09570323	0.06568787	0	0
24.25674	0.03724593	0.1944497	0.001587617	-0.001090221	0.04791439	-0.03290293	0	0
24.27372	0.0372722	0.1944316	0.00154819	-0.001063146	-0.001176041	0.0008075899	0	0
24.28988	0.03729848	0.1943775	0.001626221	-0.003348346	0.002355108	-0.06897144	0	0
24.30644	0.03737732	0.1943234	0.00475869	-0.003266751	0.09571723	0.002493257	0	0
24.32301	0.03742988	0.1942873	0.003172535	-0.002177534	-0.04787026	0.03287263	0	0
24.33977	0.03745616	0.1942332	0.001568459	-0.003230305	-0.04813955	-0.03159446	0	0
24.35615	0.03742988	0.1942152	-0.001604255	-0.001100736	-0.09575271	0.06427051	0	0
24.37279	0.03742988	0.1941791	0	-0.002167552	0.04857871	-0.03230443	0	0
24.3893	0.03742988	0.1941791	0	0	0	0.06537547	0	0
24.40585	0.0374036	0.1941611	-0.001588575	-0.001090724	-0.0480567	-0.03299598	0	0
24.42241	0.03737732	0.194143	-0.001586155	-0.001088317	7.307342E-05	7.267262E-05	0	0
24.43898	0.03737732	0.194143	0	0	0.04787026	0.03284548	0	0
24.45555	0.03735104	0.194125	-0.001585973	-0.001089091	-0.04786199	-0.03286695	0	0
24.47211	0.03735104	0.194125	0	0	0.04786475	0.03286884	0	0
24.48887	0.03737732	0.1941069	0.001568102	-0.00107682	0.04705724	-0.03231433	0	0
24.50538	0.03735104	0.1940889	-0.001591469	-0.001091963	-0.09496789	-0.0004551726	0	0
24.52181	0.03735104	0.1940889	0	0	0.0483115	0.03314824	0	0
24.53841	0.03735104	0.1940167	0	-0.004349458	0	-0.1317143	0	0
24.55495	0.03732476	0.1939987	-0.001588716	-0.001090074	-0.0479503	0.09837407	0	0
24.57151	0.03729848	0.1939085	-0.00158638	-0.005444285	7.055014E-05	-0.1315163	0	0
24.58844	0.03724593	0.1938724	-0.003104404	-0.002130922	-0.04531839	0.09891566	0	0
24.60465	0.03724593	0.1938363	0	-0.002227151	0.09369109	-0.002904201	0	0
24.62147	0.03724593	0.1938003	0	-0.002144938	0	0.002489511	0	0
24.63778	0.03721965	0.1937461	-0.00161082	-0.003317549	-0.04861744	-0.03539152	0	0
24.65449	0.03724593	0.193692	0.001572756	-0.003239155	0.09640795	0.002374001	0	0
24.671	0.0372722	0.193674	0.001591469	-0.001091963	0.0005632847	0.06463496	0	0
24.68751	0.03724593	0.193656	-0.001591469	-0.001092866	-0.09638303	-2.732728E-05	0	0
24.70405	0.03724593	0.1936199	0	-0.002181805	0.04815814	-0.0329515	0	0
24.73718	0.03724593	0.1935477	0	-0.002177984	0	7.691915E-05	0	0
24.75375	0.03724593	0.1935477	0	0	0	0.04382281	0	0
24.78708	0.03721965	0.1935297	-0.0007882678	-0.0005413055	-0.01579633	-0.01084738	0	0
24.80345	0.03721965	0.1935297	0	0	0.01586059	0.01089151	0	0
24.82001	0.03721965	0.1935297	0	0	0	0	0	0
24.83658	0.03721965	0.1935297	0	0	0	0	0	0
24.86971	0.03724593	0.1935116	0.0007931232	-0.0005446398	0.01595828	-0.01095859	0	0
24.88628	0.03721965	0.1934936	-0.001586155	-0.001088317	-0.04787301	-0.01093923	0	0
24.90317	0.03721965	0.1934936	0	0	0.04741175	0.03253089	0	0
24.91942	0.03724593	0.1934755	0.001617439	-0.001110699	0.0488144	-0.03352097	0	0
24.93619	0.03724593	0.1934755	0	0	-0.04897792	0.03363327	0	0
24.9527	0.03724593	0.1934755	0	0	0	0	0	0
24.96912	0.03724593	0.1934395	0	-0.002197776	0	-0.06675556	0	0
24.98568	0.0372722	0.1934214	0.001586338	-0.001089342	0.04810004	0.03360931	0	0
25.00225	0.0372722	0.1933853	0	-0.002177534	-0.04787853	-0.03284359	0	0
25.01882	0.0372722	0.1933853	0	0	0	0.06571811	0	0
25.03538	0.03729848	0.1933673	0.001586338	-0.001089342	0.04787853	-0.03287831	0	0
25.05195	0.03729848	0.1933673	0	0	-0.04787853	0.03287831	0	0
25.06852	0.0372722	0.1933493	-0.001586155	-0.001089217	-0.04787026	-0.03287263	0	0
25.0853	0.0372722	0.1933493	0	0	0.04755273	0.03265458	0	0
25.10165	0.0372722	0.1933493	0	0	0	0	0	0
25.11832	0.0372722	0.1933493	0	0	0	0	0	0
25.13478	0.0372722	0.1933493	0	0	0	0	0	0
25.15135	0.0372722	0.1933493	0	0	0	0	0	0
25.16792	0.0372722	0.1933132	0	-0.002177534	0	-0.06571811	0	0
25.18487	0.0372722	0.1933132	0	0	0	0.06496643	0	0
25.20105	0.0372722	0.1933132	0	0	0	0	0	0
25.21789	0.0372722	0.1932771	0	-0.002143393	0	-0.06491193	0	0
25.23418	0.03719337	0.193223	-0.004838346	-0.003321433	-0.14603	-0.03555535	0	0
25.25075	0.03706197	0.1930967	-0.007931226	-0.007622719	-0.09411806	-0.1308905	0	0
25.26732	0.03666777	0.192826	-0.0237939	-0.01633555	-0.4787365	-0.2629539	0	0
25.28388	0.03666777	0.19279	0	-0.002177785	0.7181427	0.4273069	0	0
25.30045	0.03666777	0.19279	0	0	0	0.06572946	0	0
25.31702	0.03666777	0.19279	0	0	0	0	0	0
25.33397	0.03666777	0.1927539	0	-0.002128445	0	-0.06349102	0	0
25.35015	0.03666777	0.1927539	0	0	0	0.06424029	0	0
25.36671	0.03666777	0.1927539	0	0	0	0	0	0
25.38328	0.03666777	0.1927539	0	0	0	0	0	0
25.39985	0.03666777	0.1927539	0	0	0	0	0	0
25.41653	0.03666777	0.1927539	0	0	0	0	0	0
25.43304	0.03666777	0.1927539	0	0	0	0	0	0
25.44955	0.03666777	0.1927539	0	0	0	0	0	0
25.46612	0.03666777	0.1927539	0	0	0	0	0	0
25.48268	0.03666777	0.1927539	0	0	0	0	0	0
25.49925	0.03666777	0.1927539	0	0	0	0	0	0
25.51582	0.03666777	0.1927539	0	0	0	0	0	0
25.53261	0.03666777	0.1927539	0	0	0	0	0	0
25.54895	0.03666777	0.1927539	0	0	0	0	0	0
25.58238	0.03666777	0.1927539	0	0	0	0	0	0
25.59895	0.03666777	0.1927539	0	0	0	0	0	0
25.61551	0.03666777	0.1927539	0	0	0	0	0	0
25.63208	0.03666777	0.1927539	0	0	0	0	0	0
25.64865	0.03666777	0.1927539	0	0	0	0	0	0
25.66522	0.03666777	0.1927539	0	0	0	0	0	0
25.68178	0.03666777	0.1927539	0	0	0	0	0	0
25.69873	0.03664149	0.1927719	-0.0015505	0.001064582	-0.04625896	0.03176165	0	0
25.71492	0.03661521	0.19279	-0.001623921	0.001115151	-0.002215958	0.001526262	0	0
25.73148	0.03651008	0.1928982	-0.006345295	0.006533502	-0.1441677	0.16545	0	0
25.74805	0.03606331	0.1933132	-0.02697067	0.02505037	-0.6225108	0.5588725	0	0
25.76462	0.03225197	0.1967582	-0.2300528	0.2079433	-6.129382	5.520037	0	0
25.78118	0.02336417	0.205445	-0.5364686	0.5243351	-9.247649	9.548726	0	0
25.79775	0.0126046	0.2196804	-0.6494492	0.8592473	-3.40976	10.10767	0	0
25.81432	-0.0004210526	0.2459509	-0.7862297	1.585694	-4.128044	21.9242	0	0
25.84745	-0.01073643	0.2817318	-0.3113187	1.079871	9.555228	-10.17718	0	0
25.91372	-0.02344307	0.3589259	-0.1917492	1.164894	1.202895	0.8553535	0	0
25.9304	-0.0241269	0.363677	-0.04098314	0.2847455	1.817498	-10.61027	0	0
25.94685	-0.02765085	0.3711442	-0.2142601	0.4540129	-5.229809	5.108796	0	0
25.96342	-0.03109524	0.3775945	-0.207832	0.389208	0.1946703	-1.962595	0	0
25.97999	-0.03185764	0.3803645	-0.04603464	0.1672557	4.883055	-6.698534	0	0
25.99655	-0.03424976	0.3832064	-0.1444053	0.171553	-2.969517	0.1297218	0	0
26.01312	-0.03543253	0.3840107	-0.07139228	0.04854975	2.203665	-3.712458	0	0
26.02997	-0.03582677	0.3843861	-0.02339483	0.02227646	1.436247	-0.7861864	0	0
26.04625	-0.03785034	0.385834	-0.1242891	0.088934	-3.04517	2.011844	0	0
26.06282	-0.04804195	0.3928428	-0.6151671	0.4230479	-14.94376	10.1714	0	0
26.07951	-0.05190072	0.3954717	-0.2312385	0.1575412	11.54512	-7.984052	0	0
26.09595	-0.05646623	0.3985841	-0.2776201	0.189256	-1.399881	0.9572105	0	0
26.11252	-0.05638753	0.3985304	0.004750146	-0.003239768	8.553462	-5.831017	0	0
26.14565	-0.05612521	0.3983158	0.007916947	-0.006477737	0.06371617	-0.06514807	0	0
26.16257	-0.05609897	0.3983336	0.001550959	0.001057172	-0.1271955	0.1505512	0	0
26.17879	-0.05609897	0.3983336	0	0	-0.04681074	-0.03190735	0	0
26.19535	-0.05609897	0.3983336	0	0	0	0	0	0
26.21192	-0.05609897	0.3983336	0	0	0	0	0	0
26.22849	-0.05612521	0.3983515	-0.001583457	0.001079323	-0.04778882	0.03257403	0	0
26.24505	-0.05623014	0.3984231	-0.006333603	0.004319091	-0.1433597	0.09777639	0	0
26.26162	-0.0562826	0.3984588	-0.003166914	0.002158646	0.09557086	-0.06520236	0	0
26.27819	-0.0562826	0.3984588	0	0	0.09557765	-0.06514806	0	0
26.29476	-0.05633507	0.3985304	-0.003166689	0.004319091	-0.09557086	0.1303504	0	0
26.31167	-0.05638753	0.3985662	-0.003100999	0.002115628	0.001961754	-0.06580365	0	0
26.32789	-0.05683346	0.3993354	-0.02750251	0.04744111	-0.7364814	1.368004	0	0
26.34446	-0.05942993	0.4014644	-0.1567231	0.128506	-3.941863	2.472878	0	0
26.36121	-0.06729298	0.4071909	-0.4693194	0.3417951	-9.381253	6.400968	0	0
26.37759	-0.07362981	0.4129196	-0.3869016	0.3497747	2.487518	0.2408396	0	0
26.39423	-0.07535703	0.4240981	-0.1037775	0.6716422	8.573822	9.747085	0	0
26.41075	-0.07436263	0.4318076	0.06021662	0.4668497	4.945936	-6.176386	0	0
26.42729	-0.07407475	0.4362386	0.01740069	0.2678281	-1.295169	-6.020345	0	0
26.44386	-0.07423177	0.4451427	-0.009479347	0.5375144	-0.8118486	8.145245	0	0
26.52533	-0.07747619	0.473606	-0.03982133	0.3493524	-0.3094869	-1.919244	0	0
26.54189	-0.07726692	0.4734618	0.01264041	-0.008708958	0.5351595	-3.652566	0	0
26.55845	-0.07718844	0.4734077	0.004736334	-0.003264576	-0.2386141	0.1643591	0	0
26.57502	-0.0772146	0.4734257	-0.00157896	0.001088317	-0.190585	0.131363	0	0
26.59159	-0.0772146	0.4734257	0	0	0.04765859	-0.03284926	0	0
26.60815	-0.0772146	0.4734257	0	0	0	0	0	0
26.62472	-0.0772146	0.4734257	0	0	0	0	0	0
26.64129	-0.0772146	0.4733897	0	-0.002176635	0	-0.06569096	0	0
26.65792	-0.0772146	0.4733897	0	0	0	0.06555135	0	0
26.67442	-0.07718844	0.4733717	0.001585714	-0.001092973	0.04785696	-0.032986	0	0
26.69099	-0.07716228	0.4733176	0.00157896	-0.003263153	-0.0002042944	-0.06563596	0	0
26.70756	-0.07713612	0.4732635	0.00157896	-0.003264952	0	-5.428939E-05	0	0
26.72412	-0.0770838	0.4731914	0.003158283	-0.004351972	0.04766682	-0.0328082	0	0
26.74069	-0.0770838	0.4731193	0	-0.004351471	-0.09532265	1.512264E-05	0	0
26.75726	-0.07705764	0.4730292	0.00157896	-0.005439788	0.0476531	-0.03284549	0	0
26.77382	-0.07697916	0.472903	0.004737329	-0.007616423	0.09531977	-0.06569097	0	0
26.79039	-0.07692684	0.4728309	0.003157919	-0.004351471	-0.04766667	0.09853646	0	0
26.80703	-0.07690068	0.4728129	0.001572082	-0.001083577	-0.0477562	0.09840996	0	0
26.82352	-0.07687452	0.4727949	0.001586081	-0.001093226	0.0004225168	-0.0002912267	0	0
26.84009	-0.0768222	0.4727228	0.003158369	-0.004351471	0.04755851	-0.09855527	0	0
26.85707	-0.07674371	0.4726687	0.00462342	-0.003184691	0.04367728	0.03478497	0	0
26.87322	-0.07671756	0.4726507	0.001618844	-0.001115808	-0.0906783	0.06243902	0	0
26.89009	-0.07656059	0.4725425	0.009307495	-0.00641293	0.2328213	-0.160403	0	0
26.90636	-0.07653443	0.4725245	0.001607836	-0.001106389	-0.2323762	0.1601517	0	0
26.92311	-0.07656059	0.4725065	-0.001561344	-0.001076175	-0.09596645	0.0009149069	0	0
26.93962	-0.07656059	0.4724704	0	-0.002183926	0.04693503	-0.03329972	0	0
26.95606	-0.07656059	0.4724344	0	-0.002192505	0	-0.000260395	0	0
26.97265	-0.07656059	0.4723983	0	-0.002173132	0	0.0005865663	0	0
26.98919	-0.07658675	0.4723803	-0.001581509	-0.001088273	-0.04773003	0.03274113	0	0
27.02233	-0.07658675	0.4722722	0	-0.003264241	0.03183835	-0.04380578	0	0
27.0392	-0.07656059	0.472146	0.001550576	-0.007477742	0.03100962	-0.08426487	0	0
27.05571	-0.07653443	0.4719838	0.001584249	-0.009824059	0.001008709	-0.07028602	0	0
27.07203	-0.07624664	0.4716054	0.01763474	-0.02318914	0.4888793	-0.4070848	0	0
27.08859	-0.07614198	0.4714612	0.006317188	-0.008702941	-0.3441396	0.4404906	0	0
27.10516	-0.07496452	0.4701819	0.07107981	-0.07723086	1.954652	-2.068296	0	0
27.12175	-0.07378685	0.4688307	0.07097027	-0.081426	-0.00330318	-0.1265151	0	0
27.13829	-0.0740224	0.4676599	-0.01424079	-0.07078457	-2.571675	0.3211591	0	0
27.15486	-0.07090724	0.4628165	0.1880311	-0.2923473	6.109502	-6.692168	0	0
27.17143	-0.06336243	0.4564833	0.4554055	-0.3822711	8.069375	-2.713906	0	0
27.188	-0.05754167	0.4524917	0.3513419	-0.2409337	-3.140647	4.26557	0	0
27.20456	-0.05281925	0.4491848	0.2850461	-0.1996046	-2.000812	1.247314	0	0
27.22133	-0.04846203	0.4460229	0.2598907	-0.1885968	-0.7546716	0.33024	0	0
27.23784	-0.04302606	0.4421618	0.3292527	-0.2338624	2.084471	-1.360323	0	0
27.25435	-0.03963712	0.4397382	0.2052419	-0.1467761	-3.755409	2.637225	0	0
27.27087	-0.03732476	0.4381588	0.1400094	-0.09563388	-1.975087	1.548467	0	0
27.30396	-0.03882259	0.4314668	-0.04525651	-0.2021957	-3.734294	-2.147902	0	0
27.33741	-0.04410296	0.4079427	-0.1578627	-0.7032818	-1.692168	-7.529979	0	0
27.35366	-0.04504845	0.3889447	-0.05818158	-1.169058	2.005664	-9.371797	0	0
27.37043	-0.04575751	0.3818837	-0.0422832	-0.4210664	0.4814769	22.65267	0	0
27.38694	-0.04691292	0.367732	-0.06997431	-0.8570629	-0.8320315	-13.10034	0	0
27.40336	-0.04780566	0.3577293	-0.0543737	-0.6092334	0.4737452	7.525863	0	0
27.41997	-0.05048339	0.3475141	-0.1612569	-0.615172	-3.236547	-0.1798274	0	0
27.43649	-0.05489217	0.3418355	-0.2667595	-0.3435949	-3.184257	8.196686	0	0
27.45306	-0.05966594	0.3349069	-0.2881121	-0.4181626	-0.6451679	-2.25305	0	0
27.46963	-0.06074098	0.3296389	-0.06489705	-0.3180142	6.736645	3.022484	0	0
27.4862	-0.06273337	0.3256028	-0.1202609	-0.2436158	-1.67098	2.245476	0	0
27.50303	-0.06401767	0.3209058	-0.07630822	-0.2790808	1.316039	-1.061901	0	0
27.51933	-0.06299549	0.3176729	0.06270246	-0.1983079	4.195592	2.437873	0	0
27.53605	-0.0630217	0.3176908	-0.00156749	0.001069351	-1.946169	6.037374	0	0
27.55256	-0.0630217	0.3176551	0	-0.002164072	0.04716577	-0.09729368	0	0
27.56907	-0.0630217	0.3176551	0	0	0	0.06553062	0	0
27.5856	-0.06299549	0.3176372	0.001586125	-0.00108026	0.0480103	-0.03269831	0	0
27.60217	-0.06299549	0.3176372	0	0	-0.04793281	0.03264554	0	0
27.61873	-0.06299549	0.3176372	0	0	0	0	0	0
27.6353	-0.06299549	0.3176372	0	0	0	0	0	0
27.65214	-0.06296927	0.3176194	0.001556659	-0.001061962	0.04659916	-0.03179022	0	0
27.66865	-0.06296927	0.3176194	0	0	-0.04667645	0.03184295	0	0
27.685	-0.06294306	0.3176015	0.001602961	-0.001091727	0.04877617	-0.03321993	0	0
27.70167	-0.06294306	0.3176015	0	0	-0.04853953	0.03305876	0	0
27.71819	-0.06294306	0.3176015	0	0	0	0	0	0
27.7347	-0.06289063	0.3175658	0.003174166	-0.002163323	0.09610079	-0.06549657	0	0
27.75127	-0.06283821	0.3174943	0.00316458	-0.004312392	-0.0002897806	-0.06496	0	0
27.76784	-0.06278579	0.3174586	0.003164215	-0.002156847	-1.099062E-05	0.06505822	0	0
27.80097	-0.05796132	0.3131359	0.1455943	-0.1304521	2.86559	-2.581206	0	0
27.85128	-0.05365897	0.2846829	0.08551993	-0.5655733	-0.7199315	-5.214493	0	0
27.86724	-0.05397384	0.2769554	-0.01973532	-0.4843302	-1.588442	1.226068	0	0
27.8838	-0.05405256	0.2699224	-0.004751495	-0.4245139	0.460726	1.839243	0	0
27.90037	-0.05402632	0.2624562	0.001583907	-0.4506587	0.1912028	-0.7890517	0	0
27.91694	-0.05339656	0.2543945	0.03801218	-0.4866056	1.099408	-1.084879	0	0
27.9335	-0.05274052	0.2440139	0.03960357	-0.6266471	0.04803095	-4.226702	0	0
27.95007	-0.05113958	0.2421304	0.09663269	-0.1136896	1.721241	15.48198	0	0
27.96663	-0.05040464	0.2416998	0.04436641	-0.02599219	-1.57749	2.646865	0	0
27.9832	-0.05040464	0.2416998	0	0	-1.339135	0.7845362	0	0
27.99977	-0.05040464	0.2416998	0	0	0	0	0	0
28.01633	-0.05040464	0.2416998	0	0	0	0	0	0
28.03291	-0.05037839	0.2416819	0.001583627	-0.001082422	0.04778295	-0.03266005	0	0
28.04947	-0.05037839	0.2416819	0	0	-0.04779671	0.03266945	0	0
28.06603	-0.05037839	0.2416819	0	0	0	0	0	0
28.0826	-0.05037839	0.2416819	0	0	0	0	0	0
28.09917	-0.05037839	0.2416819	0	0	0	0	0	0
28.11574	-0.05037839	0.2416819	0	0	0	0	0	0
28.1323	-0.05037839	0.2416819	0	0	0	0	0	0
28.14899	-0.05037839	0.2416819	0	0	0	0	0	0
28.16544	-0.05040464	0.2416998	-0.001595932	0.001090833	-0.04816531	0.03292139	0	0
28.20103	-0.05040464	0.2416998	0	0	0.03066735	-0.02096139	0	0
28.21739	-0.05040464	0.2416998	0	0	0	0	0	0
28.23405	-0.05040464	0.2416998	0	0	0	0	0	0
28.25057	-0.05040464	0.2416998	0	0	0	0	0	0
28.26709	-0.05037839	0.2417178	0.001588196	0.001085545	0.04807021	0.03285639	0	0
28.28366	-0.05037839	0.2417178	0	0	-0.0479871	-0.03279958	0	0
28.30023	-0.05037839	0.2417178	0	0	0	0	0	0
28.31679	-0.05035214	0.2417357	0.001584356	0.001082921	0.04782147	0.03268638	0	0
28.33363	-0.05032589	0.2417537	0.001559402	0.001065864	-0.0007471587	-0.0005106897	0	0
28.34993	-0.05027339	0.2417537	0.003220474	0	0.05013127	-0.03216784	0	0
28.36665	-0.05011589	0.2417895	0.009419829	0.002146076	0.1877345	0.06498942	0	0
28.38306	-0.04972214	0.2415922	0.02399064	-0.01202426	0.4397733	-0.4276862	0	0
28.39967	-0.04746433	0.2401209	0.1359222	-0.08857037	3.389416	-2.317905	0	0
28.41619	-0.04541612	0.2387213	0.1239584	-0.08470831	-0.3610673	0.1165572	0	0
28.43276	-0.04278966	0.2369983	0.1585334	-0.1039964	1.04486	-0.5828866	0	0
28.44933	-0.03601074	0.2324383	0.409129	-0.2752101	7.562554	-5.166943	0	0
28.4659	-0.03083233	0.229008	0.3126055	-0.2070812	-2.913086	2.056135	0	0
28.48246	-0.02528408	0.2252889	0.3348929	-0.2244866	0.6726755	-0.5253273	0	0
28.49924	-0.024574	0.2248396	0.04231508	-0.02677277	-8.773454	5.928791	0	0
28.5156	-0.0245214	0.2248396	0.003216483	0	-1.179998	0.808004	0	0
28.53217	-0.0244951	0.2248216	0.001587392	-0.00108472	-0.04948511	-0.03294934	0	0
28.54873	-0.0244162	0.2248036	0.004762513	-0.00108472	0.09582535	0	0	0
28.58187	-0.0243636	0.2247677	0.001587448	-0.00108472	-0.06388243	0	0	0
28.68138	-0.0243373	0.2247497	0.0002643001	-0.0001805926	-0.009975133	0.00681616	0	0
28.69784	-0.0243373	0.2247497	0	0	-0.002279064	0.001557252	0	0
28.7144	-0.0243373	0.2247497	0	0	0	0	0	0
28.73097	-0.0243373	0.2247497	0	0	0	0	0	0
28.74754	-0.0243373	0.2247497	0	0	0	0	0	0
28.7641	-0.0243373	0.2247497	0	0	0	0	0	0
28.78067	-0.0243373	0.2247497	0	0	0	0	0	0
28.79724	-0.0243373	0.2247497	0	0	0	0	0	0
28.81381	-0.0243373	0.2247497	0	0	0	0	0	0
28.83037	-0.0243373	0.2247497	0	0	0	0	0	0
28.847	-0.0243373	0.2247497	0	0	0	0	0	0
28.86351	-0.0243373	0.2247497	0	0	0	0	0	0
28.88008	-0.0243373	0.2247497	0	0	0	0	0	0
28.89664	-0.0243373	0.2247497	0	0	0	0	0	0
28.91321	-0.0243636	0.2247677	-0.001587504	0.00108472	-0.04791097	0.0327369	0	0
28.92978	-0.0243636	0.2247677	0	0	0.04791097	-0.0327369	0	0
28.96291	-0.0243636	0.2247677	0	0	0	0	0	0
28.97948	-0.0243899	0.2247857	-0.001587504	0.00108472	-0.03194065	0.0218246	0	0
28.99611	-0.0243899	0.2247857	0	0	0.04781739	-0.03267296	0	0
29.01261	-0.0244162	0.2248036	-0.001593814	0.001089108	-0.04810417	0.03287124	0	0
29.02963	-0.0244162	0.2248036	0	0	0.04754581	-0.03248969	0	0
29.04575	-0.0244162	0.2248036	0	0	0	0	0	0
29.06231	-0.0243899	0.2247857	0.001587392	-0.00108472	0.04857304	-0.03319164	0	0
29.07917	-0.0243899	0.2247857	0	0	-0.04748933	0.0324511	0	0
29.09545	-0.0243899	0.2247857	0	0	0	0	0	0
29.1291	-0.0243899	0.2247857	0	0	0	0	0	0
29.14567	-0.0243899	0.2247857	0	0	0	0	0	0
29.16224	-0.0243899	0.2247857	0	0	0	0	0	0
29.1788	-0.0243636	0.2247677	0.001587504	-0.00108472	0.04791097	-0.0327369	0	0
29.19537	-0.0243636	0.2247677	0	0	-0.04791097	0.0327369	0	0
29.21194	-0.0243636	0.2247677	0	0	0	0	0	0
29.2285	-0.0243636	0.2247677	0	0	0	0	0	0
29.24847	-0.0243636	0.2247677	0	0	0	0	0	0
29.26503	-0.0243636	0.2247677	0	0	0	0	0	0
29.2816	-0.0243636	0.2247677	0	0	0	0	0	0
29.29833	-0.0243636	0.2247677	0	0	0	0	0	0
29.31474	-0.0243636	0.2247677	0	0	0	0	0	0
29.3313	-0.0243636	0.2247677	0	0	0	0	0	0
29.34787	-0.0243636	0.2247677	0	0	0	0	0	0
29.36444	-0.0243636	0.2247677	0	0	0	0	0	0
29.381	-0.0243636	0.2247677	0	0	0	0	0	0
29.44743	-0.0243636	0.2247677	0	0	0	0	0	0
29.46384	-0.0243636	0.2247677	0	0	0	0	0	0
29.4804	-0.0243636	0.2247677	0	0	0	0	0	0
29.51354	-0.0243636	0.2247677	0	0	0	0	0	0
29.5301	-0.0243636	0.2247677	0	0	0	0	0	0
29.54667	-0.0243636	0.2247677	0	0	0	0	0	0
29.56324	-0.0243373	0.2247857	0.001587504	0.00108472	0.04791097	0.0327369	0	0
29.57981	-0.024311	0.2248036	0.001587504	0.00108472	0	0	0	0
29.59637	-0.0242847	0.2248216	0.001587504	0.00108472	0	0	0	0
29.61294	-0.0242584	0.2248396	0.001587504	0.00108472	0	0	0	0
29.62957	-0.0242584	0.2248396	0	0	-0.04782563	-0.03267859	0	0
29.64607	-0.0242584	0.2248396	0	0	0	0	0	0
29.66264	-0.0242321	0.2248576	0.001587575	0.001084845	0.04800152	0.0328011	0	0
29.67921	-0.0241795	0.2248935	0.003175009	0.002169439	0.04791161	0.03273502	0	0
29.69577	-0.0241006	0.2249474	0.004762513	0.003254159	0.04791098	0.0327369	0	0
29.71234	-0.02394279	0.2250193	0.009525026	0.004338879	0.1437329	0.03273691	0	0
29.72891	-0.02389019	0.2250552	0.003175009	0.002169439	-0.1916439	-0.06547381	0	0
29.74548	-0.02378499	0.2250912	0.00635013	0.002169439	0.09582535	0	0	0
29.76204	-0.02373238	0.2250912	0.003175121	0	-0.09582195	-0.06547381	0	0
29.77867	-0.02367978	0.2250552	0.003162992	-0.002161228	-0.0003653693	-0.06510233	0	0
29.79519	-0.02357458	0.2249833	0.006371402	-0.004353413	0.09680772	-0.06614505	0	0
29.81174	-0.0224173	0.2242285	0.06989391	-0.04558717	1.920873	-1.246878	0	0
29.82831	-0.01947122	0.2223233	0.1778254	-0.1150028	3.258318	-2.09557	0	0
29.84488	-0.009552341	0.2159394	0.5987049	-0.3853309	12.70217	-8.15852	0	0
29.86144	-0.005789409	0.2135825	0.227131	-0.1422647	-11.21412	7.335754	0	0
29.87801	0.0001578947	0.2103789	0.3590213	-0.193392	3.980685	-1.543114	0	0
29.89476	0.002157891	0.2096588	0.1194276	-0.042999	-7.192447	4.5147	0	0
29.91114	0.005105219	0.2095148	0.1798473	-0.008788154	1.823472	1.032485	0	0
29.92771	0.005263109	0.2096588	0.009530282	0.008693048	-5.168144	0.530454	0	0
29.94428	0.005263109	0.2096588	0	0	-0.2876245	-0.2623567	0	0
29.96085	0.005263109	0.2096588	0	0	0	0	0	0
29.97741	0.005263109	0.2096588	0	0	0	0	0	0
29.99433	0.005210479	0.2096588	-0.003111203	0	-0.09291749	0	0	0
30.01055	0.005210479	0.2096588	0	0	0.0938963	0	0	0
30.02735	0.005210479	0.2096588	0	0	0	0	0	0
30.061	0.005184164	0.2096768	-0.0007820333	0.000534945	-0.01549959	0.0106024	0	0
30.1604	0.005131534	0.2097128	-0.0005294734	0.0003621798	0.001898219	-0.001298489	0	0
30.17697	0.005105219	0.2097308	-0.001588376	0.001087418	-0.009130931	0.00625374	0	0
30.19354	0.005105219	0.2097308	0	0	0.04793727	-0.03281834	0	0
30.21011	0.005105219	0.2097308	0	0	0	0	0	0
30.22667	0.005105219	0.2097308	0	0	0	0	0	0
30.24351	0.005105219	0.2097308	0	0	0	0	0	0
30.26002	0.005078904	0.2097488	-0.001593697	0.001090158	-0.04778975	0.03269028	0	0
30.27653	0.005078904	0.2097488	0	0	0.04825898	-0.03301126	0	0
30.29305	0.005078904	0.2097488	0	0	0	0	0	0
30.32607	0.005105219	0.2097308	0.0007968022	-0.0005450476	0.01608478	-0.01100269	0	0
30.34264	0.005105219	0.2097308	0	0	-0.01606684	0.01099042	0	0
30.35921	0.005078904	0.2097128	-0.001588376	-0.001087418	-0.04793727	-0.03281834	0	0
30.3761	0.005078904	0.2097128	0	0	0.04746459	0.03249474	0	0
30.39261	0.005078904	0.2097128	0	0	0	0	0	0
30.40912	0.005078904	0.2097128	0	0	0	0	0	0
30.42547	0.005078904	0.2097128	0	0	0	0	0	0
30.45866	0.005078904	0.2097128	0	0	0	0	0	0
30.47517	0.005078904	0.2097128	0	0	0	0	0	0
30.49174	0.005052588	0.2097308	-0.001588587	0.001087543	-0.04802658	0.0328789	0	0
30.50831	0.005052588	0.2097308	0	0	0.0479464	-0.03282401	0	0
30.52487	0.005052588	0.2097308	0	0	0	0	0	0
30.54144	0.005052588	0.2097308	0	0	0	0	0	0
30.55801	0.005052588	0.2097308	0	0	0	0	0	0
30.59114	0.005052588	0.2096948	0	-0.001087031	0	-0.02187194	0	0
30.60771	0.005026273	0.2096768	-0.001588376	-0.001086519	-0.03195941	1.030877E-05	0	0
30.62428	0.005026273	0.2096408	0	-0.002172537	0.04793175	-0.03277233	0	0
30.64084	0.004999958	0.2096228	-0.001588924	-0.001086894	-0.0479566	0.03276666	0	0
30.65741	0.005026273	0.2096048	0.001588376	-0.001086519	0.09590767	1.133274E-05	0	0
30.67397	0.004973643	0.2095688	-0.003176779	-0.002173936	-0.1438127	-0.03281834	0	0
30.69054	0.004973643	0.2095688	0	0	0.0958754	0.06560953	0	0
30.70734	0.004947328	0.2095508	-0.001566553	-0.001071591	-0.04695163	-0.03211697	0	0
30.72385	0.004947328	0.2095508	0	0	0.0470296	0.0321703	0	0
30.74036	0.004947328	0.2095508	0	0	0	0	0	0
30.75688	0.004947328	0.2095508	0	0	0	0	0	0
30.77339	0.004921013	0.2095688	-0.001593697	0.001090158	-0.04825898	0.03301126	0	0
30.78994	0.004921013	0.2095688	0	0	0.04819496	-0.03296746	0	0
30.80651	0.004921013	0.2095688	0	0	0	0	0	0
30.82308	0.004921013	0.2095688	0	0	0	0	0	0
30.83965	0.004921013	0.2095688	0	0	0	0	0	0
30.85621	0.004921013	0.2095688	0	0	0	0	0	0
30.87296	0.004921013	0.2095688	0	0	0	0	0	0
30.88947	0.004921013	0.2095688	0	0	0	0	0	0
30.90591	0.004947328	0.2095508	0.001600723	-0.001094965	0.04857836	-0.03322973	0	0
30.92249	0.004921013	0.2095328	-0.001586914	-0.001085519	-0.09653091	0.000286047	0	0
30.93904	0.004921013	0.2095328	0	0	0.04789592	0.03276291	0	0
30.97303	0.004815752	0.2093887	-0.003097088	-0.004237927	-0.06128344	-0.08385772	0	0
30.98922	0.004736807	0.2092987	-0.004878036	-0.005562205	-0.03549763	-0.02639535	0	0
31.00606	0.004394709	0.2090286	-0.02031463	-0.01603646	-0.4674381	-0.3171727	0	0
31.02235	0.003499986	0.2079843	-0.05490958	-0.0640903	-1.044078	-1.450268	0	0
31.03892	0.002973675	0.2057512	-0.03176815	-0.1347913	0.7042066	-2.151469	0	0
31.05548	0.006473594	0.2027787	0.2112555	-0.1794195	7.334468	-1.346882	0	0
31.07211	0.01231517	0.1987776	0.3514651	-0.2407324	4.224724	-1.84745	0	0
31.08862	0.02252251	0.1917795	0.6181088	-0.4237708	8.047324	-5.52411	0	0
31.10518	0.02799269	0.1880252	0.3302187	-0.2266372	-8.70307	5.959454	0	0
31.12175	0.03629984	0.1822454	0.5014206	-0.3488696	5.167181	-3.689195	0	0
31.13832	0.0502209	0.1725894	0.8402768	-0.5828398	10.2267	-7.061236	0	0
31.15489	0.05557429	0.1688243	0.3230946	-0.2272325	-15.60769	10.73163	0	0
31.17145	0.06328381	0.1634263	0.4654008	-0.3258645	4.29481	-2.976719	0	0
31.18802	0.07614198	0.1543765	0.776121	-0.5462454	9.378094	-6.651493	0	0
31.20459	0.08281019	0.1495285	0.4024935	-0.2926243	-11.2761	7.654301	0	0
31.22121	0.0887139	0.1448764	0.3551223	-0.2798356	-1.4272	0.3852978	0	0
31.23772	0.09171566	0.1415121	0.1817934	-0.2037486	-5.230777	2.296178	0	0
31.25429	0.0881917	0.1270674	-0.2127557	-0.8720887	-11.9288	-20.2066	0	0
31.27085	0.08275792	0.1180121	-0.3279833	-0.5465786	-3.477978	9.825045	0	0
31.28742	0.07501686	0.1104411	-0.4672515	-0.4569822	-4.203122	2.704025	0	0
31.30427	0.06611403	0.09963088	-0.5283129	-0.641504	-1.827165	-5.52152	0	0
31.32056	0.05958727	0.0916811	-0.4008319	-0.4882245	3.847384	4.625984	0	0
31.33712	0.0540788	0.0871951	-0.332492	-0.2707756	2.080347	6.619395	0	0
31.35381	0.04286846	0.07925978	-0.6719387	-0.4756363	-10.20867	-6.161074	0	0
31.37032	0.03493315	0.07354312	-0.4805807	-0.3462141	5.764577	3.898787	0	0
31.38683	0.02817675	0.06539718	-0.4091359	-0.4932802	2.163304	-4.453074	0	0
31.40339	0.02665158	0.06040183	-0.09211242	-0.3016938	9.585999	5.793095	0	0
31.41996	0.02362718	0.0500767	-0.1825532	-0.6232256	-2.730294	-9.706644	0	0
31.43653	0.02125995	0.04082188	-0.1428861	-0.5586223	1.197157	1.949732	0	0
31.45309	0.02039191	0.03447159	-0.05238926	-0.3832601	2.731042	5.292136	0	0
31.46966	0.01594602	0.02743811	-0.2683855	-0.4245908	-6.518778	-1.247363	0	0
31.4864	0.01418326	0.02229892	-0.1052731	-0.3069155	4.896807	3.53274	0	0
31.50279	0.0128414	0.01865027	-0.08188093	-0.2226426	0.7060186	2.543507	0	0
31.51943	0.009526027	0.01557873	-0.1993131	-0.1846548	-3.556189	1.150381	0	0
31.53592	0.007552488	0.01417315	-0.1196189	-0.08519362	2.405317	3.001917	0	0
31.56906	0.00449997	0.01199808	-0.09213049	-0.0656477	0.5538535	0.3938239	0	0
31.58562	0.00449997	0.01199808	0	0	1.85374	1.320885	0	0
31.60219	0.00449997	0.01199808	0	0	0	0	0	0
31.619	0.00449997	0.01199808	0	0	0	0	0	0
31.63533	0.00449997	0.01199808	0	0	0	0	0	0
31.65202	0.00449997	0.01199808	0	0	0	0	0	0
31.66853	0.00449997	0.01199808	0	0	0	0	0	0
31.68503	0.00449997	0.01199808	0	0	0	0	0	0
31.70159	0.00449997	0.01199808	0	0	0	0	0	0
31.71816	0.00449997	0.01199808	0	0	0	0	0	0
31.73473	0.00449997	0.01199808	0	0	0	0	0	0
31.75131	0.00449997	0.01199808	0	0	0	0	0	0
31.76811	0.00449997	0.01199808	0	0	0	0	0	0
31.78443	0.00449997	0.01199808	0	0	0	0	0	0
31.80099	0.00449997	0.01199808	0	0	0	0	0	0
31.83546	0.00449997	0.01199808	0	0	0	0	0	0
31.85203	0.00449997	0.01199808	0	0	0	0	0	0
31.8686	0.00449997	0.01199808	0	0	0	0	0	0
31.88517	0.00449997	0.01199808	0	0	0	0	0	0
31.90173	0.00449997	0.01199808	0	0	0	0	0	0
31.96786	0.00449997	0.01199808	0	0	0	0	0	0
31.98476	0.00449997	0.01199808	0	0	0	0	0	0
32.00099	0.00449997	0.01199808	0	0	0	0	0	0
32.01756	0.00449997	0.01199808	0	0	0	0	0	0
32.03429	0.00449997	0.01199808	0	0	0	0	0	0
32.05069	0.00449997	0.01199808	0	0	0	0	0	0
32.06732	0.00449997	0.01199808	0	0	0	0	0	0
32.08383	0.00449997	0.01199808	0	0	0	0	0	0
32.1004	0.00449997	0.01199808	0	0	0	0	0	0
32.11696	0.00449997	0.01199808	0	0	0	0	0	0
32.13387	0.00449997	0.01199808	0	0	0	0	0	0
32.15009	0.00449997	0.01199808	0	0	0	0	0	0
32.16689	0.00449997	0.01199808	0	0	0	0	0	0
32.1834	0.00449997	0.01199808	0	0	0	0	0	0
32.19979	0.00449997	0.01199808	0	0	0	0	0	0
32.21642	0.00449997	0.01199808	0	0	0	0	0	0
32.23293	0.00449997	0.01199808	0	0	0	0	0	0
32.24949	0.00449997	0.01199808	0	0	0	0	0	0
32.26606	0.00449997	0.01199808	0	0	0	0	0	0
32.28262	0.00449997	0.01199808	0	0	0	0	0	0
32.29919	0.00449997	0.01199808	0	0	0	0	0	0
32.31575	0.00449997	0.01199808	0	0	0	0	0	0
32.33232	0.00449997	0.01199808	0	0	0	0	0	0
32.34889	0.00449997	0.01199808	0	0	0	0	0	0
32.36552	0.00449997	0.01199808	0	0	0	0	0	0
32.38202	0.00449997	0.01199808	0	0	0	0	0	0
32.39859	0.00449997	0.01199808	0	0	0	0	0	0
32.41515	0.00449997	0.01199808	0	0	0	0	0	0
32.43207	0.00449997	0.01199808	0	0	0	0	0	0
32.44829	0.00449997	0.01199808	0	0	0	0	0	0
32.46486	0.00449997	0.01199808	0	0	0	0	0	0
32.48142	0.00449997	0.01199808	0	0	0	0	0	0
32.49799	0.00449997	0.01199808	0	0	0	0	0	0
32.51463	0.00449997	0.01199808	0	0	0	0	0	0
32.53112	0.004421024	0.01205435	-0.004786122	0.003411363	-0.1444454	0.1029551	0	0
32.54769	0.004184186	0.01237319	-0.01429555	0.01924529	-0.2876242	0.4789163	0	0
32.56426	0.003999979	0.01321704	-0.01111877	0.05093488	0.0958754	0.956394	0	0
32.58083	0.003342093	0.01526018	-0.03971008	0.1233242	-0.8628874	2.184715	0	0
32.61396	-0.01071012	0.02614933	-0.4240965	0.3286353	-7.733871	4.130866	0	0
32.63053	-0.01610387	0.03072333	-0.3255677	0.2760873	1.982404	-1.057266	0	0
32.64709	-0.02307485	0.03905382	-0.4207692	0.5028294	-2.873186	6.843088	0	0
32.66375	-0.02891299	0.05866124	-0.3506149	1.177541	2.11191	20.31139	0	0
32.68026	-0.02938627	0.06750448	-0.02866633	0.535629	9.708604	-19.35734	0	0
32.6968	-0.0296492	0.08509761	-0.01589605	1.063638	0.3863863	15.9758	0	0
32.71336	-0.02975437	0.09777778	-0.006348106	0.7653767	0.28839	-9.008799	0	0
32.76331	-0.02878152	0.1338119	0.01947662	0.7214093	0.3882432	-0.6609975	0	0
32.77963	-0.02862376	0.1424762	0.009669613	0.5310445	-0.1479965	-2.872776	0	0
32.7962	-0.02886041	0.1503822	-0.01428394	0.4772101	-0.7284548	-1.637165	0	0
32.82991	-0.03075346	0.1698925	-0.05614356	0.5786301	-0.8324418	2.016891	0	0
32.84648	-0.03072717	0.1750499	0.001586942	0.3113011	1.148058	-5.316243	0	0
32.86305	-0.03083233	0.1860028	-0.006347656	0.6611186	-0.2394667	10.55752	0	0
32.87962	-0.03096378	0.1921946	-0.007934486	0.3737336	-0.0478906	-8.673298	0	0
32.89641	-0.03130556	0.2070299	-0.02035308	0.883463	-0.3722652	15.27987	0	0
32.91275	-0.03049055	0.2138164	0.04988335	0.4153703	2.119984	-14.12869	0	0
32.92931	-0.0312004	0.2167129	-0.04284665	0.1748332	-2.818063	-7.309919	0	0
32.94594	-0.02959662	0.2204356	0.09644905	0.2238759	4.196223	1.477389	0	0
32.96246	-0.03106895	0.2223772	-0.0891574	0.1175755	-5.600324	-3.207413	0	0
33.01215	-0.03482801	0.225199	-0.0756442	0.05678381	0.2041026	-0.9181943	0	0
33.02872	-0.03477545	0.2251631	0.003172985	-0.002169439	1.189491	-0.8897086	0	0
33.04528	-0.0346966	0.2251091	0.004759365	-0.003254159	0.04787704	-0.0327369	0	0
33.06203	-0.03461774	0.2250552	0.004709706	-0.003220053	-0.001490818	0.001023898	0	0
33.07854	-0.03459146	0.2250373	0.001591736	-0.001088228	-0.09375511	0.06410246	0	0
33.09499	-0.03459146	0.2250373	0	0	-0.04829445	0.03301763	0	0
