Time	Pos X	Pos Y	Vel X	Vel Y	Acc X	Acc YForce X	Force Y
0.0165016	0.01518304	0.1822996	-0.0002431263	-0.002919166	3.894215E-06	4.675702E-05	0	0
0.0479992	0.01518304	0.1822996	0	0	-3.895149E-06	-4.676824E-05	0	0
0.0645679	0.01518304	0.1822996	0	0	0	0	0	0
0.08113346	0.01518304	0.1822996	0	0	0	0	0	0
0.09770019	0.01518304	0.1822996	0	0	0	0	0	0
0.1142697	0.01518304	0.1822996	0	0	0	0	0	0
0.1308348	0.01518304	0.1822996	0	0	0	0	0	0
0.1475934	0.01515673	0.1822815	-0.001569933	-0.001078558	-0.04711153	-0.03236604	0	0
0.1639675	0.01515673	0.1822815	0	0	0.0473832	0.03255268	0	0
0.1806176	0.01515673	0.1822815	0	0	0	0	0	0
0.1971002	0.01515673	0.1822815	0	0	0	0	0	0
0.2136673	0.01515673	0.1822815	0	0	0	0	0	0
0.2302341	0.01518304	0.1822635	0.001588114	-0.001090149	0.04793023	-0.03290134	0	0
0.2468004	0.01515673	0.1822454	-0.001588152	-0.001091075	-0.0958639	-2.794692E-05	0	0
0.2633668	0.01515673	0.1822454	0	0	0.04793311	0.03293047	0	0
0.2799335	0.01515673	0.1822454	0	0	0	0	0	0
0.2967011	0.01515673	0.1822093	0	-0.002155061	0	-0.06464982	0	0
0.3333625	0.01513042	0.1821912	-0.0007176445	-0.0004930281	-0.01343172	0.03110729	0	0
0.3499297	0.01513042	0.1821912	0	0	0.01348232	0.009262473	0	0
0.3664964	0.01513042	0.1821912	0	0	0	0	0	0
0.3832613	0.01513042	0.1821912	0	0	0	0	0	0
0.3996295	0.01510411	0.1821731	-0.001607379	-0.001103373	-0.04851279	-0.03330124	0	0
0.4161958	0.0150778	0.1821551	-0.001588152	-0.001091075	0.0005837783	0.0003734182	0	0
0.432763	0.0150778	0.1821189	0	-0.002181144	0.04793195	-0.03289933	0	0
0.4493293	0.0150515	0.1821008	-0.001588096	-0.001091075	-0.04793025	0.03289933	0	0
0.4658968	0.01502519	0.1820828	-0.001588038	-0.001090996	1.749715E-06	2.368089E-06	0	0
0.4824628	0.01499888	0.1820286	-0.001588189	-0.003272401	-4.567583E-06	-0.06583688	0	0
0.4990295	0.01497257	0.1820105	-0.001588115	-0.00109015	2.241684E-06	0.06586403	0	0
0.5158536	0.01494626	0.1819563	-0.001563817	-0.003222184	0.0007276696	-0.06385084	0	0
0.5323651	0.01494626	0.1819563	0	0	0.04691138	0.09665903	0	0
0.5488789	0.01494626	0.1819201	0	-0.002189088	0	-0.06628526	0	0
0.5652961	0.01494626	0.181884	0	-0.002201072	0	-0.0003638994	0	0
0.5819015	0.01491995	0.1818659	-0.001584469	-0.001088505	-0.04798137	0.03369107	0	0
0.5984299	0.01494626	0.1818479	0.001591851	-0.001092675	0.09586324	-0.000125853	0	0
0.6149963	0.01494626	0.1818117	0	-0.002182149	-0.04809979	-0.03291982	0	0
0.6315626	0.01491995	0.1817937	-0.001588208	-0.001090175	-0.04793481	0.03295762	0	0
0.6481293	0.01491995	0.1817575	0	-0.002182094	0.04793421	-0.03295555	0	0
0.6646961	0.01491995	0.1817214	0	-0.002181195	0	2.714548E-05	0	0
0.6812632	0.01489364	0.1817033	-0.001588078	-0.001091024	-0.04792915	0.03290202	0	0
0.6978295	0.01486733	0.1816852	-0.001588152	-0.001091075	-2.241631E-06	-1.538926E-06	0	0
0.7144938	0.01484102	0.1816672	-0.001578819	-0.001083769	0.0002808561	0.0002198574	0	0
0.7309631	0.01484102	0.1816672	0	0	0.04765023	0.03270914	0	0
0.7480177	0.0147884	0.181631	-0.003085355	-0.002119666	-0.09203443	-0.06322847	0	0
0.7640961	0.0147884	0.181631	0	0	0.09312004	0.06397429	0	0
0.7806625	0.01473578	0.1815949	-0.003176361	-0.00218125	-0.09730081	-0.06681778	0	0
0.7975529	0.01468316	0.1815587	-0.003115362	-0.002140281	0.001823215	0.001224526	0	0
0.8140643	0.01463053	0.1814864	-0.003186921	-0.004377906	-0.002142376	-0.06699105	0	0
0.830363	0.0145516	0.1814322	-0.004842746	-0.003326056	-0.05046685	0.03205867	0	0
0.8469298	0.01444636	0.1813238	-0.006352505	-0.006545383	-0.04593754	-0.09795471	0	0
0.8636007	0.01439374	0.1812877	-0.00315643	-0.002167563	0.09615814	0.1317125	0	0
0.8800629	0.01436743	0.1812696	-0.00159826	-0.00109798	0.0470276	0.03228141	0	0
0.8966296	0.01434112	0.1812515	-0.001588112	-0.001091047	0.0003072438	0.0002099035	0	0
0.9131964	0.01431481	0.1812334	-0.001588168	-0.001091047	-1.697031E-06	0	0	0
0.9297631	0.01431481	0.1812334	0	0	0.0479324	0.03292881	0	0
0.9463295	0.01431481	0.1812334	0	0	0	0	0	0
0.9631698	0.01431481	0.1811973	0	-0.002145767	0	-0.0642318	0	0
0.9796816	0.01431481	0.1811973	0	0	0	0.06433672	0	0
0.9961931	0.01431481	0.1811612	0	-0.002189404	0	-0.06629878	0	0
1.012598	0.0142885	0.1811431	-0.001603876	-0.001101838	-0.0487264	0.03304071	0	0
1.029163	0.01431481	0.181125	0.001588283	-0.001090226	0.09681989	0.00035219	0	0
1.046228	0.0142885	0.1811069	-0.001541773	-0.001059174	-0.09307097	0.0009233202	0	0
1.062297	0.0142885	0.1811069	0	0	0.0465323	0.03196697	0	0
1.078863	0.01426219	0.1810889	-0.001588146	-0.001091071	-0.04866465	-0.03343305	0	0
1.09543	0.01426219	0.1810527	0	-0.002182094	0.04793225	-0.03292846	0	0
1.111998	0.01423588	0.1810346	-0.001587986	-0.001090921	-0.04792412	0.03293071	0	0
1.128564	0.01420957	0.1810166	-0.001588283	-0.001090226	-8.966316E-06	2.098582E-05	0	0
1.14513	0.01420957	0.1810166	0	0	0.04793878	0.03290605	0	0
1.167738	0.01418326	0.1809985	-0.001163715	-0.0007994822	-0.02970597	-0.02040826	0	0
1.184307	0.01418326	0.1809985	0	0	0.02970416	0.02040702	0	0
1.200873	0.01415695	0.1809804	-0.001588168	-0.001091047	-0.04793015	-0.03292727	0	0
1.21744	0.01415695	0.1809804	0	0	0.04793292	0.03292917	0	0
1.234007	0.01415695	0.1809804	0	0	0	0	0	0
1.250574	0.01415695	0.1809804	0	0	0	0	0	0
1.26714	0.01415695	0.1809804	0	0	0	0	0	0
1.283898	0.01415695	0.1809804	0	0	0	0	0	0
1.30041	0.01413064	0.1809624	-0.001593443	-0.001094671	-0.04789462	-0.03290286	0	0
1.316924	0.01413064	0.1809624	0	0	0.04824799	0.03314562	0	0
1.333408	0.01415695	0.1809443	0.001596162	-0.001096539	0.04837154	-0.0332305	0	0
1.349975	0.01413064	0.1809262	-0.001588134	-0.001091024	-0.09634524	0.0001668727	0	0
1.366541	0.01413064	0.1808901	0	-0.002181305	0.04793205	-0.03290617	0	0
1.418865	0.01407802	0.1807455	-0.001005659	-0.002763254	-0.01459795	-0.008447459	0	0
1.435433	0.01407802	0.1807093	0	-0.002182	0.01459762	0.008437173	0	0
1.452	0.0140254	0.1806732	-0.003176337	-0.002182094	-0.09586272	-2.838865E-06	0	0
1.468567	0.0140254	0.1806732	0	0	0.09586135	0.06585526	0	0
1.485133	0.01399909	0.180619	-0.001588226	-0.003273377	-0.04793415	-0.09879356	0	0
1.5017	0.01394646	0.1805828	-0.003176337	-0.002182094	-0.04793237	0.03293711	0	0
1.518563	0.01394646	0.1805467	0	-0.002142908	0.09501597	0.001172215	0	0
1.534833	0.01392015	0.1805286	-0.001617072	-0.001110904	-0.04880492	0.03114695	0	0
1.5514	0.01384122	0.1804382	-0.004764608	-0.005455353	-0.09585324	-0.1323034	0	0
1.568097	0.01376229	0.180384	-0.004727123	-0.00324746	0.001126897	0.06637453	0	0
1.584608	0.01326238	0.1800406	-0.03027717	-0.02079979	-0.7693746	-0.5285438	0	0
1.60112	0.01234148	0.1794079	-0.05577191	-0.03831527	-0.7720298	-0.5304025	0	0
1.618133	0.01192049	0.1791187	-0.02474621	-0.01700126	0.9254696	0.6357785	0	0
1.634233	0.01147318	0.1787752	-0.02778274	-0.02133528	-0.09170344	-0.1308875	0	0
1.650801	0.01147318	0.1787752	0	0	0.8504544	0.6530918	0	0
1.667367	0.01147318	0.1787752	0	0	0	0	0	0
1.683933	0.01147318	0.1787752	0	0	0	0	0	0
1.700692	0.01147318	0.1787752	0	0	0	0	0	0
1.717067	0.01147318	0.1787752	0	0	0	0	0	0
1.733633	0.01147318	0.1787752	0	0	0	0	0	0
1.7502	0.01147318	0.1787752	0	0	0	0	0	0
1.766767	0.01147318	0.1787752	0	0	0	0	0	0
1.783333	0.01149949	0.1787571	0.001588315	-0.001091071	0.04793734	-0.03292988	0	0
1.7999	0.01149949	0.1787571	0	0	-0.04793734	0.03292988	0	0
1.816774	0.01149949	0.1787571	0	0	0	0	0	0
1.833033	0.01149949	0.1787571	0	0	0	0	0	0
1.8496	0.01149949	0.1787571	0	0	0	0	0	0
1.866166	0.01149949	0.1787571	0	0	0	0	0	0
1.882733	0.01149949	0.1787571	0	0	0	0	0	0
1.8993	0.01149949	0.1787571	0	0	0	0	0	0
1.915866	0.01149949	0.1787571	0	0	0	0	0	0
1.932433	0.01149949	0.1787571	0	0	0	0	0	0
1.9987	0.01147318	0.1787752	-0.0003970688	0.0002727608	-0.004793548	0.00329286	0	0
2.015266	0.01147318	0.1787752	0	0	0.004793589	-0.003292889	0	0
2.031834	0.01147318	0.1787752	0	0	0	0	0	0
2.0484	0.01147318	0.1787752	0	0	0	0	0	0
2.064967	0.01144687	0.1787933	-0.001588235	0.001091915	-0.04793441	0.03295501	0	0
2.081543	0.01144687	0.1787933	0	0	0.04791993	-0.03294506	0	0
2.117487	0.01126268	0.1789198	-0.005124305	0.003520519	-0.09756858	0.06703193	0	0
2.134044	0.01094693	0.1791729	-0.01907024	0.01528616	-0.2656319	0.2241033	0	0
2.150611	0.009894414	0.1799683	-0.06353191	0.04800967	-1.342281	0.9879103	0	0
2.167178	0.0008157893	0.1862015	-0.5480027	0.3762476	-14.62178	9.906525	0	0
2.184032	-0.01084168	0.1941971	-0.6916522	0.4743928	-4.298147	2.93661	0	0
2.200311	-0.02893929	0.2065977	-1.111749	0.7617756	-12.67908	8.673603	0	0
2.216878	-0.04318366	0.2163172	-0.859817	0.5866847	7.670258	-5.33078	0	0
2.233444	-0.06079341	0.2283433	-1.062957	0.7259205	-6.130967	4.202266	0	0
2.250011	-0.07242573	0.2362804	-0.7021482	0.4790956	10.88956	-7.449404	0	0
2.266578	-0.07935929	0.2410001	-0.4185227	0.2848928	8.560081	-5.86122	0	0
2.283145	-0.08897499	0.2475648	-0.5804046	0.3962465	-4.885676	3.360708	0	0
2.299712	-0.1027422	0.2569569	-0.8310154	0.5669236	-7.563557	5.151119	0	0
2.316278	-0.1101315	0.2620085	-0.4460447	0.3049317	11.61894	-7.907271	0	0
2.333138	-0.1174309	0.2670044	-0.4329526	0.2963275	0.3916746	-0.2574127	0	0
2.349411	-0.1246141	0.2719629	-0.4413984	0.3046885	-0.254903	0.2523467	0	0
2.365978	-0.1341887	0.2785835	-0.5779591	0.399646	-4.158361	2.891515	0	0
2.382545	-0.1414181	0.283592	-0.4363766	0.3023199	4.273152	-2.937433	0	0
2.399111	-0.1484009	0.2884381	-0.4215098	0.2925332	0.4486994	-0.2953767	0	0
2.415678	-0.15691	0.2943557	-0.5136223	0.3571942	-2.780082	1.95156	0	0
2.432244	-0.1628861	0.2984845	-0.3607301	0.2492247	4.614431	-3.258622	0	0
2.448812	-0.1689528	0.3026841	-0.3661864	0.253488	-0.1646765	0.1286698	0	0
2.465378	-0.17064	0.3038635	-0.1018481	0.07119085	7.977977	-5.501897	0	0
2.481945	-0.1706656	0.3038456	-0.001542577	-0.001079354	3.027357	-2.181213	0	0
2.498511	-0.1706656	0.3038456	0	0	0.04655707	0.03257638	0	0
2.515078	-0.1706911	0.3038278	-0.001542577	-0.001077555	-0.04655707	-0.03252209	0	0
2.531644	-0.1707167	0.3037741	-0.001542577	-0.003236264	0	-0.06515183	0	0
2.548211	-0.1707423	0.3037205	-0.001542577	-0.003236264	0	0	0	0
2.564802	-0.1707423	0.3036491	0	-0.004307433	0.04652192	-0.03230496	0	0
2.581345	-0.1707678	0.3035597	-0.001544822	-0.005401023	-0.0466235	-0.03300508	0	0
2.597911	-0.1707678	0.3034168	0	-0.00862801	0.04665909	-0.09746639	0	0
2.614478	-0.1709211	0.3032381	-0.009255461	-0.01078635	-0.2793444	-0.06514198	0	0
2.631045	-0.1710234	0.3031666	-0.006170308	-0.004315617	0.0931128	0.1952926	0	0
2.647611	-0.1710234	0.3030951	0	-0.004313819	0.1862256	5.429095E-05	0	0
2.664178	-0.1710489	0.3030415	-0.001542577	-0.003236264	-0.04655641	0.03252161	0	0
2.680884	-0.1711256	0.3029879	-0.004588269	-0.003207507	-0.09153714	0.0008642714	0	0
2.697396	-0.1711256	0.3029879	0	0	0.1381283	0.09656096	0	0
2.713878	-0.1711511	0.3029701	-0.001550453	-0.001084865	-0.04699194	-0.03288066	0	0
2.730447	-0.1712789	0.3028807	-0.007711208	-0.00539263	-0.1864014	-0.1303368	0	0
2.747012	-0.1713555	0.3028271	-0.004627298	-0.003236589	0.09307529	0.06507129	0	0
2.796711	-0.1855767	0.2929256	-0.2861447	-0.1992274	-4.248396	-2.95771	0	0
2.886675	-0.2060342	0.2784761	-0.2273962	-0.1606137	0.4206431	0.2764767	0	0
2.903242	-0.2060342	0.2784404	0	-0.002160507	2.134556	1.487392	0	0
2.919809	-0.206362	0.278172	-0.01978456	-0.01619751	-0.5971164	-0.4236497	0	0
2.936376	-0.2077482	0.2770807	-0.08367092	-0.06587468	-1.928122	-1.499282	0	0
2.952942	-0.2165754	0.2703341	-0.5328488	-0.4072525	-13.5567	-10.30317	0	0
2.969509	-0.2242681	0.2642649	-0.4643462	-0.3663454	2.067517	1.234641	0	0
2.9861	-0.2337776	0.257369	-0.573159	-0.415635	-3.281639	-1.486506	0	0
3.006697	-0.2411112	0.2520109	-0.3560566	-0.260146	5.837961	4.181156	0	0
3.023263	-0.2444585	0.249555	-0.2020488	-0.1482403	4.144062	3.011172	0	0
3.039832	-0.2456473	0.248551	-0.07175183	-0.06059783	3.932285	2.644998	0	0
3.056398	-0.2455235	0.2484613	0.007473051	-0.005411396	2.391012	1.66553	0	0
3.073162	-0.2454244	0.2483896	0.005908318	-0.004278131	-0.04694639	0.03400114	0	0
3.089676	-0.2453997	0.2483717	0.001499654	-0.001085489	-0.132478	0.09593716	0	0
3.106099	-0.2453749	0.2483538	0.001507992	-0.001091525	0.0002531552	-0.0001832402	0	0
3.122665	-0.2453254	0.2483179	0.002989127	-0.00216516	0.04489845	-0.03254571	0	0
3.139232	-0.2452759	0.248282	0.002989811	-0.002164105	2.065323E-05	3.185474E-05	0	0
3.155798	-0.2452016	0.2482283	0.004484716	-0.003247057	0.04511764	-0.03268449	0	0
3.172365	-0.2451273	0.2481745	0.004484716	-0.003247057	0	0	0	0
3.189248	-0.2450282	0.2481027	0.005867815	-0.004248164	0.04134927	-0.02992921	0	0
3.205497	-0.2448301	0.2479593	0.01219353	-0.008827176	0.1909243	-0.1382048	0	0
3.222269	-0.2446319	0.2478159	0.01181587	-0.008552492	-0.01143694	0.00831842	0	0
3.23878	-0.2443842	0.2476365	0.01500408	-0.0108607	0.09579223	-0.0693519	0	0
3.255292	-0.2442603	0.2475469	0.00750296	-0.005429132	-0.2271491	0.1644788	0	0
3.271765	-0.2441859	0.2474931	0.0045121	-0.003265573	-0.09067407	0.06559274	0	0
3.288332	-0.2440621	0.2474034	0.007477802	-0.005411828	0.08976019	-0.06495871	0	0
3.304898	-0.243839	0.2472421	0.01346283	-0.009741591	0.1806336	-0.1306763	0	0
3.321464	-0.2427731	0.246471	0.06434308	-0.04654646	1.53568	-1.110853	0	0
3.338032	-0.2424012	0.246202	0.0224501	-0.01623545	-1.264333	0.9147881	0	0
3.354599	-0.2424012	0.246202	0	0	-0.6775405	0.4899833	0	0
3.371166	-0.2424012	0.246202	0	0	0	0	0	0
3.387887	-0.2424012	0.246202	0	0	0	0	0	0
3.404298	-0.2424012	0.246202	0	0	0	0	0	0
3.420907	-0.2423764	0.2461841	0.001492837	-0.001079257	0.04520941	-0.03268445	0	0
3.437432	-0.2423764	0.2461841	0	0	-0.04505489	0.03257274	0	0
3.453998	-0.2423764	0.2461841	0	0	0	0	0	0
3.470953	-0.2423764	0.2461841	0	0	0	0	0	0
3.487131	-0.2423516	0.2461661	0.001532635	-0.00110895	0.04625634	-0.03346913	0	0
3.503697	-0.2423516	0.2461661	0	0	-0.04680566	0.0338666	0	0
3.53683	-0.2423268	0.2461482	0.0007488127	-0.000541034	0.01506686	-0.01088615	0	0
3.553397	-0.242302	0.2461302	0.001496704	-0.001082952	0.01504819	-0.01090383	0	0
3.569964	-0.242302	0.2461302	0	0	-0.04517193	0.0326845	0	0
3.58653	-0.2422772	0.2461123	0.001496747	-0.001082084	0.04517388	-0.03265876	0	0
3.603537	-0.2422772	0.2461123	0	0	-0.04458168	0.03223063	0	0
3.619664	-0.2422523	0.2460944	0.001538453	-0.001112491	0.04643161	-0.03357577	0	0
3.636231	-0.2422276	0.2460764	0.001496704	-0.001082052	-0.001276965	0.0009310199	0	0
3.652797	-0.2422276	0.2460764	0	0	-0.04517258	0.03265782	0	0
3.669364	-0.2422028	0.2460585	0.001496704	-0.001082952	0.04517258	-0.03268497	0	0
3.686095	-0.2422028	0.2460585	0	0	-0.04494811	0.03252256	0	0
3.702497	-0.2422028	0.2460585	0	0	0	0	0	0
3.719064	-0.2421779	0.2460406	0.001497604	-0.001082052	0.04542592	-0.03282125	0	0
3.73563	-0.2421779	0.2460406	0	0	-0.04519907	0.03265735	0	0
3.752197	-0.2421532	0.2460226	0.001496704	-0.001082952	0.04517193	-0.0326845	0	0
3.769153	-0.2421035	0.2459868	0.002925596	-0.002115323	0.0426247	-0.03079625	0	0
3.78533	-0.2420787	0.2459688	0.001533669	-0.00110811	-0.04201024	0.03039904	0	0
3.801897	-0.2420539	0.2459509	0.001496704	-0.001082952	-0.001128894	0.0007683342	0	0
3.818687	-0.2420043	0.245915	0.002955272	-0.002136138	0.04372547	-0.0315728	0	0
3.835201	-0.2419299	0.2458612	0.004506309	-0.003257464	0.04657147	-0.03366896	0	0
3.85467	-0.2418059	0.2457716	0.006370397	-0.004606158	0.05180559	-0.03748206	0	0
3.871237	-0.2416322	0.2456819	0.01048187	-0.005411828	0.1140936	-0.02235737	0	0
3.887805	-0.2413345	0.2454667	0.01797073	-0.01299055	0.2260125	-0.2287247	0	0
3.904751	-0.2387524	0.2436372	0.1523701	-0.1079547	4.010271	-2.833585	0	0
3.920938	-0.2346988	0.240713	0.2504281	-0.1806563	2.959524	-2.194234	0	0
3.937505	-0.2208385	0.230858	0.8366103	-0.5948509	17.89667	-12.64573	0	0
3.954286	-0.211273	0.2242285	0.5700132	-0.3950567	-7.994318	5.991133	0	0
3.970638	-0.2012893	0.2174324	0.6105562	-0.4156175	1.223645	-0.6205539	0	0
3.987309	-0.1876604	0.2080023	0.8174901	-0.5656328	6.266243	-4.542669	0	0
4.003821	-0.1842546	0.2056611	0.2062679	-0.1417924	-18.41969	12.77278	0	0
4.020337	-0.1641158	0.1921946	1.219335	-0.8153564	30.67329	-20.39395	0	0
4.036904	-0.1577057	0.1880433	0.3869224	-0.2505802	-25.16136	17.07152	0	0
4.05347	-0.1446922	0.1805647	0.7855415	-0.4514295	12.03087	-6.061905	0	0
4.070037	-0.1324567	0.1764788	0.7385588	-0.246636	-1.418	6.180945	0	0
4.086604	-0.113458	0.174073	1.146798	-0.1452154	12.32102	3.060968	0	0
4.103171	-0.1028984	0.1735665	0.6373579	-0.03057634	-15.37492	3.459814	0	0
4.119901	-0.08717325	0.1731503	0.9399499	-0.0248753	9.087518	0.171215	0	0
4.136412	-0.06742396	0.1724084	1.196131	-0.04493372	7.706843	-0.6034277	0	0
4.15287	-0.05389512	0.1715035	0.8220203	-0.05498153	-11.34736	-0.3047653	0	0
4.169437	-0.04068806	0.170689	0.7972031	-0.04916458	-0.7514728	0.176139	0	0
4.186004	-0.0247581	0.1689873	0.9615619	-0.1027203	4.960501	-1.616362	0	0
4.20257	-0.01663005	0.1657092	0.4906243	-0.197869	-14.21333	-2.871675	0	0
4.219472	-0.00552626	0.1618313	0.6569707	-0.2294426	4.970275	-0.9433908	0	0
4.252271	0.004999958	0.1594743	0.3209333	-0.07186128	-6.761281	3.170634	0	0
4.268837	0.01673528	0.1583136	0.7083658	-0.07006177	7.84824	0.03645275	0	0
4.285518	0.02786121	0.1599639	0.6670125	0.09893674	-1.24382	5.083121	0	0
4.301971	0.03535368	0.1599821	0.4553791	0.001102195	-6.387293	-2.952738	0	0
4.318542	0.0417389	0.1603628	0.3853238	0.02297799	-2.121324	0.662415	0	0
4.335104	0.04441813	0.1589122	0.1617654	-0.08758889	-6.747202	-3.337011	0	0
4.351671	0.0454949	0.1581685	0.06499765	-0.04488713	-2.920959	1.288964	0	0
4.368238	0.04591507	0.1578783	0.02536162	-0.01751741	-1.196252	0.8260435	0	0
4.385089	0.04591507	0.1578783	0	0	-0.7589169	0.5241882	0	0
4.417938	0.04588882	0.1578965	-0.0007994065	0.0005525193	-0.01608471	0.01111714	0	0
4.434624	0.04586256	0.1579146	-0.001573752	0.001086824	-0.01563236	0.01078646	0	0
4.451137	0.04586256	0.1579146	0	0	0.04740384	-0.03273683	0	0
4.467647	0.04583629	0.1579327	-0.00159075	0.001098407	-0.04817114	0.033262	0	0
4.484205	0.04583629	0.1579327	0	0	0.04810446	-0.03321596	0	0
4.500771	0.04583629	0.1579327	0	0	0	0	0	0
4.517683	0.04581003	0.1579509	-0.001552764	0.00107233	-0.04638257	0.03203154	0	0
4.534194	0.04581003	0.1579509	0	0	0.04645867	-0.0320841	0	0
4.55047	0.04583629	0.1579327	0.001613309	-0.001114142	0.04920456	-0.0339804	0	0
4.567217	0.04583629	0.1579327	0	0	-0.04885358	0.03373801	0	0
4.583728	0.04583629	0.1579327	0	0	0	0	0	0
4.60024	0.04581003	0.1579146	-0.001590341	-0.00109828	-0.04815805	-0.03325768	0	0
4.616751	0.04581003	0.1579146	0	0	0.04815875	0.03325816	0	0
4.633303	0.04583629	0.1578965	0.001586492	-0.001095623	0.047984	-0.03313749	0	0
4.64987	0.04581003	0.1578783	-0.001585076	-0.001095544	-0.09576361	2.358626E-06	0	0
4.666437	0.04581003	0.1578783	0	0	0.04783908	0.03306455	0	0
4.683299	0.04581003	0.1578783	0	0	0	0	0	0
4.699571	0.04581003	0.1578783	0	0	0	0	0	0
4.815537	0.04578377	0.1578965	-0.0002264414	0.0001565076	-0.001712372	0.001183526	0	0
4.838221	0.04575751	0.1578783	-0.001157645	-0.0008001198	-0.006716219	-0.006899588	0	0
4.854787	0.04575751	0.1578783	0	0	0.02949385	0.02038503	0	0
4.871355	0.04575751	0.1578783	0	0	0	0	0	0
4.887922	0.04575751	0.1578783	0	0	0	0	0	0
4.904488	0.04573125	0.1578602	-0.001585438	-0.00109474	-0.04785069	-0.03304073	0	0
4.921055	0.04573125	0.1578602	0	0	0.04785138	0.03304121	0	0
4.937622	0.04570499	0.1578421	-0.001585031	-0.001094613	-0.04783633	-0.0330355	0	0
4.954189	0.04567873	0.1578239	-0.001585031	-0.001094613	0	0	0	0
4.971003	0.04565247	0.1578058	-0.001562057	-0.001079481	0.0006882454	0.0004533328	0	0
4.987321	0.04562621	0.1577876	-0.001609161	-0.001111277	-0.001421706	-0.0009596898	0	0
5.003888	0.04562621	0.1577876	0	0	0.04893287	0.03379276	0	0
5.020454	0.04559994	0.1577695	-0.001585301	-0.001094645	-0.04784656	-0.03303788	0	0
5.037021	0.04559994	0.1577695	0	0	0.04784656	0.03303788	0	0
5.053588	0.04559994	0.1577695	0	0	0	0	0	0
5.070156	0.04557369	0.1577876	-0.001584985	0.001094582	-0.04783426	0.03303407	0	0
5.087088	0.04557369	0.1577876	0	0	0.04731339	-0.03267436	0	0
5.103288	0.04554743	0.1578058	-0.001620907	0.001119389	-0.04892188	0.03378518	0	0
5.119855	0.0454949	0.1578421	-0.003170378	0.002190189	-0.04728712	0.03267893	0	0
5.136421	0.04541612	0.1578965	-0.004755953	0.003285023	-0.0478555	0.03304406	0	0
5.153133	0.04520602	0.1580416	-0.01257137	0.008682735	-0.2348526	0.1622007	0	0
5.169643	0.04507471	0.1581323	-0.007953068	0.00549278	0.1390107	-0.09601741	0	0
5.186154	0.04502219	0.1582048	-0.003181316	0.004394277	0.1445046	-0.03326633	0	0
5.202688	0.04465451	0.1584587	-0.02223793	0.01535733	-0.5766901	0.3317631	0	0
5.219254	0.04265832	0.159837	-0.1204972	0.08319721	-2.968545	2.049535	0	0
5.235821	0.04113468	0.1608886	-0.09197239	0.06347954	0.8609291	-0.5951148	0	0
5.252388	0.04021515	0.1615594	-0.05550444	0.04048837	1.100652	-0.6939048	0	0
5.269213	0.03685173	0.1638793	-0.1999037	0.1378835	-4.324372	2.916724	0	0
5.302088	0.0288867	0.1693675	-0.2422818	0.1669407	-0.8526748	0.5846502	0	0
5.318655	0.02775603	0.170146	-0.06824947	0.04698968	3.519943	-2.426106	0	0
5.335221	0.02604674	0.1713587	-0.1031788	0.0732066	-1.054214	0.7912624	0	0
5.351788	0.0241532	0.1726617	-0.1142978	0.07865253	-0.3355861	0.1643655	0	0
5.368354	0.01973428	0.1757373	-0.2667417	0.1856498	-4.600967	3.229322	0	0
5.384921	0.01976059	0.1757192	0.001587842	-0.001091915	8.098435	-5.636037	0	0
5.401488	0.01978689	0.1757373	0.001587775	0.001091947	-2.016733E-06	0.06591003	0	0
5.418055	0.01978689	0.1757373	0	0	-0.04792052	-0.03295596	0	0
5.434621	0.01978689	0.1757373	0	0	0	0	0	0
5.451189	0.01978689	0.1757373	0	0	0	0	0	0
5.467755	0.0198132	0.1757192	0.001587933	-0.001091978	0.0479246	-0.03295644	0	0
5.485228	0.0198132	0.1757192	0	0	-0.04665037	0.03208018	0	0
5.501878	0.0198132	0.1757192	0	0	0	0	0	0
5.51839	0.0198132	0.1757192	0	0	0	0	0	0
5.534929	0.0198132	0.1757192	0	0	0	0	0	0
5.551496	0.0198132	0.1757192	0	0	0	0	0	0
5.568063	0.0198132	0.1757192	0	0	0	0	0	0
5.584938	0.0198132	0.1757192	0	0	0	0	0	0
5.601196	0.0198132	0.1757192	0	0	0	0	0	0
5.61796	0.0198132	0.1757192	0	0	0	0	0	0
5.634472	0.0198132	0.1757192	0	0	0	0	0	0
5.650984	0.0198132	0.1757192	0	0	0	0	0	0
5.670694	0.0198132	0.1757192	0	0	0	0	0	0
5.687262	0.0198395	0.1757011	0.001587683	-0.001091884	0.04376521	-0.03009827	0	0
5.704524	0.01989211	0.1756649	0.00304787	-0.002095073	0.04316287	-0.02965412	0	0
5.720397	0.01991842	0.1756468	0.001657176	-0.001139675	-0.04197063	0.02883356	0	0
5.737047	0.01997103	0.1755745	0.003159747	-0.004345001	0.04620004	-0.09855521	0	0
5.75356	0.02002364	0.1755383	0.003185933	-0.002190956	0.0007896018	0.06495219	0	0
5.770096	0.02007625	0.1755021	0.003181523	-0.002187924	-0.0001334231	9.175968E-05	0	0
5.786663	0.02010255	0.175484	0.001587933	-0.001091978	-0.04814105	0.03310762	0	0
5.803227	0.02007625	0.175466	-0.00158807	-0.001091173	-0.09586162	2.430478E-05	0	0
5.819794	0.02007625	0.175466	0	0	0.04793219	0.03293451	0	0
5.836361	0.02007625	0.175466	0	0	0	0	0	0
5.852928	0.02010255	0.1754479	0.001587887	-0.001091947	0.04792391	-0.03295596	0	0
5.869638	0.02010255	0.1754479	0	0	-0.04771721	0.03281382	0	0
5.886061	0.02010255	0.1754479	0	0	0	0	0	0
5.902665	0.02007625	0.175466	-0.00158433	0.001089501	-0.0479712	0.03298848	0	0
5.919199	0.02010255	0.1754479	0.001591001	-0.001094088	0.09582067	-0.06589325	0	0
5.935761	0.02010255	0.1754479	0	0	-0.04807116	0.03305722	0	0
5.952328	0.02010255	0.1754479	0	0	0	0	0	0
5.968894	0.02010255	0.1754479	0	0	0	0	0	0
5.985461	0.02010255	0.1754479	0	0	0	0	0	0
6.002028	0.02010255	0.1754479	0	0	0	0	0	0
6.018744	0.02010255	0.1754479	0	0	0	0	0	0
6.035254	0.02010255	0.1754479	0	0	0	0	0	0
6.051728	0.02010255	0.1754479	0	0	0	0	0	0
6.068779	0.02010255	0.1754479	0	0	0	0	0	0
6.084861	0.02010255	0.1754479	0	0	0	0	0	0
6.101429	0.02010255	0.1754479	0	0	0	0	0	0
6.134561	0.02007625	0.175466	-0.0007939893	0.0005460047	-0.01597571	0.01098606	0	0
6.151336	0.02007625	0.175466	0	0	0.01590931	-0.0109404	0	0
6.167849	0.02007625	0.175466	0	0	0	0	0	0
6.18426	0.02004994	0.175484	-0.001602768	0.00110135	-0.04868058	0.03345109	0	0
6.200872	0.02007625	0.175466	0.001583445	-0.001088072	0.09648222	-0.06629822	0	0
6.217394	0.02004994	0.175484	-0.001592128	0.001094039	-0.09584176	0.06585813	0	0
6.233961	0.02004994	0.175484	0	0	0.0481177	-0.03306431	0	0
6.250527	0.02004994	0.175484	0	0	0	0	0	0
6.267094	0.02004994	0.175484	0	0	0	0	0	0
6.28393	0.02004994	0.175484	0	0	0	0	0	0
6.300442	0.02007625	0.175466	0.001593048	-0.001094671	0.04776961	-0.03282512	0	0
6.316954	0.02007625	0.175466	0	0	-0.04824003	0.03314837	0	0
6.333466	0.02007625	0.175466	0	0	0	0	0	0
6.349979	0.02007625	0.175466	0	0	0	0	0	0
6.366494	0.02007625	0.175466	0	0	0	0	0	0
6.383061	0.02007625	0.175466	0	0	0	0	0	0
6.399628	0.02007625	0.1754298	0	-0.00218383	0	-0.06590908	0	0
6.416195	0.02007625	0.1754298	0	0	0	0.06590908	0	0
6.432762	0.02007625	0.1754298	0	0	0	0	0	0
6.449547	0.02007625	0.1753936	0	-0.002155417	0	-0.06462561	0	0
6.46606	0.02010255	0.1753755	0.001593115	-0.001095541	0.04784413	0.03183001	0	0
6.482461	0.02012886	0.1753574	0.001603793	-0.001102963	0.0003244338	-0.0002254759	0	0
6.499028	0.02012886	0.1753574	0	0	-0.0486469	0.0334555	0	0
6.598654	0.02007625	0.1753936	-0.0005280788	0.0003631582	-0.004544849	0.003125479	0	0
6.614995	0.02007625	0.1753936	0	0	0.004553707	-0.00313157	0	0
6.634554	0.02007625	0.1753936	0	0	0	0	0	0
6.651121	0.02004994	0.1754117	-0.001587729	0.001091915	-0.04394902	0.03022468	0	0
6.667688	0.02004994	0.1754117	0	0	0.04791845	-0.03295454	0	0
6.684255	0.02004994	0.1754117	0	0	0	0	0	0
6.700821	0.02004994	0.1754117	0	0	0	0	0	0
6.717389	0.02004994	0.1754117	0	0	0	0	0	0
6.733956	0.02004994	0.1754117	0	0	0	0	0	0
6.750522	0.02004994	0.1754117	0	0	0	0	0	0
6.767089	0.02004994	0.1754117	0	0	0	0	0	0
6.783655	0.02007625	0.1753936	0.001587821	-0.001091978	0.0479219	-0.03295691	0	0
6.800296	0.02007625	0.1753936	0	0	-0.04781593	0.03288403	0	0
6.816789	0.02007625	0.1753936	0	0	0	0	0	0
6.833355	0.02007625	0.1753936	0	0	0	0	0	0
6.849922	0.02010255	0.1753755	0.001587933	-0.001091978	0.04792667	-0.03295786	0	0
6.866488	0.02010255	0.1753755	0	0	-0.04792598	0.03295739	0	0
6.883055	0.02010255	0.1753755	0	0	0	0	0	0
6.899623	0.02010255	0.1753755	0	0	0	0	0	0
6.916189	0.02010255	0.1753755	0	0	0	0	0	0
6.932755	0.02010255	0.1753755	0	0	0	0	0	0
6.9494	0.02010255	0.1753755	0	0	0	0	0	0
6.965913	0.02010255	0.1753755	0	0	0	0	0	0
6.982455	0.02010255	0.1753755	0	0	0	0	0	0
6.999022	0.02010255	0.1753755	0	0	0	0	0	0
7.015588	0.02010255	0.1753755	0	0	0	0	0	0
7.032155	0.02010255	0.1753755	0	0	0	0	0	0
7.048721	0.02010255	0.1753755	0	0	0	0	0	0
7.065483	0.02010255	0.1753755	0	0	0	0	0	0
7.081855	0.02010255	0.1753755	0	0	0	0	0	0
7.098506	0.02010255	0.1753755	0	0	0	0	0	0
7.114988	0.02010255	0.1753755	0	0	0	0	0	0
7.131557	0.02010255	0.1753755	0	0	0	0	0	0
7.148121	0.02012886	0.1753574	0.001587958	-0.001092072	0.04792673	-0.03296023	0	0
7.164688	0.02010255	0.1753393	-0.001587775	-0.001091947	-0.09585208	3.794823E-06	0	0
7.181565	0.02010255	0.1753393	0	0	0.04747641	0.03265054	0	0
7.197822	0.02010255	0.1753032	0	-0.002224613	0	-0.0671409	0	0
7.214389	0.02010255	0.1753032	0	0	0	0.06777391	0	0
7.230955	0.02010255	0.1753032	0	0	0	0	0	0
7.247521	0.02010255	0.1753032	0	0	0	0	0	0
7.264088	0.02010255	0.1753032	0	0	0	0	0	0
7.280655	0.02010255	0.1753032	0	0	0	0	0	0
7.297222	0.02010255	0.1753032	0	0	0	0	0	0
7.313788	0.02010255	0.1753032	0	0	0	0	0	0
7.330355	0.02010255	0.1753032	0	0	0	0	0	0
7.346922	0.02007625	0.1753213	-0.001587842	0.001091915	-0.04792254	0.03295501	0	0
7.363488	0.02007625	0.1753213	0	0	0.04792254	-0.03295501	0	0
7.380055	0.02004994	0.1753393	-0.001587775	0.001091047	-0.04792121	0.03292929	0	0
7.479455	0.003447355	0.1867432	-0.167028	0.1147273	-1.426617	0.9799038	0	0
7.496024	-0.007657745	0.1943595	-0.6702473	0.4596782	-4.339268	2.974516	0	0
7.5128	-0.01986581	0.2027247	-0.7276856	0.4986241	-1.722535	1.167963	0	0
7.529155	-0.03188393	0.2109549	-0.7348269	0.5032207	-0.215545	0.1387374	0	0
7.549135	-0.04930212	0.2228446	-0.8717833	0.5950805	-3.76927	2.528135	0	0
7.565837	-0.05830227	0.229008	-0.5388611	0.3690189	9.07587	-6.162717	0	0
7.582348	-0.06661183	0.2347006	-0.5032895	0.3447915	1.071026	-0.7294631	0	0
7.59886	-0.07569719	0.2409284	-0.5502149	0.3771532	-1.420997	0.9799777	0	0
7.615403	-0.07763314	0.242256	-0.117029	0.08025535	13.10507	-8.98198	0	0
7.632383	-0.08466554	0.2470807	-0.4141421	0.2841292	-8.862944	6.081596	0	0
7.648536	-0.08973207	0.2505948	-0.3136619	0.2175526	3.032587	-2.009344	0	0
7.665407	-0.09020193	0.2509533	-0.02785075	0.02125141	8.654819	-5.944313	0	0
7.68167	-0.09009752	0.2510608	0.006420241	0.006613573	1.03433	-0.4417836	0	0
7.698236	-0.08952323	0.2515986	0.03466481	0.03245978	0.8603342	0.7872797	0	0
7.714804	-0.0870949	0.2540182	0.1465705	0.1460426	3.377322	3.427936	0	0
7.73137	-0.082392	0.2601457	0.2838919	0.3698907	4.144485	6.755945	0	0
7.747936	-0.07043592	0.271229	0.721712	0.6690281	13.21439	9.028633	0	0
7.764503	-0.06176345	0.2772954	0.5234865	0.3661745	-5.982716	-9.140534	0	0
7.78149	-0.04105587	0.2912273	1.219002	0.8201368	20.7282	13.52928	0	0
7.797637	-0.0243373	0.3024161	1.03545	0.6929709	-5.539767	-3.837987	0	0
7.814204	-0.007789316	0.3136182	0.9988382	0.6761581	-1.119169	-0.5139403	0	0
7.83077	0.01281509	0.3276387	1.24372	0.8463072	7.390654	5.135182	0	0
7.847336	0.02204906	0.3339069	0.5574117	0.3783768	-20.71402	-14.12298	0	0
7.863903	0.03440747	0.3423355	0.7459765	0.5087662	5.691226	3.935386	0	0
7.880559	0.0480157	0.3516214	0.8170207	0.5575186	2.138423	1.467444	0	0
7.897071	0.05942993	0.3594975	0.6912525	0.4769756	-3.791817	-2.428312	0	0
7.913603	0.06181588	0.3613014	0.1443235	0.1091181	-16.55137	-11.13224	0	0
7.930171	0.06490869	0.3637306	0.1866824	0.1466278	1.279758	1.133252	0	0
7.946737	0.06587821	0.3652847	0.05852382	0.09380757	-3.867945	-1.594164	0	0
7.963303	0.06637603	0.3682679	0.03005008	0.1800792	-0.8593884	2.603833	0	0
7.97987	0.06551138	0.3803645	-0.05219172	0.7301759	-2.48217	16.60267	0	0
7.996642	0.06475146	0.3913228	-0.04530824	0.6533573	0.2064693	-2.304164	0	0
8.013003	0.06514453	0.401536	0.02402448	0.6242277	2.092526	-0.8791573	0	0
8.029571	0.06577341	0.4103414	0.03795889	0.5314983	0.4231721	-2.816088	0	0
8.046137	0.06616643	0.4214638	0.02372444	0.6713884	-0.4296091	4.222014	0	0
8.062704	0.06634983	0.4299066	0.01107026	0.5096096	-0.3819149	-4.882635	0	0
8.079271	0.06579961	0.4363822	-0.03321167	0.390866	-1.336431	-3.583687	0	0
8.095838	0.06396525	0.4408333	-0.1107287	0.2686824	-2.339537	-3.687617	0	0
8.112405	0.06241881	0.4417848	-0.093343	0.05743258	0.5247172	-6.375715	0	0
8.16226	0.06215667	0.4414975	-0.005257974	-0.005761974	1.326133	-0.9514033	0	0
8.178671	0.06210424	0.4414616	-0.003194826	-0.002188299	0.03113431	0.0539292	0	0
8.195284	0.06207803	0.4414437	-0.001577973	-0.001079937	0.04896019	0.03356249	0	0
8.211804	0.06207803	0.4414437	0	0	0.04762468	0.0325935	0	0
8.228371	0.06207803	0.4414437	0	0	0	0	0	0
8.244937	0.06207803	0.4414437	0	0	0	0	0	0
8.261505	0.06207803	0.4414437	0	0	0	0	0	0
8.27807	0.06205181	0.4414616	-0.001582515	0.001083045	-0.04776176	0.03268732	0	0
8.294852	0.06194695	0.4415334	-0.006248402	0.004279849	-0.1399187	0.09586442	0	0
8.344387	0.05439366	0.4467773	-0.1524846	0.1058629	-2.205122	1.531789	0	0
8.360903	0.04738555	0.451575	-0.4243291	0.2904907	-4.115705	2.795252	0	0
8.381549	0.04105587	0.4559078	-0.3065805	0.2098625	3.168538	-2.169653	0	0
8.398425	0.03580049	0.4595053	-0.3114073	0.2131696	-0.1286401	0.08813898	0	0
8.414682	0.03490687	0.460117	-0.05496729	0.03762759	7.739599	-5.298022	0	0
8.431249	0.03495944	0.4600811	0.003173168	-0.002171363	1.771302	-1.212512	0	0
8.447815	0.03495944	0.4600451	0	-0.002173162	-0.0957719	-5.429251E-05	0	0
8.46447	0.03498572	0.4600271	0.001578023	-0.001079005	0.04750042	0.03293545	0	0
8.48479	0.03503828	0.4599911	0.002586995	-0.001771718	0.02728801	-0.01873467	0	0
8.501359	0.03503828	0.4599911	0	0	-0.07012901	0.04802826	0	0
8.518008	0.03506457	0.4599731	0.001578789	-0.001079376	0.04752757	-0.03249334	0	0
8.53452	0.03506457	0.4599731	0	0	-0.04760958	0.03254941	0	0
8.551058	0.03511713	0.4599012	0.003178432	-0.004352042	0.09617162	-0.1316822	0	0
8.567624	0.03511713	0.4599012	0	0	-0.0960137	0.131466	0	0
8.58419	0.0351697	0.4598652	0.003173168	-0.002173162	0.0957719	-0.06558993	0	0
8.600757	0.03519599	0.4598112	0.001586696	-0.003257944	-0.04788256	-0.03274067	0	0
8.617323	0.03522227	0.4597932	0.001586471	-0.001086581	-6.788321E-06	0.06553564	0	0
8.633889	0.03527484	0.4597212	0.003173168	-0.004344525	0.04788934	-0.09833061	0	0
8.6506	0.0353274	0.4596133	0.00314542	-0.006459367	-0.0008338381	-0.06355169	0	0
8.667024	0.03566908	0.4591995	0.02080445	-0.02519634	0.5329506	-0.5654831	0	0
8.683625	0.03622099	0.4587137	0.03324486	-0.02925738	0.3766993	-0.1229694	0	0
8.700157	0.03614215	0.4585878	-0.004769298	-0.007618258	-1.147303	0.6530889	0	0
8.716723	0.03608959	0.4585159	-0.003172718	-0.004342726	0.04823765	0.09896397	0	0
8.733664	0.03606331	0.4584619	-0.001551461	-0.003186047	0.0483865	0.03452116	0	0
8.749857	0.03614215	0.458264	0.004868779	-0.01222026	0.1937688	-0.2726609	0	0
8.766423	0.03622099	0.4579942	0.004759414	-0.01628792	-0.00333841	-0.1241668	0	0
8.799556	0.03601074	0.4578143	-0.006345773	-0.005428408	-0.2234497	0.2185065	0	0
8.816122	0.03595818	0.4577783	-0.003172943	-0.002173162	0.06384115	0.06549945	0	0
8.832688	0.03590561	0.4577423	-0.003172943	-0.002171363	0	5.429251E-05	0	0
8.849255	0.03590561	0.4577423	0	0	0.09576511	0.06553564	0	0
8.865822	0.03590561	0.4577423	0	0	0	0	0	0
8.882388	0.03590561	0.4577783	0	0.002171363	0	0.06553376	0	0
8.898954	0.03590561	0.4577783	0	0	0	-0.06553564	0	0
8.915521	0.03587933	0.4577963	-0.001586471	0.001086581	-0.04788256	0.03279497	0	0
8.932298	0.03595818	0.4578143	0.004699624	0.001072931	0.1885264	-0.0004093823	0	0
8.948654	0.03601074	0.4578143	0.003213643	0	-0.04484828	-0.03238205	0	0
8.965322	0.03624728	0.4579042	0.01419142	0.00539459	0.3324198	0.1633544	0	0
8.981833	0.03687801	0.4580122	0.03820084	0.006537717	0.7236476	0.03445403	0	0
8.998354	0.03756127	0.4583	0.0413561	0.01741984	0.09552026	0.3294376	0	0
9.015355	0.03968967	0.4577423	0.1251915	-0.03279962	2.500862	-1.498077	0	0
9.031487	0.04644027	0.4545951	0.4184509	-0.1950853	8.850842	-4.897932	0	0
9.04838	0.05465604	0.4509459	0.4863578	-0.2160278	2.056239	-0.6341451	0	0
9.064621	0.06275958	0.445502	0.4989536	-0.3351952	0.380153	-3.596585	0	0
9.081187	0.06789548	0.4419464	0.3100215	-0.2146304	-5.758835	3.674935	0	0
9.097754	0.0731325	0.4383562	0.3161254	-0.2167136	0.1842277	-0.06287508	0	0
9.130887	0.07747619	0.4353774	0.1310966	-0.089903	-3.72293	2.551531	0	0
9.197154	0.07747619	0.4353774	0	0	-1.318872	0.904452	0	0
9.21372	0.07747619	0.4353774	0	0	0	0	0	0
9.230508	0.07747619	0.4353774	0	0	0	0	0	0
9.246853	0.07747619	0.4353774	0	0	0	0	0	0
9.263419	0.07747619	0.4353774	0	0	0	0	0	0
9.279985	0.07747619	0.4353774	0	0	0	0	0	0
9.313118	0.07747619	0.4353774	0	0	0	0	0	0
9.329684	0.07747619	0.4353774	0	0	0	0	0	0
9.346251	0.07747619	0.4353774	0	0	0	0	0	0
9.362817	0.07747619	0.4353774	0	0	0	0	0	0
9.38315	0.07747619	0.4353774	0	0	0	0	0	0
9.399718	0.07747619	0.4353774	0	0	0	0	0	0
9.416639	0.07747619	0.4353774	0	0	0	0	0	0
9.432852	0.07747619	0.4353774	0	0	0	0	0	0
9.449659	0.07747619	0.4353774	0	0	0	0	0	0
9.466171	0.07747619	0.4353774	0	0	0	0	0	0
9.482552	0.07745003	0.4353595	-0.001596978	-0.001095278	-0.04855182	-0.033299	0	0
9.499196	0.07745003	0.4353595	0	0	0.04835694	0.03316534	0	0
9.515686	0.07745003	0.4353595	0	0	0	0	0	0
9.532252	0.07745003	0.4353595	0	0	0	0	0	0
9.549236	0.07745003	0.4353595	0	0	0	0	0	0
9.565386	0.07745003	0.4353595	0	0	0	0	0	0
9.582253	0.07745003	0.4353595	0	0	0	0	0	0
9.598519	0.07742387	0.4353415	-0.001608213	-0.001102984	-0.04853737	-0.03328909	0	0
9.615277	0.07739771	0.4353236	-0.001560988	-0.001070595	0.001430029	0.0009807786	0	0
9.631653	0.07739771	0.4352877	0	-0.002193014	0.04711208	-0.03387565	0	0
9.648219	0.07739771	0.4352877	0	0	0	0.06657235	0	0
9.664785	0.07737155	0.4352697	-0.001579051	-0.001082983	-0.04765859	-0.03268638	0	0
9.681352	0.07734539	0.4352518	-0.001579051	-0.001082983	0	0	0	0
9.697919	0.07729308	0.4352159	-0.003157919	-0.002165842	-0.04765172	-0.03268168	0	0
9.714485	0.07724076	0.43518	-0.003158101	-0.002165966	-5.488122E-06	-3.759469E-06	0	0
9.731051	0.07724076	0.4351442	0	-0.002165966	0.09531717	0	0	0
9.747618	0.0772146	0.4350903	-0.001579051	-0.003248949	-0.04765859	-0.03268638	0	0
9.764184	0.07729308	0.4349289	0.004737152	-0.009746849	0.1906343	-0.1961183	0	0
9.78075	0.07813011	0.4341754	0.05052647	-0.04548349	1.382004	-1.078596	0	0
9.813884	0.08252269	0.4309467	0.1325721	-0.09744319	1.650825	-1.045471	0	0
9.847016	0.08785223	0.4236322	0.1608552	-0.2207666	0.4268104	-1.861035	0	0
9.863583	0.08766944	0.4158745	-0.01103401	-0.4682805	-3.458616	-4.980275	0	0
9.880149	0.08696432	0.4080142	-0.04256376	-0.4744743	-0.9516242	-0.1869423	0	0
9.896973	0.08552769	0.3971173	-0.08539278	-0.6477134	-1.282688	-5.188345	0	0
9.913282	0.08312381	0.3890699	-0.1473891	-0.493409	-1.871107	4.65705	0	0
9.929849	0.07805164	0.3787382	-0.3061744	-0.6236562	-4.829821	-3.961767	0	0
9.946415	0.07232102	0.3725735	-0.3459209	-0.3721252	-1.199622	7.591655	0	0
9.962981	0.06472525	0.3674997	-0.458508	-0.3062702	-3.39808	1.987625	0	0
9.979548	0.05720069	0.3623374	-0.4542093	-0.3116185	0.1297412	-0.161423	0	0
9.996114	0.04701795	0.3554075	-0.6146667	-0.4183103	-4.842892	-3.220151	0	0
10.06238	0.02018147	0.3371747	-0.4049867	-0.2751492	2.531408	1.728344	0	0
10.0791	0.01541983	0.3339426	-0.2848064	-0.1933254	1.448235	0.9860197	0	0
10.09551	0.01055224	0.3306389	-0.2965396	-0.2012622	-0.354119	-0.2395402	0	0
10.11208	0.006236761	0.3276744	-0.2604828	-0.1789356	1.09323	0.6769365	0	0
10.12865	-0.0001578947	0.3233347	-0.3860044	-0.2619614	-3.788359	-2.505797	0	0
10.14521	-0.001342105	0.3224953	-0.07148316	-0.05066994	9.492817	6.377156	0	0
10.16178	-0.007526174	0.3182624	-0.3732712	-0.2555009	-9.108242	-6.18199	0	0
10.17835	-0.009210266	0.3170835	-0.1016579	-0.07116026	8.197541	5.563573	0	0
10.19491	-0.01423588	0.3134217	-0.3033641	-0.2210401	-6.087857	-4.523643	0	0
10.21169	-0.01807698	0.3103491	-0.2289107	-0.1831131	2.232743	1.137372	0	0
10.24772	-0.02004994	0.2989313	-0.05476796	-0.3169475	3.297908	-2.534551	0	0
10.26426	-0.01407802	0.2941233	0.361069	-0.2906991	7.91111	0.4993644	0	0
10.28082	-0.01021017	0.2914954	0.2334771	-0.1586265	-3.854059	3.989404	0	0
10.29739	-0.007078829	0.2893321	0.1890082	-0.1305783	-1.342113	0.8465195	0	0
10.31396	-0.00673674	0.2890997	0.02064973	-0.01403021	-5.081214	3.517529	0	0
10.33078	-0.006710425	0.2890818	0.001564394	-0.001063046	-0.5716368	0.3883874	0	0
10.34709	-0.006710425	0.2890818	0	0	-0.04721485	0.03208371	0	0
10.36366	-0.006684111	0.2890639	0.001588347	-0.001079323	0.04830766	-0.0328263	0	0
10.38022	-0.006684111	0.2890639	0	0	-0.0479378	0.03257497	0	0
10.39682	-0.006657796	0.289046	0.001585336	-0.001077277	0.04780151	-0.03248236	0	0
10.41336	-0.006657796	0.289046	0	0	-0.04784691	0.03251321	0	0
10.42992	-0.006657796	0.289046	0	0	0	0	0	0
10.44649	-0.006631482	0.2890282	0.001588439	-0.001079385	0.04794194	-0.03257778	0	0
10.46306	-0.006631482	0.2889924	0	-0.002156847	-0.04794056	-0.0325188	0	0
10.47962	-0.006552538	0.2889388	0.004765345	-0.003238156	0.1438226	-0.03263489	0	0
10.49619	-0.006420964	0.2888494	0.007942251	-0.005396926	0.09588473	-0.06515557	0	0
10.51276	-0.00192105	0.2857917	0.2715841	-0.184543	7.956497	-5.406483	0	0
10.52942	0.001973682	0.2831448	0.2338079	-0.1588943	-1.136914	0.771925	0	0
10.54593	0.01323607	0.2754882	0.6821157	-0.4637285	13.51595	-9.190392	0	0
10.56246	0.01939231	0.2712648	0.3724488	-0.2555136	-9.372472	6.301893	0	0
10.57902	0.02310115	0.268741	0.2238793	-0.152348	-4.489132	3.117223	0	0
10.59559	0.03017505	0.2639247	0.4270058	-0.290727	6.130722	-4.176526	0	0
10.61215	0.035012	0.2606294	0.2919591	-0.1989084	-4.075834	2.771169	0	0
10.62872	0.04087196	0.2566344	0.3537282	-0.241149	1.864249	-1.27486	0	0
10.6455	0.04244817	0.2555593	0.09396097	-0.06408826	-7.791131	5.310537	0	0
10.66185	0.04347259	0.2548605	0.06262366	-0.04272212	-0.9457892	0.6448501	0	0
10.67842	0.04347259	0.2548605	0	0	-1.902029	1.297572	0	0
10.69503	0.04347259	0.2548605	0	0	0	0	0	0
10.71156	0.04347259	0.2548605	0	0	0	0	0	0
10.72812	0.04347259	0.2548605	0	0	0	0	0	0
10.74469	0.04347259	0.2548605	0	0	0	0	0	0
10.76125	0.04347259	0.2548605	0	0	0	0	0	0
10.77782	0.04347259	0.2548605	0	0	0	0	0	0
10.79439	0.04347259	0.2548605	0	0	0	0	0	0
10.81111	0.04347259	0.2548605	0	0	0	0	0	0
10.82752	0.04347259	0.2548605	0	0	0	0	0	0
10.84414	0.04347259	0.2548605	0	0	0	0	0	0
10.86065	0.04347259	0.2548605	0	0	0	0	0	0
10.87722	0.04347259	0.2548605	0	0	0	0	0	0
10.89379	0.04347259	0.2548605	0	0	0	0	0	0
10.96005	0.04344633	0.2548784	-0.000396331	0.0002702922	-0.004784738	0.003263124	0	0
10.97673	0.04344633	0.2548784	0	0	0.004778466	-0.003258846	0	0
10.99319	0.04344633	0.2548784	0	0	0	0	0	0
11.00975	0.04344633	0.2548784	0	0	0	0	0	0
11.02632	0.04344633	0.2548784	0	0	0	0	0	0
11.04289	0.04344633	0.2548784	0	0	0	0	0	0
11.05945	0.04344633	0.2548784	0	0	0	0	0	0
11.0763	0.04344633	0.2548784	0	0	0	0	0	0
11.09259	0.04347259	0.2548605	0.001612546	-0.001099734	0.04866814	-0.03319098	0	0
11.12906	0.04347259	0.2548605	0	0	-0.03056373	0.02084403	0	0
11.14563	0.04347259	0.2548605	0	0	0	0	0	0
11.16236	0.04344633	0.2548425	-0.001569446	-0.00107034	-0.04712993	-0.03214195	0	0
11.17876	0.04344633	0.2548425	0	0	0.04736733	0.03230385	0	0
11.19533	0.04344633	0.2548425	0	0	0	0	0	0
11.21189	0.04344633	0.2548425	0	0	0	0	0	0
11.22846	0.04342006	0.2548246	-0.001585481	-0.001081122	-0.04785128	-0.03262927	0	0
11.24503	0.04342006	0.2548246	0	0	0.04785128	0.03262927	0	0
11.26159	0.04342006	0.2548246	0	0	0	0	0	0
11.27816	0.04342006	0.2548246	0	0	0	0	0	0
11.29473	0.04342006	0.2548246	0	0	0	0	0	0
11.31147	0.04339379	0.2548067	-0.001569221	-0.001071815	-0.04711645	-0.03218165	0	0
11.32798	0.04339379	0.2548067	0	0	0.04719483	0.03223518	0	0
11.34449	0.04336753	0.2547888	-0.001590792	-0.001084744	-0.04817241	-0.03284824	0	0
11.36099	0.04336753	0.2547888	0	0	0.04818215	0.03285488	0	0
11.37756	0.04334126	0.2547709	-0.001585256	-0.001081122	-0.04793417	-0.03269042	0	0
11.39452	0.04334126	0.2547709	0	0	0.04727571	0.03224136	0	0
11.41069	0.043315	0.2547529	-0.001624666	-0.001109686	-0.04903535	-0.03349231	0	0
11.42726	0.04328873	0.254735	-0.001585572	-0.001081184	0.001194311	0.0008707023	0	0
11.44383	0.04328873	0.2546992	0	-0.002164043	0.04785403	-0.03268168	0	0
11.46039	0.04326246	0.2546813	-0.001585572	-0.001081184	-0.04785403	0.03268168	0	0
11.47696	0.04313113	0.2545917	-0.007927859	-0.00540772	-0.1914216	-0.1305826	0	0
11.49352	0.04284219	0.2543945	-0.01744129	-0.01190022	-0.2871325	-0.1959554	0	0
11.5101	0.03974222	0.2523156	-0.1869962	-0.1254063	-5.115705	-3.424634	0	0
11.52666	0.02893929	0.2449825	-0.6525547	-0.4429601	-14.05139	-9.584343	0	0
11.54322	0.0247055	0.2420945	-0.2555666	-0.1743261	11.98595	8.110657	0	0
11.55979	0.01907663	0.2382547	-0.3397591	-0.2317738	-2.541007	-1.733826	0	0
11.57636	0.01255197	0.2338389	-0.3938519	-0.2665524	-1.632572	-1.049648	0	0
11.59292	0.007763002	0.2305706	-0.2890795	-0.1972828	3.16222	2.090679	0	0
11.60949	0.004526285	0.2283972	-0.1953799	-0.1311966	2.828022	1.994602	0	0
11.62606	-0.0002894737	0.2251091	-0.2906965	-0.1984791	-2.876827	-2.030709	0	0
11.64262	-0.001263157	0.2244442	-0.05877165	-0.04013553	6.999707	4.778957	0	0
11.65919	-0.004368393	0.2223233	-0.1874432	-0.1280286	-3.883427	-2.652694	0	0
11.67576	-0.006131502	0.2211188	-0.1064276	-0.07270738	2.445197	1.669693	0	0
11.69232	-0.006657796	0.2207592	-0.03176717	-0.02170429	2.253321	1.539321	0	0
11.70889	-0.006657796	0.2207592	0	0	0.9587628	0.6550555	0	0
11.72546	-0.006657796	0.2207592	0	0	0	0	0	0
11.82485	-0.006657796	0.2208311	0	0.0007236309	0	0.006240035	0	0
11.84142	-0.006710425	0.2208671	-0.003176878	0.002170464	-0.02739517	0.01247647	0	0
11.85799	-0.006710425	0.220903	0	0.002170339	0.09588113	-3.773523E-06	0	0
11.87455	-0.00673674	0.220921	-0.001588439	0.001084782	-0.04794056	-0.03276311	0	0
11.89112	-0.00673674	0.220957	0	0.002170464	0.04794194	0.03276782	0	0
11.90769	-0.00673674	0.2209929	0	0.002171363	0	2.714626E-05	0	0
11.92425	-0.00673674	0.2209929	0	0	0	-0.06553564	0	0
11.94082	-0.00673674	0.2210289	0	0.002170339	0	0.06550284	0	0
11.95742	-0.006763055	0.2210469	-0.001585	0.001082414	-0.0477845	-0.0327987	0	0
11.97709	-0.006763055	0.2210469	0	0	0.0437033	-0.02984548	0	0
11.99394	-0.00678937	0.2210648	-0.001561207	0.001067069	-0.04274936	0.02921875	0	0
12.01022	-0.00678937	0.2210648	0	0	0.04711732	-0.0322042	0	0
12.02679	-0.00678937	0.2210648	0	0	0	0	0	0
12.04348	-0.00678937	0.2210648	0	0	0	0	0	0
12.05992	-0.00678937	0.2210648	0	0	0	0	0	0
12.07649	-0.00678937	0.2210648	0	0	0	0	0	0
12.09305	-0.00678937	0.2210648	0	0	0	0	0	0
12.10962	-0.00678937	0.2210648	0	0	0	0	0	0
12.12619	-0.00678937	0.2210648	0	0	0	0	0	0
12.14275	-0.00678937	0.2210648	0	0	0	0	0	0
12.15932	-0.00678937	0.2210648	0	0	0	0	0	0
12.17589	-0.00678937	0.2210648	0	0	0	0	0	0
12.19258	-0.006763055	0.2210828	0.00157637	0.00107654	0.04739622	0.03236799	0	0
12.20902	-0.006763055	0.2210828	0	0	-0.0475763	-0.03249096	0	0
12.2256	-0.006763055	0.2210828	0	0	0	0	0	0
12.24215	-0.006763055	0.2210828	0	0	0	0	0	0
12.25872	-0.006763055	0.2210828	0	0	0	0	0	0
12.27529	-0.006763055	0.2210828	0	0	0	0	0	0
12.29185	-0.006763055	0.2210828	0	0	0	0	0	0
12.30842	-0.006763055	0.2210828	0	0	0	0	0	0
12.32499	-0.006763055	0.2210828	0	0	0	0	0	0
12.34168	-0.006763055	0.2210828	0	0	0	0	0	0
12.35812	-0.006763055	0.2210828	0	0	0	0	0	0
12.37469	-0.006763055	0.2210828	0	0	0	0	0	0
12.39125	-0.006763055	0.2210828	0	0	0	0	0	0
12.40782	-0.006763055	0.2210828	0	0	0	0	0	0
12.42438	-0.006763055	0.2210828	0	0	0	0	0	0
12.44095	-0.006763055	0.2210828	0	0	0	0	0	0
12.45776	-0.006763055	0.2210828	0	0	0	0	0	0
12.47408	-0.006763055	0.2210828	0	0	0	0	0	0
12.49065	-0.006763055	0.2210828	0	0	0	0	0	0
12.50722	-0.006763055	0.2210828	0	0	0	0	0	0
12.52382	-0.006763055	0.2210828	0	0	0	0	0	0
12.54035	-0.006763055	0.2210828	0	0	0	0	0	0
12.55692	-0.006763055	0.2210828	0	0	0	0	0	0
12.57348	-0.006763055	0.2210828	0	0	0	0	0	0
12.62318	-0.006763055	0.2210828	0	0	0	0	0	0
12.63989	-0.006763055	0.2210828	0	0	0	0	0	0
12.65632	-0.006763055	0.2210828	0	0	0	0	0	0
12.67292	-0.006763055	0.2210828	0	0	0	0	0	0
12.68945	-0.006763055	0.2210828	0	0	0	0	0	0
12.70602	-0.006763055	0.2210828	0	0	0	0	0	0
12.72258	-0.006763055	0.2210828	0	0	0	0	0	0
12.75571	-0.006763055	0.2210828	0	0	0	0	0	0
12.77228	-0.006763055	0.2210828	0	0	0	0	0	0
12.78885	-0.006763055	0.2210828	0	0	0	0	0	0
12.80551	-0.006763055	0.2210828	0	0	0	0	0	0
12.82556	-0.006763055	0.2210828	0	0	0	0	0	0
12.84213	-0.006763055	0.2210828	0	0	0	0	0	0
12.85905	-0.006763055	0.2210828	0	0	0	0	0	0
12.87526	-0.006763055	0.2210828	0	0	0	0	0	0
12.89183	-0.006763055	0.2210828	0	0	0	0	0	0
12.90839	-0.006763055	0.2210828	0	0	0	0	0	0
12.92509	-0.006763055	0.2210828	0	0	0	0	0	0
12.94153	-0.006763055	0.2210828	0	0	0	0	0	0
12.95811	-0.006763055	0.2210828	0	0	0	0	0	0
12.97466	-0.006763055	0.2210828	0	0	0	0	0	0
12.99123	-0.006763055	0.2210828	0	0	0	0	0	0
13.00779	-0.006763055	0.2210828	0	0	0	0	0	0
13.02436	-0.006763055	0.2210828	0	0	0	0	0	0
13.04093	-0.006763055	0.2210828	0	0	0	0	0	0
13.05768	-0.006763055	0.2210828	0	0	0	0	0	0
13.07406	-0.006763055	0.2210828	0	0	0	0	0	0
13.09071	-0.006763055	0.2210828	0	0	0	0	0	0
13.10722	-0.006763055	0.2210828	0	0	0	0	0	0
13.12376	-0.006763055	0.2210828	0	0	0	0	0	0
13.14033	-0.006763055	0.2210828	0	0	0	0	0	0
13.15689	-0.006763055	0.2210828	0	0	0	0	0	0
13.17346	-0.006763055	0.2210828	0	0	0	0	0	0
13.19003	-0.006763055	0.2210828	0	0	0	0	0	0
13.20659	-0.006763055	0.2210828	0	0	0	0	0	0
13.2233	-0.006763055	0.2210828	0	0	0	0	0	0
13.23973	-0.006763055	0.2210828	0	0	0	0	0	0
13.25629	-0.006763055	0.2210828	0	0	0	0	0	0
13.32256	-0.006763055	0.2210828	0	0	0	0	0	0
13.33912	-0.006763055	0.2210828	0	0	0	0	0	0
13.35569	-0.006763055	0.2210828	0	0	0	0	0	0
13.37226	-0.006763055	0.2210828	0	0	0	0	0	0
13.38882	-0.006763055	0.2210828	0	0	0	0	0	0
13.40539	-0.006763055	0.2210828	0	0	0	0	0	0
13.42196	-0.006763055	0.2210828	0	0	0	0	0	0
13.43852	-0.006763055	0.2210828	0	0	0	0	0	0
13.45509	-0.006763055	0.2210828	0	0	0	0	0	0
13.47166	-0.006763055	0.2210828	0	0	0	0	0	0
13.48822	-0.006763055	0.2210828	0	0	0	0	0	0
13.50479	-0.006763055	0.2210828	0	0	0	0	0	0
13.52151	-0.006763055	0.2210828	0	0	0	0	0	0
13.53792	-0.006763055	0.2210828	0	0	0	0	0	0
13.55453	-0.006763055	0.2210828	0	0	0	0	0	0
13.57106	-0.006763055	0.2210828	0	0	0	0	0	0
13.58762	-0.006763055	0.2210828	0	0	0	0	0	0
13.60419	-0.006763055	0.2210828	0	0	0	0	0	0
13.62076	-0.006763055	0.2210828	0	0	0	0	0	0
13.63732	-0.006763055	0.2210828	0	0	0	0	0	0
13.696	-0.006763055	0.2210828	0	0	0	0	0	0
13.71257	-0.006763055	0.2210828	0	0	0	0	0	0
13.72913	-0.006763055	0.2210828	0	0	0	0	0	0
13.74617	-0.006763055	0.2210828	0	0	0	0	0	0
13.76227	-0.006763055	0.2210828	0	0	0	0	0	0
13.7987	-0.006763055	0.2210828	0	0	0	0	0	0
13.81511	-0.006763055	0.2210828	0	0	0	0	0	0
13.83167	-0.006763055	0.2210828	0	0	0	0	0	0
13.84824	-0.006763055	0.2210828	0	0	0	0	0	0
13.86481	-0.006763055	0.2210828	0	0	0	0	0	0
13.89827	-0.006763055	0.2210828	0	0	0	0	0	0
13.91478	-0.006763055	0.2210828	0	0	0	0	0	0
13.93107	-0.00673674	0.2211008	0.001615531	0.001104179	0.04925297	0.0336633	0	0
13.94764	-0.006657796	0.2211547	0.004765043	0.003255058	0.09585808	0.06546385	0	0
13.96432	-0.006499908	0.2212626	0.009466385	0.006467458	0.1414106	0.09662504	0	0
13.98083	-0.006289391	0.2213705	0.01275017	0.006533205	0.09893957	0.001980933	0	0
13.99734	-0.006131502	0.2213705	0.009562095	0	-0.09654133	-0.1978387	0	0
14.01392	-0.006105187	0.2213525	0.001587188	-0.001083908	-0.2409953	-0.03275485	0	0
14.03047	-0.006078872	0.2213345	0.00158984	-0.00108662	8.004616E-05	-8.183817E-05	0	0
14.04704	-0.006052558	0.2213165	0.001588439	-0.001084782	-4.230121E-05	5.549354E-05	0	0
14.0636	-0.006026243	0.2212985	0.001588467	-0.001085682	8.467833E-07	-2.714977E-05	0	0
14.08017	-0.006026243	0.2212985	0	0	-0.04794279	0.03276782	0	0
14.1133	-0.006052558	0.2212806	-0.0007942107	-0.0005423754	-0.01598016	-0.01091303	0	0
14.12987	-0.006052558	0.2212806	0	0	0.01597986	0.01091282	0	0
14.14644	-0.006078872	0.2212985	-0.001588439	0.001084782	-0.04794056	0.03273973	0	0
14.163	-0.006078872	0.2212985	0	0	0.04794194	-0.03274067	0	0
14.17957	-0.006078872	0.2212985	0	0	0	0	0	0
14.19648	-0.006052558	0.2212806	0.001556013	-0.001062637	0.04647896	-0.03174157	0	0
14.2127	-0.006078872	0.2212626	-0.00162215	-0.001108723	-0.0959199	-0.001390898	0	0
14.22952	-0.006078872	0.2212626	0	0	0.04910215	0.03356081	0	0
14.24584	-0.006078872	0.2212626	0	0	0	0	0	0
14.2624	-0.006105187	0.2212446	-0.001588467	-0.001084782	-0.04830289	-0.03298659	0	0
14.27897	-0.006105187	0.2212087	0	-0.002170464	0.04794279	-0.03276782	0	0
14.32867	-0.004947328	0.2199141	0.02329662	-0.02604666	0.3515568	-0.3603029	0	0
14.34524	-0.002342101	0.2181338	0.1572609	-0.1074663	2.021583	-1.22866	0	0
14.3621	0.004421024	0.2133305	0.4011341	-0.2848913	7.295853	-5.30795	0	0
14.37837	0.01626172	0.2050848	0.727649	-0.5067297	9.854807	-6.695479	0	0
14.39494	0.02588895	0.198417	0.581134	-0.4024875	-4.46164	3.174359	0	0
14.41163	0.03916417	0.1890903	0.7951151	-0.5586203	6.433151	-4.693994	0	0
14.42814	0.04869831	0.1822454	0.577376	-0.4145205	-6.55666	4.339199	0	0
14.44464	0.05754167	0.1755021	0.536256	-0.4089084	-1.245919	0.1700433	0	0
14.4612	0.062812	0.163245	0.318136	-0.7398816	-6.598257	-10.01213	0	0
14.47777	0.06241881	0.1555742	-0.02373433	-0.4630364	-10.31826	8.355685	0	0
14.49433	0.06089829	0.1390376	-0.09178417	-0.9982109	-2.053866	-16.15253	0	0
14.5109	0.0597446	0.122706	-0.06964058	-0.9858317	0.6683333	0.3736256	0	0
14.52747	0.05880056	0.1110085	-0.05698264	-0.7060684	0.3820286	8.443518	0	0
14.54403	0.05814491	0.09610753	-0.03957723	-0.8994732	0.5253113	-5.837138	0	0
14.56074	0.05817114	0.08932836	0.001570262	-0.4058971	1.23685	14.83637	0	0
14.57717	0.05840718	0.07966519	0.01436471	-0.5880768	0.3861482	-5.498351	0	0
14.59373	0.05901036	0.06450957	0.03640804	-0.9147951	0.6679992	-9.900844	0	0
14.61485	0.06026903	0.05391704	0.05959867	-0.5015611	0.6153589	10.96509	0	0
14.63142	0.06108182	0.04918565	0.04905995	-0.2855875	-0.2796428	5.730818	0	0
14.648	0.06113425	0.03929582	0.00316293	-0.5965393	-1.384697	-9.381302	0	0
14.66481	0.06066232	0.03210374	-0.02807531	-0.4278592	-0.935609	5.052097	0	0
14.68132	0.0606361	0.02312169	-0.001587951	-0.5440049	0.7949287	-3.485723	0	0
14.69769	0.06021659	0.01739576	-0.0256304	-0.3498266	-0.731243	5.905869	0	0
14.71434	0.05874811	0.01106012	-0.08816034	-0.3803617	-1.893425	-0.9246116	0	0
14.73082	0.05554806	0.007080336	-0.1942175	-0.2415412	-3.200904	4.189731	0	0
14.74739	0.05525947	0.005708861	-0.01742015	-0.08278713	5.350539	4.804484	0	0
14.76396	0.05502335	0.000913716	-0.01425246	-0.2894355	0.09560388	-6.236841	0	0
14.78052	0.05192696	-0.002663611	-0.186909	-0.2159403	-5.210936	2.218154	0	0
14.79709	0.04917086	-0.004566815	-0.1663588	-0.1148776	0.6202266	3.050165	0	0
14.81365	0.04489087	-0.007678383	-0.2583553	-0.1878254	-2.776543	-2.201631	0	0
14.83022	0.04415549	-0.0082067	-0.04438784	-0.0318893	6.457738	4.706296	0	0
14.84694	0.04166009	-0.009999843	-0.1492819	-0.1072711	-3.151559	-2.264857	0	0
14.86345	0.03926928	-0.01171842	-0.1447934	-0.1040808	0.1350821	0.09601177	0	0
14.87996	0.03871748	-0.01211514	-0.03341791	-0.02402652	3.372579	2.424136	0	0
14.89649	0.03871748	-0.01211514	0	0	1.011495	0.7272358	0	0
14.91305	0.03871748	-0.01211514	0	0	0	0	0	0
14.92962	0.03871748	-0.01211514	0	0	0	0	0	0
14.94619	0.03871748	-0.01211514	0	0	0	0	0	0
14.96275	0.03871748	-0.01211514	0	0	0	0	0	0
14.97953	0.03871748	-0.01211514	0	0	0	0	0	0
14.99604	0.03871748	-0.01211514	0	0	0	0	0	0
15.01255	0.03871748	-0.01211514	0	0	0	0	0	0
15.02902	0.03874376	-0.01213403	0.001595893	-0.001147373	0.04839397	-0.03479303	0	0
15.04559	0.03874376	-0.01213403	0	0	-0.04831293	0.03473476	0	0
15.06215	0.03874376	-0.01213403	0	0	0	0	0	0
15.0791	0.03874376	-0.01213403	0	0	0	0	0	0
15.09529	0.03874376	-0.01213403	0	0	0	0	0	0
15.11185	0.03874376	-0.01213403	0	0	0	0	0	0
15.12863	0.03874376	-0.01213403	0	0	0	0	0	0
15.21125	0.03874376	-0.01213403	0	0	0	0	0	0
15.22782	0.03874376	-0.01213403	0	0	0	0	0	0
15.24438	0.03874376	-0.01213403	0	0	0	0	0	0
15.26095	0.03874376	-0.01213403	0	0	0	0	0	0
15.27752	0.03874376	-0.01213403	0	0	0	0	0	0
15.29425	0.03879631	-0.01217182	0.00314045	-0.002257998	0.09430666	-0.06780694	0	0
15.31077	0.0390328	-0.01234186	0.01431547	-0.01029343	0.3360539	-0.2416404	0	0
15.32728	0.03989987	-0.01296543	0.05253901	-0.03778414	1.157486	-0.8324746	0	0
15.34379	0.04349886	-0.01555546	0.2179633	-0.1568585	5.010541	-3.606648	0	0
15.36035	0.0499059	-0.02017358	0.3867741	-0.2787823	5.103532	-3.686031	0	0
15.37692	0.05937749	-0.02701856	0.5717393	-0.4131874	5.582745	-4.056705	0	0
15.39349	0.06572101	-0.0316156	0.3829175	-0.2774943	-5.698981	4.095462	0	0
15.41005	0.07315867	-0.03701929	0.4489644	-0.3261859	1.993414	-1.469601	0	0
15.42662	0.07710996	-0.0398963	0.238514	-0.1736666	-6.351772	4.603309	0	0
15.44318	0.08027449	-0.04220371	0.1910224	-0.1392834	-1.433382	1.037745	0	0
15.45975	0.0817908	-0.04331037	0.09153006	-0.06680202	-3.002857	2.187619	0	0
15.47638	0.08189537	-0.04338671	0.006288175	-0.004590897	-2.567949	1.874137	0	0
15.49288	0.08189537	-0.04338671	0	0	-0.1897884	0.1385615	0	0
15.50945	0.08189537	-0.04338671	0	0	0	0	0	0
15.53139	0.08189537	-0.04338671	0	0	0	0	0	0
15.54796	0.08189537	-0.04338671	0	0	0	0	0	0
15.56452	0.08189537	-0.04338671	0	0	0	0	0	0
15.58109	0.08189537	-0.04338671	0	0	0	0	0	0
15.59766	0.08189537	-0.04338671	0	0	0	0	0	0
15.61422	0.08189537	-0.04338671	0	0	0	0	0	0
15.63079	0.08189537	-0.04338671	0	0	0	0	0	0
15.64735	0.08189537	-0.04338671	0	0	0	0	0	0
15.66401	0.08189537	-0.04338671	0	0	0	0	0	0
15.68052	0.08186923	-0.04336762	-0.001582895	0.001155811	-0.04772655	0.03484936	0	0
15.69706	0.08186923	-0.04336762	0	0	0.04789732	-0.03497406	0	0
15.71362	0.08186923	-0.04336762	0	0	0	0	0	0
15.73019	0.08186923	-0.04336762	0	0	0	0	0	0
15.74707	0.08186923	-0.04336762	0	0	0	0	0	0
15.76332	0.08184309	-0.04334854	-0.001608523	0.00117419	-0.04854812	0.03543916	0	0
15.78009	0.08184309	-0.04334854	0	0	0.04870936	-0.03555686	0	0
15.7966	0.08184309	-0.04334854	0	0	0	0	0	0
15.81312	0.08184309	-0.04334854	0	0	0	0	0	0
15.82963	0.08184309	-0.04334854	0	0	0	0	0	0
15.84616	0.08184309	-0.04334854	0	0	0	0	0	0
15.86272	0.08184309	-0.04334854	0	0	0	0	0	0
15.87966	0.08184309	-0.04334854	0	0	0	0	0	0
15.89585	0.08184309	-0.04334854	0	0	0	0	0	0
15.91242	0.08184309	-0.04334854	0	0	0	0	0	0
15.92899	0.08184309	-0.04334854	0	0	0	0	0	0
15.94555	0.08184309	-0.04334854	0	0	0	0	0	0
15.96222	0.08184309	-0.04334854	0	0	0	0	0	0
15.97869	0.08184309	-0.04334854	0	0	0	0	0	0
15.99525	0.08184309	-0.04334854	0	0	0	0	0	0
16.01182	0.08184309	-0.04334854	0	0	0	0	0	0
16.02839	0.08184309	-0.04334854	0	0	0	0	0	0
16.04496	0.08184309	-0.04334854	0	0	0	0	0	0
16.06152	0.08184309	-0.04334854	0	0	0	0	0	0
16.07809	0.08184309	-0.04334854	0	0	0	0	0	0
16.09466	0.08184309	-0.04334854	0	0	0	0	0	0
16.11133	0.08176467	-0.04329129	-0.004703498	0.003433889	-0.1415039	0.1033079	0	0
16.14436	0.08158168	-0.04311953	-0.005540396	0.005200212	-0.01683906	0.03553985	0	0
16.16092	0.08009146	-0.04157424	-0.08994988	0.09327442	-1.70198	1.775873	0	0
16.17749	0.07590651	-0.03814309	-0.2526043	0.2071043	-4.90892	3.435393	0	0
16.19406	0.06889081	-0.03228103	-0.4234684	0.3538345	-5.156687	4.428325	0	0
16.21063	0.05885301	-0.0204577	-0.6058829	0.7136579	-5.505283	10.85949	0	0
16.22719	0.05389512	-0.00731993	-0.2992585	0.7929974	9.253944	2.394471	0	0
16.24376	0.05226814	0.008751659	-0.0982049	0.9700829	6.06781	5.344453	0	0
16.26033	0.05176949	0.03178666	-0.0300985	1.390396	2.055455	12.68506	0	0
16.2769	0.05211068	0.04840581	0.02059393	1.003134	1.529901	-11.68759	0	0
16.29346	0.05195321	0.06877943	-0.009504789	1.229754	-0.9083812	6.839426	0	0
16.31003	0.05213692	0.07846729	0.01108892	0.5847601	0.6215193	-19.46596	0	0
16.3266	0.05184823	0.09184648	-0.01742567	0.8075697	-0.860572	6.724408	0	0
16.3435	0.05197945	0.107457	0.007764449	0.9236467	0.7526573	3.468273	0	0
16.35973	0.05203194	0.1176649	0.003233787	0.6288879	-0.1367435	-8.896352	0	0
16.3763	0.05166451	0.1273045	-0.02217829	0.5818482	-0.7747875	-1.434191	0	0
16.39286	0.05192696	0.1389648	0.01584176	0.7038184	1.147447	3.681069	0	0
16.43272	0.0534228	0.1607798	0.03752941	0.547321	0.3843616	-2.773543	0	0
16.44957	0.05418376	0.171051	0.04515643	0.6095138	0.1344933	1.096695	0	0
16.46585	0.05449861	0.1757192	0.01933882	0.2867213	-0.7792218	-9.742457	0	0
16.48242	0.05499712	0.1842689	0.03008973	0.5160612	0.3272891	6.981778	0	0
16.49899	0.05544312	0.1914006	0.02692079	0.43047	-0.09563876	-2.583148	0	0
16.51562	0	0	-3.333505	-11.50792	-101.2197	-359.5974	0	0
16.53212	0.05751544	0.207138	3.485684	12.55346	205.8154	726.2155	0	0
16.54869	0.06024281	0.2132585	0.164624	0.3694379	-100.4321	-368.4568	0	0
16.56526	0.06317896	0.2149859	0.1772269	0.1042635	0.3803561	-8.002979	0	0
16.58217	0.0656686	0.216515	0.1472237	0.09042444	-0.896212	-0.4133806	0	0
16.59839	0.06579961	0.216533	0.008076131	0.001108723	-4.199723	-2.695709	0	0
16.61496	0.06579961	0.216533	0	0	-0.2463044	-0.03381363	0	0
16.63152	0.06587821	0.2164431	0.004744524	-0.005428995	0.14319	-0.1638474	0	0
16.64821	0.06590442	0.2163891	0.00156991	-0.003233559	-0.0954529	0.0660114	0	0
16.66472	0.06590442	0.2163531	0	-0.002178763	-0.04728471	0.03176979	0	0
16.68124	0.06590442	0.2162452	0	-0.006536437	0	-0.131963	0	0
16.69779	0.06595682	0.2161732	0.003166232	-0.00434738	0.09576103	0.06620689	0	0
16.71436	0.06600922	0.2160653	0.003162866	-0.006514614	-0.0001016268	-0.06543739	0	0
16.73092	0.06603543	0.2160473	0.001581658	-0.001085619	-0.04772096	0.1638474	0	0
16.74749	0.06600922	0.2160293	-0.00158184	-0.001086644	-0.09548006	-3.09234E-05	0	0
16.78062	0.06603543	0.2159754	0.000790829	-0.001628429	0.04774003	-0.01090115	0	0
16.79719	0.06600922	0.2159214	-0.001581658	-0.003257757	-0.04773453	-0.03278215	0	0
16.81376	0.06598302	0.2158674	-0.001581658	-0.003257757	0	0	0	0
16.83032	0.06595682	0.2158135	-0.001581208	-0.003257757	1.357235E-05	0	0	0
16.84689	0.06590442	0.2157775	-0.003163316	-0.002171238	-0.04774811	0.0327912	0	0
16.86346	0.06585202	0.2157055	-0.003162866	-0.004343376	1.357586E-05	-0.06555525	0	0
16.88003	0.06582581	0.2156875	-0.001581658	-0.001086519	0.04772096	0.09829215	0	0
16.89659	0.06574721	0.2156336	-0.004744524	-0.003256857	-0.09545548	-0.06550095	0	0
16.91316	0.0656686	0.2155796	-0.004744974	-0.003257757	-1.357586E-05	-2.714469E-05	0	0
16.92992	0.06556379	0.2154717	-0.006254891	-0.006442089	-0.04531116	-0.09555876	0	0
16.94643	0.06532796	0.2152738	-0.01428261	-0.01198542	-0.2413046	-0.1666268	0	0
17.04569	0.06331001	0.2137804	-0.02032865	-0.01504391	-0.05222103	-0.02641683	0	0
17.06251	0.06331001	0.2137804	0	0	0.1751215	0.129596	0	0
17.07902	0.06333622	0.2137624	0.001587408	-0.001090158	0.0476284	-0.03270899	0	0
17.09539	0.06333622	0.2137624	0	0	-0.04827487	0.03315295	0	0
17.11196	0.06333622	0.2137624	0	0	0	0	0	0
17.12856	0.06333622	0.2137624	0	0	0	0	0	0
17.14509	0.06336243	0.2137444	0.001585027	-0.001088524	0.04783898	-0.0328536	0	0
17.16166	0.06336243	0.2137444	0	0	-0.04788032	0.03288199	0	0
17.17823	0.06338865	0.2137264	0.001582108	-0.001085619	0.04774811	-0.03276405	0	0
17.1948	0.06338865	0.2137264	0	0	-0.04774811	0.03276405	0	0
17.21136	0.06338865	0.2137264	0	0	0	0	0	0
17.22793	0.06336243	0.2137444	-0.001582108	0.001085619	-0.04774811	0.03276405	0	0
17.2445	0.06336243	0.2137444	0	0	0.04774811	-0.03276405	0	0
17.26106	0.06336243	0.2137444	0	0	0	0	0	0
17.27767	0.06333622	0.2137624	-0.001578655	0.001084147	-0.04759184	0.03268388	0	0
17.2942	0.06333622	0.2137624	0	0	0.04764663	-0.0327215	0	0
17.31076	0.06331001	0.2137804	-0.001582108	0.001086519	-0.04780314	0.03282899	0	0
17.32733	0.0632576	0.2137804	-0.003163766	0	-0.04773453	-0.03279119	0	0
17.36339	0.06304791	0.2137444	-0.005814953	-0.0009983603	-0.0503764	-0.01897029	0	0
17.37996	0.06296927	0.2137264	-0.004746323	-0.001085619	0.02030551	-0.001658043	0	0
17.39675	0.06286442	0.2136904	-0.006243345	-0.002142781	-0.04487284	-0.03168815	0	0
17.41309	0.06265473	0.2135465	-0.01283313	-0.00881015	-0.19888	-0.2012216	0	0
17.42978	0.06262852	0.2135645	-0.001571254	0.001079065	0.3410423	0.2994742	0	0
17.44623	0.06257609	0.2136005	-0.003187047	0.0021875	-0.04876754	0.03345457	0	0
17.4628	0.06241881	0.2137084	-0.009488726	0.006513414	-0.1908111	0.1309861	0	0
17.47936	0.06231396	0.2138164	-0.006332021	0.006520315	0.09526954	0.0002082897	0	0
17.49593	0.06226153	0.2138524	-0.00316444	0.002172138	0.09561981	-0.1312585	0	0
17.51284	0.06223531	0.2138704	-0.001550382	0.001063699	0.04821555	-0.03311158	0	0
17.52906	0.0622091	0.2138884	-0.001615627	0.001109381	-0.00196909	0.001378684	0	0
17.54563	0.0620256	0.2140143	-0.01107483	0.007601157	-0.2884347	0.1979505	0	0
17.56219	0.0618421	0.2141403	-0.01107888	0.007604682	-0.0001222741	0.0001064066	0	0
17.57876	0.06092451	0.21477	-0.05538569	0.03801106	-1.337336	0.9177719	0	0
17.5954	0.05885301	0.2161912	-0.1245342	0.08544121	-2.082709	1.428567	0	0
17.61191	0.05082461	0.2216941	-0.4862182	0.3332644	-10.91188	7.476738	0	0
17.62846	0.04415549	0.2262592	-0.4028737	0.2757743	2.520566	-1.738658	0	0
17.64503	0.03766639	0.2306964	-0.391683	0.2678277	0.3378743	-0.2399259	0	0
17.6616	0.0296492	0.2361727	-0.4839182	0.3305499	-2.783665	1.892958	0	0
17.67816	0.02320636	0.2405695	-0.3888909	0.2653939	2.867929	-1.966412	0	0
17.69473	0.02028669	0.2425609	-0.1762315	0.1202033	6.418072	-4.381859	0	0
17.7113	0.01634065	0.2452515	-0.2381834	0.1624012	-1.869712	1.273536	0	0
17.77757	0.01199942	0.2482103	-0.06551113	0.04465041	2.084552	-1.421524	0	0
17.79413	0.01199942	0.2482103	0	0	0.7908701	-0.5390332	0	0
17.8107	0.01199942	0.2482103	0	0	0	0	0	0
17.82727	0.01202574	0.2481924	0.001588235	-0.001082921	0.04793303	-0.03268262	0	0
17.84383	0.01202574	0.2481924	0	0	-0.04793579	0.0326845	0	0
17.8604	0.01202574	0.2481924	0	0	0	0	0	0
17.87697	0.01202574	0.2481924	0	0	0	0	0	0
17.89361	0.01202574	0.2481924	0	0	0	0	0	0
17.9101	0.01202574	0.2481924	0	0	0	0	0	0
17.92667	0.01202574	0.2481924	0	0	0	0	0	0
17.94323	0.01205205	0.2481745	0.001588362	-0.001082146	0.04793961	-0.03266111	0	0
17.9598	0.01205205	0.2481745	0	0	-0.04793961	0.03266111	0	0
17.97637	0.01207836	0.2481207	0.001588179	-0.003246963	0.04793134	-0.09799355	0	0
17.99294	0.01207836	0.2481207	0	0	-0.04793134	0.09799355	0	0
18.0095	0.01210467	0.2481027	0.001588235	-0.001082021	0.04793303	-0.03265547	0	0
18.02607	0.01213098	0.2480848	0.001588362	-0.001082146	3.822823E-06	-3.759577E-06	0	0
18.04263	0.0121573	0.2480669	0.001588179	-0.001082021	-5.519903E-06	3.759577E-06	0	0
18.05923	0.01218361	0.2480489	0.001585623	-0.001081178	-7.706803E-05	2.542722E-05	0	0
18.07577	0.01220992	0.248031	0.001590926	-0.001083893	0.0001600561	-8.194122E-05	0	0
18.09233	0.01220992	0.248031	0	0	-0.04805575	0.03274023	0	0
18.1089	0.01220992	0.248031	0	0	0	0	0	0
18.12547	0.01220992	0.248031	0	0	0	0	0	0
18.14203	0.01223623	0.2480131	0.001588179	-0.001082021	0.04793409	-0.03265735	0	0
18.1586	0.01226254	0.2479593	0.001588235	-0.003246963	1.696983E-06	-0.06533808	0	0
18.1771	0.01226254	0.2479593	0	0	-0.04529196	0.09259418	0	0
18.19433	0.01228886	0.2479055	0.001527508	-0.003122924	0.04275782	-0.08741652	0	0
18.21024	0.01231517	0.2478876	0.001653869	-0.001126776	0.003813594	0.06024386	0	0
18.23208	0.01234148	0.2478338	0.001204376	-0.002462295	-0.01190522	-0.0353724	0	0
18.24865	0.0123941	0.2477621	0.003176358	-0.004328985	0.05133498	-0.048594	0	0
18.26522	0.01242041	0.2477441	0.001588179	-0.001082921	-0.04793134	0.0979664	0	0
18.28178	0.01242041	0.2477441	0	0	-0.04793134	0.03268262	0	0
18.2984	0.01242041	0.2477083	0	-0.002157584	0	-0.06501871	0	0
18.31492	0.01244673	0.2476903	0.001592947	-0.001086172	0.04807524	0.03233529	0	0
18.33149	0.01247304	0.2476724	0.001588179	-0.001082021	-0.0001441184	0.0001254553	0	0
18.34805	0.01249935	0.2476186	0.001588179	-0.003246963	0	-0.06533808	0	0
18.36462	0.01249935	0.2476186	0	0	-0.04793134	0.09799355	0	0
18.38146	0.01255197	0.2475827	0.003124558	-0.002129636	0.0935241	-0.06374416	0	0
18.39775	0.01257828	0.2475648	0.001614952	-0.001100262	-0.04555998	0.03106658	0	0
18.41432	0.01257828	0.247529	0	-0.002164942	-0.04914674	-0.03240069	0	0
18.43101	0.0126046	0.247511	0.001576867	-0.001074353	0.0474207	0.03279701	0	0
18.44745	0.01263091	0.2474931	0.001599782	-0.001089927	0.0006916182	-0.0004700491	0	0
18.46402	0.01265722	0.2474752	0.001588179	-0.001082921	-0.0003514608	0.0002122073	0	0
18.48059	0.01265722	0.2474393	0	-0.002164043	-0.04793134	-0.03262833	0	0
18.49716	0.01268353	0.2474214	0.001588179	-0.001082921	0.04793134	0.03262833	0	0
18.51372	0.01268353	0.2474214	0	0	-0.04793134	0.03268262	0	0
18.53029	0.01268353	0.2474214	0	0	0	0	0	0
18.54686	0.01268353	0.2474214	0	0	0	0	0	0
18.56359	0.01268353	0.2474214	0	0	0	0	0	0
18.57999	0.01268353	0.2474214	0	0	0	0	0	0
18.59661	0.01268353	0.2474214	0	0	0	0	0	0
18.61312	0.01268353	0.2474214	0	0	0	0	0	0
18.64625	0.01268353	0.2474214	0	0	0	0	0	0
18.66316	0.01268353	0.2474214	0	0	0	0	0	0
18.67939	0.01268353	0.2474214	0	0	0	0	0	0
18.69595	0.01268353	0.2474214	0	0	0	0	0	0
18.71252	0.01268353	0.2474214	0	0	0	0	0	0
18.72909	0.01270984	0.2474034	0.001588179	-0.001082021	0.04793134	-0.03265547	0	0
18.74572	0.01270984	0.2474034	0	0	-0.04783771	0.03259168	0	0
18.76223	0.01270984	0.2474034	0	0	0	0	0	0
18.77879	0.01270984	0.2474034	0	0	0	0	0	0
18.79536	0.01270984	0.2473676	0	-0.002164942	0	-0.0653569	0	0
18.81227	0.01270984	0.2473676	0	0	0	0.06466434	0	0
18.82849	0.01273615	0.2473496	0.001621978	-0.001105048	0.04895139	-0.03335043	0	0
18.84529	0.01273615	0.2473496	0	0	-0.04911537	0.03346215	0	0
18.8618	0.01273615	0.2473496	0	0	0	0	0	0
18.87819	0.01276246	0.2473317	0.001605497	-0.001093859	0.04879953	-0.03324814	0	0
18.89476	0.01278878	0.2473138	0.001588179	-0.001082921	-0.0005255177	0.0003319136	0	0
18.91134	0.0128414	0.2472779	0.003173435	-0.002162051	0.0478211	-0.03255323	0	0
18.92789	0.0128414	0.2472779	0	0	-0.09577997	0.0652546	0	0
18.94446	0.0128414	0.2472779	0	0	0	0	0	0
18.96103	0.01286771	0.24726	0.001588123	-0.001082921	0.04792964	-0.03268262	0	0
18.97759	0.01286771	0.24726	0	0	-0.04792964	0.03268262	0	0
18.99416	0.01289402	0.2472421	0.001588179	-0.001082021	0.04793134	-0.03265547	0	0
19.01073	0.01289402	0.2472421	0	0	-0.04793134	0.03265547	0	0
19.02743	0.01294664	0.2472062	0.003151628	-0.002148125	0.09474546	-0.06457777	0	0
19.04386	0.01297296	0.2471883	0.001600896	-0.001090686	-0.04680389	0.03191542	0	0
19.06045	0.01299927	0.2471345	0.001586114	-0.003242857	-0.0004476182	-0.06517024	0	0
19.07699	0.01313082	0.2470448	0.007951768	-0.005419393	0.1921269	-0.06569176	0	0
19.11495	0.0153409	0.2455384	0.058227	-0.0396875	0.9224715	-0.6287659	0	0
19.13152	0.01547245	0.2454488	0.00794022	-0.005411906	-0.922296	0.6286393	0	0
19.14808	0.01547245	0.2454488	0	0	-0.2396363	0.1633316	0	0
19.16465	0.01547245	0.2454488	0	0	0	0	0	0
19.18154	0.01547245	0.2454488	0	0	0	0	0	0
19.19778	0.01547245	0.2454488	0	0	0	0	0	0
19.21456	0.01547245	0.2454488	0	0	0	0	0	0
19.23108	0.01547245	0.2454488	0	0	0	0	0	0
19.24759	0.01547245	0.2454488	0	0	0	0	0	0
19.2641	0.01547245	0.2454488	0	0	0	0	0	0
19.28062	0.01547245	0.2454488	0	0	0	0	0	0
19.29763	0.01547245	0.2454488	0	0	0	0	0	0
19.31375	0.01547245	0.2454488	0	0	0	0	0	0
19.33066	0.01547245	0.2454488	0	0	0	0	0	0
19.34688	0.01547245	0.2454488	0	0	0	0	0	0
19.36368	0.01547245	0.2454488	0	0	0	0	0	0
19.38002	0.01547245	0.2454488	0	0	0	0	0	0
19.39658	0.01547245	0.2454488	0	0	0	0	0	0
19.41315	0.01547245	0.2454488	0	0	0	0	0	0
19.42972	0.01547245	0.2454488	0	0	0	0	0	0
19.44628	0.01547245	0.2454488	0	0	0	0	0	0
19.46285	0.01547245	0.2454488	0	0	0	0	0	0
19.47976	0.01547245	0.2454488	0	0	0	0	0	0
19.49598	0.01547245	0.2454488	0	0	0	0	0	0
19.51255	0.01547245	0.2454488	0	0	0	0	0	0
19.52912	0.01547245	0.2454488	0	0	0	0	0	0
19.5458	0.01547245	0.2454488	0	0	0	0	0	0
19.56231	0.01547245	0.2454488	0	0	0	0	0	0
19.57883	0.01547245	0.2454488	0	0	0	0	0	0
19.59538	0.01547245	0.2454488	0	0	0	0	0	0
19.61195	0.01547245	0.2454488	0	0	0	0	0	0
19.66165	0.01547245	0.2454488	0	0	0	0	0	0
19.67822	0.01547245	0.2454488	0	0	0	0	0	0
19.69479	0.01547245	0.2454488	0	0	0	0	0	0
19.71142	0.01547245	0.2454488	0	0	0	0	0	0
19.72793	0.01547245	0.2454488	0	0	0	0	0	0
19.74495	0.01547245	0.2454488	0	0	0	0	0	0
19.76105	0.01547245	0.2454488	0	0	0	0	0	0
19.77762	0.01547245	0.2454488	0	0	0	0	0	0
19.79419	0.01547245	0.2454488	0	0	0	0	0	0
19.811	0.01547245	0.2454488	0	0	0	0	0	0
19.82732	0.01547245	0.2454488	0	0	0	0	0	0
19.84389	0.01547245	0.2454488	0	0	0	0	0	0
19.86045	0.01547245	0.2454488	0	0	0	0	0	0
19.87702	0.01547245	0.2454488	0	0	0	0	0	0
19.89359	0.01547245	0.2454488	0	0	0	0	0	0
19.91016	0.01547245	0.2454488	0	0	0	0	0	0
19.92672	0.01547245	0.2454488	0	0	0	0	0	0
19.94329	0.01547245	0.2454488	0	0	0	0	0	0
19.95986	0.01547245	0.2454488	0	0	0	0	0	0
19.97642	0.01547245	0.2454488	0	0	0	0	0	0
19.99299	0.01547245	0.2454488	0	0	0	0	0	0
20.00956	0.01547245	0.2454488	0	0	0	0	0	0
20.04574	0.01547245	0.2454488	0	0	0	0	0	0
20.06231	0.01547245	0.2454488	0	0	0	0	0	0
20.07919	0.01547245	0.2454488	0	0	0	0	0	0
20.0957	0.01547245	0.2454488	0	0	0	0	0	0
20.11201	0.01547245	0.2454488	0	0	0	0	0	0
20.12873	0.01547245	0.2454488	0	0	0	0	0	0
20.14514	0.01547245	0.2454488	0	0	0	0	0	0
20.16175	0.01547245	0.2454488	0	0	0	0	0	0
20.17827	0.01547245	0.2454488	0	0	0	0	0	0
20.19484	0.01547245	0.2454488	0	0	0	0	0	0
20.21141	0.01547245	0.2454488	0	0	0	0	0	0
20.22797	0.01547245	0.2454488	0	0	0	0	0	0
20.24454	0.01547245	0.2454488	0	0	0	0	0	0
20.26111	0.01547245	0.2454488	0	0	0	0	0	0
20.27783	0.01547245	0.2454488	0	0	0	0	0	0
20.29424	0.01547245	0.2454488	0	0	0	0	0	0
20.37708	0.01347287	0.2440498	-0.02413898	-0.01688853	-0.2432166	-0.1701634	0	0
20.39365	0.005842039	0.2388469	-0.4605978	-0.3140479	-4.390784	-2.989429	0	0
20.41021	-0.004342078	0.2318996	-0.6147145	-0.4193377	-4.651251	-3.177651	0	0
20.42678	-0.01586709	0.2239949	-0.6956511	-0.4771301	-2.442672	-1.744177	0	0
20.44335	-0.03716709	0.2093167	-1.28567	-0.8859767	-17.80682	-12.33902	0	0
20.45992	-0.04615141	0.2029769	-0.5422951	-0.3826704	22.43511	15.18982	0	0
20.47648	-0.06480387	0.1899387	-1.125864	-0.7869884	-17.61216	-12.20234	0	0
20.49305	-0.07839166	0.179661	-0.8201605	-0.6203652	9.226161	5.028697	0	0
20.51	-0.0884528	0.1673756	-0.5935566	-0.7247727	6.760696	-3.114983	0	0
20.52651	-0.0945071	0.1529062	-0.3666623	-0.8763031	6.78055	-4.528363	0	0
20.55932	-0.1013099	0.1215741	-0.2073728	-0.9551175	3.229948	-1.598137	0	0
20.57588	-0.1073229	0.09706204	-0.3629884	-1.479719	-3.15204	-10.62595	0	0
20.59245	-0.1102355	0.087986	-0.1758064	-0.5478306	5.649489	28.12605	0	0
20.60907	-0.1158733	0.07610736	-0.3392457	-0.7147743	-4.924952	-5.03055	0	0
20.62558	-0.126997	0.06449108	-0.6735985	-0.7034277	-10.09137	0.3424583	0	0
20.64215	-0.1358683	0.05821671	-0.5354683	-0.3787214	4.175506	9.815476	0	0
20.65872	-0.1434036	0.05276719	-0.454833	-0.3289336	2.433578	1.502599	0	0
20.67528	-0.1527482	0.04602816	-0.5640425	-0.4067687	-3.295949	-2.349069	0	0
20.69185	-0.1555747	0.04398369	-0.1706068	-0.1234046	11.87391	8.551946	0	0
20.70842	-0.1565249	0.04325857	-0.05735913	-0.04377361	3.418018	2.403407	0	0
20.72498	-0.1584756	0.0418079	-0.1177496	-0.08756211	-1.822694	-1.321615	0	0
20.75817	-0.1588862	0.04136144	-0.01236882	-0.01345122	2.117828	1.489399	0	0
20.77468	-0.1581677	0.04084048	0.0435175	-0.03155371	1.124435	-0.3642228	0	0
20.79125	-0.1554976	0.0389049	0.1611849	-0.1168457	3.557557	-2.578718	0	0
20.80782	-0.1522855	0.03657714	0.1938869	-0.1405036	0.9870055	-0.7140378	0	0
20.82472	-0.1519512	0.03633497	0.01977098	-0.01432387	-5.201532	3.769487	0	0
20.84095	-0.1519255	0.03631634	0.001583987	-0.001148046	-0.5488846	0.3976472	0	0
20.85752	-0.1518741	0.03627908	0.003103953	-0.002249039	0.04634756	-0.03357203	0	0
20.87426	-0.1518226	0.03624183	0.003072662	-0.002225499	-0.0009394584	0.0007067538	0	0
20.89065	-0.1511797	0.03577606	0.03921611	-0.02841155	1.090811	-0.7902966	0	0
20.90722	-0.1486841	0.03396831	0.1506567	-0.1091281	3.381189	-2.448999	0	0
20.92379	-0.1452333	0.03146956	0.2082851	-0.1508251	1.739329	-1.25849	0	0
20.94035	-0.1436356	0.03031284	0.09644201	-0.06981972	-3.37543	2.444746	0	0
20.96099	-0.1392766	0.02712062	0.2112155	-0.1546804	3.084915	-2.28091	0	0
20.97756	-0.135119	0.0241125	0.2509525	-0.1815708	1.068064	-0.7227692	0	0
20.99413	-0.1315775	0.02151338	0.2137671	-0.1568831	-1.122257	0.745077	0	0
21.01069	-0.1293268	0.01988562	0.1358544	-0.09825168	-2.351411	1.7695	0	0
21.02726	-0.1271524	0.01831328	0.1312457	-0.09490667	-0.139091	0.1009525	0	0
21.04383	-0.1239663	0.01600965	0.1923115	-0.1390473	1.842971	-1.332166	0	0
21.06039	-0.1197143	0.01293578	0.2566827	-0.1855609	1.942837	-1.403864	0	0
21.07696	-0.1166003	0.01068487	0.1879619	-0.1358652	-2.074117	1.499905	0	0
21.09353	-0.1147308	0.009333613	0.1128437	-0.08156186	-2.267071	1.638878	0	0
21.1101	-0.1108854	0.006554356	0.2320808	-0.167737	3.598377	-2.600621	0	0
21.12694	-0.1096635	0.005671279	0.07252411	-0.05241558	-4.774752	3.451007	0	0
21.14323	-0.1097155	0.005708861	-0.003192987	0.002307812	-2.285278	1.65165	0	0
21.1598	-0.1097155	0.005708861	0	0	0.09719256	-0.07024839	0	0
21.17648	-0.1097155	0.005708861	0	0	0	0	0	0
21.19299	-0.1097155	0.005708861	0	0	0	0	0	0
21.2095	-0.1097155	0.005708861	0	0	0	0	0	0
21.22606	-0.1097155	0.005708861	0	0	0	0	0	0
21.24263	-0.1097155	0.005708861	0	0	0	0	0	0
21.2592	-0.1097155	0.005708861	0	0	0	0	0	0
21.27576	-0.1097155	0.005708861	0	0	0	0	0	0
21.29256	-0.1097415	0.005727652	-0.001548128	0.001118761	-0.04640206	0.03353263	0	0
21.3089	-0.1097415	0.005727652	0	0	0.04672528	-0.03376621	0	0
21.32558	-0.1097415	0.005727652	0	0	0	0	0	0
21.34209	-0.1097415	0.005727652	0	0	0	0	0	0
21.35861	-0.1097415	0.005727652	0	0	0	0	0	0
21.37516	-0.1097415	0.005727652	0	0	0	0	0	0
21.39173	-0.1097415	0.005727652	0	0	0	0	0	0
21.4083	-0.1097415	0.005727652	0	0	0	0	0	0
21.42486	-0.1097415	0.005727652	0	0	0	0	0	0
21.44143	-0.1097415	0.005727652	0	0	0	0	0	0
21.47456	-0.1097415	0.005727652	0	0	0	0	0	0
21.49113	-0.1097415	0.005727652	0	0	0	0	0	0
21.5077	-0.1097415	0.005727652	0	0	0	0	0	0
21.52427	-0.1097415	0.005727652	0	0	0	0	0	0
21.54083	-0.1097415	0.005727652	0	0	0	0	0	0
21.5574	-0.1097675	0.005746443	-0.001569516	0.001134217	-0.04736807	0.03423073	0	0
21.57397	-0.1097935	0.005765234	-0.001569066	0.001134217	1.357235E-05	0	0	0
21.59077	-0.1098975	0.005840396	-0.006187851	0.00447194	-0.1383915	0.1000073	0	0
21.6071	-0.1100275	0.005934347	-0.007962652	0.005755032	-0.0535667	0.03872602	0	0
21.62367	-0.1103135	0.006178606	-0.01726152	0.01474352	-0.2827072	0.273271	0	0
21.64023	-0.1106774	0.006441636	-0.02196737	0.01587648	-0.1420228	0.03419253	0	0
21.65682	-0.1110933	0.006779786	-0.02507195	0.02038497	-0.09363719	0.1359806	0	0
21.67337	-0.1122888	0.007906711	-0.07225144	0.06810758	-1.42388	1.440271	0	0
21.68994	-0.113458	0.009202213	-0.07057199	0.07819667	0.05071802	0.3046823	0	0
21.70651	-0.1136139	0.0104034	-0.009405301	0.07247877	1.845696	-0.1725369	0	0
21.72307	-0.1128085	0.01098507	0.04863511	0.03512605	1.751764	-1.127372	0	0
21.73964	-0.1074529	0.0148479	0.3232622	0.2331606	8.290172	5.978071	0	0
21.7562	-0.09946021	0.02059669	0.4824426	0.3469976	4.804072	3.435609	0	0
21.77617	-0.08228745	0.03288697	0.8599302	0.6154393	10.3316	7.347084	0	0
21.79274	-0.07033117	0.04139864	0.7216826	0.5137652	-3.783751	-2.782757	0	0
21.80931	-0.06171102	0.04751436	0.5203136	0.3691458	-6.07733	-4.364622	0	0
21.82587	-0.0396634	0.06308529	1.33095	0.939971	24.46647	17.22853	0	0
21.84244	-0.03156846	0.06877943	0.4886116	0.3436992	-25.4233	-17.99656	0	0
21.85901	-0.01502519	0.08038377	0.9985538	0.7004393	15.39009	10.76644	0	0
21.87557	-0.002394732	0.08921804	0.7623757	0.5332378	-7.127871	-5.046152	0	0
21.89214	0.01381491	0.1005296	0.978416	0.6827689	6.520112	4.51286	0	0
21.90871	0.02523149	0.1084825	0.6891059	0.4800343	-8.731398	-6.118543	0	0
21.92528	0.03947948	0.1183592	0.8600103	0.5961632	5.157907	3.504777	0	0
21.94184	0.04935462	0.1252612	0.5960652	0.4166057	-7.965881	-5.419058	0	0
21.95841	0.05827605	0.1314614	0.5384981	0.3742436	-1.737377	-1.27849	0	0
21.97498	0.06915271	0.1390194	0.6565169	0.4562002	3.561815	2.473455	0	0
21.99154	0.0742056	0.1425307	0.3049929	0.211944	-10.60902	-7.371667	0	0
22.00811	0.08270565	0.1484385	0.5130638	0.3565958	6.279595	4.3656	0	0
22.02468	0.08847892	0.152416	0.3484752	0.240081	-4.967296	-3.516422	0	0
22.04125	0.09309851	0.1555924	0.2788395	0.1917274	-2.101609	-1.459317	0	0
22.05781	0.09708852	0.1583318	0.2408374	0.1653496	-1.146904	-0.7960826	0	0
22.07438	0.1007889	0.1609067	0.2233551	0.1554252	-0.5276176	-0.299518	0	0
22.09095	0.1028724	0.162357	0.1257609	0.0875349	-2.945398	-2.048934	0	0
22.10765	0.1029766	0.1624295	0.006235636	0.004340278	-3.592597	-2.500599	0	0
22.12408	0.1030026	0.1624476	0.001584718	0.001103635	-0.140365	-0.0976821	0	0
22.14065	0.1030026	0.1624476	0	0	-0.04802315	-0.03344445	0	0
22.15722	0.1030547	0.1624838	0.003143079	0.002187428	0.0948583	0.06601671	0	0
22.17378	0.1030807	0.1624657	0.001571945	-0.00109384	-0.04741963	-0.09903457	0	0
22.25662	0.1031328	0.162212	0.0006286302	-0.003063369	-0.009490131	-0.01981426	0	0
22.27318	0.1030807	0.1621757	-0.003143079	-0.002188327	-0.03794419	0.008803107	0	0
22.28978	0.1030286	0.1621394	-0.003137748	-0.002184304	0.0001607175	0.0001213191	0	0
22.30632	0.1029766	0.1621032	-0.003149242	-0.002192619	-0.0003469071	-0.0002509571	0	0
22.32288	0.1029505	0.1620851	-0.001571764	-0.001093714	0.04765502	0.0331975	0	0
22.33945	0.1028464	0.1620126	-0.006286607	-0.004376655	-0.1422942	-0.09907936	0	0
22.35602	0.1027943	0.1619763	-0.003143079	-0.002188327	0.09487188	0.06604385	0	0
22.37259	0.1027943	0.1619763	0	0	0.0948583	0.06604385	0	0
22.38935	0.1027683	0.1619582	-0.001552991	-0.001080651	-0.04658778	-0.03241816	0	0
22.40572	0.1027683	0.1619582	0	0	0.04687206	0.03261598	0	0
22.42229	0.1027683	0.1619582	0	0	0	0	0	0
22.43885	0.1027422	0.1619763	-0.001571764	0.001093714	-0.04743594	0.03300836	0	0
22.45542	0.1027422	0.1619763	0	0	0.04743594	-0.03300836	0	0
22.47199	0.1027162	0.1619944	-0.001571764	0.001094613	-0.04743594	0.0330355	0	0
22.48893	0.1026641	0.1620307	-0.003074506	0.002140278	-0.04484941	0.03120792	0	0
22.50512	0.1025339	0.1621213	-0.008039302	0.005595999	-0.1498378	0.1042938	0	0
22.52169	0.1022995	0.1622844	-0.01414633	0.009846125	-0.1864027	0.1297252	0	0
22.53846	0.1015964	0.1627738	-0.04192223	0.0291765	-0.833099	0.5797873	0	0
22.55497	0.09492438	0.1673756	-0.4040706	0.2786961	-10.88018	7.496425	0	0
22.57139	0.0874344	0.1725351	-0.4562456	0.3142818	-1.584497	1.080698	0	0
22.58796	0.08223517	0.1761352	-0.3138624	0.2173278	4.317016	-2.939614	0	0
22.60501	0.0725828	0.1826971	-0.5660021	0.3847846	-7.499935	4.981028	0	0
22.62109	0.06658563	0.1867974	-0.3729825	0.2550082	5.82568	-3.916887	0	0
22.63766	0.05977083	0.1914908	-0.4113424	0.2832944	-1.17502	0.866449	0	0
22.65422	0.05489217	0.1948465	-0.2945103	0.2025745	3.526201	-2.436273	0	0
22.67105	0.04846203	0.1992643	-0.3819676	0.2624313	-2.618514	1.792144	0	0
22.68757	0.04386658	0.2024184	-0.278311	0.1910141	3.108502	-2.14169	0	0
22.70408	0.04163382	0.2039498	-0.1352209	0.09275009	4.332932	-2.975549	0	0
22.7404	0.03569536	0.2080203	-0.1635137	0.1120801	-0.5355469	0.3658926	0	0
22.77363	0.03259372	0.2101448	-0.09333377	0.06392951	1.009064	-0.6923206	0	0
22.79014	0.03164732	0.2107929	-0.05731566	0.0392466	0.7240747	-0.4962021	0	0
22.80666	0.03133185	0.2110089	-0.01909494	0.01307435	1.157033	-0.7922974	0	0
22.82323	0.03051684	0.2115669	-0.04919408	0.03367938	-0.9096506	0.6227213	0	0
22.84018	0.03004359	0.2118908	-0.02792562	0.01911666	0.6346138	-0.434526	0	0
22.85636	0.0300173	0.2119088	-0.001624152	0.001111995	0.7937799	-0.543382	0	0
22.8732	0.0300173	0.2119088	0	0	0.04918121	-0.03367249	0	0
22.8895	0.0300173	0.2119088	0	0	0	0	0	0
22.90606	0.0300173	0.2119088	0	0	0	0	0	0
22.92274	0.0300173	0.2119088	0	0	0	0	0	0
23.00546	0.02985954	0.2116209	-0.001906879	-0.003480808	-0.01918361	-0.03501767	0	0
23.02203	0.02980696	0.2115488	-0.003174362	-0.004346575	-0.01276486	-0.008719168	0	0
23.0386	0.02978067	0.2114949	-0.001586942	-0.003258656	0.04791119	0.03283533	0	0
23.05516	0.02975437	0.2114769	-0.001587055	-0.001086519	-3.393965E-06	0.06555524	0	0
23.07184	0.0296755	0.2113509	-0.004729471	-0.007554287	-0.09452272	-0.1945481	0	0
23.08835	0.02941257	0.2111349	-0.0159236	-0.013081	-0.3372764	-0.1665184	0	0
23.10487	0.02833452	0.2103609	-0.06527394	-0.04686598	-1.494213	-1.02293	0	0
23.12143	0.02675677	0.2092807	-0.0952551	-0.06521332	-0.9063462	-0.5546499	0	0
23.138	0.02667788	0.2091907	-0.00476129	-0.005432867	2.731266	1.804282	0	0
23.15457	0.02667788	0.2091907	0	0	0.143696	0.1639642	0	0
23.17114	0.02667788	0.2091907	0	0	0	0	0	0
23.20427	0.02670418	0.2091727	0.0007936854	-0.0005432905	0.01596898	-0.01093103	0	0
23.22095	0.02670418	0.2091727	0	0	-0.01593291	0.01090633	0	0
23.2374	0.02673047	0.2091547	0.001598505	-0.001094203	0.04824577	-0.03302501	0	0
23.25397	0.02675677	0.2091367	0.001586914	-0.001086268	-0.00035102	0.0002402768	0	0
23.27053	0.02678307	0.2091187	0.001587828	-0.001087794	2.758195E-05	-4.60355E-05	0	0
23.2871	0.02678307	0.2091187	0	0	-0.04792902	0.03283535	0	0
23.30367	0.02680936	0.2091007	0.001587279	-0.001086519	0.04790419	-0.03279119	0	0
23.32024	0.02686196	0.2090647	0.003174559	-0.002173037	0.04790419	-0.03279119	0	0
23.33703	0.02694085	0.2090106	0.004696415	-0.003215659	0.04561201	-0.03124875	0	0
23.35355	0.02696715	0.2089926	0.001592597	-0.001090158	-0.09317996	0.06380983	0	0
23.37006	0.02696715	0.2089926	0	0	-0.04822846	0.03301316	0	0
23.38657	0.02699344	0.2089746	0.001592597	-0.001091061	0.04822846	-0.03304049	0	0
23.40307	0.02699344	0.2089746	0	0	-0.04824239	0.03305004	0	0
23.41964	0.02699344	0.2089746	0	0	0	0	0	0
23.4362	0.02699344	0.2089746	0	0	0	0	0	0
23.45277	0.02699344	0.2089746	0	0	0	0	0	0
23.46934	0.02699344	0.2089746	0	0	0	0	0	0
23.4859	0.02699344	0.2089746	0	0	0	0	0	0
23.50321	0.02699344	0.2089746	0	0	0	0	0	0
23.52017	0.02699344	0.2089746	0	0	0	0	0	0
23.53634	0.02699344	0.2089746	0	0	0	0	0	0
23.55291	0.02699344	0.2089746	0	0	0	0	0	0
23.56948	0.02701974	0.2089566	0.001587279	-0.001086519	0.04790419	-0.03279119	0	0
23.58604	0.02701974	0.2089566	0	0	-0.04790419	0.03279119	0	0
23.60261	0.02701974	0.2089566	0	0	0	0	0	0
23.6228	0.02704603	0.2089386	0.001302299	-0.0008915077	0.03542858	-0.02425315	0	0
23.63937	0.02704603	0.2089386	0	0	-0.03542858	0.02425315	0	0
23.65627	0.02704603	0.2089386	0	0	0	0	0	0
23.6725	0.02707233	0.2089206	0.001619346	-0.001108468	0.04887195	-0.03345364	0	0
23.68907	0.02707233	0.2089206	0	0	-0.04936067	0.03378818	0	0
23.70564	0.02707233	0.2089206	0	0	0	0	0	0
23.72221	0.02709863	0.2089026	0.001587279	-0.001087418	0.04790419	-0.03281834	0	0
23.73877	0.02709863	0.2088666	0	-0.002173037	-0.04790419	-0.03276405	0	0
23.75534	0.02709863	0.2088666	0	0	0	0.06558239	0	0
23.77191	0.02717752	0.2088126	0.004761726	-0.003260455	0.1437092	-0.09840073	0	0
23.78848	0.02725641	0.2087586	0.004761838	-0.003260455	3.386938E-06	0	0	0
23.80504	0.0272827	0.2087406	0.001587167	-0.001086519	-0.09581178	0.06560953	0	0
23.82161	0.027309	0.2086866	0.001587279	-0.003260455	3.393965E-06	-0.06560953	0	0
23.83818	0.027309	0.2086866	0	0	-0.04790419	0.09840073	0	0
23.85474	0.0273353	0.2086686	0.001587279	-0.001086519	0.04790419	-0.03279119	0	0
23.87131	0.0273353	0.2086686	0	0	-0.04790419	0.03279119	0	0
23.88794	0.0273353	0.2086686	0	0	0	0	0	0
23.90445	0.0273353	0.2086686	0	0	0	0	0	0
23.92101	0.0273353	0.2086686	0	0	0	0	0	0
23.93758	0.0273353	0.2086686	0	0	0	0	0	0
23.95415	0.0273353	0.2086686	0	0	0	0	0	0
23.98728	0.02736159	0.2086505	0.0007936292	-0.0005437403	0.01596846	-0.0109405	0	0
24.00385	0.0273353	0.2086325	-0.001587167	-0.001086519	-0.04790355	-0.01092114	0	0
24.02041	0.0273353	0.2086325	0	0	0.0479008	0.03279119	0	0
24.03698	0.0273353	0.2086325	0	0	0	0	0	0
24.05354	0.02736159	0.2086145	0.001587167	-0.001086519	0.04790355	-0.03279308	0	0
24.07011	0.02738789	0.2085965	0.001587279	-0.001087418	3.393965E-06	-2.714469E-05	0	0
24.08668	0.02738789	0.2085965	0	0	-0.04790419	0.03281834	0	0
24.10325	0.02738789	0.2085965	0	0	0	0	0	0
24.11981	0.02736159	0.2085785	-0.001587462	-0.001086644	-0.04791246	-0.03279686	0	0
24.13638	0.02738789	0.2085605	0.001587279	-0.001086519	0.09581941	3.777145E-06	0	0
24.15295	0.02738789	0.2085605	0	0	-0.04790419	0.03279119	0	0
24.16964	0.02738789	0.2085605	0	0	0	0	0	0
24.18615	0.02741418	0.2085425	0.0015923	-0.001090032	0.04795633	-0.03282921	0	0
24.20266	0.02741418	0.2085425	0	0	-0.04821669	0.03300745	0	0
24.21921	0.02741418	0.2085425	0	0	0	0	0	0
24.23578	0.02738789	0.2085245	-0.001587167	-0.001087418	-0.0479201	-0.03283157	0	0
24.25235	0.02738789	0.2085245	0	0	0.0479008	0.03281834	0	0
24.26892	0.02738789	0.2085245	0	0	0	0	0	0
24.30205	0.02741418	0.2085065	0.0007935835	-0.0005432593	0.01596693	-0.0109304	0	0
24.33518	0.02741418	0.2085065	0	0	-0.01197554	0.008198034	0	0
24.35175	0.02741418	0.2085065	0	0	0	0	0	0
24.36832	0.02741418	0.2085065	0	0	0	0	0	0
24.38488	0.02741418	0.2085065	0	0	0	0	0	0
24.40145	0.02741418	0.2085065	0	0	0	0	0	0
24.41802	0.02741418	0.2085065	0	0	0	0	0	0
24.43459	0.02741418	0.2085065	0	0	0	0	0	0
24.45115	0.02741418	0.2085065	0	0	0	0	0	0
24.46772	0.02741418	0.2085065	0	0	0	0	0	0
24.4866	0.02741418	0.2085065	0	0	0	0	0	0
24.50317	0.02741418	0.2085065	0	0	0	0	0	0
24.51973	0.02741418	0.2085065	0	0	0	0	0	0
24.5363	0.02741418	0.2085065	0	0	0	0	0	0
24.58971	0.02741418	0.2085065	0	0	0	0	0	0
24.65191	0.02744048	0.2084885	0.0004227489	-0.0002893785	0.003656677	-0.002503055	0	0
24.6685	0.02741418	0.2084705	-0.001585272	-0.001086043	-0.0254849	-0.0101109	0	0
24.68505	0.02741418	0.2084705	0	0	0.0478436	0.03277683	0	0
24.70161	0.02741418	0.2084705	0	0	0	0	0	0
24.71818	0.02741418	0.2084705	0	0	0	0	0	0
24.73475	0.02744048	0.2084525	0.001587097	-0.001086393	0.04789592	-0.03278553	0	0
24.75131	0.02744048	0.2084525	0	0	-0.04790143	0.03278931	0	0
24.76807	0.02746678	0.2084345	0.001569571	-0.001074397	0.04710941	-0.03224715	0	0
24.78458	0.02744048	0.2084165	-0.001592781	-0.001091187	-0.09506783	-0.0005047509	0	0
24.80109	0.02749307	0.2083805	0.003184713	-0.002180065	0.144668	-0.03297249	0	0
24.81758	0.02746678	0.2083625	-0.001594694	-0.001092575	-0.144818	0.03295138	0	0
24.83415	0.02749307	0.2083445	0.001587167	-0.001086519	0.09625594	0.0001832217	0	0
24.85071	0.02751937	0.2083265	0.001587462	-0.001086644	8.91055E-06	-3.777145E-06	0	0
24.86728	0.02751937	0.2082904	0	-0.002173936	-0.04791246	-0.03281645	0	0
24.93369	0.02767714	0.2081824	0.002375883	-0.001626856	0.02863425	0.006593436	0	0
24.95012	0.02767714	0.2081464	0	-0.002192107	-0.02868172	-0.006823725	0	0
24.96668	0.02772973	0.2081104	0.003174447	-0.002173936	0.09620371	0.0005506782	0	0
24.98325	0.02778232	0.2080744	0.003174334	-0.002173936	-3.393965E-06	0	0	0
24.99982	0.0279138	0.2079843	0.007935948	-0.005434392	0.1437058	-0.09840073	0	0
25.01638	0.02820305	0.2077863	0.01745895	-0.0119553	0.2874047	-0.1968014	0	0
25.03295	0.02883411	0.2073541	0.03809122	-0.02608634	0.6226832	-0.4264755	0	0
25.04952	0.0293074	0.2070299	0.02855757	-0.01955957	-0.2876765	0.1969442	0	0
25.06608	0.03028022	0.2063636	0.05874661	-0.04023951	0.9111596	-0.6241575	0	0
25.08265	0.03038538	0.2062915	0.006347881	-0.004347873	-1.581761	1.083461	0	0
25.09922	0.03038538	0.2062915	0	0	-0.1915794	0.1312191	0	0
25.11579	0.03038538	0.2062915	0	0	0	0	0	0
25.13235	0.03038538	0.2062915	0	0	0	0	0	0
25.14892	0.03038538	0.2062915	0	0	0	0	0	0
25.16549	0.03038538	0.2062915	0	0	0	0	0	0
25.18205	0.03038538	0.2062915	0	0	0	0	0	0
25.19862	0.03038538	0.2062915	0	0	0	0	0	0
25.21539	0.03038538	0.2062915	0	0	0	0	0	0
25.2319	0.03041167	0.2063095	0.001592442	0.001090284	0.0478534	0.03276339	0	0
25.24841	0.03041167	0.2063095	0	0	-0.04821821	-0.03301316	0	0
25.26488	0.03041167	0.2063095	0	0	0	0	0	0
25.28145	0.03041167	0.2063095	0	0	0	0	0	0
25.29845	0.03041167	0.2063095	0	0	0	0	0	0
25.31458	0.03041167	0.2063095	0	0	0	0	0	0
25.33115	0.03041167	0.2063095	0	0	0	0	0	0
25.34798	0.03041167	0.2063095	0	0	0	0	0	0
25.36428	0.03041167	0.2063095	0	0	0	0	0	0
25.38085	0.03041167	0.2063095	0	0	0	0	0	0
25.39752	0.03041167	0.2063095	0	0	0	0	0	0
25.41398	0.03041167	0.2063095	0	0	0	0	0	0
25.43055	0.03041167	0.2063095	0	0	0	0	0	0
25.44712	0.03038538	0.2063276	-0.001587125	0.001087543	-0.04790228	0.03282401	0	0
25.46368	0.03038538	0.2063276	0	0	0.04790228	-0.03282401	0	0
25.48371	0.03038538	0.2063276	0	0	0	0	0	0
25.5006	0.03038538	0.2063276	0	0	0	0	0	0
25.51684	0.03041167	0.2063095	0.001618431	-0.001108995	0.04884435	-0.03346954	0	0
25.53361	0.03041167	0.2063095	0	0	-0.04902213	0.03359136	0	0
25.55012	0.03038538	0.2062915	-0.001592258	-0.001090158	-0.04784239	-0.03275585	0	0
25.63281	0.0303328	0.2062555	-0.0006359562	-0.0004357598	0.009640396	0.006596932	0	0
25.64969	0.03028022	0.2062195	-0.003114365	-0.002133169	-0.02489129	-0.01704751	0	0
25.66594	0.03022763	0.2062195	-0.003236103	0	-0.003674267	0.06438287	0	0
25.68251	0.03022763	0.2062195	0	0	0.0986195	0	0	0
25.69907	0.03017505	0.2062555	-0.003173997	0.002173936	-0.09579693	0.06561331	0	0
25.71574	0.03014876	0.2062735	-0.001577679	0.00108107	0.04803595	-0.03288622	0	0
25.73225	0.03014876	0.2062735	0	0	0.04755422	-0.0325855	0	0
25.74877	0.03012246	0.2062915	-0.001591268	0.001090305	-0.04816876	0.03300427	0	0
25.76534	0.03009617	0.2063095	-0.001586942	0.001086519	0.0001307353	-0.000114429	0	0
25.78191	0.03004359	0.2063456	-0.003173997	0.002174836	-0.0478974	0.03284548	0	0
25.79848	0.02996471	0.2063996	-0.004760939	0.003261355	-0.04789402	0.0327912	0	0
25.81531	0.02991213	0.2064356	-0.003123296	0.002139211	0.04902624	-0.0335937	0	0
25.83161	0.02985954	0.2064356	-0.003226485	0	-0.00311424	-0.06456151	0	0
25.84818	0.02975437	0.2063996	-0.006347993	-0.002173936	-0.09497821	-0.06614641	0	0
25.86485	0.02938627	0.2061835	-0.02208126	-0.01296482	-0.4733596	-0.3246602	0	0
25.88131	0.0241795	0.203085	-0.3162844	-0.1882142	-8.87958	-5.289341	0	0
25.89788	0.01384122	0.1975877	-0.6239478	-0.3317835	-9.314253	-4.34644	0	0
25.91444	-0.005315739	0.1907328	-1.156583	-0.4138538	-16.07588	-2.47703	0	0
25.93101	-0.02318006	0.1874655	-1.078292	-0.1972175	2.363079	6.538849	0	0
25.9479	-0.04297353	0.1856055	-1.171537	-0.1100894	-2.786547	2.603752	0	0
25.96414	-0.05670231	0.184865	-0.8455113	-0.04560672	9.84005	1.946203	0	0
25.98093	-0.08978428	0.1836366	-1.970739	-0.07317528	-34.07322	-0.8348081	0	0
25.99744	-0.1078691	0.1827694	-1.095388	-0.05252589	26.28954	0.6201656	0	0
26.01384	-0.1188841	0.1822996	-0.671513	-0.02864008	12.87856	0.7257209	0	0
26.03041	-0.1439964	0.1809081	-1.515782	-0.08399022	-25.60687	-1.678781	0	0
26.04698	-0.1559856	0.1794983	-0.7236681	-0.08509742	23.90606	-0.03341539	0	0
26.06354	-0.1707934	0.1779073	-0.893902	-0.09604113	-5.137965	-0.3303006	0	0
26.08011	-0.174471	0.1778712	-0.2219835	-0.002182931	20.27971	2.832809	0	0
26.09668	-0.188473	0.1783051	-0.8451621	0.02619247	-18.80757	0.8563713	0	0
26.11324	-0.1979775	0.1790464	-0.5736908	0.04474154	8.193021	0.5598119	0	0
26.12981	-0.2099393	0.1807816	-0.7220972	0.1047523	-4.479171	1.811232	0	0
26.14637	-0.2185073	0.18239	-0.5172298	0.09709089	6.183621	-0.2312473	0	0
26.16306	-0.2248434	0.1854068	-0.3798192	0.1808496	4.133025	2.519288	0	0
26.17957	-0.2305875	0.1895597	-0.3479189	0.2515334	0.9610919	2.129564	0	0
26.19608	-0.2332794	0.1915088	-0.1630489	0.1180612	5.598723	-4.042162	0	0
26.21264	-0.2370871	0.1942693	-0.2298593	0.1666406	-2.019946	1.46875	0	0
26.22921	-0.2382057	0.195081	-0.06751705	0.04899407	4.899781	-3.550783	0	0
26.24578	-0.2382057	0.195081	0	0	2.037669	-1.478644	0	0
26.26234	-0.2382057	0.195081	0	0	0	0	0	0
26.27914	-0.2382057	0.195081	0	0	0	0	0	0
26.29565	-0.2382057	0.195081	0	0	0	0	0	0
26.31217	-0.2382057	0.195081	0	0	0	0	0	0
26.32861	-0.2382057	0.195081	0	0	0	0	0	0
26.34518	-0.2382057	0.195081	0	0	0	0	0	0
26.36174	-0.2381809	0.195063	0.00149936	-0.001089217	0.04525337	-0.03287452	0	0
26.38153	-0.238156	0.1950449	0.001256024	-0.0009111446	-0.006693137	0.004898018	0	0
26.3981	-0.2381312	0.1950269	0.001500259	-0.001089217	0.006717876	-0.004898018	0	0
26.41467	-0.2381312	0.1950269	0	0	-0.04527791	0.03287263	0	0
26.43123	-0.2381312	0.1950269	0	0	0	0	0	0
26.4478	-0.2381063	0.1950088	0.001500086	-0.001088192	0.0452727	-0.0328417	0	0
26.46477	-0.2380566	0.1949728	0.00292848	-0.002125892	0.04258927	-0.03094027	0	0
26.48093	-0.2380566	0.1949728	0	0	-0.08839188	0.06416694	0	0
26.4975	-0.2380317	0.1949547	0.001500432	-0.001088443	0.04584791	-0.03325897	0	0
26.51406	-0.237982	0.1949187	0.003000518	-0.002177534	0.0452753	-0.03287074	0	0
26.53063	-0.2379572	0.1949006	0.001500259	-0.001089217	-0.04527791	0.03284548	0	0
26.5472	-0.2379323	0.1948826	0.001499532	-0.001088443	-2.193555E-05	2.336208E-05	0	0
26.58035	-0.2379075	0.1948645	0.000749698	-0.0005442951	-0.01508149	0.01094449	0	0
26.5969	-0.2378826	0.1948465	0.001502161	-0.001089697	0.01514017	-0.01097394	0	0
26.61346	-0.2378826	0.1948465	0	0	-0.04536404	0.03290797	0	0
26.63003	-0.2378578	0.1948285	0.001500259	-0.001089217	0.04527791	-0.03287263	0	0
26.6466	-0.2378578	0.1948285	0	0	-0.0452727	0.03286884	0	0
26.66317	-0.2378329	0.1948104	0.001500605	-0.001088568	0.04528834	-0.03285305	0	0
26.67973	-0.2378329	0.1948104	0	0	-0.04529355	0.03285683	0	0
26.6963	-0.2378329	0.1948104	0	0	0	0	0	0
26.71287	-0.2378081	0.1947924	0.001500259	-0.001088317	0.04527791	-0.03284548	0	0
26.72943	-0.2378081	0.1947924	0	0	-0.04527791	0.03284548	0	0
26.746	-0.2377832	0.1947744	0.001500432	-0.001089342	0.04528573	-0.03287831	0	0
26.76257	-0.2377335	0.1947383	0.003000518	-0.002177534	0.0452753	-0.03284359	0	0
26.7795	-0.2376838	0.1947022	0.002936507	-0.002130442	-0.00191073	0.001405713	0	0
26.81227	-0.2375595	0.194612	0.003792785	-0.00275227	0.017229	-0.01251169	0	0
26.82883	-0.2375098	0.194576	0.003001417	-0.002177534	-0.01604115	0.01165	0	0
26.84554	-0.23746	0.1945399	0.002976403	-0.002159386	-0.0007517838	0.0005454153	0	0
26.86197	-0.2373855	0.1944858	0.004539451	-0.003294821	0.04717559	-0.03426947	0	0
26.87853	-0.2373606	0.1944677	0.001501158	-0.001088317	-0.09208811	0.0668773	0	0
26.8951	-0.2373606	0.1944677	0	0	-0.04530505	0.03284548	0	0
26.91167	-0.2373606	0.1944677	0	0	0	0	0	0
26.92824	-0.2373606	0.1944677	0	0	0	0	0	0
26.9448	-0.2373358	0.1944858	0.001500259	0.001088317	0.04527791	0.03284548	0	0
26.96162	-0.2372612	0.1945399	0.004434672	0.003217485	0.08788789	0.06377019	0	0
26.97794	-0.2370871	0.194594	0.0106691	0.003317024	0.1881664	0.003004261	0	0
26.9945	-0.2369131	0.1945399	0.01050631	-0.003265852	-0.004951333	-0.200216	0	0
27.01116	-0.2354952	0.1938363	0.08512163	-0.04223653	2.245819	-1.172964	0	0
27.02767	-0.2337527	0.1927178	0.1055324	-0.06774233	0.6153597	-0.7689698	0	0
27.0442	-0.2272428	0.1891264	0.3937998	-0.2172501	8.724031	-4.524654	0	0
27.06077	-0.2172028	0.1838715	0.606012	-0.3171906	6.411591	-3.019513	0	0
27.07734	-0.2105433	0.1820105	0.4019678	-0.1123279	-6.158066	6.182769	0	0
27.12704	-0.1493789	0.1846121	1.230678	0.05234618	12.50562	2.485008	0	0
27.14376	-0.1358941	0.1861473	0.8064252	0.09180913	-6.387278	0.5941291	0	0
27.16027	-0.1091175	0.188982	1.622028	0.171717	24.5443	2.404704	0	0
27.17678	-0.08576279	0.1925915	1.414578	0.2186236	-6.28292	1.420633	0	0
27.1933	-0.07030499	0.1951712	0.935296	0.1560868	-14.50735	-1.892923	0	0
27.20987	-0.05654492	0.1978221	0.8305593	0.1600078	-3.164785	0.1184807	0	0
27.22644	-0.04546864	0.2005261	0.6685658	0.1632161	-4.888976	0.09682607	0	0
27.24301	-0.035012	0.2029769	0.6311638	0.147932	-1.128792	-0.4612752	0	0
27.25957	-0.0248107	0.2069399	0.615752	0.239205	-0.4651307	2.754623	0	0
27.27614	-0.02068126	0.2099108	0.2492532	0.179325	-11.06095	-1.80718	0	0
27.29612	-0.01392015	0.2145001	0.3383381	0.2296571	2.437307	1.377054	0	0
27.31269	-0.01247304	0.2154896	0.0873481	0.05972794	-6.866933	-4.649158	0	0
27.32926	-0.009499714	0.2174863	0.1794702	0.1205208	2.78025	1.834733	0	0
27.34591	-0.00939446	0.2175583	0.006321089	0.00432059	-5.212448	-3.49807	0	0
27.36241	-0.00939446	0.2175583	0	0	-0.1906501	-0.1303131	0	0
27.37896	-0.009341833	0.2175943	0.003180977	0.002174242	0.09625141	0.06578917	0	0
27.39552	-0.00931552	0.2175763	0.001588291	-0.001085619	-0.04810058	-0.0984508	0	0
27.41209	-0.00931552	0.2175763	0	0	-0.04793473	0.03276405	0	0
27.42866	-0.009262893	0.2176122	0.003176526	0.002171238	0.09586776	0.06552809	0	0
27.44523	-0.008236656	0.2183496	0.06194381	0.04450858	1.7736	1.277744	0	0
27.46199	-0.007605116	0.2188172	0.03767736	0.02789582	-0.728088	-0.4984476	0	0
27.4785	-0.007499859	0.2188891	0.006375353	0.004356624	-0.9407972	-0.707482	0	0
27.49493	-0.007368288	0.218979	0.008008062	0.005472559	0.04956627	0.0338779	0	0
27.5115	-0.00726303	0.219051	0.006353334	0.004342476	-0.05014763	-0.03424791	0	0
27.52806	-0.00726303	0.219051	0	0	-0.191744	-0.1310562	0	0
27.54463	-0.007236716	0.219033	0.001588347	-0.001085619	0.04793642	-0.03276405	0	0
27.5612	-0.007236716	0.219033	0	0	-0.04793642	0.03276405	0	0
27.57776	-0.007236716	0.219033	0	0	0	0	0	0
27.59433	-0.007210401	0.219015	0.001588347	-0.001085619	0.04793642	-0.03276405	0	0
27.6109	-0.007236716	0.218997	-0.00158853	-0.001085744	-0.09588388	-3.773632E-06	0	0
27.62761	-0.007236716	0.218997	0	0	0.04773585	0.03262696	0	0
27.64412	-0.00726303	0.218979	-0.001594037	-0.001089507	-0.04798383	-0.03279645	0	0
27.66063	-0.00726303	0.218979	0	0	0.04827485	0.03299536	0	0
27.67716	-0.007289344	0.2189611	-0.001591434	-0.001087748	-0.0481571	-0.03291546	0	0
27.69373	-0.007341973	0.2189251	-0.003176695	-0.002170339	-0.04789013	-0.03270466	0	0
27.7103	-0.007368288	0.2188711	-0.001588319	-0.003256857	0.04793727	-0.0327912	0	0
27.72687	-0.007394602	0.2188532	-0.001588347	-0.001085619	-8.467346E-07	0.0655281	0	0
27.74343	-0.007447231	0.2188172	-0.003176667	-0.002170339	-0.04793558	-0.0327369	0	0
27.7602	-0.007473545	0.2187632	-0.001569198	-0.003217591	0.0482193	-0.03141446	0	0
27.77671	-0.007473545	0.2186194	0	-0.008714151	0.0471522	-0.1651639	0	0
27.79313	-0.007368288	0.2184395	0.006410187	-0.01095148	0.1946588	-0.06794106	0	0
27.8097	-0.007078829	0.2182057	0.01747174	-0.01411215	0.3353246	-0.095814	0	0
27.82627	-0.004710491	0.216587	0.1429532	-0.09770931	3.787037	-2.522968	0	0
27.84283	-0.0007894735	0.2139063	0.2366731	-0.1618031	2.828474	-1.934355	0	0
27.8594	0.002605257	0.2115849	0.2049064	-0.1401258	-0.9587227	0.6542222	0	0
27.87597	0.0070262	0.2085605	0.2668486	-0.1825486	1.869421	-1.280323	0	0
27.89254	0.007420917	0.2082904	0.02382513	-0.01630227	-7.334464	5.017324	0	0
27.9091	0.008210341	0.2077142	0.04764978	-0.03478029	0.7190293	-0.5576675	0	0
27.92567	0.01031542	0.2062735	0.127063	-0.08696106	2.396696	-1.574819	0	0
27.94224	0.01207836	0.2050667	0.106411	-0.07284171	-0.6232785	0.4261228	0	0
27.95885	0.01263091	0.2046884	0.03326755	-0.02277629	-2.204682	1.509066	0	0
27.97537	0.01263091	0.2046884	0	0	-1.004017	0.6873898	0	0
27.99194	0.01263091	0.2046884	0	0	0	0	0	0
28.00851	0.01263091	0.2046884	0	0	0	0	0	0
28.0254	0.0126046	0.2047065	-0.001557868	0.001066664	-0.04656357	0.03188184	0	0
28.04164	0.01257828	0.2047245	-0.001619635	0.001108995	-0.001864137	0.00127755	0	0
28.05821	0.01255197	0.2047425	-0.001588179	0.001087418	0.0009586809	-0.000657603	0	0
28.07478	0.01252566	0.2047605	-0.001588179	0.001087418	0	0	0	0
28.09134	0.01252566	0.2047605	0	0	0.04793134	-0.03281834	0	0
28.10791	0.01255197	0.2047785	0.001588179	0.001087418	0.04793134	0.03281834	0	0
28.12791	0.01249935	0.2048146	-0.002631614	0.001801853	-0.1154088	0.01953937	0	0
28.14448	0.01247304	0.2048326	-0.001587265	0.001086792	0.02855487	-0.01955138	0	0
28.16104	0.01242041	0.2048686	-0.003178187	0.002175189	-0.04801412	0.03284787	0	0
28.17761	0.01236779	0.2049046	-0.003176358	0.002174836	5.52258E-05	-1.064873E-05	0	0
28.19452	0.01220992	0.2050487	-0.009335667	0.008521846	-0.183982	0.1895887	0	0
28.21103	0.01207836	0.2051388	-0.007967552	0.005454401	0.04093398	-0.09177794	0	0
28.24388	0.01155212	0.2055351	-0.0160222	0.01206537	-0.1631934	0.1339433	0	0
28.26044	0.009447088	0.2069759	-0.1270599	0.08696915	-2.24719	1.51591	0	0
28.27708	0.009026071	0.207264	-0.02530481	0.01731772	3.064447	-2.097616	0	0
28.29358	0.008999757	0.2072821	-0.001595086	0.00109207	0.715561	-0.4896912	0	0
28.31014	0.008999757	0.2072821	0	0	0.04824254	-0.03302908	0	0
28.32671	0.008999757	0.2072821	0	0	0	0	0	0
28.34328	0.008999757	0.2072821	0	0	0	0	0	0
28.35985	0.008999757	0.2072821	0	0	0	0	0	0
28.37641	0.008999757	0.2072821	0	0	0	0	0	0
28.39298	0.008999757	0.2072821	0	0	0	0	0	0
28.40955	0.008999757	0.2072821	0	0	0	0	0	0
28.42611	0.008999757	0.2072821	0	0	0	0	0	0
28.44268	0.009026071	0.207264	0.001588291	-0.001087418	0.04793749	-0.03282023	0	0
28.45925	0.009026071	0.207264	0	0	-0.04793473	0.03281834	0	0
28.47581	0.009052385	0.207246	0.001588291	-0.001086519	0.04793473	-0.03279119	0	0
28.49238	0.009052385	0.207246	0	0	-0.04793473	0.03279119	0	0
28.50895	0.009052385	0.207246	0	0	0	0	0	0
28.52552	0.009052385	0.207246	0	0	0	0	0	0
28.54208	0.009052385	0.207246	0	0	0	0	0	0
28.55865	0.009052385	0.207246	0	0	0	0	0	0
28.5753	0.009078698	0.207228	0.001580648	-0.001082185	0.04758901	-0.03258164	0	0
28.59181	0.009078698	0.207228	0	0	-0.04766839	0.03263599	0	0
28.60835	0.009078698	0.207228	0	0	0	0	0	0
28.62492	0.009078698	0.207228	0	0	0	0	0	0
28.64149	0.009078698	0.207228	0	0	0	0	0	0
28.65805	0.009105012	0.20721	0.001588474	-0.001086644	0.047943	-0.03279686	0	0
28.67487	0.009078698	0.207192	-0.001564693	-0.001071261	-0.09445594	0.0004607872	0	0
28.69119	0.009078698	0.207192	0	0	0.04722253	0.03233074	0	0
28.70775	0.009078698	0.207192	0	0	0	0	0	0
28.72432	0.009078698	0.207192	0	0	0	0	0	0
28.74089	0.009078698	0.207192	0	0	0	0	0	0
28.75893	0.009078698	0.207192	0	0	0	0	0	0
28.7755	0.009078698	0.207192	0	0	0	0	0	0
28.79207	0.009078698	0.207192	0	0	0	0	0	0
28.80864	0.009078698	0.207192	0	0	0	0	0	0
28.8252	0.009078698	0.207192	0	0	0	0	0	0
28.84177	0.009078698	0.207192	0	0	0	0	0	0
28.85834	0.009078698	0.207192	0	0	0	0	0	0
28.87502	0.009078698	0.207192	0	0	0	0	0	0
28.89147	0.009078698	0.207192	0	0	0	0	0	0
28.90804	0.009078698	0.207192	0	0	0	0	0	0
28.9246	0.009078698	0.207192	0	0	0	0	0	0
28.94156	0.009078698	0.207192	0	0	0	0	0	0
28.95774	0.009078698	0.207192	0	0	0	0	0	0
28.99433	0.009078698	0.207192	0	0	0	0	0	0
29.0109	0.009078698	0.207192	0	0	0	0	0	0
29.04403	0.009078698	0.207192	0	0	0	0	0	0
29.06065	0.009078698	0.207192	0	0	0	0	0	0
29.07716	0.009078698	0.207192	0	0	0	0	0	0
29.09373	0.009078698	0.207192	0	0	0	0	0	0
29.1103	0.009078698	0.207192	0	0	0	0	0	0
29.1272	0.009078698	0.207192	0	0	0	0	0	0
29.14343	0.009078698	0.207192	0	0	0	0	0	0
29.19313	0.009078698	0.207192	0	0	0	0	0	0
29.2097	0.009078698	0.207192	0	0	0	0	0	0
29.22626	0.009078698	0.207192	0	0	0	0	0	0
29.2594	0.009078698	0.207192	0	0	0	0	0	0
29.27597	0.009078698	0.207192	0	0	0	0	0	0
29.29253	0.009078698	0.207192	0	0	0	0	0	0
29.30933	0.009078698	0.207192	0	0	0	0	0	0
29.32567	0.009078698	0.207192	0	0	0	0	0	0
29.34235	0.009078698	0.207192	0	0	0	0	0	0
29.35886	0.009078698	0.207192	0	0	0	0	0	0
29.37537	0.009078698	0.207192	0	0	0	0	0	0
29.39239	0.009078698	0.207192	0	0	0	0	0	0
29.4085	0.009105012	0.207174	0.001632651	-0.001116864	0.04928201	-0.03371284	0	0
29.42507	0.009105012	0.207174	0	0	-0.0499521	0.03417124	0	0
29.44164	0.009105012	0.207174	0	0	0	0	0	0
29.45844	0.009105012	0.207174	0	0	0	0	0	0
29.47477	0.009105012	0.207174	0	0	0	0	0	0
29.49146	0.009105012	0.207174	0	0	0	0	0	0
29.50791	0.009105012	0.207174	0	0	0	0	0	0
29.52447	0.009105012	0.207174	0	0	0	0	0	0
29.54104	0.009105012	0.207174	0	0	0	0	0	0
29.5576	0.009105012	0.207174	0	0	0	0	0	0
29.57417	0.009105012	0.207174	0	0	0	0	0	0
29.60755	0.009105012	0.207174	0	0	0	0	0	0
29.62406	0.009131325	0.207156	0.001593796	-0.001091187	0.03194954	-0.02187414	0	0
29.64044	0.009131325	0.207156	0	0	-0.04844948	0.03317076	0	0
29.65708	0.009131325	0.207156	0	0	0	0	0	0
29.67359	0.009131325	0.207156	0	0	0	0	0	0
29.69014	0.009105012	0.207174	-0.001589939	0.001088546	-0.04808964	0.0329244	0	0
29.70671	0.009105012	0.207174	0	0	0.04800932	-0.03286941	0	0
29.73984	0.009105012	0.207174	0	0	0	0	0	0
29.75665	0.009105012	0.207174	0	0	0	0	0	0
29.77298	0.009105012	0.207174	0	0	0	0	0	0
29.78954	0.009105012	0.207174	0	0	0	0	0	0
29.80619	0.009105012	0.207174	0	0	0	0	0	0
29.82268	0.009105012	0.207174	0	0	0	0	0	0
29.83924	0.009105012	0.207174	0	0	0	0	0	0
29.85581	0.009105012	0.207174	0	0	0	0	0	0
29.87238	0.009105012	0.207174	0	0	0	0	0	0
29.88894	0.009105012	0.207174	0	0	0	0	0	0
29.90551	0.009105012	0.207174	0	0	0	0	0	0
29.92208	0.009105012	0.207174	0	0	0	0	0	0
29.94173	0.009105012	0.207174	0	0	0	0	0	0
29.9583	0.009105012	0.207174	0	0	0	0	0	0
29.97486	0.009105012	0.207174	0	0	0	0	0	0
29.99143	0.009105012	0.207174	0	0	0	0	0	0
30.06437	0.009105012	0.207138	0	-0.0004937845	0	-0.005516766	0	0
30.09716	0.009105012	0.207138	0	0	0	0.004670322	0	0
30.11391	0.009105012	0.207138	0	0	0	0	0	0
30.13042	0.009105012	0.207138	0	0	0	0	0	0
30.14686	0.009105012	0.207138	0	0	0	0	0	0
30.16343	0.009105012	0.207138	0	0	0	0	0	0
30.17999	0.009105012	0.207138	0	0	0	0	0	0
30.19656	0.009105012	0.207138	0	0	0	0	0	0
30.21348	0.009131325	0.20712	0.001555168	-0.00106474	0.04644051	-0.03179533	0	0
30.22969	0.009131325	0.20712	0	0	-0.04693507	0.03213393	0	0
30.24626	0.009131325	0.20712	0	0	0	0	0	0
30.26302	0.009131325	0.20712	0	0	0	0	0	0
30.27939	0.009131325	0.20712	0	0	0	0	0	0
30.29604	0.009131325	0.20712	0	0	0	0	0	0
30.31255	0.009131325	0.20712	0	0	0	0	0	0
30.32909	0.009131325	0.20712	0	0	0	0	0	0
30.34566	0.009131325	0.20712	0	0	0	0	0	0
30.36223	0.009131325	0.20712	0	0	0	0	0	0
30.37879	0.009131325	0.20712	0	0	0	0	0	0
30.39536	0.009131325	0.20712	0	0	0	0	0	0
30.41212	0.009131325	0.20712	0	0	0	0	0	0
30.42863	0.009131325	0.20712	0	0	0	0	0	0
30.44506	0.009131325	0.20712	0	0	0	0	0	0
30.46163	0.009131325	0.20712	0	0	0	0	0	0
30.47819	0.009131325	0.20712	0	0	0	0	0	0
30.49476	0.009131325	0.20712	0	0	0	0	0	0
30.51133	0.009131325	0.20712	0	0	0	0	0	0
30.5282	0.009131325	0.20712	0	0	0	0	0	0
30.54446	0.009131325	0.20712	0	0	0	0	0	0
30.56122	0.009131325	0.20712	0	0	0	0	0	0
30.57759	0.009131325	0.20712	0	0	0	0	0	0
30.59416	0.009131325	0.20712	0	0	0	0	0	0
30.61073	0.009131325	0.20712	0	0	0	0	0	0
30.62729	0.009131325	0.20712	0	0	0	0	0	0
30.64386	0.009131325	0.20712	0	0	0	0	0	0
30.66043	0.009131325	0.20712	0	0	0	0	0	0
30.677	0.009131325	0.20712	0	0	0	0	0	0
30.69356	0.009131325	0.20712	0	0	0	0	0	0
30.71013	0.009131325	0.20712	0	0	0	0	0	0
30.7267	0.009131325	0.20712	0	0	0	0	0	0
30.74327	0.009131325	0.20712	0	0	0	0	0	0
30.75983	0.009131325	0.20712	0	0	0	0	0	0
30.7764	0.009131325	0.20712	0	0	0	0	0	0
30.79297	0.009131325	0.20712	0	0	0	0	0	0
30.81248	0.009131325	0.20712	0	0	0	0	0	0
30.82904	0.009131325	0.20712	0	0	0	0	0	0
30.92845	0.009131325	0.20712	0	0	0	0	0	0
30.94501	0.009131325	0.20712	0	0	0	0	0	0
30.96158	0.009131325	0.20712	0	0	0	0	0	0
30.97853	0.009131325	0.20712	0	0	0	0	0	0
30.99471	0.009131325	0.20712	0	0	0	0	0	0
31.01155	0.009131325	0.20712	0	0	0	0	0	0
31.02785	0.009131325	0.20712	0	0	0	0	0	0
31.04457	0.009131325	0.20712	0	0	0	0	0	0
31.06098	0.009157639	0.207102	0.001603988	-0.001098164	0.04841124	-0.03314458	0	0
31.0776	0.009157639	0.207102	0	0	-0.04857342	0.03325561	0	0
31.09411	0.009157639	0.207102	0	0	0	0	0	0
31.11112	0.009157639	0.207102	0	0	0	0	0	0
31.12724	0.009157639	0.207102	0	0	0	0	0	0
31.14381	0.009157639	0.207102	0	0	0	0	0	0
31.16038	0.009157639	0.207102	0	0	0	0	0	0
31.17695	0.009157639	0.2070659	0	-0.002173936	0	-0.06560953	0	0
31.19351	0.009210266	0.2070299	0.003176583	-0.002173936	0.09586946	0	0	0
31.21008	0.009473401	0.2068498	0.01588286	-0.01086968	0.3834761	-0.2624381	0	0
31.22671	0.009789161	0.2066337	0.01899373	-0.01299962	0.09372436	-0.06417082	0	0
31.24322	0.01244673	0.2048146	0.1609483	-0.1101737	4.28395	-2.93255	0	0
31.25978	0.0174456	0.2013191	0.301802	-0.2110347	4.258574	-3.049432	0	0
31.27635	0.02509999	0.1960369	0.4620201	-0.3188356	4.835948	-3.253814	0	0
31.29292	0.03879631	0.1865265	0.8267117	-0.5740461	11.00641	-7.702267	0	0
31.30948	0.05121832	0.1779797	0.7498804	-0.5159479	-2.318906	1.753506	0	0
31.32605	0.05570547	0.1748871	0.2708444	-0.1866671	-14.45817	9.938286	0	0
31.34262	0.07988228	0.1581685	1.459315	-1.009136	35.86813	-24.82215	0	0
31.3593	0.09959049	0.1444583	1.181294	-0.8217826	-8.361348	5.634538	0	0
31.37575	0.1140295	0.1343584	0.877806	-0.6140114	-9.159808	6.270909	0	0
31.39232	0.1276184	0.1248416	0.8199465	-0.5742399	-1.752153	1.204398	0	0
31.40888	0.144718	0.1127466	1.032609	-0.7303905	6.418528	-4.712907	0	0
31.42545	0.152594	0.1071457	0.4753923	-0.3380687	-16.8207	11.84302	0	0
31.44201	0.1674948	0.09649302	0.8994188	-0.6429982	12.79714	-9.202788	0	0
31.45858	0.1777616	0.08910772	0.6197006	-0.4457775	-8.441913	5.952131	0	0
31.47515	0.1904782	0.07990473	0.7675795	-0.5554938	4.462996	-3.311245	0	0
31.49172	0.1993937	0.07341395	0.5381424	-0.3917839	-6.924426	4.940775	0	0
31.50841	0.2098386	0.06576696	0.6258393	-0.4581973	2.636983	-1.997003	0	0
31.52492	0.2170774	0.06043885	0.4383979	-0.3226826	-5.645617	4.08162	0	0
31.54143	0.2252934	0.05436205	0.4975851	-0.368025	1.792254	-1.373021	0	0
31.55844	0.228791	0.05176544	0.2055739	-0.1526205	-8.710131	6.4251	0	0
31.57455	0.2369379	0.04569369	0.5057847	-0.3769504	9.064034	-6.773017	0	0
31.59146	0.240441	0.04307261	0.2071079	-0.1549613	-9.044802	6.722473	0	0
31.60798	0.2449044	0.0396867	0.2703087	-0.2050589	1.890752	-1.498749	0	0
31.62425	0.2462909	0.03864426	0.08520405	-0.06405733	-5.645945	4.300742	0	0
31.64082	0.2464889	0.03849532	0.0119517	-0.008990311	-2.230534	1.67679	0	0
31.65738	0.2464889	0.03849532	0	0	-0.3607031	0.2713281	0	0
31.71511	0.2464889	0.03849532	0	0	0	0	0	0
31.76481	0.2464147	0.03855117	-0.001493963	0.001123845	-0.01390694	0.01046161	0	0
31.7816	0.2464147	0.03855117	0	0	0.02246764	-0.01690145	0	0
31.79811	0.2464147	0.03855117	0	0	0	0	0	0
31.81463	0.2464147	0.03855117	0	0	0	0	0	0
31.83114	0.2464147	0.03855117	0	0	0	0	0	0
31.84765	0.2464147	0.03855117	0	0	0	0	0	0
31.86421	0.2464147	0.03855117	0	0	0	0	0	0
31.88078	0.2464147	0.03855117	0	0	0	0	0	0
31.89735	0.2464147	0.03855117	0	0	0	0	0	0
31.9142	0.2464394	0.03853256	0.001468768	-0.001104892	0.04395053	-0.03306213	0	0
31.93071	0.2464394	0.03853256	0	0	-0.0440234	0.03311694	0	0
31.94705	0.2464394	0.03853256	0	0	0	0	0	0
31.96373	0.2464394	0.03853256	0	0	0	0	0	0
31.98018	0.2464394	0.03853256	0	0	0	0	0	0
31.99675	0.2464394	0.03853256	0	0	0	0	0	0
32.01377	0.2464394	0.03853256	0	0	0	0	0	0
32.02988	0.2464394	0.03853256	0	0	0	0	0	0
32.04644	0.2464147	0.03855117	-0.001494307	0.001124104	-0.04573005	0.03440078	0	0
32.06301	0.2464147	0.03855117	0	0	0.04509828	-0.03392552	0	0
32.07958	0.2464147	0.03855117	0	0	0	0	0	0
32.09632	0.2463899	0.03856979	-0.001477968	0.001111813	-0.0443702	0.03337782	0	0
32.11284	0.2463899	0.03856979	0	0	0.04443125	-0.03342376	0	0
32.12928	0.2463652	0.03858841	-0.001505751	0.001132486	-0.04569089	0.03436445	0	0
32.14585	0.2462909	0.03864426	-0.004481889	0.00337131	-0.09017298	0.06783337	0	0
32.16241	0.2459444	0.0389049	-0.02091728	0.01573203	-0.4960211	0.3730474	0	0
32.17898	0.245053	0.03957502	-0.05380605	0.04044876	-0.9925851	0.7459521	0	0
32.19555	0.2434425	0.04082188	-0.09720923	0.07526052	-1.309911	1.050621	0	0
32.21241	0.2410863	0.0425891	-0.139707	0.1047877	-1.271169	0.8832021	0	0
32.22868	0.2347735	0.0473472	-0.3880147	0.2924515	-7.493943	5.663703	0	0
32.24525	0.2234425	0.05577093	-0.6839401	0.5084574	-9.011971	6.578143	0	0
32.26195	0.2135865	0.06312229	-0.5902882	0.4402822	2.815399	-2.04951	0	0
32.27846	0.1991156	0.07380147	-0.8762876	0.6466811	-8.611652	6.21482	0	0
32.29495	0.1872031	0.08253878	-0.7225342	0.5299481	4.65906	-3.537263	0	0
32.31152	0.1712022	0.0941979	-0.9658151	0.7037456	-7.360026	5.257932	0	0
32.32808	0.1631167	0.1001078	-0.4880438	0.3567217	14.41917	-10.4732	0	0
32.34465	0.1474226	0.1114842	-0.9472958	0.6866824	-13.86025	9.958235	0	0
32.36122	0.1325343	0.1220305	-0.8986614	0.6365771	1.467788	-1.512182	0	0
32.37778	0.1259093	0.1267025	-0.3998829	0.2820033	15.05317	-10.70106	0	0
32.39435	0.1136658	0.1353783	-0.7390197	0.5236722	-10.23517	7.293583	0	0
32.41092	0.1106514	0.1375269	-0.181991	0.129715	16.81309	-11.89102	0	0
32.46062	0.08544932	0.1736931	-0.5070677	0.7276661	-4.9057	9.023619	0	0
32.47718	0.0821829	0.1927178	-0.1971613	1.148332	4.676497	6.347865	0	0
32.49375	0.07888857	0.2078943	-0.1988459	0.9160557	-0.05084286	-7.01012	0	0
32.53064	0.06393904	0.2373573	-0.4053087	0.7987952	-3.862616	-2.193771	0	0
32.54692	0.05281925	0.2465786	-0.6828268	0.5662452	-5.219522	-4.373769	0	0
32.56349	0.0405567	0.2549142	-0.7401692	0.5031408	-1.745468	-1.920859	0	0
32.58017	0.02520519	0.2652677	-0.9200516	0.6205079	-5.409555	3.529549	0	0
32.59662	0.01552507	0.2716049	-0.5884938	0.3852639	10.00643	-7.099679	0	0
32.6132	0.00460523	0.2789592	-0.6586677	0.4435994	-2.124702	1.766263	0	0
32.62976	-0.0001578947	0.2821969	-0.2877015	0.1955627	11.19578	-7.485761	0	0
32.64632	-0.006368335	0.286346	-0.3748629	0.2504425	-2.631445	1.656848	0	0
32.66324	-0.01273615	0.2904943	-0.376474	0.2452498	-0.04811759	-0.1550929	0	0
32.67946	-0.01392015	0.2910485	-0.07299586	0.03416958	9.158987	-6.370413	0	0
32.69626	-0.01363073	0.2904585	0.01722347	-0.03511102	2.731946	-2.097897	0	0
32.71259	-0.01394646	0.290244	-0.01933347	-0.0131358	-1.103291	0.6632135	0	0
32.72929	-0.01394646	0.290244	0	0	0.5853724	0.3977214	0	0
32.74573	-0.01397278	0.2902261	-0.001600282	-0.001087587	-0.04829105	-0.03281966	0	0
32.76231	-0.01397278	0.2902261	0	0	0.0484584	0.0329334	0	0
32.77887	-0.01397278	0.2902261	0	0	0	0	0	0
32.79543	-0.01397278	0.2902261	0	0	0	0	0	0
32.81235	-0.01397278	0.2902261	0	0	0	0	0	0
32.82857	-0.01394646	0.2901725	0.001622493	-0.003308045	0.04896693	-0.09983701	0	0
32.84513	-0.01394646	0.2901725	0	0	-0.04949113	0.1009058	0	0
32.8617	-0.01394646	0.2901725	0	0	0	0	0	0
32.8784	-0.01394646	0.2901725	0	0	0	0	0	0
32.89491	-0.01394646	0.2901725	0	0	0	0	0	0
32.91142	-0.01397278	0.2901546	-0.001593627	-0.001083064	-0.04825687	-0.03279643	0	0
32.92844	-0.01397278	0.2901546	0	0	0.04753752	0.03230754	0	0
32.94454	-0.01397278	0.2901546	0	0	0	0	0	0
32.96111	-0.01397278	0.2901546	0	0	0	0	0	0
32.97767	-0.01394646	0.2901367	0.001588123	-0.001079323	0.04792964	-0.03257403	0	0
32.99448	-0.01394646	0.2901367	0	0	-0.04757906	0.03233578	0	0
33.0108	-0.01394646	0.2901367	0	0	0	0	0	0
33.02751	-0.01397278	0.2901188	-0.001575067	-0.00107045	-0.04769484	-0.03241446	0	0
33.04402	-0.01394646	0.2901009	0.001593627	-0.001083064	0.09540071	-0.0003797716	0	0
33.0605	-0.01399909	0.2900294	-0.003191678	-0.004336462	-0.1450218	-0.09859639	0	0
33.07707	-0.01415695	0.2898864	-0.009528624	-0.008634584	-0.1917129	-0.130032	0	0
33.09364	-0.01510411	0.289207	-0.05717101	-0.04100888	-1.43785	-0.9770581	0	0
33.11021	-0.01639327	0.2882951	-0.07781351	-0.05504188	-0.622992	-0.4235168	0	0
33.12708	-0.01644589	0.2881878	-0.00311787	-0.006357369	2.233491	1.455726	0	0
33.14334	-0.01644589	0.2881878	0	0	0.0940975	0.1918658	0	0
33.15991	-0.01639327	0.288152	0.00317602	-0.002158646	0.09675476	-0.06576131	0	0
33.17648	-0.01634065	0.2881163	0.00317602	-0.002158646	0	0	0	0
33.19304	-0.01623541	0.2880448	0.006352041	-0.004315493	0.09585249	-0.06509378	0	0
33.20964	-0.01615649	0.2879911	0.004755215	-0.003232016	-0.04814795	0.03266933	0	0
33.22618	-0.01607756	0.2879375	0.004772879	-0.003243945	0.0005330844	-0.0003600203	0	0
33.24274	-0.01597233	0.287866	0.006352041	-0.004317292	0.04770315	-0.03242355	0	0
33.25968	-0.01591971	0.2878302	0.003107334	-0.002111962	-0.09685498	0.06582943	0	0
33.27588	-0.01581447	0.2877587	0.006495739	-0.004414881	0.1022623	-0.06950223	0	0
33.29245	-0.01578816	0.2877408	0.001587954	-0.001079323	-0.1497726	0.1017924	0	0
33.30901	-0.01573554	0.287705	0.003176133	-0.002158646	0.04793134	-0.03257403	0	0
33.32573	-0.01568292	0.2876693	0.003148472	-0.002139922	-0.0008311667	0.0005626163	0	0
33.34215	-0.01565661	0.2876514	0.001602084	-0.00108885	-0.04667008	0.03172142	0	0
33.36267	-0.01563031	0.2876335	0.001281874	-0.0008712825	-0.008667124	0.005888906	0	0
33.37926	-0.01563031	0.2876335	0	0	-0.03453604	0.02347395	0	0
33.39581	-0.015604	0.2876156	0.00159063	-0.001081066	0.04800532	-0.03262662	0	0
33.41237	-0.015604	0.2876156	0	0	-0.04804404	0.03265294	0	0
33.42894	-0.015604	0.2876156	0	0	0	0	0	0
33.44551	-0.015604	0.2876156	0	0	0	0	0	0
33.46209	-0.015604	0.2876156	0	0	0	0	0	0
33.47884	-0.015604	0.2876156	0	0	0	0	0	0
33.49535	-0.015604	0.2876156	0	0	0	0	0	0
33.51186	-0.015604	0.2876156	0	0	0	0	0	0
33.56147	-0.015604	0.2876156	0	0	0	0	0	0
33.57804	-0.015604	0.2876156	0	0	0	0	0	0
33.59492	-0.01557769	0.2875977	0.001558638	-0.001059322	0.04659986	-0.03167141	0	0
33.61117	-0.01557769	0.2875977	0	0	-0.0470452	0.03197408	0	0
33.62774	-0.01557769	0.2875977	0	0	0	0	0	0
33.64431	-0.01557769	0.2875977	0	0	0	0	0	0
33.66097	-0.01555138	0.2875799	0.001578921	-0.001073146	0.04752064	-0.03229836	0	0
33.67744	-0.01549876	0.2875441	0.003194465	-0.002171144	0.04875721	-0.03313766	0	0
33.69401	-0.01549876	0.2875083	0	-0.002158646	-0.09668744	0.0003782827	0	0
33.71058	-0.01526197	0.2873474	0.01429243	-0.009713908	0.4313464	-0.2280183	0	0
33.72714	-0.01497257	0.2871507	0.01746867	-0.01187255	0.09585926	-0.06514805	0	0
33.74371	-0.01384122	0.2863818	0.0682881	-0.04641269	1.533733	-1.042423	0	0
33.76028	-0.01276246	0.2856486	0.06511387	-0.04425404	-0.09579824	0.06514817	0	0
33.77705	-0.01276246	0.2856486	0	0	-1.952775	1.327186	0	0
33.79341	-0.01276246	0.2856486	0	0	0	0	0	0
33.80998	-0.01276246	0.2856486	0	0	0	0	0	0
33.82655	-0.01278878	0.2856307	-0.001588179	-0.001079323	-0.04793134	-0.03257403	0	0
33.84311	-0.01278878	0.2856307	0	0	0.04793134	0.03257403	0	0
33.85968	-0.01278878	0.2856307	0	0	0	0	0	0
33.87625	-0.01278878	0.2856307	0	0	0	0	0	0
33.89314	-0.01278878	0.2856307	0	0	0	0	0	0
33.90938	-0.01278878	0.2856307	0	0	0	0	0	0
33.92616	-0.01278878	0.2856307	0	0	0	0	0	0
33.94267	-0.01278878	0.2856307	0	0	0	0	0	0
33.95908	-0.01278878	0.2856307	0	0	0	0	0	0
33.97565	-0.01278878	0.2856307	0	0	0	0	0	0
33.99221	-0.01278878	0.2856307	0	0	0	0	0	0
34.00878	-0.01278878	0.2856307	0	0	0	0	0	0
34.02535	-0.01278878	0.2856307	0	0	0	0	0	0
34.04192	-0.01278878	0.2856307	0	0	0	0	0	0
34.05848	-0.01278878	0.2856307	0	0	0	0	0	0
34.07527	-0.01278878	0.2856307	0	0	0	0	0	0
34.09161	-0.01278878	0.2856307	0	0	0	0	0	0
34.10829	-0.01278878	0.2856307	0	0	0	0	0	0
34.1248	-0.01278878	0.2856307	0	0	0	0	0	0
34.14369	-0.01278878	0.2856307	0	0	0	0	0	0
34.16026	-0.01278878	0.2856307	0	0	0	0	0	0
34.17682	-0.01278878	0.2856307	0	0	0	0	0	0
34.19339	-0.01278878	0.2856307	0	0	0	0	0	0
34.20996	-0.01278878	0.2856307	0	0	0	0	0	0
34.22652	-0.01278878	0.2856307	0	0	0	0	0	0
34.264	-0.01278878	0.2856307	0	0	0	0	0	0
34.28057	-0.01278878	0.2856307	0	0	0	0	0	0
34.29713	-0.01278878	0.2856307	0	0	0	0	0	0
34.3137	-0.01278878	0.2856307	0	0	0	0	0	0
34.33045	-0.01278878	0.2856307	0	0	0	0	0	0
