Time	Pos X	Pos Y	Vel X	Vel Y	Acc X	Acc YForce X	Force Y
0.01656713	0.004052609	0.195063	-5.970976E-05	-0.002873991	8.79958E-07	4.235474E-05	0	0
0.05793758	0.004052609	0.195063	0	0	-8.802799E-07	-4.237023E-05	0	0
0.07450471	0.004052609	0.195063	0	0	0	0	0	0
0.09107144	0.004052609	0.195063	0	0	0	0	0	0
0.1076382	0.004052609	0.195063	0	0	0	0	0	0
0.124531	0.004052609	0.195063	0	0	0	0	0	0
0.1407717	0.004052609	0.195063	0	0	0	0	0	0
0.157338	0.004052609	0.195063	0	0	0	0	0	0
0.1740662	0.004052609	0.195063	0	0	0	0	0	0
0.1904715	0.004052609	0.195063	0	0	0	0	0	0
0.2070382	0.004052609	0.195063	0	0	0	0	0	0
0.2236049	0.004052609	0.195063	0	0	0	0	0	0
0.2401721	0.004052609	0.195063	0	0	0	0	0	0
0.256738	0.004052609	0.195063	0	0	0	0	0	0
0.2733047	0.004078925	0.1950449	0.001588452	-0.001088351	0.0479422	-0.03284828	0	0
0.2898719	0.004078925	0.1950449	0	0	-0.04794045	0.03284708	0	0
0.3064382	0.004078925	0.1950449	0	0	0	0	0	0
0.3230049	0.004078925	0.1950449	0	0	0	0	0	0
0.3395721	0.004078925	0.1950449	0	0	0	0	0	0
0.356138	0.004078925	0.1950449	0	0	0	0	0	0
0.3727047	0.004078925	0.1950449	0	0	0	0	0	0
0.3892715	0.004078925	0.1950449	0	0	0	0	0	0
0.4058382	0.004078925	0.1950449	0	0	0	0	0	0
0.4227413	0.004078925	0.1950449	0	0	0	0	0	0
0.4389717	0.004078925	0.1950449	0	0	0	0	0	0
0.4555384	0.004078925	0.1950449	0	0	0	0	0	0
0.4721051	0.004078925	0.1950449	0	0	0	0	0	0
0.4887891	0.004078925	0.1950449	0	0	0	0	0	0
0.5052382	0.00410524	0.1950269	0.001599812	-0.00109704	0.04828445	-0.03311012	0	0
0.5218049	0.00410524	0.1950269	0	0	-0.04845587	0.03322767	0	0
0.538372	0.00410524	0.1950269	0	0	0	0	0	0
0.5553351	0.00410524	0.1950269	0	0	0	0	0	0
0.5715047	0.00410524	0.1950269	0	0	0	0	0	0
0.5880718	0.00410524	0.1950269	0	0	0	0	0	0
0.6046386	0.00410524	0.1950269	0	0	0	0	0	0
0.6213814	0.00410524	0.1950269	0	0	0	0	0	0
0.6378928	0.00410524	0.1950269	0	0	0	0	0	0
0.6544059	0.00410524	0.1950269	0	0	0	0	0	0
0.6709177	0.00410524	0.1950269	0	0	0	0	0	0
0.7040402	0.00410524	0.1950269	0	0	0	0	0	0
0.720957	0.00410524	0.1950269	0	0	0	0	0	0
0.7371728	0.00410524	0.1950269	0	0	0	0	0	0
0.753976	0.00410524	0.1950269	0	0	0	0	0	0
0.7703075	0.00410524	0.1950269	0	0	0	0	0	0
0.7868719	0.00410524	0.1950269	0	0	0	0	0	0
0.8200057	0.00410524	0.1950269	0	0	0	0	0	0
0.8365716	0.00410524	0.1950269	0	0	0	0	0	0
0.8705581	0.00410524	0.1950269	0	0	0	0	0	0
0.8867333	0.00410524	0.1950269	0	0	0	0	0	0
0.9033016	0.00410524	0.1950269	0	0	0	0	0	0
0.9198672	0.00410524	0.1950269	0	0	0	0	0	0
0.9366052	0.00410524	0.1950269	0	0	0	0	0	0
0.9531151	0.00410524	0.1950269	0	0	0	0	0	0
0.9695674	0.00410524	0.1950269	0	0	0	0	0	0
0.98614	0.00410524	0.1950269	0	0	0	0	0	0
1.0027	0.00410524	0.1950269	0	0	0	0	0	0
1.019267	0.00410524	0.1950269	0	0	0	0	0	0
1.035834	0.00410524	0.1950269	0	0	0	0	0	0
1.0524	0.00410524	0.1950269	0	0	0	0	0	0
1.068966	0.00410524	0.1950269	0	0	0	0	0	0
1.085533	0.004131556	0.1950088	0.001588415	-0.001088325	0.04793985	-0.03284667	0	0
1.1021	0.004131556	0.1950088	0	0	-0.04793933	0.03284631	0	0
1.118733	0.004157871	0.1949908	0.001582154	-0.001084035	0.04765605	-0.03265222	0	0
1.1518	0.004447339	0.1947924	0.008753927	-0.00600017	0.1443016	-0.09891637	0	0
1.168367	0.006841999	0.1931508	0.144543	-0.09908797	2.735789	-1.875472	0	0
1.18528	0.007447231	0.1926998	0.03578591	-0.0266691	-3.248449	2.163069	0	0
1.2015	0.007499859	0.1926276	0.003244558	-0.004449981	-0.982139	0.6706008	0	0
1.218304	0.01036805	0.1905524	0.1706936	-0.1235013	5.07057	-3.605025	0	0
1.234633	0.01686682	0.1857319	0.3979681	-0.295192	6.859453	-5.181859	0	0
1.251327	0.02325896	0.1738559	0.3829126	-0.711415	-0.455903	-12.6039	0	0
1.267839	0.02362718	0.1658904	0.02230008	-0.4824122	-10.86006	6.896556	0	0
1.28435	0.02333787	0.1442037	-0.01752238	-1.313461	-1.205901	-25.16575	0	0
1.3009	0.02336417	0.1356697	0.001589218	-0.5156326	0.5780599	24.13155	0	0
1.317874	0.02294334	0.1229069	-0.02479286	-0.7519182	-0.7869545	-7.048193	0	0
1.334034	0.02328526	0.107457	0.02115884	-0.9560663	1.386865	-6.16138	0	0
1.3506	0.02341677	0.09673165	0.007938147	-0.6474191	-0.4039793	9.431206	0	0
1.367409	0.02404799	0.08404849	0.03755252	-0.754541	0.8873088	-3.209598	0	0
1.383734	0.0244425	0.07861474	0.02416655	-0.3328604	-0.404001	12.72672	0	0
1.400432	0.02502109	0.0680219	0.03464922	-0.6343551	0.3174354	-9.129841	0	0
1.416944	0.02583635	0.05819819	0.0493766	-0.5949767	0.4434665	1.185749	0	0
1.433457	0.02617823	0.05072631	0.02070283	-0.4524722	-0.8682563	4.315107	0	0
1.45	0.02709863	0.04323997	0.05563541	-0.4525271	1.056742	-0.00166065	0	0
1.466567	0.02807157	0.03555246	0.05872994	-0.4640423	0.09346264	-0.3477885	0	0
1.483134	0.02878152	0.03053675	0.04285314	-0.3027512	-0.4791763	4.867917	0	0
1.565967	0.02762455	-0.009433481	-0.01396751	-0.4825383	-0.571634	-1.808716	0	0
1.582562	0.02659899	-0.01364582	-0.06180028	-0.2538352	-0.4810792	2.300187	0	0
1.599101	0.02531038	-0.01718239	-0.07791428	-0.2138359	-0.4863356	1.207215	0	0
1.615667	0.0224436	-0.01985161	-0.1730444	-0.1611188	-2.873545	1.592398	0	0
1.632596	0.02202275	-0.02015464	-0.02485996	-0.01790051	4.424021	4.275756	0	0
1.6488	0.02202275	-0.02015464	0	0	0.7503073	0.5402618	0	0
1.665621	0.02202275	-0.02015464	0	0	0	0	0	0
1.682132	0.02202275	-0.02015464	0	0	0	0	0	0
1.698645	0.02202275	-0.02015464	0	0	0	0	0	0
1.71507	0.02202275	-0.02015464	0	0	0	0	0	0
1.731636	0.02202275	-0.02015464	0	0	0	0	0	0
1.748202	0.02202275	-0.02015464	0	0	0	0	0	0
1.764768	0.02202275	-0.02015464	0	0	0	0	0	0
1.781334	0.02202275	-0.02015464	0	0	0	0	0	0
1.814467	0.02202275	-0.02015464	0	0	0	0	0	0
1.852251	0.02199645	-0.0201357	-0.0006961392	0.0005013129	-0.009816284	0.007069032	0	0
1.868681	0.02199645	-0.0201357	0	0	0.01284064	-0.009246968	0	0
1.885248	0.02199645	-0.0201357	0	0	0	0	0	0
1.901814	0.02202275	-0.02015464	0.001587662	-0.001143328	0.04791765	-0.03450708	0	0
1.918381	0.02202275	-0.02015464	0	0	-0.04791661	0.03450634	0	0
1.934948	0.02202275	-0.02015464	0	0	0	0	0	0
1.951824	0.02202275	-0.02015464	0	0	0	0	0	0
1.968081	0.02202275	-0.02015464	0	0	0	0	0	0
1.984649	0.02202275	-0.02015464	0	0	0	0	0	0
2.001359	0.02202275	-0.02015464	0	0	0	0	0	0
2.017781	0.02202275	-0.02015464	0	0	0	0	0	0
2.096943	0.02202275	-0.02015464	0	0	0	0	0	0
2.113511	0.02202275	-0.02015464	0	0	0	0	0	0
2.130126	0.02202275	-0.02015464	0	0	0	0	0	0
2.146644	0.02202275	-0.02015464	0	0	0	0	0	0
2.163211	0.02202275	-0.02015464	0	0	0	0	0	0
2.179778	0.02202275	-0.02015464	0	0	0	0	0	0
2.196345	0.02202275	-0.02015464	0	0	0	0	0	0
2.212911	0.02202275	-0.02015464	0	0	0	0	0	0
2.229477	0.02202275	-0.02015464	0	0	0	0	0	0
2.246045	0.02202275	-0.02015464	0	0	0	0	0	0
2.262611	0.02202275	-0.02015464	0	0	0	0	0	0
2.279178	0.02202275	-0.02015464	0	0	0	0	0	0
2.295744	0.02202275	-0.02015464	0	0	0	0	0	0
2.312312	0.02202275	-0.02015464	0	0	0	0	0	0
2.328878	0.02202275	-0.02015464	0	0	0	0	0	0
2.345445	0.02202275	-0.02015464	0	0	0	0	0	0
2.362012	0.02202275	-0.02015464	0	0	0	0	0	0
2.378579	0.02202275	-0.02015464	0	0	0	0	0	0
2.395145	0.02202275	-0.02015464	0	0	0	0	0	0
2.411711	0.02202275	-0.02015464	0	0	0	0	0	0
2.42866	0.02202275	-0.02015464	0	0	0	0	0	0
2.445173	0.02202275	-0.02015464	0	0	0	0	0	0
2.461412	0.02202275	-0.02015464	0	0	0	0	0	0
2.477978	0.02202275	-0.02015464	0	0	0	0	0	0
2.494545	0.02202275	-0.02015464	0	0	0	0	0	0
2.511219	0.02202275	-0.02015464	0	0	0	0	0	0
2.528233	0.02202275	-0.02015464	0	0	0	0	0	0
2.544245	0.02202275	-0.02015464	0	0	0	0	0	0
2.560812	0.02202275	-0.02015464	0	0	0	0	0	0
2.577377	0.02202275	-0.02015464	0	0	0	0	0	0
2.594278	0.02202275	-0.02015464	0	0	0	0	0	0
2.610511	0.02202275	-0.02015464	0	0	0	0	0	0
2.627077	0.02199645	-0.0201357	-0.001587708	0.001143361	-0.0484072	0.03485963	0	0
2.643644	0.02199645	-0.02009782	0	0.002286544	0.0479192	0.03450282	0	0
2.660322	0.02183863	-0.01998418	-0.009462468	0.006813518	-0.2846276	0.1361697	0	0
2.676834	0.02175972	-0.01988949	-0.004779031	0.00573495	0.1411088	-0.03249653	0	0
2.693347	0.02133887	-0.01920776	-0.02548699	0.04128491	-0.6270473	1.076471	0	0
2.726951	0.01468316	-0.01192622	-0.1980636	0.2166874	-3.443506	3.499893	0	0
2.743518	0.005052588	-0.004416027	-0.5813189	0.4533291	-7.639032	4.716734	0	0
2.760085	-0.002605257	0.002381193	-0.4622218	0.4102751	3.594381	-1.299382	0	0
2.776651	-0.008631364	0.01104136	-0.3637627	0.5227664	2.971588	3.395091	0	0
2.793418	-0.01176262	0.02603724	-0.1867479	0.8943548	5.31045	11.14766	0	0
2.809929	-0.01094693	0.03922136	0.04940471	0.7985415	7.096462	-2.879218	0	0
2.826351	-0.00994704	0.05200662	0.06088452	0.7785094	0.3485809	-0.6082704	0	0
2.842953	-0.006868313	0.06709789	0.1854454	0.909014	3.771765	3.951747	0	0
2.859485	-0.001999997	0.07597826	0.2944835	0.537172	3.290873	-11.22254	0	0
2.876051	0.004052609	0.08382759	0.3653571	0.4738137	2.141326	-1.914267	0	0
2.89262	0.01468316	0.09361016	0.6416149	0.5904345	8.337416	3.519598	0	0
2.909184	0.0245214	0.100548	0.593923	0.4188273	-1.439394	-5.179303	0	0
2.925751	0.03101637	0.1051124	0.3920596	0.2755257	-6.092865	-4.325287	0	0
2.942317	0.0432362	0.1138074	0.7376116	0.524849	10.42923	7.524918	0	0
2.958884	0.05155953	0.1197112	0.5024117	0.35636	-7.098552	-5.085154	0	0
2.975451	0.06165859	0.1274686	0.609598	0.4682544	3.234984	3.377076	0	0
2.992018	0	0	-3.721827	-7.694243	-130.7264	-246.3518	0	0
3.008584	0.06904795	0.1488746	4.167983	8.986603	238.1252	503.4507	0	0
3.025151	0.06852412	0.1596919	-0.03161923	0.652958	-126.7497	-251.5208	0	0
3.058605	0.06742396	0.1800767	-0.03288582	0.6093389	-0.02532127	-0.8720198	0	0
3.074851	0.06786928	0.1842508	0.02741099	0.2569287	1.213215	-7.090747	0	0
3.091418	0.06844555	0.1902816	0.03478444	0.364032	0.2247122	3.264068	0	0
3.107984	0.07253044	0.1995528	0.2465788	0.5596378	6.392242	5.903652	0	0
3.124551	0.07412709	0.2029229	0.09637227	0.203418	-4.53334	-10.75097	0	0
3.141163	0.07640362	0.2065437	0.137043	0.2179656	1.225786	0.4384535	0	0
3.157684	0.07684836	0.2068138	0.02691972	0.01635152	-3.323694	-6.08503	0	0
3.174251	0.07690068	0.2067778	0.00315846	-0.002174899	-0.718129	-0.5599182	0	0
3.190818	0.07692684	0.2067598	0.00157896	-0.001086519	-0.0476701	0.03284785	0	0
3.207711	0.07690068	0.2067778	-0.001548519	0.001065571	-0.09346878	0.06431802	0	0
3.223951	0.07690068	0.2067778	0	0	0.04673674	-0.03216063	0	0
3.240734	0.07690068	0.2067778	0	0	0	0	0	0
3.257084	0.07690068	0.2067778	0	0	0	0	0	0
3.273652	0.07687452	0.2067238	-0.00157896	-0.003260455	-0.04796648	-0.09904786	0	0
3.290218	0.07690068	0.2067058	0.001579051	-0.001087481	0.09531168	0.06558239	0	0
3.306784	0.07687452	0.2066878	-0.001579051	-0.001086581	-0.09531717	2.714977E-05	0	0
3.323351	0.07687452	0.2066878	0	0	0.0476579	0.0327945	0	0
3.339918	0.07687452	0.2066878	0	0	0	0	0	0
3.356484	0.07687452	0.2066878	0	0	0	0	0	0
3.373052	0.07687452	0.2066517	0	-0.002174836	0	-0.06563856	0	0
3.389618	0.07690068	0.2066337	0.001579051	-0.001086581	0.04765721	0.03284454	0	0
3.40635	0.07690068	0.2065977	0	-0.002153391	-0.04742108	-0.03203779	0	0
3.422751	0.07692684	0.2065437	0.001594958	-0.003293491	0.04813766	-0.0344095	0	0
3.472452	0.076953	0.2064536	0.0005263325	-0.001811807	-0.01616642	0.02241526	0	0
3.48941	0.07697916	0.2064356	0.00154251	-0.001062315	0.01524437	0.01124363	0	0
3.505921	0.07697916	0.2063996	0	-0.002181345	-0.0460868	-0.03343413	0	0
3.522151	0.07700533	0.2063816	0.001612216	-0.001110005	0.0492414	0.03272158	0	0
3.538944	0.07697916	0.2063636	-0.001558219	-0.001072828	-0.09600791	0.00112581	0	0
3.555285	0.07697916	0.2063636	0	0	0.04702848	0.03237895	0	0
3.588419	0.07697916	0.2063276	0	-0.001086992	0	-0.02197065	0	0
3.604991	0.07697916	0.2063276	0	0	0	0.02186822	0	0
3.63847	0.076953	0.2063095	-0.0007813668	-0.0005381216	-0.01561135	-0.01075142	0	0
3.655036	0.076953	0.2063095	0	0	0.01561335	0.0107528	0	0
3.671603	0.076953	0.2062735	0	-0.002173936	0	-0.06561142	0	0
3.68817	0.07692684	0.2062555	-0.001579051	-0.001087481	-0.04765721	0.03279025	0	0
3.705062	0.07690068	0.2062375	-0.001548606	-0.001065632	0.0009099211	0.0006530214	0	0
3.721574	0.07687452	0.2061835	-0.001584226	-0.003272232	-0.001066334	-0.06605776	0	0
3.737885	0.07684836	0.2061655	-0.001604227	-0.001104505	-0.0006093602	0.06604277	0	0
3.754436	0.07684836	0.2061655	0	0	0.04881611	0.03360973	0	0
3.771109	0.0768222	0.2061474	-0.00156898	-0.001080545	-0.0472238	-0.03252268	0	0
3.787621	0	0	-4.652531	-12.48477	-140.1545	-376.19	0	0
3.804137	0.07679604	0.2061294	4.649872	12.48079	281.655	755.8988	0	0
3.820703	0.0768222	0.2061114	0.001579051	-0.001087481	-140.5082	-377.3012	0	0
3.83727	0.0768222	0.2061114	0	0	-0.0476579	0.03282164	0	0
3.85384	0.0768222	0.2061114	0	0	0	0	0	0
3.870404	0.0768222	0.2061114	0	0	0	0	0	0
3.887192	0.0768222	0.2061114	0	0	0	0	0	0
3.903539	0.07679604	0.2060934	-0.001600238	-0.001102073	-0.0482939	-0.03325966	0	0
3.920105	0.07679604	0.2060934	0	0	0.04861995	0.0334842	0	0
3.936672	0.07679604	0.2060934	0	0	0	0	0	0
3.953238	0.07679604	0.2060934	0	0	0	0	0	0
3.969804	0.07679604	0.2060934	0	0	0	0	0	0
3.986372	0.07679604	0.2060934	0	0	0	0	0	0
4.003273	0.07679604	0.2060934	0	0	0	0	0	0
4.019503	0.07676988	0.2060754	-0.001611804	-0.00110912	-0.04864995	-0.03347715	0	0
4.036295	0.07676988	0.2060754	0	0	0.04881083	0.03358786	0	0
4.052637	0.07676988	0.2060754	0	0	0	0	0	0
4.069203	0.07676988	0.2060754	0	0	0	0	0	0
4.085833	0.07676988	0.2060754	0	0	0	0	0	0
4.102352	0.07676988	0.2060754	0	0	0	0	0	0
4.118904	0.07676988	0.2060394	0	-0.002176904	0	-0.06582602	0	0
4.13547	0.07676988	0.2060394	0	0	0	0.06573124	0	0
4.185171	0.07676988	0.2060394	0	0	0	0	0	0
4.201737	0.07676988	0.2060394	0	0	0	0	0	0
4.218425	0.07676988	0.2060394	0	0	0	0	0	0
4.234937	0.07674371	0.2060214	-0.001584746	-0.00109019	-0.04773362	-0.03283725	0	0
4.251448	0.07674371	0.2060214	0	0	0.04799003	0.03301364	0	0
4.268004	0.07674371	0.2060214	0	0	0	0	0	0
4.284973	0.07676988	0.2060034	0.001541996	-0.001061659	0.04599475	-0.03166723	0	0
4.301137	0.07676988	0.2060034	0	0	-0.04653886	0.03204185	0	0
4.317996	0.07674371	0.2059854	-0.001552158	-0.001068656	-0.04700318	-0.03236153	0	0
4.334272	0.07674371	0.2059854	0	0	0.04684355	0.03225163	0	0
4.350839	0.07674371	0.2059854	0	0	0	0	0	0
4.367405	0.07674371	0.2059854	0	0	0	0	0	0
4.417105	0.07674371	0.2059854	0	0	0	0	0	0
4.450238	0.07676988	0.2059673	0.0007897388	-0.0005437325	0.009534075	-0.006564179	0	0
4.466805	0.07674371	0.2059493	-0.001579409	-0.001086519	-0.04766873	-0.01092119	0	0
4.483373	0.07674371	0.2059493	0	0	0.04766667	0.03279119	0	0
4.499938	0.07674371	0.2059493	0	0	0	0	0	0
4.516506	0.07674371	0.2059493	0	0	0	0	0	0
4.533149	0.07674371	0.2059493	0	0	0	0	0	0
4.567188	0.07674371	0.2059493	0	0	0	0	0	0
4.583756	0.07674371	0.2059493	0	0	0	0	0	0
4.600324	0.07674371	0.2059493	0	0	0	0	0	0
4.61689	0.07674371	0.2059493	0	0	0	0	0	0
4.633459	0.07674371	0.2059493	0	0	0	0	0	0
4.650023	0.07674371	0.2059493	0	0	0	0	0	0
4.666588	0.07674371	0.2059493	0	0	0	0	0	0
4.683155	0.07674371	0.2059493	0	0	0	0	0	0
4.699766	0.07674371	0.2059493	0	0	0	0	0	0
4.716288	0.07674371	0.2059493	0	0	0	0	0	0
4.732854	0.07674371	0.2059493	0	0	0	0	0	0
4.749421	0.07674371	0.2059493	0	0	0	0	0	0
4.765988	0.07674371	0.2059493	0	0	0	0	0	0
4.782554	0.07674371	0.2059493	0	0	0	0	0	0
4.799121	0.07674371	0.2059493	0	0	0	0	0	0
4.815688	0.07674371	0.2059493	0	0	0	0	0	0
4.832254	0.07674371	0.2059493	0	0	0	0	0	0
4.848873	0.07674371	0.2059493	0	0	0	0	0	0
4.865388	0.07674371	0.2059493	0	0	0	0	0	0
4.881954	0.07674371	0.2059493	0	0	0	0	0	0
4.898911	0.07671756	0.2059313	-0.001542727	-0.001062465	-0.0460205	-0.03169398	0	0
4.91509	0.07663907	0.2058773	-0.004850837	-0.003339498	-0.09983464	-0.06871802	0	0
4.948221	0.07491218	0.2047245	-0.05212284	-0.03479549	-0.9586564	-0.6379142	0	0
4.964954	0.06889081	0.2006523	-0.3598568	-0.2433681	-6.171488	-4.182846	0	0
4.981354	0.06040013	0.1948465	-0.5177138	-0.3540025	-4.764341	-3.339096	0	0
4.997978	0.0473593	0.186057	-0.7844592	-0.5287249	-8.077243	-5.29072	0	0
5.014491	0.03695685	0.1790464	-0.6299782	-0.4245683	4.661977	3.143272	0	0
5.031054	0.02625712	0.172155	-0.6459671	-0.416045	-0.4833924	0.2576848	0	0
5.047621	0.01265722	0.1636981	-0.8209391	-0.5104916	-5.281349	-2.850772	0	0
5.064188	0.002763151	0.1581867	-0.5972243	-0.3326785	6.752017	5.366641	0	0
5.081035	-0.01607756	0.1560823	-1.118333	-0.1249098	-15.59558	6.218036	0	0
5.097322	-0.02778232	0.1564633	-0.7186633	0.02339358	12.06224	4.475869	0	0
5.113888	-0.0509821	0.1572797	-1.400422	0.04928023	-20.75171	0.7879508	0	0
5.130569	-0.06755494	0.1576425	-0.9934763	0.02174833	12.23972	-0.828078	0	0
5.14708	-0.0870949	0.1578421	-1.183453	0.01208539	-5.723466	-0.2911171	0	0
5.163592	-0.09956443	0.1578421	-0.7551841	0	12.96886	-0.3659702	0	0
5.180154	-0.1064904	0.1578421	-0.4181821	0	10.18936	0	0	0
5.197117	-0.1154839	0.1568262	-0.5301836	-0.05988749	-3.340835	-1.786354	0	0
5.213287	-0.1208555	0.1556105	-0.3321972	-0.07517841	5.975496	-0.4615008	0	0
5.296187	-0.1512312	0.1608342	-0.366413	0.06301192	-0.3453689	1.394875	0	0
5.312698	-0.1595532	0.1599277	-0.504046	-0.05490885	-1.384492	-1.1862	0	0
5.329253	-0.1640646	0.1598914	-0.2725021	-0.002190803	7.002521	1.594338	0	0
5.34582	-0.1714066	0.1584225	-0.4431819	-0.08866714	-5.153055	-2.610838	0	0
5.362387	-0.1814556	0.1582774	-0.6065709	-0.008758059	-4.931231	2.41173	0	0
5.378953	-0.1872285	0.1593837	-0.3484668	0.06677784	7.789822	2.279744	0	0
5.415138	-0.197598	0.1667961	-0.2865697	0.2048486	1.17337	2.617379	0	0
5.431705	-0.1991662	0.1679189	-0.09465663	0.06777609	3.638024	-2.598432	0	0
5.448273	-0.2019965	0.1699468	-0.1708415	0.1224033	-2.299265	1.648653	0	0
5.464839	-0.2061603	0.1729332	-0.2513321	0.1802611	-2.429245	1.746177	0	0
5.49833	-0.2115246	0.1767862	-0.1601757	0.1150507	1.821054	-1.302726	0	0
5.514539	-0.2128826	0.1777627	-0.08378103	0.06024218	1.537138	-1.102802	0	0
5.531106	-0.2128826	0.1777627	0	0	2.55618	-1.838004	0	0
5.547864	-0.2129078	0.1777808	-0.001499993	0.001078537	-0.04501013	0.03236354	0	0
5.564239	-0.2131843	0.1779797	-0.0168881	0.01214691	-0.4644275	0.3340539	0	0
5.580888	-0.2156214	0.1797333	-0.1463814	0.1053299	-3.921264	2.82173	0	0
5.597373	-0.2191091	0.1822454	-0.2115693	0.1523858	-1.967404	1.42017	0	0
5.613939	-0.2195353	0.1825526	-0.02572699	0.01854257	5.622894	-4.049595	0	0
5.630923	-0.2195353	0.1825526	0	0	0.7668301	-0.5526882	0	0
5.647073	-0.2195353	0.1825526	0	0	0	0	0	0
5.663639	-0.2195353	0.1825526	0	0	0	0	0	0
5.680205	-0.2195353	0.1825526	0	0	0	0	0	0
5.696772	-0.2195353	0.1825526	0	0	0	0	0	0
5.713339	-0.2195103	0.1825345	0.001512895	-0.001090148	0.04566057	-0.03290167	0	0
5.729906	-0.2195103	0.1825345	0	0	-0.04566057	0.03290167	0	0
5.746472	-0.2195103	0.1825345	0	0	0	0	0	0
5.763039	-0.2195103	0.1825345	0	0	0	0	0	0
5.779606	-0.2194852	0.1825164	0.001512895	-0.001091047	0.04566057	-0.03292881	0	0
5.796172	-0.2194852	0.1825164	0	0	-0.04566122	0.03292929	0	0
5.812739	-0.2194852	0.1825164	0	0	0	0	0	0
5.829306	-0.2194601	0.1824984	0.001512851	-0.001091016	0.04565859	-0.03292739	0	0
5.862586	-0.2194351	0.1824803	0.0007535569	-0.0005426685	-0.01523231	0.01100047	0	0
5.879005	-0.2194351	0.1824803	0	0	-0.01516232	0.01091903	0	0
5.895571	-0.2194351	0.1824803	0	0	0	0	0	0
5.912138	-0.21941	0.1824622	0.001512851	-0.001091016	0.04565991	-0.03292834	0	0
5.929134	-0.21941	0.1824622	0	0	-0.04507478	0.03250637	0	0
5.945272	-0.2193849	0.1824442	0.001554051	-0.001119138	0.0469027	-0.03377663	0	0
5.96184	-0.2193849	0.1824442	0	0	-0.04751679	0.03421886	0	0
5.978406	-0.2193599	0.1824261	0.001512895	-0.001091047	0.04565925	-0.03292787	0	0
5.995187	-0.2193348	0.182408	0.001493592	-0.001076239	-0.0005788229	0.0004440542	0	0
6.011694	-0.2192847	0.1823719	0.003037706	-0.002190037	0.04638715	-0.03345992	0	0
6.028108	-0.2192345	0.1823357	0.003054825	-0.002201471	0.0005200295	-0.0003473417	0	0
6.044672	-0.2191844	0.1822996	0.003027125	-0.002181509	-0.0008399643	0.000605323	0	0
6.061273	-0.2191091	0.1822454	0.004531353	-0.003265662	0.04535659	-0.03269018	0	0
6.078739	-0.2190089	0.1821731	0.005741694	-0.004137774	0.03552907	-0.02560048	0	0
6.094373	-0.2188584	0.1820647	0.009623669	-0.006934913	0.1172798	-0.08450541	0	0
6.177312	-0.2186829	0.1819382	0.002116439	-0.001525166	-0.07615893	0.0548805	0	0
6.193773	-0.2185575	0.1818479	0.00761652	-0.005488348	0.05533251	-0.03987084	0	0
6.210341	-0.2183568	0.1817033	0.01211021	-0.008725825	0.1360505	-0.09801756	0	0
6.226912	-0.218106	0.1815226	0.01513625	-0.01090526	0.09131447	-0.06576703	0	0
6.243859	-0.217805	0.1813057	0.01776344	-0.01279632	0.07838269	-0.05642028	0	0
6.260375	-0.217529	0.1811069	0.01670949	-0.01203679	-0.0314962	0.02269795	0	0
6.276608	-0.2172279	0.1808901	0.01854915	-0.01335994	0.056175	-0.04040318	0	0
6.293173	-0.2147172	0.1790825	0.1515643	-0.1091168	4.055552	-2.919569	0	0
6.309741	-0.2095868	0.1754298	0.3096624	-0.2204733	4.771616	-3.360889	0	0
6.326307	-0.1996466	0.1683354	0.6000293	-0.4282407	8.763419	-6.270523	0	0
6.361438	-0.1860851	0.1594381	0.3860208	-0.2532588	-4.139612	3.384712	0	0
6.377888	-0.1798002	0.1560097	0.3820704	-0.2084167	-0.07658739	0.8693545	0	0
6.394464	-0.1753387	0.153233	0.2691461	-0.1675099	-3.419232	1.238616	0	0
6.411021	-0.1708445	0.1505093	0.2714417	-0.1645022	0.06928554	0.09077503	0	0
6.427588	-0.1701544	0.1503822	0.04165288	-0.007673987	-6.937238	4.734582	0	0
6.444154	-0.170001	0.1505275	0.00925806	0.008771409	-0.9777339	0.4963516	0	0
6.460721	-0.1689528	0.1512721	0.06327079	0.04494172	1.630178	1.091669	0	0
6.477289	-0.1627836	0.1556105	0.3723629	0.2618623	9.328152	6.546488	0	0
6.493856	-0.1564221	0.160109	0.3839892	0.2715349	0.3508816	0.29192	0	0
6.510546	-0.1484781	0.1656368	0.4759802	0.3312075	2.766102	1.794312	0	0
6.526988	-0.1376245	0.1731141	0.6601253	0.4547749	5.557992	3.729594	0	0
6.543555	-0.1322757	0.17675	0.3228414	0.2194596	-10.21777	-7.128707	0	0
6.560121	-0.1194289	0.1854249	0.775524	0.523675	13.66258	9.181633	0	0
6.576687	-0.114549	0.1886751	0.2945714	0.1961962	-14.51643	-9.88418	0	0
6.593254	-0.1048769	0.1949547	0.5838054	0.3790376	8.72935	5.518321	0	0
6.609822	-0.09719279	0.1989399	0.4638023	0.2405355	-3.621647	-4.17994	0	0
6.626388	-0.08610238	0.2011569	0.6694572	0.1338285	6.206765	-3.220471	0	0
6.642954	-0.07114289	0.2029589	0.9030087	0.1087759	7.049004	-0.7561305	0	0
6.659521	-0.06173723	0.2044903	0.5677429	0.09243678	-10.11878	-0.4931381	0	0
6.676087	-0.05148079	0.2074261	0.6191336	0.1772222	1.551062	2.558975	0	0
6.692654	-0.04510098	0.2095688	0.3850974	0.1293336	-7.063634	-1.445363	0	0
6.70922	-0.04313113	0.2104869	0.1189071	0.05542013	-8.033985	-2.230809	0	0
6.726196	-0.03892769	0.2127187	0.2476052	0.1314673	3.836853	2.26718	0	0
6.742353	-0.03890142	0.2127367	0.00162623	0.001113206	-7.423982	-3.934265	0	0
6.759221	-0.03892769	0.2127547	-0.001557685	0.001067168	-0.09641127	-0.001394055	0	0
6.775486	-0.03892769	0.2127547	0	0	0.04701239	-0.03220812	0	0
6.792053	-0.03892769	0.2127547	0	0	0	0	0	0
6.80862	-0.03895397	0.2127727	-0.00158593	0.001086519	-0.04786416	0.03279167	0	0
6.825187	-0.03895397	0.2127727	0	0	0.04786485	-0.03279214	0	0
6.841753	-0.03895397	0.2127727	0	0	0	0	0	0
6.85832	-0.03895397	0.2127727	0	0	0	0	0	0
6.874887	-0.03895397	0.2127727	0	0	0	0	0	0
6.891815	-0.03895397	0.2128447	0	0.004251641	0	0.1269338	0	0
6.90802	-0.03855982	0.2131506	0.02432185	0.01887873	0.7340561	0.4414593	0	0
6.924587	-0.03298803	0.2169288	0.3363238	0.2280567	9.520364	6.382814	0	0
6.941153	-0.02549447	0.2220177	0.452338	0.3071849	3.501464	2.388197	0	0
6.95786	-0.01776129	0.2273013	0.4628593	0.3162459	0.3162063	0.2723175	0	0
6.974287	-0.008762933	0.233408	0.5478089	0.371765	2.563859	1.675618	0	0
6.990853	-0.006684111	0.2348263	0.1254816	0.08561437	-12.80058	-8.673115	0	0
7.023987	0.006105187	0.2435117	0.3859929	0.2621324	5.241649	3.551651	0	0
7.040553	0.009789161	0.2460226	0.2223779	0.1515709	-3.292066	-2.224587	0	0
7.05712	0.01013123	0.2462199	0.02064804	0.01190797	-6.088482	-4.215217	0	0
7.073687	0.01018386	0.2462558	0.003176618	0.002165004	-0.5273038	-0.2940519	0	0
7.106965	0.01021017	0.246202	0.0007906812	-0.001616904	-0.04786691	-0.07587305	0	0
7.123386	0.01021017	0.246202	0	0	-0.01590915	0.03253343	0	0
7.139953	0.01018386	0.2461841	-0.001588281	-0.001082052	-0.04814712	-0.03280133	0	0
7.15652	0.01018386	0.2461482	0	-0.002165004	0.04793579	-0.03268449	0	0
7.173087	0.01015755	0.2461302	-0.001588337	-0.001082952	-0.04793749	0.03265734	0	0
7.189654	0.01015755	0.2460944	0	-0.002164942	0.0479368	-0.032655	0	0
7.20622	0.01010492	0.2460585	-0.003176801	-0.002165129	-0.09588017	-5.642798E-06	0	0
7.241201	0.01010492	0.2460585	0	0	0.06162915	0.04200297	0	0
7.258072	0.01005229	0.2460226	-0.003119336	-0.002125965	-0.06015819	-0.04100045	0	0
7.274335	0.01002598	0.2460047	-0.001617945	-0.001102262	0.04531272	0.03089585	0	0
7.290901	0.009999666	0.2459868	-0.001588383	-0.001082983	0.000900492	0.0005872488	0	0
7.324119	0.009920727	0.2458612	-0.00237643	-0.003778961	-0.01582943	-0.05415383	0	0
7.340601	0.009736534	0.245664	-0.01117518	-0.01196895	-0.177038	-0.1647892	0	0
7.357168	0.00939446	0.2453232	-0.02064821	-0.02056799	-0.2866351	-0.2601898	0	0
7.373734	0.00923658	0.2450721	-0.009529966	-0.01515683	0.335559	0.1633139	0	0
7.390301	0.009026071	0.244821	-0.0127067	-0.01515593	-0.09587666	2.712439E-05	0	0
7.406868	0.008631364	0.2443727	-0.02382522	-0.0270657	-0.3355675	-0.359448	0	0
7.423434	0.008394539	0.2441036	-0.01429561	-0.01624115	0.2876166	0.3266999	0	0
7.440001	0.008394539	0.2441036	0	0	0.4314611	0.49018	0	0
7.456568	0.008394539	0.2441036	0	0	0	0	0	0
7.473224	0.008420854	0.2440857	0.001579845	-0.001076229	0.04755252	-0.03239394	0	0
7.537419	0.008394539	0.2440677	-0.0004099144	-0.0002794759	-0.02461003	0.009854516	0	0
7.553987	0.008394539	0.2440677	0	0	0.005075561	0.003460471	0	0
7.570793	0.008368226	0.2440498	-0.00156567	-0.001067497	-0.04691309	-0.03198605	0	0
7.603687	0.008315598	0.2440139	-0.001599924	-0.00109038	-0.0006892059	-0.0004604076	0	0
7.620329	0.008289284	0.243996	-0.001581146	-0.001078049	0.0003790601	0.000248916	0	0
7.63684	0.008315598	0.243978	0.00159375	-0.001086643	0.09576619	-0.000259205	0	0
7.653387	0.008289284	0.2439601	-0.001590214	-0.001083331	-0.09631538	0.0001001784	0	0
7.669954	0.008289284	0.2439242	0	-0.002165842	0.04802177	-0.03269	0	0
7.68652	0.008289284	0.2439242	0	0	0	0.06536805	0	0
7.703087	0.008289284	0.2438884	0	-0.002165004	0	-0.06534372	0	0
7.719654	0.008289284	0.2438525	0	-0.002165842	0	-2.526889E-05	0	0
7.73622	0.008289284	0.2438525	0	0	0	0.06536711	0	0
7.752923	0.008315598	0.2438345	0.001575369	-0.00107411	0.04735188	-0.03228522	0	0
7.769434	0.008315598	0.2438345	0	0	-0.04743142	0.03233945	0	0
7.785946	0.008289284	0.2438166	-0.001593566	-0.001085615	-0.04825642	-0.03287462	0	0
7.802488	0.008315598	0.2437987	0.001590764	-0.001084607	0.09633756	3.050041E-05	0	0
7.819054	0.008315598	0.2437628	0	-0.002166029	-0.04804876	-0.03266418	0	0
7.83562	0.008341912	0.2437449	0.001588439	-0.001082084	0.04794263	0.03271588	0	0
7.852187	0.008341912	0.243709	0	-0.002165904	-0.04794125	-0.03271117	0	0
7.869009	0.008368226	0.243691	0.001564205	-0.001066498	0.04684779	0.03292709	0	0
7.885517	0.008341912	0.2436731	-0.00159398	-0.001085897	-0.09475378	-0.0005820026	0	0
7.902028	0.008368226	0.2436552	0.00159375	-0.001086643	0.0965435	-2.258596E-05	0	0
7.91854	0.008368226	0.2436552	0	0	-0.04826269	0.03290622	0	0
7.968153	0.008368226	0.2436193	0	-0.0007232239	0	-0.01093708	0	0
7.98472	0.008368226	0.2436193	0	0	0	0.01092802	0	0
8.001598	0.008368226	0.2436193	0	0	0	0	0	0
8.017853	0.008368226	0.2436193	0	0	0	0	0	0
8.034419	0.008368226	0.2436193	0	0	0	0	0	0
8.050986	0.008368226	0.2436193	0	0	0	0	0	0
8.067553	0.008368226	0.2436193	0	0	0	0	0	0
8.100686	0.008368226	0.2436193	0	0	0	0	0	0
8.117252	0.008341912	0.2436014	-0.001588383	-0.001082084	-0.03195955	-0.0217724	0	0
8.133819	0.008341912	0.2436014	0	0	0.04794025	0.03265923	0	0
8.150385	0.008341912	0.2436014	0	0	0	0	0	0
8.166952	0.008341912	0.2436014	0	0	0	0	0	0
8.200947	0.008341912	0.2436014	0	0	0	0	0	0
8.217516	0.008368226	0.2435834	0.001588108	-0.001082796	0.031408	-0.02141445	0	0
8.234262	0.008368226	0.2435834	0	0	-0.04766989	0.03250205	0	0
8.250648	0.008341912	0.2435655	-0.001605855	-0.001094896	-0.04846898	-0.03304687	0	0
8.273721	0.008341912	0.2435655	0	0	0.04069656	0.02774752	0	0
8.290299	0.008341912	0.2435655	0	0	0	0	0	0
8.306855	0.008341912	0.2435655	0	0	0	0	0	0
8.323421	0.008341912	0.2435655	0	0	0	0	0	0
8.339988	0.008368226	0.2435475	0.001588383	-0.001082983	0.04794025	-0.03268638	0	0
8.356554	0.008368226	0.2435475	0	0	-0.04794025	0.03268638	0	0
8.37312	0.008368226	0.2435475	0	0	0	0	0	0
8.389687	0.008341912	0.2435296	-0.001588383	-0.001082084	-0.04794025	-0.03265923	0	0
8.406253	0.008341912	0.2435296	0	0	0.04794025	0.03265923	0	0
8.42282	0.008341912	0.2435296	0	0	0	0	0	0
8.439386	0.008341912	0.2435296	0	0	0	0	0	0
8.455953	0.008341912	0.2435296	0	0	0	0	0	0
8.472519	0.008368226	0.2435117	0.001588383	-0.001082983	0.04794025	-0.03268638	0	0
8.489085	0.008368226	0.2435117	0	0	-0.04794025	0.03268638	0	0
8.505651	0.008341912	0.2434937	-0.001588383	-0.001082983	-0.04794025	-0.03268638	0	0
8.522218	0.008368226	0.2434758	0.001588383	-0.001082983	0.09588049	0	0	0
8.538785	0.008368226	0.2434758	0	0	-0.04793886	0.03268544	0	0
8.555351	0.008368226	0.2434399	0	-0.002165067	0	-0.06534372	0	0
8.588507	0.008368226	0.2434399	0	0	0	0.04354369	0	0
8.605051	0.008368226	0.2434399	0	0	0	0	0	0
8.621617	0.008368226	0.2434399	0	0	0	0	0	0
8.638541	0.008341912	0.243422	-0.001554818	-0.001060098	-0.04642608	-0.031654	0	0
8.654751	0.008341912	0.243422	0	0	0.04692584	0.03199475	0	0
8.671317	0.008341912	0.243422	0	0	0	0	0	0
8.688079	0.008341912	0.243422	0	0	0	0	0	0
8.704451	0.008368226	0.243404	0.001607258	-0.001095852	0.04850854	-0.03307385	0	0
8.721017	0.008368226	0.243404	0	0	-0.04879646	0.03327015	0	0
8.737611	0.008368226	0.243404	0	0	0	0	0	0
8.75415	0.008341912	0.2433861	-0.001590947	-0.001084732	-0.04801626	-0.03273821	0	0
8.770717	0.008341912	0.2433861	0	0	0.04805638	0.03276556	0	0
8.787283	0.008341912	0.2433861	0	0	0	0	0	0
8.80385	0.008341912	0.2433861	0	0	0	0	0	0
8.820683	0.008341912	0.2433861	0	0	0	0	0	0
8.836983	0.008341912	0.2433861	0	0	0	0	0	0
8.853549	0.008341912	0.2433861	0	0	0	0	0	0
8.870115	0.008341912	0.2433502	0	-0.002165067	0	-0.06534561	0	0
8.886682	0.008341912	0.2433502	0	0	0	0.06534561	0	0
8.90325	0.008341912	0.2433502	0	0	0	0	0	0
8.919816	0.008341912	0.2433502	0	0	0	0	0	0
8.936382	0.008341912	0.2433502	0	0	0	0	0	0
8.952949	0.008341912	0.2433502	0	0	0	0	0	0
8.969516	0.008341912	0.2433502	0	0	0	0	0	0
8.986285	0.008341912	0.2433502	0	0	0	0	0	0
9.01991	0.008341912	0.2433502	0	0	0	0	0	0
9.036821	0.008341912	0.2433502	0	0	0	0	0	0
9.053043	0.008341912	0.2433502	0	0	0	0	0	0
9.069611	0.008341912	0.2433502	0	0	0	0	0	0
9.086177	0.008341912	0.2433502	0	0	0	0	0	0
9.102743	0.008368226	0.2433323	0.001588383	-0.001082983	0.04794025	-0.03268638	0	0
9.11938	0.008368226	0.2433323	0	0	-0.04783835	0.0326169	0	0
9.135891	0.008368226	0.2433323	0	0	0	0	0	0
9.152443	0.008368226	0.2433323	0	0	0	0	0	0
9.169009	0.008368226	0.2433323	0	0	0	0	0	0
9.185575	0.008368226	0.2433323	0	0	0	0	0	0
9.218709	0.008368226	0.2433323	0	0	0	0	0	0
9.235278	0.008368226	0.2433323	0	0	0	0	0	0
9.251842	0.008341912	0.2433144	-0.001588566	-0.001083108	-0.04794439	-0.0326892	0	0
9.268487	0.008341912	0.2433144	0	0	0.04783561	0.03261504	0	0
9.284995	0.008341912	0.2433144	0	0	0	0	0	0
9.301541	0.008341912	0.2433144	0	0	0	0	0	0
9.318108	0.008341912	0.2432785	0	-0.002165067	0	-0.06538513	0	0
9.334674	0.008447167	0.2430632	0.006353587	-0.012994	0.1917627	-0.3268366	0	0
9.35124	0.008762933	0.2426327	0.01906076	-0.025988	0.3835254	-0.3921822	0	0
9.367808	0.01270984	0.2393673	0.2382222	-0.1970892	6.614305	-5.163846	0	0
9.384376	0.02152299	0.2219637	0.5319628	-1.050482	8.864853	-25.7547	0	0
9.400941	0.02178603	0.2129346	0.01587867	-0.5450588	-15.57634	15.25457	0	0
9.417588	0.02186494	0.1981466	0.004740043	-0.888312	-0.3353729	-10.33501	0	0
9.434074	0.02133887	0.1768766	-0.03190982	-1.29017	-1.106127	-12.12845	0	0
9.450641	0.02102322	0.1609067	-0.01905362	-0.9640007	0.3889635	9.868241	0	0
9.467207	0.02047082	0.1406571	-0.03334446	-1.222343	-0.4313232	-7.797223	0	0
9.483773	0.01999733	0.1261918	-0.02858156	-0.8731794	0.1437529	10.53837	0	0
9.50034	0.01994472	0.1127466	-0.003175754	-0.8115987	0.7667928	1.858617	0	0
9.516907	0.01960275	0.09675001	-0.02064149	-0.9655552	-0.5271322	-4.646549	0	0
9.533473	0.01952383	0.08607288	-0.004763687	-0.6445094	0.4792069	9.689459	0	0
9.550182	0.0198132	0.07986788	0.01731739	-0.3713499	0.6635815	8.209002	0	0
9.566692	0.01970797	0.0714943	-0.006373266	-0.5071821	-0.7131585	-4.088949	0	0
9.583204	0.01897141	0.06121631	-0.04460816	-0.6224589	-1.157864	-3.490919	0	0
9.59974	0.01802436	0.05135724	-0.05727244	-0.596227	-0.3832124	0.7937588	0	0
9.616306	0.01739298	0.04496889	-0.03811242	-0.3856236	0.5788171	6.36225	0	0
9.632873	0.01791913	0.03719181	0.03176035	-0.4694525	2.108886	-2.530106	0	0
9.649439	0.019366	0.03266321	0.087338	-0.2733628	1.677433	5.918338	0	0
9.666005	0.01849789	0.02588779	-0.05240224	-0.4089888	-4.217612	-4.093436	0	0
9.682571	0.01857681	0.02242983	0.004763911	-0.2087345	1.725377	6.044034	0	0
9.699286	0.01660374	0.01570988	-0.1180484	-0.4020528	-3.690232	-5.808776	0	0
9.732272	0.01049961	0.01075992	-0.1850484	-0.1500596	-1.348068	5.070211	0	0
9.748838	0.01034174	0.01057228	-0.009530072	-0.01132652	3.542037	2.799695	0	0
9.765406	0.01055224	0.01042217	0.01270599	-0.009061142	0.6711051	0.06837112	0	0
9.781972	0.01247304	0.009052035	0.1159463	-0.08270597	3.115887	-2.222669	0	0
9.798539	0.01465685	0.007493548	0.1318149	-0.09407048	0.4789306	-0.3429913	0	0
9.815105	0.01557769	0.006836141	0.0555853	-0.03968346	-2.30068	1.641451	0	0
9.83188	0.01557769	0.006836141	0	0	-1.667203	1.190249	0	0
9.848239	0.01557769	0.006836141	0	0	0	0	0	0
9.882414	0.01557769	0.006836141	0	0	0	0	0	0
9.898617	0.01557769	0.006836141	0	0	0	0	0	0
9.915183	0.01557769	0.006836141	0	0	0	0	0	0
9.931749	0.01557769	0.006836141	0	0	0	0	0	0
9.948317	0.01557769	0.006836141	0	0	0	0	0	0
9.964972	0.01557769	0.006836141	0	0	0	0	0	0
9.981483	0.01557769	0.006836141	0	0	0	0	0	0
9.998016	0.01557769	0.006836141	0	0	0	0	0	0
10.01459	0.01557769	0.006836141	0	0	0	0	0	0
10.03115	0.01557769	0.006836141	0	0	0	0	0	0
10.04772	0.01557769	0.006836141	0	0	0	0	0	0
10.06429	0.01557769	0.006836141	0	0	0	0	0	0
10.08085	0.01557769	0.006836141	0	0	0	0	0	0
10.09757	0.015604	0.006817356	0.001573933	-0.001123788	0.04729312	-0.03376729	0	0
10.11408	0.015604	0.006817356	0	0	-0.04736913	0.03382156	0	0
10.13059	0.015604	0.006817356	0	0	0	0	0	0
10.14712	0.015604	0.006817356	0	0	0	0	0	0
10.16368	0.015604	0.006817356	0	0	0	0	0	0
10.18025	0.015604	0.006817356	0	0	0	0	0	0
10.19682	0.015604	0.006817356	0	0	0	0	0	0
10.21365	0.015604	0.006817356	0	0	0	0	0	0
10.22995	0.015604	0.006817356	0	0	0	0	0	0
10.24652	0.015604	0.006817356	0	0	0	0	0	0
10.26318	0.015604	0.006817356	0	0	0	0	0	0
10.27965	0.015604	0.006817356	0	0	0	0	0	0
10.29622	0.015604	0.006817356	0	0	0	0	0	0
10.31278	0.015604	0.006817356	0	0	0	0	0	0
10.32935	0.015604	0.006817356	0	0	0	0	0	0
10.34591	0.015604	0.006817356	0	0	0	0	0	0
10.36248	0.015604	0.006817356	0	0	0	0	0	0
10.37926	0.015604	0.006817356	0	0	0	0	0	0
10.39561	0.015604	0.006817356	0	0	0	0	0	0
10.41229	0.015604	0.006817356	0	0	0	0	0	0
10.42875	0.015604	0.006817356	0	0	0	0	0	0
10.44531	0.015604	0.006817356	0	0	0	0	0	0
10.46188	0.015604	0.006817356	0	0	0	0	0	0
10.47845	0.015604	0.006817356	0	0	0	0	0	0
10.49501	0.015604	0.006817356	0	0	0	0	0	0
10.51186	0.015604	0.006817356	0	0	0	0	0	0
10.52837	0.015604	0.006817356	0	0	0	0	0	0
10.54488	0.015604	0.006817356	0	0	0	0	0	0
10.56128	0.015604	0.006817356	0	0	0	0	0	0
10.66068	0.01526197	0.00803816	-0.00344083	0.01228155	-0.02971334	0.1060575	0	0
10.67725	0.01431481	0.008826756	-0.05718066	0.04760794	-0.4634109	0.3046275	0	0
10.69398	0.01149949	0.01147285	-0.1681998	0.1580898	-3.333678	3.317543	0	0
10.71038	0.007473545	0.01655292	-0.245551	0.3098441	-2.33453	4.580086	0	0
10.72701	0.003157884	0.02631746	-0.2595228	0.5871915	-0.4230694	8.398157	0	0
10.74352	0.001894735	0.0363536	-0.07651254	0.6079173	5.522624	0.6254353	0	0
10.76008	0.001868419	0.05169122	-0.001588784	0.925994	2.265442	9.617568	0	0
10.77704	0.003052622	0.06430613	0.06981878	0.7437555	2.13001	-5.435978	0	0
10.79321	0.004763122	0.08167322	0.105779	1.073998	1.085376	9.967602	0	0
10.81007	0.006236761	0.09428973	0.08743907	0.7486061	-0.5553547	-9.853248	0	0
10.82635	0.006894628	0.09842003	0.04040904	0.2537014	-1.41941	-14.93668	0	0
10.84309	0.01147318	0.1150144	0.27345	0.9910813	7.056749	22.32872	0	0
10.87767	0.02178603	0.1292922	0.2982377	0.4129018	0.4829767	-11.26552	0	0
10.89463	0.02857117	0.1339941	0.400109	0.2772625	1.976643	-2.631856	0	0
10.9108	0.03167361	0.136216	0.191813	0.1373729	-6.286747	-4.22212	0	0
10.92737	0.03498572	0.1384734	0.1999305	0.1362652	0.2479333	-0.03383194	0	0
10.94394	0.0377715	0.1404388	0.1681502	0.1186284	-0.9591577	-0.5322948	0	0
10.9605	0.03787661	0.1405115	0.006344986	0.004393097	-4.883432	-3.447727	0	0
10.97707	0.03785034	0.1404933	-0.001586246	-0.001098274	-0.2393789	-0.1657395	0	0
10.99375	0.03787661	0.1405115	0.001575634	0.001090927	0.09511093	0.06585225	0	0
11.0102	0.03785034	0.1404933	-0.001596818	-0.001105594	-0.09574478	-0.06629112	0	0
11.02677	0.03787661	0.1404751	0.001585973	-0.001098085	0.09637301	0.0002273687	0	0
11.04334	0.03790289	0.1404569	0.001586429	-0.001098401	1.377652E-05	-9.542727E-06	0	0
11.06024	0.03803428	0.1403296	0.007771734	-0.007533529	0.1848006	-0.1922647	0	0
11.07647	0.03811311	0.1402022	0.004858591	-0.007849234	-0.08792644	-0.009528814	0	0
11.09326	0.03813939	0.1399657	0.001564452	-0.01408228	-0.09975323	-0.1887494	0	0
11.1096	0.03808684	0.139165	-0.003217126	-0.04901215	-0.1443125	-1.054216	0	0
11.12629	0.03808684	0.138619	0	-0.03272079	0.09742113	0.4933356	0	0
11.1428	0.03842844	0.1374358	0.02068961	-0.07165948	0.6232298	-1.172944	0	0
11.15931	0.03940065	0.1346498	0.05887257	-0.1687078	1.156191	-2.93865	0	0
11.17587	0.04139739	0.1293651	0.1205927	-0.3191687	1.866262	-4.549561	0	0
11.19244	0.04342006	0.1201861	0.1220958	-0.5540799	0.04537741	-7.09188	0	0
11.22586	0.04284219	0.1080064	-0.01728989	-0.3644159	-2.788341	3.794133	0	0
11.24213	0.04255324	0.09158922	-0.01775368	-1.008712	-0.009332326	-12.96425	0	0
11.2587	0.04294726	0.08627527	0.02378425	-0.320769	1.264793	20.94724	0	0
11.2754	0.04034651	0.08368032	-0.1557174	-0.1553707	-5.395628	4.971695	0	0
11.29183	0.03908535	0.08301753	-0.07675157	-0.04033571	2.383261	3.471864	0	0
11.3084	0.03869121	0.08333052	-0.02379304	0.01889438	1.604944	1.795007	0	0
11.32497	0.03756127	0.08426938	-0.0682031	0.05666986	-1.340375	1.140132	0	0
11.34153	0.03724593	0.08452707	-0.01903541	0.01555484	1.483927	-1.240889	0	0
11.35845	0.03679917	0.08498719	-0.02640385	0.02719403	-0.2200429	0.3475801	0	0
11.39123	0.03343491	0.08752619	-0.1026296	0.07745405	-1.533695	1.011253	0	0
11.4078	0.03251485	0.08842736	-0.05554094	0.05440145	0.9542556	-0.4671629	0	0
11.4245	0.02641491	0.09276515	-0.3652707	0.259751	-9.310949	6.173121	0	0
11.44093	0.02283813	0.09533643	-0.2176358	0.1564545	4.455631	-3.117496	0	0
11.4575	0.01605125	0.1000711	-0.4096805	0.2858019	-5.819371	3.919506	0	0
11.47407	0.01176262	0.1030965	-0.2588627	0.1826161	4.551823	-3.114243	0	0
11.49063	0.007526174	0.1061933	-0.2557268	0.1869306	0.09464317	0.1302173	0	0
11.5072	0.005263109	0.1078782	-0.1366067	0.1017091	3.59526	-2.572138	0	0
11.54033	0.005236794	0.1080064	-0.0007942107	0.003868585	2.732658	-1.968631	0	0
11.5569	0.005263109	0.1080247	0.001588467	0.00110547	0.04794141	-0.05559611	0	0
11.57347	0.005342055	0.1080797	0.004765155	0.00331577	0.0958754	0.06670891	0	0
11.59011	0.005710464	0.1083726	0.02212898	0.01759681	0.5227625	0.4299507	0	0
11.60662	0.007736688	0.1099287	0.1227269	0.09424911	3.03387	2.311708	0	0
11.62317	0.0102628	0.111905	0.1527137	0.1194797	0.9072725	0.7633715	0	0
11.63974	0.0168142	0.1168242	0.3951934	0.2967312	7.321425	5.351925	0	0
11.6563	0.02189124	0.1221766	0.30668	0.3233157	-2.671494	0.8023691	0	0
11.67286	0.02291704	0.1328463	0.06192096	0.6440638	-7.38982	9.684098	0	0
11.68943	0.02207536	0.1411483	-0.05080385	0.5011072	-3.402139	-4.314561	0	0
11.70619	0.02123365	0.1483477	-0.05021893	0.4295359	0.01755035	-2.147479	0	0
11.72256	0.02170712	0.1560097	0.02891972	0.4680055	2.388547	1.16108	0	0
11.73922	0.02260141	0.1593837	0.05369869	0.2025899	0.7502927	-8.036627	0	0
11.7557	0.02352198	0.1611787	0.05586107	0.1089247	0.06526259	-2.826904	0	0
11.77226	0.02357458	0.1611424	0.003175304	-0.002188453	-1.594327	-3.362402	0	0
11.78883	0.02357458	0.1611424	0	0	-0.09583638	0.06605146	0	0
11.82219	0.02357458	0.1611424	0	0	0	0	0	0
11.83879	0.02357458	0.1611424	0	0	0	0	0	0
11.85532	0.02357458	0.1611424	0	0	0	0	0	0
11.87189	0.02360088	0.161088	0.001587779	-0.003283508	0.04797034	-0.09920211	0	0
11.88845	0.02362718	0.1610699	0.001587596	-0.001094676	-5.52022E-06	0.06606667	0	0
11.90533	0.02365348	0.1610155	0.001558285	-0.003222286	-0.0008763897	-0.06361451	0	0
11.92159	0.02367978	0.1609974	0.00161815	-0.001114827	0.001806839	0.0636069	0	0
11.93815	0.02365348	0.1609793	-0.001587596	-0.001094676	-0.09767734	0.0006139838	0	0
11.95472	0.02367978	0.1609611	0.001587504	-0.001094613	0.09582746	1.900816E-06	0	0
11.97138	0.02367978	0.1609611	0	0	-0.04777759	0.03294353	0	0
11.98789	0.02367978	0.1609611	0	0	0	0	0	0
12.02099	0.02367978	0.1609611	0	0	0	0	0	0
12.03755	0.02367978	0.1609611	0	0	0	0	0	0
12.05412	0.02367978	0.1609611	0	0	0	0	0	0
12.07068	0.02367978	0.1609611	0	0	0	0	0	0
12.10398	0.02365348	0.160943	-0.0007900231	-0.0005442878	-0.01584574	-0.01091695	0	0
12.12038	0.02365348	0.160943	0	0	0.0158959	0.01095151	0	0
12.13695	0.02365348	0.160943	0	0	0	0	0	0
12.15352	0.02365348	0.160943	0	0	0	0	0	0
12.17008	0.02365348	0.160943	0	0	0	0	0	0
12.18665	0.02365348	0.160943	0	0	0	0	0	0
12.20322	0.02365348	0.160943	0	0	0	0	0	0
12.22005	0.02362718	0.1609249	-0.001562168	-0.001077067	-0.04676674	-0.03224425	0	0
12.23635	0.02362718	0.1609249	0	0	0.04714768	0.03250689	0	0
12.25307	0.02362718	0.1609249	0	0	0	0	0	0
12.26948	0.02360088	0.1609067	-0.001602913	-0.001105238	-0.04837741	-0.03335712	0	0
12.2861	0.02357458	0.1608524	-0.001582857	-0.003273331	0.0006073164	-0.06565237	0	0
12.30262	0.02352198	0.1608161	-0.003184838	-0.002195024	-0.04835064	0.03254525	0	0
12.31918	0.02352198	0.1608161	0	0	0.09626821	0.06634908	0	0
12.33575	0.02352198	0.1607798	0	-0.002188453	0	-0.06605146	0	0
12.35264	0.02352198	0.1607798	0	0	0	0.06540013	0	0
12.36888	0.02352198	0.1607798	0	0	0	0	0	0
12.38545	0.02352198	0.1607798	0	0	0	0	0	0
12.40218	0.02349568	0.1607617	-0.001571851	-0.00108382	-0.04720487	-0.03254863	0	0
12.48485	0.02341677	0.1606711	-0.0009544816	-0.001096656	0.006210927	-0.000129129	0	0
12.50141	0.02341677	0.1606711	0	0	0.009618437	0.01105114	0	0
12.51798	0.02341677	0.1606711	0	0	0	0	0	0
12.53455	0.02339047	0.1606529	-0.001587504	-0.001093714	-0.04791235	-0.03300931	0	0
12.55111	0.02336417	0.1606348	-0.001587596	-0.001094676	-2.758115E-06	-2.904629E-05	0	0
12.56768	0.02331157	0.1605985	-0.003175304	-0.002188453	-0.04791988	-0.03301216	0	0
12.58425	0.02328526	0.1605804	-0.001587708	-0.001094676	0.04791649	0.03301216	0	0
12.60082	0.02325896	0.1605623	-0.001587139	-0.001094361	1.717915E-05	9.506497E-06	0	0
12.61738	0.02323266	0.1605441	-0.001588074	-0.001094929	-2.82171E-05	-1.711788E-05	0	0
12.63395	0.02320636	0.160526	-0.001587617	-0.001093714	1.379568E-05	3.66608E-05	0	0
12.65051	0.02318006	0.1605079	-0.001587596	-0.001094676	6.359476E-07	-2.904629E-05	0	0
12.66708	0.02312746	0.1604716	-0.003175304	-0.002189353	-0.04791988	-0.0330393	0	0
12.68365	0.02307485	0.1604354	-0.003175416	-0.002188453	-3.39416E-06	2.714626E-05	0	0
12.70021	0.02299595	0.160381	-0.004762738	-0.003282941	-0.04790685	-0.03303265	0	0
12.73347	0.02291704	0.1603266	-0.002372628	-0.001635893	0.04797129	0.03305747	0	0
12.75004	0.02289074	0.1603084	-0.001587617	-0.001094613	0.01575576	0.01086389	0	0
12.7666	0.02289074	0.1603084	0	0	0.04791575	0.03303645	0	0
12.78345	0.02289074	0.1603084	0	0	0	0	0	0
12.79974	0.02289074	0.1603084	0	0	0	0	0	0
12.8163	0.02289074	0.1603084	0	0	0	0	0	0
12.83287	0.02286444	0.1603266	-0.001587504	0.001094613	-0.04791235	0.03303645	0	0
12.84944	0.02289074	0.1603447	0.001587596	0.001094676	0.09582746	1.900816E-06	0	0
12.866	0.02289074	0.1603447	0	0	-0.04791649	-0.0330393	0	0
12.88257	0.02289074	0.1603447	0	0	0	0	0	0
12.9157	0.02289074	0.1603447	0	0	0	0	0	0
12.93227	0.02289074	0.1603447	0	0	0	0	0	0
12.99582	0.02289074	0.1603084	0	-0.000570697	0	-0.00712302	0	0
13.01261	0.02289074	0.1603084	0	0	0	0.00710332	0	0
13.02913	0.02289074	0.1603084	0	0	0	0	0	0
13.04564	0.02289074	0.1603084	0	0	0	0	0	0
13.06209	0.02289074	0.1603084	0	0	0	0	0	0
13.07866	0.02289074	0.1603084	0	0	0	0	0	0
13.09523	0.02289074	0.1603084	0	0	0	0	0	0
13.11179	0.02289074	0.1603084	0	0	0	0	0	0
13.12836	0.02286444	0.1602903	-0.001587596	-0.001093777	-0.04791649	-0.03301216	0	0
13.14492	0.02286444	0.1602903	0	0	0.04791649	0.03301216	0	0
13.16172	0.02286444	0.1602903	0	0	0	0	0	0
13.17806	0.02286444	0.1602903	0	0	0	0	0	0
13.19462	0.02286444	0.1602903	0	0	0	0	0	0
13.21125	0.02286444	0.1602903	0	0	0	0	0	0
13.22776	0.02286444	0.1602903	0	0	0	0	0	0
13.24432	0.02286444	0.1602903	0	0	0	0	0	0
13.26089	0.02286444	0.1602903	0	0	0	0	0	0
13.27746	0.02286444	0.1602903	0	0	0	0	0	0
13.29431	0.02286444	0.160254	0	-0.002152428	0	-0.06440981	0	0
13.31082	0.02283813	0.1602359	-0.001592935	-0.00109828	-0.04774643	0.03159689	0	0
13.32733	0.02281183	0.1601815	-0.001592843	-0.003293748	2.78482E-06	-0.06647939	0	0
13.34372	0.02281183	0.1601453	0	-0.002212663	0.04840788	0.03285512	0	0
13.36029	0.02278553	0.1601271	-0.001587708	-0.001094676	-0.04817364	0.03392152	0	0
13.39342	0.02275923	0.160109	-0.0007938541	-0.0005468885	0.01597329	0.01102215	0	0
13.40999	0.02275923	0.160109	0	0	0.01597329	0.01100405	0	0
13.4269	0.02275923	0.160109	0	0	0	0	0	0
13.44341	0.02270662	0.1600727	-0.003185502	-0.002196307	-0.09530476	-0.06570973	0	0
13.45969	0.02265402	0.1600365	-0.003231863	-0.00222835	-0.001413854	-0.0009772228	0	0
13.47644	0.02257511	0.1599458	-0.004712127	-0.00541389	-0.0448267	-0.09646742	0	0
13.49295	0.02236469	0.1598007	-0.01274359	-0.00878534	-0.2414935	-0.1013742	0	0
13.50946	0.02218057	0.1596375	-0.01115066	-0.00988362	0.04823592	-0.03325719	0	0
13.52647	0.02162821	0.1592567	-0.03246985	-0.0223855	-0.6359466	-0.3729281	0	0
13.56049	0.01731406	0.1562093	-0.1267998	-0.08956826	-1.848342	-1.316408	0	0
13.57705	0.01084168	0.1517442	-0.3909211	-0.2696858	-5.22185	-3.561042	0	0
13.59402	0.006052558	0.1484749	-0.2822323	-0.1926688	3.241978	2.297269	0	0
13.61018	-0.002552626	0.1425671	-0.5323415	-0.3654711	-7.54853	-5.215333	0	0
13.62675	-0.01089431	0.1368715	-0.5035338	-0.3438085	0.8801354	0.661836	0	0
13.64332	-0.02278553	0.1288546	-0.717797	-0.483927	-6.466848	-4.22903	0	0
13.66006	-0.02665158	0.1264289	-0.2308439	-0.1448398	14.61718	10.1786	0	0
13.67658	-0.03248857	0.1235458	-0.3535217	-0.17462	-3.688622	-0.8954173	0	0
13.69309	-0.03790289	0.12621	-0.3279041	0.161352	0.7757521	10.17391	0	0
13.7096	-0.04819948	0.1334294	-0.6235854	0.437222	-8.953571	8.353664	0	0
13.72615	-0.05667608	0.139347	-0.5121791	0.357559	3.36962	-2.409507	0	0
13.74272	-0.06800026	0.14753	-0.6835681	0.4939581	-5.175362	4.118788	0	0
13.75928	-0.07606349	0.1533782	-0.4866978	0.3529944	5.941729	-4.254416	0	0
13.77585	-0.08403844	0.1591298	-0.4813414	0.3471479	0.1616518	-0.1764435	0	0
13.79242	-0.09414195	0.1670859	-0.6099188	0.4802848	-3.880585	4.018195	0	0
13.80917	-0.09860028	0.1711596	-0.2661031	0.2431498	10.31876	-7.117008	0	0
13.82555	-0.1088054	0.1820828	-0.62305	0.666885	-10.77299	12.78872	0	0
13.84219	-0.1110673	0.1840882	-0.1359114	0.1205026	14.75198	-16.54605	0	0
13.85871	-0.1169896	0.1899748	-0.358627	0.3564631	-6.717124	7.116592	0	0
13.87525	-0.1200774	0.1995167	-0.186669	0.5768467	5.20213	6.667117	0	0
13.89182	-0.1248732	0.2081824	-0.2894717	0.5230624	-3.105007	-1.624476	0	0
13.90874	-0.1288868	0.2187093	-0.2371573	0.6220134	1.562038	2.954543	0	0
13.92525	-0.1302583	0.2277145	-0.08305869	0.5453779	4.608788	-2.292019	0	0
13.94151	-0.1313189	0.233803	-0.06521106	0.3743513	0.5445355	-5.218061	0	0
13.95827	-0.1355582	0.2436372	-0.2529779	0.5868409	-5.686127	6.434803	0	0
13.97465	-0.1397669	0.2502183	-0.2570253	0.4019074	-0.1221576	-5.581627	0	0
13.9913	-0.1481692	0.2580319	-0.5046666	0.4693049	-7.498864	2.040875	0	0
14.00778	-0.1557545	0.2633875	-0.4601488	0.3248915	1.343588	-4.358529	0	0
14.02435	-0.1655754	0.2702446	-0.5928262	0.4139208	-4.014381	2.693732	0	0
14.04092	-0.1727094	0.2752377	-0.430536	0.3013327	4.897648	-3.397719	0	0
14.05748	-0.179469	0.2799788	-0.4081303	0.2862577	0.676242	-0.4549914	0	0
14.07405	-0.1857547	0.2843968	-0.3794228	0.2666819	0.8665456	-0.590901	0	0
14.09061	-0.1932677	0.2896897	-0.4534866	0.3194832	-2.235314	1.593593	0	0
14.10718	-0.1982051	0.2931759	-0.2980425	0.2104369	4.691445	-3.291118	0	0
14.12389	-0.2030823	0.2966257	-0.2918513	0.2064394	0.1860501	-0.1201277	0	0
14.14031	-0.205656	0.2984845	-0.1567264	0.1131944	4.078311	-2.814303	0	0
14.15691	-0.2071434	0.2996462	-0.08959512	0.06997322	2.032872	-1.308824	0	0
14.17345	-0.2070426	0.2997892	0.006097671	0.008647606	2.888098	-1.850864	0	0
14.19001	-0.2070174	0.2999142	0.001521845	0.007549865	-0.1382459	-0.03316521	0	0
14.20658	-0.207093	0.3001108	-0.0045649	0.01186784	-0.1837036	0.1303205	0	0
14.28941	-0.2183318	0.3084196	-0.1356792	0.1003071	-1.319063	0.889735	0	0
14.30602	-0.2183318	0.3084196	0	0	1.364477	-1.008753	0	0
14.32255	-0.2183819	0.3084553	-0.003034488	0.002161825	-0.09158631	0.06524776	0	0
14.33911	-0.2185073	0.3085447	-0.007570088	0.005393328	-0.1370464	0.09764218	0	0
14.35568	-0.2187581	0.3087233	-0.01513748	0.01078306	-0.2283974	0.1626717	0	0
14.37256	-0.2196356	0.3093486	-0.05196978	0.03703403	-1.10108	0.7847571	0	0
14.38881	-0.2196356	0.3093486	0	0	1.568496	-1.117721	0	0
14.40538	-0.2196356	0.3093486	0	0	0	0	0	0
14.42194	-0.2196356	0.3093486	0	0	0	0	0	0
14.43851	-0.2196105	0.3093308	0.001512938	-0.001079385	0.04566319	-0.03257778	0	0
14.45512	-0.2196356	0.3093129	-0.001508942	-0.00107474	-0.09108518	0.0001400082	0	0
14.48915	-0.2196356	0.3092772	0	-0.001050192	0.02980019	0.0004848027	0	0
14.50562	-0.2196607	0.3092593	-0.001522338	-0.001085446	-0.03014594	-0.000698119	0	0
14.52219	-0.2196607	0.3092236	0	-0.002156971	0.04607556	-0.0324311	0	0
14.53875	-0.2196607	0.3092236	0	0	0	0.06510127	0	0
14.55532	-0.2196356	0.3092057	0.001513838	-0.001077586	0.04569034	-0.03252349	0	0
14.57221	-0.2196356	0.3092057	0	0	-0.04525011	0.03221012	0	0
14.58845	-0.2196105	0.3091879	0.001542689	-0.001098776	0.04655711	-0.03316018	0	0
14.60502	-0.2196356	0.30917	-0.001513112	-0.00107951	-0.09313298	0.0005871971	0	0
14.62158	-0.2196356	0.30917	0	0	0.04567108	0.03258341	0	0
14.63815	-0.2196356	0.30917	0	0	0	0	0	0
14.65476	-0.2196356	0.30917	0	0	0	0	0	0
14.6713	-0.2196356	0.30917	0	0	0	0	0	0
14.68785	-0.2196356	0.3091342	0	-0.002158587	0	-0.06523076	0	0
14.70442	-0.2196356	0.3091342	0	0	0	0.06517442	0	0
14.72098	-0.2196607	0.3091164	-0.001513751	-0.001077524	-0.0456864	-0.03252068	0	0
14.73755	-0.2196356	0.3090985	0.001513838	-0.001079385	0.09137542	-5.616717E-05	0	0
14.75412	-0.2196356	0.3090985	0	0	-0.04569034	0.03257778	0	0
14.77084	-0.2196356	0.3090985	0	0	0	0	0	0
14.78725	-0.2196356	0.3090985	0	0	0	0	0	0
14.80382	-0.2196356	0.3090985	0	0	0	0	0	0
14.82038	-0.2196105	0.3090807	0.001512938	-0.001077586	0.04566188	-0.03252255	0	0
14.83695	-0.2195855	0.3090628	0.001512938	-0.001079385	0	-5.429603E-05	0	0
14.85352	-0.2195604	0.3090449	0.001512938	-0.001077586	0	5.429603E-05	0	0
14.87008	-0.2195353	0.309027	0.001513838	-0.001079385	2.714977E-05	-5.429603E-05	0	0
14.88665	-0.2194852	0.3089556	0.003025876	-0.004313943	0.04563604	-0.09762477	0	0
14.90343	-0.2193849	0.3088127	0.005974108	-0.008512883	0.08839519	-0.1258945	0	0
14.91978	-0.2191091	0.3085447	0.01687019	-0.01639344	0.3288538	-0.2378426	0	0
14.93635	-0.2186327	0.3081338	0.02875842	-0.02480427	0.3611994	-0.2555457	0	0
14.95292	-0.2162491	0.3062935	0.1438774	-0.1110785	3.474396	-2.603837	0	0
14.96948	-0.2078238	0.3000215	0.5085811	-0.3786033	11.0071	-8.074147	0	0
14.98605	-0.2029309	0.2965185	0.295354	-0.2114516	-6.435578	5.044941	0	0
15.003	-0.1908588	0.2879911	0.7119516	-0.5029018	12.42736	-8.69414	0	0
15.01918	-0.1885492	0.2863639	0.1427685	-0.1005884	-17.17848	12.14219	0	0
15.10201	-0.1400508	0.252459	0.5855076	-0.4093248	4.471726	-3.11828	0	0
15.11858	-0.1337752	0.2481027	0.3787302	-0.2628966	-2.080225	1.473099	0	0
15.1356	-0.1243809	0.2415922	0.5521646	-0.3826689	5.164253	-3.566387	0	0
15.15211	-0.1127565	0.2335516	0.7040803	-0.4870123	4.531611	-3.11254	0	0
15.16828	-0.1012578	0.2256123	0.7109693	-0.490887	0.2107777	-0.1185541	0	0
15.18485	-0.09252454	0.2195905	0.5271695	-0.363501	-5.613984	3.890882	0	0
15.20164	-0.08662478	0.2154896	0.3512773	-0.2441665	-5.272321	3.577019	0	0
15.21798	-0.07184979	0.2053189	0.9043137	-0.6225065	16.69115	-11.41865	0	0
15.23455	-0.06606162	0.2013371	0.3493943	-0.2403548	-16.86448	11.61392	0	0
15.25118	-0.055207	0.1938724	0.6527064	-0.4488644	9.136886	-6.281081	0	0
15.26768	-0.04491714	0.1867974	0.6234663	-0.428679	-0.8824707	0.609196	0	0
15.28425	-0.04034651	0.1836547	0.2759151	-0.1897165	-10.50969	7.226046	0	0
15.30081	-0.03616843	0.1807816	0.2522042	-0.1734284	-0.7156575	0.4916165	0	0
15.33405	-0.02299595	0.1717207	0.39636	-0.272643	2.894699	-1.992263	0	0
15.35075	-0.02215427	0.1711415	0.05040035	-0.03468088	-6.928416	4.765586	0	0
15.36726	-0.02215427	0.1711415	0	0	-1.517591	1.044267	0	0
15.38375	-0.02215427	0.1711415	0	0	0	0	0	0
15.40031	-0.02215427	0.1711415	0	0	0	0	0	0
15.41688	-0.02215427	0.1711415	0	0	0	0	0	0
15.43345	-0.02215427	0.1711415	0	0	0	0	0	0
15.45001	-0.02215427	0.1711415	0	0	0	0	0	0
15.46683	-0.02212797	0.1711596	0.001564117	0.001075753	0.04685452	0.03222514	0	0
15.48334	-0.02212797	0.1711596	0	0	-0.04693229	-0.03227862	0	0
15.49985	-0.02215427	0.1711415	-0.001593119	-0.001095699	-0.04824568	-0.03318192	0	0
15.51636	-0.02215427	0.1711415	0	0	0.04824428	0.03318097	0	0
15.53284	-0.02215427	0.1711415	0	0	0	0	0	0
15.54941	-0.02215427	0.1711415	0	0	0	0	0	0
15.56598	-0.02215427	0.1711415	0	0	0	0	0	0
15.58254	-0.02215427	0.1711415	0	0	0	0	0	0
15.59942	-0.02215427	0.1711415	0	0	0	0	0	0
15.61568	-0.02215427	0.1711415	0	0	0	0	0	0
15.63224	-0.02215427	0.1711415	0	0	0	0	0	0
15.64881	-0.02215427	0.1711415	0	0	0	0	0	0
15.66547	-0.02215427	0.1711415	0	0	0	0	0	0
15.68198	-0.02215427	0.1711415	0	0	0	0	0	0
15.69851	-0.02215427	0.1711415	0	0	0	0	0	0
15.71508	-0.02215427	0.1711415	0	0	0	0	0	0
15.73164	-0.02215427	0.1711415	0	0	0	0	0	0
15.74821	-0.02215427	0.1711415	0	0	0	0	0	0
15.76478	-0.02215427	0.1711415	0	0	0	0	0	0
15.78134	-0.02215427	0.1711415	0	0	0	0	0	0
15.79791	-0.02215427	0.1711415	0	0	0	0	0	0
15.81448	-0.02215427	0.1711415	0	0	0	0	0	0
15.83108	-0.02218057	0.1711596	-0.001583879	0.001089344	-0.04774795	0.03283961	0	0
15.84761	-0.02218057	0.1711596	0	0	0.04780155	-0.03287647	0	0
15.86418	-0.02218057	0.1711596	0	0	0	0	0	0
15.88074	-0.02218057	0.1711596	0	0	0	0	0	0
15.89731	-0.02218057	0.1711596	0	0	0	0	0	0
15.93044	-0.02220687	0.1711777	-0.0007938312	0.000546423	-0.01597253	0.01099448	0	0
15.94701	-0.02223318	0.1711958	-0.001587729	0.001092815	-0.01597356	0.01099363	0	0
15.96368	-0.02223318	0.1711958	0	0	0.04777613	-0.03288373	0	0
15.99671	-0.02223318	0.1711958	0	0	0	0	0	0
16.01328	-0.02223318	0.1711958	0	0	0	0	0	0
16.02984	-0.02220687	0.1711777	0.001587729	-0.001092815	0.04791914	-0.03298216	0	0
16.04674	-0.02220687	0.1711777	0	0	-0.04745068	0.03265973	0	0
16.06298	-0.02220687	0.1711777	0	0	0	0	0	0
16.07955	-0.02220687	0.1711777	0	0	0	0	0	0
16.09627	-0.02220687	0.1711777	0	0	0	0	0	0
16.11278	-0.02220687	0.1711777	0	0	0	0	0	0
16.1293	-0.02220687	0.1711777	0	0	0	0	0	0
16.14581	-0.02220687	0.1711777	0	0	0	0	0	0
16.16238	-0.02220687	0.1711777	0	0	0	0	0	0
16.17895	-0.02220687	0.1711777	0	0	0	0	0	0
16.21208	-0.02220687	0.1711777	0	0	0	0	0	0
16.22886	-0.02220687	0.1711777	0	0	0	0	0	0
16.24538	-0.02220687	0.1711777	0	0	0	0	0	0
16.26189	-0.02220687	0.1711777	0	0	0	0	0	0
16.2784	-0.02220687	0.1711777	0	0	0	0	0	0
16.29491	-0.02220687	0.1711777	0	0	0	0	0	0
16.31148	-0.02220687	0.1711777	0	0	0	0	0	0
16.32805	-0.02220687	0.1711777	0	0	0	0	0	0
16.34461	-0.02220687	0.1711777	0	0	0	0	0	0
16.36118	-0.02220687	0.1711777	0	0	0	0	0	0
16.37775	-0.02220687	0.1711777	0	0	0	0	0	0
16.39448	-0.02220687	0.1711777	0	0	0	0	0	0
16.41088	-0.02223318	0.1711596	-0.001604166	-0.001104128	-0.04841662	-0.03332456	0	0
16.42745	-0.02223318	0.1711596	0	0	0.04866314	0.03349424	0	0
16.44402	-0.02223318	0.1711596	0	0	0	0	0	0
16.46058	-0.02223318	0.1711596	0	0	0	0	0	0
16.47715	-0.02223318	0.1711596	0	0	0	0	0	0
16.49371	-0.02228578	0.1711958	-0.003175233	0.002185629	-0.09583426	0.06596622	0	0
16.51028	-0.02228578	0.171232	0	0.00218473	0.09582873	-2.714469E-05	0	0
16.52685	-0.02231209	0.1712501	-0.001587617	0.001091915	-0.04791437	-0.03298121	0	0
16.60968	-0.0241006	0.1725532	-0.02159143	0.01573078	-0.2012427	0.1472701	0	0
16.62625	-0.0240743	0.1726075	0.001587504	0.003276645	0.233185	-0.1252912	0	0
16.64282	-0.0240743	0.1727522	0	0.00873802	-0.04791097	0.1648246	0	0
16.65967	-0.02402169	0.1728246	0.003120403	0.004293427	0.09335711	-0.1329746	0	0
16.67595	-0.02391649	0.1729694	0.006463876	0.008894696	0.100912	0.1388746	0	0
16.69252	-0.02383759	0.1730598	0.004762625	0.005461375	-0.05180005	-0.1045385	0	0
16.70908	-0.02254881	0.1739826	0.07779086	0.05569667	2.203996	1.516104	0	0
16.72572	-0.01697205	0.1778169	0.3351859	0.2304611	7.751687	5.263192	0	0
16.74223	-0.009631281	0.1828236	0.4446256	0.3032497	3.301567	2.19588	0	0
16.77535	0.002842098	0.1913464	0.3766424	0.2573531	-1.369874	-0.9248266	0	0
16.79227	0.004394709	0.1924111	0.09177174	0.06292806	-5.693374	-3.885744	0	0
16.80848	0.01223623	0.197786	0.4835587	0.3314533	11.82415	8.104107	0	0
16.82505	0.01257828	0.1980204	0.02064638	0.01414813	-14.12028	-9.678803	0	0
16.84162	0.01255197	0.1980384	-0.001588179	0.001088317	-0.6710404	-0.3941458	0	0
16.85831	0.01257828	0.1980204	0.001575842	-0.001079864	0.09511802	-0.06518069	0	0
16.87483	0.01257828	0.1980204	0	0	-0.04744976	0.03251548	0	0
16.89134	0.01257828	0.1980204	0	0	0	0	0	0
16.90789	0.01257828	0.1980204	0	0	0	0	0	0
16.92445	0.01257828	0.1980204	0	0	0	0	0	0
16.94102	0.01257828	0.1979843	0	-0.002176635	0	-0.06569853	0	0
16.95758	0.01257828	0.1979843	0	0	0	0.06569475	0	0
16.97415	0.01257828	0.1979843	0	0	0	0	0	0
16.99072	0.01257828	0.1979843	0	0	0	0	0	0
17.01443	0.01257828	0.1979843	0	0	0	0	0	0
17.08102	0.0126046	0.1980024	0.0003951314	0.0002707778	0.004375505	0.00299847	0	0
17.09759	0.01265722	0.1980024	0.003176358	0	0.03344642	-0.003256315	0	0
17.13301	0.01305189	0.1981646	0.0111428	0.004581482	0.1532401	0.08812798	0	0
17.14942	0.01339394	0.1982908	0.02083538	0.007687239	0.1869853	0.05991503	0	0
17.16599	0.01862942	0.2016255	0.3160147	0.2012785	8.949227	5.869286	0	0
17.18256	0.0215493	0.2035895	0.1762438	0.1185501	-4.218295	-2.496746	0	0
17.19913	0.02538928	0.2058233	0.2317819	0.134829	1.676145	0.4912977	0	0
17.21569	0.02749307	0.207156	0.1269851	0.08044375	-3.162776	-1.641351	0	0
17.23258	0.02751937	0.207138	0.001556986	-0.001065782	-3.748955	-2.436262	0	0
17.24883	0.02751937	0.207138	0	0	-0.04698993	0.03216537	0	0
17.26539	0.02751937	0.207138	0	0	0	0	0	0
17.28196	0.02751937	0.207138	0	0	0	0	0	0
17.29863	0.02751937	0.207138	0	0	0	0	0	0
17.3151	0.02751937	0.207138	0	0	0	0	0	0
17.33166	0.02751937	0.207138	0	0	0	0	0	0
17.34823	0.02749307	0.207156	-0.001587279	0.001086519	-0.04790419	0.03279119	0	0
17.3648	0.02746678	0.207138	-0.001587167	-0.001086519	3.393965E-06	-0.06558239	0	0
17.3982	0.02744048	0.20712	-0.0007872051	-0.0005393007	0.01600803	0.01095037	0	0
17.4145	0.02741418	0.207102	-0.001613849	-0.00110562	-0.01663274	-0.0113948	0	0
17.43123	0.02738789	0.207084	-0.001571786	-0.001075989	0.001273715	0.0008972598	0	0
17.44763	0.0273353	0.2070479	-0.003205818	-0.002195421	-0.0493152	-0.03378451	0	0
17.4642	0.027309	0.2070299	-0.001587279	-0.001087418	0.04908778	0.03360401	0	0
17.48077	0.0272827	0.2070119	-0.001587279	-0.001086519	0	2.714469E-05	0	0
17.49734	0.02720381	0.2069579	-0.004761178	-0.003260979	-0.09578292	-0.06562156	0	0
17.5139	0.02720381	0.2069579	0	0	0.1437009	0.09842221	0	0
17.53047	0.02717752	0.2069399	-0.001587279	-0.001086519	-0.04790971	-0.03279497	0	0
17.54731	0.02715122	0.2069219	-0.001561107	-0.001069563	0.0007833594	0.0005074764	0	0
17.5636	0.02715122	0.2069219	0	0	0.04711701	0.03228134	0	0
17.58033	0.02712492	0.2069039	-0.001571539	-0.001076634	-0.04759077	-0.03260362	0	0
17.59684	0.02712492	0.2068678	0	-0.002181219	0.04727131	-0.0332255	0	0
17.61336	0.02709863	0.2068498	-0.001592597	-0.001090158	-0.04822567	0.03303858	0	0
17.62987	0.02709863	0.2068498	0	0	0.04822846	0.03301316	0	0
17.64643	0.02704603	0.2068138	-0.003174925	-0.002174187	-0.0959907	-0.06573439	0	0
17.66339	0.02701974	0.2067958	-0.001550572	-0.001062345	0.04845407	0.03316597	0	0
17.6799	0.02701974	0.2067958	0	0	0.04632699	0.03174008	0	0
17.74583	0.02694085	0.2067418	-0.00119659	-0.0008195373	-0.01451444	-0.009940854	0	0
17.77896	0.02688826	0.2067058	-0.001587279	-0.001086968	-0.003943815	-0.002699581	0	0
17.79553	0.02686196	0.2066878	-0.001587279	-0.001086519	0	9.048231E-06	0	0
17.8121	0.02683566	0.2066697	-0.001587279	-0.001087418	0	-2.714469E-05	0	0
17.82901	0.02683566	0.2066697	0	0	0.04741562	0.03248363	0	0
17.84552	0.02683566	0.2066697	0	0	0	0	0	0
17.86203	0.02680936	0.2066517	-0.001592781	-0.001091187	-0.04823125	-0.0330424	0	0
17.87854	0.02680936	0.2066517	0	0	0.04823403	0.03304431	0	0
17.89506	0.02678307	0.2066337	-0.001592597	-0.001090158	-0.04822567	-0.03301126	0	0
17.91157	0.02675677	0.2065797	-0.001592597	-0.00327228	0	-0.06607717	0	0
17.92808	0.02673047	0.2065617	-0.001592597	-0.001091061	0	0.06604984	0	0
17.94463	0.02670418	0.2065437	-0.00158856	-0.001087395	0.0001220879	0.0001108639	0	0
17.9612	0.02665158	0.2065077	-0.003174671	-0.002174836	-0.04788824	-0.03283226	0	0
17.97777	0.02657269	0.2064176	-0.004761838	-0.005435291	-0.04790079	-0.09840073	0	0
18.01167	0.02644121	0.2062915	-0.003878067	-0.003718145	0.01751004	0.03402158	0	0
18.02824	0.02578376	0.2058052	-0.03968356	-0.02935309	-0.7094094	-0.5079017	0	0
18.04481	0.0246792	0.2049406	-0.06667136	-0.05218707	-0.8144932	-0.6891308	0	0
18.06138	0.02318006	0.2038778	-0.09047789	-0.06414758	-0.7184413	-0.3609481	0	0
18.07794	0.02294334	0.2031391	-0.01428986	-0.04459197	2.29936	0.5901893	0	0
18.0947	0.02394279	0.2023102	0.05963355	-0.04945516	2.218244	-0.1459314	0	0
18.11107	0.03085862	0.1959106	0.4224006	-0.3908707	10.94896	-10.30453	0	0
18.12764	0.03296174	0.1852262	0.1269445	-0.6449126	-8.969548	-7.712282	0	0
18.14424	0.03293546	0.1715397	-0.001584052	-0.8247899	-3.875875	-5.424335	0	0
18.16077	0.03148959	0.1519439	-0.08742369	-1.184849	-2.590795	-10.86724	0	0
18.17734	0.03106895	0.1422033	-0.02539287	-0.5880119	1.873819	18.02919	0	0
18.19391	0.03075346	0.1328099	-0.01904286	-0.5669882	0.1916549	0.6345327	0	0
18.21078	0.02957033	0.1154897	-0.07011447	-1.026423	-1.527191	-13.73844	0	0
18.22704	0.02891299	0.09682342	-0.04042602	-1.147979	0.8959991	-3.668569	0	0
18.2438	0.02830823	0.09033945	-0.03607604	-0.3867868	0.1317227	23.04978	0	0
18.26032	0.02772973	0.07900178	-0.03503487	-0.6866359	0.03128918	-9.011081	0	0
18.27683	0.02775603	0.071642	0.0015923	-0.4456739	1.109049	7.296188	0	0
18.29331	0.02899187	0.06293728	0.07500167	-0.5282761	2.225106	-2.503749	0	0
18.30988	0.03004359	0.05667901	0.06348162	-0.3777502	-0.348619	4.555203	0	0
18.32644	0.03054313	0.05302687	0.03015235	-0.2204436	-1.005879	4.747523	0	0
18.34301	0.03101637	0.04385355	0.02856462	-0.5537024	-0.04791773	-10.05777	0	0
18.35958	0.03135814	0.0417893	0.02062935	-0.1245982	-0.2394871	12.95039	0	0
18.37614	0.03196279	0.03652126	0.03649708	-0.3179801	0.4788892	-5.836277	0	0
18.39271	0.03813939	0.03132033	0.3728631	-0.3139647	10.15213	0.1211916	0	0
18.40943	0.04079315	0.02943573	0.1587554	-0.1127423	-6.433271	6.046105	0	0
18.42584	0.04342006	0.02756882	0.1599976	-0.1137077	0.03749209	-0.02913678	0	0
18.44245	0.04512724	0.02635482	0.1028085	-0.07310915	-1.731754	1.229371	0	0
18.45898	0.04512724	0.02635482	0	0	-3.102945	2.206566	0	0
18.47597	0.04512724	0.02635482	0	0	0	0	0	0
18.49211	0.04512724	0.02635482	0	0	0	0	0	0
18.50868	0.04512724	0.02635482	0	0	0	0	0	0
18.52524	0.04512724	0.02635482	0	0	0	0	0	0
18.54202	0.04512724	0.02635482	0	0	0	0	0	0
18.55853	0.04512724	0.02635482	0	0	0	0	0	0
18.57495	0.04512724	0.02635482	0	0	0	0	0	0
18.59156	0.04512724	0.02635482	0	0	0	0	0	0
18.62465	0.04512724	0.02635482	0	0	0	0	0	0
18.65778	0.04512724	0.02635482	0	0	0	0	0	0
18.67435	0.04512724	0.02635482	0	0	0	0	0	0
18.69113	0.04510098	0.0263735	-0.001565031	0.001113328	-0.04693285	0.03338698	0	0
18.70748	0.04510098	0.0263735	0	0	0.04723545	-0.03360224	0	0
18.72405	0.04510098	0.0263735	0	0	0	0	0	0
18.74062	0.04510098	0.0263735	0	0	0	0	0	0
18.75718	0.04512724	0.02635482	0.001585213	-0.001127685	0.04784459	-0.03403556	0	0
18.77419	0.04512724	0.02635482	0	0	-0.04721938	0.0335908	0	0
18.79032	0.04512724	0.02635482	0	0	0	0	0	0
18.80688	0.04512724	0.02635482	0	0	0	0	0	0
18.82345	0.04512724	0.02635482	0	0	0	0	0	0
18.84002	0.04512724	0.02635482	0	0	0	0	0	0
18.87339	0.04512724	0.02635482	0	0	0	0	0	0
18.88996	0.04512724	0.02635482	0	0	0	0	0	0
18.92309	0.04512724	0.02635482	0	0	0	0	0	0
18.93966	0.04512724	0.02635482	0	0	0	0	0	0
18.95623	0.04512724	0.02635482	0	0	0	0	0	0
18.97283	0.04512724	0.02635482	0	0	0	0	0	0
18.98936	0.04512724	0.02635482	0	0	0	0	0	0
19.00593	0.04512724	0.02635482	0	0	0	0	0	0
19.02249	0.04510098	0.0263735	-0.001585213	0.001127685	-0.04784459	0.03403556	0	0
19.03906	0.04510098	0.0263735	0	0	0.04784459	-0.03403556	0	0
19.05563	0.04510098	0.0263735	0	0	0	0	0	0
19.0724	0.04510098	0.0263735	0	0	0	0	0	0
19.08891	0.04510098	0.0263735	0	0	0	0	0	0
19.10533	0.04512724	0.02635482	0.001599765	-0.001138037	0.04858585	-0.03456288	0	0
19.1219	0.04512724	0.02635482	0	0	-0.04850437	0.03450492	0	0
19.13846	0.04512724	0.02635482	0	0	0	0	0	0
19.15503	0.04512724	0.02635482	0	0	0	0	0	0
19.1716	0.04512724	0.02635482	0	0	0	0	0	0
19.18816	0.04510098	0.0263735	-0.001585031	0.001127555	-0.04783633	0.03402968	0	0
19.20473	0.04507471	0.02639218	-0.001585256	0.001127443	-6.78793E-06	-3.393965E-06	0	0
19.22151	0.04475956	0.02665369	-0.01878259	0.0155857	-0.5157214	0.4335807	0	0
19.23787	0.04452319	0.02697121	-0.01445221	0.01941372	0.1306911	0.1155298	0	0
19.25453	0.04423428	0.02743811	-0.0173325	0.02801088	-0.0872185	0.260332	0	0
19.27105	0.04357766	0.02842772	-0.03975768	0.05991959	-0.6757817	0.9615676	0	0
19.33727	0.01883988	0.0541581	-0.3735842	0.3885741	-4.034979	3.972464	0	0
19.35383	0.01563031	0.06545265	-0.1937299	0.6817407	2.172555	3.541316	0	0
19.3704	0.01526197	0.07826453	-0.02223265	0.7733269	5.175798	2.764076	0	0
19.38697	0.01641958	0.09588722	0.06987307	1.063707	2.779756	8.763703	0	0
19.40354	0.01899771	0.1122709	0.1556167	0.9889234	2.587747	-2.256987	0	0
19.4201	0.02052343	0.1201678	0.09209268	0.4766569	-1.917158	-15.46023	0	0
19.43667	0.02328526	0.136562	0.1666852	0.9894378	2.251076	15.47487	0	0
19.45324	0.02536298	0.1524705	0.1254257	0.9603501	-1.245213	-0.8778692	0	0
19.4698	0.02712492	0.1645679	0.1063511	0.7301998	-0.5757061	-6.946349	0	0
19.48637	0.02757196	0.17675	0.02698296	0.7353185	-2.395335	0.1544817	0	0
19.50294	0.0279138	0.1885127	0.02063362	0.7099922	-0.1916235	-0.7643496	0	0
19.51974	0.02822934	0.1983269	0.01878657	0.5843166	-0.05536158	-3.766876	0	0
19.53607	0.02815046	0.2095868	-0.004828204	0.6891672	-0.7126954	3.164397	0	0
19.55276	0.02893929	0.2177202	0.04727103	0.4873977	1.577534	-6.109463	0	0
19.56921	0.03064829	0.2271217	0.1039096	0.5716217	1.709356	2.541885	0	0
19.58578	0.03262001	0.2327795	0.1190127	0.3415095	0.4574702	-6.970076	0	0
19.60234	0.03319832	0.2373394	0.03490733	0.2752328	-2.538305	-2.000236	0	0
19.61891	0.03411834	0.2422021	0.05553207	0.2935183	0.622456	0.5518588	0	0
19.63548	0.03064829	0.2447493	-0.2094521	0.153746	-7.997238	-4.218338	0	0
19.65204	0.02933369	0.2456102	-0.07934981	0.05196311	3.926495	-3.071813	0	0
19.66861	0.0292811	0.2456819	-0.003174109	0.004329884	2.298987	-1.437574	0	0
19.68536	0.02872894	0.2460585	-0.032972	0.02248808	-0.8944621	0.5450659	0	0
19.70187	0.02260141	0.2502362	-0.3710969	0.2530133	-10.16659	6.93133	0	0
19.73603	0.01715621	0.2539107	-0.1594	0.107563	4.177744	-2.870397	0	0
19.7526	0.01702467	0.2538569	-0.00793977	-0.003245165	2.985742	-2.184366	0	0
19.76916	0.01699836	0.2536956	-0.001588249	-0.009736615	0.1917003	-0.1959236	0	0
19.78573	0.01741929	0.2531938	0.02540726	-0.0302894	0.8147731	-0.6203201	0	0
19.8023	0.0177876	0.252907	0.02223113	-0.01730874	-0.09585586	0.391757	0	0
19.81895	0.01818221	0.2526382	0.02369045	-0.01614029	0.04392339	0.03516892	0	0
19.83547	0.01841897	0.252441	0.0143389	-0.0119412	-0.2819382	0.1265974	0	0
19.852	0.01876096	0.252208	0.02068764	-0.01409441	0.1921364	-0.06516393	0	0
19.86856	0.01883988	0.2521184	0.004763525	-0.005409207	-0.481117	0.2624069	0	0
19.88513	0.01883988	0.2521184	0	0	-0.1437635	0.1632502	0	0
19.9017	0.01883988	0.2521184	0	0	0	0	0	0
19.91853	0.01883988	0.2521184	0	0	0	0	0	0
19.93504	0.01883988	0.2521184	0	0	0	0	0	0
19.9514	0.01883988	0.2521184	0	0	0	0	0	0
19.96797	0.01883988	0.2521184	0	0	0	0	0	0
19.98457	0.01883988	0.2521184	0	0	0	0	0	0
20.0011	0.01883988	0.2521184	0	0	0	0	0	0
20.01767	0.01883988	0.2521184	0	0	0	0	0	0
20.03423	0.01883988	0.2521184	0	0	0	0	0	0
20.08414	0.01876096	0.2519929	-0.001581167	-0.002513805	-0.02378456	-0.03781367	0	0
20.1005	0.01873465	0.2519033	-0.001608208	-0.005478588	-0.0004080505	-0.04473867	0	0
20.11707	0.01862942	0.2517241	-0.006351479	-0.01082021	-0.1440644	-0.1622379	0	0
20.13368	0.01834005	0.251491	-0.01741858	-0.01402662	-0.3335449	-0.09663607	0	0
20.1502	0.0181559	0.2513656	-0.01114743	-0.00759511	0.1892747	0.1941146	0	0
20.16677	0.01784021	0.2511146	-0.01905708	-0.01515004	-0.2390717	-0.2283501	0	0
20.18333	0.0178139	0.2510967	-0.001587954	-0.001081122	0.5272496	0.4246253	0	0
20.20023	0.0178139	0.2510967	0	0	0.0474574	0.03231028	0	0
20.21647	0.0178139	0.2510967	0	0	0	0	0	0
20.23325	0.0178139	0.2510967	0	0	0	0	0	0
20.2496	0.0178139	0.2510967	0	0	0	0	0	0
20.26628	0.0178139	0.2510967	0	0	0	0	0	0
20.28279	0.0178139	0.2510967	0	0	0	0	0	0
20.33244	0.01776129	0.2510608	-0.001059697	-0.0007220958	-0.01601713	-0.01091435	0	0
20.349	0.01776129	0.2510608	0	0	0.01600329	0.01090492	0	0
20.36585	0.01776129	0.2510608	0	0	0	0	0	0
20.38236	0.01776129	0.2510608	0	0	0	0	0	0
20.39887	0.01773498	0.2510429	-0.001593458	-0.001086674	-0.04825453	-0.03290765	0	0
20.41538	0.01773498	0.2510429	0	0	0.04825453	0.03290765	0	0
20.43184	0.01773498	0.2510429	0	0	0	0	0	0
20.44841	0.01773498	0.2510429	0	0	0	0	0	0
20.46497	0.01773498	0.2510429	0	0	0	0	0	0
20.48154	0.01773498	0.2510071	0	-0.002162244	0	-0.06526041	0	0
20.4981	0.01770867	0.2509891	-0.001588137	-0.001083045	-0.04793283	0.03257215	0	0
20.51467	0.01770867	0.2509891	0	0	0.04793283	0.03268826	0	0
20.53124	0.01770867	0.2509891	0	0	0	0	0	0
20.54798	0.01768237	0.2509712	-0.001571737	-0.001070157	-0.04719334	-0.03213277	0	0
20.56437	0.01765606	0.2509533	-0.00160458	-0.001094259	-0.0009912564	-0.0007274501	0	0
20.581	0.01765606	0.2509533	0	0	0.04859135	0.03313734	0	0
20.59751	0.01760344	0.2509174	-0.003186179	-0.002171041	-0.09614246	-0.06551084	0	0
20.63064	0.01757714	0.2508995	-0.0007941494	-0.0005407166	0.04818875	0.03284379	0	0
20.6472	0.01755083	0.2508816	-0.001587954	-0.001082921	-0.01597445	-0.01091126	0	0
20.66377	0.01752452	0.2508637	-0.001587954	-0.001081122	0	5.428939E-05	0	0
20.68057	0.01752452	0.2508637	0	0	0.04759305	0.03240263	0	0
20.69708	0.0174456	0.2508099	-0.00477982	-0.00325784	-0.1434953	-0.09780386	0	0
20.71347	0.01728775	0.2507023	-0.009630727	-0.006562391	-0.1474361	-0.1004369	0	0
20.7301	0.01699836	0.2504693	-0.0173975	-0.01400893	-0.235187	-0.2254898	0	0
20.74662	0.01610387	0.2498598	-0.05417243	-0.03691467	-1.109486	-0.691058	0	0
20.76317	0.01557769	0.2495012	-0.0317825	-0.02165719	0.6770936	0.4614015	0	0
20.7963	0.01544614	0.2494116	-0.003970338	-0.002705659	0.5597321	0.3814079	0	0
20.81287	0.01544614	0.2494116	0	0	0.07988644	0.05444005	0	0
20.82944	0.01544614	0.2494116	0	0	0	0	0	0
20.84619	0.01544614	0.2494116	0	0	0	0	0	0
20.8627	0.01547245	0.2493936	0.00159357	-0.001085771	0.04791477	-0.0326465	0	0
20.87921	0.01547245	0.2493936	0	0	-0.04825795	0.03288032	0	0
20.89573	0.01547245	0.2493936	0	0	0	0	0	0
20.91227	0.01549876	0.2493757	0.001590263	-0.001083518	0.04810223	-0.03277422	0	0
20.92884	0.01552507	0.2493578	0.00158801	-0.001082021	-6.804927E-05	4.52068E-05	0	0
20.94576	0.01552507	0.2493578	0	0	-0.04741854	0.03230954	0	0
20.96197	0.01552507	0.2493578	0	0	0	0	0	0
20.97854	0.01552507	0.2493578	0	0	0	0	0	0
20.99529	0.01555138	0.2493399	0.001570349	-0.00106995	0.04712737	-0.03211	0	0
21.0118	0.01555138	0.2493399	0	0	-0.04720573	0.03216339	0	0
21.02832	0.01557769	0.2493219	0.00159333	-0.001086548	0.04824788	-0.03290195	0	0
21.04483	0.01557769	0.2492861	0	-0.002171292	-0.04824788	-0.03284729	0	0
21.06137	0.015604	0.2492681	0.001590263	-0.001083518	0.04810779	0.03290674	0	0
21.07794	0.01568292	0.2492144	0.004764087	-0.003246064	0.0958524	-0.06531088	0	0
21.09486	0.01573554	0.2491785	0.003109436	-0.002119554	-0.04940846	0.03363797	0	0
21.16077	0.01581447	0.2490889	0.001197536	-0.001360151	-0.02308209	0.009168176	0	0
21.21047	0.01581447	0.2490889	0	0	-0.01035857	0.01176517	0	0
21.22704	0.01581447	0.2490889	0	0	0	0	0	0
21.2436	0.01581447	0.2490889	0	0	0	0	0	0
21.26017	0.01581447	0.2490889	0	0	0	0	0	0
21.27699	0.01581447	0.2490889	0	0	0	0	0	0
21.2933	0.01581447	0.2490889	0	0	0	0	0	0
21.31001	0.01584078	0.2490709	0.001574472	-0.001072759	0.04767958	-0.03248625	0	0
21.32653	0.01584078	0.2490709	0	0	-0.04739216	0.03229041	0	0
21.343	0.01584078	0.2490709	0	0	0	0	0	0
21.36005	0.01584078	0.2490709	0	0	0	0	0	0
21.37614	0.0158934	0.2490351	0.003270529	-0.002228438	0.09870477	-0.06725439	0	0
21.39271	0.01605125	0.2489275	0.009528174	-0.006493028	0.1916248	-0.1305924	0	0
21.40927	0.01686682	0.2483	0.04922781	-0.03787794	1.198137	-0.9471986	0	0
21.42584	0.01831374	0.2472779	0.08733623	-0.06169051	1.150115	-0.7186646	0	0
21.44241	0.02496849	0.2427045	0.4016817	-0.2760558	9.486963	-6.469556	0	0
21.45913	0.04144993	0.2312352	0.9857426	-0.6859698	17.54619	-12.31452	0	0
21.47554	0.05300294	0.2230063	0.7038236	-0.5013109	-8.508332	5.573016	0	0
21.49215	0.06894319	0.2117108	0.9599448	-0.6802304	7.756544	-5.418516	0	0
21.50867	0.07703149	0.2061474	0.4893938	-0.3366209	-14.20207	10.37075	0	0
21.52524	0.08840058	0.1982728	0.6862399	-0.4753141	5.948016	-4.190834	0	0
21.54181	0.103315	0.187953	0.9002386	-0.6229061	6.458495	-4.454336	0	0
21.57534	0.1279291	0.1707795	0.7340643	-0.5121636	-3.316957	2.210499	0	0
21.59222	0.1376503	0.1639337	0.5760297	-0.4056514	-3.135147	2.113027	0	0
21.60847	0.1504595	0.1547032	0.7879524	-0.5678083	6.396208	-4.894187	0	0
21.62524	0.1568586	0.1498918	0.3816377	-0.2869465	-12.30368	8.504819	0	0
21.64175	0.1663177	0.1378363	0.5728647	-0.7301073	5.746104	-13.31636	0	0
21.65826	0.1678018	0.1247868	0.08988211	-0.7903097	-14.62527	-1.822997	0	0
21.67478	0.1681855	0.1106608	0.02323716	-0.8555067	-2.018086	-1.974241	0	0
21.69131	0.1690551	0.09621767	0.05260074	-0.8736975	0.8886502	-0.5505206	0	0
21.70787	0.1711256	0.07367229	0.1249757	-1.360842	2.186673	-14.71813	0	0
21.72444	0.1729137	0.06099419	0.107919	-0.7651637	-0.5147438	17.97656	0	0
21.74101	0.175007	0.04894429	0.1263783	-0.7275013	0.5571341	1.136719	0	0
21.75757	0.1780674	0.03786224	0.1847315	-0.6689134	1.761309	1.76839	0	0
21.77414	0.1835933	0.02519646	0.3335387	-0.7645082	4.491009	-2.885059	0	0
21.79086	0.1873555	0.01711483	0.2250446	-0.4834113	-3.259537	8.44512	0	0
21.80737	0.1948133	0.01077869	0.4516054	-0.3836876	6.817606	3.000855	0	0
21.82384	0.197016	0.009145897	0.1337408	-0.09913738	-9.636999	8.626975	0	0
21.84041	0.199596	0.0072306	0.155731	-0.1156075	0.6656213	-0.4985337	0	0
21.85698	0.1998235	0.007061552	0.01373349	-0.01020379	-4.285494	3.181091	0	0
21.87354	0.1997982	0.007117902	-0.001526343	0.003401329	-0.4605426	0.4106033	0	0
21.89011	0.199773	0.007136686	-0.001525443	0.001133767	2.714469E-05	-0.06843517	0	0
21.90668	0.199773	0.007136686	0	0	0.04603797	-0.03421716	0	0
21.92346	0.1997477	0.007155469	-0.001507083	0.001119433	-0.04519509	0.03357007	0	0
21.93981	0.1997224	0.007174252	-0.00154537	0.001148549	-0.00115555	0.0008787502	0	0
22.03922	0.199419	0.007399641	-0.003051936	0.002267417	-0.01301491	0.009665666	0	0
22.07235	0.199419	0.007399641	0	0	0.02302723	-0.01710794	0	0
22.08908	0.199419	0.007399641	0	0	0	0	0	0
22.10548	0.1993937	0.007418422	-0.001541427	0.001144858	-0.04652303	0.03455387	0	0
22.1221	0.1993937	0.007418422	0	0	0.04667619	-0.03466763	0	0
22.13861	0.1993937	0.007418422	0	0	0	0	0	0
22.15518	0.1993937	0.007418422	0	0	0	0	0	0
22.17175	0.1993937	0.007418422	0	0	0	0	0	0
22.18832	0.1993937	0.007418422	0	0	0	0	0	0
22.20516	0.1993937	0.007418422	0	0	0	0	0	0
22.22167	0.1993937	0.007418422	0	0	0	0	0	0
22.23802	0.1993937	0.007418422	0	0	0	0	0	0
22.25458	0.1993937	0.007418422	0	0	0	0	0	0
22.27121	0.1993937	0.007418422	0	0	0	0	0	0
22.28772	0.1993937	0.007418422	0	0	0	0	0	0
22.30429	0.1993937	0.007418422	0	0	0	0	0	0
22.32086	0.1993937	0.007418422	0	0	0	0	0	0
22.33742	0.1993937	0.007418422	0	0	0	0	0	0
22.35398	0.1993937	0.007418422	0	0	0	0	0	0
22.37055	0.1993937	0.007418422	0	0	0	0	0	0
22.40383	0.1993937	0.007418422	0	0	0	0	0	0
22.4204	0.1993937	0.007418422	0	0	0	0	0	0
22.43697	0.1993937	0.007418422	0	0	0	0	0	0
22.45354	0.1993937	0.007418422	0	0	0	0	0	0
22.4701	0.1993937	0.007418422	0	0	0	0	0	0
22.48667	0.1993685	0.007437204	-0.001526518	0.001133785	-0.04607307	0.03421967	0	0
22.50323	0.1993685	0.007437204	0	0	0.04607307	-0.03421967	0	0
22.5198	0.1993685	0.007437204	0	0	0	0	0	0
22.53637	0.1987869	0.007906711	-0.03510498	0.02833951	-1.059471	0.8552881	0	0
22.55294	0.1969147	0.009483779	-0.1130015	0.09519202	-2.350922	2.017613	0	0
22.5695	0.1941039	0.01186678	-0.1696615	0.1438381	-1.710001	1.468142	0	0
22.58607	0.1797748	0.0230282	-0.8650097	0.6737826	-20.98686	15.99468	0	0
22.60264	0.1718665	0.02889443	-0.4773432	0.3540859	11.70047	-9.649022	0	0
22.6192	0.1543673	0.04188231	-1.056253	0.7839502	-17.47155	12.97333	0	0
22.63577	0.1400766	0.05222924	-0.8625905	0.6245422	5.844759	-4.810944	0	0
22.65234	0.1259093	0.06238221	-0.855136	0.612834	0.2249777	-0.3533542	0	0
22.66891	0.1123408	0.07208505	-0.8189994	0.585665	1.090606	-0.8199617	0	0
22.68547	0.09505478	0.0843246	-1.043386	0.7387804	-6.771991	4.621034	0	0
22.70204	0.08678149	0.0901924	-0.4993771	0.3541812	16.41821	-11.60723	0	0
22.76831	0.03472288	0.1268485	-0.785566	0.5531412	-3.454879	2.40185	0	0
22.78508	0.01989211	0.137272	-0.8842935	0.6215091	-1.188912	0.8233105	0	0
22.80144	0.004947328	0.1477117	-0.9133199	0.6380032	-0.87602	0.4977928	0	0
22.81801	-0.002552626	0.1529243	-0.4526981	0.3146335	13.98775	-9.819802	0	0
22.83458	-0.01720883	0.1630638	-0.8846501	0.6120194	-13.03634	8.975124	0	0
22.85114	-0.0241006	0.1678103	-0.415988	0.2864973	14.14425	-9.824275	0	0
22.86771	-0.04079315	0.1793718	-1.007564	0.6978525	-17.85381	12.41472	0	0
22.88428	-0.04749058	0.184016	-0.404258	0.2803254	18.20782	-12.60099	0	0
22.90085	-0.06032147	0.1928441	-0.7743845	0.532805	-11.1698	7.619411	0	0
22.93398	-0.07496452	0.2029229	-0.4419538	0.3041959	6.688519	-4.599623	0	0
22.9507	-0.08011761	0.2064356	-0.3082025	0.2100944	2.682948	-1.887604	0	0
22.96721	-0.08675537	0.2110089	-0.4019981	0.276967	-2.822471	2.012311	0	0
22.98368	-0.08934049	0.2127907	-0.1569775	0.1081969	7.429377	-5.117352	0	0
23.00025	-0.08936659	0.2128087	-0.001575812	0.001086519	4.704113	-3.242302	0	0
23.01682	-0.08931439	0.2127727	0.003151173	-0.002172138	0.1426607	-0.09834644	0	0
23.03338	-0.08923607	0.2127187	0.004727435	-0.003258656	0.04757166	-0.0327912	0	0
23.04995	-0.08920996	0.2127007	0.001575812	-0.001086519	-0.09511618	0.06555524	0	0
23.06679	-0.08920996	0.2127007	0	0	-0.04716442	0.03251976	0	0
23.0833	-0.08920996	0.2127007	0	0	0	0	0	0
23.09965	-0.08920996	0.2127007	0	0	0	0	0	0
23.11632	-0.08918385	0.2126827	0.001565896	-0.001079682	0.04742264	-0.0326978	0	0
23.13278	-0.08910552	0.2126287	0.004758012	-0.003279421	0.09633825	-0.06638827	0	0
23.14935	-0.08897499	0.2125387	0.007879058	-0.005431693	0.0944925	-0.06516199	0	0
23.16592	-0.08894888	0.2125207	0.001575812	-0.001085619	-0.1902324	0.1311648	0	0
23.18249	-0.08892278	0.2125027	0.001575812	-0.001086519	0	-2.714469E-05	0	0
23.19905	-0.08889666	0.2124847	0.001576261	-0.001086519	1.357235E-05	0	0	0
23.21589	-0.08884445	0.2124487	0.003100578	-0.002136956	0.04562837	-0.03144345	0	0
23.23219	-0.08876612	0.2123947	0.004807587	-0.003314505	0.0515206	-0.03554053	0	0
23.24875	-0.08863557	0.2123048	0.007879958	-0.005430794	0.09349937	-0.06440359	0	0
23.26532	-0.08842669	0.2121248	0.01260639	-0.01086214	0.1426358	-0.1639088	0	0
23.28194	-0.08813947	0.2119268	0.01728335	-0.01191287	0.1409238	-0.03166033	0	0
23.29845	-0.08793058	0.2117828	0.01265098	-0.008720363	-0.1398214	0.09636128	0	0
23.31502	-0.08785223	0.2117648	0.004728784	-0.001085619	-0.2394921	0.2308023	0	0
23.35056	-0.08377713	0.2093527	0.1146636	-0.06787144	2.109796	-1.281709	0	0
23.38369	-0.07101198	0.2056071	0.3852531	-0.1130425	3.940198	-0.6577592	0	0
23.40026	-0.05691216	0.20413	0.8510667	-0.08915928	9.372188	0.4805304	0	0
23.41683	-0.03382919	0.2028148	1.393291	-0.0793869	16.36435	0.2949309	0	0
23.43355	-0.007315659	0.2005441	1.585755	-0.1358052	5.781963	-1.694904	0	0
23.44996	0.005026273	0.1984711	0.7519729	-0.1263047	-25.16504	0.286745	0	0
23.46653	0.01439374	0.1958746	0.5654216	-0.1567285	-5.656505	-0.9224949	0	0
23.4831	0.01810328	0.1934755	0.2239084	-0.1448056	-10.30689	0.3598346	0	0
23.49966	0.0242058	0.1892889	0.3683484	-0.2527064	4.35921	-3.256454	0	0
23.51623	0.02562597	0.1883141	0.08572163	-0.05884109	-8.529694	5.850867	0	0
23.5328	0.02667788	0.1875919	0.06349354	-0.04359116	-0.6708452	0.4602439	0	0
23.54936	0.02667788	0.1875919	0	0	-1.916239	1.315584	0	0
23.56593	0.02667788	0.1875919	0	0	0	0	0	0
23.5825	0.02667788	0.1875919	0	0	0	0	0	0
23.59907	0.02667788	0.1875919	0	0	0	0	0	0
23.61568	0.02667788	0.1875919	0	0	0	0	0	0
23.6322	0.02665158	0.1876099	-0.001592158	0.001093389	-0.04805418	0.03300045	0	0
23.64877	0.02662528	0.187628	-0.001587279	0.001090116	0.0001474471	-9.892086E-05	0	0
23.66533	0.02662528	0.187628	0	0	0.04790419	-0.03289977	0	0
23.6819	0.02662528	0.187628	0	0	0	0	0	0
23.69847	0.02659899	0.187646	-0.001587279	0.001089217	-0.04790419	0.03287263	0	0
23.71503	0.02654639	0.1876822	-0.003174559	0.002180233	-0.04790419	0.03292692	0	0
23.7316	0.02654639	0.1876822	0	0	0.09581389	-0.06580334	0	0
23.79787	0.0265201	0.1877002	-0.0003968313	0.0002723121	-0.004790777	0.003287509	0	0
23.81443	0.0265201	0.1876641	0	-0.002179584	0.004790777	-0.02960071	0	0
23.831	0.0265201	0.1876641	0	0	0	0.06578376	0	0
23.84785	0.0265201	0.1876641	0	0	0	0	0	0
23.86436	0.0265201	0.187628	0	-0.002186634	0	-0.06555125	0	0
23.8807	0.0265201	0.187628	0	0	0	0.06655592	0	0
23.89738	0.0264938	0.1876099	-0.001576682	-0.001082762	-0.04774652	-0.03278917	0	0
23.91389	0.0265201	0.1875919	0.001592709	-0.001093768	0.09548753	-0.0003316038	0	0
23.9304	0.0264938	0.1875738	-0.001592709	-0.001092866	-0.09645818	2.732728E-05	0	0
23.94696	0.0265201	0.1875558	0.00158794	-0.001090493	0.09616935	7.173919E-05	0	0
23.96353	0.0265201	0.1875558	0	0	-0.04793241	0.03291683	0	0
23.98094	0.0264938	0.1875377	-0.001510692	-0.001037444	-0.04446403	-0.03053497	0	0
23.99666	0.0264938	0.1875377	0	0	0.0455954	0.03131192	0	0
24.01323	0.0264938	0.1875377	0	0	0	0	0	0
24.0298	0.0264675	0.1875197	-0.001587279	-0.001090116	-0.04790695	-0.03290167	0	0
24.04636	0.0264675	0.1875197	0	0	0.04790419	0.03289977	0	0
24.063	0.02644121	0.1875016	-0.001581091	-0.00108497	-0.0476242	-0.03268049	0	0
24.07951	0.02641491	0.1874835	-0.001592709	-0.001093768	-0.0003505596	-0.0002654539	0	0
24.09607	0.02638861	0.1874655	-0.001588194	-0.001090744	0.0001365529	9.144009E-05	0	0
24.11263	0.02638861	0.1874655	0	0	0.04794834	0.0329301	0	0
24.1292	0.02638861	0.1874655	0	0	0	0	0	0
24.14577	0.02636231	0.1874474	-0.001587279	-0.001089217	-0.04790419	-0.03287263	0	0
24.16233	0.02636231	0.1874474	0	0	0.04790419	0.03287263	0	0
24.17908	0.02636231	0.1874474	0	0	0	0	0	0
24.19547	0.02636231	0.1874474	0	0	0	0	0	0
24.2286	0.02636231	0.1874474	0	0	0	0	0	0
24.24516	0.02636231	0.1874474	0	0	0	0	0	0
24.27865	0.02636231	0.1874474	0	0	0	0	0	0
24.29516	0.02638861	0.1874294	0.001592413	-0.001093642	0.03184874	-0.02187317	0	0
24.31167	0.02636231	0.1874113	-0.001592781	-0.001093894	-0.09645136	-7.649664E-06	0	0
24.328	0.02636231	0.1874113	0	0	0.04850861	0.03331488	0	0
24.34456	0.02633601	0.1873933	-0.001587575	-0.001089342	-0.04826875	-0.03312045	0	0
24.36113	0.02633601	0.1873933	0	0	0.04791586	0.03287831	0	0
24.37772	0.02630972	0.1873752	-0.001585272	-0.001088738	-0.04781333	-0.03283737	0	0
24.39427	0.02630972	0.1873752	0	0	0.0478436	0.03285816	0	0
24.41083	0.02628342	0.1873572	-0.001587392	-0.001090116	-0.04793793	-0.03292062	0	0
24.4274	0.02628342	0.1873572	0	0	0.04790758	0.03289977	0	0
24.44397	0.02628342	0.1873572	0	0	0	0	0	0
24.46054	0.02628342	0.1873572	0	0	0	0	0	0
24.4771	0.02628342	0.1873572	0	0	0	0	0	0
24.49381	0.02628342	0.1873572	0	0	0	0	0	0
24.51032	0.02625712	0.1873391	-0.001592597	-0.001093768	-0.04794598	-0.03292848	0	0
24.54337	0.02625712	0.1873391	0	0	0.03213189	0.02206763	0	0
24.55994	0.02625712	0.1873391	0	0	0	0	0	0
24.57651	0.02625712	0.1873391	0	0	0	0	0	0
24.59307	0.02628342	0.1873211	0.001587279	-0.001089217	0.04790419	-0.03287263	0	0
24.60964	0.02625712	0.187303	-0.001587279	-0.001090116	-0.09580838	-2.714821E-05	0	0
24.6264	0.02625712	0.187303	0	0	0.04762184	0.03270586	0	0
24.64277	0.02625712	0.187303	0	0	0	0	0	0
24.65934	0.02625712	0.187303	0	0	0	0	0	0
24.67594	0.02625712	0.187303	0	0	0	0	0	0
24.69247	0.02625712	0.187303	0	0	0	0	0	0
24.70904	0.02623083	0.1872849	-0.001587279	-0.001090116	-0.04795111	-0.032932	0	0
24.73412	0.02623083	0.1872849	0	0	0.03811099	0.02617398	0	0
24.75069	0.02623083	0.1872849	0	0	0	0	0	0
24.76726	0.02623083	0.1872849	0	0	0	0	0	0
24.78382	0.02623083	0.1872849	0	0	0	0	0	0
24.80039	0.02623083	0.1872849	0	0	0	0	0	0
24.81696	0.02623083	0.1872849	0	0	0	0	0	0
24.83355	0.02620453	0.1872669	-0.001584837	-0.001088362	-0.04779197	-0.03282038	0	0
24.85009	0.02620453	0.1872669	0	0	0.04783049	0.03284683	0	0
24.86666	0.02617823	0.1872488	-0.001587279	-0.001089217	-0.04794283	-0.03289914	0	0
24.88323	0.02617823	0.1872488	0	0	0.04790419	0.03287263	0	0
24.8998	0.02617823	0.1872488	0	0	0	0	0	0
24.91636	0.02617823	0.1872488	0	0	0	0	0	0
24.93293	0.02615193	0.1872308	-0.001587392	-0.001090116	-0.04791034	-0.03290167	0	0
24.9495	0.02615193	0.1872308	0	0	0.04790758	0.03289977	0	0
24.96606	0.02615193	0.1872308	0	0	0	0	0	0
24.98263	0.02615193	0.1872308	0	0	0	0	0	0
24.9992	0.02615193	0.1872308	0	0	0	0	0	0
25.01577	0.02615193	0.1872308	0	0	0	0	0	0
25.03233	0.02615193	0.1872308	0	0	0	0	0	0
25.0489	0.02615193	0.1872308	0	0	0	0	0	0
25.08574	0.02617823	0.1872127	0.0007138908	-0.0004902532	0.0133673	-0.009179781	0	0
25.10225	0.02617823	0.1872127	0	0	-0.01338116	0.009189298	0	0
25.11853	0.02617823	0.1872127	0	0	0	0	0	0
25.15179	0.02615193	0.1871946	-0.0007907373	-0.0005430263	-0.01596296	-0.01096231	0	0
25.16823	0.02615193	0.1871946	0	0	0.01591028	0.01092613	0	0
25.1848	0.02615193	0.1871946	0	0	0	0	0	0
25.20136	0.02615193	0.1871946	0	0	0	0	0	0
25.21833	0.02615193	0.1871946	0	0	0	0	0	0
25.23485	0.02615193	0.1871946	0	0	0	0	0	0
25.25136	0.02612563	0.1871766	-0.001592597	-0.001092866	-0.04822567	-0.03309324	0	0
25.26787	0.02612563	0.1871766	0	0	0.04822289	0.03309133	0	0
25.28438	0.02612563	0.1871766	0	0	0	0	0	0
25.30076	0.02612563	0.1871766	0	0	0	0	0	0
25.3174	0.02612563	0.1871766	0	0	0	0	0	0
25.33392	0.02612563	0.1871766	0	0	0	0	0	0
25.35046	0.02609934	0.1871585	-0.001589405	-0.001091499	-0.04807904	-0.03301752	0	0
25.36703	0.02609934	0.1871585	0	0	0.04800149	0.03296426	0	0
25.38359	0.02609934	0.1871585	0	0	0	0	0	0
25.40016	0.02609934	0.1871585	0	0	0	0	0	0
25.41673	0.02609934	0.1871585	0	0	0	0	0	0
25.4333	0.02609934	0.1871585	0	0	0	0	0	0
25.44986	0.02609934	0.1871585	0	0	0	0	0	0
25.46643	0.02609934	0.1871585	0	0	0	0	0	0
25.483	0.02609934	0.1871585	0	0	0	0	0	0
25.49957	0.02609934	0.1871585	0	0	0	0	0	0
25.51613	0.02609934	0.1871585	0	0	0	0	0	0
25.5327	0.02609934	0.1871585	0	0	0	0	0	0
25.54927	0.02612563	0.1871405	0.001587392	-0.001090116	0.04790758	-0.03289977	0	0
25.56583	0.02612563	0.1871405	0	0	-0.04790758	0.03289977	0	0
25.5826	0.02609934	0.1871224	-0.001568789	-0.001077341	-0.04706708	-0.03232257	0	0
25.59897	0.02609934	0.1871224	0	0	0.04734614	0.03251422	0	0
25.61554	0.02609934	0.1871224	0	0	0	0	0	0
25.6321	0.02607304	0.1871044	-0.001587392	-0.001089217	-0.04790758	-0.03287263	0	0
25.64867	0.02607304	0.1871044	0	0	0.04790758	0.03287263	0	0
25.66566	0.02607304	0.1871044	0	0	0	0	0	0
25.6818	0.02609934	0.1870863	0.00162922	-0.001118841	0.04917278	-0.03376863	0	0
25.69868	0.02607304	0.1870683	-0.001558152	-0.001070036	-0.09652846	0.001478033	0	0
25.71519	0.02607304	0.1870683	0	0	0.04666516	0.03204656	0	0
25.7315	0.02607304	0.1870683	0	0	0	0	0	0
25.74807	0.02607304	0.1870683	0	0	0	0	0	0
25.76473	0.02607304	0.1870321	0	-0.002167356	0	-0.0652307	0	0
25.78124	0.02607304	0.1870321	0	0	0	0.06533947	0	0
25.79777	0.02607304	0.1870321	0	0	0	0	0	0
25.81434	0.02607304	0.186996	0	-0.002180233	0	-0.0658716	0	0
25.83091	0.02609934	0.1869419	0.001587392	-0.003269449	0.04790758	-0.03287262	0	0
25.84779	0.02609934	0.1868335	0	-0.006417159	-0.04745413	-0.09409888	0	0
25.86404	0.02617823	0.1866349	0.004854845	-0.01222308	0.1465195	-0.175223	0	0
25.89717	0.02536298	0.1855694	-0.02460565	-0.03215893	-0.5965697	-0.4036974	0	0
25.91384	0.02336417	0.1840882	-0.119958	-0.08888955	-1.914892	-1.13928	0	0
25.93035	0.02352198	0.1834379	0.00955716	-0.03938738	3.904056	1.492175	0	0
25.94687	0.0248896	0.1824984	0.08275928	-0.05685343	2.215749	-0.5286785	0	0
25.96344	0.03004359	0.1789198	0.3110957	-0.2160022	6.899944	-4.809211	0	0
25.98001	0.0343549	0.1757373	0.2602312	-0.1920988	-1.535092	0.7214065	0	0
25.99657	0.04184398	0.1704356	0.4520419	-0.3200094	5.788857	-3.860349	0	0
26.01314	0.05234687	0.1628644	0.6339557	-0.4569953	5.490169	-4.134243	0	0
26.02992	0.05887923	0.156427	0.3893191	-0.3836597	-7.336271	2.199219	0	0
26.04628	0.05992816	0.1501824	0.06413265	-0.3818057	-9.814145	0.05595301	0	0
26.06284	0.05743676	0.1314614	-0.1503812	-1.130001	-6.515673	-22.72578	0	0
26.07941	0.05552182	0.1199121	-0.1155856	-0.6971181	1.050133	13.06443	0	0
26.09598	0.05426247	0.1123807	-0.07600595	-0.4545437	1.194448	7.320488	0	0
26.11255	0.05108709	0.09480393	-0.1916885	-1.061059	-3.491306	-18.30466	0	0
26.12911	0.04961714	0.08572328	-0.08872642	-0.5481091	3.10758	15.48175	0	0
26.14601	0.04885583	0.08018111	-0.04506543	-0.3280677	1.304847	6.576131	0	0
26.16224	0.04581003	0.07025713	-0.1875587	-0.6111138	-4.300704	-8.542843	0	0
26.17881	0.04265832	0.06286328	-0.1902379	-0.4462938	-0.08166561	5.024023	0	0
26.19538	0.04189652	0.05825376	-0.04598738	-0.2782629	4.353739	5.071475	0	0
26.21205	0.039243	0.05222924	-0.1591408	-0.3613111	-3.4042	-2.498492	0	0
26.22856	0.03411834	0.04872148	-0.3103617	-0.2124385	-4.556772	4.486013	0	0
26.24508	0.03101637	0.04649266	-0.1878407	-0.1349666	3.709861	2.345803	0	0
26.26164	0.03088491	0.04639976	-0.007934598	-0.005607308	5.438344	3.910375	0	0
26.27821	0.0309112	0.04638119	0.001586759	-0.001121243	0.2873386	0.1353819	0	0
26.29478	0.03088491	0.04639976	-0.001587125	0.001121501	-0.09578802	0.06768613	0	0
26.31162	0.03088491	0.04639976	0	0	0.04750574	-0.0335687	0	0
26.32813	0.03088491	0.04639976	0	0	0	0	0	0
26.34448	0.03088491	0.04639976	0	0	0	0	0	0
26.36117	0.03088491	0.04639976	0	0	0	0	0	0
26.37767	0.03088491	0.04639976	0	0	0	0	0	0
26.39418	0.03088491	0.04639976	0	0	0	0	0	0
26.41075	0.03088491	0.04639976	0	0	0	0	0	0
26.42731	0.03088491	0.04639976	0	0	0	0	0	0
26.44388	0.03088491	0.04639976	0	0	0	0	0	0
26.46073	0.03088491	0.04639976	0	0	0	0	0	0
26.47724	0.03088491	0.04639976	0	0	0	0	0	0
26.49358	0.03088491	0.04639976	0	0	0	0	0	0
26.52671	0.03088491	0.04639976	0	0	0	0	0	0
26.54329	0.03088491	0.04639976	0	0	0	0	0	0
26.55985	0.03088491	0.04639976	0	0	0	0	0	0
26.57641	0.0309112	0.04638119	0.001586942	-0.001121372	0.0479078	-0.03385281	0	0
26.59298	0.0309112	0.04638119	0	0	-0.04789401	0.03384306	0	0
26.60955	0.0309112	0.04638119	0	0	0	0	0	0
26.62612	0.0309112	0.04638119	0	0	0	0	0	0
26.64286	0.0309112	0.04638119	0	0	0	0	0	0
26.65925	0.0309112	0.04638119	0	0	0	0	0	0
26.67582	0.0309112	0.04638119	0	0	0	0	0	0
26.70947	0.0309112	0.04638119	0	0	0	0	0	0
26.72603	0.0309112	0.04638119	0	0	0	0	0	0
26.7426	0.0309112	0.04638119	0	0	0	0	0	0
26.75917	0.0309112	0.04638119	0	0	0	0	0	0
26.77574	0.0309112	0.04638119	0	0	0	0	0	0
26.79247	0.0309112	0.04638119	0	0	0	0	0	0
26.80898	0.0309112	0.04638119	0	0	0	0	0	0
26.82544	0.0309112	0.04638119	0	0	0	0	0	0
26.842	0.0309112	0.04638119	0	0	0	0	0	0
26.85902	0.0309112	0.04638119	0	0	0	0	0	0
26.87514	0.0309112	0.04638119	0	0	0	0	0	0
26.8917	0.0309112	0.04638119	0	0	0	0	0	0
26.90855	0.0309112	0.04638119	0	0	0	0	0	0
26.92507	0.0309112	0.04638119	0	0	0	0	0	0
26.94141	0.0309112	0.04638119	0	0	0	0	0	0
26.95809	0.0309112	0.04638119	0	0	0	0	0	0
26.9746	0.0309112	0.04638119	0	0	0	0	0	0
26.99111	0.0309112	0.04638119	0	0	0	0	0	0
27.00767	0.0309112	0.04638119	0	0	0	0	0	0
27.02424	0.0309112	0.04638119	0	0	0	0	0	0
27.04081	0.0309112	0.04638119	0	0	0	0	0	0
27.05737	0.0309112	0.04638119	0	0	0	0	0	0
27.07394	0.0309112	0.04638119	0	0	0	0	0	0
27.09051	0.0309112	0.04638119	0	0	0	0	0	0
27.1072	0.0309112	0.04638119	0	0	0	0	0	0
27.12371	0.0309112	0.04638119	0	0	0	0	0	0
27.14021	0.0309112	0.04638119	0	0	0	0	0	0
27.15678	0.0309112	0.04638119	0	0	0	0	0	0
27.17335	0.0309112	0.04638119	0	0	0	0	0	0
27.18991	0.0309112	0.04638119	0	0	0	0	0	0
27.20648	0.0309112	0.04638119	0	0	0	0	0	0
27.22328	0.0309112	0.04638119	0	0	0	0	0	0
27.2398	0.0309112	0.04638119	0	0	0	0	0	0
27.25631	0.0309112	0.04638119	0	0	0	0	0	0
27.27282	0.0309112	0.04638119	0	0	0	0	0	0
27.28933	0.0309112	0.04638119	0	0	0	0	0	0
27.30588	0.0309112	0.04638119	0	0	0	0	0	0
27.32245	0.0309112	0.04638119	0	0	0	0	0	0
27.33902	0.03083233	0.04643692	-0.004760714	0.00336434	-0.1436786	0.101536	0	0
27.35558	0.03080604	0.0464555	-0.001586942	0.001121372	0.09578463	-0.06769292	0	0
27.37215	0.03041167	0.04680849	-0.02380128	0.02130383	-0.6703914	0.6090729	0	0
27.38872	0.03006988	0.04731004	-0.02063307	0.03027737	0.09561667	0.2708219	0	0
27.40529	0.03025392	0.04792297	0.01110765	0.03699179	0.957937	0.2026414	0	0
27.42243	0.02883411	0.05260025	-0.0828205	0.2728356	-2.786161	6.995761	0	0
27.43842	0.02541558	0.05808705	-0.2138012	0.3431543	-3.953235	2.122344	0	0
27.45499	0.0224436	0.06269675	-0.179389	0.2782423	1.057	-1.993823	0	0
27.47155	0.01920816	0.08054958	-0.1952914	1.077598	-0.4799345	24.12461	0	0
27.48812	0.01962906	0.09882368	0.02540524	1.103027	6.660637	0.7674454	0	0
27.50469	0.01991842	0.1086289	0.01746581	0.5918468	-0.2396126	-15.42746	0	0
27.53856	0.02175972	0.1434036	0.05436277	1.02669	0.731532	8.621354	0	0
27.55513	0.02268032	0.1567536	0.05556748	0.8058055	0.02388516	-4.379333	0	0
27.57204	0.02373238	0.1727703	0.0622134	0.9471418	0.1985172	4.221795	0	0
27.58826	0.02383759	0.1802936	0.006485271	0.4637722	-1.681975	-14.58896	0	0
27.63796	0.02567857	0.217864	0.03704053	0.7559183	0.4634944	4.431579	0	0
27.65453	0.02633601	0.2238152	0.03968824	0.3592518	0.03995516	-5.985882	0	0
27.67111	0.02767714	0.2324204	0.08087609	0.5189345	1.242551	4.817295	0	0
27.68766	0.02957033	0.2398877	0.1143914	0.4511937	1.011552	-2.04454	0	0
27.70423	0.03177877	0.2486765	0.133302	0.5304945	0.5710194	2.394541	0	0
27.72114	0.03327718	0.2560073	0.08857815	0.4333572	-1.335698	-2.901047	0	0
27.73736	0.03616843	0.2656795	0.1782928	0.5964534	2.707751	4.922536	0	0
27.75393	0.03729848	0.2695644	0.06820222	0.2344649	-3.357914	-11.04114	0	0
27.77049	0.04116095	0.2725892	0.2331926	0.1826203	4.979708	-1.564763	0	0
27.78706	0.04144993	0.2722492	0.01744298	-0.02052513	-6.512087	-6.131648	0	0
27.80363	0.04234309	0.2715333	0.05391151	-0.0432107	1.100622	-0.6846519	0	0
27.82021	0.04260578	0.2712827	0.01583747	-0.01510752	-1.148416	0.8476676	0	0
27.83676	0.04255324	0.2712469	-0.003175207	-0.002163184	-0.5738368	0.3906834	0	0
27.85332	0.04252698	0.2711574	-0.001585481	-0.005402012	0.04800844	-0.09780994	0	0
27.86989	0.04255324	0.2711395	0.001585481	-0.001081122	0.0956998	0.1304047	0	0
27.88646	0.04257951	0.2710501	0.001585705	-0.005400213	6.784417E-06	-0.1303504	0	0
27.90303	0.04260578	0.2709964	0.001585481	-0.003241567	-6.784417E-06	0.06514806	0	0
27.91959	0.04265832	0.270889	0.003171551	-0.00648388	0.04787046	-0.09785885	0	0
27.93616	0.04273712	0.2707995	0.004756442	-0.005402012	0.04783484	0.03265274	0	0
27.95281	0.04276339	0.2707816	0.001577851	-0.001074129	-0.09569868	0.1303007	0	0
27.96932	0.04276339	0.2707816	0	0	-0.04758403	0.03239305	0	0
27.98586	0.04276339	0.2707816	0	0	0	0	0	0
28.00243	0.04276339	0.2707816	0	0	0	0	0	0
28.01899	0.04276339	0.2707816	0	0	0	0	0	0
28.03556	0.04276339	0.2707816	0	0	0	0	0	0
28.05213	0.04276339	0.2707816	0	0	0	0	0	0
28.06869	0.04276339	0.2707816	0	0	0	0	0	0
28.08526	0.04273712	0.2707637	-0.001585481	-0.001081122	-0.0478499	-0.03262833	0	0
28.10183	0.04273712	0.2707637	0	0	0.0478499	0.03262833	0	0
28.11839	0.04273712	0.2707637	0	0	0	0	0	0
28.13496	0.04273712	0.2707637	0	0	0	0	0	0
28.15153	0.04273712	0.2707637	0	0	0	0	0	0
28.16809	0.04273712	0.2707637	0	0	0	0	0	0
28.18497	0.04273712	0.2707637	0	0	0	0	0	0
28.20123	0.04273712	0.2707637	0	0	0	0	0	0
28.21779	0.04271085	0.2707458	-0.001585481	-0.001079323	-0.04830312	-0.03288257	0	0
28.23436	0.04271085	0.2707458	0	0	0.0478499	0.03257403	0	0
28.25093	0.04271085	0.2707458	0	0	0	0	0	0
28.2675	0.04271085	0.2707458	0	0	0	0	0	0
28.28406	0.04268458	0.2707279	-0.001585663	-0.001081246	-0.04785816	-0.03263396	0	0
28.30063	0.04268458	0.2707279	0	0	0.04785816	0.03263396	0	0
28.3172	0.04265832	0.27071	-0.001585481	-0.001079323	-0.0478499	-0.03257403	0	0
28.33376	0.04265832	0.2706742	0	-0.002162244	0.0478499	-0.03268262	0	0
28.35033	0.04265832	0.2706742	0	0	0	0.06525666	0	0
28.38403	0.04263205	0.2706563	-0.0007795256	-0.0005305903	-0.01550734	-0.01055519	0	0
28.43373	0.04263205	0.2706563	0	0	0.009346534	0.006361793	0	0
28.4503	0.04260578	0.2706384	-0.001585481	-0.001081122	-0.02392495	-0.01631416	0	0
28.46687	0.04263205	0.2706205	0.001585481	-0.001079323	0.0956998	5.42929E-05	0	0
28.48343	0.04263205	0.2706205	0	0	-0.0478499	0.03257403	0	0
28.5002	0.04263205	0.2705847	0	-0.002136904	0	-0.06411177	0	0
28.53322	0.04265832	0.270531	0.0007955087	-0.00162531	0.01597807	0.01027554	0	0
28.5497	0.04271085	0.2704952	0.003187844	-0.002173756	0.04832675	-0.01107896	0	0
28.56627	0.04278966	0.2704415	0.004756667	-0.003239768	0.04747288	-0.03225773	0	0
28.58284	0.04292099	0.2703162	0.007927403	-0.007564256	0.09569301	-0.1305133	0	0
28.5994	0.04318366	0.2701014	0.01585481	-0.01296447	0.2392495	-0.1629788	0	0
28.61629	0.04412923	0.269457	0.05600407	-0.03816581	1.200238	-0.753379	0	0
28.63254	0.04504845	0.2688305	0.05656543	-0.0385545	0.01694189	-0.01173078	0	0
28.64911	0.04512724	0.2687768	0.004755542	-0.003241567	-1.578711	1.076029	0	0
28.66582	0.04512724	0.2687768	0	0	-0.1428892	0.09739897	0	0
28.68233	0.04512724	0.2687768	0	0	0	0	0	0
28.6988	0.04510098	0.2687589	-0.001594023	-0.001087255	-0.04832469	-0.03296143	0	0
28.71537	0.04510098	0.2687589	0	0	0.04824379	0.03290625	0	0
28.73194	0.04510098	0.2687589	0	0	0	0	0	0
28.74851	0.04510098	0.2687589	0	0	0	0	0	0
28.76507	0.04510098	0.2687589	0	0	0	0	0	0
28.78164	0.04510098	0.2687231	0	-0.002160445	0	-0.06520236	0	0
28.79821	0.04507471	0.2687052	-0.001585256	-0.001081122	-0.04784311	0.03257403	0	0
28.81478	0.04510098	0.2686873	0.001585256	-0.001079323	0.09568623	5.42929E-05	0	0
28.83134	0.04507471	0.2686694	-0.001585256	-0.001081122	-0.09568623	-5.42929E-05	0	0
28.84791	0.04510098	0.2686515	0.001585256	-0.001081122	0.09568623	0	0	0
28.86448	0.04510098	0.2686515	0	0	-0.04784311	0.03262833	0	0
28.88104	0.04512724	0.2686336	0.001585031	-0.001079323	0.04783633	-0.03257403	0	0
28.89761	0.04510098	0.2686157	-0.001585031	-0.001081122	-0.09567265	-5.42929E-05	0	0
28.91418	0.04512724	0.2685978	0.001585213	-0.001081246	0.09568366	-3.756064E-06	0	0
28.93074	0.04512724	0.2685978	0	0	-0.04784459	0.03263396	0	0
28.94753	0.04510098	0.2685799	-0.001564853	-0.001065583	-0.04692483	-0.03195335	0	0
28.96404	0.04510098	0.2685799	0	0	0.04700279	0.03200644	0	0
28.98044	0.04512724	0.268562	0.001600509	-0.001091679	0.04861971	-0.03316266	0	0
28.99701	0.04512724	0.268562	0	0	-0.04853816	0.03310703	0	0
29.01358	0.04510098	0.268544	-0.001585031	-0.001081122	-0.04783633	-0.03262833	0	0
29.03015	0.04510098	0.268544	0	0	0.04783633	0.03262833	0	0
29.04671	0.04510098	0.268544	0	0	0	0	0	0
29.06328	0.04512724	0.2685262	0.001585031	-0.001079323	0.04783633	-0.03257403	0	0
29.07985	0.04510098	0.2685083	-0.001585031	-0.001081122	-0.09567265	-5.42929E-05	0	0
29.09663	0.04510098	0.2685083	0	0	0.04752174	0.03241375	0	0
29.11315	0.04510098	0.2685083	0	0	0	0	0	0
29.12955	0.04510098	0.2685083	0	0	0	0	0	0
29.14612	0.04510098	0.2685083	0	0	0	0	0	0
29.16268	0.04510098	0.2685083	0	0	0	0	0	0
29.1797	0.04510098	0.2685083	0	0	0	0	0	0
29.19621	0.04510098	0.2685083	0	0	0	0	0	0
29.21272	0.04510098	0.2685083	0	0	0	0	0	0
29.24624	0.04510098	0.2685083	0	0	0	0	0	0
29.26248	0.04510098	0.2685083	0	0	0	0	0	0
29.27905	0.04510098	0.2685083	0	0	0	0	0	0
29.29578	0.04510098	0.2685083	0	0	0	0	0	0
29.38265	0.04510098	0.2685083	0	0	0	0	0	0
29.39935	0.04510098	0.2685083	0	0	0	0	0	0
29.43237	0.04510098	0.2685083	0	0	0	0	0	0
29.44892	0.04510098	0.2685083	0	0	0	0	0	0
29.46548	0.04510098	0.2685083	0	0	0	0	0	0
29.48205	0.04510098	0.2685083	0	0	0	0	0	0
29.49862	0.04510098	0.2684725	0	-0.002160445	0	-0.06520236	0	0
29.51519	0.04510098	0.2684725	0	0	0	0.06520236	0	0
29.53195	0.04504845	0.2683292	-0.003133712	-0.008545033	-0.09402356	-0.2563842	0	0
29.54832	0.04499592	0.2676848	-0.003208185	-0.03936284	-0.002247606	-0.9300833	0	0
29.56497	0.04481208	0.2636561	-0.0110419	-0.2419718	-0.2372277	-6.135589	0	0
29.58145	0.04454945	0.2569928	-0.01593304	-0.4042485	-0.1476234	-4.897802	0	0
29.59802	0.04486461	0.2321331	0.01902284	-1.500533	1.05765	-33.16996	0	0
29.61459	0.04481208	0.2137984	-0.003170511	-1.106684	-0.6697968	11.8864	0	0
29.63116	0.04475956	0.2007965	-0.003170287	-0.7847983	6.78793E-06	9.714526	0	0
29.64772	0.04391911	0.1739283	-0.05072976	-1.621765	-1.435348	-25.2597	0	0
29.66429	0.04297353	0.1538138	-0.0570755	-1.214113	-0.1915148	12.30297	0	0
29.68086	0.04160755	0.1271768	-0.08245039	-1.607814	-0.7658157	-11.88192	0	0
29.69757	0.04047788	0.1073472	-0.06759569	-1.186537	0.4463629	12.65877	0	0
29.71399	0.03961085	0.08780208	-0.05279608	-1.190158	0.4466532	-0.1092707	0	0
29.73059	0.03861238	0.06253023	-0.0601501	-1.522432	-0.2227013	-10.06224	0	0
29.76369	0.03742988	0.03860703	-0.03572483	-0.7227527	0.4914562	16.0902	0	0
29.79683	0.03424976	-0.004302939	-0.09597622	-1.295025	-0.9096665	-8.640088	0	0
29.81339	0.03117411	-0.025083	-0.1856467	-1.254287	-1.804174	0.8196595	0	0
29.83016	0.02954403	-0.03153956	-0.09719423	-0.3849765	2.653159	26.07523	0	0
29.84653	0.02578376	-0.04168868	-0.2298015	-0.6202423	-4.002094	-7.100335	0	0
29.86319	0.02178603	-0.04577321	-0.23995	-0.24516	-0.3073082	11.35793	0	0
29.87966	0.02002364	-0.04930877	-0.1069939	-0.2146425	4.012854	0.9210745	0	0
29.89623	0.01765606	-0.05321239	-0.1429073	-0.2356227	-1.086999	-0.6350139	0	0
29.91279	0.01541983	-0.05491708	-0.1349791	-0.1028952	0.2392751	4.005724	0	0
29.92936	0.01555138	-0.05501287	0.00794022	-0.005782248	4.313313	2.930876	0	0
29.94593	0.01563031	-0.05507036	0.004764143	-0.003469574	-0.09585417	0.06979666	0	0
29.9625	0.01586709	-0.05524281	0.01429226	-0.01040917	0.2875592	-0.2094375	0	0
29.97906	0.01594602	-0.05530029	0.004764087	-0.003469799	-0.2875609	0.2094307	0	0
29.99563	0.01607756	-0.0553961	0.007939995	-0.005783148	0.0958491	-0.06981701	0	0
30.0123	0.01639327	-0.05562606	0.01894272	-0.01379772	0.3310719	-0.2411583	0	0
30.04533	0.01673528	-0.0558752	0.01035351	-0.007542182	-0.1728218	0.1258665	0	0
30.0619	0.01691944	-0.05600937	0.01111579	-0.008098296	0.01536831	-0.01121184	0	0
30.07846	0.01697205	-0.0560477	0.003175908	-0.002313799	-0.2396261	0.1745765	0	0
30.09536	0.01697205	-0.0560477	0	0	-0.09492022	0.06915385	0	0
30.1116	0.01699836	-0.05606687	0.001619653	-0.001179994	0.04888124	-0.03561229	0	0
30.12816	0.01699836	-0.05606687	0	0	-0.04936718	0.03596632	0	0
30.14489	0.01699836	-0.05606687	0	0	0	0	0	0
30.1613	0.01702467	-0.05608604	0.001603574	-0.001168197	0.04839597	-0.03525624	0	0
30.17787	0.01702467	-0.05608604	0	0	-0.04863112	0.03542755	0	0
30.19443	0.01702467	-0.05608604	0	0	0	0	0	0
30.22918	0.01702467	-0.05608604	0	0	0	0	0	0
30.26232	0.01699836	-0.05606687	-0.0007940332	0.0005784497	-0.01169651	0.008520854	0	0
30.27888	0.01699836	-0.05606687	0	0	0.01597598	-0.01163843	0	0
30.2955	0.01699836	-0.05606687	0	0	0	0	0	0
30.31202	0.01699836	-0.05606687	0	0	0	0	0	0
30.32858	0.01699836	-0.05606687	0	0	0	0	0	0
30.34515	0	0	-1.026141	3.384593	-30.97079	102.1531	0	0
30.36172	0.01699836	-0.05606687	1.026023	-3.384203	61.93801	-204.2944	0	0
30.37828	0.01699836	-0.05606687	0	0	-30.96544	102.1354	0	0
30.39507	0.01699836	-0.05606687	0	0	0	0	0	0
30.41158	0.01699836	-0.05606687	0	0	0	0	0	0
30.42809	0.01699836	-0.05606687	0	0	0	0	0	0
30.4446	0.01699836	-0.05606687	0	0	0	0	0	0
30.46112	0.01699836	-0.05606687	0	0	0	0	0	0
30.47769	0.01699836	-0.05606687	0	0	0	0	0	0
30.49425	0.01699836	-0.05606687	0	0	0	0	0	0
30.51115	0.01697205	-0.0560477	-0.001556768	0.001134179	-0.04651744	0.03389015	0	0
30.52739	0.01699836	-0.05602854	0.001620605	0.001180687	0.09589884	0.001403689	0	0
30.54418	0.01699836	-0.05602854	0	0	-0.0490738	-0.03575258	0	0
30.56052	0.01699836	-0.05602854	0	0	0	0	0	0
30.5772	0.01699836	-0.05602854	0	0	0	0	0	0
30.59365	0.01699836	-0.05602854	0	0	0	0	0	0
30.61022	0.01699836	-0.05602854	0	0	0	0	0	0
30.62679	0.01699836	-0.05602854	0	0	0	0	0	0
30.64335	0.01697205	-0.05600937	-0.001587954	0.001156899	-0.04792731	0.0349173	0	0
30.65992	0.01691944	-0.05597104	-0.003175908	0.002313799	-0.04792455	0.03491529	0	0
30.67677	0.01684051	-0.0558752	-0.004684051	0.005687586	-0.04513135	0.100961	0	0
30.69328	0.01639327	-0.0550512	-0.02708621	0.04990384	-0.6714988	1.32537	0	0
30.70962	0.01318345	-0.05206373	-0.1964823	0.1828716	-5.156912	4.047926	0	0
30.72619	0.004710491	-0.04434108	-0.5114286	0.4661401	-9.571768	8.609024	0	0
30.74282	-0.003236831	-0.03621955	-0.4778857	0.488361	1.010406	0.6693578	0	0
30.75933	-0.01134162	-0.02652506	-0.4907881	0.5870527	-0.3892816	2.977664	0	0
30.77589	-0.01691944	-0.008848343	-0.3368717	1.067584	4.654046	14.53005	0	0
30.79246	-0.01765606	0.007155469	-0.0444626	0.965992	8.827465	-3.066923	0	0
30.80902	-0.01752452	0.02885709	0.007939658	1.309913	1.581503	10.37955	0	0
30.82559	-0.01726144	0.03884905	0.01587943	0.6031156	0.2396227	-21.33118	0	0
30.84239	-0.01689313	0.05630839	0.02192354	1.039251	0.1811396	13.0708	0	0
30.85872	-0.01734037	0.06650642	-0.02738309	0.6243965	-1.488163	-12.52105	0	0
30.87541	-0.01762975	0.07789586	-0.01733753	0.6823617	0.3041914	1.755254	0	0
30.89193	-0.0174456	0.08553927	0.01115151	0.4628491	0.8579736	-6.610824	0	0
30.90842	-0.01689313	0.09614424	0.03348969	0.6428552	0.6766995	5.452999	0	0
30.92499	-0.01676159	0.1020333	0.007939883	0.3554634	-0.7727407	-8.692017	0	0
30.94197	-0.01470947	0.1150692	0.1209016	0.7680169	3.367897	12.30008	0	0
30.95813	-0.01220992	0.1272498	0.1546656	0.753702	1.019001	-0.4320224	0	0
30.97499	-0.01073643	0.1329374	0.08739063	0.3373286	-2.037283	-12.609	0	0
31.09066	0.009026071	0.1709062	0.1708451	0.3282368	0.6296742	-0.06859826	0	0
31.10723	0.009078698	0.17087	0.003176583	-0.002185629	-1.267889	-2.498616	0	0
31.14036	0.009157639	0.1708157	0.002382437	-0.001638772	-0.01597824	0.01100278	0	0
31.15712	0.009183953	0.1707976	0.001570393	-0.001080499	-0.01627653	0.01118996	0	0
31.17363	0.00923658	0.1707614	0.003187224	-0.002192048	0.04860023	-0.03341198	0	0
31.19015	0.009262893	0.1707071	0.001593428	-0.003288144	-0.0482592	-0.03318913	0	0
31.20666	0.009341833	0.1706528	0.004781332	-0.003289806	0.09653343	-5.033268E-05	0	0
31.24062	0.009368147	0.1706347	0.0007747893	-0.0005326505	-0.07938109	0.05462715	0	0
31.25719	0.009368147	0.1706347	0	0	-0.01533168	0.01054019	0	0
31.27375	0.009368147	0.1706347	0	0	0	0	0	0
31.29032	0.009368147	0.1706347	0	0	0	0	0	0
31.30723	0.00939446	0.1706166	0.001556221	-0.001070749	0.04648783	-0.03198569	0	0
31.32345	0.009473401	0.1705623	0.004865706	-0.003346902	0.09988621	-0.0686984	0	0
31.34002	0.009473401	0.1705623	0	0	-0.1483848	0.1020673	0	0
31.35658	0.009473401	0.1705623	0	0	0	0	0	0
31.37315	0.009499714	0.1705442	0.001588235	-0.001092815	0.04793303	-0.03298121	0	0
31.38972	0.009526027	0.1705261	0.001588291	-0.001092815	1.696983E-06	0	0	0
31.4063	0.009526027	0.1704899	0	-0.002183222	-0.04791818	-0.03289719	0	0
31.42285	0.009552341	0.1704718	0.001589572	-0.001093696	0.04797615	0.03288385	0	0
31.43942	0.009552341	0.1704356	0	-0.002185629	-0.04799273	-0.0329679	0	0
31.45633	0.009552341	0.1704356	0	0	0	0.06527852	0	0
31.47255	0.009552341	0.1704356	0	0	0	0	0	0
31.48912	0.009552341	0.1704356	0	0	0	0	0	0
31.50569	0.009578655	0.1704175	0.001588291	-0.001092815	0.04793473	-0.03298121	0	0
31.52239	0.009578655	0.1703813	0	-0.002167017	-0.04773961	-0.03228752	0	0
31.53882	0.009631281	0.1703089	0.003203077	-0.004407796	0.09667464	-0.06763074	0	0
31.5554	0.009710222	0.170146	0.004759942	-0.009823354	0.04715729	-0.1640368	0	0
31.57195	0.009762848	0.1699649	0.003179821	-0.01093858	-0.04768815	-0.03365759	0	0
31.58852	0.009762848	0.1698563	0	-0.006555988	-0.09601694	0.1323355	0	0
31.60509	0.009789161	0.169802	0.001588291	-0.003278444	0.04793473	0.09891648	0	0
31.62165	0.009815474	0.1697115	0.001588235	-0.005464073	-1.696983E-06	-0.06596241	0	0
31.63822	0.009841788	0.169621	0.001588291	-0.005463174	1.696983E-06	2.713767E-05	0	0
31.65498	0.009841788	0.1695123	0	-0.006482997	-0.0476631	-0.03060391	0	0
31.67149	0.009841788	0.1694399	0	-0.004385902	0	0.06303645	0	0
31.688	0.009841788	0.1693675	0	-0.004386408	0	-1.534252E-05	0	0
31.70451	0.009841788	0.1692951	0	-0.004385902	0	1.534252E-05	0	0
31.72105	0.009841788	0.1692589	0	-0.002188905	0	0.06646618	0	0
31.73762	0.009841788	0.1692589	0	0	0	0.06611076	0	0
31.85359	0.00994704	0.1689692	0.0009075939	-0.002498032	0.006847908	-0.01884796	0	0
31.87016	0.009999666	0.1688605	0.003176526	-0.006556888	0.01711938	-0.03062457	0	0
31.88678	0.01060487	0.168263	0.03641253	-0.03595149	1.001451	-0.8857033	0	0
31.90329	0.01168368	0.1670859	0.06532789	-0.07128252	0.8726672	-1.066293	0	0
31.93642	0.01065749	0.1636618	-0.0309722	-0.103343	-1.93972	-0.6457775	0	0
31.95319	0.01039436	0.1635169	-0.01569633	-0.008648061	0.3061526	1.897838	0	0
31.9697	0.01042068	0.1634987	0.001593187	-0.001097124	0.5195259	0.2268951	0	0
31.98621	0.01042068	0.1634987	0	0	-0.04824356	0.0332222	0	0
32.00272	0.01039436	0.1635169	-0.001593556	0.001097378	-0.04826029	0.03323371	0	0
32.01926	0.01039436	0.1635169	0	0	0.04822407	-0.03320878	0	0
32.03582	0.01039436	0.1635169	0	0	0	0	0	0
32.05239	0.01036805	0.163535	-0.001588657	0.001094866	-0.04795129	0.03304692	0	0
32.06895	0.01036805	0.1635712	0	0.002187428	0.04795129	0.0329774	0	0
32.08552	0.01031542	0.1636437	-0.00317647	0.004374856	-0.09586606	0.06601671	0	0
32.10209	0.01023648	0.1637343	-0.004764761	0.005469469	-0.04793472	0.03303549	0	0
32.11866	0.01010492	0.1638974	-0.007941344	0.009844325	-0.09586945	0.1320334	0	0
32.13523	0.01005229	0.1639337	-0.003175795	0.002186924	0.143808	-0.2310742	0	0
32.15179	0.01002598	0.163988	-0.001588601	0.003281898	0.04790162	0.03304636	0	0
32.16836	0.009973354	0.1640967	-0.003175795	0.006560774	-0.04790162	0.09895667	0	0
32.18493	0.00994704	0.1641511	-0.001588291	0.003281142	0.04790544	-0.09896808	0	0
32.20149	0.009841788	0.1642961	-0.006354516	0.008751728	-0.1438615	0.1651216	0	0
32.21806	0.009789161	0.1644773	-0.003176526	0.01093714	0.09592295	0.06596348	0	0
32.2383	0.009841788	0.1646222	0.00259952	0.007159618	0.1569074	-0.1026171	0	0
32.25487	0.009999666	0.1649846	0.009529579	0.02187248	0.1882563	0.3996776	0	0
32.27144	0.01018386	0.1652926	0.01111787	0.01859044	0.04793473	-0.09905218	0	0
32.28801	0.01039436	0.1661621	0.01270605	0.05248568	0.04793133	1.02296	0	0
32.30457	0.01110481	0.1667961	0.04288246	0.0382665	0.910726	-0.4291358	0	0
32.32145	0.01257828	0.1678103	0.08729117	0.06008298	1.327723	0.652265	0	0
32.33796	0.01265722	0.1679008	0.004780993	0.005484815	-2.471101	-1.635163	0	0
32.35448	0.01263091	0.1679189	-0.001592947	0.001096096	-0.192988	-0.1328802	0	0
32.37084	0.0126046	0.167937	-0.001608175	0.001106574	-0.0004631421	0.0003186837	0	0
32.3875	0.01255197	0.1679733	-0.003158122	0.002174014	-0.04693421	0.03232334	0	0
32.40401	0.01157843	0.1686433	-0.05896684	0.04058059	-1.682374	1.15778	0	0
32.42054	0.01052593	0.1693675	-0.0636905	0.04382629	-0.1429883	0.09824929	0	0
32.4371	0.009026071	0.1703994	-0.09055233	0.06230028	-0.8118132	0.5583176	0	0
32.45367	0.009026071	0.1704356	0	0.00218473	2.733189	-1.8145	0	0
32.47024	0.009052385	0.1704537	0.001588291	0.001092815	0.04793473	-0.03295407	0	0
32.4868	0.009052385	0.1704899	0	0.002185629	-0.04793473	0.03298121	0	0
32.50337	0.009105012	0.1705985	0.003176583	0.006555089	0.09586946	0.1318706	0	0
32.52009	0.009052385	0.1707071	-0.003147593	0.006496157	-0.1899891	-0.001770411	0	0
32.5366	0.008841875	0.1711053	-0.01275042	0.02411893	-0.2889823	0.5303299	0	0
32.55312	0.008552423	0.1713406	-0.01752788	0.01424892	-0.1446668	-0.2988752	0	0
32.61934	-0.01226254	0.1860028	-0.3143156	0.2214058	-3.587123	2.503801	0	0
32.63591	-0.01210467	0.1859306	0.00952913	-0.004360465	3.911623	-2.726963	0	0
32.65247	-0.01213098	0.1859486	-0.001588179	0.001090116	-0.335521	0.1644989	0	0
32.6692	-0.01213098	0.1859486	0	0	0.04770068	-0.03274146	0	0
32.68571	-0.01213098	0.1859848	0	0.002187789	0	0.06582299	0	0
32.70222	-0.01213098	0.1859848	0	0	0	-0.06624878	0	0
32.71874	-0.01213098	0.1859848	0	0	0	0	0	0
32.73531	-0.01213098	0.1859848	0	0	0	0	0	0
32.75188	-0.01213098	0.1859848	0	0	0	0	0	0
32.7758	-0.01213098	0.1859848	0	0	0	0	0	0
32.79237	-0.01213098	0.1859848	0	0	0	0	0	0
32.80893	-0.01210467	0.1859667	0.001588179	-0.001090116	0.04793134	-0.03289977	0	0
32.8255	-0.01210467	0.1859667	0	0	-0.04793134	0.03289977	0	0
32.84207	-0.01210467	0.1859667	0	0	0	0	0	0
32.85863	-0.01210467	0.1859667	0	0	0	0	0	0
32.8752	-0.01210467	0.1859306	0	-0.002180233	0	-0.06579955	0	0
32.89186	-0.01210467	0.1859306	0	0	0	0.06561071	0	0
32.90834	-0.01207836	0.1859125	0.001597431	-0.001096428	0.04821055	-0.03309026	0	0
32.9249	-0.01207836	0.1859125	0	0	-0.04834971	0.03318577	0	0
32.9419	-0.01205205	0.1858945	0.001548252	-0.00106271	0.04613149	-0.03166438	0	0
32.95803	-0.01205205	0.1858945	0	0	-0.04673171	0.03207636	0	0
32.9746	-0.01205205	0.1858945	0	0	0	0	0	0
32.99117	-0.01202574	0.1858764	0.001588179	-0.001090116	0.04793134	-0.03289977	0	0
33.00795	-0.01199942	0.1858583	0.001568373	-0.001076484	-0.0005939773	0.0004088469	0	0
33.0243	-0.01199942	0.1858222	0	-0.002208197	-0.0473336	-0.03415519	0	0
33.04097	-0.0119468	0.1857861	0.003157455	-0.002167258	0.09561141	0.00123969	0	0
33.05744	-0.01192049	0.185768	0.001597801	-0.001096682	-0.04707047	0.03231005	0	0
33.09057	-0.01192049	0.1857319	0	-0.001090116	-0.03221209	0.0001323594	0	0
33.12371	-0.01178893	0.1855694	0.003970475	-0.004905523	0.05991459	-0.0575746	0	0
33.15886	-0.01178893	0.1855333	0	-0.001027425	-0.05814078	0.05678808	0	0
33.17543	-0.01178893	0.1855333	0	0	0	0.01986381	0	0
33.192	-0.01178893	0.1855333	0	0	0	0	0	0
33.20856	-0.01178893	0.1855333	0	0	0	0	0	0
33.22513	-0.01178893	0.1855333	0	0	0	0	0	0
33.2417	-0.01178893	0.1855333	0	0	0	0	0	0
33.25863	-0.01176262	0.1855152	0.001553887	-0.001066541	0.04638376	-0.0318364	0	0
33.27483	-0.01176262	0.1855152	0	0	-0.04689641	0.03218827	0	0
33.2914	-0.01176262	0.1855152	0	0	0	0	0	0
33.30796	-0.0117363	0.1854971	0.001588179	-0.001090116	0.04793685	-0.03290356	0	0
33.32468	-0.0117363	0.1854971	0	0	-0.04772256	0.03275647	0	0
33.34119	-0.01170999	0.1854791	0.00159374	-0.001093894	0.04797213	-0.03292661	0	0
33.3577	-0.0117363	0.185461	-0.00159374	-0.001093894	-0.09653172	0	0	0
33.37423	-0.01170999	0.185443	0.001591533	-0.00109238	0.09639808	4.582922E-05	0	0
33.3908	-0.01165737	0.1854068	0.003176414	-0.002180233	0.04788141	-0.03286551	0	0
33.40736	-0.01168368	0.1853888	-0.001588235	-0.001090116	-0.1437974	0.03289977	0	0
33.42424	-0.01165737	0.1853707	0.001558803	-0.001069915	0.09408956	0.0006039682	0	0
33.44049	-0.01165737	0.1853707	0	0	-0.0470502	0.03229382	0	0
33.45726	-0.01165737	0.1853707	0	0	0	0	0	0
33.47363	-0.01165737	0.1853707	0	0	0	0	0	0
33.49029	-0.01165737	0.1853707	0	0	0	0	0	0
33.5068	-0.01165737	0.1853707	0	0	0	0	0	0
33.52332	-0.01165737	0.1853707	0	0	0	0	0	0
33.53989	-0.01165737	0.1853707	0	0	0	0	0	0
33.55646	-0.01165737	0.1853707	0	0	0	0	0	0
33.57335	-0.01165737	0.1853707	0	0	0	0	0	0
33.58986	-0.01165737	0.1853707	0	0	0	0	0	0
33.60637	-0.01165737	0.1853707	0	0	0	0	0	0
33.62288	-0.01165737	0.1853707	0	0	0	0	0	0
33.63939	-0.01165737	0.1853707	0	0	0	0	0	0
33.65591	-0.01165737	0.1853707	0	0	0	0	0	0
33.67242	-0.01165737	0.1853707	0	0	0	0	0	0
33.68899	-0.01163105	0.1853526	0.001588179	-0.001091016	0.04800318	-0.03297627	0	0
33.70556	-0.01160474	0.1853346	0.001588235	-0.001090116	1.696983E-06	2.714469E-05	0	0
33.72245	-0.01155212	0.1852623	0.00311544	-0.004276761	0.04564445	-0.09524112	0	0
33.73869	-0.01142056	0.1850998	0.008101488	-0.01001017	0.1504966	-0.1730545	0	0
33.75526	-0.01107849	0.1846844	0.02064694	-0.02507537	0.3824089	-0.4592155	0	0
33.77198	-0.01076274	0.1839618	0.01887622	-0.04319591	-0.0531835	-0.5442473	0	0
33.7885	-0.0081314	0.1812154	0.1593418	-0.1663102	4.225639	-3.703659	0	0
33.80501	-0.006999886	0.1802575	0.06853504	-0.05801973	-2.749735	3.279162	0	0
33.82152	0.0004736842	0.173675	0.4525644	-0.3986026	11.62886	-10.31325	0	0
33.83809	0.006131502	0.1663795	0.3415066	-0.4403602	-3.357144	-1.262281	0	0
33.85504	0.01718252	0.1535779	0.6518807	-0.7551448	9.259443	-9.391019	0	0
33.87122	0.01920816	0.1468031	0.1251792	-0.4186594	-15.89588	10.15515	0	0
33.88779	0.02125995	0.1311151	0.1238464	-0.9469297	-0.04069894	-16.1308	0	0
33.90458	0.02125995	0.1225783	0	-0.5084964	-3.712898	13.14417	0	0
33.92093	0.02181233	0.1100934	0.03379271	-0.7637881	1.019866	-7.704719	0	0
33.9376	0.02223318	0.09043136	0.02523404	-1.17893	-0.2591663	-12.57099	0	0
33.95412	0.0224699	0.08010741	0.01433487	-0.6251705	-0.3283706	16.68369	0	0
33.97063	0.02231209	0.07686342	-0.009558828	-0.1964863	-0.7235289	12.98106	0	0
33.98719	0.02212797	0.05999452	-0.01111343	-1.018208	-0.04699914	-24.84253	0	0
34.00415	0.02278553	0.05204373	0.03877103	-0.4687928	1.487872	16.38708	0	0
34.02033	0.02239099	0.04853579	-0.02439276	-0.2168832	-1.906287	7.602646	0	0
34.03717	0.0215493	0.04612107	-0.04996512	-0.1433435	-0.7744504	2.227126	0	0
34.07029	0.024311	0.04249611	0.08339637	-0.1094645	2.669307	0.6781066	0	0
34.08686	0.0243899	0.04244031	0.004762513	-0.003367713	-1.582724	2.135492	0	0
34.10342	0.0243899	0.04244031	0	0	-0.1437329	0.1016378	0	0
34.11999	0.0243899	0.04244031	0	0	0	0	0	0
34.13675	0.0243899	0.04244031	0	0	0	0	0	0
34.15312	0.0244162	0.04242171	0.001606254	-0.001136062	0.04848243	-0.03429035	0	0
34.16977	0.0244162	0.04242171	0	0	-0.04864486	0.03440524	0	0
34.18628	0.0244425	0.04240312	0.001593006	-0.001126386	0.04804384	-0.03397094	0	0
34.20282	0.0244425	0.04240312	0	0	-0.04819354	0.03407679	0	0
34.21939	0.0244688	0.04238452	0.001587504	-0.001122721	0.04794409	-0.0339072	0	0
34.23596	0.0244688	0.04238452	0	0	-0.04791097	0.03388378	0	0
34.25283	0.0244688	0.04238452	0	0	0	0	0	0
34.2691	0.0244688	0.04238452	0	0	0	0	0	0
34.28586	0.0244688	0.04238452	0	0	0	0	0	0
34.30236	0.0244688	0.04238452	0	0	0	0	0	0
34.31888	0.0244688	0.04238452	0	0	0	0	0	0
34.33536	0.0244425	0.04240312	-0.001595956	0.001128698	-0.04837211	0.0342099	0	0
34.35192	0.0244425	0.04240312	0	0	0.04829394	-0.03415462	0	0
34.36891	0.0244425	0.04240312	0	0	0	0	0	0
34.38506	0.0244425	0.04240312	0	0	0	0	0	0
34.40194	0.0244425	0.04240312	0	0	0	0	0	0
34.41819	0.0244425	0.04240312	0	0	0	0	0	0
34.43476	0.0244425	0.04240312	0	0	0	0	0	0
34.4679	0.0244425	0.04240312	0	0	0	0	0	0
34.48446	0.0244688	0.04238452	0.001587504	-0.001122721	0.03194065	-0.02258919	0	0
34.50103	0.0244688	0.04238452	0	0	-0.04791097	0.03388378	0	0
34.5176	0.0244688	0.04238452	0	0	0	0	0	0
34.53416	0.0244688	0.04238452	0	0	0	0	0	0
34.55073	0.0244688	0.04238452	0	0	0	0	0	0
34.5673	0.0244688	0.04238452	0	0	0	0	0	0
34.58386	0.0244951	0.04236592	0.001587504	-0.001122496	0.04791649	-0.0338809	0	0
