Time	Pos X	Pos Y	Vel X	Vel Y	Acc X	Acc YForce X	Force Y
0.01656555	0.02178603	0.1982007	-0.0003612766	-0.003286752	5.992679E-06	5.451903E-05	0	0
0.06204778	0.04386658	0.1830043	0.4854765	-0.3341176	-0.008062704	0.005490293	0	0
0.07842425	0.05003715	0.1787571	0.3767948	-0.2593462	-1.756934	1.208745	0	0
0.09507427	0.05523324	0.1751765	0.312077	-0.2150489	-1.959573	1.341265	0	0
0.1115865	0.05793509	0.1733131	0.1636273	-0.1128489	-4.476461	3.081814	0	0
0.1281244	0.06108182	0.1711415	0.1902733	-0.1313108	0.8062289	-0.5586013	0	0
0.1446912	0.06278579	0.1699649	0.1028551	-0.07102247	-2.640661	1.821143	0	0
0.1612646	0.06365074	0.1693675	0.05218908	-0.03604756	-1.52884	1.055362	0	0
0.1778235	0.06399146	0.1691321	0.02057602	-0.01421379	-0.9541467	0.6589879	0	0
0.1943906	0.06399146	0.1691321	0	0	-0.6211448	0.429083	0	0
0.2109561	0.06399146	0.1691321	0	0	0	0	0	0
0.2606903	0.06396525	0.1691502	-0.0005270249	0.0003640337	-0.007949129	0.005490729	0	0
0.2772231	0.06396525	0.1691502	0	0	0.00795306	-0.005493444	0	0
0.293791	0.06396525	0.1691502	0	0	0	0	0	0
0.3103581	0.06396525	0.1691502	0	0	0	0	0	0
0.3338982	0.06393904	0.1691683	-0.001113151	0.0007691091	-0.02775436	0.01917631	0	0
0.3504674	0.06393904	0.1691683	0	0	0.02775299	-0.01917537	0	0
0.3670408	0.06393904	0.1691683	0	0	0	0	0	0
0.3836052	0.06393904	0.1691683	0	0	0	0	0	0
0.4001723	0.06393904	0.1691683	0	0	0	0	0	0
0.4167367	0.06393904	0.1691683	0	0	0	0	0	0
0.4333141	0.06393904	0.1691683	0	0	0	0	0	0
0.4498698	0.06393904	0.1691683	0	0	0	0	0	0
0.4664361	0.06393904	0.1691683	0	0	0	0	0	0
0.4830032	0.06393904	0.1691683	0	0	0	0	0	0
0.4995715	0.06391283	0.1691864	-0.001582005	0.001092744	-0.0477436	0.0329781	0	0
0.516139	0.06391283	0.1691864	0	0	0.04774308	-0.03297774	0	0
0.5328885	0.06391283	0.1691864	0	0	0	0	0	0
0.5493925	0.06391283	0.1691864	0	0	0	0	0	0
0.5658369	0.06391283	0.1691864	0	0	0	0	0	0
0.5823993	0.06391283	0.1691864	0	0	0	0	0	0
0.5989652	0.06391283	0.1691864	0	0	0	0	0	0
0.6159425	0.06391283	0.1691864	0	0	0	0	0	0
0.6320979	0.06391283	0.1691864	0	0	0	0	0	0
0.6489583	0.06391283	0.1691864	0	0	0	0	0	0
0.6654733	0.06391283	0.1691864	0	0	0	0	0	0
0.6818001	0.06391283	0.1691864	0	0	0	0	0	0
0.6983656	0.06391283	0.1691864	0	0	0	0	0	0
0.7150058	0.06391283	0.1691864	0	0	0	0	0	0
0.7315173	0.06391283	0.1691864	0	0	0	0	0	0
0.7480646	0.06391283	0.1691864	0	0	0	0	0	0
0.7646317	0.06391283	0.1691864	0	0	0	0	0	0
0.7811985	0.06391283	0.1691864	0	0	0	0	0	0
0.7980637	0.06391283	0.1691864	0	0	0	0	0	0
0.814332	0.06391283	0.1691864	0	0	0	0	0	0
0.8310902	0.06391283	0.1691864	0	0	0	0	0	0
0.8476001	0.06391283	0.1691864	0	0	0	0	0	0
0.8641108	0.06391283	0.1691864	0	0	0	0	0	0
0.8806222	0.06391283	0.1691864	0	0	0	0	0	0
0.8971652	0.06391283	0.1691864	0	0	0	0	0	0
0.9137312	0.06391283	0.1691864	0	0	0	0	0	0
0.9302983	0.06391283	0.1691864	0	0	0	0	0	0
0.9471678	0.06391283	0.1691864	0	0	0	0	0	0
0.9634313	0.06391283	0.1691864	0	0	0	0	0	0
0.9799976	0.06391283	0.1691864	0	0	0	0	0	0
0.9965652	0.06391283	0.1691864	0	0	0	0	0	0
1.013215	0.06391283	0.1691864	0	0	0	0	0	0
1.029726	0.06393904	0.1691683	0.001587522	-0.001096555	0.04787405	-0.03306821	0	0
1.046264	0.06393904	0.1691683	0	0	-0.04803474	0.03317919	0	0
1.062831	0.06393904	0.1691683	0	0	0	0	0	0
1.079398	0.06393904	0.1691683	0	0	0	0	0	0
1.095965	0.06393904	0.1691683	0	0	0	0	0	0
1.145665	0.06391283	0.1691864	-0.0005273806	0.0003642794	-0.007958376	0.005497116	0	0
1.162232	0.06391283	0.1691864	0	0	0.007958419	-0.005497145	0	0
1.178798	0.06391283	0.1691864	0	0	0	0	0	0
1.199389	0.06391283	0.1691864	0	0	0	0	0	0
1.215956	0.06391283	0.1691864	0	0	0	0	0	0
1.232523	0.06391283	0.1691864	0	0	0	0	0	0
1.24909	0.06391283	0.1691864	0	0	0	0	0	0
1.265657	0.06391283	0.1691864	0	0	0	0	0	0
1.282224	0.06391283	0.1691864	0	0	0	0	0	0
1.29879	0.06391283	0.1691864	0	0	0	0	0	0
1.315931	0.06391283	0.1691864	0	0	0	0	0	0
1.331924	0.06391283	0.1691864	0	0	0	0	0	0
1.34849	0.06391283	0.1691864	0	0	0	0	0	0
1.365466	0.06391283	0.1691864	0	0	0	0	0	0
1.381626	0.06391283	0.1691864	0	0	0	0	0	0
1.39819	0.06393904	0.1691683	0.001582347	-0.00109298	0.04835306	-0.03339907	0	0
1.415001	0.06393904	0.1691683	0	0	-0.04741111	0.03274843	0	0
1.431513	0.06391283	0.1691864	-0.001587339	0.001096428	-0.04763503	0.03290311	0	0
1.447891	0.06391283	0.1691864	0	0	0.04826158	-0.03333588	0	0
1.464534	0.06391283	0.1691864	0	0	0	0	0	0
1.481047	0.06391283	0.1691864	0	0	0	0	0	0
1.49759	0.06391283	0.1691864	0	0	0	0	0	0
1.514156	0.06391283	0.1691864	0	0	0	0	0	0
1.530724	0.06391283	0.1691864	0	0	0	0	0	0
1.54729	0.06391283	0.1691864	0	0	0	0	0	0
1.563856	0.06391283	0.1691864	0	0	0	0	0	0
1.580622	0.06391283	0.1691864	0	0	0	0	0	0
1.59699	0.06391283	0.1691864	0	0	0	0	0	0
1.613557	0.06391283	0.1691864	0	0	0	0	0	0
1.663256	0.06391283	0.1691864	0	0	0	0	0	0
1.679823	0.06391283	0.1691864	0	0	0	0	0	0
1.69639	0.06391283	0.1691864	0	0	0	0	0	0
1.712956	0.06391283	0.1691864	0	0	0	0	0	0
1.729523	0.06391283	0.1691864	0	0	0	0	0	0
1.746232	0.06391283	0.1691864	0	0	0	0	0	0
1.762744	0.06391283	0.1691864	0	0	0	0	0	0
1.779257	0.06391283	0.1691864	0	0	0	0	0	0
1.79579	0.06391283	0.1691864	0	0	0	0	0	0
1.812356	0.06391283	0.1691864	0	0	0	0	0	0
1.828923	0.06391283	0.1691864	0	0	0	0	0	0
1.845804	0.06391283	0.1691864	0	0	0	0	0	0
1.862315	0.06391283	0.1691864	0	0	0	0	0	0
1.878632	0.06391283	0.1691864	0	0	0	0	0	0
1.895343	0.06391283	0.1691864	0	0	0	0	0	0
1.911849	0.06391283	0.1691864	0	0	0	0	0	0
1.928323	0.06391283	0.1691864	0	0	0	0	0	0
1.978024	0.06391283	0.1691864	0	0	0	0	0	0
2.011157	0.06391283	0.1691864	0	0	0	0	0	0
2.027724	0.06391283	0.1691864	0	0	0	0	0	0
2.04429	0.06393904	0.1691683	0.001582153	-0.001092846	0.04775085	-0.03298311	0	0
2.060857	0.06393904	0.1691683	0	0	-0.04775085	0.03298311	0	0
2.08371	0.06393904	0.1691683	0	0	0	0	0	0
2.100278	0.06393904	0.1691683	0	0	0	0	0	0
2.116995	0.06393904	0.1691683	0	0	0	0	0	0
2.133509	0.06393904	0.1691683	0	0	0	0	0	0
2.150021	0.06393904	0.1691683	0	0	0	0	0	0
2.166546	0.06393904	0.1691683	0	0	0	0	0	0
2.18311	0.06393904	0.1691683	0	0	0	0	0	0
2.199681	0.06393904	0.1691683	0	0	0	0	0	0
2.216248	0.06393904	0.1691683	0	0	0	0	0	0
2.232817	0.06393904	0.1691683	0	0	0	0	0	0
2.249598	0.06393904	0.1691683	0	0	0	0	0	0
2.265947	0.06393904	0.1691683	0	0	0	0	0	0
2.282512	0.06393904	0.1691683	0	0	0	0	0	0
2.299138	0.06393904	0.1691683	0	0	0	0	0	0
2.315648	0.06393904	0.1691683	0	0	0	0	0	0
2.332211	0.06393904	0.1691683	0	0	0	0	0	0
2.348778	0.06393904	0.1691683	0	0	0	0	0	0
2.365347	0.06393904	0.1691683	0	0	0	0	0	0
2.381911	0.06393904	0.1691683	0	0	0	0	0	0
2.398695	0.06393904	0.1691683	0	0	0	0	0	0
2.415045	0.06393904	0.1691683	0	0	0	0	0	0
2.43172	0.06393904	0.1691683	0	0	0	0	0	0
2.448178	0.06393904	0.1691683	0	0	0	0	0	0
2.464744	0.06393904	0.1691683	0	0	0	0	0	0
2.481311	0.06393904	0.1691683	0	0	0	0	0	0
2.498265	0.06393904	0.1691683	0	0	0	0	0	0
2.514779	0.06393904	0.1691683	0	0	0	0	0	0
2.531012	0.06393904	0.1691683	0	0	0	0	0	0
2.547578	0.06393904	0.1691683	0	0	0	0	0	0
2.564145	0.06393904	0.1691683	0	0	0	0	0	0
2.58071	0.06393904	0.1691683	0	0	0	0	0	0
2.597337	0.06393904	0.1691683	0	0	0	0	0	0
2.613852	0.06386042	0.1692227	-0.00476074	0.003288714	-0.1436474	0.09923145	0	0
2.630411	0.06367695	0.1693856	-0.01107944	0.009840287	-0.191045	0.1980861	0	0
2.663544	0.06333622	0.1697296	-0.01028362	0.01038166	0.01601491	0.01089458	0	0
2.680111	0.06399146	0.170146	0.03955227	0.02513438	1.002743	0.2968381	0	0
2.696906	0.06441078	0.1703994	0.02496699	0.01509022	-0.4371929	-0.3010734	0	0
2.713244	0.06517074	0.1709243	0.04651451	0.03212876	0.6503334	0.5142465	0	0
2.729928	0.07224248	0.1757734	0.4238445	0.2906307	11.42632	7.827964	0	0
2.746378	0.08228745	0.1826791	0.6106657	0.4198152	5.638355	3.898854	0	0
2.762951	0.09435061	0.1909855	0.727861	0.5011904	3.54894	2.464224	0	0
2.77951	0.1076871	0.2002197	0.8053838	0.5576497	2.339776	1.704042	0	0
2.796077	0.126505	0.2133125	1.135887	0.7903085	9.977192	7.023476	0	0
2.812644	0.1311119	0.216515	0.2780821	0.1933087	-25.88935	-18.01801	0	0
2.829499	0.1537506	0.2322947	1.343142	0.9362004	31.86727	22.22779	0	0
2.84601	0.1622967	0.2382726	0.5176006	0.3620581	-24.74203	-17.20742	0	0
2.862521	0.1819138	0.2521184	1.188091	0.8385572	20.30411	14.42957	0	0
2.879034	0.1922537	0.2594471	0.6261812	0.443825	-17.01516	-11.95286	0	0
2.915353	0.2145665	0.275524	0.6143596	0.4426606	-0.2237613	-0.02203948	0	0
2.93192	0.2187832	0.2786014	0.2545215	0.1857497	-6.804033	-4.857824	0	0
2.948487	0.2244182	0.2826619	0.3401387	0.2451015	2.58397	1.791268	0	0
2.965098	0.2296146	0.2873474	0.3128131	0.2820578	-0.8235919	1.113859	0	0
2.98162	0.2300138	0.2907803	0.0241623	0.2077832	-8.711748	-2.241676	0	0
2.998187	0.2329058	0.2938552	0.1745657	0.1856021	4.545497	-0.6703559	0	0
3.014755	0.2332296	0.2940518	0.0195475	0.01186844	-4.678426	-5.243255	0	0
3.031321	0.2332296	0.2940161	0	-0.002157002	-0.5899531	-0.4232949	0	0
3.047886	0.2332047	0.2939982	-0.001504008	-0.001079432	-0.04539498	0.03252396	0	0
3.064454	0.2331798	0.2939803	-0.001502957	-0.001079323	3.172077E-05	3.281701E-06	0	0
3.081021	0.2331549	0.2939267	-0.001503857	-0.00323617	-2.714469E-05	-0.06509378	0	0
3.097691	0.2331549	0.2938909	0	-0.002145309	0.04524584	0.03282024	0	0
3.114154	0.2331051	0.2938194	-0.003026836	-0.00434293	-0.0913547	-0.06632768	0	0
3.130722	0.2330303	0.2936228	-0.004510282	-0.01186793	-0.0449104	-0.2278148	0	0
3.14729	0.2329058	0.2933546	-0.007518959	-0.01618555	-0.09079619	-0.1302976	0	0
3.163855	0.2327064	0.2929971	-0.01203293	-0.02158299	-0.1362408	-0.1629057	0	0
3.180753	0.2323576	0.2927111	-0.02064375	-0.01692697	-0.2573234	0.1391394	0	0
3.196988	0.231909	0.2923536	-0.02763357	-0.02202168	-0.2109624	-0.1537651	0	0
3.213773	0.2308618	0.2916027	-0.0623837	-0.04473354	-1.052404	-0.6878258	0	0
3.230285	0.2304129	0.2912809	-0.02718859	-0.0194872	1.056988	0.7582042	0	0
3.246686	0.2304129	0.2912809	0	0	0.8260692	0.5920784	0	0
3.263253	0.2304129	0.2912809	0	0	0	0	0	0
3.27982	0.2304129	0.2912809	0	0	0	0	0	0
3.296386	0.2304129	0.2912809	0	0	0	0	0	0
3.312953	0.2304129	0.2912809	0	0	0	0	0	0
3.32952	0.2304129	0.2912809	0	0	0	0	0	0
3.346087	0.2304129	0.2912809	0	0	0	0	0	0
3.400442	0.2304378	0.291263	0.0004589178	-0.0003289733	0.006470749	-0.00463853	0	0
3.417009	0.2304378	0.291263	0	0	-0.006470684	0.004638483	0	0
3.433576	0.2304378	0.291263	0	0	0	0	0	0
3.450143	0.2304378	0.291263	0	0	0	0	0	0
3.46695	0.2304378	0.2912273	0	-0.002127841	0	-0.06375866	0	0
3.483276	0.2304378	0.2912273	0	0	0	0.0642202	0	0
3.55151	0.2302133	0.2909949	-0.003290186	-0.003406367	-0.03890953	-0.04028347	0	0
3.568022	0.229914	0.2908161	-0.01812994	-0.01082742	-0.1751093	-0.0875686	0	0
3.584575	0.2297892	0.2907267	-0.007536585	-0.005399479	0.3203788	0.1641595	0	0
3.601141	0.2289657	0.2901367	-0.04970875	-0.03561329	-1.273327	-0.9122615	0	0
3.61771	0.2249434	0.287258	-0.2427709	-0.1737459	-5.8265	-4.168761	0	0
3.634567	0.2137373	0.2792991	-0.6647509	-0.4721258	-12.62429	-8.926567	0	0
3.650842	0.2071434	0.2746114	-0.40516	-0.2880323	7.834976	5.556311	0	0
3.667591	0.1936225	0.2650707	-0.8072608	-0.5696236	-12.17608	-8.52691	0	0
3.683976	0.1868982	0.2603607	-0.4104058	-0.2874722	11.97745	8.515593	0	0
3.700541	0.1709723	0.2493399	-0.9613914	-0.6652853	-16.72191	-11.46628	0	0
3.717108	0.1648585	0.2451259	-0.3690393	-0.2543606	17.87838	12.40254	0	0
3.750242	0.1509997	0.2357957	-0.4182713	-0.2815949	-0.990579	-0.5479719	0	0
3.766808	0.1385797	0.2281457	-0.7496924	-0.4617684	-6.668397	-3.625201	0	0
3.787053	0.1230592	0.2267084	-0.7666568	-0.07099787	-0.4608493	10.61556	0	0
3.80362	0.1147827	0.227481	-0.4995719	0.04663305	7.255456	3.195486	0	0
3.8202	0.107479	0.2268162	-0.4405003	-0.04009332	1.782064	-2.616353	0	0
3.836754	0.09828754	0.2253248	-0.5552589	-0.09009704	-3.463469	-1.509137	0	0
3.853321	0.09461142	0.2249474	-0.2218972	-0.02277977	10.06522	2.032517	0	0
3.869887	0.08889666	0.2220177	-0.3449634	-0.1768501	-3.714305	-4.650052	0	0
3.886453	0.08800891	0.2214064	-0.05358788	-0.03689699	8.794237	4.224035	0	0
3.903023	0.08800891	0.2214424	0	0.002170027	1.617216	1.178994	0	0
3.919587	0.0879828	0.2214244	-0.001576579	-0.001084938	-0.04758262	-0.09823786	0	0
3.936154	0.0879828	0.2214244	0	0	0.04758604	0.0327468	0	0
3.952721	0.08793058	0.2213884	-0.003152164	-0.002170401	-0.09513386	-0.06550378	0	0
3.969306	0.0878	0.2212985	-0.007872922	-0.005420524	-0.142399	-0.09803811	0	0
3.985854	0.08623298	0.2202198	-0.09469459	-0.06518881	-2.620396	-1.803888	0	0
4.00242	0.08082355	0.216497	-0.3265329	-0.224719	-7.001126	-4.817543	0	0
4.018987	0.07423177	0.2120348	-0.3978918	-0.2693483	-2.153708	-1.346974	0	0
4.035554	0.06789548	0.2076782	-0.3824595	-0.2629645	0.4657544	0.1926682	0	0
4.052121	0.06055744	0.2026706	-0.4429375	-0.3022677	-1.825256	-1.186192	0	0
4.068687	0.05617767	0.1996249	-0.2643714	-0.1838473	5.389291	3.574039	0	0
4.085254	0.05085086	0.1959287	-0.3215452	-0.2231161	-1.725586	-1.185187	0	0
4.10182	0.04746433	0.1936379	-0.2044234	-0.1382782	3.534947	2.56056	0	0
4.118387	0.04541612	0.1921946	-0.1236337	-0.08712366	2.438343	1.543915	0	0
4.134953	0.04544238	0.1922487	0.001585301	0.003266845	3.779226	2.72807	0	0
4.151521	0.04546864	0.1922306	0.001585031	-0.001089217	-8.165309E-06	-0.1314681	0	0
4.168088	0.04546864	0.1922306	0	0	-0.04783633	0.03287263	0	0
4.185461	0.04546864	0.1922306	0	0	0	0	0	0
4.201221	0.0454949	0.1922126	0.001666408	-0.001144976	0.05029447	-0.03455694	0	0
4.234354	0.0454949	0.1922126	0	0	-0.03408211	0.02341755	0	0
4.251005	0.0454949	0.1922126	0	0	0	0	0	0
4.267516	0.04552116	0.1921946	0.001590386	-0.001091995	0.04795862	-0.03292945	0	0
4.284054	0.04552116	0.1921946	0	0	-0.04812123	0.0330411	0	0
4.300621	0.04557369	0.1921585	0.003170378	-0.002178496	0.09576764	-0.06580587	0	0
4.317188	0.04557369	0.1921585	0	0	-0.09568495	0.06574905	0	0
4.333755	0.04557369	0.1921585	0	0	0	0	0	0
4.350321	0.04557369	0.1921585	0	0	0	0	0	0
4.366888	0.04559994	0.1921404	0.001585122	-0.00108928	0.04784115	-0.03287594	0	0
4.383454	0.04559994	0.1921404	0	0	-0.04784183	0.03287641	0	0
4.400021	0.04559994	0.1921404	0	0	0	0	0	0
4.416588	0.04562621	0.1921224	0.001585256	-0.001089217	0.0478438	-0.0328731	0	0
4.433155	0.04562621	0.1921224	0	0	-0.0478438	0.0328731	0	0
4.449722	0.04565247	0.1921043	0.001585031	-0.001089217	0.04783701	-0.0328731	0	0
4.466288	0.04567873	0.1920863	0.001585393	-0.001089311	1.092019E-05	-2.838967E-06	0	0
4.482854	0.04567873	0.1920502	0	-0.002178496	-0.04785	-0.03287358	0	0
4.499421	0.04575751	0.1919961	0.004755454	-0.003267745	0.143524	-0.03287452	0	0
4.516194	0.04581003	0.19196	0.003131219	-0.002150853	-0.04871804	0.03350055	0	0
4.532555	0.04591507	0.1918878	0.006420363	-0.004411851	0.09926941	-0.06823901	0	0
4.549222	0.04604638	0.1917615	0.007877764	-0.007578711	0.04412607	-0.09588373	0	0
4.565728	0.04612515	0.1917073	0.004772814	-0.003279828	-0.09359849	0.1295895	0	0
4.681655	0.06003304	0.1708519	0.1199703	-0.1799002	0.8698523	-1.333654	0	0
4.698224	0.05552182	0.1605623	-0.272274	-0.6210311	-2.960416	-3.329382	0	0
4.714833	0.04919711	0.1520166	-0.3807959	-0.514517	-3.270915	3.210397	0	0
4.734443	0.04126604	0.1451491	-0.4044517	-0.3502122	-0.6531388	4.536472	0	0
4.75101	0.03769267	0.1426762	-0.215689	-0.1492632	5.217801	5.554655	0	0
4.767578	0.03277773	0.1392742	-0.2966576	-0.2053407	-2.443601	-1.692398	0	0
4.784144	0.03067459	0.1378909	-0.1269533	-0.08349854	5.121757	3.677257	0	0
4.800711	0.02757196	0.135779	-0.1872804	-0.1274816	-1.820753	-1.327469	0	0
4.817407	0.02715122	0.1354876	-0.02519985	-0.01745106	4.872738	3.307923	0	0
4.833918	0.02715122	0.1354876	0	0	0.7588731	0.5255244	0	0
4.850429	0.02715122	0.1354876	0	0	0	0	0	0
4.866977	0.02715122	0.1354876	0	0	0	0	0	0
4.883543	0.02715122	0.1354876	0	0	0	0	0	0
4.90011	0.02712492	0.1355058	-0.001587325	0.001099142	-0.04790695	0.03317313	0	0
4.916677	0.02709863	0.1355605	-0.001587325	0.003297427	0	0.06634627	0	0
4.933243	0.02707233	0.1355787	-0.001587371	0.001099174	-1.380834E-06	-0.06634627	0	0
4.949811	0.02709863	0.1355969	0.001587279	0.001099111	0.0958139	-1.911356E-06	0	0
4.966511	0.02709863	0.1355969	0	0	-0.04771262	-0.03303857	0	0
4.982944	0.02709863	0.1355969	0	0	0	0	0	0
4.999511	0.02709863	0.1355969	0	0	0	0	0	0
5.016077	0.02709863	0.1355969	0	0	0	0	0	0
5.049212	0.02709863	0.1355969	0	0	0	0	0	0
5.065777	0.02709863	0.1355969	0	0	0	0	0	0
5.082594	0.02709863	0.1355969	0	0	0	0	0	0
5.099103	0.02707233	0.1355787	-0.001592827	-0.001102952	-0.04779442	-0.03309521	0	0
5.115477	0.02709863	0.1355605	0.001606047	-0.001112106	0.09727997	-0.0002783892	0	0
5.132127	0.02709863	0.1355605	0	0	-0.04863296	0.03367586	0	0
5.148639	0.02709863	0.1355605	0	0	0	0	0	0
5.165181	0.02709863	0.1355605	0	0	0	0	0	0
5.181745	0.02709863	0.1355605	0	0	0	0	0	0
5.19831	0.02709863	0.1355969	0	0.002198474	0	0.06636059	0	0
5.214877	0.02709863	0.1355969	0	0	0	-0.06635486	0	0
5.231444	0.02709863	0.1355969	0	0	0	0	0	0
5.248209	0.02709863	0.1355969	0	0	0	0	0	0
5.264576	0.02709863	0.1355969	0	0	0	0	0	0
5.281143	0.02709863	0.1355969	0	0	0	0	0	0
5.297746	0.02709863	0.1355969	0	0	0	0	0	0
5.314277	0.02709863	0.1355969	0	0	0	0	0	0
5.330842	0.02709863	0.1355969	0	0	0	0	0	0
5.34741	0.02709863	0.1355969	0	0	0	0	0	0
5.364292	0.02712492	0.1355787	0.00155769	-0.001078621	0.04656819	-0.03224611	0	0
5.380804	0.02712492	0.1355787	0	0	-0.04664665	0.03230044	0	0
5.397318	0.02712492	0.1355787	0	0	0	0	0	0
5.413826	0.02712492	0.1355787	0	0	0	0	0	0
5.430338	0.02712492	0.1355787	0	0	0	0	0	0
5.529644	0.02712492	0.1355787	0	0	0	0	0	0
5.546422	0.02712492	0.1355787	0	0	0	0	0	0
5.562778	0.02712492	0.1355787	0	0	0	0	0	0
5.579343	0.02712492	0.1355787	0	0	0	0	0	0
5.59591	0.02712492	0.1355787	0	0	0	0	0	0
5.612477	0.02712492	0.1355787	0	0	0	0	0	0
5.629043	0.02712492	0.1355787	0	0	0	0	0	0
5.645993	0.02712492	0.1355787	0	0	0	0	0	0
5.680028	0.02712492	0.1355787	0	0	0	0	0	0
5.696596	0.02712492	0.1355787	0	0	0	0	0	0
5.713163	0.02712492	0.1355787	0	0	0	0	0	0
5.729731	0.02709863	0.1355605	-0.001587188	-0.001099047	-0.04790074	-0.03316884	0	0
5.746296	0.02709863	0.1355605	0	0	0.0479035	0.03317075	0	0
5.763076	0.02709863	0.1355605	0	0	0	0	0	0
5.779586	0.02709863	0.1355605	0	0	0	0	0	0
5.795997	0.02709863	0.1355605	0	0	0	0	0	0
5.812562	0.02709863	0.1355605	0	0	0	0	0	0
5.829129	0.02709863	0.1355605	0	0	0	0	0	0
5.845696	0.02709863	0.1355605	0	0	0	0	0	0
5.862263	0.02709863	0.1355605	0	0	0	0	0	0
5.878829	0.02709863	0.1355605	0	0	0	0	0	0
5.895396	0.02709863	0.1355605	0	0	0	0	0	0
5.911964	0.02709863	0.1355605	0	0	0	0	0	0
5.92853	0.02709863	0.1355605	0	0	0	0	0	0
5.945096	0.02709863	0.1355605	0	0	0	0	0	0
5.961663	0.02709863	0.1355605	0	0	0	0	0	0
5.978229	0.02709863	0.1355605	0	0	0	0	0	0
5.994796	0.02709863	0.1355605	0	0	0	0	0	0
6.011363	0.02709863	0.1355605	0	0	0	0	0	0
6.027929	0.02709863	0.1355605	0	0	0	0	0	0
6.044772	0.02712492	0.1355422	0.001561306	-0.001081125	0.04673225	-0.03235972	0	0
6.061063	0.02712492	0.1355422	0	0	-0.04712165	0.03262936	0	0
6.077629	0.02712492	0.1355422	0	0	0	0	0	0
6.094195	0.02712492	0.1355422	0	0	0	0	0	0
6.110818	0.02712492	0.1355422	0	0	0	0	0	0
6.12733	0.02712492	0.1355422	0	0	0	0	0	0
6.143896	0.02712492	0.1355422	0	0	0	0	0	0
6.160462	0.02712492	0.1355422	0	0	0	0	0	0
6.177029	0.02712492	0.1355422	0	0	0	0	0	0
6.193595	0.02712492	0.1355422	0	0	0	0	0	0
6.210162	0.02712492	0.1355422	0	0	0	0	0	0
6.2269	0.02712492	0.1355422	0	0	0	0	0	0
6.243296	0.02712492	0.1355422	0	0	0	0	0	0
6.259862	0.02712492	0.1355422	0	0	0	0	0	0
6.276429	0.02712492	0.1355422	0	0	0	0	0	0
6.293447	0.02712492	0.1355422	0	0	0	0	0	0
6.309958	0.02712492	0.1355422	0	0	0	0	0	0
6.326129	0.02712492	0.1355422	0	0	0	0	0	0
6.342696	0.02712492	0.1355422	0	0	0	0	0	0
6.359493	0.02712492	0.1355422	0	0	0	0	0	0
6.376005	0.02712492	0.1355422	0	0	0	0	0	0
6.392516	0.02712492	0.1355422	0	0	0	0	0	0
6.409028	0.02712492	0.1355422	0	0	0	0	0	0
6.425539	0.02712492	0.1355422	0	0	0	0	0	0
6.442552	0.02712492	0.1355422	0	0	0	0	0	0
6.458662	0.02712492	0.1355422	0	0	0	0	0	0
6.494549	0.02712492	0.1355422	0	0	0	0	0	0
6.511116	0.02712492	0.1355422	0	0	0	0	0	0
6.527682	0.02712492	0.1355422	0	0	0	0	0	0
6.54425	0.02712492	0.1355422	0	0	0	0	0	0
6.560816	0.02712492	0.1355422	0	0	0	0	0	0
6.577383	0.02712492	0.1355422	0	0	0	0	0	0
6.593949	0.02712492	0.1355422	0	0	0	0	0	0
6.610516	0.02712492	0.1355422	0	0	0	0	0	0
6.627189	0.02712492	0.1355422	0	0	0	0	0	0
6.64365	0.02712492	0.1355422	0	0	0	0	0	0
6.660216	0.02712492	0.1355422	0	0	0	0	0	0
6.676783	0.02712492	0.1355422	0	0	0	0	0	0
6.693349	0.02712492	0.1355422	0	0	0	0	0	0
6.709916	0.02712492	0.1355422	0	0	0	0	0	0
6.726755	0.02712492	0.1355422	0	0	0	0	0	0
6.743264	0.02712492	0.1355422	0	0	0	0	0	0
6.759777	0.02712492	0.1355422	0	0	0	0	0	0
6.776182	0.02712492	0.1355422	0	0	0	0	0	0
6.792749	0.02712492	0.1355422	0	0	0	0	0	0
6.809316	0.02712492	0.1355422	0	0	0	0	0	0
6.825882	0.02712492	0.1355422	0	0	0	0	0	0
6.842449	0.02712492	0.1355422	0	0	0	0	0	0
6.859016	0.02712492	0.1355422	0	0	0	0	0	0
6.875582	0.02712492	0.1355422	0	0	0	0	0	0
6.908881	0.02712492	0.1355422	0	0	0	0	0	0
6.925282	0.02712492	0.1355422	0	0	0	0	0	0
6.941905	0.02712492	0.1355422	0	0	0	0	0	0
6.958417	0.02712492	0.1355422	0	0	0	0	0	0
6.974982	0.02712492	0.1355422	0	0	0	0	0	0
6.991549	0.02712492	0.1355422	0	0	0	0	0	0
7.008116	0.02712492	0.1355422	0	0	0	0	0	0
7.024683	0.02712492	0.1355422	0	0	0	0	0	0
7.041475	0.02712492	0.1355422	0	0	0	0	0	0
7.057816	0.02712492	0.1355422	0	0	0	0	0	0
7.074498	0.02712492	0.1355422	0	0	0	0	0	0
7.090949	0.02712492	0.1355422	0	0	0	0	0	0
7.107522	0.02712492	0.1355422	0	0	0	0	0	0
7.124083	0.02712492	0.1355422	0	0	0	0	0	0
7.140649	0.02712492	0.1355422	0	0	0	0	0	0
7.157557	0.02712492	0.1355422	0	0	0	0	0	0
7.173782	0.02712492	0.1355422	0	0	0	0	0	0
7.190349	0.02712492	0.1355422	0	0	0	0	0	0
7.206916	0.02712492	0.1355422	0	0	0	0	0	0
7.223483	0.02712492	0.1355422	0	0	0	0	0	0
7.273182	0.02712492	0.1355422	0	0	0	0	0	0
7.289749	0.02712492	0.1355422	0	0	0	0	0	0
7.306315	0.02712492	0.1355422	0	0	0	0	0	0
7.323174	0.02712492	0.1355422	0	0	0	0	0	0
7.343283	0.02712492	0.1355422	0	0	0	0	0	0
7.35985	0.02712492	0.1355422	0	0	0	0	0	0
7.376417	0.02712492	0.1355422	0	0	0	0	0	0
7.392984	0.02712492	0.1355422	0	0	0	0	0	0
7.409551	0.02712492	0.1355422	0	0	0	0	0	0
7.426118	0.02712492	0.1355422	0	0	0	0	0	0
7.487598	0.02712492	0.1355422	0	0	0	0	0	0
7.504166	0.02712492	0.1355422	0	0	0	0	0	0
7.520733	0.02715122	0.135524	0.001587234	-0.001099079	0.04790212	-0.03316979	0	0
7.5373	0.02715122	0.135524	0	0	-0.0479035	0.03317075	0	0
7.553866	0.02715122	0.135524	0	0	0	0	0	0
7.570433	0.02715122	0.135524	0	0	0	0	0	0
7.586999	0.02715122	0.135524	0	0	0	0	0	0
7.603566	0.02715122	0.135524	0	0	0	0	0	0
7.620135	0.02715122	0.135524	0	0	0	0	0	0
7.636896	0.02715122	0.135524	0	0	0	0	0	0
7.653408	0.02715122	0.135524	0	0	0	0	0	0
7.669833	0.02715122	0.135524	0	0	0	0	0	0
7.686432	0.02717752	0.1355058	0.001584112	-0.001096995	0.04796806	-0.03321781	0	0
7.702966	0.02717752	0.1355058	0	0	-0.04781136	0.03310928	0	0
7.719532	0.02717752	0.1355058	0	0	0	0	0	0
7.736099	0.02717752	0.1355058	0	0	0	0	0	0
7.752666	0.02717752	0.1355058	0	0	0	0	0	0
7.769233	0.02720381	0.1354876	0.001587325	-0.001099142	0.04790695	-0.03317313	0	0
7.785799	0.02720381	0.1354876	0	0	-0.04790764	0.03317361	0	0
7.802515	0.02720381	0.1354876	0	0	0	0	0	0
7.818933	0.02720381	0.1354876	0	0	0	0	0	0
7.835538	0.02720381	0.1354876	0	0	0	0	0	0
7.852551	0.02720381	0.1354876	0	0	0	0	0	0
7.868633	0.02720381	0.1354876	0	0	0	0	0	0
7.8852	0.02720381	0.1354876	0	0	0	0	0	0
7.902086	0.02720381	0.1354876	0	0	0	0	0	0
7.918334	0.02720381	0.1354876	0	0	0	0	0	0
7.934899	0.02720381	0.1354876	0	0	0	0	0	0
7.951467	0	0	-1.641978	-8.177814	-49.55642	-246.814	0	0
7.968033	0.02717752	0.1354694	1.640533	8.177421	99.06779	493.609	0	0
7.984645	0.02717752	0.1354694	0	0	-49.44662	-246.4723	0	0
8.001166	0.02717752	0.1354694	0	0	0	0	0	0
8.017733	0.02717752	0.1354694	0	0	0	0	0	0
8.034299	0.02717752	0.1354694	0	0	0	0	0	0
8.050866	0.02717752	0.1354694	0	0	0	0	0	0
8.067432	0.02717752	0.1354694	0	0	0	0	0	0
8.083999	0.02717752	0.1354694	0	0	0	0	0	0
8.100565	0.02717752	0.1354694	0	0	0	0	0	0
8.117131	0.02717752	0.1354694	0	0	0	0	0	0
8.133747	0.02717752	0.1354694	0	0	0	0	0	0
8.150265	0.02717752	0.1354694	0	0	0	0	0	0
8.166831	0.02717752	0.1354694	0	0	0	0	0	0
8.183397	0.02717752	0.1354694	0	0	0	0	0	0
8.199965	0.02717752	0.1354694	0	0	0	0	0	0
8.216531	0.02717752	0.1354694	0	0	0	0	0	0
8.235942	0.02717752	0.1354694	0	0	0	0	0	0
8.252831	0.02717752	0.1354694	0	0	0	0	0	0
8.269076	0.02717752	0.1354694	0	0	0	0	0	0
8.285643	0.02717752	0.1354694	0	0	0	0	0	0
8.30221	0.02717752	0.1354694	0	0	0	0	0	0
8.318776	0.02717752	0.1354694	0	0	0	0	0	0
8.335342	0.02717752	0.1354694	0	0	0	0	0	0
8.351909	0.02717752	0.1354694	0	0	0	0	0	0
8.368475	0.02717752	0.1354694	0	0	0	0	0	0
8.385041	0.02717752	0.1354694	0	0	0	0	0	0
8.401608	0.02720381	0.1354512	0.001587371	-0.001100073	0.04790971	-0.03320219	0	0
8.418175	0.02715122	0.1354148	-0.003174447	-0.002198221	-0.1437161	-0.03314312	0	0
8.434741	0.02712492	0.1353966	-0.001587371	-0.001099174	0.04789942	0.03317027	0	0
8.45147	0.02701974	0.1353237	-0.006287477	-0.004354727	-0.1411628	-0.0977772	0	0
8.467981	0.02694085	0.1352326	-0.004778066	-0.005515184	0.04540903	-0.03491111	0	0
8.484491	0.02691455	0.1351052	-0.001592781	-0.007721342	0.0964625	-0.06681082	0	0
8.501007	0.02667788	0.1347955	-0.01433006	-0.01874675	-0.3856773	-0.3338429	0	0
8.517574	0.02588895	0.1339212	-0.04761985	-0.0527744	-1.006252	-1.028555	0	0
8.534141	0.02207536	0.1312063	-0.230202	-0.163884	-5.5105	-3.35339	0	0
8.551038	0.007894573	0.1210445	-0.8392388	-0.6013892	-18.20004	-13.07411	0	0
8.567274	-0.002526311	0.1134782	-0.641826	-0.4660077	5.958101	4.08594	0	0
8.58384	-0.009683908	0.1081346	-0.4320583	-0.3225621	6.394853	4.372997	0	0
8.600408	-0.02886041	0.0941428	-1.157496	-0.8445455	-21.89437	-15.75394	0	0
8.616974	-0.03669405	0.08855609	-0.472867	-0.3372341	20.66273	15.31113	0	0
8.63354	-0.04468077	0.08292546	-0.4821072	-0.3398849	-0.2788861	-0.08000583	0	0
8.650107	-0.06724058	0.06702396	-1.361713	-0.9598163	-26.54732	-18.71011	0	0
8.666674	-0.07716228	0.05997601	-0.5989094	-0.4254399	23.02211	16.12798	0	0
8.683241	-0.08652031	0.05337925	-0.5648516	-0.3981809	1.027898	0.8227008	0	0
8.699807	-0.09614997	0.04649266	-0.5812813	-0.4156993	-0.4958643	-0.5287216	0	0
8.716654	-0.1021172	0.04223572	-0.3542107	-0.2526876	6.795888	4.878702	0	0
8.73294	-0.1087794	0.03747117	-0.4090768	-0.2925568	-1.655957	-1.203324	0	0
8.749506	-0.1116132	0.03544066	-0.1710542	-0.1225687	7.245262	5.174334	0	0
8.766072	-0.1121849	0.0350307	-0.03451154	-0.0247467	4.121103	2.952443	0	0
8.782701	-0.1131203	0.03435976	-0.0562535	-0.0403498	-0.6549858	-0.4700499	0	0
8.799212	-0.1131203	0.03435976	0	0	1.697441	1.217549	0	0
8.815773	-0.1131463	0.03434112	-0.001568799	-0.001125423	-0.04743518	-0.03402899	0	0
8.832736	-0.1131722	0.03432248	-0.001531578	-0.001098942	0.001110266	0.0007899288	0	0
8.848906	-0.1131722	0.03432248	0	0	0.04622579	0.03316803	0	0
8.865472	-0.1131982	0.03430384	-0.001568257	-0.001125034	-0.04790644	-0.03436706	0	0
8.882039	-0.1131982	0.03430384	0	0	0.04733144	0.03395458	0	0
8.898605	-0.1132242	0.0342852	-0.001568257	-0.001125259	-0.04733144	-0.03396136	0	0
8.915294	-0.1132242	0.0342852	0	0	0.04715906	0.03383767	0	0
8.931808	-0.1132242	0.0342852	0	0	0	0	0	0
8.948305	-0.1131982	0.03426656	0.001574784	-0.001129717	0.04770419	-0.03422198	0	0
8.964871	-0.1131982	0.03426656	0	0	-0.04762851	0.03416769	0	0
8.981439	-0.1131722	0.03424792	0.001568166	-0.001125194	0.04732872	-0.03395941	0	0
8.998354	-0.1131722	0.03424792	0	0	-0.04683533	0.03360539	0	0
9.014571	-0.1131722	0.03424792	0	0	0	0	0	0
9.031137	-0.1131463	0.03422928	0.001568257	-0.001125034	0.04783676	-0.03431708	0	0
9.047887	-0.1131463	0.03422928	0	0	-0.04707266	0.03376893	0	0
9.0644	-0.1131463	0.03422928	0	0	0	0	0	0
9.100541	-0.1131463	0.03422928	0	0	0	0	0	0
9.117107	-0.1131463	0.03422928	0	0	0	0	0	0
9.133674	-0.1131463	0.03422928	0	0	0	0	0	0
9.15046	-0.1131203	0.03421064	0.001547676	-0.001110492	0.0464031	-0.03329526	0	0
9.166806	-0.1131203	0.03421064	0	0	-0.04671163	0.03351663	0	0
9.183483	-0.1131203	0.03421064	0	0	0	0	0	0
9.19994	-0.1131203	0.03421064	0	0	0	0	0	0
9.216506	-0.1131203	0.03421064	0	0	0	0	0	0
9.233072	-0.1131203	0.03421064	0	0	0	0	0	0
9.249639	-0.1131203	0.03421064	0	0	0	0	0	0
9.266206	-0.1131203	0.03421064	0	0	0	0	0	0
9.282772	-0.1129904	0.03411744	0.007841733	-0.005625845	0.2366708	-0.1697932	0	0
9.299338	-0.1123148	0.0335209	0.04077962	-0.03600919	0.9941247	-0.9170239	0	0
9.315906	-0.1106514	0.03225294	0.1004009	-0.07653457	1.799425	-1.223094	0	0
9.332587	-0.10032	0.02457976	0.6193296	-0.4599763	15.60739	-11.53246	0	0
9.349039	-0.09581101	0.02123279	0.2740715	-0.203441	-10.42021	7.742475	0	0
9.365607	-0.08907942	0.01629066	0.4062963	-0.2982898	4.004383	-2.872465	0	0
9.382173	-0.08048366	0.01000931	0.5189007	-0.3791871	3.398505	-2.441556	0	0
9.398739	-0.07462433	0.005765234	0.3536902	-0.2561876	-4.986492	3.712455	0	0
9.415305	-0.068236	0.001139524	0.3856225	-0.2792245	0.9637731	-0.6952959	0	0
9.432158	-0.06401767	-0.001929003	0.2503108	-0.1820827	-4.048987	2.906813	0	0
9.448669	-0.06213046	-0.003285329	0.1142938	-0.08214226	-4.076724	2.995431	0	0
9.465006	-0.05851208	-0.005924227	0.2214912	-0.1615344	3.263403	-2.41693	0	0
9.481691	-0.05544312	-0.008131221	0.18393	-0.1322703	-1.137463	0.8862041	0	0
9.498138	-0.05544312	-0.008131221	0	0	-5.551338	3.992155	0	0
9.514715	-0.05541689	-0.00815009	0.001582546	-0.001138312	0.04792133	-0.0344694	0	0
9.531281	-0.05541689	-0.00815009	0	0	-0.04775034	0.0343464	0	0
9.547839	-0.05541689	-0.00815009	0	0	0	0	0	0
9.564405	-0.05544312	-0.008131221	-0.001583548	0.001139032	-0.04780534	0.03438596	0	0
9.580972	-0.05544312	-0.008131221	0	0	0.04779433	-0.03437804	0	0
9.597538	-0.05544312	-0.008131221	0	0	0	0	0	0
9.614288	-0.05544312	-0.008131221	0	0	0	0	0	0
9.630672	-0.05544312	-0.008131221	0	0	0	0	0	0
9.647309	-0.05546936	-0.008112351	-0.001576964	0.001134136	-0.04775644	0.03434592	0	0
9.663819	-0.05546936	-0.008112351	0	0	0.04757371	-0.0342145	0	0
9.680373	-0.05546936	-0.008112351	0	0	0	0	0	0
9.696939	-0.05546936	-0.008112351	0	0	0	0	0	0
9.713855	-0.05549559	-0.008093482	-0.001550784	0.001115466	-0.04631751	0.03331579	0	0
9.730413	-0.05549559	-0.008093482	0	0	0.04632675	-0.03332243	0	0
9.746638	-0.05549559	-0.008093482	0	0	0	0	0	0
9.763391	-0.05549559	-0.008093482	0	0	0	0	0	0
9.779771	-0.05549559	-0.008093482	0	0	0	0	0	0
9.796337	-0.05549559	-0.008093482	0	0	0	0	0	0
9.812903	-0.05549559	-0.008093482	0	0	0	0	0	0
9.829471	-0.05549559	-0.008093482	0	0	0	0	0	0
9.846037	-0.05549559	-0.008093482	0	0	0	0	0	0
9.862606	-0.05549559	-0.008093482	0	0	0	0	0	0
9.9125	-0.05549559	-0.008093482	0	0	0	0	0	0
9.928871	-0.05549559	-0.008093482	0	0	0	0	0	0
9.949216	-0.05549559	-0.008093482	0	0	0	0	0	0
9.965783	-0.05549559	-0.008093482	0	0	0	0	0	0
9.98235	-0.05549559	-0.008093482	0	0	0	0	0	0
9.999057	-0.05549559	-0.008093482	0	0	0	0	0	0
10.01557	-0.05549559	-0.008093482	0	0	0	0	0	0
10.03208	-0.05549559	-0.008093482	0	0	0	0	0	0
10.04862	-0.05549559	-0.008093482	0	0	0	0	0	0
10.08175	-0.05549559	-0.008093482	0	0	0	0	0	0
10.09863	-0.05549559	-0.008093482	0	0	0	0	0	0
10.11488	-0.05549559	-0.008093482	0	0	0	0	0	0
10.13145	-0.05554806	-0.008055743	-0.003167321	0.002278065	-0.09649815	0.06940535	0	0
10.14803	-0.05575794	-0.007904794	-0.0126579	0.009103948	-0.2863192	0.2059285	0	0
10.16458	-0.05591534	-0.007753851	-0.009508952	0.009118794	0.09503831	0.0004480444	0	0
10.18118	-0.05651869	-0.00731993	-0.03634307	0.02613738	-0.809366	0.5133117	0	0
10.19772	-0.05785641	-0.006282527	-0.0809174	0.06275145	-1.345295	1.105047	0	0
10.21428	-0.06139642	-0.003586811	-0.2136879	0.1627231	-4.011409	3.020454	0	0
10.23085	-0.06603543	-0.0001026068	-0.2800108	0.210307	-2.001686	1.436125	0	0
10.24742	-0.06978125	0.002851402	-0.2261114	0.1783146	1.626733	-0.9655596	0	0
10.26424	-0.07828704	0.01015944	-0.5054954	0.434314	-8.366568	7.666282	0	0
10.28055	-0.08325448	0.0164218	-0.3046226	0.3840314	6.062528	-1.517575	0	0
10.29727	-0.08657254	0.0264669	-0.1984736	0.6008587	3.214222	6.565591	0	0
10.31378	-0.08662478	0.03493752	-0.003163535	0.5130007	5.877553	-2.64395	0	0
10.33029	-0.08270565	0.04673418	0.2373654	0.7144742	7.283707	6.101028	0	0
10.34682	-0.07724076	0.05517778	0.3306608	0.5108917	2.823868	-6.162044	0	0
10.36381	-0.07184979	0.06010561	0.3171657	0.2899179	-0.4025448	-6.59141	0	0
10.38033	-0.05866943	0.06922279	0.7982789	0.5521896	14.35803	7.827066	0	0
10.39652	-0.04462824	0.07909393	0.8671449	0.6096138	2.105777	1.755911	0	0
10.41308	-0.03430233	0.08633047	0.6233094	0.4368236	-7.443379	-5.274635	0	0
10.42965	-0.02746678	0.09107465	0.4125947	0.2863597	-6.359565	-4.54114	0	0
10.44622	-0.01115743	0.1024549	0.9844906	0.6869553	17.26035	12.09035	0	0
10.46278	-0.004842068	0.1068161	0.3812181	0.2632521	-18.20785	-12.78812	0	0
10.47935	0.01071012	0.1176283	0.9387857	0.6526669	16.82839	11.75324	0	0
10.49592	0.01949753	0.1236918	0.5304093	0.3659917	-12.32518	-8.652122	0	0
10.51248	0.02546818	0.1278334	0.3604097	0.2500027	-5.130744	-3.500656	0	0
10.52905	0.03919045	0.1373084	0.8282303	0.5718806	14.11885	9.714293	0	0
10.54562	0.04693918	0.1426035	0.4677412	0.3196284	-10.87958	-7.612985	0	0
10.56218	0.05405256	0.147421	0.429414	0.2908202	-1.156817	-0.8695094	0	0
10.57875	0.06215667	0.1526702	0.4891933	0.3168589	1.804298	0.7859176	0	0
10.59548	0.06800026	0.155665	0.3493012	0.179015	-4.201516	-4.14	0	0
10.61188	0.07187597	0.1575881	0.2362502	0.1172266	-3.411885	-1.864779	0	0
10.62845	0.07975154	0.1594562	0.475425	0.1127726	7.254222	-0.1350906	0	0
10.64502	0.08461329	0.160798	0.2934727	0.08099347	-5.491807	-0.9591779	0	0
10.66158	0.08926217	0.158622	0.2805912	-0.1313353	-0.3887641	-6.408094	0	0
10.67815	0.09187222	0.156808	0.157552	-0.1094964	-3.71333	0.6590971	0	0
10.69472	0.09703638	0.1531785	0.3117273	-0.2190918	4.653289	-3.307785	0	0
10.71128	0.09899117	0.1518168	0.1179979	-0.08219519	-5.847102	4.131786	0	0
10.72807	0.09938204	0.1515445	0.02328305	-0.01622415	-2.839703	1.977916	0	0
10.74458	0.09932993	0.1515808	-0.003155499	0.002199014	-0.7939182	0.5532258	0	0
10.76451	0.09927781	0.1515808	-0.002615884	0	0.01480952	-0.06035107	0	0
10.78107	0.09925175	0.1515626	-0.001572664	-0.001096412	0.02858887	-0.03004656	0	0
10.79764	0.09917358	0.1516171	-0.004719162	0.003288527	-0.09496424	0.1323415	0	0
10.81421	0.0990954	0.1515989	-0.004718712	-0.001095576	1.357664E-05	-0.1323201	0	0
10.83077	0.09904329	0.1515989	-0.003145958	0	0.04746854	0.03306645	0	0
10.84734	0.09901723	0.1515808	-0.001572664	-0.001096412	0.04748349	-0.03309074	0	0
10.86391	0.09896511	0.1515445	-0.003146408	-0.002192051	-0.04749706	-0.03306741	0	0
10.88047	0.09883481	0.1514537	-0.00786512	-0.005480578	-0.1424192	-0.09925365	0	0
10.89704	0.09865239	0.1513266	-0.01101153	-0.007673529	-0.09496425	-0.0661872	0	0
10.91361	0.09833966	0.1511087	-0.01887755	-0.01315321	-0.2374106	-0.1653865	0	0
10.93021	0.09815722	0.1509815	-0.01098694	-0.00765546	0.2378718	0.1657363	0	0
10.94674	0.0981051	0.1509452	-0.00315367	-0.002198012	0.2364155	0.1647108	0	0
10.96331	0.09805297	0.1509089	-0.003146408	-0.002192051	0.0002194254	0.000180119	0	0
10.97987	0.09805297	0.1509089	0	0	0.09496424	0.06616005	0	0
10.99644	0.09797478	0.1508544	-0.00471979	-0.003288337	-0.1424476	-0.09924508	0	0
11.04614	0.09787052	0.1508181	-0.002097675	-0.0007309556	0.03956836	0.03859153	0	0
11.0627	0.09784445	0.1508362	-0.001573835	0.001096602	0.007905214	0.02757948	0	0
11.07931	0.09784445	0.1508362	0	0	0.04744108	-0.03305555	0	0
11.09584	0.09781839	0.1508181	-0.00157729	-0.001099323	-0.04760407	-0.0331786	0	0
11.1124	0.09776626	0.1507818	-0.003146857	-0.002192051	-0.04743381	-0.03302327	0	0
11.12898	0.097662	0.1507091	-0.006290006	-0.004383631	-0.09484132	-0.06612867	0	0
11.14554	0.09750561	0.1506002	-0.009444922	-0.006580084	-0.09521829	-0.066291	0	0
11.1621	0.0973492	0.1504912	-0.009440479	-0.006577575	0.000134135	7.575494E-05	0	0
11.17867	0.09664534	0.1500371	-0.04248775	-0.02740919	-0.9973973	-0.6287175	0	0
11.1954	0.0960196	0.1496375	-0.0374142	-0.02389323	0.1524006	0.1056132	0	0
11.21191	0.09487223	0.1492015	-0.06948365	-0.02640142	-0.9648585	-0.07546274	0	0
11.22842	0.09461142	0.1493469	-0.01579329	0.008800567	1.625666	1.065865	0	0
11.24494	0.09445494	0.1492742	-0.009474878	-0.004400227	0.1912956	-0.3996661	0	0
11.26194	0.09424628	0.1492742	-0.01227059	0	-0.08340253	0.1312689	0	0
11.27807	0.09408978	0.1493105	-0.009702114	0.002253126	0.0775145	0.06799752	0	0
11.29464	0.09401153	0.1492924	-0.004723481	-0.001096539	0.1522715	-0.1024495	0	0
11.31121	0.09380285	0.1494014	-0.01259497	0.006578095	-0.237569	0.2316276	0	0
11.32799	0.09307242	0.14991	-0.0435129	0.0302984	-0.9269419	0.7111521	0	0
11.34434	0.09182003	0.1507818	-0.07661765	0.05333376	-0.9991609	0.6952484	0	0
11.3609	0.09035854	0.1517987	-0.08822593	0.06138817	-0.3527141	0.2447308	0	0
11.37747	0.08853114	0.1530696	-0.110296	0.07670667	-0.6660942	0.4623266	0	0
11.39404	0.08853114	0.1530696	0	0	3.328739	-2.315012	0	0
11.41061	0.08853114	0.1530696	0	0	0	0	0	0
11.42717	0.08850502	0.1530514	-0.001576352	-0.001095576	-0.04757714	-0.03306645	0	0
11.44374	0.08853114	0.1530333	0.001576352	-0.001095576	0.09515429	0	0	0
11.46058	0.08853114	0.1530333	0	0	-0.04718195	0.03279179	0	0
11.47687	0.08853114	0.1530333	0	0	0	0	0	0
11.49361	0.08853114	0.1530333	0	0	0	0	0	0
11.51012	0.08853114	0.1530333	0	0	0	0	0	0
11.52657	0.08853114	0.1530333	0	0	0	0	0	0
11.58175	0.08840058	0.1529425	-0.00236607	-0.001645163	-0.03303117	-0.02296706	0	0
11.59832	0.08834836	0.1529062	-0.003152073	-0.002191026	-0.01095538	-0.007608277	0	0
11.61489	0.08834836	0.1529062	0	0	0.09512428	0.06612148	0	0
11.63145	0.08832225	0.152888	-0.001575993	-0.001096539	-0.04756357	-0.0330936	0	0
11.64802	0.08832225	0.152888	0	0	0.04756767	0.03309646	0	0
11.66458	0.08832225	0.152888	0	0	0	0	0	0
11.68358	0.08824392	0.1528699	-0.004123732	-0.000955432	-0.1159573	-0.02686627	0	0
11.70025	0.08824392	0.1528699	0	0	0.1156162	0.02678725	0	0
11.71676	0.0881917	0.1528336	-0.003162267	-0.002199014	-0.09529204	-0.06626529	0	0
11.73328	0.08811336	0.1527791	-0.004742804	-0.003297498	-0.04785082	-0.03325666	0	0
11.74985	0.08806113	0.1527428	-0.003152704	-0.002191152	0.048064	0.03344158	0	0
11.76641	0.08748663	0.1523434	-0.03467885	-0.02411077	-0.9515156	-0.6615734	0	0
11.78298	0.08495294	0.150691	-0.152943	-0.09974598	-3.569426	-2.282807	0	0
11.79955	0.0828886	0.149474	-0.1246038	-0.07345423	0.8553042	0.7935094	0	0
11.88238	0.02759825	0.1380548	-0.667497	-0.13786	-5.461726	-0.6479482	0	0
11.89895	0.02296964	0.1381276	-0.2793835	0.004394643	3.90458	1.43114	0	0
11.91551	0.02273292	0.1382914	-0.01428926	0.009888967	8.000789	0.1658238	0	0
11.93242	0.02031299	0.1399657	-0.1431744	0.09905913	-3.850969	2.664321	0	0
11.94865	0.01886618	0.1409664	-0.08913059	0.06164719	1.631047	-1.129095	0	0
11.96521	0.01828744	0.1413666	-0.03493733	0.02416073	1.652344	-1.142956	0	0
11.98178	0.01826113	0.1413848	-0.001588046	0.001097375	1.00657	-0.6961135	0	0
11.99846	0.01831374	0.1414212	0.003153828	0.00218123	0.1426175	0.03259821	0	0
12.01497	0.01836636	0.1414575	0.003186434	0.002202878	0.000982265	0.0006521593	0	0
12.03148	0.01839266	0.1414757	0.001593734	0.001102208	-0.04823578	-0.03333436	0	0
12.04805	0.01841897	0.1414939	0.001588024	0.001098338	-0.0001726317	-0.0001170367	0	0
12.06461	0.01841897	0.1414939	0	0	-0.04793081	-0.03315076	0	0
12.08118	0.01841897	0.1414939	0	0	0	0	0	0
12.09774	0.01841897	0.1414939	0	0	0	0	0	0
12.11431	0.01841897	0.1414939	0	0	0	0	0	0
12.13088	0.01841897	0.1414939	0	0	0	0	0	0
12.14744	0.01841897	0.1414939	0	0	0	0	0	0
12.16401	0.01841897	0.1414939	0	0	0	0	0	0
12.18058	0.01841897	0.1414939	0	0	0	0	0	0
12.19714	0.01841897	0.1414939	0	0	0	0	0	0
12.21371	0.01841897	0.1414939	0	0	0	0	0	0
12.23063	0.01844528	0.1414757	0.001555342	-0.001075733	0.04645362	-0.03212908	0	0
12.24684	0.01844528	0.1414757	0	0	-0.04694301	0.03246756	0	0
12.26341	0.01841897	0.1414939	-0.001587933	0.001098274	-0.04843413	0.03349887	0	0
12.28611	0.01841897	0.1414939	0	0	0.0404457	-0.02797377	0	0
12.30267	0.01844528	0.1414757	0.001587842	-0.001098211	0.04044239	-0.02797148	0	0
12.31924	0.01844528	0.1414757	0	0	-0.04792115	0.03314408	0	0
12.33581	0.01844528	0.1414757	0	0	0	0	0	0
12.35237	0.01844528	0.1414757	0	0	0	0	0	0
12.36894	0.01844528	0.1414757	0	0	0	0	0	0
12.3855	0.01844528	0.1414757	0	0	0	0	0	0
12.40207	0.01844528	0.1414757	0	0	0	0	0	0
12.41864	0.01844528	0.1414757	0	0	0	0	0	0
12.43527	0.01844528	0.1414757	0	0	0	0	0	0
12.45177	0.01844528	0.1414757	0	0	0	0	0	0
12.46834	0.01844528	0.1414757	0	0	0	0	0	0
12.4849	0.01844528	0.1414757	0	0	0	0	0	0
12.61744	0.01847158	0.1414575	0.0001985028	-0.0001372823	0.001331354	-0.0009207499	0	0
12.634	0.01847158	0.1414575	0	0	-0.001331354	0.0009207499	0	0
12.65316	0.01847158	0.1414575	0	0	0	0	0	0
12.66972	0.01847158	0.1414575	0	0	0	0	0	0
12.68629	0.01847158	0.1414575	0	0	0	0	0	0
12.70286	0.01847158	0.1414575	0	0	0	0	0	0
12.71946	0.01847158	0.1414575	0	0	0	0	0	0
12.73599	0.01847158	0.1414575	0	0	0	0	0	0
12.75256	0.01847158	0.1414575	0	0	0	0	0	0
12.7695	0.01847158	0.1414575	0	0	0	0	0	0
12.78569	0.01847158	0.1414575	0	0	0	0	0	0
12.80226	0.01847158	0.1414575	0	0	0	0	0	0
12.81885	0.01847158	0.1414575	0	0	0	0	0	0
12.83539	0.01849789	0.1414394	0.001590497	-0.001099147	0.04800129	-0.03317231	0	0
12.85206	0.01849789	0.1414394	0	0	-0.04789789	0.03310086	0	0
12.86852	0.01849789	0.1414394	0	0	0	0	0	0
12.88509	0.01849789	0.1414394	0	0	0	0	0	0
12.90166	0.0185242	0.1414212	0.001587842	-0.001098211	0.04792254	-0.03314503	0	0
12.91822	0.0185242	0.1414212	0	0	-0.04792254	0.03314503	0	0
12.93479	0.0185242	0.1414212	0	0	0	0	0	0
12.95136	0.0185242	0.1414212	0	0	0	0	0	0
12.96792	0.0185242	0.1414212	0	0	0	0	0	0
12.98449	0.0185242	0.1414212	0	0	0	0	0	0
13.00106	0.0185242	0.1414212	0	0	0	0	0	0
13.01762	0.01849789	0.141403	-0.001587933	-0.001098274	-0.04792667	-0.03314789	0	0
13.03419	0.01849789	0.141403	0	0	0.04792667	0.03314789	0	0
13.05076	0.01849789	0.141403	0	0	0	0	0	0
13.06771	0.0185242	0.1413848	0.001551405	-0.00107301	0.04627937	-0.03200856	0	0
13.08389	0.0185242	0.1413848	0	0	-0.04682285	0.03238445	0	0
13.10073	0.0185242	0.1413848	0	0	0	0	0	0
13.11702	0.0185505	0.1413666	0.001615102	-0.001116071	0.04874527	-0.03368407	0	0
13.13359	0.0185505	0.1413666	0	0	-0.04915842	0.03396957	0	0
13.15016	0.01857681	0.1413484	0.001587933	-0.001098274	0.04792667	-0.03314789	0	0
13.16672	0.01857681	0.1413484	0	0	-0.04792667	0.03314789	0	0
13.18329	0.01857681	0.1413484	0	0	0	0	0	0
13.19985	0.01857681	0.1413484	0	0	0	0	0	0
13.21642	0.01857681	0.1413484	0	0	0	0	0	0
13.23299	0.01857681	0.1413484	0	0	0	0	0	0
13.24955	0.01857681	0.1413484	0	0	0	0	0	0
13.26612	0.01857681	0.1413484	0	0	0	0	0	0
13.34896	0.01860312	0.1413302	0.0003175756	-0.0002196473	0.003194879	-0.002209699	0	0
13.36552	0.01860312	0.1413302	0	0	-0.003194909	0.00220972	0	0
13.38209	0.01860312	0.1413302	0	0	0	0	0	0
13.39865	0.01860312	0.1413302	0	0	0	0	0	0
13.41523	0.01860312	0.1413302	0	0	0	0	0	0
13.43179	0.01860312	0.1413302	0	0	0	0	0	0
13.44835	0.01860312	0.1413302	0	0	0	0	0	0
13.46492	0.01860312	0.1413302	0	0	0	0	0	0
13.48149	0.01860312	0.1413302	0	0	0	0	0	0
13.49805	0.01860312	0.1413302	0	0	0	0	0	0
13.51462	0.01860312	0.1413302	0	0	0	0	0	0
13.53119	0.01860312	0.1413302	0	0	0	0	0	0
13.54775	0.01860312	0.1413302	0	0	0	0	0	0
13.56776	0.01860312	0.1413302	0	0	0	0	0	0
13.58433	0.01860312	0.1413302	0	0	0	0	0	0
13.60089	0.01860312	0.1413302	0	0	0	0	0	0
13.6176	0.01860312	0.1413302	0	0	0	0	0	0
13.63403	0.01860312	0.1413302	0	0	0	0	0	0
13.6506	0.01860312	0.1413302	0	0	0	0	0	0
13.66716	0.01860312	0.1413302	0	0	0	0	0	0
13.68373	0.01860312	0.1413302	0	0	0	0	0	0
13.7003	0.01860312	0.1413302	0	0	0	0	0	0
13.71686	0.01860312	0.1413302	0	0	0	0	0	0
13.73343	0.01860312	0.1413302	0	0	0	0	0	0
13.74999	0.01860312	0.1413302	0	0	0	0	0	0
13.76656	0.01860312	0.1413302	0	0	0	0	0	0
13.78313	0.01860312	0.1413302	0	0	0	0	0	0
13.79972	0.01860312	0.1413302	0	0	0	0	0	0
13.81626	0.01860312	0.1413302	0	0	0	0	0	0
13.83283	0.01860312	0.1413302	0	0	0	0	0	0
13.84976	0.01860312	0.1413302	0	0	0	0	0	0
13.86627	0.01860312	0.1413302	0	0	0	0	0	0
13.88253	0.01860312	0.1413302	0	0	0	0	0	0
13.89909	0.01860312	0.1413302	0	0	0	0	0	0
13.91566	0.01860312	0.1413302	0	0	0	0	0	0
13.93223	0.01860312	0.1413302	0	0	0	0	0	0
13.94879	0.01860312	0.1413302	0	0	0	0	0	0
13.96536	0.01860312	0.1413302	0	0	0	0	0	0
13.98193	0.01860312	0.1413302	0	0	0	0	0	0
13.99849	0.01860312	0.1413302	0	0	0	0	0	0
14.01506	0.01860312	0.1413302	0	0	0	0	0	0
14.03163	0.01860312	0.1413302	0	0	0	0	0	0
14.04819	0.01860312	0.1413302	0	0	0	0	0	0
14.06476	0.01860312	0.1413302	0	0	0	0	0	0
14.09793	0.01860312	0.1413302	0	0	0	0	0	0
14.11446	0.01860312	0.1413302	0	0	0	0	0	0
14.13103	0.01860312	0.1413302	0	0	0	0	0	0
14.14759	0.01860312	0.1413302	0	0	0	0	0	0
14.16416	0.01860312	0.1413302	0	0	0	0	0	0
14.18073	0.01860312	0.1413302	0	0	0	0	0	0
14.19729	0.01860312	0.1413302	0	0	0	0	0	0
14.21386	0.01860312	0.1413302	0	0	0	0	0	0
14.24699	0.01860312	0.1413302	0	0	0	0	0	0
14.26356	0.01860312	0.1413302	0	0	0	0	0	0
14.28056	0.01860312	0.1413302	0	0	0	0	0	0
14.29669	0.01860312	0.1413302	0	0	0	0	0	0
14.31326	0.01860312	0.1413302	0	0	0	0	0	0
14.32983	0.01860312	0.1413302	0	0	0	0	0	0
14.34661	0.01860312	0.1413302	0	0	0	0	0	0
14.39609	0.01860312	0.1413302	0	0	0	0	0	0
14.42922	0.01860312	0.1413302	0	0	0	0	0	0
14.44944	0.01860312	0.1413302	0	0	0	0	0	0
14.46601	0.01860312	0.1413302	0	0	0	0	0	0
14.48258	0.01860312	0.1413302	0	0	0	0	0	0
14.49915	0.01860312	0.1413302	0	0	0	0	0	0
14.51571	0.01860312	0.1413302	0	0	0	0	0	0
14.53228	0.01862942	0.141312	0.001588046	-0.001098274	0.04793007	-0.03314789	0	0
14.54885	0.01862942	0.141312	0	0	-0.04793007	0.03314789	0	0
14.56541	0.01862942	0.141312	0	0	0	0	0	0
14.58198	0.01862942	0.141312	0	0	0	0	0	0
14.59855	0.01862942	0.141312	0	0	0	0	0	0
14.6153	0.01862942	0.141312	0	0	0	0	0	0
14.63168	0.01862942	0.141312	0	0	0	0	0	0
14.64832	0.01862942	0.141312	0	0	0	0	0	0
14.66481	0.01862942	0.141312	0	0	0	0	0	0
14.68138	0.01862942	0.141312	0	0	0	0	0	0
14.69835	0.01862942	0.141312	0	0	0	0	0	0
14.71486	0.01865573	0.1412938	0.001593253	-0.001101954	0.04757915	-0.03290753	0	0
14.73108	0.01865573	0.1412938	0	0	-0.04868561	0.03367281	0	0
14.74764	0.01865573	0.1412938	0	0	0	0	0	0
14.79742	0.01865573	0.1412938	0	0	0	0	0	0
14.81393	0.01865573	0.1412938	0	0	0	0	0	0
14.83048	0.01865573	0.1412938	0	0	0	0	0	0
14.84704	0.01865573	0.1412938	0	0	0	0	0	0
14.86361	0.01865573	0.1412938	0	0	0	0	0	0
14.88018	0.01868204	0.1412756	0.001587933	-0.001098274	0.04792667	-0.03314789	0	0
14.89674	0.01868204	0.1412756	0	0	-0.04792667	0.03314789	0	0
14.91331	0.01868204	0.1412756	0	0	0	0	0	0
14.92988	0.01868204	0.1412756	0	0	0	0	0	0
14.94644	0.01868204	0.1412756	0	0	0	0	0	0
14.96301	0.01868204	0.1412756	0	0	0	0	0	0
14.97958	0.01868204	0.1412756	0	0	0	0	0	0
14.99614	0.01868204	0.1412756	0	0	0	0	0	0
15.01271	0.01868204	0.1412756	0	0	0	0	0	0
15.02928	0.01868204	0.1412756	0	0	0	0	0	0
15.04584	0.01868204	0.1412756	0	0	0	0	0	0
15.06241	0.01868204	0.1412756	0	0	0	0	0	0
15.07897	0.01868204	0.1412756	0	0	0	0	0	0
15.09563	0.01862942	0.141312	-0.003158592	0.002184602	-0.09507202	0.0657554	0	0
15.11211	0.01860312	0.1412938	-0.001596686	-0.00110425	0.04713979	-0.09926059	0	0
15.12867	0.0185505	0.1412938	-0.003175866	0	-0.04779181	0.03341866	0	0
15.14524	0.0185242	0.1412756	-0.001588046	-0.001098274	0.04792328	-0.03314789	0	0
15.16181	0.01823482	0.1410755	-0.01746671	-0.01207852	-0.4792328	-0.3313941	0	0
15.27777	-0.05908903	0.08736065	-0.6667758	-0.4631918	-4.899188	-3.403754	0	0
15.29434	-0.07705764	0.07457639	-1.08465	-0.7717042	-3.152983	-2.327814	0	0
15.31091	-0.08568443	0.06844687	-0.5207435	-0.3699993	17.01972	12.12418	0	0
15.32747	-0.1015443	0.05723488	-0.9573575	-0.6767966	-13.17779	-9.259693	0	0
15.34404	-0.1108334	0.05061495	-0.560693	-0.3995793	11.9717	8.366673	0	0
15.36061	-0.1183652	0.04526626	-0.45467	-0.3228849	3.199967	2.314775	0	0
15.37733	-0.123448	0.04162188	-0.3039492	-0.2179302	4.527779	3.15293	0	0
15.39374	-0.1250027	0.04050555	-0.09473655	-0.06802409	6.314233	4.524306	0	0
15.41035	-0.1249768	0.04048694	0.00155945	-0.00112014	2.916039	2.025988	0	0
15.42687	-0.1250027	0.04050555	-0.001568092	0.001126348	-0.09439485	0.06780303	0	0
15.44344	-0.1249768	0.04048694	0.001563669	-0.001123171	0.09465024	-0.06798647	0	0
15.46425	-0.1250027	0.04046834	-0.001244745	-0.0008940896	-0.07513294	0.006128557	0	0
15.48082	-0.1249768	0.04044973	0.001563579	-0.001123106	0.07512861	-0.006126669	0	0
15.49739	-0.1249768	0.04044973	0	0	-0.04718756	0.03389443	0	0
15.51395	-0.1249509	0.04043112	0.001563759	-0.001123235	0.04719571	-0.03390028	0	0
15.53052	-0.1248991	0.0403939	0.003127519	-0.002246695	0.04719707	-0.03390805	0	0
15.54745	-0.1248732	0.04037529	0.00153081	-0.001099252	-0.04767149	0.03425819	0	0
15.56365	-0.1248214	0.04033807	0.003197277	-0.002296807	0.05029696	-0.03614437	0	0
15.59679	-0.1247695	0.04030085	0.001563939	-0.001123315	-0.03310483	0.02378458	0	0
15.61335	-0.1247436	0.04028225	0.001563669	-0.001123171	-5.429511E-06	2.911511E-06	0	0
15.66668	-0.1242254	0.03991004	0.009716833	-0.006979223	0.1166443	-0.08378039	0	0
15.68354	-0.1237331	0.03955641	0.02920594	-0.0209769	0.277668	-0.1994296	0	0
15.69982	-0.1229815	0.03901659	0.04617738	-0.0331657	0.5121991	-0.367859	0	0
15.71657	-0.1222038	0.03845808	0.04643502	-0.03334893	0.007801445	-0.005548369	0	0
15.73295	-0.1222038	0.03845808	0	0	-1.401492	1.006531	0	0
15.74952	-0.1222038	0.03845808	0	0	0	0	0	0
15.76608	-0.1222038	0.03845808	0	0	0	0	0	0
15.78265	-0.1222038	0.03845808	0	0	0	0	0	0
15.79922	-0.1222038	0.03845808	0	0	0	0	0	0
15.81613	-0.1222038	0.03845808	0	0	0	0	0	0
15.83235	-0.1221779	0.03843946	0.001598982	-0.001148235	0.04826016	-0.03465579	0	0
15.84892	-0.1222038	0.03845808	-0.001565018	0.001123845	-0.09651478	0.0693076	0	0
15.86548	-0.1221779	0.03843946	0.001565109	-0.00112391	0.09447014	-0.06783933	0	0
15.88218	-0.1221779	0.03843946	0	0	-0.04705225	0.03378838	0	0
15.89862	-0.1221779	0.03843946	0	0	0	0	0	0
15.91521	-0.1221779	0.03843946	0	0	0	0	0	0
15.93175	-0.1221779	0.03843946	0	0	0	0	0	0
15.94832	-0.1221779	0.03843946	0	0	0	0	0	0
15.96488	-0.1221779	0.03843946	0	0	0	0	0	0
15.98145	-0.1221779	0.03843946	0	0	0	0	0	0
16.04772	-0.1221779	0.03843946	0	0	0	0	0	0
16.09742	-0.1222038	0.03845808	-0.0005216929	0.0003746294	-0.004498566	0.003230436	0	0
16.11399	-0.1222038	0.03845808	0	0	0.007872587	-0.005653332	0	0
16.13055	-0.1222038	0.03845808	0	0	0	0	0	0
16.14712	-0.1222038	0.03845808	0	0	0	0	0	0
16.16369	-0.1222038	0.03845808	0	0	0	0	0	0
16.18025	-0.1222297	0.0384767	-0.001565018	0.001123845	-0.04723507	0.03391967	0	0
16.19691	-0.1222297	0.03851394	0	0.002235882	0.04711032	0.03347462	0	0
16.21339	-0.1223075	0.03856979	-0.004718602	0.003389093	-0.1424077	0.03480399	0	0
16.22995	-0.1224112	0.03864426	-0.006259895	0.004495448	-0.04663982	0.03347851	0	0
16.24652	-0.122489	0.03884905	-0.004694156	0.01236095	0.04725682	0.2373949	0	0
16.26309	-0.1223594	0.03909106	0.007823743	0.01460774	0.377791	0.06780827	0	0
16.27966	-0.1227482	0.03966809	-0.02347033	0.03482953	-0.9444569	0.6102949	0	0
16.29622	-0.1233184	0.04130562	-0.03441916	0.09884193	-0.3304365	1.931898	0	0
16.31279	-0.1245882	0.04292385	-0.07664273	0.09767626	-1.27431	-0.03517986	0	0
16.3295	-0.1264532	0.04508041	-0.1115974	0.1290411	-1.050339	0.9424697	0	0
16.34601	-0.1313447	0.05211794	-0.2962406	0.426209	-5.557507	8.944346	0	0
16.36253	-0.1323016	0.05810557	-0.05794985	0.3626252	7.215719	-1.925392	0	0
16.37906	-0.1289127	0.06489792	0.204979	0.4108385	7.956735	1.45903	0	0
16.41556	-0.111951	0.08552087	0.4646433	0.5649388	4.89585	2.905488	0	0
16.43193	-0.1055016	0.09463865	0.3940528	0.5570847	-1.335129	-0.1485502	0	0
16.44859	-0.1011796	0.1010981	0.259468	0.3877972	-4.075385	-5.126222	0	0
16.46507	-0.09249844	0.1096541	0.5268482	0.5192487	8.069551	3.967214	0	0
16.48163	-0.0777116	0.1227791	0.8925354	0.7922245	11.0664	8.260776	0	0
16.4982	-0.06485628	0.1316619	0.7759492	0.536169	-3.518579	-7.727769	0	0
16.51514	-0.06178967	0.1337208	0.1810571	0.1215627	-17.75559	-12.37465	0	0
16.53165	-0.0471755	0.1433491	0.8849657	0.5830418	21.04293	13.79564	0	0
16.54816	-0.03932182	0.1484567	0.4758015	0.3094351	-12.3914	-8.286086	0	0
16.56446	-0.03246228	0.1530514	0.4206291	0.2817498	-1.681365	-0.8437037	0	0
16.58103	-0.0279401	0.1559916	0.2729594	0.1774686	-4.491848	-3.172046	0	0
16.5976	-0.01839266	0.1620307	0.5762842	0.3645216	9.154361	5.64527	0	0
16.61417	-0.009131325	0.1680095	0.5590155	0.3608797	-0.5211709	-0.1099102	0	0
16.63073	-0.005447315	0.1703632	0.2223673	0.1420704	-10.16006	-6.603679	0	0
16.6473	-0.004026294	0.1711958	0.08577296	0.05025868	-4.122426	-2.770883	0	0
16.66387	-0.003947348	0.1711415	0.004765211	-0.003277544	-2.444819	-1.615726	0	0
16.68044	-0.003921032	0.1711234	0.001588404	-0.001092815	-0.09587624	0.06593528	0	0
16.697	-0.003815771	0.171051	0.006353601	-0.004370359	0.1438139	-0.09891648	0	0
16.71357	-0.003552617	0.17087	0.01588402	-0.01092545	0.2876287	-0.197833	0	0
16.73014	-0.002052629	0.169802	0.09053945	-0.06446616	2.253105	-1.615862	0	0
16.7467	0.002868413	0.1664157	0.2970347	-0.2043977	6.232038	-4.223143	0	0
16.76332	0.00994704	0.1615413	0.4261384	-0.2934446	3.891206	-2.683888	0	0
16.77984	0.01499888	0.1580234	0.305739	-0.2128999	-3.633662	2.430846	0	0
16.7964	0.01991842	0.1545943	0.2969783	-0.2070074	-0.2647622	0.1780807	0	0
16.81297	0.02573116	0.1505457	0.3508579	-0.2443758	1.626183	-1.127846	0	0
16.82954	0.02849229	0.1486384	0.1666619	-0.1151242	-5.559048	3.900822	0	0
16.84611	0.03012246	0.1474028	0.09839772	-0.07457673	-2.060216	1.223725	0	0
16.86267	0.03114782	0.146585	0.06189041	-0.04936194	-1.101793	0.7609838	0	0
16.8794	0.03101637	0.1464215	-0.007858377	-0.009778542	-2.094893	1.188881	0	0
16.89591	0.03041167	0.1459671	-0.0366216	-0.02751837	-0.8653361	-0.5336995	0	0
16.91237	0.03012246	0.1457308	-0.01756998	-0.01435581	0.5778063	0.3992002	0	0
16.96207	0.02933369	0.1451127	-0.01587021	-0.0124353	0.02569099	0.02902731	0	0
16.97864	0.02935998	0.1450946	0.001587055	-0.001097312	0.2634306	0.1710906	0	0
16.99521	0.02935998	0.1450946	0	0	-0.04789465	0.03311503	0	0
17.01178	0.02938627	0.1450764	0.001587237	-0.001097438	0.04790292	-0.03312075	0	0
17.02834	0.02941257	0.1450582	0.001587055	-0.001097312	-5.516389E-06	3.815795E-06	0	0
17.04491	0.02938627	0.14504	-0.001587055	-0.001097312	-0.0957948	0	0	0
17.06148	0.02938627	0.14504	0	0	0.0478974	0.03311693	0	0
17.07804	0.02938627	0.14504	0	0	0	0	0	0
17.09462	0.02938627	0.14504	0	0	0	0	0	0
17.11118	0.02938627	0.14504	0	0	0	0	0	0
17.12775	0.02938627	0.14504	0	0	0	0	0	0
17.14431	0.02935998	0.1450582	-0.001587055	0.001097312	-0.0478974	0.03311693	0	0
17.16088	0.02935998	0.1450582	0	0	0.04790016	-0.03311884	0	0
17.17745	0.02935998	0.1450582	0	0	0	0	0	0
17.19413	0.02935998	0.1450582	0	0	0	0	0	0
17.21064	0.02935998	0.1450582	0	0	0	0	0	0
17.22715	0.02935998	0.1450582	0	0	0	0	0	0
17.24371	0.02935998	0.1450582	0	0	0	0	0	0
17.26028	0.02935998	0.1450582	0	0	0	0	0	0
17.27936	0.02935998	0.1450582	0	0	0	0	0	0
17.29593	0.02935998	0.1450582	0	0	0	0	0	0
17.3125	0.02935998	0.1450582	0	0	0	0	0	0
17.32906	0.02935998	0.1450582	0	0	0	0	0	0
17.34563	0.02935998	0.1450582	0	0	0	0	0	0
17.3622	0.02935998	0.1450582	0	0	0	0	0	0
17.37876	0.02938627	0.14504	0.001587237	-0.001097438	0.04790568	-0.03312266	0	0
17.39533	0.02935998	0.1450218	-0.001587055	-0.001097312	-0.09580584	3.815795E-06	0	0
17.4119	0.02935998	0.1450218	0	0	0.0478974	0.03311693	0	0
17.42846	0.02935998	0.1450218	0	0	0	0	0	0
17.46182	0.02933369	0.1450037	-0.0007882187	-0.0005449854	-0.0157881	-0.01091611	0	0
17.47833	0.02933369	0.1450037	0	0	0.01580562	0.01092822	0	0
17.49485	0.0293074	0.1449855	-0.001592371	-0.001100988	-0.04821884	-0.03333918	0	0
17.5113	0.0293074	0.1449855	0	0	0.04830253	0.03339705	0	0
17.52787	0.0293074	0.1449855	0	0	0	0	0	0
17.54443	0.0293074	0.1449855	0	0	0	0	0	0
17.561	0.0293074	0.1449855	0	0	0	0	0	0
17.57791	0.0293074	0.1449855	0	0	0	0	0	0
17.59414	0.0293074	0.1449855	0	0	0	0	0	0
17.6107	0.0293074	0.1449855	0	0	0	0	0	0
17.62745	0.0293074	0.1449855	0	0	0	0	0	0
17.64396	0.0293074	0.1449855	0	0	0	0	0	0
17.66047	0.0293074	0.1449855	0	0	0	0	0	0
17.67698	0.0293074	0.1449855	0	0	0	0	0	0
17.69353	0.0293074	0.1449855	0	0	0	0	0	0
17.7101	0.0293074	0.1449855	0	0	0	0	0	0
17.72667	0.0293074	0.1449855	0	0	0	0	0	0
17.79306	0.0293074	0.1449855	0	0	0	0	0	0
17.80957	0.0293074	0.1449855	0	0	0	0	0	0
17.82658	0.0293074	0.1449855	0	0	0	0	0	0
17.84263	0.0293074	0.1449855	0	0	0	0	0	0
17.8592	0.0293074	0.1449855	0	0	0	0	0	0
17.87577	0.0293074	0.1449855	0	0	0	0	0	0
17.89263	0.0292811	0.1449673	-0.00155923	-0.001078074	-0.04664417	-0.03225043	0	0
17.9089	0.0292811	0.1449673	0	0	0.04705767	0.03253633	0	0
17.92566	0.0292811	0.1449673	0	0	0	0	0	0
17.94203	0.0292811	0.1449673	0	0	0	0	0	0
17.95868	0.0292811	0.1449673	0	0	0	0	0	0
17.97519	0.0292811	0.1449673	0	0	0	0	0	0
17.99173	0.0292811	0.1449673	0	0	0	0	0	0
18.0083	0.0292811	0.1449673	0	0	0	0	0	0
18.02487	0.0292811	0.1449673	0	0	0	0	0	0
18.04143	0.0292811	0.1449673	0	0	0	0	0	0
18.058	0.0292811	0.1449673	0	0	0	0	0	0
18.07476	0.0292811	0.1449673	0	0	0	0	0	0
18.09127	0.0292811	0.1449673	0	0	0	0	0	0
18.10778	0.0292811	0.1449673	0	0	0	0	0	0
18.12429	0.0292811	0.1449673	0	0	0	0	0	0
18.14083	0.0292811	0.1449673	0	0	0	0	0	0
18.1574	0.0292811	0.1449673	0	0	0	0	0	0
18.17397	0.0293074	0.1449491	0.001587055	-0.001097312	0.0478974	-0.03311693	0	0
18.19054	0.0293074	0.1449491	0	0	-0.0478974	0.03311693	0	0
18.2071	0.0293074	0.1449491	0	0	0	0	0	0
18.22367	0.0293074	0.1449491	0	0	0	0	0	0
18.2436	0.0292811	0.1449309	-0.00131928	-0.0009121686	-0.03614751	-0.0249929	0	0
18.26017	0.0292811	0.1449309	0	0	0.03614751	0.0249929	0	0
18.27674	0.0292811	0.1449309	0	0	0	0	0	0
18.2933	0.0292811	0.1449309	0	0	0	0	0	0
18.31432	0.0292811	0.1449309	0	0	0	0	0	0
18.33094	0.02925481	0.1449491	-0.001581592	0.001093535	-0.0420236	0.02905571	0	0
18.34745	0.02925481	0.1449491	0	0	0.04772979	-0.03300105	0	0
18.36402	0.02925481	0.1449491	0	0	0	0	0	0
18.38058	0.02925481	0.1449491	0	0	0	0	0	0
18.39715	0.02925481	0.1449491	0	0	0	0	0	0
18.41372	0.02925481	0.1449491	0	0	0	0	0	0
18.43028	0.02925481	0.1449491	0	0	0	0	0	0
18.44685	0.02925481	0.1449491	0	0	0	0	0	0
18.46354	0.02925481	0.1449491	0	0	0	0	0	0
18.47998	0.0292811	0.1449309	0.001598464	-0.001105201	0.04824452	-0.03335694	0	0
18.49655	0.0292811	0.1449309	0	0	-0.04841454	0.03347449	0	0
18.51312	0.0292811	0.1449309	0	0	0	0	0	0
18.52969	0.0292811	0.1449309	0	0	0	0	0	0
18.54625	0.0292811	0.1449309	0	0	0	0	0	0
18.66222	0.0292811	0.1449309	0	0	0	0	0	0
18.67879	0.0292811	0.1449309	0	0	0	0	0	0
18.69536	0.0292811	0.1449309	0	0	0	0	0	0
18.71193	0.0292811	0.1449309	0	0	0	0	0	0
18.72849	0.0292811	0.1449309	0	0	0	0	0	0
18.74506	0.0292811	0.1449309	0	0	0	0	0	0
18.76175	0.02925481	0.1449128	-0.001574906	-0.001088912	-0.04734816	-0.03273718	0	0
18.77827	0.02925481	0.1449128	0	0	0.04742702	0.03279171	0	0
18.81133	0.02925481	0.1449128	0	0	0	0	0	0
18.82789	0.02925481	0.1449128	0	0	0	0	0	0
18.84446	0.02925481	0.1449128	0	0	0	0	0	0
18.86103	0.02925481	0.1449128	0	0	0	0	0	0
18.8776	0.02925481	0.1449128	0	0	0	0	0	0
18.89416	0.02925481	0.1449128	0	0	0	0	0	0
18.91086	0.02925481	0.1449128	0	0	0	0	0	0
18.9273	0.02925481	0.1449128	0	0	0	0	0	0
18.94386	0.02925481	0.1449128	0	0	0	0	0	0
18.96043	0.02925481	0.1449128	0	0	0	0	0	0
18.977	0.02925481	0.1449128	0	0	0	0	0	0
18.99357	0.02925481	0.1449128	0	0	0	0	0	0
19.01013	0.02925481	0.1449128	0	0	0	0	0	0
19.0267	0.02925481	0.1449128	0	0	0	0	0	0
19.04326	0.02925481	0.1449128	0	0	0	0	0	0
19.05997	0.02925481	0.1449128	0	0	0	0	0	0
19.0764	0.02925481	0.1449128	0	0	0	0	0	0
19.093	0.02925481	0.1449128	0	0	0	0	0	0
19.10953	0.02925481	0.1449128	0	0	0	0	0	0
19.1261	0.02925481	0.1449128	0	0	0	0	0	0
19.14266	0.02925481	0.1449128	0	0	0	0	0	0
19.16265	0.02925481	0.1449128	0	0	0	0	0	0
19.17922	0.02925481	0.1449128	0	0	0	0	0	0
19.19579	0.02922852	0.1448946	-0.001586872	-0.001097185	-0.04788913	-0.03311121	0	0
19.21236	0.02922852	0.1448946	0	0	0.04789189	0.03311312	0	0
19.24549	0.02922852	0.1448946	0	0	0	0	0	0
19.26211	0.02922852	0.1448946	0	0	0	0	0	0
19.27862	0.02922852	0.1448946	0	0	0	0	0	0
19.29519	0.02922852	0.1448946	0	0	0	0	0	0
19.31176	0.02922852	0.1448946	0	0	0	0	0	0
19.32832	0.02922852	0.1448946	0	0	0	0	0	0
19.34489	0.02925481	0.1448764	0.001587055	-0.001097312	0.0478974	-0.03311693	0	0
19.36146	0.02925481	0.1448764	0	0	-0.04790016	0.03311884	0	0
19.37802	0.02925481	0.1448764	0	0	0	0	0	0
19.41116	0.02925481	0.1448764	0	0	0	0	0	0
19.42772	0.02925481	0.1448764	0	0	0	0	0	0
19.44474	0.02925481	0.1448764	0	0	0	0	0	0
19.46086	0.02925481	0.1448764	0	0	0	0	0	0
19.47742	0.02925481	0.1448764	0	0	0	0	0	0
19.49428	0.02925481	0.1448764	0	0	0	0	0	0
19.52713	0.02925481	0.1448764	0	0	0	0	0	0
19.54381	0.02922852	0.1448582	-0.001575627	-0.00108941	-0.03180787	-0.0219924	0	0
19.56033	0.02922852	0.1448582	0	0	0.04745689	0.03281236	0	0
19.57683	0.02925481	0.14484	0.00159366	-0.001101879	0.04827459	-0.03337773	0	0
19.59339	0.02925481	0.14484	0	0	-0.0481994	0.03332574	0	0
19.60996	0.02925481	0.14484	0	0	0	0	0	0
19.62687	0.02925481	0.14484	0	0	0	0	0	0
19.64338	0.02925481	0.14484	0	0	0	0	0	0
19.65966	0.02925481	0.14484	0	0	0	0	0	0
19.67622	0.02925481	0.14484	0	0	0	0	0	0
19.69279	0.02925481	0.14484	0	0	0	0	0	0
19.75158	0.02925481	0.14484	0	0	0	0	0	0
19.76814	0.02922852	0.1448219	-0.001587055	-0.001097312	-0.02106196	-0.01456253	0	0
19.78471	0.02922852	0.1448219	0	0	0.0478974	0.03311693	0	0
19.80149	0.02922852	0.1448219	0	0	0	0	0	0
19.81784	0.02922852	0.1448219	0	0	0	0	0	0
19.83441	0.02922852	0.1448219	0	0	0	0	0	0
19.85103	0.02922852	0.1448219	0	0	0	0	0	0
19.86754	0.02922852	0.1448219	0	0	0	0	0	0
19.88411	0.02922852	0.1448219	0	0	0	0	0	0
19.90106	0.02925481	0.1448037	0.001550811	-0.001072252	0.04626295	-0.03198685	0	0
19.91724	0.02925481	0.1448037	0	0	-0.04680356	0.03236064	0	0
19.93381	0.02925481	0.1448037	0	0	0	0	0	0
19.95038	0.02925481	0.1448037	0	0	0	0	0	0
19.96711	0.02925481	0.1448037	0	0	0	0	0	0
19.98363	0.02925481	0.1448037	0	0	0	0	0	0
20.00008	0.02925481	0.1448037	0	0	0	0	0	0
20.01665	0.02925481	0.1448037	0	0	0	0	0	0
20.03532	0.02925481	0.1448037	0	0	0	0	0	0
20.05217	0.02925481	0.1448037	0	0	0	0	0	0
20.06868	0.02925481	0.1448037	0	0	0	0	0	0
20.08502	0.02925481	0.1448037	0	0	0	0	0	0
20.10171	0.02925481	0.1448037	0	0	0	0	0	0
20.11822	0.02925481	0.1448037	0	0	0	0	0	0
20.13473	0.02925481	0.1448037	0	0	0	0	0	0
20.15129	0.02925481	0.1448037	0	0	0	0	0	0
20.16786	0.02922852	0.1447855	-0.001587055	-0.001097312	-0.04791395	-0.03312838	0	0
20.18442	0.02922852	0.1447855	0	0	0.0478974	0.03311693	0	0
20.20128	0.02922852	0.1447855	0	0	0	0	0	0
20.21779	0.02922852	0.1447855	0	0	0	0	0	0
20.23412	0.02922852	0.1447855	0	0	0	0	0	0
20.25081	0.02925481	0.1448037	0.001575627	0.00108941	0.0477118	0.03298861	0	0
20.28382	0.02922852	0.1447855	-0.0007964615	-0.0005506846	-0.04772834	-0.03300004	0	0
20.30039	0.02922852	0.1447855	0	0	0.01606429	0.01110708	0	0
20.31696	0.02922852	0.1447855	0	0	0	0	0	0
20.33387	0.02922852	0.1447855	0	0	0	0	0	0
20.35038	0.02922852	0.1447855	0	0	0	0	0	0
20.3669	0.02922852	0.1447855	0	0	0	0	0	0
20.38322	0.02922852	0.1447855	0	0	0	0	0	0
20.39979	0.02922852	0.1447855	0	0	0	0	0	0
20.41643	0.02922852	0.1447855	0	0	0	0	0	0
20.43292	0.02922852	0.1447855	0	0	0	0	0	0
20.44949	0.02922852	0.1447855	0	0	0	0	0	0
20.46606	0.02922852	0.1447855	0	0	0	0	0	0
20.48263	0.02922852	0.1447855	0	0	0	0	0	0
20.49919	0.02922852	0.1447855	0	0	0	0	0	0
20.51576	0.02922852	0.1447855	0	0	0	0	0	0
20.53251	0.02922852	0.1447855	0	0	0	0	0	0
20.54889	0.02922852	0.1447855	0	0	0	0	0	0
20.56546	0.02922852	0.1447855	0	0	0	0	0	0
20.58205	0.02922852	0.1447855	0	0	0	0	0	0
20.59859	0.02922852	0.1447855	0	0	0	0	0	0
20.61516	0.02922852	0.1447855	0	0	0	0	0	0
20.63173	0.02922852	0.1447855	0	0	0	0	0	0
20.64829	0.02922852	0.1447855	0	0	0	0	0	0
20.66486	0.02922852	0.1447855	0	0	0	0	0	0
20.68162	0.02922852	0.1447855	0	0	0	0	0	0
20.69799	0.02922852	0.1447855	0	0	0	0	0	0
20.71456	0.02922852	0.1447855	0	0	0	0	0	0
20.7477	0.02922852	0.1447855	0	0	0	0	0	0
20.78119	0.02925481	0.1447673	0.0007849423	-0.0005427201	0.01178038	-0.00814512	0	0
20.7974	0.02925481	0.1447673	0	0	-0.01579368	0.01091997	0	0
20.81396	0.02925481	0.1447673	0	0	0	0	0	0
20.83053	0.02925481	0.1447673	0	0	0	0	0	0
20.8471	0.02925481	0.1447673	0	0	0	0	0	0
20.86366	0.02925481	0.1447673	0	0	0	0	0	0
20.88026	0.02925481	0.1447673	0	0	0	0	0	0
20.8968	0.02925481	0.1447673	0	0	0	0	0	0
20.91336	0.02941257	0.1446583	0.009523424	-0.006584628	0.2877322	-0.1989421	0	0
20.94893	0.03827078	0.1386008	0.2490617	-0.1703139	4.594872	-3.140689	0	0
20.9655	0.04457572	0.1343038	0.3805668	-0.2593703	2.522466	-1.708236	0	0
20.98234	0.06383421	0.1213914	1.143487	-0.7666788	22.8357	-15.18473	0	0
20.99885	0.07752851	0.1128929	0.8293586	-0.5146905	-9.41808	7.555007	0	0
21.0152	0.09351591	0.1052773	0.9779494	-0.4658473	4.521961	1.486412	0	0
21.03176	0.1212186	0.1001261	1.672328	-0.3109609	21.09725	4.705905	0	0
21.04833	0.1465471	0.1010798	1.528834	0.0575639	-4.330904	11.12274	0	0
21.0649	0.1729392	0.1031149	1.593033	0.1228369	1.937547	1.969942	0	0
21.08146	0.2054542	0.106468	1.962609	0.2023978	11.15381	2.401154	0	0
21.09803	0.2128323	0.1074021	0.445344	0.05638069	-45.79114	-4.406806	0	0
21.16446	0.2765192	0.1136246	0.9586638	0.09366499	6.184562	0.4492074	0	0
21.18086	0.2799255	0.1115757	0.20771	-0.124935	-9.065949	-2.639066	0	0
21.19743	0.2808975	0.1108438	0.0586702	-0.04418029	-4.520932	2.449592	0	0
21.214	0.2808975	0.1108438	0	0	-1.77067	1.333364	0	0
21.23057	0.2808975	0.1108438	0	0	0	0	0	0
21.24713	0.2808975	0.1108438	0	0	0	0	0	0
21.2637	0.2808975	0.1108438	0	0	0	0	0	0
21.28027	0.2808975	0.1108438	0	0	0	0	0	0
21.29683	0.2808975	0.1108438	0	0	0	0	0	0
21.3134	0.280849	0.1108438	-0.002932161	0	-0.08849279	0	0	0
21.33008	0.2808246	0.1108621	-0.001457809	0.00109693	0.04434287	0.03299147	0	0
21.34653	0.2807518	0.110917	-0.004429348	0.003337409	-0.08968637	0.0676217	0	0
21.3631	0.2802901	0.1112646	-0.02786632	0.02098609	-0.7098218	0.5345151	0	0
21.37967	0.2790989	0.1121612	-0.0719027	0.05411501	-1.329021	0.9998328	0	0
21.39624	0.2786611	0.1124905	-0.02642363	0.01987663	1.372561	-1.033316	0	0
21.4128	0.277274	0.1135331	-0.08373273	0.06294078	-1.729692	1.299753	0	0
21.42937	0.2756666	0.1147401	-0.09702574	0.07285341	-0.401207	0.2991811	0	0
21.44594	0.275033	0.1152155	-0.03824581	0.0286947	1.773982	-1.332712	0	0
21.4625	0.2695891	0.1193276	-0.3285945	0.2482056	-8.762741	6.624853	0	0
21.47907	0.2675342	0.1208984	-0.1240322	0.09481493	6.173703	-4.629341	0	0
21.49564	0.2525925	0.1355605	-0.9018841	0.8850044	-23.47562	23.84797	0	0
21.51222	0.2510128	0.1489472	-0.09527241	0.8073756	24.33378	-2.3419	0	0
21.52877	0.2516053	0.1638249	0.03579402	0.8987454	3.955593	2.757546	0	0
21.54534	0.2523211	0.1776361	0.0432017	0.8336458	0.2236546	-1.965502	0	0
21.56191	0.2537764	0.1925013	0.0878425	0.8972619	1.347262	1.919939	0	0
21.57847	0.2546885	0.2009226	0.05505447	0.5083126	-0.9895447	-11.73851	0	0
21.59504	0.2555755	0.2085245	0.05354162	0.4588517	-0.04565795	-1.492733	0	0
21.61161	0.2564375	0.2105229	0.05203057	0.1206206	-0.04560365	-10.20783	0	0
21.62818	0.2564621	0.2105049	0.001485868	-0.001086519	-1.525442	-3.67313	0	0
21.64474	0.2564867	0.2104869	0.001485868	-0.001086519	0	0	0	0
21.66133	0.2565114	0.2104689	0.001484501	-0.001085519	-4.124263E-05	3.015937E-05	0	0
21.67834	0.2564867	0.2104869	-0.001446889	0.001058016	-0.08725403	0.06380319	0	0
21.69444	0.2564867	0.2104869	0	0	0.04368983	-0.03194753	0	0
21.71101	0.2564867	0.2104869	0	0	0	0	0	0
21.72758	0.2564867	0.2105229	0	0.002173037	0	0.06558239	0	0
21.74439	0.2568807	0.2108829	0.02343484	0.02141722	0.7021319	0.5765756	0	0
21.76071	0.2572991	0.2112249	0.02563391	0.02095171	0.0663719	-0.01405022	0	0
21.77728	0.2638345	0.216623	0.3944764	0.3258296	11.21432	9.269533	0	0
21.79392	0.2668732	0.2214064	0.1825566	0.2873732	-6.380691	-1.157883	0	0
21.81041	0.2636137	0.229475	-0.1976757	0.4893309	-11.47543	6.095094	0	0
21.82934	0.2586031	0.2383444	-0.2647683	0.4686673	-1.894537	-0.5834898	0	0
21.84596	0.2550335	0.2415922	-0.2147183	0.1953618	1.407911	-7.6881	0	0
21.86247	0.2487398	0.2462737	-0.3811601	0.2835242	-5.022936	2.660593	0	0
21.87904	0.2470333	0.249053	-0.1030153	0.1677776	8.408949	-3.499282	0	0
21.89561	0.2490364	0.2520467	0.1209085	0.1807003	6.75842	0.3900291	0	0
21.91217	0.2501484	0.2529608	0.0671168	0.055175	-1.623436	-3.78836	0	0
21.97844	0.2501978	0.2528891	0.0007456752	-0.001081634	-0.8012707	-0.6791627	0	0
22.01157	0.2501731	0.2528353	-0.0007456323	-0.001623482	-0.01500316	-0.00545121	0	0
22.02814	0.2501731	0.2527995	0	-0.002162493	0.01500273	-0.01084534	0	0
22.0447	0.2501237	0.2527637	-0.002982529	-0.002164043	-0.09001809	-4.678038E-05	0	0
22.06127	0.250099	0.2527457	-0.001489466	-0.001082921	0.04506075	0.03262833	0	0
22.07784	0.2500743	0.2527278	-0.001491265	-0.001081122	-5.428939E-05	5.428939E-05	0	0
22.09441	0.2500743	0.2527278	0	0	0.04500646	0.03262833	0	0
22.11097	0.2500743	0.2527278	0	0	0	0	0	0
22.12754	0.2500496	0.2527099	-0.001491436	-0.001081246	-0.04501423	-0.03263396	0	0
22.14417	0.2500249	0.252692	-0.00148528	-0.001078575	0.0001854443	8.047552E-05	0	0
22.16067	0.2500002	0.252674	-0.001497298	-0.001085496	-0.0003627116	-0.0002088834	0	0
22.17724	0.2499755	0.2526561	-0.001491265	-0.001082921	0.0001824542	7.787377E-05	0	0
22.19381	0.2499755	0.2526561	0	0	0.04500646	0.03268262	0	0
22.21037	0.2499508	0.2526382	-0.001491265	-0.001081122	-0.04500646	-0.03262833	0	0
22.22694	0.2499508	0.2526382	0	0	0.04500905	0.03263021	0	0
22.24351	0.2499508	0.2526382	0	0	0	0	0	0
22.26007	0.2499508	0.2526382	0	0	0	0	0	0
22.27664	0.2499261	0.2526203	-0.001491265	-0.001081122	-0.04500646	-0.03262833	0	0
22.29321	0.2499261	0.2525844	0	-0.002164043	0.04500646	-0.03268262	0	0
22.3098	0.2499261	0.2525486	0	-0.002161554	0	7.506671E-05	0	0
22.32634	0.2499014	0.2525307	-0.001493156	-0.001082493	-0.04506612	0.03256801	0	0
22.34291	0.2499014	0.2525307	0	0	0.04509208	0.03269039	0	0
22.35983	0.2498766	0.2525127	-0.001460165	-0.001060337	-0.04360352	-0.03166384	0	0
22.37605	0.2497531	0.2524231	-0.007618612	-0.005526273	-0.1858516	-0.1347744	0	0
22.39261	0.2493825	0.2521543	-0.02237514	-0.01622949	-0.4501468	-0.3265007	0	0
22.40918	0.2472313	0.2505948	-0.1298462	-0.09413136	-3.243668	-2.351218	0	0
22.42588	0.2458206	0.2496088	-0.08445743	-0.05903134	1.364259	1.055009	0	0
22.44239	0.2453997	0.2493399	-0.02549532	-0.01628838	1.77529	1.286948	0	0
22.45888	0.2428723	0.2475827	-0.1532937	-0.106575	-3.873013	-2.736197	0	0
22.47544	0.2375595	0.2437449	-0.3206813	-0.2316551	-5.064012	-3.784073	0	0
22.49201	0.2296645	0.238129	-0.4765445	-0.3389713	-4.703961	-3.238809	0	0
22.50858	0.2238178	0.2340005	-0.3529063	-0.2492022	3.73141	2.709236	0	0
22.52515	0.2179053	0.2297983	-0.3568764	-0.2536409	-0.1198184	-0.1339606	0	0
22.54171	0.2097127	0.223941	-0.494509	-0.3535511	-4.153759	-3.015297	0	0
22.55847	0.2022239	0.2187812	-0.446832	-0.3078625	1.430577	1.370917	0	0
22.57499	0.1905543	0.2113869	-0.7066514	-0.4477687	-7.808553	-4.20471	0	0
22.5915	0.1812519	0.2062015	-0.5633781	-0.3140387	4.338231	4.049266	0	0
22.60798	0.1752111	0.2024724	-0.3664797	-0.2262325	5.967483	2.661177	0	0
22.62455	0.1647817	0.1955139	-0.6295215	-0.4200195	-7.958776	-5.863352	0	0
22.64154	0.1574747	0.1906607	-0.4300076	-0.2856074	5.945027	4.005151	0	0
22.65768	0.1460835	0.1859486	-0.7057784	-0.2919467	-8.323259	-0.1913309	0	0
22.67425	0.1345764	0.1859125	-0.6945696	-0.002180233	0.3427022	8.859406	0	0
22.72777	0.09406369	0.1855874	-0.7569607	-0.006074038	-0.8901896	-0.0555564	0	0
22.74434	0.08717325	0.1834921	-0.4159081	-0.126476	4.866101	-1.717882	0	0
22.84374	0.06839316	0.1779616	-0.1889353	-0.05563899	1.957223	0.6108385	0	0
22.8603	0.06839316	0.1779616	0	0	1.629218	0.4797838	0	0
22.87687	0.06839316	0.1779616	0	0	0	0	0	0
22.89344	0.06839316	0.1779616	0	0	0	0	0	0
22.91	0.06839316	0.1779616	0	0	0	0	0	0
22.92657	0.06839316	0.1779616	0	0	0	0	0	0
22.94314	0.06841935	0.1779435	0.001580759	-0.001091016	0.04771014	-0.03292882	0	0
22.95976	0.06841935	0.1779435	0	0	-0.04763062	0.03287394	0	0
22.97627	0.06844555	0.1779254	0.001586505	-0.001095573	0.04788357	-0.03306636	0	0
22.99284	0.06844555	0.1779254	0	0	-0.04795259	0.03311402	0	0
23.00941	0.06844555	0.1779254	0	0	0	0	0	0
23.02597	0.06844555	0.1779254	0	0	0	0	0	0
23.04254	0.06844555	0.1779254	0	0	0	0	0	0
23.0591	0.06844555	0.1779254	0	0	0	0	0	0
23.07567	0.06841935	0.1779073	-0.00158139	-0.001091141	-0.04772645	-0.03293071	0	0
23.09235	0.06844555	0.1778893	0.001570361	-0.001083531	0.09479808	0.000228902	0	0
23.10881	0.06844555	0.1778893	0	0	-0.04738813	0.03269727	0	0
23.12537	0.06847174	0.1779073	0.001581123	0.001091267	0.04788376	0.03304865	0	0
23.14194	0.06847174	0.1779073	0	0	-0.04772662	-0.03294019	0	0
23.1585	0.06849793	0.1778893	0.001581208	-0.001091016	0.04772371	-0.03292882	0	0
23.17507	0.06849793	0.1778893	0	0	-0.04772096	0.03292692	0	0
23.19193	0.06852412	0.1778712	0.001553924	-0.001073379	0.04649603	-0.03211732	0	0
23.20821	0.06852412	0.1778712	0	0	-0.04689751	0.03239464	0	0
23.22477	0.06852412	0.1778712	0	0	0	0	0	0
23.24134	0.06852412	0.1778712	0	0	0	0	0	0
23.25797	0.06855032	0.1778531	0.001575043	-0.001086762	0.04744204	-0.03273446	0	0
23.27447	0.06855032	0.1778531	0	0	-0.04753489	0.03279853	0	0
23.29104	0.06857651	0.177835	0.001580759	-0.001091915	0.04780094	-0.03301869	0	0
23.32417	0.06862889	0.1777989	0.001580983	-0.001091016	4.522944E-06	1.809646E-05	0	0
23.34074	0.06862889	0.1777989	0	0	-0.03181067	0.02195212	0	0
23.35754	0.06865509	0.1777446	0.001558953	-0.003228753	0.04671851	-0.09675886	0	0
23.37388	0.06868128	0.1777265	0.001603465	-0.001106687	0.001343293	0.06404038	0	0
23.39044	0.06873366	0.1776904	0.003162331	-0.002183182	0.04738491	-0.03272225	0	0
23.40708	0.06873366	0.1776904	0	0	-0.09524196	0.06575231	0	0
23.42357	0.06873366	0.1776904	0	0	0	0	0	0
23.44014	0.06875985	0.1776723	0.001580759	-0.001091915	0.04781197	-0.03302631	0	0
23.45671	0.06875985	0.1776723	0	0	-0.04771014	0.03295596	0	0
23.47363	0.06875985	0.1776723	0	0	0	0	0	0
23.48984	0.06875985	0.1776723	0	0	0	0	0	0
23.50665	0.06875985	0.1776723	0	0	0	0	0	0
23.52297	0.06875985	0.1776723	0	0	0	0	0	0
23.53954	0.06875985	0.1776723	0	0	0	0	0	0
23.55618	0.06875985	0.1776361	0	-0.002172278	0	-0.06541263	0	0
23.5727	0.06875985	0.1776361	0	0	0	0.06551046	0	0
23.58924	0.06875985	0.1776361	0	0	0	0	0	0
23.62237	0.06878604	0.177618	0.0007903793	-0.0005459576	0.01591101	-0.01099059	0	0
23.63894	0.06878604	0.177618	0	0	-0.01590307	0.01098511	0	0
23.65957	0.06875985	0.1776	-0.001269342	-0.0008760805	-0.03412474	-0.02355238	0	0
23.67614	0.06875985	0.1776	0	0	0.03412299	0.02355117	0	0
23.69278	0.06878604	0.1775819	0.001573873	-0.001087159	0.04739591	-0.03273891	0	0
23.70929	0.06875985	0.1775638	-0.001585871	-0.001094544	-0.0953064	-0.0002227527	0	0
23.72584	0.06878604	0.1775457	0.001582581	-0.001093174	0.09583367	4.144715E-05	0	0
23.74241	0.06878604	0.1775457	0	0	-0.04778988	0.03301105	0	0
23.75897	0.06878604	0.1775457	0	0	0	0	0	0
23.77584	0.06878604	0.1775457	0	0	0	0	0	0
23.79235	0.06878604	0.1775457	0	0	0	0	0	0
23.84647	0.06878604	0.1775095	0	-0.0006682504	0	-0.009461401	0	0
23.86304	0.06878604	0.1775095	0	0	0	0.009453742	0	0
23.8796	0.06878604	0.1775095	0	0	0	0	0	0
23.89617	0.06878604	0.1775095	0	0	0	0	0	0
23.91274	0.06878604	0.1775095	0	0	0	0	0	0
23.92931	0.06878604	0.1775095	0	0	0	0	0	0
23.94587	0.06878604	0.1775095	0	0	0	0	0	0
23.96244	0.06878604	0.1775095	0	0	0	0	0	0
23.97901	0.06878604	0.1775095	0	0	0	0	0	0
23.99557	0.06878604	0.1775095	0	0	0	0	0	0
24.01214	0.06878604	0.1775095	0	0	0	0	0	0
24.02871	0.06878604	0.1775095	0	0	0	0	0	0
24.04527	0.06878604	0.1775095	0	0	0	0	0	0
24.06184	0.06878604	0.1775095	0	0	0	0	0	0
24.07841	0.06878604	0.1775095	0	0	0	0	0	0
24.09507	0.06878604	0.1775095	0	0	0	0	0	0
24.11154	0.06878604	0.1775095	0	0	0	0	0	0
24.12811	0.06875985	0.1774915	-0.001580759	-0.001091016	-0.04784233	-0.03302006	0	0
24.14468	0.06875985	0.1774915	0	0	0.04770739	0.03292692	0	0
24.16124	0.06875985	0.1774915	0	0	0	0	0	0
24.17781	0.06875985	0.1774915	0	0	0	0	0	0
24.19438	0.06875985	0.1774915	0	0	0	0	0	0
24.21095	0.06875985	0.1774915	0	0	0	0	0	0
24.22751	0.06875985	0.1774915	0	0	0	0	0	0
24.24418	0.06875985	0.1774915	0	0	0	0	0	0
24.26065	0.06875985	0.1774915	0	0	0	0	0	0
24.32724	0.06875985	0.1774915	0	0	0	0	0	0
24.34375	0.06875985	0.1774915	0	0	0	0	0	0
24.36005	0.06875985	0.1774915	0	0	0	0	0	0
24.37662	0.06875985	0.1774915	0	0	0	0	0	0
24.39318	0.06875985	0.1774915	0	0	0	0	0	0
24.4098	0.06875985	0.1774915	0	0	0	0	0	0
24.42632	0.06875985	0.1774915	0	0	0	0	0	0
24.44332	0.06873366	0.1774734	-0.001539981	-0.001063748	-0.04593465	-0.03172955	0	0
24.45983	0.06873366	0.1774734	0	0	0.04594773	0.03173857	0	0
24.47602	0.06870747	0.1774553	-0.001618474	-0.001116729	-0.04950104	-0.03415515	0	0
24.49259	0.06865509	0.1774191	-0.003161517	-0.002182931	-0.04711151	-0.03255281	0	0
24.50988	0.06862889	0.1774011	-0.001514765	-0.001046032	0.04863248	0.0335753	0	0
24.53067	0.0686027	0.177383	-0.001259676	-0.0008694094	0.006698058	0.004637715	0	0
24.54724	0.0686027	0.177383	0	0	0.03371965	0.02327279	0	0
24.56391	0.06857651	0.1773649	-0.001571259	-0.001085045	-0.04727103	-0.03264336	0	0
24.58037	0.0686027	0.1773468	0.001591469	-0.001098095	0.09545681	-0.0003938948	0	0
24.61695	0.06857651	0.1773287	-0.0007162273	-0.0004945961	-0.04351209	0.01137911	0	0
24.63346	0.06857651	0.1773287	0	0	0.01349152	0.009316667	0	0
24.68299	0.06857651	0.1773287	0	0	0	0	0	0
24.69946	0.06857651	0.1773287	0	0	0	0	0	0
24.71603	0.06857651	0.1773287	0	0	0	0	0	0
24.7326	0.06857651	0.1773287	0	0	0	0	0	0
24.74954	0.06857651	0.1773287	0	0	0	0	0	0
24.76573	0.06857651	0.1773287	0	0	0	0	0	0
24.7823	0.0686027	0.1773106	0.001581208	-0.001091016	0.04827395	-0.03330848	0	0
24.79908	0.0686027	0.1773106	0	0	-0.04741527	0.03271599	0	0
24.81543	0.06862889	0.1772926	0.001601408	-0.001106179	0.04833058	-0.03338454	0	0
24.832	0.06862889	0.1772926	0	0	-0.0486442	0.03360117	0	0
24.84861	0.06865509	0.1772745	0.001576489	-0.00108776	0.04750744	-0.03277959	0	0
24.86513	0.06865509	0.1772745	0	0	-0.04757854	0.03282866	0	0
24.8817	0.06868128	0.1772564	0.001580759	-0.001091915	0.0477789	-0.03300346	0	0
24.89827	0.06868128	0.1772564	0	0	-0.04770739	0.03295407	0	0
24.91483	0.06870747	0.1772383	0.001580759	-0.001091016	0.04770739	-0.03292692	0	0
24.9314	0.06873366	0.1772202	0.001581208	-0.001091915	1.357235E-05	-2.714469E-05	0	0
24.96453	0.06878604	0.1771841	0.001580759	-0.001091465	-9.048231E-06	9.048231E-06	0	0
24.9811	0.06881224	0.177166	0.001581208	-0.001091016	9.048231E-06	9.048231E-06	0	0
24.99767	0.06881224	0.177166	0	0	-0.04772096	0.03292692	0	0
25.01424	0.06883842	0.1771479	0.001580759	-0.001091915	0.04770739	-0.03295407	0	0
25.0308	0.06883842	0.1771479	0	0	-0.04771014	0.03295596	0	0
25.04737	0.06883842	0.1771479	0	0	0	0	0	0
25.06427	0.06883842	0.1771479	0	0	0	0	0	0
25.0805	0.06883842	0.1771479	0	0	0	0	0	0
25.09707	0.06883842	0.1771479	0	0	0	0	0	0
25.11364	0.06886462	0.1771298	0.001581208	-0.001091016	0.04772096	-0.03292692	0	0
25.1302	0.06886462	0.1771298	0	0	-0.04772096	0.03292692	0	0
25.14677	0.06886462	0.1771298	0	0	0	0	0	0
25.16334	0.06886462	0.1771298	0	0	0	0	0	0
25.1799	0.06889081	0.1771117	0.001580941	-0.001092041	0.04771563	-0.03295976	0	0
25.19647	0.06889081	0.1771117	0	0	-0.04771563	0.03295976	0	0
25.21304	0.068917	0.1770937	0.001580759	-0.001091016	0.04770739	-0.03292692	0	0
25.2296	0.06894319	0.1770756	0.001580759	-0.001091915	0	-2.714469E-05	0	0
25.24617	0.06894319	0.1770756	0	0	-0.04770739	0.03295407	0	0
25.26291	0.06894319	0.1770756	0	0	0	0	0	0
25.27931	0.06894319	0.1770756	0	0	0	0	0	0
25.29594	0.06894319	0.1770756	0	0	0	0	0	0
25.31245	0.06894319	0.1770756	0	0	0	0	0	0
25.32901	0.06894319	0.1770756	0	0	0	0	0	0
25.34557	0.06894319	0.1770756	0	0	0	0	0	0
25.36214	0.06894319	0.1770756	0	0	0	0	0	0
25.37871	0.06894319	0.1770756	0	0	0	0	0	0
25.39528	0.068917	0.1770575	-0.001580759	-0.001091915	-0.04770739	-0.03295407	0	0
25.41184	0.068917	0.1770575	0	0	0.04770739	0.03295407	0	0
25.42841	0.06894319	0.1770394	0.001580759	-0.001091016	0.04770739	-0.03292692	0	0
25.44829	0.06894319	0.1770394	0	0	-0.04337081	0.02993388	0	0
25.46486	0.06894319	0.1770394	0	0	0	0	0	0
25.48142	0.06894319	0.1770394	0	0	0	0	0	0
25.49809	0.06894319	0.1770394	0	0	0	0	0	0
25.51456	0.06894319	0.1770394	0	0	0	0	0	0
25.53112	0.06894319	0.1770394	0	0	0	0	0	0
25.56463	0.06894319	0.1770394	0	0	0	0	0	0
25.58082	0.06894319	0.1770394	0	0	0	0	0	0
25.59765	0.06894319	0.1770394	0	0	0	0	0	0
25.61417	0.06894319	0.1770394	0	0	0	0	0	0
25.63068	0.06896938	0.1770213	0.001586688	-0.001095699	0.04804677	-0.03317905	0	0
25.64719	0.06896938	0.1770213	0	0	-0.04804954	0.03318097	0	0
25.66366	0.06896938	0.1770213	0	0	0	0	0	0
25.68023	0.06896938	0.1770213	0	0	0	0	0	0
25.69679	0.06896938	0.1770213	0	0	0	0	0	0
25.71336	0.06896938	0.1770213	0	0	0	0	0	0
25.72993	0.06896938	0.1770213	0	0	0	0	0	0
25.74649	0.06896938	0.1770213	0	0	0	0	0	0
25.76306	0.06896938	0.1770213	0	0	0	0	0	0
25.77963	0.06896938	0.1770213	0	0	0	0	0	0
25.7962	0.06896938	0.1770213	0	0	0	0	0	0
25.81276	0.06896938	0.1770213	0	0	0	0	0	0
25.82933	0.06896938	0.1770213	0	0	0	0	0	0
25.8459	0.06896938	0.1770213	0	0	0	0	0	0
25.87903	0.06899557	0.1770032	0.0007903793	-0.0005455079	0.01590246	-0.01097564	0	0
25.89587	0.06899557	0.1770032	0	0	-0.01581507	0.01091532	0	0
25.91216	0.06899557	0.1770032	0	0	0	0	0	0
25.92873	0.06899557	0.1770032	0	0	0	0	0	0
25.94541	0.06899557	0.1770032	0	0	0	0	0	0
25.96192	0.06899557	0.1770032	0	0	0	0	0	0
25.97843	0.06899557	0.1770032	0	0	0	0	0	0
25.995	0.06899557	0.1770032	0	0	0	0	0	0
26.01157	0.06899557	0.1770032	0	0	0	0	0	0
26.02897	0.06899557	0.1770032	0	0	0	0	0	0
26.0447	0.06899557	0.1770032	0	0	0	0	0	0
26.06127	0.06899557	0.1770032	0	0	0	0	0	0
26.07783	0.06899557	0.1769671	0	-0.002182931	0	-0.06588098	0	0
26.0944	0.06899557	0.1769671	0	0	0	0.06588098	0	0
26.11097	0.06899557	0.1769671	0	0	0	0	0	0
26.12753	0.06899557	0.1769671	0	0	0	0	0	0
26.1441	0.06899557	0.1769671	0	0	0	0	0	0
26.16067	0.06899557	0.1769671	0	0	0	0	0	0
26.17723	0.06899557	0.1769671	0	0	0	0	0	0
26.1938	0.06899557	0.1769671	0	0	0	0	0	0
26.26013	0.06899557	0.1769671	0	0	0	0	0	0
26.27664	0.06899557	0.1769671	0	0	0	0	0	0
26.2932	0.06899557	0.1769671	0	0	0	0	0	0
26.31143	0.06899557	0.1769671	0	0	0	0	0	0
26.328	0.06899557	0.1769671	0	0	0	0	0	0
26.34456	0.06899557	0.1769671	0	0	0	0	0	0
26.36113	0.06899557	0.1769671	0	0	0	0	0	0
26.37772	0.06899557	0.1769671	0	0	0	0	0	0
26.41083	0.06899557	0.1769671	0	0	0	0	0	0
26.4274	0.06899557	0.1769671	0	0	0	0	0	0
26.44397	0.06899557	0.1769671	0	0	0	0	0	0
26.46053	0.06899557	0.1769671	0	0	0	0	0	0
26.4771	0.06899557	0.1769671	0	0	0	0	0	0
26.49367	0.06899557	0.1769671	0	0	0	0	0	0
26.51023	0.06899557	0.1769671	0	0	0	0	0	0
26.54683	0.06899557	0.1769671	0	0	0	0	0	0
26.56338	0.06899557	0.1769671	0	0	0	0	0	0
26.57995	0.06899557	0.1769671	0	0	0	0	0	0
26.59687	0.06899557	0.1769671	0	0	0	0	0	0
26.61308	0.06902176	0.176949	0.001615349	-0.001115809	0.04875134	-0.03367518	0	0
26.62965	0.06902176	0.176949	0	0	-0.04927896	0.03403964	0	0
26.64622	0.06902176	0.176949	0	0	0	0	0	0
26.66292	0.06902176	0.176949	0	0	0	0	0	0
26.67943	0.06902176	0.176949	0	0	0	0	0	0
26.69594	0.06902176	0.176949	0	0	0	0	0	0
26.71249	0.06902176	0.176949	0	0	0	0	0	0
26.72905	0.06902176	0.176949	0	0	0	0	0	0
26.74562	0.06904795	0.1769309	0.001580759	-0.001091915	0.04770739	-0.03295407	0	0
26.76219	0.06904795	0.1769309	0	0	-0.04770739	0.03295407	0	0
26.77876	0.06904795	0.1769309	0	0	0	0	0	0
26.79532	0.06904795	0.1769309	0	0	0	0	0	0
26.81189	0.06904795	0.1769309	0	0	0	0	0	0
26.82854	0.06904795	0.1769309	0	0	0	0	0	0
26.84505	0.06904795	0.1769309	0	0	0	0	0	0
26.86159	0.06904795	0.1769309	0	0	0	0	0	0
26.89472	0.06904795	0.1769309	0	0	0	0	0	0
26.91129	0.06904795	0.1769309	0	0	0	0	0	0
26.92786	0.06904795	0.1769309	0	0	0	0	0	0
26.94442	0.06904795	0.1769309	0	0	0	0	0	0
26.96099	0.06904795	0.1769309	0	0	0	0	0	0
26.97756	0.06904795	0.1769309	0	0	0	0	0	0
26.99413	0.06904795	0.1769309	0	0	0	0	0	0
27.01069	0.06904795	0.1769309	0	0	0	0	0	0
27.04419	0.06904795	0.1769309	0	0	0	0	0	0
27.06039	0.06904795	0.1769309	0	0	0	0	0	0
27.07696	0.06904795	0.1769309	0	0	0	0	0	0
27.09352	0.06904795	0.1769309	0	0	0	0	0	0
27.11009	0.06904795	0.1769309	0	0	0	0	0	0
27.12666	0.06904795	0.1769309	0	0	0	0	0	0
27.14323	0.06904795	0.1769309	0	0	0	0	0	0
27.15979	0.06896938	0.1769851	-0.004742275	0.003274846	-0.1431222	0.09883505	0	0
27.17636	0.06873366	0.1771841	-0.01422818	0.01200657	-0.286285	0.2635239	0	0
27.22835	0.04649279	0.1960369	-0.4278186	0.3626469	-6.033067	5.114811	0	0
27.24492	0.03235712	0.2097308	-0.8532305	0.8265663	-6.205508	6.767218	0	0
27.26185	0.01610387	0.2326	-0.9596154	1.350229	-3.175244	15.62962	0	0
27.27805	0.007868258	0.252208	-0.5084589	1.210583	13.61593	-4.214508	0	0
27.29461	0.002526311	0.2727503	-0.3224778	1.240078	5.676642	0.9002591	0	0
27.31118	-0.0005526315	0.293444	-0.1858453	1.249075	4.123813	0.2715553	0	0
27.32775	-0.003552617	0.3184946	-0.1810795	1.512052	0.1438333	7.936662	0	0
27.34432	-0.004973643	0.3349604	-0.08577333	0.9938821	2.876345	-15.63841	0	0
27.36088	-0.006868313	0.3562826	-0.1143625	1.28701	-0.8628234	8.846618	0	0
27.37745	-0.007578802	0.3665529	-0.04288521	0.6199182	2.157189	-20.13287	0	0
27.39402	-0.009368147	0.3848866	-0.108005	1.106621	-1.96532	14.68872	0	0
27.41059	-0.01078906	0.3972246	-0.08576621	0.7447221	0.6711694	-10.92213	0	0
27.42715	-0.01310451	0.4118274	-0.1397613	0.8814292	-1.629575	4.125827	0	0
27.44372	-0.01568292	0.4196721	-0.1556332	0.4735062	-0.4790148	-12.31114	0	0
27.46029	-0.01868204	0.4246179	-0.1810268	0.29853	-0.7663787	-5.280794	0	0
27.47685	-0.01949753	0.4261415	-0.0492232	0.09196552	3.977839	-6.234127	0	0
27.49352	-0.01944492	0.4260698	0.003156062	-0.004301345	1.575911	-2.896337	0	0
27.51003	-0.01949753	0.4261057	-0.003186689	0.002171543	-0.1911605	0.1950826	0	0
27.52656	-0.01952383	0.4261236	-0.001592241	0.001084117	0.04827059	-0.0329209	0	0
27.54312	-0.01955014	0.4261415	-0.001588024	0.001083045	0.000127443	-3.239821E-05	0	0
27.55969	-0.01960275	0.4261774	-0.003175571	0.002164043	-0.047915	0.03262644	0	0
27.57626	-0.01960275	0.4261774	0	0	0.09583892	-0.06531094	0	0
27.59282	-0.01957645	0.4261594	0.001587912	-0.001083045	0.04792604	-0.03268826	0	0
27.6096	-0.01957645	0.4261594	0	0	-0.04761629	0.032477	0	0
27.62596	-0.01957645	0.4261594	0	0	0	0	0	0
27.64252	-0.01960275	0.4261415	-0.001587729	-0.001081122	-0.04823149	-0.03284195	0	0
27.65914	-0.01957645	0.4261236	0.001582809	-0.001079565	0.09553854	4.691558E-05	0	0
27.67566	-0.01957645	0.4261236	0	0	-0.04776927	0.03258134	0	0
27.69222	-0.01957645	0.4261236	0	0	0	0	0	0
27.75849	-0.01957645	0.4261236	0	0	0	0	0	0
27.77506	-0.01957645	0.4261236	0	0	0	0	0	0
27.79162	-0.01957645	0.4261236	0	0	0	0	0	0
27.80819	-0.01955014	0.4261057	0.001587842	-0.001081122	0.04792392	-0.03263021	0	0
27.82476	-0.01931339	0.4260877	0.01429046	-0.001082921	0.3833658	-5.428939E-05	0	0
27.84132	-0.01807698	0.4265718	0.07463838	0.02921884	1.821409	0.9145616	0	0
27.85789	-0.01442005	0.4281673	0.2207325	0.0963098	4.409382	2.024926	0	0
27.87446	-0.01044699	0.4305163	0.2398147	0.1417853	0.575902	1.372453	0	0
27.93227	0.02883411	0.4503528	0.6794658	0.3431226	5.910961	2.706913	0	0
27.94884	0.03448632	0.4516649	0.3411682	0.07919353	-4.548297	-3.548437	0	0
27.9654	0.04431308	0.4468492	0.593144	-0.2906761	7.604646	-11.16269	0	0
27.98197	0.04759561	0.4446039	0.1981338	-0.1355216	-11.92143	4.682571	0	0
27.99854	0.05155953	0.4418925	0.2392628	-0.1636631	1.241274	-0.8493134	0	0
28.01511	0.05271428	0.4411025	0.06970088	-0.0476827	-5.117388	3.500297	0	0
28.04824	0.0532916	0.4407076	0.01742365	-0.01191932	-1.05182	0.7195604	0	0
28.09794	0.0532916	0.4406717	0	-0.0007225468	-0.2103387	0.1351678	0	0
28.11451	0.05326536	0.4406178	-0.001583907	-0.003250561	-0.0239012	-0.03814781	0	0
28.13107	0.05326536	0.440546	0	-0.004333981	0.04780515	-0.03269955	0	0
28.14764	0.05323911	0.4405281	-0.001584131	-0.001082921	-0.04781193	0.09812283	0	0
28.16789	0.05316039	0.4403665	-0.00388712	-0.007978786	-0.06254814	-0.1872886	0	0
28.18452	0.05313415	0.4402409	-0.001578274	-0.007557072	0.06260668	0.01143519	0	0
28.20103	0.05316039	0.440187	0.00158958	-0.003262204	0.09560601	0.1296194	0	0
28.21759	0.05310791	0.4400075	-0.003168178	-0.01083585	-0.1438544	-0.228995	0	0
28.23416	0.05310791	0.4399357	0	-0.004333482	0.0956213	0.1962532	0	0
28.25073	0.05305542	0.4397562	-0.003168038	-0.0108346	-0.09561158	-0.1962043	0	0
28.2673	0.05287173	0.4395229	-0.0110878	-0.01408517	-0.2390188	-0.09810214	0	0
28.28409	0.05268803	0.4393613	-0.01093817	-0.009619889	0.004485119	0.1338455	0	0
28.30043	0.05258306	0.4392177	-0.006424837	-0.008788379	0.1362204	0.02509646	0	0
28.317	0.05245185	0.4390921	-0.007920207	-0.007584043	-0.04544428	0.03659974	0	0
28.33356	0.05226814	0.4389305	-0.01108847	-0.009749885	-0.09561835	-0.06536523	0	0
28.35014	0.05213692	0.4388049	-0.007916787	-0.007580552	0.09569956	0.06545551	0	0
28.3667	0.05182198	0.4385895	-0.01902075	-0.01300793	-0.3351376	-0.1638081	0	0
28.38326	0.05087711	0.4379434	-0.05703256	-0.03899774	-1.147529	-0.7845997	0	0
28.39983	0.0498009	0.4372076	-0.06496041	-0.04441234	-0.239263	-0.1634131	0	0
28.4164	0.04977464	0.4371897	-0.001584581	-0.001082921	1.912686	1.307685	0	0
28.43297	0.04977464	0.4371897	0	0	0.04782	0.03268073	0	0
28.44953	0.04977464	0.4371897	0	0	0	0	0	0
28.46622	0.04977464	0.4371897	0	0	0	0	0	0
28.48273	0.04977464	0.4371897	0	0	0	0	0	0
28.49924	0.04977464	0.4371897	0	0	0	0	0	0
28.5158	0.04977464	0.4371897	0	0	0	0	0	0
28.53277	0.04974839	0.4371718	-0.001546828	-0.00105712	-0.04613888	-0.03153184	0	0
28.54893	0.04974839	0.4371718	0	0	0.04668604	0.03190577	0	0
28.5655	0.04969589	0.4371359	-0.003168938	-0.002165842	-0.09682592	-0.06617663	0	0
28.58206	0.04969589	0.4371359	0	0	0.09563872	0.06536523	0	0
28.59863	0.04966964	0.4371179	-0.001584581	-0.001082921	-0.04782275	-0.03268262	0	0
28.61533	0.04964339	0.4371	-0.001572049	-0.001076294	0.0003767381	0.0001992287	0	0
28.63184	0.04961714	0.4370461	-0.001590073	-0.003260022	-0.0005427712	-0.06576121	0	0
28.64833	0.04964339	0.4370282	0.001591728	-0.001087805	0.09640987	0.06581907	0	0
28.6649	0.04966964	0.4369026	0.001583992	-0.007580499	-0.0002339828	-0.1963681	0	0
28.68146	0.0499059	0.4364899	0.01426548	-0.02492118	0.3827502	-0.5233729	0	0
28.69803	0.05008965	0.4361489	0.01109117	-0.02057729	-0.09581754	0.1311214	0	0
28.7149	0.05153328	0.4349827	0.08559096	-0.06914544	2.22827	-1.452661	0	0
28.73116	0.05630883	0.4316462	0.2935933	-0.2051221	6.277884	-4.10402	0	0
28.74773	0.06391283	0.4257292	0.4589783	-0.3571498	5.037143	-4.630319	0	0
28.7643	0.067031	0.4188301	0.1882133	-0.4164334	-8.171705	-1.789183	0	0
28.78086	0.06634983	0.40805	-0.0411202	-0.6507592	-6.921696	-7.072374	0	0
28.79743	0.06488249	0.3911977	-0.08856925	-1.017212	-1.432098	-11.06019	0	0
28.814	0.06317896	0.3795246	-0.1028249	-0.7045893	-0.4302353	9.434958	0	0
28.83056	0.06021659	0.3659635	-0.1788094	-0.8185496	-2.293219	-3.439329	0	0
28.84713	0.05777773	0.3560505	-0.14721	-0.5983497	0.9536723	6.645648	0	0
28.8637	0.05651869	0.3491213	-0.07599559	-0.4182449	2.149255	5.435575	0	0
28.88027	0.05523324	0.3341033	-0.07759006	-0.9064893	-0.04812139	-14.73524	0	0
28.89703	0.05504959	0.3225132	-0.01095394	-0.691304	1.999114	6.455655	0	0
28.9134	0.05499712	0.306365	-0.003205519	-0.9865179	0.2338479	-8.909573	0	0
28.92997	0.05533818	0.2938015	0.02058674	-0.7583306	0.7223763	6.928184	0	0
28.94656	0.0558891	0.2764008	0.03319639	-1.048502	0.3802317	-8.749835	0	0
29.04593	0.04591507	0.2249833	-0.1003736	-0.5174391	-1.151814	4.579515	0	0
29.0625	0.04452319	0.2239949	-0.08401451	-0.05966318	0.1411042	3.948513	0	0
29.07907	0.04129231	0.2218199	-0.1950164	-0.1312826	-3.350042	-2.161477	0	0
29.09984	0.03753499	0.2192488	-0.180892	-0.123784	0.3782805	0.2008275	0	0
29.11641	0.03719337	0.219015	-0.02062069	-0.01411035	4.292416	2.9373	0	0
29.13297	0.03719337	0.219015	0	0	0.6223337	0.4258512	0	0
29.14954	0.03719337	0.219015	0	0	0	0	0	0
29.16611	0.03721965	0.218997	0.00158638	-0.001085619	0.04787704	-0.03276405	0	0
29.18267	0.03721965	0.218997	0	0	-0.04787704	0.03276405	0	0
29.19924	0.03721965	0.218997	0	0	0	0	0	0
29.21581	0.03721965	0.218997	0	0	0	0	0	0
29.23238	0.03719337	0.219015	-0.00158638	0.001085619	-0.04787704	0.03276405	0	0
29.24894	0.03721965	0.218997	0.001586563	-0.001085744	0.09576512	-0.06553564	0	0
29.26551	0.03721965	0.218997	0	0	-0.04788531	0.03276971	0	0
29.28208	0.03721965	0.218997	0	0	0	0	0	0
29.29881	0.03721965	0.218997	0	0	0	0	0	0
29.31533	0.03721965	0.218997	0	0	0	0	0	0
29.33178	0.03721965	0.218997	0	0	0	0	0	0
29.34835	0.03721965	0.218997	0	0	0	0	0	0
29.36491	0.03721965	0.218997	0	0	0	0	0	0
29.38148	0.03719337	0.218979	-0.00158638	-0.001085619	-0.04788807	-0.03277159	0	0
29.39838	0.03719337	0.218979	0	0	0.04738875	0.03242989	0	0
29.41461	0.03719337	0.218979	0	0	0	0	0	0
29.43141	0.03719337	0.218979	0	0	0	0	0	0
29.44792	0.03719337	0.218979	0	0	0	0	0	0
29.46431	0.03719337	0.218979	0	0	0	0	0	0
29.48088	0.03719337	0.218979	0	0	0	0	0	0
29.49744	0.03721965	0.2189611	0.001586563	-0.001085744	0.04788531	-0.03276971	0	0
29.51401	0.03721965	0.2189611	0	0	-0.04788531	0.03276971	0	0
29.53058	0.03719337	0.218979	-0.00158638	0.001085619	-0.04787704	0.03276405	0	0
29.54749	0.03719337	0.218979	0	0	0.04738066	-0.03242435	0	0
29.56371	0.03719337	0.218979	0	0	0	0	0	0
29.58028	0.03719337	0.218979	0	0	0	0	0	0
29.59703	0.03721965	0.2189611	0.001569039	-0.001073752	0.04709344	-0.0322278	0	0
29.61354	0.03724593	0.2189431	0.001591469	-0.001088353	0.0006743371	-0.0004389848	0	0
29.62998	0.03729848	0.2189071	0.003197341	-0.00218837	0.04873747	-0.03338499	0	0
29.64654	0.03742988	0.2187812	0.007931226	-0.007598434	0.1434304	-0.1639177	0	0
29.66311	0.03811311	0.2182777	0.04124003	-0.03039464	1.005262	-0.6879907	0	0
29.67968	0.04250071	0.2152738	0.2648357	-0.1813173	6.748132	-4.554855	0	0
29.69624	0.04951213	0.2103249	0.4232592	-0.2987505	4.781504	-3.544347	0	0
29.71281	0.05979705	0.203085	0.6207987	-0.4369963	5.962098	-4.172505	0	0
29.72938	0.06223531	0.2013732	0.147174	-0.1033281	-14.29402	10.07013	0	0
29.74613	0.07266133	0.1941971	0.6222942	-0.4283143	14.25872	-9.753082	0	0
29.76265	0.07779007	0.1906607	0.310573	-0.2141526	-9.370008	6.437474	0	0
29.77916	0.07907163	0.1897763	0.07761421	-0.05356124	-7.053856	4.86261	0	0
29.79567	0.07925469	0.1896499	0.01108659	-0.007651864	-2.014534	1.390189	0	0
29.81221	0.07928085	0.1896319	0.001580876	-0.00109085	-0.2875781	0.1984917	0	0
29.82878	0.07928085	0.1896319	0	0	-0.04774666	0.03294656	0	0
29.84535	0.07928085	0.1896319	0	0	0	0	0	0
29.86191	0.07928085	0.1896319	0	0	0	0	0	0
29.87848	0.07928085	0.1896319	0	0	0	0	0	0
29.89763	0.07928085	0.1896319	0	0	0	0	0	0
29.9142	0.07928085	0.1896319	0	0	0	0	0	0
29.93077	0.079307	0.1896138	0.00157851	-0.001090116	0.04763952	-0.03289977	0	0
29.94733	0.079307	0.1896138	0	0	-0.04763952	0.03289977	0	0
29.9639	0.079307	0.1896138	0	0	0	0	0	0
29.98047	0.079307	0.1896138	0	0	0	0	0	0
29.99732	0.079307	0.1896138	0	0	0	0	0	0
30.0136	0.079307	0.1896138	0	0	0	0	0	0
30.03034	0.079307	0.1896138	0	0	0	0	0	0
30.04674	0.079307	0.1896138	0	0	0	0	0	0
30.0633	0.079307	0.1896138	0	0	0	0	0	0
30.07987	0.079307	0.1896138	0	0	0	0	0	0
30.09644	0.079307	0.1896138	0	0	0	0	0	0
30.113	0.079307	0.1896138	0	0	0	0	0	0
30.12991	0.07928085	0.1895958	-0.001546637	-0.001067224	-0.04620154	-0.03188038	0	0
30.14614	0.07928085	0.1895958	0	0	0.0466776	0.03220887	0	0
30.16271	0.07928085	0.1895958	0	0	0	0	0	0
30.17927	0.07928085	0.1895958	0	0	0	0	0	0
30.19584	0.07928085	0.1895958	0	0	0	0	0	0
30.21241	0.07925469	0.1895777	-0.00157851	-0.001089217	-0.04764227	-0.03287452	0	0
30.22898	0.07928085	0.1895597	0.00157742	-0.001089364	0.09521328	-4.435919E-06	0	0
30.24554	0.07925469	0.1895416	-0.001579783	-0.001090095	-0.09529007	-2.207961E-05	0	0
30.26211	0.07928085	0.1895236	0.00157851	-0.001089217	0.09535589	2.652648E-05	0	0
30.27867	0.07928085	0.1895236	0	0	-0.04763952	0.03287263	0	0
30.29524	0.07928085	0.1894875	0	-0.002179333	0	-0.0657724	0	0
30.31181	0.07928085	0.1894875	0	0	0	0.0657724	0	0
30.32837	0.07928085	0.1894514	0	-0.002179333	0	-0.0657724	0	0
30.34494	0.07928085	0.1894153	0	-0.002178434	0	2.714469E-05	0	0
30.36151	0.079307	0.1893611	0.00157851	-0.003269449	0.04763952	-0.03292692	0	0
30.37808	0.079307	0.189325	0	-0.002178434	-0.04763952	0.03292692	0	0
30.39464	0.07899318	0.1890001	-0.01894212	-0.0196131	-0.5716743	-0.5261792	0	0
30.41121	0.07614198	0.186996	-0.1720985	-0.1209642	-4.622269	-3.058783	0	0
30.42813	0.06679522	0.1804744	-0.5524684	-0.3854821	-11.35927	-7.899497	0	0
30.44434	0.05885301	0.1749233	-0.4898256	-0.3423559	1.89067	1.301628	0	0
30.46091	0.05077212	0.1693132	-0.4877634	-0.3386268	0.06290819	0.1137551	0	0
30.47766	0.04034651	0.1621213	-0.6223409	-0.4293068	-4.039003	-2.721532	0	0
30.49417	0.03272516	0.1568625	-0.4615672	-0.3184887	4.83324	3.331458	0	0
30.51061	0.02570486	0.1520166	-0.4271388	-0.2948414	1.044945	0.7177243	0	0
30.5272	0.01818221	0.1468213	-0.4534941	-0.313189	-0.798068	-0.5555863	0	0
30.54374	0.01360442	0.1436582	-0.2766978	-0.1911892	5.33603	3.682174	0	0
30.56031	0.009552341	0.1408572	-0.2445842	-0.1690688	0.9698593	0.6680574	0	0
30.57688	0.007052515	0.1391286	-0.1508898	-0.10434	2.827703	1.953519	0	0
30.59344	0.0070262	0.1391468	-0.001588347	0.001099111	4.505927	3.182157	0	0
30.61002	0.007052515	0.139165	0.001587982	0.001097958	0.09585078	-3.476833E-05	0	0
30.62658	0.007052515	0.139165	0	0	-0.04792539	-0.03313645	0	0
30.64315	0.007052515	0.139165	0	0	0	0	0	0
30.65971	0.007078829	0.1391832	0.001588347	0.001098211	0.04793642	0.03314408	0	0
30.67628	0.007078829	0.1391832	0	0	-0.04793642	-0.03314408	0	0
30.69285	0.007078829	0.1391832	0	0	0	0	0	0
30.71539	0.007078829	0.1391832	0	0	0	0	0	0
30.73235	0.007052515	0.1392014	-0.001552249	0.001073252	-0.03929815	0.02717143	0	0
30.80149	0.007078829	0.1392196	0.00038059	0.0002633621	0.02245036	-0.009407051	0	0
30.81806	0.007078829	0.1392196	0	0	-0.00444051	-0.003072761	0	0
30.83462	0.007105144	0.1392378	0.001588347	0.001098211	0.04793642	0.03314408	0	0
30.85119	0.007105144	0.1392378	0	0	-0.04793642	-0.03314408	0	0
30.86795	0.007105144	0.1392378	0	0	0	0	0	0
30.88446	0.007131458	0.139256	0.001593852	0.001102017	0.04791226	0.03312737	0	0
30.90089	0.007131458	0.139256	0	0	-0.04838386	-0.03345345	0	0
30.91748	0.007131458	0.139256	0	0	0	0	0	0
30.93402	0.007131458	0.139256	0	0	0	0	0	0
30.95059	0.007131458	0.1392924	0	0.002197322	0	0.06636497	0	0
30.96716	0.007236716	0.1393652	0.006353362	0.004393744	0.1917448	0.06628817	0	0
30.98403	0.007289344	0.1394016	0.00311921	0.002156695	-0.09671613	-0.06689813	0	0
31.00029	0.00781563	0.1397655	0.03236281	0.02238007	0.8825735	0.6103427	0	0
31.01686	0.00781563	0.1397655	0	0	-0.9858481	-0.6817502	0	0
31.03342	0.007841945	0.1397837	0.001588347	0.001098211	0.04793918	0.03314599	0	0
31.04999	0.007841945	0.1397837	0	0	-0.04793642	-0.03314408	0	0
31.06656	0.007868258	0.1398019	0.001588291	0.001099111	0.04793473	0.03317122	0	0
31.08312	0.007868258	0.1398019	0	0	-0.04793749	-0.03317313	0	0
31.09969	0.007868258	0.1398019	0	0	0	0	0	0
31.11626	0.007868258	0.1398019	0	0	0	0	0	0
31.13313	0.007868258	0.1398019	0	0	0	0	0	0
31.14939	0.007868258	0.1398019	0	0	0	0	0	0
31.16596	0.007868258	0.1398019	0	0	0	0	0	0
31.18253	0.007868258	0.1398019	0	0	0	0	0	0
31.19909	0.007868258	0.1398019	0	0	0	0	0	0
31.21566	0.007868258	0.1398019	0	0	0	0	0	0
31.23223	0.007868258	0.1398019	0	0	0	0	0	0
31.24879	0.007868258	0.1398019	0	0	0	0	0	0
31.26536	0.007868258	0.1398019	0	0	0	0	0	0
31.28193	0.007868258	0.1398019	0	0	0	0	0	0
31.2985	0.007841945	0.1397837	-0.001588291	-0.001099111	-0.04793473	-0.03317122	0	0
31.31506	0.007841945	0.1397837	0	0	0.04793473	0.03317122	0	0
31.33163	0.007841945	0.1397837	0	0	0	0	0	0
31.34829	0.007841945	0.1397837	0	0	0	0	0	0
31.36477	0.007841945	0.1397837	0	0	0	0	0	0
31.38133	0.007841945	0.1397837	0	0	0	0	0	0
31.3979	0.007841945	0.1397837	0	0	0	0	0	0
31.41446	0.007841945	0.1397837	0	0	0	0	0	0
31.43103	0.007841945	0.1397837	0	0	0	0	0	0
31.4476	0.007841945	0.1397837	0	0	0	0	0	0
31.46417	0.007841945	0.1397837	0	0	0	0	0	0
31.48073	0.007868258	0.1397655	0.001588291	-0.001098211	0.04793473	-0.03314408	0	0
31.4974	0.007868258	0.1397655	0	0	-0.04779167	0.03304517	0	0
31.51387	0.007868258	0.1397655	0	0	0	0	0	0
31.53043	0.007868258	0.1397655	0	0	0	0	0	0
31.547	0.007868258	0.1397655	0	0	0	0	0	0
31.5826	0.007868258	0.1397655	0	0	0	0	0	0
31.59916	0.007868258	0.1397655	0	0	0	0	0	0
31.61573	0.007868258	0.1397655	0	0	0	0	0	0
31.6323	0.007868258	0.1397655	0	0	0	0	0	0
31.64901	0.007868258	0.1397655	0	0	0	0	0	0
31.71513	0.007868258	0.1397655	0	0	0	0	0	0
31.73207	0.007868258	0.1397655	0	0	0	0	0	0
31.74858	0.007868258	0.1397655	0	0	0	0	0	0
31.76483	0.007868258	0.1397655	0	0	0	0	0	0
31.7814	0.007868258	0.1397655	0	0	0	0	0	0
31.79796	0.007868258	0.1397655	0	0	0	0	0	0
31.81463	0.007868258	0.1397655	0	0	0	0	0	0
31.8311	0.007868258	0.1397655	0	0	0	0	0	0
31.84767	0.007868258	0.1397655	0	0	0	0	0	0
31.86423	0.007868258	0.1397655	0	0	0	0	0	0
31.8808	0.007868258	0.1397655	0	0	0	0	0	0
31.89737	0.007868258	0.1397655	0	0	0	0	0	0
31.9142	0.007868258	0.1397655	0	0	0	0	0	0
31.9305	0.007868258	0.1397655	0	0	0	0	0	0
31.94707	0.007868258	0.1397655	0	0	0	0	0	0
31.96374	0.007868258	0.1397655	0	0	0	0	0	0
32.0281	0.007868258	0.1397655	0	0	0	0	0	0
32.04466	0.007868258	0.1397655	0	0	0	0	0	0
32.06131	0.007868258	0.1397655	0	0	0	0	0	0
32.07782	0.007868258	0.1397655	0	0	0	0	0	0
32.09436	0.007868258	0.1397655	0	0	0	0	0	0
32.11093	0.007868258	0.1397655	0	0	0	0	0	0
32.1275	0.007868258	0.1397655	0	0	0	0	0	0
32.14407	0.007868258	0.1397655	0	0	0	0	0	0
32.16088	0.007868258	0.1397655	0	0	0	0	0	0
32.17739	0.007868258	0.1397655	0	0	0	0	0	0
32.19376	0.007868258	0.1397655	0	0	0	0	0	0
32.21041	0.007868258	0.1397655	0	0	0	0	0	0
32.22692	0.007868258	0.1397655	0	0	0	0	0	0
32.24346	0.007868258	0.1397655	0	0	0	0	0	0
32.26044	0.007868258	0.1397655	0	0	0	0	0	0
32.27659	0.007868258	0.1397655	0	0	0	0	0	0
32.29316	0.007868258	0.1397655	0	0	0	0	0	0
32.30973	0.007868258	0.1397655	0	0	0	0	0	0
32.32629	0.007868258	0.1397655	0	0	0	0	0	0
32.34286	0.007868258	0.1397655	0	0	0	0	0	0
32.35952	0.007868258	0.1397655	0	0	0	0	0	0
32.376	0.007868258	0.1397655	0	0	0	0	0	0
32.39256	0.007868258	0.1397655	0	0	0	0	0	0
32.40913	0.007868258	0.1397655	0	0	0	0	0	0
32.4257	0.007868258	0.1397655	0	0	0	0	0	0
32.44226	0.007868258	0.1397655	0	0	0	0	0	0
32.45883	0.007868258	0.1397655	0	0	0	0	0	0
32.4754	0.007868258	0.1397655	0	0	0	0	0	0
32.49515	0.007868258	0.1397655	0	0	0	0	0	0
32.51172	0.007894573	0.1397473	0.001588347	-0.001098211	0.04373236	-0.03023731	0	0
32.52829	0.007894573	0.1397473	0	0	-0.04793642	0.03314408	0	0
32.54485	0.007894573	0.1397473	0	0	0	0	0	0
32.56142	0.007894573	0.1397473	0	0	0	0	0	0
32.57818	0.007894573	0.1397473	0	0	0	0	0	0
32.59469	0.007894573	0.1397473	0	0	0	0	0	0
32.61112	0.007894573	0.1397473	0	0	0	0	0	0
32.62771	0.007894573	0.1397473	0	0	0	0	0	0
32.64425	0.007894573	0.1397473	0	0	0	0	0	0
32.66082	0.007894573	0.1397473	0	0	0	0	0	0
32.67739	0.007894573	0.1397473	0	0	0	0	0	0
32.69395	0.007894573	0.1397473	0	0	0	0	0	0
32.71052	0.007894573	0.1397473	0	0	0	0	0	0
32.72709	0.007894573	0.1397473	0	0	0	0	0	0
32.74366	0.007894573	0.1397473	0	0	0	0	0	0
32.76031	0.007894573	0.1397473	0	0	0	0	0	0
32.77679	0.007894573	0.1397473	0	0	0	0	0	0
32.79335	0.007894573	0.1397473	0	0	0	0	0	0
32.80992	0.007894573	0.1397473	0	0	0	0	0	0
32.82649	0.007894573	0.1397473	0	0	0	0	0	0
32.84306	0.007894573	0.1397473	0	0	0	0	0	0
32.85988	0.007894573	0.1397473	0	0	0	0	0	0
32.87639	0.007894573	0.1397473	0	0	0	0	0	0
32.89276	0.007894573	0.1397473	0	0	0	0	0	0
32.90932	0.007868258	0.1397291	-0.001588347	-0.001098211	-0.04823072	-0.03334756	0	0
32.92589	0.007868258	0.1397291	0	0	0.04793642	0.03314408	0	0
32.94246	0.007868258	0.1397291	0	0	0	0	0	0
32.95903	0.007868258	0.1397291	0	0	0	0	0	0
32.97559	0.007868258	0.1397291	0	0	0	0	0	0
32.99216	0.007868258	0.1397291	0	0	0	0	0	0
33.00873	0.007868258	0.1397291	0	0	0	0	0	0
33.0253	0.007868258	0.1397291	0	0	0	0	0	0
33.04186	0.007868258	0.1397291	0	0	0	0	0	0
33.05843	0.007868258	0.1397291	0	0	0	0	0	0
33.075	0.007868258	0.1397291	0	0	0	0	0	0
33.09158	0.007868258	0.1397291	0	0	0	0	0	0
33.10813	0.007868258	0.1397291	0	0	0	0	0	0
33.12469	0.007868258	0.1397291	0	0	0	0	0	0
33.14126	0.007868258	0.1397291	0	0	0	0	0	0
33.15783	0.007868258	0.1397291	0	0	0	0	0	0
33.1744	0.007868258	0.1397291	0	0	0	0	0	0
33.19096	0.007868258	0.1397291	0	0	0	0	0	0
33.20763	0.007868258	0.1397291	0	0	0	0	0	0
33.22414	0.007868258	0.1397291	0	0	0	0	0	0
33.24067	0.007868258	0.1397291	0	0	0	0	0	0
33.25723	0.007868258	0.1397291	0	0	0	0	0	0
33.2738	0.007868258	0.1397291	0	0	0	0	0	0
33.29037	0.007868258	0.1397291	0	0	0	0	0	0
33.30693	0.007868258	0.1397291	0	0	0	0	0	0
33.3235	0.007868258	0.1397291	0	0	0	0	0	0
33.34023	0.007868258	0.1397291	0	0	0	0	0	0
33.36015	0.007868258	0.1397291	0	0	0	0	0	0
33.37675	0.007868258	0.1397291	0	0	0	0	0	0
33.44299	0.008710306	0.1432945	0.01271311	0.05383012	0.153473	0.6498384	0	0
33.49284	0.02328526	0.1766958	0.2923736	0.6700292	2.4091	5.308168	0	0
33.50926	0.03367148	0.1932951	0.6325939	1.011016	5.133934	5.145505	0	0
33.52583	0.0483045	0.2095688	0.883251	0.9822775	7.598965	-0.8712487	0	0
33.54239	0.06671663	0.2249654	1.111358	0.9293421	6.884286	-1.597594	0	0
33.55896	0.08751275	0.2396365	1.255257	0.8855477	4.342872	-1.321717	0	0
33.57553	0.1142892	0.2580677	1.616232	1.112514	10.89426	6.849857	0	0
33.59241	0.1383474	0.2747367	1.424598	0.9870504	-5.728154	-3.750233	0	0
33.60866	0.1541361	0.2856665	0.9718032	0.6727353	-13.66536	-9.486046	0	0
33.62544	0.1633473	0.2920854	0.5489129	0.3825141	-12.80413	-8.787219	0	0
33.64195	0.178042	0.3023625	0.8900465	0.6224765	10.24706	7.208053	0	0
33.65836	0.189387	0.3103312	0.6913127	0.4855772	-6.036716	-4.158438	0	0
33.67498	0.194408	0.3138683	0.3022316	0.212909	-11.78183	-8.256709	0	0
33.69151	0.2026784	0.3197448	0.5001252	0.3553633	5.969691	4.2973	0	0
33.70807	0.2080002	0.3235133	0.3215189	0.2276752	-5.397808	-3.858965	0	0
33.72463	0.2121534	0.3264601	0.2506917	0.177867	-2.138554	-1.503907	0	0
33.7412	0.2132597	0.3272458	0.06677592	0.04742905	-5.550588	-3.936626	0	0
33.75804	0.2132849	0.327228	0.001492942	-0.001060192	-1.95427	-1.451543	0	0
33.77433	0.21331	0.3272101	0.001542566	-0.001095432	0.001497684	-0.001063558	0	0
33.7909	0.21331	0.3271744	0	-0.002155048	-0.04693843	-0.03224283	0	0
33.80747	0.21331	0.3271744	0	0	0	0.06503949	0	0
33.82409	0.21331	0.3271744	0	0	0	0	0	0
33.8406	0.2132849	0.3271565	-0.001521904	-0.001082564	-0.04593115	-0.03267183	0	0
33.85717	0.2132346	0.3271208	-0.003034697	-0.002155048	-0.04572461	-0.03241617	0	0
33.87374	0.2132095	0.3270673	-0.001516449	-0.003234371	0.04582081	-0.03257403	0	0
33.8903	0.2131843	0.3270494	-0.001517348	-0.001077524	-2.714469E-05	0.06509378	0	0
33.90687	0.2131089	0.3269958	-0.004552045	-0.003234371	-0.09158732	-0.06509378	0	0
33.92344	0.2130838	0.3269422	-0.001517348	-0.003234371	0.09158732	0	0	0
33.94001	0.2129581	0.3268529	-0.007587641	-0.00538942	-0.1832018	-0.06503949	0	0
33.95657	0.2128575	0.3267815	-0.006070293	-0.004311895	0.04579367	0.03251975	0	0
33.97314	0.2128072	0.3267101	-0.003034697	-0.004311895	0.09161446	0	0	0
33.98971	0.2126815	0.3265851	-0.007587641	-0.007544468	-0.1374081	-0.09755924	0	0
34.00628	0.2126563	0.3265315	-0.001518248	-0.003234371	0.1831747	0.130079	0	0
34.02284	0.2125558	0.3264244	-0.006070293	-0.006466944	-0.137381	-0.09755923	0	0
34.03941	0.2124049	0.3261386	-0.009106788	-0.01724758	-0.09164161	-0.3253603	0	0
34.05626	0.2124049	0.3259243	0	-0.01271897	0.2725217	0.1355193	0	0
34.07254	0.2125558	0.3258171	0.009264648	-0.006580874	0.2796076	0.1852481	0	0
34.08911	0.2126061	0.3257457	0.003034697	-0.004311895	-0.1896359	0.06906631	0	0
34.10569	0.2126815	0.3256921	0.004549653	-0.003229598	0.04570043	0.03264876	0	0
34.12225	0.2127066	0.3256743	0.001518747	-0.001080318	-0.09147293	0.0648654	0	0
34.13881	0.2127318	0.3256207	0.001517348	-0.003232572	-4.223321E-05	-0.06498509	0	0
34.15538	0.2127821	0.325585	0.003035596	-0.002156847	0.04582081	0.03246545	0	0
34.17195	0.2128323	0.3255493	0.003034697	-0.002155048	-2.714469E-05	5.428939E-05	0	0
34.18851	0.2128575	0.3255314	0.001517348	-0.001079323	-0.04579366	0.03246545	0	0
34.32106	0.214064	0.3247099	0.009102591	-0.006198059	0.05087049	-0.03432885	0	0
34.34184	0.2158725	0.323424	0.08703759	-0.0618847	0.5083149	-0.3632046	0	0
34.35848	0.2158474	0.3234419	-0.001508602	0.001072585	-2.366142	1.682352	0	0
34.37497	0.2158725	0.323424	0.001522561	-0.001082509	0.09148068	-0.06504086	0	0
34.39154	0.2158976	0.3234062	0.001515201	-0.001077276	-0.000222623	0.0001582851	0	0
34.4081	0.2158976	0.3234062	0	0	-0.04572884	0.03251226	0	0
34.42467	0.2159227	0.3233883	0.001515549	-0.001077524	0.04574464	-0.03252349	0	0
34.44124	0.2159729	0.3233526	0.003031099	-0.002156847	0.04573938	-0.03257403	0	0
34.45781	0.2160482	0.323299	0.004545749	-0.003234371	0.04571222	-0.03251974	0	0
34.47456	0.2160733	0.3232811	0.0014983	-0.00106526	-0.09144579	0.06508923	0	0
34.49157	0.2160984	0.3232633	0.001476123	-0.001049493	-0.0006567554	0.0004669375	0	0
34.50759	0.2161236	0.3232454	0.001567523	-0.001116337	0.002767399	-0.002023899	0	0
34.52407	0.2161487	0.3232276	0.001523266	-0.00108301	-0.001361725	0.001025405	0	0
34.54064	0.2161738	0.3232097	0.00151465	-0.001077524	-0.0002606816	0.0001659939	0	0
34.55721	0.216224	0.323174	0.003031797	-0.002157344	0.04579286	-0.03259278	0	0
34.57377	0.2165001	0.3229775	0.01666745	-0.01185816	0.4115721	-0.292805	0	0
34.59065	0.2176796	0.3221381	0.06988867	-0.04973935	1.59138	-1.132694	0	0
34.60691	0.2228919	0.3184231	0.3205957	-0.2284982	7.566353	-5.394953	0	0
34.62347	0.2243432	0.3173872	0.08759876	-0.06253058	-7.098054	5.056063	0	0
34.64004	0.2259934	0.3162083	0.09960982	-0.07115797	0.3624947	-0.2603752	0	0
34.6567	0.2272927	0.3152794	0.07801406	-0.05577008	-0.6500401	0.4631808	0	0
34.67318	0.2273177	0.3152616	0.00151513	-0.00108301	-2.308477	1.650269	0	0
34.68975	0.2273177	0.3152616	0	0	-0.04584281	0.03276831	0	0
34.70631	0.2273177	0.3152616	0	0	0	0	0	0
34.72288	0.2273427	0.315208	0.001508354	-0.003234371	0.04552745	-0.09762476	0	0
34.73944	0.2273427	0.315208	0	0	-0.04552221	0.09761352	0	0
34.75601	0.2274676	0.3151187	0.007539908	-0.00539246	0.2275811	-0.1627635	0	0
34.77278	0.2275675	0.3150472	0.005958009	-0.00425991	-0.04745771	0.03397704	0	0
34.78914	0.227992	0.3147435	0.02594242	-0.01855696	0.6031306	-0.431486	0	0
34.80571	0.2286662	0.3142613	0.04069048	-0.02911114	0.4478299	-0.3204812	0	0
34.82231	0.228791	0.3141719	0.007518095	-0.005380069	-1.000108	0.7154638	0	0
34.83884	0.228791	0.3141719	0	0	-0.2268966	0.1623708	0	0
34.85541	0.2288159	0.3141541	0.001506555	-0.001077524	0.04551508	-0.03255348	0	0
34.87198	0.2288159	0.3141541	0	0	-0.04546269	0.032516	0	0
34.88855	0.2288159	0.3141541	0	0	0	0	0	0
34.90512	0.2288409	0.3141362	0.001506555	-0.001077524	0.04546792	-0.03251974	0	0
34.92189	0.2288659	0.3141184	0.001488391	-0.00106631	-0.000544857	0.0003363813	0	0
34.93824	0.2289158	0.3140826	0.003051758	-0.002184512	0.04719336	-0.03375517	0	0
34.95481	0.2289158	0.3140826	0	0	-0.09268914	0.06634883	0	0
34.97142	0.2289408	0.3140648	0.001503301	-0.001074555	0.04530711	-0.03238539	0	0
34.98795	0.2289408	0.314029	0	-0.002162823	-0.04536971	-0.032844	0	0
35.00451	0.2289408	0.314029	0	0	0	0.06537198	0	0
35.07078	0.2289657	0.313904	0.0003766388	-0.001886567	0.004547002	-0.02277573	0	0
35.08735	0.2289907	0.3138861	0.001506208	-0.001079075	0.01363556	0.009747616	0	0
35.10402	0.2289907	0.3138504	0	-0.002143521	-0.04531139	-0.03202184	0	0
35.12054	0.2290156	0.3138326	0.001511078	-0.001080759	0.04553105	0.0320226	0	0
35.13705	0.2290406	0.3138147	0.001511427	-0.001081009	1.056961E-05	-7.559788E-06	0	0
35.15362	0.2290156	0.3137968	-0.001506555	-0.001079323	-0.09122994	5.096351E-05	0	0
35.17018	0.2290156	0.3137968	0	0	0.0454784	0.03258153	0	0
35.18674	0.2290156	0.3137968	0	0	0	0	0	0
35.20332	0.2290156	0.3137968	0	0	0	0	0	0
35.21988	0.2289907	0.313779	-0.001506555	-0.001077524	-0.04546269	-0.032516	0	0
35.24047	0.2289408	0.3137432	-0.00242422	-0.001735307	-0.02469564	-0.01770186	0	0
35.25704	0.2288409	0.3136718	-0.00602712	-0.004311895	-0.09695911	-0.06933962	0	0
35.27361	0.228741	0.3136361	-0.00602712	-0.002156847	0	0.06503949	0	0
35.29018	0.2287161	0.3136182	-0.001506555	-0.001079323	0.1364309	0.03251974	0	0
35.30674	0.2286911	0.3136003	-0.001506555	-0.001077524	0	5.428939E-05	0	0
35.32331	0.2287161	0.3135825	0.001506555	-0.001077524	0.09093585	0	0	0
35.33988	0.2286662	0.3135825	-0.00301311	0	-0.1364038	0.03251974	0	0
35.35669	0.2286662	0.3135825	0	0	0.0902604	0	0	0
35.3732	0.2286662	0.3135825	0	0	0	0	0	0
35.38958	0.2286412	0.3135646	-0.001525367	-0.001092148	-0.04638814	-0.03321347	0	0
35.40614	0.2286162	0.3135467	-0.001506555	-0.001077524	0.000571094	0.0004439592	0	0
35.42271	0.2284665	0.3134395	-0.00904113	-0.006470541	-0.2273939	-0.1627616	0	0
35.43928	0.2281668	0.3132252	-0.01808496	-0.01293749	-0.2729432	-0.1951728	0	0
35.45584	0.2274426	0.3127072	-0.04371438	-0.03126979	-0.7734976	-0.55327	0	0
35.47278	0.2255935	0.3114209	-0.1092008	-0.07595672	-1.954778	-1.333911	0	0
35.48898	0.2163746	0.304739	-0.5690303	-0.4124382	-13.87768	-10.15503	0	0
35.50555	0.2016177	0.293444	-0.8907293	-0.681767	-9.817398	-8.2192	0	0
35.52231	0.1958262	0.2877408	-0.3454351	-0.3401753	16.35907	10.24791	0	0
35.53882	0.1920255	0.2750767	-0.2302097	-0.7670565	3.46276	-12.82865	0	0
35.55534	0.1920001	0.2527457	-0.001535791	-1.352259	6.924512	-17.72062	0	0
35.57182	0.1924819	0.2340364	0.02923358	-1.135311	0.932594	6.575522	0	0
35.58838	0.1925833	0.2211008	0.006120661	-0.7807931	-0.6994012	10.72778	0	0
35.60537	0.1917973	0.1912562	-0.04626196	-1.756528	-1.560963	-29.07618	0	0
35.62152	0.1907827	0.1760809	-0.06284706	-0.9400079	-0.5005391	24.64264	0	0
35.63808	0.1880667	0.1590391	-0.1639725	-1.028882	-3.09184	-2.717268	0	0
35.65491	0.1863901	0.1517442	-0.09964347	-0.4335335	1.926594	17.83012	0	0
35.67142	0.1814046	0.1391286	-0.3018938	-0.7639421	-6.066215	-9.910141	0	0
35.68793	0.1772261	0.134067	-0.2530885	-0.3065802	1.477881	13.84945	0	0
35.70444	0.17133	0.126064	-0.3571258	-0.4847306	-3.150734	-5.395226	0	0
35.72095	0.1619635	0.1167511	-0.5673223	-0.5640813	-6.365728	-2.403107	0	0
35.73748	0.1513598	0.1089036	-0.6416683	-0.474879	-2.250502	2.700212	0	0
35.75404	0.1417534	0.10207	-0.5798429	-0.4124773	1.868258	1.885676	0	0
35.77061	0.1352482	0.09744745	-0.3926514	-0.2790144	5.64945	4.027916	0	0
35.78718	0.1270229	0.0916076	-0.4964796	-0.3524943	-3.13354	-2.217628	0	0
35.80375	0.1217631	0.08787565	-0.3174856	-0.225261	5.40205	3.839909	0	0
35.82053	0.1164445	0.08414053	-0.3169417	-0.2225821	0.01630866	0.08033193	0	0
35.83704	0.1166262	0.0843062	0.01100664	0.01003413	9.851001	6.98739	0	0
35.85355	0.1166522	0.08436141	0.001572248	0.003344411	-0.2857172	-0.202596	0	0
35.87006	0.1166522	0.08436141	0	0	-0.04761498	-0.1012843	0	0
35.88707	0.1166522	0.08436141	0	0	0	0	0	0
35.90358	0.1166522	0.08436141	0	0	0	0	0	0
35.91971	0.1166522	0.08436141	0	0	0	0	0	0
35.93628	0.1166522	0.08436141	0	0	0	0	0	0
35.95285	0.1166262	0.08437982	-0.001566817	0.001111253	-0.04728664	0.03353768	0	0
35.98615	0.1166003	0.08439822	-0.0007795495	0.0005526657	0.01578775	-0.01120183	0	0
36.00255	0.1164964	0.08447185	-0.00633085	0.004488554	-0.1116924	0.07919023	0	0
36.01911	0.1164185	0.08449025	-0.004701984	0.001111059	0.04940956	-0.102452	0	0
36.03568	0.1163666	0.08452707	-0.003134084	0.002222056	0.04732475	0.03353382	0	0
36.05225	0.1161589	0.08467431	-0.01253634	0.008887775	-0.2837605	0.2011718	0	0
36.11537	0.1048769	0.09272841	-0.178723	0.1275883	-2.08534	1.489476	0	0
36.13194	0.09622819	0.09904384	-0.5220394	0.3812003	-4.307995	3.182368	0	0
36.14851	0.08879223	0.1043795	-0.4488356	0.3220592	2.209294	-1.78488	0	0
36.18449	0.07585418	0.1136977	-0.3595877	0.2589825	1.698425	-1.200377	0	0
36.20105	0.06585202	0.1208253	-0.6037319	0.430224	-4.646167	3.258798	0	0
36.21762	0.05617767	0.1276693	-0.5839448	0.4131001	0.5971768	-0.5168006	0	0
36.23431	0.04536359	0.1353237	-0.6478164	0.4585389	-1.920354	1.366157	0	0
36.25076	0.04118722	0.1383278	-0.2540166	0.1827155	11.8849	-8.324368	0	0
36.26733	0.0356428	0.1423488	-0.3344311	0.2425434	-2.435325	1.811868	0	0
36.28389	0.03225197	0.14484	-0.2048594	0.1505081	3.910933	-2.777951	0	0
36.30045	0.02707233	0.1486747	-0.3126436	0.2314608	-3.254432	2.444283	0	0
36.31702	0.01926078	0.1541042	-0.4715064	0.3277274	-4.794491	2.905332	0	0
36.33359	0.01889249	0.1544309	-0.02222978	0.01971923	13.5592	-9.295706	0	0
36.35015	0.01897141	0.1544491	0.004763525	0.001095513	0.8146597	-0.5620649	0	0
36.36672	0.01915555	0.1546124	0.01111489	0.009859616	0.1916846	0.2645012	0	0
36.38342	0.01918186	0.1546306	0.001575507	0.001087003	-0.2867767	-0.2637257	0	0
36.39993	0.01920816	0.1546487	0.001593345	0.00109931	0.000537155	0.0003706072	0	0
36.41642	0.01920816	0.1546487	0	0	-0.04828179	-0.03331146	0	0
36.43299	0.01918186	0.1546669	-0.001587842	0.001095513	-0.04803175	0.03313895	0	0
36.44955	0.01918186	0.1547032	0	0.002191026	0.04792115	0.03306264	0	0
36.46612	0.01918186	0.1547032	0	0	0	-0.06612529	0	0
36.48269	0.01920816	0.154685	0.001587842	-0.001095513	0.04792115	-0.03306264	0	0
36.4995	0.01923447	0.1546669	0.001564782	-0.001079603	-0.0006908377	0.0004766357	0	0
36.51601	0.01926078	0.1546487	0.001592977	-0.001099056	0.0008460349	-0.0005837115	0	0
36.53252	0.019366	0.1545398	0.006373379	-0.006595858	0.1447561	-0.1664496	0	0
36.54903	0.01952383	0.1544309	0.009559955	-0.006595858	0.09650438	0	0	0
36.56554	0.01965536	0.1543402	0.007966611	-0.005496548	-0.04825391	0.03329222	0	0
36.58208	0.01973428	0.1542494	0.004771102	-0.005486407	-0.09668552	0.0003068383	0	0
36.59865	0.0198132	0.154195	0.004763412	-0.003286539	-0.0002322698	0.06644572	0	0
36.61522	0.01986581	0.1541587	0.003175571	-0.002191026	-0.04792115	0.03306264	0	0
36.63209	0.01991842	0.1541224	0.003118133	-0.002151396	-0.001717646	0.00118511	0	0
36.64835	0.02002364	0.1540135	0.006470328	-0.006697345	0.1011694	-0.137197	0	0
36.66512	0.02012886	0.1539409	0.006277426	-0.00433119	-0.005841298	0.07164992	0	0
36.68148	0.02018147	0.1539046	0.003214054	-0.002217578	-0.0924634	0.0637963	0	0
36.69805	0.02015517	0.1538864	-0.001587729	-0.001095513	-0.1457909	0.03406793	0	0
36.71462	0.02018147	0.1538683	0.001587729	-0.001095513	0.09583552	0	0	0
36.73119	0.02018147	0.1538683	0	0	-0.04791776	0.03306264	0	0
36.74775	0.02018147	0.1538683	0	0	0	0	0	0
36.76432	0.02020778	0.1538501	0.001587842	-0.001095513	0.04792115	-0.03306264	0	0
36.78089	0.02020778	0.1538501	0	0	-0.04792115	0.03306264	0	0
36.79745	0.02020778	0.1538138	0	-0.002191925	0	-0.06615243	0	0
36.81402	0.02020778	0.1538138	0	0	0	0.06615243	0	0
36.83059	0.02020778	0.1538138	0	0	0	0	0	0
36.86377	0.02020778	0.1538138	0	0	0	0	0	0
36.88029	0.02020778	0.1538138	0	0	0	0	0	0
36.89686	0.02020778	0.1538138	0	0	0	0	0	0
36.91343	0.02020778	0.1538138	0	0	0	0	0	0
36.92999	0.02023408	0.1537957	0.001587729	-0.001095513	0.04791776	-0.03306264	0	0
36.94682	0.02023408	0.1537957	0	0	-0.04754554	0.03280582	0	0
36.96312	0.02023408	0.1537957	0	0	0	0	0	0
36.97969	0.02023408	0.1537957	0	0	0	0	0	0
36.99626	0.02026039	0.1537775	0.001587842	-0.001095513	0.04792115	-0.03306264	0	0
37.01572	0.02026039	0.1537775	0	0	-0.04406555	0.03040251	0	0
37.03229	0.02026039	0.1537775	0	0	0	0	0	0
37.04886	0.02026039	0.1537412	0	-0.002191026	0	-0.06612529	0	0
37.06543	0.02026039	0.1537412	0	0	0	0.06612529	0	0
37.08241	0.02026039	0.1537412	0	0	0	0	0	0
37.09856	0.02026039	0.1537412	0	0	0	0	0	0
37.11544	0.02026039	0.1537412	0	0	0	0	0	0
37.13195	0.02026039	0.1537412	0	0	0	0	0	0
37.14846	0.02026039	0.1537412	0	0	0	0	0	0
37.16483	0.02026039	0.1537412	0	0	0	0	0	0
37.1814	0.02026039	0.1537412	0	0	0	0	0	0
37.19796	0.02026039	0.1537412	0	0	0	0	0	0
37.21453	0.02026039	0.1537049	0	-0.002191026	0	-0.06612529	0	0
37.2311	0.02026039	0.1537049	0	0	0	0.06612529	0	0
37.24767	0.02026039	0.1537049	0	0	0	0	0	0
37.26423	0.02028669	0.1536868	0.001587729	-0.001096412	0.04791776	-0.03308979	0	0
37.2808	0.02028669	0.1536868	0	0	-0.04791776	0.03308979	0	0
37.29757	0.02028669	0.1536868	0	0	0	0	0	0
37.31393	0.02031299	0.1536686	0.001607719	-0.001109306	0.04852106	-0.03347892	0	0
37.3306	0.0203393	0.1536505	0.001578754	-0.001089243	-0.0008771098	0.0006075314	0	0
37.34707	0.0203393	0.1536142	0	-0.002203711	-0.04764688	-0.03363473	0	0
37.36412	0.02039191	0.1535779	0.003085238	-0.002128775	0.09203195	0.002235326	0	0
37.3802	0.02039191	0.1535416	0	-0.002258489	-0.0931234	-0.003915224	0	0
37.39677	0.02039191	0.1535416	0	0	0	0.06918081	0	0
37.41333	0.02039191	0.1535416	0	0	0	0	0	0
37.43017	0.02041822	0.1535234	0.001562655	-0.001078136	0.04678399	-0.03227807	0	0
37.44647	0.02041822	0.1535234	0	0	-0.04716102	0.03253819	0	0
37.46304	0.02041822	0.1535234	0	0	0	0	0	0
37.4796	0.02041822	0.1535234	0	0	0	0	0	0
