Time	Pos X	Pos Y	Vel X	Vel Y	Acc X	Acc YForce X	Force Y
0.0163433	0.05570547	0.2664315	-0.0008855723	-0.00423557	1.4082E-05	6.735225E-05	0	0
0.05351789	0.05570547	0.2664315	0	0	-1.408663E-05	-6.737439E-05	0	0
0.09418133	0.0557317	0.2664136	0.0006451371	-0.0004397413	0.0082882	-0.00564944	0	0
0.1107461	0.0557317	0.2664136	0	0	-0.01127306	0.007683997	0	0
0.1273148	0.05575794	0.2663957	0.001583541	-0.001081026	0.04779279	-0.0326264	0	0
0.1438803	0.0557317	0.2663778	-0.001583843	-0.001081232	-0.09559242	-6.222308E-06	0	0
0.1606133	0.0557317	0.2663778	0	0	0.04756502	0.03247091	0	0
0.1770122	0.0557317	0.2663778	0	0	0	0	0	0
0.1935786	0.0557317	0.2663778	0	0	0	0	0	0
0.2101461	0.05575794	0.2663599	0.001583653	-0.001081103	0.04779561	-0.03262833	0	0
0.2267116	0.05575794	0.2663599	0	0	-0.04779675	0.0326291	0	0
0.2432788	0.05575794	0.2663599	0	0	0	0	0	0
0.2601807	0.05575794	0.2663599	0	0	0	0	0	0
0.2764118	0.05575794	0.2663599	0	0	0	0	0	0
0.2932059	0.05575794	0.2663599	0	0	0	0	0	0
0.3095457	0.05575794	0.2663599	0	0	0	0	0	0
0.3261136	0.05575794	0.2663599	0	0	0	0	0	0
0.3427419	0.05575794	0.2663599	0	0	0	0	0	0
0.3758138	0.05575794	0.2663599	0	0	0	0	0	0
0.3923794	0.05575794	0.2663599	0	0	0	0	0	0
0.4089454	0.05575794	0.2663599	0	0	0	0	0	0
0.4255121	0.05575794	0.2663599	0	0	0	0	0	0
0.4420788	0.05578417	0.266342	0.001583505	-0.001079356	0.04779175	-0.03257603	0	0
0.4586459	0.05578417	0.266342	0	0	-0.04779115	0.03257562	0	0
0.4752119	0.05578417	0.266342	0	0	0	0	0	0
0.4917786	0.05578417	0.266342	0	0	0	0	0	0
0.5083454	0.05578417	0.266342	0	0	0	0	0	0
0.5249117	0.05578417	0.266342	0	0	0	0	0	0
0.5414785	0.05578417	0.266342	0	0	0	0	0	0
0.5580456	0.05578417	0.266342	0	0	0	0	0	0
0.5746115	0.05578417	0.266342	0	0	0	0	0	0
0.5911786	0.05578417	0.266342	0	0	0	0	0	0
0.6079277	0.05578417	0.266342	0	0	0	0	0	0
0.7071449	0.05578417	0.266342	0	0	0	0	0	0
0.7237117	0.05578417	0.266342	0	0	0	0	0	0
0.7570342	0.05578417	0.266342	0	0	0	0	0	0
0.7734115	0.05578417	0.266342	0	0	0	0	0	0
0.8065458	0.05575794	0.2663241	-0.0007917327	-0.0005405639	-0.01599087	-0.01091793	0	0
0.8231121	0.05575794	0.2663241	0	0	0.01593004	0.0108764	0	0
0.8396785	0.05575794	0.2663241	0	0	0	0	0	0
0.8566092	0.05575794	0.2663241	0	0	0	0	0	0
0.8728119	0.05575794	0.2663241	0	0	0	0	0	0
0.8896289	0.05575794	0.2663241	0	0	0	0	0	0
0.9059454	0.05575794	0.2663241	0	0	0	0	0	0
0.9225125	0.05575794	0.2663241	0	0	0	0	0	0
0.9390789	0.05575794	0.2663241	0	0	0	0	0	0
0.9556452	0.05575794	0.2663241	0	0	0	0	0	0
0.9722123	0.05578417	0.2663062	0.001583468	-0.00108113	0.04779063	-0.03262956	0	0
0.9888071	0.05578417	0.2663062	0	0	-0.04774966	0.03260158	0	0
1.005346	0.05578417	0.2663062	0	0	0	0	0	0
1.021912	0.05578417	0.2663062	0	0	0	0	0	0
1.038478	0.05578417	0.2663062	0	0	0	0	0	0
1.055245	0.05578417	0.2663062	0	0	0	0	0	0
1.091745	0.05578417	0.2663062	0	0	0	0	0	0
1.10831	0.05578417	0.2663062	0	0	0	0	0	0
1.124877	0.05578417	0.2663062	0	0	0	0	0	0
1.141806	0.05578417	0.2663062	0	0	0	0	0	0
1.15801	0.05578417	0.2663062	0	0	0	0	0	0
1.17483	0.05578417	0.2663062	0	0	0	0	0	0
1.19134	0.05578417	0.2663062	0	0	0	0	0	0
1.207851	0.05578417	0.2663062	0	0	0	0	0	0
1.224364	0.05578417	0.2663062	0	0	0	0	0	0
1.240844	0.05578417	0.2663062	0	0	0	0	0	0
1.25741	0.05578417	0.2663062	0	0	0	0	0	0
1.273977	0.05578417	0.2663062	0	0	0	0	0	0
1.290913	0.05578417	0.2663062	0	0	0	0	0	0
1.307111	0.05578417	0.2663062	0	0	0	0	0	0
1.323677	0.05578417	0.2663062	0	0	0	0	0	0
1.340244	0.0558104	0.2662883	0.001583537	-0.001081176	0.04779312	-0.03263126	0	0
1.356957	0.05578417	0.2662704	-0.001569588	-0.001071653	-0.09474528	0.0002861654	0	0
1.373377	0.05578417	0.2662704	0	0	0.04737162	0.03234347	0	0
1.389944	0.05578417	0.2662704	0	0	0	0	0	0
1.406511	0.0558104	0.2662525	0.001583468	-0.001079331	0.04778951	-0.0325745	0	0
1.423077	0.05578417	0.2662346	-0.001583616	-0.001081231	-0.09558796	-5.734565E-05	0	0
1.439644	0.05578417	0.2662346	0	0	0.04779622	0.03263337	0	0
1.456211	0.05578417	0.2662346	0	0	0	0	0	0
1.472777	0.0558104	0.2662167	0.001583582	-0.001081208	0.04779467	-0.03263232	0	0
1.489344	0.0558104	0.2662167	0	0	-0.04779518	0.03263267	0	0
1.505911	0.0558104	0.2662167	0	0	0	0	0	0
1.572177	0.0558104	0.2661809	0	-0.0005401307	0	-0.006520696	0	0
1.588745	0.0558104	0.2661809	0	0	0	0.006520639	0	0
1.605311	0.05583664	0.266163	0.001583537	-0.001081176	0.04779209	-0.03263056	0	0
1.621877	0.05583664	0.266163	0	0	-0.04779364	0.03263161	0	0
1.638445	0.0558104	0.2661451	-0.001583468	-0.00108113	-0.04779054	-0.0326295	0	0
1.655011	0.05583664	0.2661271	0.001583502	-0.001081153	0.09558108	-7.062104E-07	0	0
1.671681	0.05583664	0.2661271	0	0	-0.04764296	0.03252874	0	0
1.688144	0.05586287	0.2661093	0.001593524	-0.001086185	0.04809525	-0.0327829	0	0
1.704711	0.05586287	0.2661093	0	0	-0.04824575	0.03288549	0	0
1.721277	0.05586287	0.2661093	0	0	0	0	0	0
1.737844	0.05586287	0.2661093	0	0	0	0	0	0
1.75441	0.0558891	0.2660913	0.001583537	-0.001081176	0.04779312	-0.03263126	0	0
1.770977	0.0558891	0.2660913	0	0	-0.04779312	0.03263126	0	0
1.787544	0.0558891	0.2660913	0	0	0	0	0	0
1.804111	0.0558891	0.2660913	0	0	0	0	0	0
1.820678	0.0558891	0.2660913	0	0	0	0	0	0
1.837297	0.0558891	0.2660913	0	0	0	0	0	0
1.853811	0.05591534	0.2660734	0.001588612	-0.001084642	0.04794631	-0.03273585	0	0
1.870378	0.05591534	0.2660734	0	0	-0.04802302	0.03278823	0	0
1.886944	0.0558891	0.2660555	-0.001583502	-0.001081153	-0.04779157	-0.0326302	0	0
1.903511	0.0558891	0.2660555	0	0	0.04779157	0.0326302	0	0
1.920357	0.0558891	0.2660555	0	0	0	0	0	0
1.936644	0.0558891	0.2660555	0	0	0	0	0	0
1.953211	0.05591534	0.2660376	0.001583537	-0.001081176	0.04819908	-0.03290844	0	0
1.969778	0.05591534	0.2660376	0	0	-0.04779261	0.03263091	0	0
1.986344	0.05591534	0.2660376	0	0	0	0	0	0
2.005415	0.05591534	0.2660376	0	0	0	0	0	0
2.021985	0.05591534	0.2660376	0	0	0	0	0	0
2.03855	0.05591534	0.2660376	0	0	0	0	0	0
2.055116	0.05591534	0.2660376	0	0	0	0	0	0
2.071684	0.05591534	0.2660376	0	0	0	0	0	0
2.088477	0.05591534	0.2660376	0	0	0	0	0	0
2.104988	0.05591534	0.2660376	0	0	0	0	0	0
2.121383	0.05591534	0.2660376	0	0	0	0	0	0
2.13801	0.05591534	0.2660376	0	0	0	0	0	0
2.154528	0.05591534	0.2660376	0	0	0	0	0	0
2.171083	0.05591534	0.2660376	0	0	0	0	0	0
2.270484	0.05591534	0.2660376	0	0	0	0	0	0
2.28705	0.05591534	0.2660376	0	0	0	0	0	0
2.303617	0.05591534	0.2660376	0	0	0	0	0	0
2.320184	0.05591534	0.2660376	0	0	0	0	0	0
2.33675	0.05591534	0.2660376	0	0	0	0	0	0
2.353317	0.05591534	0.2660376	0	0	0	0	0	0
2.369884	0.05591534	0.2660376	0	0	0	0	0	0
2.386451	0.05591534	0.2660376	0	0	0	0	0	0
2.403018	0.05594157	0.2660197	0.001583548	-0.001079385	0.04779364	-0.03257732	0	0
2.436221	0.05591534	0.2660376	-0.0007900798	0.0005385377	-0.04769206	0.03250808	0	0
2.452717	0.05591534	0.2660376	0	0	0.0158972	-0.01083592	0	0
2.469745	0.05591534	0.2660376	0	0	0	0	0	0
2.485852	0.05594157	0.2660197	0.001628717	-0.001110174	0.04915443	-0.03350487	0	0
2.502417	0.05594157	0.2660197	0	0	-0.04984993	0.03397894	0	0
2.518984	0.05594157	0.2660197	0	0	0	0	0	0
2.535794	0.05594157	0.2660197	0	0	0	0	0	0
2.552305	0.05594157	0.2660197	0	0	0	0	0	0
2.568685	0.05594157	0.2660197	0	0	0	0	0	0
2.585253	0.05594157	0.2660197	0	0	0	0	0	0
2.601841	0.05594157	0.2660197	0	0	0	0	0	0
2.618385	0.05594157	0.2660197	0	0	0	0	0	0
2.634951	0.05594157	0.2660197	0	0	0	0	0	0
2.651519	0.05594157	0.2660197	0	0	0	0	0	0
2.710828	0.05594157	0.2660197	0	0	0	0	0	0
2.727427	0.05594157	0.2660197	0	0	0	0	0	0
2.743962	0.05594157	0.2660197	0	0	0	0	0	0
2.760529	0.05594157	0.2660197	0	0	0	0	0	0
2.777096	0.05594157	0.2660197	0	0	0	0	0	0
2.793975	0.05594157	0.2660197	0	0	0	0	0	0
2.810229	0.05594157	0.2660197	0	0	0	0	0	0
2.826795	0.05594157	0.2660197	0	0	0	0	0	0
2.843508	0.05594157	0.2660197	0	0	0	0	0	0
2.860021	0.05594157	0.2660197	0	0	0	0	0	0
2.876496	0.05594157	0.2660197	0	0	0	0	0	0
2.893064	0.05594157	0.2660197	0	0	0	0	0	0
2.909629	0.05594157	0.2660197	0	0	0	0	0	0
2.926196	0.05594157	0.2660197	0	0	0	0	0	0
2.942762	0.05594157	0.2660197	0	0	0	0	0	0
2.959331	0.05594157	0.2660197	0	0	0	0	0	0
3.025638	0.0559678	0.2660376	0.0003956351	0.0002696746	0.004773821	0.003253954	0	0
3.042162	0.0559678	0.2660376	0	0	-0.004776391	-0.003255705	0	0
3.062041	0.0559678	0.2660376	0	0	0	0	0	0
3.078675	0.0559678	0.2660376	0	0	0	0	0	0
3.095187	0	0	-3.389491	-16.11162	-102.2583	-486.0748	0	0
3.111742	0.0559678	0.2660376	3.380899	16.07078	204.7522	973.2698	0	0
3.128712	0.0559678	0.2660376	0	0	-100.8479	-479.3706	0	0
3.144876	0.05591534	0.2660734	-0.003246047	0.002216273	-0.0979673	0.06688821	0	0
3.161442	0.0557317	0.2661988	-0.01108522	0.0075648	-0.2395148	0.1634167	0	0
3.178009	0.05486593	0.2668254	-0.05225768	0.03782488	-1.242632	0.9132838	0	0
3.194575	0.05371145	0.2676131	-0.06968893	0.04755051	-0.5260915	0.2935288	0	0
3.211268	0.04877707	0.2710142	-0.2955894	0.2037398	-6.792031	4.696062	0	0
3.227779	0.04137112	0.2760608	-0.4485475	0.30565	-4.606574	3.069186	0	0
3.244275	0.0279138	0.2852194	-0.8158075	0.5552101	-11.12684	7.560897	0	0
3.260841	0.02402169	0.287866	-0.2349415	0.1597562	17.569	-11.96099	0	0
3.277409	0.01568292	0.2935334	-0.5033292	0.3420878	-8.10019	5.502938	0	0
3.293975	-0.006868313	0.3088127	-1.361274	0.9223112	-25.89356	17.51168	0	0
3.310542	-0.0278875	0.3230132	-1.268757	0.8571727	2.792272	-1.965971	0	0
3.327108	-0.03845472	0.3300853	-0.6378567	0.4268827	19.04117	-12.98655	0	0
3.343675	-0.05145454	0.3374962	-0.7846934	0.4473329	-4.431668	0.6172053	0	0
3.360374	-0.0656686	0.3391033	-0.8511883	0.09624185	-1.998896	-10.55411	0	0
3.376808	-0.07611582	0.3388354	-0.6357006	-0.01629914	6.503664	-3.396616	0	0
3.393376	-0.1013359	0.3382998	-1.522221	-0.03233333	-26.86253	-0.4858528	0	0
3.409942	-0.1107814	0.3383533	-0.5701732	0.003232805	28.73329	1.073403	0	0
3.426509	-0.1236553	0.3384962	-0.7771164	0.008624287	-6.245963	0.1627258	0	0
3.443433	-0.1406958	0.3401212	-1.006887	0.09601811	-6.860826	2.609536	0	0
3.459944	-0.1458774	0.3416033	-0.3138103	0.08976118	20.72856	-0.1871328	0	0
3.476456	-0.1559599	0.3431391	-0.610638	0.09301087	-8.988416	0.09840602	0	0
3.492775	-0.1595532	0.3448533	-0.2201831	0.1050454	11.89289	0.3665593	0	0
3.509342	-0.1625017	0.3469427	-0.1779774	0.1261153	1.283383	0.6406922	0	0
3.525992	-0.1647304	0.3484963	-0.1338603	0.09331235	1.328169	-0.9875516	0	0
3.542503	-0.1652938	0.3488892	-0.03411716	0.02379465	3.00783	-2.096359	0	0
3.559042	-0.1653194	0.3488713	-0.001547904	-0.00108119	0.9854524	-0.7526717	0	0
3.575609	-0.1653194	0.3488713	0	0	0.04675688	0.03265905	0	0
3.592175	-0.1653194	0.3488713	0	0	0	0	0	0
3.608742	-0.165345	0.3488534	-0.001545275	-0.001077555	-0.04663851	-0.03252209	0	0
3.625309	-0.165345	0.3488534	0	0	0.04663717	0.03252115	0	0
3.641875	-0.1653962	0.3488177	-0.003091539	-0.002155172	-0.09330552	-0.0650451	0	0
3.658442	-0.1654474	0.3487463	-0.003090551	-0.00431202	2.983023E-05	-0.06509659	0	0
3.675009	-0.1657034	0.348532	-0.01545275	-0.01293606	-0.3731028	-0.2602815	0	0
3.691609	-0.168518	0.3465677	-0.1695583	-0.1183339	-4.646402	-3.177827	0	0
3.708142	-0.1747262	0.3421926	-0.3754903	-0.2646149	-6.215217	-4.414896	0	0
3.724709	-0.1814046	0.337514	-0.4031315	-0.2824157	-0.8350846	-0.5377914	0	0
3.741275	-0.1858563	0.334389	-0.2687133	-0.1886333	4.056924	2.830481	0	0
3.757842	-0.1935718	0.3288888	-0.4657331	-0.3320117	-5.946327	-4.327355	0	0
3.774409	-0.1991915	0.3248885	-0.3392034	-0.2414608	3.818785	2.732912	0	0
3.791179	-0.2065637	0.3196734	-0.4395978	-0.3109699	-3.01145	-2.085008	0	0
3.807542	-0.2104175	0.3169049	-0.2355247	-0.1691953	6.159205	4.278951	0	0
3.824202	-0.2140891	0.3143327	-0.2203814	-0.1543905	0.4585705	0.4483198	0	0
3.840714	-0.2140137	0.3143863	0.004565423	0.003245159	6.78115	4.752017	0	0
3.857243	-0.2140137	0.3143863	0	0	-0.1381765	-0.09821755	0	0
3.877801	-0.2140137	0.3143863	0	0	0	0	0	0
3.894368	-0.2140137	0.3143863	0	0	0	0	0	0
3.910935	-0.2140388	0.3143685	-0.001516449	-0.001077524	-0.04576652	-0.03251974	0	0
3.927501	-0.2140388	0.3143685	0	0	0.04576784	0.03252068	0	0
3.944068	-0.2140388	0.3143685	0	0	0	0	0	0
3.960798	-0.2140388	0.3143685	0	0	0	0	0	0
3.977202	0	0	13.04784	-19.16396	393.7961	-578.386	0	0
3.993768	-0.2140388	0.3143685	-12.92015	18.97641	-787.6148	1156.805	0	0
4.010335	-0.2140388	0.3143685	0	0	389.945	-572.7298	0	0
4.026903	-0.2140388	0.3143685	0	0	0	0	0	0
4.043468	-0.2140388	0.3143685	0	0	0	0	0	0
4.060035	-0.2140137	0.3143506	0.001516493	-0.001079354	0.04577113	-0.03257731	0	0
4.076602	-0.2140137	0.3143506	0	0	-0.04576916	0.03257591	0	0
4.093391	-0.2140137	0.3143506	0	0	0	0	0	0
4.109735	-0.2139886	0.3143327	0.001538156	-0.0010923	0.04642364	-0.03296711	0	0
4.126301	-0.2139886	0.3143327	0	0	-0.04673843	0.03319066	0	0
4.142869	-0.2139383	0.314297	0.003033797	-0.002156847	0.0915615	-0.06509471	0	0
4.159436	-0.2139383	0.314297	0	0	-0.09156018	0.06509378	0	0
4.209135	-0.2138127	0.3142077	0.00252816	-0.001797176	0.03815166	-0.02712061	0	0
4.225986	-0.2137373	0.3141541	0.004474392	-0.003179824	0.02924454	-0.020776	0	0
4.242268	-0.2136619	0.3141005	0.004629935	-0.003291015	0.004694432	-0.003355836	0	0
4.25901	-0.2135865	0.3140469	0.004503574	-0.003200564	-0.003826286	0.002738928	0	0
4.275401	-0.2135111	0.3139933	0.004600134	-0.003269186	0.002914298	-0.002071111	0	0
4.292032	-0.2134105	0.3139219	0.006045179	-0.004297121	0.04376017	-0.03112887	0	0
4.308545	-0.2133603	0.3138861	0.003044687	-0.002163948	-0.09052898	0.06436079	0	0
4.325101	-0.2133351	0.3138683	0.001518353	-0.001078238	-0.04615583	0.03283151	0	0
4.341669	-0.21331	0.3138504	0.001517348	-0.001079323	-3.034492E-05	-3.275944E-05	0	0
4.358235	-0.2132597	0.3138147	0.003034871	-0.002155172	0.04580025	-0.03247013	0	0
4.374801	-0.2132346	0.3137968	0.001517436	-0.001079385	-0.04579893	0.03246919	0	0
4.391369	-0.2132095	0.313779	0.001516405	-0.001077493	-3.109774E-05	5.710095E-05	0	0
4.424501	-0.2131592	0.3137432	0.001517458	-0.001078501	2.117269E-05	-2.028259E-05	0	0
4.441068	-0.2130838	0.3136896	0.004552045	-0.003234371	0.06105895	-0.04337827	0	0
4.457634	-0.2130335	0.3136539	0.003035771	-0.002156971	-0.04576256	0.03251693	0	0
4.474201	-0.2130083	0.3136361	0.001517436	-0.001077586	-0.04582608	0.03257779	0	0
4.491172	-0.2129581	0.3136003	0.002962393	-0.002105459	0.04308436	-0.03064813	0	0
4.507335	-0.2127318	0.3134395	0.01400004	-0.009948001	0.3331215	-0.2366918	0	0
4.523901	-0.2126563	0.313386	0.004553206	-0.003234558	-0.2886408	0.2051242	0	0
4.540468	-0.2118516	0.3128144	0.04857403	-0.03450236	1.328589	-0.9436913	0	0
4.557035	-0.2115246	0.3125821	0.01973779	-0.01401901	-0.8702921	0.6181976	0	0
4.573601	-0.2101406	0.3115996	0.08354502	-0.05931032	1.925817	-1.366973	0	0
4.590168	-0.2099896	0.3114924	0.009116045	-0.006468929	-2.2464	1.594848	0	0
4.606755	-0.2099896	0.3114924	0	0	-0.2749605	0.1951175	0	0
4.623301	-0.2099644	0.3114745	0.001521074	-0.001080692	0.04590741	-0.03261628	0	0
4.640279	-0.2099644	0.3114745	0	0	-0.04537262	0.03223632	0	0
4.656434	-0.2099393	0.3114567	0.00155881	-0.001105003	0.04704702	-0.03335049	0	0
4.673001	-0.2098637	0.3114031	0.004558341	-0.003234371	0.09166577	-0.06507358	0	0
4.689568	-0.2098637	0.3114031	0	0	-0.137575	0.09761633	0	0
4.706135	-0.2098386	0.3113852	0.001519103	-0.001079292	0.04584729	-0.03257357	0	0
4.725875	-0.2098386	0.3113852	0	0	-0.04184012	0.02972656	0	0
4.742443	-0.2098134	0.3113674	0.001519103	-0.001077493	0.04184012	-0.02967701	0	0
4.759009	-0.2097882	0.3113495	0.00152009	-0.001079354	2.978679E-05	-5.616204E-05	0	0
4.775576	-0.2097631	0.3113316	0.001519191	-0.001077555	-2.714548E-05	5.429095E-05	0	0
4.792142	-0.2097379	0.3113138	0.001520134	-0.001077586	2.846697E-05	-9.346105E-07	0	0
4.80871	-0.2096875	0.311278	0.003039106	-0.002156785	0.04584333	-0.03257076	0	0
4.825276	-0.2096372	0.3112423	0.003039456	-0.002157033	1.056165E-05	-7.49083E-06	0	0
4.841843	-0.2095868	0.311278	0.003039194	0.002156847	-7.919593E-06	0.1301988	0	0
4.858434	-0.2093854	0.3113138	0.01214055	0.00215381	0.274486	-9.16076E-05	0	0
4.875444	-0.209184	0.3113138	0.01184194	0	-0.008887098	-0.06409994	0	0
4.891625	-0.2077986	0.3105456	0.08561404	-0.04747311	2.222608	-1.430271	0	0
4.90811	-0.193217	0.3008793	0.8845775	-0.5863972	24.45877	-16.49815	0	0
4.92498	-0.1863901	0.2963934	0.4046672	-0.2659006	-14.38806	9.608722	0	0
4.941243	-0.1711256	0.286507	0.9386014	-0.6079081	16.11463	-10.3221	0	0
4.958005	-0.1580907	0.278834	0.777654	-0.4577691	-4.873533	4.54625	0	0
4.974377	-0.14312	0.2717481	0.9143986	-0.4328	4.127018	0.7535807	0	0
4.991028	-0.1262461	0.2656437	1.01338	-0.3666022	2.997307	2.004574	0	0
5.007511	-0.09583709	0.2576915	1.844941	-0.4824683	25.09728	-3.496945	0	0
5.024076	-0.09028023	0.2559894	0.3354412	-0.1027496	-45.67576	11.48986	0	0
5.057211	-0.05302918	0.2408028	1.124239	-0.4583327	15.8711	-7.154553	0	0
5.074086	-0.04415549	0.2367471	0.5258402	-0.2403345	-11.96565	4.359117	0	0
5.090599	-0.03543253	0.2336952	0.5282673	-0.1848198	0.07269455	1.66273	0	0
5.106911	-0.02959662	0.2302474	0.3577655	-0.2113689	-5.194341	-0.8088192	0	0
5.123477	-0.02559967	0.2275888	0.2412701	-0.1604821	-3.54322	1.547728	0	0
5.140132	-0.02220687	0.2254865	0.2037049	-0.1262203	-1.130744	1.031306	0	0
5.156643	-0.02039191	0.2242825	0.1099248	-0.07292479	-2.82756	1.606913	0	0
5.173177	-0.02041822	0.2243004	-0.001591093	0.001086941	-3.374737	2.239771	0	0
5.189744	-0.02039191	0.2243184	0.001587842	0.00108472	0.09603857	-6.710464E-05	0	0
5.20631	-0.0203393	0.2243543	0.003175641	0.002169564	0.04792126	0.03274161	0	0
5.223191	-0.02031299	0.2243723	0.001558329	0.001064559	-0.04835409	-0.03303725	0	0
5.239443	-0.02028669	0.2243903	0.001618521	0.001105756	0.001816679	0.001243411	0	0
5.256011	-0.02028669	0.2243903	0	0	-0.04931619	-0.03369229	0	0
5.272577	-0.02031299	0.2244442	-0.001587821	0.003255246	-0.0479219	0.09824634	0	0
5.289144	-0.02031299	0.2244442	0	0	0.04792259	-0.09824775	0	0
5.305711	-0.0203393	0.2244622	-0.001587842	0.00108472	-0.04792185	0.03273737	0	0
5.322277	-0.0203393	0.2244622	0	0	0.04792254	-0.03273785	0	0
5.338844	-0.02036561	0.2244802	-0.001587775	0.001084751	-0.04792121	0.03273926	0	0
5.355411	-0.02039191	0.2244981	-0.001587775	0.001084751	0	0	0	0
5.371977	-0.02039191	0.2244981	0	0	0.04792121	-0.03273926	0	0
5.388545	-0.02041822	0.2245161	-0.001587796	0.001084688	-0.04792047	0.03273644	0	0
5.405112	-0.02041822	0.2245161	0	0	0.04791909	-0.03273549	0	0
5.421677	-0.02044452	0.2245341	-0.001587912	0.001084845	-0.04792604	0.03274256	0	0
5.438344	-0.02044452	0.2245341	0	0	0.04778231	-0.03264437	0	0
5.454811	-0.02044452	0.2245341	0	0	0	0	0	0
5.471377	-0.02044452	0.2245341	0	0	0	0	0	0
5.487944	-0.02044452	0.2244981	0	-0.002169502	0	-0.06547758	0	0
5.504513	-0.02044452	0.2244981	0	0	0	0.06547381	0	0
5.521078	-0.02044452	0.2244981	0	0	0	0	0	0
5.537644	-0.02041822	0.2244802	0.001587775	-0.001084751	0.04792328	-0.03274067	0	0
5.554212	-0.02041822	0.2244802	0	0	-0.04791914	0.03273785	0	0
5.57654	-0.02041822	0.2244802	0	0	0	0	0	0
5.593108	-0.02041822	0.2244802	0	0	0	0	0	0
5.609674	-0.02044452	0.2244622	-0.001587821	-0.001084782	-0.04792121	-0.03273926	0	0
5.626241	-0.02044452	0.2244622	0	0	0.04792259	0.0327402	0	0
5.642987	-0.02041822	0.2244442	0.00157082	-0.001073168	0.04715433	-0.03221534	0	0
5.659499	-0.02041822	0.2244442	0	0	-0.04723208	0.03226846	0	0
5.675941	-0.02041822	0.2244442	0	0	0	0	0	0
5.692522	-0.02044452	0.2244262	-0.001586451	-0.001084745	-0.04804095	-0.03284828	0	0
5.709074	-0.02044452	0.2244262	0	0	0.04788055	0.03273861	0	0
5.725641	-0.02044452	0.2244262	0	0	0	0	0	0
5.742208	-0.02047082	0.2244083	-0.001587775	-0.001084751	-0.04792052	-0.03273879	0	0
5.758775	-0.02047082	0.2244083	0	0	0.04792052	0.03273879	0	0
5.775342	-0.02047082	0.2244083	0	0	0	0	0	0
5.791908	-0.02049713	0.2244262	-0.001587821	0.001084782	-0.04792259	0.0327402	0	0
5.808606	-0.02049713	0.2244262	0	0	0.04773368	-0.03261114	0	0
5.825042	-0.02047082	0.2244442	0.001600396	0.00109428	0.04830075	0.03302592	0	0
5.841628	-0.02049713	0.2244262	-0.001585949	-0.001084402	-0.09649181	-0.06597684	0	0
5.858175	-0.02049713	0.2244262	0	0	0.04786541	0.03272825	0	0
5.891308	-0.02047082	0.2244442	0.0007939103	0.0005428408	0.01598041	0.0109267	0	0
5.941198	-0.02044452	0.2244262	0.000527245	-0.0003605068	-0.003211961	-0.01088074	0	0
5.957709	-0.02041822	0.2244083	0.001593094	-0.001088385	0.01605158	-0.01096177	0	0
5.974142	-0.02039191	0.2243903	0.001600881	-0.001093628	0.000236384	-0.000159143	0	0
5.990708	-0.02036561	0.2243723	0.001587821	-0.001084782	-0.0003957941	0.0002680562	0	0
6.007275	-0.02031299	0.2243364	0.003175662	-0.002169502	0.04792322	-0.03273832	0	0
6.023843	-0.02028669	0.2243184	0.001587592	-0.001084626	-0.04792667	0.03274067	0	0
6.040408	-0.02018147	0.2242825	0.006352056	-0.002169752	0.1437959	-0.0327501	0	0
6.057281	-0.02004994	0.2241926	0.007795278	-0.005326383	0.04316212	-0.09440464	0	0
6.073541	-0.01994472	0.2241207	0.006470897	-0.004420692	-0.03997163	0.02733501	0	0
6.090108	-0.0198395	0.2240488	0.006351437	-0.004339903	-0.003639044	0.00246101	0	0
6.106675	-0.01968167	0.223941	0.009527099	-0.006509405	0.09584444	-0.06547757	0	0
6.123242	-0.01939231	0.2237433	0.01746542	-0.01193247	0.2395789	-0.1636685	0	0
6.139809	-0.01665635	0.2219457	0.1651519	-0.1085052	4.457251	-2.914613	0	0
6.156375	-0.005184164	0.2141763	0.6924827	-0.4689811	15.91556	-10.87966	0	0
6.172942	-0.0002894737	0.2108649	0.2954526	-0.1998811	-11.98274	8.12169	0	0
6.189508	0.008947129	0.2045804	0.5575545	-0.3793553	7.910593	-5.416777	0	0
6.206385	0.01292033	0.2018597	0.2354321	-0.1612105	-9.632128	6.522982	0	0
6.222898	0.01991842	0.1971369	0.4237712	-0.2859936	5.640576	-3.737136	0	0
6.239209	0.0242058	0.1942332	0.2628648	-0.1780286	-4.902092	3.289206	0	0
6.255775	0.02683566	0.1924652	0.158748	-0.1067233	-3.166907	2.168884	0	0
6.272432	0.02833452	0.1914728	0.08998185	-0.05958012	-2.069796	1.418965	0	0
6.288908	0.0284397	0.1914367	0.006383649	-0.002190476	-2.523071	1.732073	0	0
6.305475	0.0284397	0.1914367	0	0	-0.1931955	0.06629281	0	0
6.322042	0.0284397	0.1914367	0	0	0	0	0	0
6.338608	0.0284397	0.1914367	0	0	0	0	0	0
6.355175	0.0284397	0.1914367	0	0	0	0	0	0
6.372005	0.02838711	0.1914728	-0.003124779	0.002144426	-0.09356543	0.06421067	0	0
6.388309	0.02838711	0.1914728	0	0	0.09430736	-0.06471983	0	0
6.404874	0.02833452	0.1915088	-0.003174587	0.002178685	-0.09658202	0.06628319	0	0
6.421441	0.02833452	0.1915088	0	0	0.09581613	-0.06575757	0	0
6.438008	0.02828193	0.1915449	-0.003174334	0.002178434	-0.09580297	0.0657462	0	0
6.474198	0.02822934	0.191581	-0.00145318	0.0009972659	0.03262433	-0.02238892	0	0
6.490765	0.02820305	0.1915991	-0.001587167	0.001089217	-0.002539721	0.00174292	0	0
6.507332	0.02812416	0.1916532	-0.004761638	0.003267745	-0.09580711	0.06574905	0	0
6.523899	0.02804528	0.1917073	-0.004761638	0.003267745	0	0	0	0
6.540622	0.0279138	0.1917976	-0.007861953	0.005395305	-0.09313077	0.06391008	0	0
6.557031	0.02778232	0.1918878	-0.008012279	0.005498467	-0.0045371	0.003113605	0	0
6.573598	0.02770344	0.1919419	-0.004761613	0.00326765	0.09857483	-0.06764841	0	0
6.590165	0.02767714	0.19196	-0.001587258	0.00108928	0.09580498	-0.06574526	0	0
6.607169	0.02767714	0.19196	0	0	0.04728097	-0.03244726	0	0
6.623298	0.02765085	0.191978	-0.001630289	0.00111881	-0.04920364	0.03376672	0	0
6.639865	0.02765085	0.191978	0	0	0.04986166	-0.0342183	0	0
6.656704	0.02765085	0.191978	0	0	0	0	0	0
6.672999	0.02765085	0.191978	0	0	0	0	0	0
6.689729	0.02765085	0.191978	0	0	0	0	0	0
6.706132	0.02765085	0.191978	0	0	0	0	0	0
6.722751	0.02762455	0.1919961	-0.001582361	0.001084945	-0.04791918	0.03285576	0	0
6.739265	0.02759825	0.1920141	-0.001592208	0.001092676	-0.0002971948	0.0002333401	0	0
6.805796	0.027309	0.1922126	-0.004347734	0.002983358	-0.03318112	0.02276695	0	0
6.83893	0.02712492	0.192375	-0.005555446	0.004901097	-0.01211781	0.019242	0	0
6.866271	0.02707233	0.1924111	-0.001923593	0.00132	0.0600551	-0.0592158	0	0
6.882839	0.02701974	0.1924472	-0.003174355	0.002178371	-0.02848529	0.01954882	0	0
6.899405	0.02699344	0.1924652	-0.001587371	0.00108928	0.04789596	-0.03286932	0	0
6.915972	0.02696715	0.1924832	-0.001587325	0.001089248	1.380834E-06	-9.451512E-07	0	0
6.932899	0.02691455	0.1925193	-0.003106954	0.002131162	-0.04536955	0.03110704	0	0
6.949106	0.02688826	0.1925735	-0.001622633	0.003340432	0.04479754	0.03649636	0	0
6.965673	0.02686196	0.1925915	-0.001587279	0.001089217	0.001078732	-0.06869011	0	0
6.982238	0.02683566	0.1926095	-0.001587462	0.001089342	-5.516389E-06	3.787686E-06	0	0
6.998949	0.02683566	0.1926095	0	0	0.04770649	-0.03273696	0	0
7.015459	0.02683566	0.1926095	0	0	0	0	0	0
7.031938	0.02683566	0.1926095	0	0	0	0	0	0
7.048505	0.02686196	0.1925915	0.001587279	-0.001089217	0.04803276	-0.03296085	0	0
7.065071	0.02686196	0.1925915	0	0	-0.04790626	0.03287405	0	0
7.081637	0.02686196	0.1925915	0	0	0	0	0	0
7.098204	0.02686196	0.1925915	0	0	0	0	0	0
7.115026	0.02686196	0.1925915	0	0	0	0	0	0
7.131338	0.02686196	0.1925915	0	0	0	0	0	0
7.14805	0.02686196	0.1925915	0	0	0	0	0	0
7.164471	0.02686196	0.1925915	0	0	0	0	0	0
7.181082	0.02686196	0.1925915	0	0	0	0	0	0
7.197604	0.02686196	0.1925915	0	0	0	0	0	0
7.21417	0.02686196	0.1925915	0	0	0	0	0	0
7.230737	0.02686196	0.1925915	0	0	0	0	0	0
7.247303	0.02686196	0.1925915	0	0	0	0	0	0
7.264132	0.02686196	0.1925915	0	0	0	0	0	0
7.280644	0.02686196	0.1925915	0	0	0	0	0	0
7.313571	0.02683566	0.1925735	-0.0007986393	-0.0005480392	-0.0161542	-0.01108528	0	0
7.330178	0.02683566	0.1925735	0	0	0.01612295	0.01106383	0	0
7.346704	0.02683566	0.1925735	0	0	0	0	0	0
7.367855	0.02683566	0.1925735	0	0	0	0	0	0
7.384424	0.02683566	0.1925735	0	0	0	0	0	0
7.401232	0.02683566	0.1925735	0	0	0	0	0	0
7.417744	0.02683566	0.1925735	0	0	0	0	0	0
7.434124	0.02683566	0.1925735	0	0	0	0	0	0
7.483825	0.02683566	0.1925735	0	0	0	0	0	0
7.50039	0.02683566	0.1925735	0	0	0	0	0	0
7.516956	0.02683566	0.1925735	0	0	0	0	0	0
7.533523	0.02683566	0.1925735	0	0	0	0	0	0
7.550336	0.02683566	0.1925735	0	0	0	0	0	0
7.566849	0.02683566	0.1925735	0	0	0	0	0	0
7.599871	0.02683566	0.1925735	0	0	0	0	0	0
7.616356	0.02683566	0.1925735	0	0	0	0	0	0
7.632926	0.02683566	0.1925735	0	0	0	0	0	0
7.649492	0.02683566	0.1925735	0	0	0	0	0	0
7.666056	0.02683566	0.1925735	0	0	0	0	0	0
7.682624	0.02683566	0.1925735	0	0	0	0	0	0
7.699191	0.02683566	0.1925735	0	0	0	0	0	0
7.715757	0.02683566	0.1925735	0	0	0	0	0	0
7.732323	0.02683566	0.1925735	0	0	0	0	0	0
7.748891	0.02683566	0.1925735	0	0	0	0	0	0
7.765457	0.02683566	0.1925735	0	0	0	0	0	0
7.782025	0.02683566	0.1925735	0	0	0	0	0	0
7.798591	0.02683566	0.1925735	0	0	0	0	0	0
7.815157	0.02683566	0.1925735	0	0	0	0	0	0
7.831723	0.02683566	0.1925735	0	0	0	0	0	0
7.848289	0.02683566	0.1925735	0	0	0	0	0	0
7.864856	0.02683566	0.1925735	0	0	0	0	0	0
7.881569	0.02680936	0.1925915	-0.001573467	0.001079738	-0.04728048	0.03244463	0	0
7.914591	0.02673047	0.1926456	-0.002388998	0.001638918	-0.01639752	0.01124317	0	0
7.931122	0.02667788	0.1927178	-0.003181518	0.004365517	-0.01599325	0.05502346	0	0
7.947689	0.02654639	0.192808	-0.007936738	0.005446241	-0.143672	0.03265248	0	0
7.964255	0.02633601	0.1929523	-0.0126993	0.008712437	-0.1437407	0.09857825	0	0
7.980822	0.02612563	0.1931688	-0.01269894	0.01306828	1.104667E-05	0.1314653	0	0
7.997389	0.02541558	0.1938003	-0.04286025	0.03811379	-0.9102964	0.7558967	0	0
8.013956	0.02097061	0.197209	-0.2682989	0.2057523	-6.803851	5.059412	0	0
8.030522	0.01152581	0.204112	-0.5701223	0.4166877	-9.10931	6.366227	0	0
8.047089	0.001578946	0.2109549	-0.6004282	0.4130618	-0.9146854	-0.1094344	0	0
8.063655	-0.002921044	0.2140683	-0.2716356	0.1879372	9.923551	-6.794667	0	0
8.080221	-0.01044699	0.2192488	-0.454293	0.3127132	-5.512929	3.765965	0	0
8.096787	-0.01363073	0.2214604	-0.1921824	0.1334984	7.91097	-5.409025	0	0
8.113354	-0.01823482	0.2246059	-0.2779192	0.1898791	-2.587691	1.701674	0	0
8.129921	-0.02123365	0.2266545	-0.1810097	0.1236508	2.92482	-1.998832	0	0
8.212801	-0.02336417	0.2281098	-0.02570607	0.01755884	1.561668	-1.066817	0	0
8.229321	-0.02336417	0.2281098	0	0	0.258611	-0.1766474	0	0
8.245888	-0.02333787	0.2280918	0.001587708	-0.001084782	0.04798618	-0.03278597	0	0
8.262455	-0.02328526	0.2280559	0.003175121	-0.00216854	0.0479096	-0.03270882	0	0
8.279348	-0.02320636	0.228002	0.004670785	-0.00319045	0.04469923	-0.03054067	0	0
8.295588	-0.02315376	0.2279661	0.003239265	-0.002212349	-0.04320584	0.02952084	0	0
8.312155	-0.02302225	0.2278762	0.007937859	-0.0054218	0.1432219	-0.09783003	0	0
8.328883	-0.02289074	0.2277505	0.007861492	-0.007518101	-0.002293592	-0.06296024	0	0
8.345287	-0.02278553	0.2276786	0.006413485	-0.004381104	-0.04370345	0.09468018	0	0
8.364472	-0.02275923	0.2276606	0.001370984	-0.000935931	-0.1416862	0.09680385	0	0
8.38104	-0.02275923	0.2276606	0	0	-0.03834673	0.02617821	0	0
8.397608	-0.02275923	0.2276606	0	0	0	0	0	0
8.414173	-0.02273292	0.2276427	0.0015878	-0.001084845	0.04792126	-0.03274162	0	0
8.463872	-0.02270662	0.2275888	0.000529236	-0.001084482	-0.0159749	5.467277E-06	0	0
8.480438	-0.02270662	0.2275888	0	0	-0.007986647	0.01636581	0	0
8.497005	-0.02270662	0.2275888	0	0	0	0	0	0
8.513571	-0.02270662	0.2275888	0	0	0	0	0	0
8.530137	-0.02270662	0.2275888	0	0	0	0	0	0
8.547034	-0.02270662	0.2275888	0	0	0	0	0	0
8.563271	-0.02270662	0.2275888	0	0	0	0	0	0
8.580058	-0.02270662	0.2275888	0	0	0	0	0	0
8.596404	-0.02270662	0.2275888	0	0	0	0	0	0
8.61297	-0.02268032	0.2276067	0.001587596	0.001084782	0.04823722	0.03295982	0	0
8.629537	-0.02262772	0.2276067	0.003175416	0	0.04792328	-0.03274067	0	0
8.646104	-0.02257511	0.2276067	0.003175233	0	-5.51623E-06	0	0	0
8.662669	-0.02191754	0.2275528	0.03969555	-0.003253634	1.102249	-0.09820052	0	0
8.679235	-0.02141778	0.2275708	0.03016758	0.001083883	-0.2875795	0.1309178	0	0
8.695802	-0.01897141	0.228523	0.1476717	0.05747546	3.546485	1.701999	0	0
8.712649	-0.01168368	0.2315225	0.4325675	0.1780397	8.526269	3.608209	0	0
8.728935	-0.003578932	0.2350418	0.4976543	0.216092	1.964382	1.148453	0	0
8.745502	0.003578932	0.2399953	0.4320744	0.2990158	-1.996213	2.524149	0	0
8.762185	0.006157817	0.2417178	0.1545762	0.1032416	-8.345845	-5.887969	0	0
8.778635	0.01160474	0.2454308	0.3311215	0.2257187	5.328301	3.696471	0	0
8.811768	0.0153409	0.2479772	0.112764	0.07685492	-4.403925	-3.002347	0	0
8.828335	0.01689313	0.2490351	0.09369266	0.06385186	-0.3837312	-0.2616323	0	0
8.844901	0.01691944	0.249053	0.001588046	0.001082084	-2.779803	-1.89445	0	0
8.861467	0.01689313	0.2490351	-0.001588046	-0.001082084	-0.09586013	-0.06531846	0	0
8.878034	0.01689313	0.2490351	0	0	0.04793007	0.03265923	0	0
8.8946	0.01689313	0.2490351	0	0	0	0	0	0
8.911288	0.01689313	0.2490351	0	0	0	0	0	0
8.944301	0.01686682	0.249053	-0.0007969129	0.0005430112	-0.01603423	0.01092562	0	0
8.960867	0.01684051	0.2490351	-0.001588046	-0.001082084	-0.01595712	-0.03277811	0	0
8.977433	0.01686682	0.2490171	0.001588046	-0.001082084	0.09586013	0	0	0
8.993999	0.01686682	0.2490171	0	0	-0.04793007	0.03265923	0	0
9.010858	0.01686682	0.2490171	0	0	0	0	0	0
9.027133	0.01684051	0.2489992	-0.001616427	-0.001101422	-0.04878526	-0.03324195	0	0
9.043699	0.01684051	0.2489992	0	0	0.04921875	0.03353734	0	0
9.060266	0.0168142	0.2489813	-0.001588158	-0.001082983	-0.04793346	-0.03268638	0	0
9.076832	0.0168142	0.2489813	0	0	0.04793346	0.03268638	0	0
9.093398	0.0167879	0.2489634	-0.001588046	-0.001082084	-0.04793007	-0.03265923	0	0
9.109965	0.0167879	0.2489634	0	0	0.04792869	0.03265829	0	0
9.126534	0.0167879	0.2489634	0	0	0	0	0	0
9.143098	0.01676159	0.2489454	-0.001588228	-0.001082208	-0.04793558	-0.03266299	0	0
9.159665	0.01676159	0.2489454	0	0	0.04793696	0.03266393	0	0
9.176231	0.01676159	0.2489096	0	-0.002164167	0	-0.06531658	0	0
9.192986	0.01673528	0.2488916	-0.001570238	-0.001070839	-0.04712538	0.03281255	0	0
9.209496	0.01673528	0.2488916	0	0	0.04720374	0.03219105	0	0
9.226008	0.01673528	0.2488916	0	0	0	0	0	0
9.261534	0.01670897	0.2488737	-0.0007405422	-0.0005046005	-0.014231	-0.009696912	0	0
9.278098	0.01670897	0.2488737	0	0	0.01421667	0.009687147	0	0
9.294665	0.01668266	0.2488558	-0.001588066	-0.001082021	-0.04793208	-0.03265829	0	0
9.311232	0.01668266	0.2488558	0	0	0.04792932	0.03265641	0	0
9.327798	0.01668266	0.2488558	0	0	0	0	0	0
9.344364	0.01668266	0.2488558	0	0	0	0	0	0
9.36093	0.01668266	0.2488558	0	0	0	0	0	0
9.377497	0.01665635	0.2488379	-0.001588046	-0.001082084	-0.04793007	-0.03265923	0	0
9.394066	0.01663005	0.2488199	-0.001587771	-0.001081897	8.277382E-06	5.638879E-06	0	0
9.41063	0.01663005	0.2488199	0	0	0.04792041	0.03265265	0	0
9.427197	0.01663005	0.2488199	0	0	0	0	0	0
9.443764	0.01663005	0.2488199	0	0	0	0	0	0
9.476896	0.01663005	0.2488199	0	0	0	0	0	0
9.493463	0.01663005	0.2488199	0	0	0	0	0	0
9.510029	0.01663005	0.2488199	0	0	0	0	0	0
9.526719	0.01663005	0.2488199	0	0	0	0	0	0
9.543161	0.01663005	0.2488199	0	0	0	0	0	0
9.559728	0.01663005	0.2488199	0	0	0	0	0	0
9.576294	0.01663005	0.2488199	0	0	0	0	0	0
9.59286	0.01660374	0.2488379	-0.001588046	0.001082084	-0.04793007	0.03265923	0	0
9.609426	0.01660374	0.2488379	0	0	0.04793007	-0.03265923	0	0
9.625994	0.01660374	0.2488379	0	0	0	0	0	0
9.64256	0.01660374	0.2488379	0	0	0	0	0	0
9.659127	0.01660374	0.2488379	0	0	0	0	0	0
9.675822	0.01660374	0.2488379	0	0	0	0	0	0
9.692334	0.01660374	0.2488379	0	0	0	0	0	0
9.708847	0.01660374	0.2488379	0	0	0	0	0	0
9.725394	0.01660374	0.2488379	0	0	0	0	0	0
9.741961	0.01660374	0.2488379	0	0	0	0	0	0
9.758527	0.01660374	0.2488379	0	0	0	0	0	0
9.775093	0.01660374	0.2488379	0	0	0	0	0	0
9.791659	0.01660374	0.2488379	0	0	0	0	0	0
9.808416	0.01663005	0.2488199	0.00156997	-0.001069767	0.04711329	-0.03210268	0	0
9.824926	0.01660374	0.248802	-0.001593458	-0.001086674	-0.09509198	-0.0005082209	0	0
9.841358	0.01660374	0.248802	0	0	0.04837187	0.03298767	0	0
9.857925	0.01657743	0.2487841	-0.001588066	-0.001082021	-0.04812463	-0.03278948	0	0
9.874492	0.01657743	0.2487841	0	0	0.04792932	0.03265641	0	0
9.891058	0.01655112	0.2487661	-0.001588046	-0.001082084	-0.04793007	-0.03265923	0	0
9.907624	0.01655112	0.2487661	0	0	0.04793007	0.03265923	0	0
9.924191	0.0164985	0.2487303	-0.003176203	-0.002164167	-0.09586352	-0.06531846	0	0
9.940757	0.0164985	0.2487303	0	0	0.09586352	0.06531846	0	0
9.957323	0.01641958	0.2486765	-0.004764249	-0.00324715	-0.1437936	-0.09800484	0	0
9.974032	0.01636696	0.2486406	-0.003149011	-0.00214564	0.04854118	0.03310265	0	0
9.990541	0.01628803	0.2485868	-0.004780762	-0.003258405	-0.04912191	-0.03349848	0	0
10.00705	0.01615649	0.2484972	-0.007967053	-0.005429446	-0.09649573	-0.06574924	0	0
10.02359	0.01599864	0.2483896	-0.009543994	-0.006504786	-0.04771301	-0.03253622	0	0
10.04016	0.01544614	0.2480131	-0.03335256	-0.02272956	-0.7191857	-0.4901021	0	0
10.05672	0.01465685	0.2474752	-0.04764462	-0.0324715	-0.4313725	-0.2940378	0	0
10.0736	0.01394646	0.246991	-0.04208886	-0.02868527	0.1661193	0.1132099	0	0
10.08986	0.01394646	0.246991	0	0	1.270281	0.865748	0	0
10.10642	0.01394646	0.2470269	0	0.002165067	0	0.06596458	0	0
10.12313	0.01394646	0.2471703	0	0.008584253	0	0.1928986	0	0
10.13956	0.01405171	0.2472779	0.006408507	0.006552156	0.1934147	-0.06133059	0	0
10.17503	0.0171299	0.2493757	0.08678543	0.0591441	1.548947	1.013502	0	0
10.19159	0.02262772	0.2530504	0.3318678	0.2218181	4.709921	3.126223	0	0
10.2082	0.0303328	0.258229	0.4640645	0.3118951	3.985462	2.715636	0	0
10.22473	0.04003124	0.264838	0.586716	0.3998172	3.701736	2.65357	0	0
10.24129	0.05061463	0.2720523	0.6388516	0.4354869	1.575271	1.077756	0	0
10.25786	0.06841935	0.2842	1.074757	0.7332785	13.15641	8.987885	0	0
10.27442	0.0751477	0.2888315	0.406147	0.2795716	-20.17985	-13.69369	0	0
10.29125	0.08495294	0.2955712	0.5826555	0.4004909	5.285506	3.620902	0	0
10.30756	0.1010233	0.3072583	0.9856138	0.7167833	12.16166	9.545998	0	0
10.32412	0.1070888	0.3120283	0.3661301	0.287935	-18.84576	-13.0463	0	0
10.34069	0.1182095	0.3232454	0.6712863	0.6771037	9.210161	11.74581	0	0
10.3573	0.1231888	0.3347104	0.2998129	0.6903226	-11.19755	0.3984667	0	0
10.37382	0.1233443	0.3494249	0.009410348	0.8904212	-8.76462	6.039161	0	0
10.39039	0.1204146	0.3725199	-0.1768385	1.394018	-5.62813	15.21784	0	0
10.40696	0.1187284	0.3842967	-0.1017842	0.7108903	2.265209	-20.61742	0	0
10.42352	0.1149126	0.41061	-0.2303395	1.588362	-3.880028	26.48368	0	0
10.44009	0.1134061	0.4203888	-0.09093297	0.5902494	4.207417	-30.12397	0	0
10.45666	0.1084153	0.4408692	-0.3012582	1.23627	-6.347811	19.49751	0	0
10.47322	0.1055536	0.4465438	-0.1727439	0.3425411	3.878793	-26.97435	0	0
10.48979	0.1019349	0.4533905	-0.2184356	0.4132948	-1.379058	2.135474	0	0
10.50636	0.09985103	0.4598652	-0.1257848	0.3908085	2.796289	-0.6786574	0	0
10.52292	0.09867845	0.4608908	-0.07078113	0.06191174	1.66006	-9.92641	0	0
10.53949	0.0987827	0.4608188	0.006292366	-0.004346324	2.326217	-1.999787	0	0
10.55644	0.09906935	0.4606209	0.01691302	-0.01167743	0.3168927	-0.2187411	0	0
10.57262	0.09919964	0.4605309	0.008050038	-0.005559116	-0.2674929	0.1846564	0	0
10.58919	0.09925175	0.4604949	0.003145958	-0.002173162	-0.1497379	0.1033845	0	0
10.62232	0.09922569	0.4604409	-0.0007865567	-0.001628878	-0.07912387	0.01095122	0	0
10.639	0.09906935	0.460297	-0.009377503	-0.008633881	-0.1724861	-0.1406441	0	0
10.65546	0.09792265	0.4595053	-0.06966836	-0.04809809	-1.819739	-1.191135	0	0
10.67202	0.097271	0.4590196	-0.03933549	-0.0293215	0.9184613	0.5685443	0	0
10.68859	0.09708852	0.4588936	-0.01101449	-0.007602032	0.8547541	0.6555137	0	0
10.70516	0.09552418	0.4578143	-0.09442956	-0.06515169	-2.517544	-1.736902	0	0
10.72172	0.09393328	0.4566812	-0.09603245	-0.06840064	-0.04837804	-0.098059	0	0
10.73829	0.09390719	0.4566632	-0.001574463	-0.001086519	2.85083	2.031603	0	0
10.75486	0.09403761	0.4565732	0.007872766	-0.005427509	0.2851261	-0.1310151	0	0
10.77142	0.09416803	0.4564474	0.007872316	-0.007598872	-1.357664E-05	-0.06553564	0	0
10.78799	0.09435061	0.4562495	0.01102097	-0.0119416	0.09503211	-0.1310713	0	0
10.85465	0.08623298	0.4495801	-0.1217767	-0.1000511	-1.595623	-1.058676	0	0
10.89601	0.07758082	0.4435264	-0.2091728	-0.1463526	-0.8090466	-0.4286231	0	0
10.91258	0.07572336	0.4422516	-0.1121165	-0.07695033	1.67538	1.198017	0	0
10.92914	0.07459816	0.4414796	-0.06792121	-0.04660245	1.333854	0.9159272	0	0
10.94571	0.07462433	0.4414616	0.00157995	-0.001084782	2.09767	1.373805	0	0
10.96228	0.07462433	0.4414616	0	0	-0.04768573	0.03274067	0	0
10.97884	0.07462433	0.4414616	0	0	0	0	0	0
10.99541	0.0746505	0.4414077	0.0015795	-0.003250748	0.04767079	-0.0981106	0	0
11.01226	0.07467666	0.4413898	0.001553301	-0.001065019	-0.0007841419	0.06541753	0	0
11.02877	0.074729	0.4413539	0.003169852	-0.002174902	0.04846122	-0.03327223	0	0
11.04511	0.074729	0.441318	0	-0.002197494	-0.09648274	-0.0006876403	0	0
11.06168	0.07475517	0.4413	0.0015795	-0.001082983	0.04799682	0.03386701	0	0
11.0783	0.07475517	0.4413	0	0	-0.04758587	0.03262721	0	0
11.1141	0.07485985	0.4412282	0.002924588	-0.002006621	0.05579181	-0.03827993	0	0
11.13084	0.07491218	0.4411923	0.003125534	-0.0021448	0.003824857	-0.002630123	0	0
11.14723	0.07491218	0.4411923	0	0	-0.09433152	0.06473205	0	0
11.16387	0.07491218	0.4411923	0	0	0	0	0	0
11.18038	0.07491218	0.4411923	0	0	0	0	0	0
11.19693	0.07491218	0.4411923	0	0	0	0	0	0
11.2135	0.07493835	0.4411744	0.0015795	-0.001082983	0.04769	-0.03269861	0	0
11.23006	0.07501686	0.4411205	0.004738951	-0.003250748	0.09535789	-0.06542705	0	0
11.24666	0.07517386	0.4410128	0.009461112	-0.006492084	0.1424004	-0.09774493	0	0
11.26343	0.07595884	0.4404383	0.04678885	-0.03423964	1.118537	-0.831464	0	0
11.27994	0.07750235	0.4391998	0.09348916	-0.07501841	1.402958	-1.225064	0	0
11.29633	0.07734539	0.4390921	-0.009579634	-0.006573778	-3.133349	2.080755	0	0
11.31289	0.07729308	0.4390562	-0.003158101	-0.002165966	0.1948848	0.1337711	0	0
11.32946	0.07729308	0.4390562	0	0	0.09531717	0.06537275	0	0
11.34603	0.07724076	0.4390203	-0.003158101	-0.002167765	-0.09531717	-0.06542705	0	0
11.36259	0.07724076	0.4390203	0	0	0.09531717	0.06542705	0	0
11.37916	0.07724076	0.4390203	0	0	0	0	0	0
11.39573	0.0772146	0.4390382	-0.00157896	0.001082921	-0.0476531	0.03268262	0	0
11.41229	0.07716228	0.4390741	-0.003158283	0.00216789	-0.04766682	0.03274632	0	0
11.42905	0.07703149	0.4391998	-0.007806275	0.007499004	-0.1394938	0.1599954	0	0
11.44543	0.07671756	0.4395947	-0.01916621	0.02410844	-0.3428436	0.5012739	0	0
11.46199	0.07690068	0.4397562	0.01105425	0.009752245	0.9172829	-0.4357542	0	0
11.47856	0.07716228	0.4401511	0.01579096	0.02383642	0.1429622	0.4250858	0	0
11.49513	0.07750235	0.4408153	0.02052766	0.04009376	0.1429621	0.4906757	0	0
11.52826	0.07752851	0.4411564	0.0007895026	0.01029524	-0.3971477	-0.5995705	0	0
11.56164	0.08058824	0.4428621	0.09165454	0.0510927	1.366045	0.6133401	0	0
11.57796	0.08495294	0.4451068	0.2675031	0.1375774	3.538216	1.740143	0	0
11.59453	0.08863557	0.4466336	0.2222971	0.09216151	-1.374765	-1.38115	0	0
11.61118	0.09025414	0.4454481	0.09721546	-0.07120482	-3.765759	-4.918373	0	0
11.62766	0.09656712	0.4411025	0.3829929	-0.2636344	8.625276	-5.807869	0	0
11.64423	0.1045646	0.4355568	0.4827564	-0.3347587	3.018601	-2.15205	0	0
11.66079	0.1101055	0.4317359	0.33447	-0.2306466	-4.47555	3.14229	0	0
11.67772	0.1237331	0.4223239	0.8048173	-0.5558504	14.04074	-9.707935	0	0
11.69392	0.1264532	0.4204425	0.1678993	-0.1161316	-19.22278	13.27112	0	0
11.71075	0.1294044	0.4184001	0.1754369	-0.1214107	0.2282531	-0.1598601	0	0
11.72726	0.1303359	0.4177552	0.0564186	-0.03906069	-3.570705	2.470607	0	0
11.74377	0.1303359	0.4177552	0	0	-1.70847	1.182837	0	0
11.76028	0.1303359	0.4177552	0	0	0	0	0	0
11.77676	0.1303359	0.4177552	0	0	0	0	0	0
11.79332	0.13031	0.4177732	-0.001561511	0.001081184	-0.04725433	0.03271872	0	0
11.80989	0.13031	0.4177732	0	0	0.0471292	-0.03263208	0	0
11.82683	0.13031	0.4177732	0	0	0	0	0	0
11.84302	0.13031	0.4177732	0	0	0	0	0	0
11.85985	0.13031	0.4177732	0	0	0	0	0	0
11.87616	0.13031	0.4177732	0	0	0	0	0	0
11.89287	0.13031	0.4177732	0	0	0	0	0	0
11.95899	0.1303359	0.4177552	0.0003912561	-0.0002709042	0.00472347	-0.003270513	0	0
11.97556	0.1303359	0.4177552	0	0	-0.004732023	0.003276436	0	0
11.99244	0.1303359	0.4177552	0	0	0	0	0	0
12.00869	0.1303359	0.4177552	0	0	0	0	0	0
12.03259	0.13031	0.4177732	-0.001082359	0.0007494214	-0.02696001	0.01866701	0	0
12.04948	0.13031	0.4177732	0	0	0.02653331	-0.01837157	0	0
12.06572	0.13031	0.4177732	0	0	0	0	0	0
12.08229	0.13031	0.4177732	0	0	0	0	0	0
12.09902	0.13031	0.4177732	0	0	0	0	0	0
12.11542	0.13031	0.4177732	0	0	0	0	0	0
12.13199	0.13031	0.4177732	0	0	0	0	0	0
12.14855	0.1302841	0.4177911	-0.001561511	0.001081184	-0.04713055	0.03263302	0	0
12.16557	0.1302841	0.4177911	0	0	0.04650541	-0.03220017	0	0
12.18258	0.1302583	0.417809	-0.001520801	0.001052997	-0.04470258	0.0309519	0	0
12.19859	0.1302583	0.417809	0	0	0.04605161	-0.03188596	0	0
12.21482	0.1302583	0.417809	0	0	0	0	0	0
12.23139	0.1302583	0.417809	0	0	0	0	0	0
12.24796	0.1302583	0.417809	0	0	0	0	0	0
12.26463	0.1302324	0.4177911	-0.001550975	-0.001073889	-0.04665276	-0.0323022	0	0
12.28115	0.1302065	0.4177732	-0.001567463	-0.001084681	-0.0004967586	-0.0003251292	0	0
12.29766	0.1301548	0.4177373	-0.003133846	-0.002169863	-0.04743461	-0.03286247	0	0
12.31422	0.1300513	0.4176298	-0.006246582	-0.00648853	-0.0941078	-0.1305669	0	0
12.33079	0.1299737	0.4175761	-0.004685701	-0.003243739	0.0471102	0.09793363	0	0
12.34735	0.1295338	0.4172358	-0.02655287	-0.0205443	-0.6600096	-0.522177	0	0
12.36392	0.1280585	0.4162148	-0.08905198	-0.0616275	-1.886335	-1.239965	0	0
12.38049	0.124925	0.4139403	-0.189151	-0.137296	-3.021168	-2.283811	0	0
12.39706	0.1200774	0.410592	-0.2925827	-0.2020916	-3.121574	-1.955536	0	0
12.41362	0.1137178	0.4056338	-0.383891	-0.2992991	-2.75569	-2.933729	0	0
12.43019	0.1023516	0.3969563	-0.6861031	-0.5238041	-9.121305	-6.775963	0	0
12.44675	0.09278544	0.390393	-0.5774818	-0.3962058	3.27848	3.851257	0	0
12.46332	0.08356807	0.3840822	-0.5563934	-0.3809438	0.6365048	0.4606463	0	0
12.47989	0.07485985	0.3780949	-0.5256597	-0.3614159	0.9275984	0.5893866	0	0
12.49645	0.06299549	0.3698579	-0.7161344	-0.4971866	-5.748705	-4.097684	0	0
12.51331	0.05400008	0.3635877	-0.5337462	-0.3720433	5.457364	3.744498	0	0
12.52982	0.04454945	0.357122	-0.572319	-0.3915536	-1.156042	-0.5847306	0	0
12.54633	0.0321731	0.3487106	-0.7495837	-0.5094474	-5.367782	-3.569962	0	0
12.56284	0.02320636	0.3426212	-0.5430155	-0.3687662	6.255124	4.259988	0	0
12.57929	0.01210467	0.3351212	-0.6751515	-0.4561155	-4.00945	-2.650471	0	0
12.59585	0.007210401	0.3317997	-0.2954358	-0.2004976	11.50321	7.743762	0	0
12.61242	0.0001842105	0.3270316	-0.4241017	-0.2878033	-3.883257	-2.634967	0	0
12.62899	-0.005710464	0.3230311	-0.3558238	-0.2414819	2.060692	1.398024	0	0
12.64555	-0.01226254	0.3185481	-0.3954615	-0.2705761	-1.19627	-0.8780666	0	0
12.66212	-0.01889249	0.3140469	-0.4002304	-0.2717257	-0.1439292	-0.03469494	0	0
12.67869	-0.02544188	0.309563	-0.3953446	-0.2706648	0.1474663	0.03201908	0	0
12.69544	-0.02849229	0.3075263	-0.1821103	-0.121591	6.400239	4.474459	0	0
12.71182	-0.03180506	0.3052393	-0.2022059	-0.1395927	-0.606503	-0.5433062	0	0
12.72839	-0.03175248	0.3052393	0.003173842	0	6.233178	4.236571	0	0
12.74495	-0.03172619	0.3052215	0.001586921	-0.001079385	-0.04789613	-0.03257778	0	0
12.76152	-0.03167361	0.3051857	0.003173842	-0.002156971	0.04789613	-0.03252349	0	0
12.84454	-0.01726144	0.2954282	0.1735983	-0.1175322	1.711321	-1.158543	0	0
12.86105	-0.01442005	0.2934977	0.1720713	-0.1169109	-0.0153422	0.00624211	0	0
12.87749	-0.009157639	0.2899221	0.3202206	-0.2175712	4.496651	-3.055258	0	0
12.89407	-0.005920983	0.2877229	0.1951066	-0.1325704	-3.788706	2.573997	0	0
12.91062	-0.0009210524	0.2842894	0.3022139	-0.2075311	3.232599	-2.262384	0	0
12.92719	0.004315763	0.2806586	0.316113	-0.219171	0.4197765	-0.3515438	0	0
12.94375	0.009710222	0.2758819	0.3256289	-0.2883398	0.2872082	-2.087639	0	0
12.96341	0.01368336	0.2643724	0.2021022	-0.5854546	-3.409957	-8.201857	0	0
12.98014	0.0150778	0.2574407	0.08336286	-0.4143939	-3.26328	4.701217	0	0
12.99654	0.01557769	0.2536956	0.03046763	-0.2282591	-1.596381	5.61756	0	0
13.01316	0.01776129	0.248802	0.1314092	-0.2944977	3.056628	-2.005783	0	0
13.02971	0.01636696	0.2467758	-0.08428331	-0.1224753	-6.504558	5.187616	0	0
13.04624	0.01718252	0.2447493	0.04930968	-0.1225269	4.038121	-0.001561824	0	0
13.06281	0.02060235	0.2424174	0.2064331	-0.1407599	4.746092	-0.5507488	0	0
13.07971	0.02083909	0.242256	0.014013	-0.009556697	-5.750644	3.921124	0	0
13.09622	0.02081278	0.2422739	-0.00159314	0.001086611	-0.4671754	0.3186113	0	0
13.11273	0.02081278	0.2422739	0	0	0.04824352	-0.0329048	0	0
13.12908	0.02081278	0.2422739	0	0	0	0	0	0
13.14565	0.02081278	0.2422739	0	0	0	0	0	0
13.16221	0.02081278	0.2422739	0	0	0	0	0	0
13.17878	0.02081278	0.2422739	0	0	0	0	0	0
13.19534	0.02081278	0.2422739	0	0	0	0	0	0
13.21191	0.02081278	0.2423098	0	0.002165966	0	0.06537275	0	0
13.22848	0.02078648	0.2423277	-0.001587821	0.001082983	-0.04792328	-0.03268638	0	0
13.24504	0.02078648	0.2423277	0	0	0.0479219	-0.03268544	0	0
13.26183	0.02078648	0.2423277	0	0	0	0	0	0
13.27818	0.02078648	0.2423277	0	0	0	0	0	0
13.29474	0.02078648	0.2423277	0	0	0	0	0	0
13.31131	0.02078648	0.2423636	0	0.002165067	0	0.06534561	0	0
13.32788	0.02078648	0.2423636	0	0	0	-0.06534372	0	0
13.34444	0.02078648	0.2423636	0	0	0	0	0	0
13.36101	0.02078648	0.2423636	0	0	0	0	0	0
13.37757	0.02078648	0.2423636	0	0	0	0	0	0
13.39414	0.02076017	0.2423815	-0.001587729	0.001082921	-0.04791914	0.03268356	0	0
13.41094	0.02078648	0.2423636	0.001566182	-0.001068224	0.09453494	-0.06447815	0	0
13.42745	0.02078648	0.2423636	0	0	-0.0470225	0.032072	0	0
13.44396	0.02076017	0.2423815	-0.001593048	0.001086548	-0.04823934	0.03290195	0	0
13.46041	0.02076017	0.2423815	0	0	0.04833286	-0.03296573	0	0
13.56004	0.02078648	0.2423636	0.0002640086	-0.0001800687	0.002274324	-0.001551218	0	0
13.57638	0.02076017	0.2423815	-0.001610536	0.001098476	-0.01616449	0.01102509	0	0
13.59307	0.02076017	0.2423815	0	0	0.04876889	-0.03326313	0	0
13.60958	0.02076017	0.2423815	0	0	0	0	0	0
13.62609	0.02076017	0.2423815	0	0	0	0	0	0
13.64264	0.02076017	0.2423815	0	0	0	0	0	0
13.65921	0.02076017	0.2423815	0	0	0	0	0	0
13.67578	0.02076017	0.2423815	0	0	0	0	0	0
13.69234	0.02076017	0.2423815	0	0	0	0	0	0
13.70891	0.02076017	0.2423815	0	0	0	0	0	0
13.72548	0.02076017	0.2423815	0	0	0	0	0	0
13.74204	0.02078648	0.2423636	0.001587821	-0.001082983	0.04792328	-0.03268638	0	0
13.75868	0.02078648	0.2423636	0	0	-0.04781455	0.03261222	0	0
13.7752	0.02078648	0.2423636	0	0	0	0	0	0
13.79174	0.02078648	0.2423636	0	0	0	0	0	0
13.85825	0.02076017	0.2423457	-0.000395481	-0.0002695163	-0.004761484	-0.003244903	0	0
13.87457	0.02076017	0.2423457	0	0	0.004774421	0.003253719	0	0
13.89114	0.02076017	0.2423457	0	0	0	0	0	0
13.90977	0.02076017	0.2423457	0	0	0	0	0	0
13.92633	0.02076017	0.2423457	0	0	0	0	0	0
13.9429	0.02076017	0.2423457	0	0	0	0	0	0
13.95947	0.02076017	0.2423457	0	0	0	0	0	0
13.97603	0.02076017	0.2423457	0	0	0	0	0	0
13.9926	0.02076017	0.2423457	0	0	0	0	0	0
14.00936	0.02076017	0.2423457	0	0	0	0	0	0
14.02587	0.02076017	0.2423457	0	0	0	0	0	0
14.0423	0.02076017	0.2423457	0	0	0	0	0	0
14.05887	0.02076017	0.2423457	0	0	0	0	0	0
14.07543	0.02076017	0.2423457	0	0	0	0	0	0
14.092	0.02076017	0.2423457	0	0	0	0	0	0
14.10857	0.02076017	0.2423457	0	0	0	0	0	0
14.12513	0.02076017	0.2423457	0	0	0	0	0	0
14.1417	0.02076017	0.2423457	0	0	0	0	0	0
14.15846	0.02078648	0.2423277	0.001568855	-0.001070047	0.04706635	-0.03210191	0	0
14.17483	0.02078648	0.2423277	0	0	-0.04734949	0.03229502	0	0
14.1914	0.02078648	0.2423277	0	0	0	0	0	0
14.208	0.02078648	0.2423277	0	0	0	0	0	0
14.22453	0.02078648	0.2423277	0	0	0	0	0	0
14.2411	0.02078648	0.2423277	0	0	0	0	0	0
14.25766	0.02078648	0.2423277	0	0	0	0	0	0
14.27454	0.02078648	0.2423277	0	0	0	0	0	0
14.29105	0.02078648	0.2423277	0	0	0	0	0	0
14.30756	0.02078648	0.2423277	0	0	0	0	0	0
14.32408	0.02078648	0.2423277	0	0	0	0	0	0
14.34059	0.02078648	0.2423277	0	0	0	0	0	0
14.3571	0.02078648	0.2423277	0	0	0	0	0	0
14.37363	0.02078648	0.2423277	0	0	0	0	0	0
14.3902	0.02078648	0.2423277	0	0	0	0	0	0
14.40714	0.02078648	0.2423277	0	0	0	0	0	0
14.42333	0.02078648	0.2423277	0	0	0	0	0	0
14.44016	0.02078648	0.2423277	0	0	0	0	0	0
14.45646	0.02078648	0.2423277	0	0	0	0	0	0
14.47318	0.02078648	0.2423277	0	0	0	0	0	0
14.48969	0.02078648	0.2423277	0	0	0	0	0	0
14.5062	0.02078648	0.2423277	0	0	0	0	0	0
14.52273	0.02078648	0.2423277	0	0	0	0	0	0
14.53973	0.02078648	0.2423277	0	0	0	0	0	0
14.55586	0.02078648	0.2423277	0	0	0	0	0	0
14.57243	0.02078648	0.2423277	0	0	0	0	0	0
14.58899	0.02078648	0.2423277	0	0	0	0	0	0
14.60577	0.02078648	0.2423277	0	0	0	0	0	0
14.62213	0.02078648	0.2423277	0	0	0	0	0	0
14.6388	0.02078648	0.2423277	0	0	0	0	0	0
14.65526	0.02078648	0.2423277	0	0	0	0	0	0
14.67183	0.02078648	0.2423277	0	0	0	0	0	0
14.75466	0.02073387	0.2423277	-0.0006351136	0	-0.006389501	0	0	0
14.77123	0.02073387	0.2423277	0	0	0.006389501	0	0	0
14.78779	0.02073387	0.2423277	0	0	0	0	0	0
14.80436	0.02073387	0.2423277	0	0	0	0	0	0
14.82093	0.02073387	0.2423277	0	0	0	0	0	0
14.83896	0.02073387	0.2423277	0	0	0	0	0	0
14.87209	0.02073387	0.2423277	0	0	0	0	0	0
14.88866	0.02073387	0.2423277	0	0	0	0	0	0
14.90548	0.02073387	0.2423277	0	0	0	0	0	0
14.92179	0.02073387	0.2423277	0	0	0	0	0	0
14.97657	0.02073387	0.2423277	0	0	0	0	0	0
14.99314	0.02073387	0.2423277	0	0	0	0	0	0
15.00971	0.02073387	0.2423277	0	0	0	0	0	0
15.02627	0.02073387	0.2423277	0	0	0	0	0	0
15.04284	0.02073387	0.2423277	0	0	0	0	0	0
15.05941	0.02073387	0.2423277	0	0	0	0	0	0
15.07597	0.02073387	0.2423277	0	0	0	0	0	0
15.10022	0.02076017	0.2423098	0.001084967	-0.0007400087	0.02658543	-0.01813276	0	0
15.11679	0.02076017	0.2423098	0	0	-0.02658481	0.01813234	0	0
15.13335	0.02076017	0.2423098	0	0	0	0	0	0
15.15016	0.02076017	0.2423098	0	0	0	0	0	0
15.16649	0.02076017	0.2423098	0	0	0	0	0	0
15.18305	0.02076017	0.2423098	0	0	0	0	0	0
15.19962	0.02076017	0.2423098	0	0	0	0	0	0
15.21618	0.02076017	0.2423098	0	0	0	0	0	0
15.23275	0.02076017	0.2423098	0	0	0	0	0	0
15.24932	0.02076017	0.2423098	0	0	0	0	0	0
15.26588	0.02076017	0.2423098	0	0	0	0	0	0
15.28245	0.02076017	0.2423098	0	0	0	0	0	0
15.29902	0.02076017	0.2423098	0	0	0	0	0	0
15.31558	0.02076017	0.2423098	0	0	0	0	0	0
15.34872	0.02076017	0.2423098	0	0	0	0	0	0
15.36528	0.02076017	0.2423098	0	0	0	0	0	0
15.38185	0.02076017	0.2423098	0	0	0	0	0	0
15.39842	0.02076017	0.2423098	0	0	0	0	0	0
15.41498	0.02076017	0.2423098	0	0	0	0	0	0
15.43155	0.02076017	0.2423098	0	0	0	0	0	0
15.44812	0.02076017	0.2423098	0	0	0	0	0	0
15.46468	0.02076017	0.2423098	0	0	0	0	0	0
15.48125	0.02076017	0.2423098	0	0	0	0	0	0
15.51441	0.02076017	0.2423098	0	0	0	0	0	0
15.53095	0.02076017	0.2423098	0	0	0	0	0	0
15.54751	0.02076017	0.2423098	0	0	0	0	0	0
15.56408	0.02076017	0.2423098	0	0	0	0	0	0
15.58065	0.02076017	0.2423098	0	0	0	0	0	0
15.61378	0.02076017	0.2423098	0	0	0	0	0	0
15.63049	0.02076017	0.2423098	0	0	0	0	0	0
15.64691	0.02076017	0.2423098	0	0	0	0	0	0
15.66351	0.02076017	0.2423098	0	0	0	0	0	0
15.68005	0.02076017	0.2423098	0	0	0	0	0	0
15.69661	0.02076017	0.2423098	0	0	0	0	0	0
15.71318	0.02076017	0.2423098	0	0	0	0	0	0
15.72975	0.02076017	0.2423098	0	0	0	0	0	0
15.74631	0.02076017	0.2423098	0	0	0	0	0	0
15.76638	0.02076017	0.2423098	0	0	0	0	0	0
15.78295	0.02076017	0.2423098	0	0	0	0	0	0
15.79951	0.02076017	0.2423098	0	0	0	0	0	0
15.81608	0.02076017	0.2423098	0	0	0	0	0	0
15.83265	0.02076017	0.2423098	0	0	0	0	0	0
15.84921	0.02076017	0.2423098	0	0	0	0	0	0
15.86578	0.02076017	0.2423098	0	0	0	0	0	0
15.88235	0.02076017	0.2423098	0	0	0	0	0	0
15.89891	0.02076017	0.2423098	0	0	0	0	0	0
15.91548	0.02076017	0.2423098	0	0	0	0	0	0
15.9322	0.02076017	0.2423098	0	0	0	0	0	0
15.94861	0.02076017	0.2423098	0	0	0	0	0	0
15.96522	0.02076017	0.2423098	0	0	0	0	0	0
15.98175	0.02076017	0.2423098	0	0	0	0	0	0
15.99831	0.02076017	0.2423098	0	0	0	0	0	0
16.01488	0.02076017	0.2423098	0	0	0	0	0	0
16.03145	0.02076017	0.2423098	0	0	0	0	0	0
16.04828	0.02076017	0.2423098	0	0	0	0	0	0
16.06458	0.02076017	0.2423098	0	0	0	0	0	0
16.08115	0.02076017	0.2423098	0	0	0	0	0	0
16.09771	0.02076017	0.2423098	0	0	0	0	0	0
16.11428	0.02076017	0.2423098	0	0	0	0	0	0
16.13085	0.02076017	0.2423098	0	0	0	0	0	0
16.14741	0.02076017	0.2423098	0	0	0	0	0	0
16.16398	0.02076017	0.2423098	0	0	0	0	0	0
16.18055	0.02076017	0.2423098	0	0	0	0	0	0
16.24681	0.02076017	0.2423098	0	0	0	0	0	0
16.26338	0.02076017	0.2423098	0	0	0	0	0	0
16.27995	0.02076017	0.2423098	0	0	0	0	0	0
16.29651	0.02076017	0.2423098	0	0	0	0	0	0
16.31308	0.02076017	0.2423098	0	0	0	0	0	0
16.32998	0.02076017	0.2423098	0	0	0	0	0	0
16.34649	0.02076017	0.2423098	0	0	0	0	0	0
16.36278	0.02076017	0.2423098	0	0	0	0	0	0
16.37934	0.02076017	0.2423098	0	0	0	0	0	0
16.39591	0.02076017	0.2423098	0	0	0	0	0	0
16.41248	0.02076017	0.2423098	0	0	0	0	0	0
16.46218	0.02076017	0.2423098	0	0	0	0	0	0
16.47875	0.02076017	0.2423098	0	0	0	0	0	0
16.49531	0.02076017	0.2423098	0	0	0	0	0	0
16.51211	0.02076017	0.2423098	0	0	0	0	0	0
16.52862	0.02076017	0.2423098	0	0	0	0	0	0
16.54501	0.02076017	0.2423098	0	0	0	0	0	0
16.56158	0.02076017	0.2423098	0	0	0	0	0	0
16.57816	0.02076017	0.2423098	0	0	0	0	0	0
16.59472	0.02076017	0.2423098	0	0	0	0	0	0
16.61128	0.02076017	0.2423098	0	0	0	0	0	0
16.62785	0.02076017	0.2423098	0	0	0	0	0	0
16.64441	0.02076017	0.2423098	0	0	0	0	0	0
16.66122	0.02076017	0.2423098	0	0	0	0	0	0
16.69773	0.02076017	0.2423098	0	0	0	0	0	0
16.7143	0.02076017	0.2423098	0	0	0	0	0	0
16.73086	0.02076017	0.2423098	0	0	0	0	0	0
16.74781	0.02076017	0.2423098	0	0	0	0	0	0
16.764	0.02076017	0.2423098	0	0	0	0	0	0
16.7808	0.02076017	0.2423098	0	0	0	0	0	0
16.79732	0.02076017	0.2423098	0	0	0	0	0	0
16.8137	0.02076017	0.2423098	0	0	0	0	0	0
16.83026	0.02076017	0.2423098	0	0	0	0	0	0
16.84683	0.02076017	0.2423098	0	0	0	0	0	0
16.86339	0.02076017	0.2423098	0	0	0	0	0	0
16.87996	0.02076017	0.2423098	0	0	0	0	0	0
16.89653	0.02076017	0.2423098	0	0	0	0	0	0
16.91309	0.02076017	0.2423098	0	0	0	0	0	0
16.9299	0.02076017	0.2423098	0	0	0	0	0	0
16.94623	0.02076017	0.2423098	0	0	0	0	0	0
16.97936	0.02076017	0.2423098	0	0	0	0	0	0
16.99593	0.02076017	0.2423098	0	0	0	0	0	0
17.0125	0.02076017	0.2423098	0	0	0	0	0	0
17.02906	0.02076017	0.2423098	0	0	0	0	0	0
17.04563	0.02076017	0.2423098	0	0	0	0	0	0
17.0622	0.02076017	0.2423098	0	0	0	0	0	0
17.07876	0.02076017	0.2423098	0	0	0	0	0	0
17.09533	0.02076017	0.2423098	0	0	0	0	0	0
17.1119	0.02076017	0.2423098	0	0	0	0	0	0
17.12847	0.02076017	0.2423098	0	0	0	0	0	0
17.14507	0.02076017	0.2423098	0	0	0	0	0	0
17.1616	0.02076017	0.2423098	0	0	0	0	0	0
17.17817	0.02076017	0.2423098	0	0	0	0	0	0
17.19473	0.02076017	0.2423098	0	0	0	0	0	0
17.21161	0.02076017	0.2423098	0	0	0	0	0	0
17.22787	0.02076017	0.2423098	0	0	0	0	0	0
17.3107	0.02076017	0.2423098	0	0	0	0	0	0
17.32727	0.02076017	0.2423098	0	0	0	0	0	0
17.34383	0.02076017	0.2423098	0	0	0	0	0	0
17.3604	0.02076017	0.2423098	0	0	0	0	0	0
17.37697	0.02076017	0.2423098	0	0	0	0	0	0
17.39354	0.02076017	0.2423098	0	0	0	0	0	0
17.4101	0.02076017	0.2423098	0	0	0	0	0	0
17.42667	0.02076017	0.2423098	0	0	0	0	0	0
17.44323	0.02076017	0.2423098	0	0	0	0	0	0
17.4598	0.02076017	0.2423098	0	0	0	0	0	0
17.47637	0.02076017	0.2423098	0	0	0	0	0	0
17.49293	0.02076017	0.2423098	0	0	0	0	0	0
17.5095	0.02076017	0.2423098	0	0	0	0	0	0
17.52607	0.02076017	0.2423098	0	0	0	0	0	0
17.54285	0.02076017	0.2423098	0	0	0	0	0	0
17.55936	0.02076017	0.2423098	0	0	0	0	0	0
17.57577	0.02076017	0.2423098	0	0	0	0	0	0
17.61209	0.02076017	0.2423098	0	0	0	0	0	0
17.62866	0.02076017	0.2423098	0	0	0	0	0	0
17.64542	0.02076017	0.2423098	0	0	0	0	0	0
17.66193	0.02076017	0.2423098	0	0	0	0	0	0
17.67844	0.02076017	0.2423098	0	0	0	0	0	0
17.69495	0.02076017	0.2423098	0	0	0	0	0	0
17.71149	0.02076017	0.2423098	0	0	0	0	0	0
17.72806	0.02076017	0.2423098	0	0	0	0	0	0
17.74462	0.02076017	0.2423098	0	0	0	0	0	0
17.76119	0.02076017	0.2423098	0	0	0	0	0	0
17.77776	0.02076017	0.2423098	0	0	0	0	0	0
17.79432	0.02076017	0.2423098	0	0	0	0	0	0
17.81104	0.02076017	0.2423098	0	0	0	0	0	0
17.82755	0.02076017	0.2423098	0	0	0	0	0	0
17.84406	0.02076017	0.2423098	0	0	0	0	0	0
17.86059	0.02076017	0.2423098	0	0	0	0	0	0
17.87716	0.02076017	0.2423098	0	0	0	0	0	0
17.89372	0.02076017	0.2423098	0	0	0	0	0	0
17.91029	0.02076017	0.2423098	0	0	0	0	0	0
17.92686	0.02076017	0.2423098	0	0	0	0	0	0
17.94342	0.02076017	0.2423098	0	0	0	0	0	0
17.95999	0.02076017	0.2423098	0	0	0	0	0	0
17.97656	0.02076017	0.2423098	0	0	0	0	0	0
17.99313	0.02076017	0.2423098	0	0	0	0	0	0
18.00969	0.02076017	0.2423098	0	0	0	0	0	0
18.02626	0.02076017	0.2423098	0	0	0	0	0	0
18.04283	0.02073387	0.2423277	-0.001587912	0.001083045	-0.04792604	0.03268826	0	0
18.05939	0.02073387	0.2423277	0	0	0.04792604	-0.03268826	0	0
18.07596	0.02076017	0.2423098	0.001587729	-0.001082921	0.04791776	-0.03268262	0	0
18.09253	0.02076017	0.2423098	0	0	-0.04791776	0.03268262	0	0
18.10909	0.02076017	0.2423098	0	0	0	0	0	0
18.2085	0.08881834	0.1715035	0.6846796	-0.7123262	5.904004	-6.142401	0	0
18.22506	0.09218534	0.1403478	0.2032325	-1.880564	-4.151526	-10.07373	0	0
18.24185	0.0928898	0.1114293	0.04197521	-1.723105	-4.835302	4.721404	0	0
18.2582	0.09291589	0.09267329	0.001595671	-1.147038	-1.218657	17.38573	0	0
18.27476	0.09275936	0.07669746	-0.009449662	-0.9644142	-0.3355508	5.54801	0	0
18.29138	0.09202878	0.05943904	-0.04396089	-1.038492	-1.039994	-2.232329	0	0
18.3079	0.08949713	0.04610249	-0.1532875	-0.8075063	-3.299484	6.97116	0	0
18.32446	0.08827003	0.04095212	-0.07406764	-0.3108765	2.394582	15.01165	0	0
18.34103	0.08469167	0.03135764	-0.2159905	-0.5791243	-4.283241	-8.095734	0	0
18.3576	0.08254883	0.02328996	-0.129342	-0.486966	2.615057	2.781341	0	0
18.37417	0.08129413	0.01482916	-0.07573385	-0.5106951	1.617898	-0.7161443	0	0
18.39095	0.08024835	0.001798042	-0.06229142	-0.7761937	0.4030024	-7.959615	0	0
18.4073	0.07964694	-0.008659611	-0.03679643	-0.6398439	0.7694846	4.115284	0	0
18.42398	0.07912394	-0.02250412	-0.03135945	-0.8301134	0.1646475	-5.761913	0	0
18.44049	0.07828704	-0.02895532	-0.05068469	-0.3906994	-0.5822648	13.23944	0	0
18.457	0.07676988	-0.03724783	-0.09188239	-0.5022134	-1.247514	-3.37677	0	0
18.47401	0.07294927	-0.0482381	-0.2245881	-0.6460444	-3.958582	-4.290448	0	0
18.49013	0.06959794	-0.05083898	-0.2079118	-0.161355	0.5033512	14.62964	0	0
18.5067	0.06386042	-0.05499372	-0.3463174	-0.25078	-4.234371	-2.735862	0	0
18.52355	0.06116047	-0.05692951	-0.1602389	-0.1148875	5.56842	4.066601	0	0
18.54006	0.0599806	-0.05779242	-0.07146394	-0.0522655	2.661159	1.877184	0	0
18.5564	0.05995438	-0.0578116	-0.001604768	-0.001173653	2.126594	1.555295	0	0
18.57658	0.05992816	-0.05779242	-0.001298884	0.0009500791	0.008374469	0.05814347	0	0
18.59315	0.05990193	-0.05777324	-0.001582782	0.001157574	-0.007724544	0.005645704	0	0
18.60972	0.05987571	-0.05775406	-0.001582782	0.001157574	0	0	0	0
18.62629	0.05987571	-0.05775406	0	0	0.04776846	-0.03493565	0	0
18.64285	0.05984949	-0.05773488	-0.001582782	0.001157799	-0.04776846	0.03494244	0	0
18.65942	0.05982327	-0.0577157	-0.001582782	0.001157574	0	-6.784417E-06	0	0
18.67599	0.05979705	-0.05769653	-0.001582557	0.001157574	6.784417E-06	0	0	0
18.69267	0.05979705	-0.05769653	0	0	0.04759729	-0.0348154	0	0
18.70918	0.05977083	-0.05767735	-0.001588268	0.001161586	-0.04785138	0.0349963	0	0
18.72569	0.05977083	-0.05767735	0	0	0.04810015	-0.03517823	0	0
18.74225	0.05977083	-0.05767735	0	0	0	0	0	0
18.75882	0.05977083	-0.05767735	0	0	0	0	0	0
18.77539	0.05977083	-0.05767735	0	0	0	0	0	0
18.79196	0.05977083	-0.05767735	0	0	0	0	0	0
18.80852	0.05977083	-0.05767735	0	0	0	0	0	0
18.82509	0.05977083	-0.05767735	0	0	0	0	0	0
18.84166	0.05977083	-0.05767735	0	0	0	0	0	0
18.85822	0.05977083	-0.05767735	0	0	0	0	0	0
18.97419	0.05977083	-0.05767735	0	0	0	0	0	0
18.99088	0.05977083	-0.05767735	0	0	0	0	0	0
19.0074	0.05977083	-0.05767735	0	0	0	0	0	0
19.07304	0.05969216	-0.05761982	-0.001198365	0.0008763724	-0.01458592	0.01066678	0	0
19.08996	0.05942993	-0.0573897	-0.01550495	0.01360646	-0.173292	0.1541962	0	0
19.10618	0.05859076	-0.05673779	-0.05172452	0.04018188	-1.093046	0.8020018	0	0
19.12298	0.05819736	-0.0564119	-0.02341643	0.01939865	0.8572017	-0.6293405	0	0
19.13931	0.05405256	-0.05311665	-0.2537744	0.2017585	-6.952618	5.503949	0	0
19.15588	0.0465453	-0.04669014	-0.4531389	0.3879049	-6.059739	5.657969	0	0
19.17245	0.04018888	-0.03795259	-0.3836748	0.5273997	2.096431	4.209962	0	0
19.18903	0.03545881	-0.01911309	-0.2852443	1.136108	2.969271	18.36239	0	0
19.20558	0.03440747	-0.001251048	-0.0635253	1.079273	6.691879	-1.71537	0	0
19.22255	0.03419719	0.01100384	-0.01239138	0.7221635	1.525487	-10.65372	0	0
19.23871	0.03430233	0.03441567	0.006504962	1.448495	0.5703255	21.92198	0	0
19.25557	0.03388176	0.04989108	-0.024943	0.9178249	-0.9522806	-16.0693	0	0
19.27209	0.03354005	0.06798495	-0.02069518	1.095806	0.1272834	5.333112	0	0
19.28841	0.03272516	0.07837513	-0.04991101	0.6363842	-0.8896736	-13.99021	0	0
19.30498	0.0316999	0.08925481	-0.06188434	0.6566988	-0.3639956	0.6175744	0	0
19.32162	0.03064829	0.09682342	-0.06319148	0.4548003	-0.03936134	-6.07966	0	0
19.33813	0.02904446	0.103848	-0.09713181	0.4254252	-1.023732	-0.8860315	0	0
19.35468	0.02604674	0.1114293	-0.1811514	0.4581361	-2.541423	0.9894385	0	0
19.37166	0.02536298	0.1149778	-0.04027484	0.2090127	4.202078	-7.430872	0	0
19.38782	0.02178603	0.121921	-0.2213853	0.4297285	-5.465923	6.661218	0	0
19.40438	0.02141778	0.1319899	-0.02222753	0.6077628	6.085912	5.440415	0	0
19.43751	0.0215756	0.1437491	0.004763567	0.3549349	0.5431037	-5.087297	0	0
19.45408	0.0215493	0.1554291	-0.001587617	0.7050021	-0.1277959	7.043908	0	0
19.47065	0.02175972	0.1693856	0.01270138	0.8424171	0.4312429	4.147191	0	0
19.48722	0.02149669	0.1777084	-0.01587673	0.5023682	-0.8624892	-10.26269	0	0
19.50425	0.02112843	0.1862376	-0.02161326	0.5005851	-0.1707019	-0.05306062	0	0
19.54078	0.02102322	0.2048866	-0.00288063	0.510572	0.3497239	0.1864473	0	0
19.55732	0.02170712	0.2168748	0.04135158	0.7248597	0.833558	4.038261	0	0
19.57388	0.02225948	0.2324922	0.03334085	0.9426699	-0.2419733	6.579208	0	0
19.59082	0.02220687	0.2390622	-0.003107024	0.3880349	-1.088036	-16.55688	0	0
19.60702	0.02291704	0.2503438	0.04382944	0.6962671	1.416545	9.302466	0	0
19.62358	0.0244425	0.2545379	0.09208754	0.2531862	1.472709	-13.52166	0	0
19.64015	0.0248107	0.2584798	0.0222245	0.2379314	-2.108592	-0.4604172	0	0
19.65672	0.02675677	0.2614533	0.1174652	0.1794806	2.87437	-1.764047	0	0
19.67337	0.02688826	0.2614712	0.007894589	0.001075427	-3.298114	-5.37006	0	0
19.68985	0.02686196	0.2614891	-0.00159573	0.001086878	-0.2864184	0.0003456012	0	0
19.70642	0.02683566	0.2614712	-0.001587279	-0.001081122	0.0002557199	-0.06560408	0	0
19.72299	0.02686196	0.2614891	0.001587279	0.001081122	0.09580838	0.06525666	0	0
19.73956	0.02686196	0.2614891	0	0	-0.04790419	-0.03262833	0	0
19.75644	0.02686196	0.2614891	0	0	0	0	0	0
19.77269	0.02686196	0.2614891	0	0	0	0	0	0
19.78926	0.02680936	0.2615249	-0.003174559	0.002162244	-0.09672148	0.06587858	0	0
19.80582	0.02680936	0.2615249	0	0	0.09580838	-0.06525666	0	0
19.82248	0.02680936	0.2615249	0	0	0	0	0	0
19.83899	0.02680936	0.2615249	0	0	0	0	0	0
19.85552	0.02680936	0.2614891	0	-0.002167234	0	-0.06559226	0	0
19.87209	0.02683566	0.2614712	0.001587279	-0.001081122	0.04795941	0.0328167	0	0
19.88866	0.02683566	0.2614354	0	-0.002162244	-0.04790419	-0.03262833	0	0
19.90554	0.02683566	0.2614354	0	0	0	0.0646353	0	0
19.92179	0.02686196	0.2614174	0.001618395	-0.001102315	0.04884327	-0.03326795	0	0
19.95493	0.02688826	0.2613279	0.0007936854	-0.00270296	-0.01670087	-0.03241402	0	0
19.97159	0.02688826	0.2612921	0	-0.002149622	-0.0159384	0.01111186	0	0
19.9881	0.02688826	0.2612562	0	-0.002169487	0	-0.0005987649	0	0
20.00463	0.02691455	0.2612025	0.001591494	-0.003251977	0.04817558	-0.03276769	0	0
20.02119	0.02691455	0.2611309	0	-0.004324488	-0.04809505	-0.03241136	0	0
20.03814	0.02688826	0.2610771	-0.001551903	-0.00317108	-0.04630873	0.03441764	0	0
20.05433	0.02686196	0.2610234	-0.001624497	-0.003319415	-0.002191018	-0.004477017	0	0
20.07089	0.02686196	0.2610234	0	0	0.04959555	0.101341	0	0
20.08746	0.02683566	0.2610055	-0.001587279	-0.001081122	-0.04790419	-0.03262833	0	0
20.10419	0.02683566	0.2610055	0	0	0.0476764	0.03247318	0	0
20.12059	0.02683566	0.2609697	0	-0.002183358	0	-0.06589768	0	0
20.15373	0.02680936	0.2609518	-0.0007936397	-0.000540561	-0.0160197	0.03316004	0	0
20.17029	0.02680936	0.2609518	0	0	0.01596806	0.01087611	0	0
20.18686	0.02680936	0.2609518	0	0	0	0	0	0
20.20343	0.02678307	0.2609338	-0.001587645	-0.001081371	-0.04791798	-0.03263772	0	0
20.22027	0.02678307	0.2609338	0	0	0.04752945	0.03237308	0	0
20.23656	0.02675677	0.2608801	-0.001614038	-0.003298042	-0.04871456	-0.09954084	0	0
20.25313	0.02678307	0.2608622	0.001587279	-0.001081122	0.0974235	0.06746603	0	0
20.26969	0.02675677	0.2608443	-0.001587279	-0.001081122	-0.09580838	0	0	0
20.28626	0.02675677	0.2608443	0	0	0.04790419	0.03262833	0	0
20.30283	0.02675677	0.2608443	0	0	0	0	0	0
20.3194	0.02675677	0.2608085	0	-0.002162244	0	-0.06525666	0	0
20.33596	0.02675677	0.2608085	0	0	0	0.06526041	0	0
20.35253	0.02675677	0.2608085	0	0	0	0	0	0
20.36909	0.02675677	0.2608085	0	0	0	0	0	0
20.38566	0.02675677	0.2608085	0	0	0	0	0	0
20.42093	0.02675677	0.2608085	0	0	0	0	0	0
20.45407	0.02675677	0.2608085	0	0	0	0	0	0
20.47063	0.02675677	0.2608085	0	0	0	0	0	0
20.4872	0.02673047	0.2607906	-0.001587279	-0.001081122	-0.04790419	-0.03262833	0	0
20.50377	0.02673047	0.2607906	0	0	0.04790419	0.03262833	0	0
20.52034	0.02670418	0.2607368	-0.001587279	-0.003243366	-0.04790419	-0.09788498	0	0
20.5369	0.02667788	0.2607189	-0.001587279	-0.001081122	0	0.06525665	0	0
20.55347	0.02665158	0.260701	-0.001587392	-0.001081122	-3.390452E-06	0	0	0
20.57004	0.02662528	0.2606831	-0.001587279	-0.001081122	3.390452E-06	0	0	0
20.58661	0.02659899	0.2606652	-0.001587279	-0.001081122	0	0	0	0
20.60317	0.02657269	0.2606473	-0.001587462	-0.001081246	-5.516389E-06	-3.756064E-06	0	0
20.62006	0.02657269	0.2606473	0	0	0.04745623	0.03232322	0	0
20.6363	0.02657269	0.2606114	0	-0.002204631	0	-0.06653589	0	0
20.65287	0.0265201	0.2605756	-0.003174559	-0.002162244	-0.09673835	0.001291654	0	0
20.66944	0.02630972	0.2604323	-0.01269857	-0.008648976	-0.2874353	-0.19577	0	0
20.68601	0.02567857	0.2600024	-0.03809639	-0.02594873	-0.7665078	-0.5221075	0	0
20.70257	0.02536298	0.2597516	-0.0190509	-0.01513925	0.5748274	0.3262494	0	0
20.71914	0.02536298	0.2597516	0	0	0.5749903	0.4569297	0	0
20.73571	0.02536298	0.2597516	0	0	0	0	0	0
20.75265	0.02536298	0.2597516	0	0	0	0	0	0
20.85172	0.02538928	0.2597337	0.0002654567	-0.0001807941	0.002288134	-0.001558375	0	0
20.86824	0.02538928	0.2597337	0	0	-0.002296554	0.001564109	0	0
20.88481	0.02538928	0.2597337	0	0	0	0	0	0
20.90137	0.02538928	0.2597337	0	0	0	0	0	0
20.91794	0.02541558	0.2597158	0.001587392	-0.001081122	0.04791034	-0.03263021	0	0
20.93451	0.02541558	0.2597158	0	0	-0.04790758	0.03262833	0	0
20.95129	0.02541558	0.2597158	0	0	0	0	0	0
20.96781	0.02541558	0.2597158	0	0	0	0	0	0
20.98421	0.02544188	0.2596979	0.001603266	-0.001091933	0.0487091	-0.03317422	0	0
21.00083	0.02544188	0.2596979	0	0	-0.04854875	0.033065	0	0
21.01734	0.02546818	0.25968	0.001592709	-0.001084744	0.04807083	-0.03273951	0	0
21.03391	0.02546818	0.2596442	0	-0.002162244	-0.04814844	-0.0325734	0	0
21.05048	0.02549447	0.2596263	0.001587392	-0.001081122	0.04790758	0.03262833	0	0
21.06704	0.02549447	0.2596263	0	0	-0.04790758	0.03262833	0	0
21.08389	0.02549447	0.2596263	0	0	0	0	0	0
21.10018	0.02549447	0.2596263	0	0	0	0	0	0
21.11691	0.02549447	0.2596263	0	0	0	0	0	0
21.13331	0.02549447	0.2596263	0	0	0	0	0	0
21.14993	0.02549447	0.2596263	0	0	0	0	0	0
21.16644	0.02549447	0.2596263	0	0	0	0	0	0
21.18301	0.02549447	0.2596263	0	0	0	0	0	0
21.19958	0.02549447	0.2596263	0	0	0	0	0	0
21.21614	0.02549447	0.2596263	0	0	0	0	0	0
21.23299	0.02549447	0.2596263	0	0	0	0	0	0
21.26584	0.02549447	0.2596263	0	0	0	0	0	0
21.28241	0.02549447	0.2596263	0	0	0	0	0	0
21.29904	0.02549447	0.2596263	0	0	0	0	0	0
21.31554	0.02552077	0.2596084	0.001593814	-0.001085496	0.04810417	-0.03276222	0	0
21.33211	0.02552077	0.2596084	0	0	-0.04819851	0.03282647	0	0
21.34868	0.02552077	0.2596084	0	0	0	0	0	0
21.36524	0.02552077	0.2596084	0	0	0	0	0	0
21.38181	0.02552077	0.2596084	0	0	0	0	0	0
21.4002	0.02552077	0.2596084	0	0	0	0	0	0
21.41713	0.02552077	0.2596084	0	0	0	0	0	0
21.43333	0.02552077	0.2596084	0	0	0	0	0	0
21.45015	0.02552077	0.2596084	0	0	0	0	0	0
21.46646	0.02552077	0.2596084	0	0	0	0	0	0
21.48317	0.02554707	0.2595904	0.001574162	-0.001073895	0.04767296	-0.03252256	0	0
21.49969	0.02552077	0.2595725	-0.001592526	-0.001084618	-0.0953239	-0.0003227816	0	0
21.51616	0.02552077	0.2595725	0	0	0.04826812	0.03287388	0	0
21.56587	0.02554707	0.2595546	0.0005291306	-0.000360374	0.007995183	-0.005445263	0	0
21.58274	0.02554707	0.2595546	0	0	-0.007947313	0.005412661	0	0
21.599	0.02554707	0.2595546	0	0	0	0	0	0
21.61577	0.02554707	0.2595546	0	0	0	0	0	0
21.63228	0.02554707	0.2595546	0	0	0	0	0	0
21.64879	0.02554707	0.2595546	0	0	0	0	0	0
21.66527	0.02554707	0.2595546	0	0	0	0	0	0
21.6984	0.02554707	0.2595546	0	0	0	0	0	0
21.71534	0.02554707	0.2595546	0	0	0	0	0	0
21.73153	0.02554707	0.2595546	0	0	0	0	0	0
21.74836	0.02554707	0.2595546	0	0	0	0	0	0
21.76467	0.02554707	0.2595546	0	0	0	0	0	0
21.78124	0.02554707	0.2595546	0	0	0	0	0	0
21.7978	0.02554707	0.2595546	0	0	0	0	0	0
21.8211	0.02554707	0.2595546	0	0	0	0	0	0
21.83767	0.02554707	0.2595546	0	0	0	0	0	0
21.85444	0.02554707	0.2595546	0	0	0	0	0	0
21.8708	0.02554707	0.2595546	0	0	0	0	0	0
21.88737	0.02554707	0.2595546	0	0	0	0	0	0
21.90397	0.02554707	0.2595546	0	0	0	0	0	0
21.9205	0.02554707	0.2595546	0	0	0	0	0	0
21.93707	0.02554707	0.2595546	0	0	0	0	0	0
21.95364	0.02554707	0.2595546	0	0	0	0	0	0
21.9702	0.02554707	0.2595546	0	0	0	0	0	0
21.98677	0.02554707	0.2595546	0	0	0	0	0	0
22.00334	0.02554707	0.2595546	0	0	0	0	0	0
22.02006	0.02554707	0.2595546	0	0	0	0	0	0
22.03657	0.02554707	0.2595546	0	0	0	0	0	0
22.05304	0.02554707	0.2595546	0	0	0	0	0	0
22.0696	0.02557337	0.2595367	0.001587392	-0.001081122	0.04804864	-0.0327244	0	0
22.08617	0.02557337	0.2595367	0	0	-0.04790758	0.03262833	0	0
22.10274	0.02557337	0.2595367	0	0	0	0	0	0
22.11931	0.02557337	0.2595367	0	0	0	0	0	0
22.13587	0.02557337	0.2595367	0	0	0	0	0	0
22.15265	0.02557337	0.2595367	0	0	0	0	0	0
22.16901	0.02554707	0.2595188	-0.00160794	-0.001095117	-0.04852773	-0.03305069	0	0
22.18558	0.02554707	0.2595188	0	0	0.04883979	0.03326322	0	0
22.26841	0.02554707	0.2595188	0	0	0	0	0	0
22.28498	0.02557337	0.2595009	0.001587392	-0.001081122	0.01596919	-0.01087611	0	0
22.30154	0.02557337	0.2595009	0	0	-0.04791034	0.03263021	0	0
22.31811	0.02557337	0.2595009	0	0	0	0	0	0
22.33468	0.02557337	0.2595009	0	0	0	0	0	0
22.35697	0.02557337	0.2595009	0	0	0	0	0	0
22.37354	0.02557337	0.2595009	0	0	0	0	0	0
22.39011	0.02557337	0.2595009	0	0	0	0	0	0
22.40684	0.02559967	0.2594829	0.001572188	-0.001070767	0.04722039	-0.0321603	0	0
22.42335	0.02559967	0.2594829	0	0	-0.04729897	0.03221382	0	0
22.43986	0.02559967	0.2594829	0	0	0	0	0	0
22.45638	0.02559967	0.2594829	0	0	0	0	0	0
22.50608	0.02559967	0.2594829	0	0	0	0	0	0
22.52264	0.02559967	0.2594829	0	0	0	0	0	0
22.53921	0.02559967	0.2594829	0	0	0	0	0	0
22.55578	0.02559967	0.2594829	0	0	0	0	0	0
22.57234	0.02559967	0.2594829	0	0	0	0	0	0
22.58897	0.02562597	0.259465	0.00158211	-0.001077524	0.04767133	-0.03246742	0	0
22.60548	0.02562597	0.259465	0	0	-0.04775092	0.03252162	0	0
22.62204	0.02562597	0.259465	0	0	0	0	0	0
22.63861	0.02559967	0.2594471	-0.001587392	-0.001081122	-0.04790758	-0.03262833	0	0
22.65551	0.02559967	0.2594471	0	0	0.04742708	0.03230108	0	0
22.67203	0.02559967	0.2594471	0	0	0	0	0	0
22.68831	0.02559967	0.2594471	0	0	0	0	0	0
22.70488	0.02559967	0.2594471	0	0	0	0	0	0
22.72156	0.02559967	0.2594471	0	0	0	0	0	0
22.73807	0.02559967	0.2594471	0	0	0	0	0	0
22.75459	0.02559967	0.2594471	0	0	0	0	0	0
22.77114	0.02559967	0.2594471	0	0	0	0	0	0
22.78771	0.02559967	0.2594471	0	0	0	0	0	0
22.80428	0.02559967	0.2594471	0	0	0	0	0	0
22.82085	0.02559967	0.2594471	0	0	0	0	0	0
22.83741	0.02559967	0.2594471	0	0	0	0	0	0
22.85398	0.02559967	0.2594471	0	0	0	0	0	0
22.88718	0.02559967	0.2594471	0	0	0	0	0	0
22.90368	0.02559967	0.2594471	0	0	0	0	0	0
22.92025	0.02559967	0.2594471	0	0	0	0	0	0
22.93682	0.02559967	0.2594471	0	0	0	0	0	0
22.95338	0.02559967	0.2594471	0	0	0	0	0	0
22.96995	0.02559967	0.2594471	0	0	0	0	0	0
22.98652	0.02559967	0.2594471	0	0	0	0	0	0
23.00309	0.02559967	0.2594471	0	0	0	0	0	0
23.01978	0.02559967	0.2594471	0	0	0	0	0	0
23.03622	0.02559967	0.2594471	0	0	0	0	0	0
23.05279	0.02562597	0.2594292	0.001587392	-0.001081122	0.04809584	-0.03275654	0	0
23.06935	0.02562597	0.2594292	0	0	-0.04790758	0.03262833	0	0
23.08633	0.02562597	0.2594292	0	0	0	0	0	0
23.10249	0.02562597	0.2594292	0	0	0	0	0	0
23.15836	0.02562597	0.2594292	0	0	0	0	0	0
23.17493	0.02562597	0.2594292	0	0	0	0	0	0
23.19149	0.02562597	0.2594292	0	0	0	0	0	0
23.20806	0.02562597	0.2594292	0	0	0	0	0	0
23.22463	0.02562597	0.2594292	0	0	0	0	0	0
23.2412	0.02562597	0.2594292	0	0	0	0	0	0
23.25776	0.02562597	0.2594292	0	0	0	0	0	0
23.27433	0.02562597	0.2594292	0	0	0	0	0	0
23.31	0.02562597	0.2594292	0	0	0	0	0	0
23.3597	0.02562597	0.2594292	0	0	0	0	0	0
23.42597	0.02562597	0.2594292	0	0	0	0	0	0
23.44254	0.02562597	0.2594292	0	0	0	0	0	0
23.4591	0.02562597	0.2594292	0	0	0	0	0	0
23.47567	0.02562597	0.2594292	0	0	0	0	0	0
23.49224	0.02562597	0.2594292	0	0	0	0	0	0
23.50881	0.02562597	0.2594292	0	0	0	0	0	0
23.52537	0.02562597	0.2594292	0	0	0	0	0	0
23.54194	0.02562597	0.2594292	0	0	0	0	0	0
23.55851	0.02562597	0.2594292	0	0	0	0	0	0
23.57508	0.02562597	0.2594292	0	0	0	0	0	0
23.59164	0.02562597	0.2594292	0	0	0	0	0	0
23.60821	0.02562597	0.2594292	0	0	0	0	0	0
23.62478	0.02562597	0.2594292	0	0	0	0	0	0
23.64174	0.02562597	0.2594292	0	0	0	0	0	0
23.65825	0.02562597	0.2594292	0	0	0	0	0	0
23.67476	0.02562597	0.2594292	0	0	0	0	0	0
23.69105	0.02562597	0.2594292	0	0	0	0	0	0
23.70761	0.02562597	0.2594292	0	0	0	0	0	0
23.72418	0.02562597	0.2594292	0	0	0	0	0	0
23.74075	0.02562597	0.2594292	0	0	0	0	0	0
23.75732	0.02562597	0.2594292	0	0	0	0	0	0
23.77388	0.02562597	0.2594292	0	0	0	0	0	0
23.79045	0.02562597	0.2594292	0	0	0	0	0	0
23.80702	0.02562597	0.2594292	0	0	0	0	0	0
23.82358	0.02562597	0.2594292	0	0	0	0	0	0
23.84015	0.02562597	0.2594292	0	0	0	0	0	0
23.85672	0.02562597	0.2594292	0	0	0	0	0	0
23.87329	0.02562597	0.2594292	0	0	0	0	0	0
23.88985	0.02562597	0.2594292	0	0	0	0	0	0
23.90642	0.02562597	0.2594292	0	0	0	0	0	0
23.92299	0.02562597	0.2594292	0	0	0	0	0	0
23.93955	0.02562597	0.2594292	0	0	0	0	0	0
23.95612	0.02554707	0.2593396	-0.004762175	-0.005407408	-0.1437227	-0.1631959	0	0
23.97269	0.02538928	0.2591963	-0.009524351	-0.008648976	-0.1437227	-0.0978307	0	0
23.98926	0.0244951	0.2584798	-0.05397278	-0.04325207	-1.341456	-1.044324	0	0
24.00582	0.02286444	0.257369	-0.09842706	-0.06704575	-1.341633	-0.7180945	0	0
24.03896	0.01247304	0.25029	-0.3136311	-0.2136571	-4.330081	-2.949939	0	0
24.07209	-0.02978067	0.2216761	-1.275219	-0.86357	-14.51081	-9.807487	0	0
24.08866	-0.04402417	0.2119988	-0.8597395	-0.5841215	8.359471	5.622514	0	0
24.10522	-0.05838095	0.2022562	-0.866577	-0.5880656	-0.2063576	-0.1190313	0	0
24.12179	-0.07671756	0.1898124	-1.1068	-0.7511108	-7.249935	-4.920715	0	0
24.13836	-0.08954933	0.181125	-0.7745276	-0.5243693	10.02799	6.843072	0	0
24.15511	-0.1017266	0.1730779	-0.7269032	-0.4803589	1.429327	1.320861	0	0
24.18806	-0.1259871	0.1564452	-0.7363361	-0.5048248	-0.1897966	-0.4922741	0	0
24.20791	-0.1382183	0.1479661	-0.6162498	-0.4272025	2.274559	1.470248	0	0
24.22447	-0.1470364	0.1418214	-0.532261	-0.3708995	2.306429	1.546144	0	0
24.24104	-0.1580651	0.1346316	-0.6656914	-0.4339733	-4.026938	-1.903572	0	0
24.2742	-0.1636547	0.1309511	-0.1685896	-0.1110078	9.997486	6.495337	0	0
24.29074	-0.1819647	0.1186699	-1.106721	-0.7423235	-18.87596	-12.70258	0	0
24.30731	-0.1925579	0.1127649	-0.6394098	-0.3564253	14.11322	11.65448	0	0
24.32388	-0.1991915	0.1116672	-0.400401	-0.06625649	7.213302	8.757312	0	0
24.34044	-0.2129832	0.1108804	-0.8324702	-0.04749336	-13.03988	0.5662724	0	0
24.35701	-0.2214898	0.1111548	-0.5134583	0.01656851	9.627799	1.933391	0	0
24.37358	-0.2312109	0.1111365	-0.5867712	-0.001104507	-2.212591	-0.5333726	0	0
24.39028	-0.2322081	0.1111	-0.05968415	-0.002190604	15.84095	-0.0326413	0	0
24.40671	-0.2322081	0.1111	0	0	1.801375	0.06611636	0	0
24.42328	-0.2322081	0.1111	0	0	0	0	0	0
24.43984	-0.2322081	0.1111	0	0	0	0	0	0
24.45641	-0.2321831	0.1110817	0.001503857	-0.001104507	0.04538649	-0.0333341	0	0
24.47298	-0.2321831	0.1110817	0	0	-0.04538649	0.0333341	0	0
24.48955	-0.2321582	0.1111	0.001504756	0.001104507	0.04541363	0.0333341	0	0
24.50611	-0.2321582	0.1111	0	0	-0.04541363	-0.0333341	0	0
24.52268	-0.2321582	0.1111	0	0	0	0	0	0
24.53925	-0.2321582	0.1111	0	0	0	0	0	0
24.55581	-0.2321582	0.1111	0	0	0	0	0	0
24.57238	-0.2321582	0.1111	0	0	0	0	0	0
24.58895	-0.2321582	0.1111	0	0	0	0	0	0
24.60552	-0.2321582	0.1111	0	0	0	0	0	0
24.62208	-0.2321582	0.1111	0	0	0	0	0	0
24.63865	-0.2321582	0.1111	0	0	0	0	0	0
24.65548	-0.2321582	0.1111	0	0	0	0	0	0
24.67179	-0.2321582	0.1111	0	0	0	0	0	0
24.6885	-0.2321582	0.1111	0	0	0	0	0	0
24.70502	-0.2321582	0.1111	0	0	0	0	0	0
24.72149	-0.2321582	0.1111	0	0	0	0	0	0
24.73805	-0.2321582	0.1111	0	0	0	0	0	0
24.75462	-0.2321582	0.1111	0	0	0	0	0	0
24.77119	-0.2321582	0.1111	0	0	0	0	0	0
24.78776	-0.2321582	0.1111	0	0	0	0	0	0
24.80432	-0.2321582	0.1111	0	0	0	0	0	0
24.82089	-0.2321582	0.1111	0	0	0	0	0	0
24.88715	-0.2321333	0.1110817	0.0003759858	-0.0002761427	0.004539119	-0.003333755	0	0
24.90372	-0.2321333	0.1110817	0	0	-0.004539119	0.003333755	0	0
24.92029	-0.2321333	0.1110817	0	0	0	0	0	0
24.93686	-0.2321333	0.1110817	0	0	0	0	0	0
24.95342	-0.2321333	0.1110817	0	0	0	0	0	0
24.97021	0	0	13.83165	-6.618795	414.7423	-198.4647	0	0
24.98656	-0.2321333	0.1110817	-14.19628	6.793279	-845.8846	404.7772	0	0
25.00323	-0.2321333	0.1110817	0	0	429.8798	-205.7084	0	0
25.01974	-0.2321333	0.1110817	0	0	0	0	0	0
25.03626	-0.2321333	0.1110817	0	0	0	0	0	0
25.05282	-0.2321084	0.1111	0.001504756	0.001104507	0.0454817	0.03338406	0	0
25.06939	-0.2321084	0.1111	0	0	-0.04541363	-0.0333341	0	0
25.08596	-0.2320834	0.1111182	0.001504756	0.001104507	0.04541363	0.0333341	0	0
25.10253	-0.2320585	0.1111365	0.001503857	0.001104507	-2.714469E-05	0	0	0
25.15223	-0.2301884	0.1128015	0.03762845	0.03349927	0.5451369	0.4888521	0	0
25.17239	-0.2262683	0.1158554	0.194405	0.1514499	2.244017	1.688283	0	0
25.18896	-0.2181813	0.1217567	0.4881347	0.3562022	7.99662	5.574264	0	0
25.20552	-0.201946	0.1335205	0.9799615	0.7100646	14.84336	10.67959	0	0
25.22209	-0.1970666	0.1370353	0.2945578	0.2121825	-20.68672	-15.02698	0	0
25.23866	-0.1703333	0.1561005	1.613622	1.150773	39.81173	28.32836	0	0
25.25522	-0.154393	0.1673032	0.9621607	0.6761986	-19.66115	-14.32269	0	0
25.27179	-0.1380376	0.178721	0.9872154	0.6891775	0.7561522	0.3917025	0	0
25.28836	-0.1168339	0.1934395	1.279856	0.8884115	8.831921	6.012894	0	0
25.30493	-0.1024297	0.2033913	0.869437	0.6006954	-12.38648	-8.683287	0	0
25.32149	-0.08931439	0.2123768	0.7916443	0.5423616	-2.347787	-1.760518	0	0
25.33806	-0.07755466	0.2204715	0.7098186	0.4886006	-2.469506	-1.622512	0	0
25.35466	-0.06029525	0.2323126	1.039506	0.7131722	9.939124	6.770181	0	0
25.37119	-0.05465604	0.2361727	0.341169	0.2335285	-21.07708	-14.47651	0	0
25.38801	-0.04496966	0.2427224	0.5761145	0.389557	7.046457	4.679589	0	0
25.40433	-0.03884887	0.2469013	0.3750655	0.2560749	-6.068019	-4.028731	0	0
25.42089	-0.03332976	0.2506306	0.333134	0.2250991	-1.275038	-0.9418988	0	0
25.43754	-0.02662528	0.2551651	0.4027355	0.2723849	2.095511	1.423644	0	0
25.45405	-0.02178603	0.258426	0.2930767	0.1974883	-3.307034	-2.258692	0	0
25.47059	-0.02068126	0.2591784	0.06678368	0.04548419	-6.846088	-4.598611	0	0
25.48716	-0.01641958	0.2620085	0.2572359	0.1708227	5.752162	3.785556	0	0
25.50373	-0.01113112	0.2656079	0.3192119	0.2172605	1.870442	1.401498	0	0
25.5206	-0.008184028	0.2676131	0.1746495	0.1188344	-4.322838	-2.943229	0	0
25.53711	-0.008184028	0.2676131	0	0	-5.231483	-3.559587	0	0
25.55343	-0.008184028	0.2676131	0	0	0	0	0	0
25.57014	-0.008184028	0.2676131	0	0	0	0	0	0
25.58656	-0.008184028	0.2676131	0	0	0	0	0	0
25.60316	-0.008210341	0.2675952	-0.001585371	-0.001079134	-0.04800687	-0.03267743	0	0
25.6197	-0.008210341	0.2675952	0	0	0.04784935	0.03257021	0	0
25.63626	-0.008210341	0.2675952	0	0	0	0	0	0
25.65283	-0.008210341	0.2675952	0	0	0	0	0	0
25.6694	-0.008210341	0.2675594	0	-0.002160694	0	-0.06521362	0	0
25.68596	-0.008210341	0.2675594	0	0	0	0.06521362	0	0
25.7191	-0.008184028	0.2675057	0.0007941457	-0.001620783	0.01597824	-0.03261023	0	0
25.73566	-0.0081314	0.2674341	0.003176639	-0.004322689	0.04793585	-0.05436245	0	0
25.75227	-0.008078772	0.2673625	0.00317007	-0.004313749	-0.0001980572	0.0002695234	0	0
25.7688	-0.008078772	0.2673267	0	-0.002165181	-0.0956784	0.06484765	0	0
25.78536	-0.008052457	0.267273	0.001588347	-0.003243366	0.04798891	-0.03257531	0	0
25.80193	-0.008026144	0.2672551	0.001588291	-0.001079323	-1.693469E-06	0.06531094	0	0
25.81881	-0.007999829	0.2672014	0.001558738	-0.003181138	-0.0008835428	-0.06283607	0	0
25.83506	-0.007947201	0.2671656	0.003238531	-0.002204372	0.05069919	0.02948054	0	0
25.85163	-0.007947201	0.2671656	0	0	-0.09868203	0.06716993	0	0
25.8682	-0.007973515	0.2671477	-0.001588347	-0.001081122	-0.04793642	-0.03262833	0	0
25.88486	-0.007947201	0.2671298	0.001579257	-0.001073146	0.09532412	0.0002400347	0	0
25.90133	-0.007973515	0.2671119	-0.001597544	-0.001087381	-0.09587603	-0.0004296317	0	0
25.91838	-0.007973515	0.2671119	0	0	0.04765435	0.03243633	0	0
25.93447	-0.007973515	0.2671119	0	0	0	0	0	0
26.05048	-0.007973515	0.2671119	0	0	0	0	0	0
26.067	-0.007999829	0.267094	-0.001592692	-0.001084117	-0.01201723	-0.008179918	0	0
26.08357	-0.007999829	0.267094	0	0	0.04813404	0.032764	0	0
26.10013	-0.007999829	0.267094	0	0	0	0	0	0
26.1167	-0.007999829	0.267094	0	0	0	0	0	0
26.15202	-0.008026144	0.2670044	-0.0007451465	-0.002535107	-0.01436239	-0.04886313	0	0
26.16858	-0.007999829	0.2669865	0.001588347	-0.001079323	0.04497713	0.02805963	0	0
26.18515	-0.007999829	0.2669507	0	-0.002162244	-0.04793642	-0.03268262	0	0
26.20172	-0.007973515	0.266897	0.001588291	-0.003241567	0.04793473	-0.03257403	0	0
26.21829	-0.007947201	0.2668433	0.001588165	-0.003241194	-3.822382E-06	1.126338E-05	0	0
26.23485	-0.007920887	0.2668254	0.001588657	-0.001081371	1.486263E-05	0.06518734	0	0
26.25142	-0.007920887	0.2668254	0	0	-0.04795129	0.0326396	0	0
26.26798	-0.007920887	0.2667896	0	-0.002160445	0	-0.06520236	0	0
26.28455	-0.007920887	0.2667896	0	0	0	0.06520236	0	0
26.30112	-0.007920887	0.2667896	0	0	0	0	0	0
26.31769	-0.007920887	0.2667896	0	0	0	0	0	0
26.33425	-0.007920887	0.2667896	0	0	0	0	0	0
26.35082	-0.007920887	0.2667896	0	0	0	0	0	0
26.36739	-0.007920887	0.2667896	0	0	0	0	0	0
26.38395	-0.007920887	0.2667896	0	0	0	0	0	0
26.40052	-0.007920887	0.2667896	0	0	0	0	0	0
26.41709	-0.007920887	0.2667896	0	0	0	0	0	0
26.43365	-0.007920887	0.2667896	0	0	0	0	0	0
26.45027	-0.007947201	0.2667717	-0.001583551	-0.001077895	-0.047723	-0.0324842	0	0
26.46679	-0.007947201	0.2667717	0	0	0.04779167	0.03253095	0	0
26.48335	-0.007947201	0.2667717	0	0	0	0	0	0
26.49992	-0.007947201	0.2667717	0	0	0	0	0	0
26.51681	-0.007920887	0.2667538	0.001557451	-0.001060129	0.04654313	-0.03168109	0	0
26.53333	-0.007894573	0.2667001	0.001593668	-0.003252426	0.001084126	-0.06562345	0	0
26.54984	-0.007894573	0.2667001	0	0	-0.04825813	0.09848722	0	0
26.56635	-0.007841945	0.2666285	0.003186912	-0.004336668	0.09649782	-0.1313118	0	0
26.58275	-0.007841945	0.2666285	0	0	-0.09681653	0.1317455	0	0
26.59932	-0.00781563	0.2666106	0.00158853	-0.001081246	0.04818325	-0.03279633	0	0
26.61589	-0.00781563	0.2666106	0	0	-0.0479447	0.03263396	0	0
26.6329	-0.007841945	0.2666285	-0.001547027	0.001052997	-0.04607406	0.03136069	0	0
26.64902	-0.007841945	0.2666285	0	0	0.04668937	-0.03177951	0	0
26.66559	-0.007841945	0.2666285	0	0	0	0	0	0
26.68216	-0.00781563	0.2666464	0.001588347	0.001079323	0.04793642	0.03257403	0	0
26.69872	-0.007789316	0.2666643	0.001588319	0.001081122	-8.467346E-07	5.42929E-05	0	0
26.71546	-0.007736688	0.2667001	0.003145165	0.002140801	0.04675154	0.03182182	0	0
26.73197	-0.007710373	0.266718	0.001593456	0.001084618	-0.04667215	-0.03176778	0	0
26.74848	-0.007631431	0.2667717	0.004780949	0.003252426	0.09651539	0.06563994	0	0
26.78156	-0.007236716	0.2670403	0.01193382	0.008119306	0.1442481	0.09814781	0	0
26.79812	-0.0070262	0.2671835	0.01270675	0.008645378	0.01556999	0.01059721	0	0
26.81469	-0.00678937	0.267273	0.01429513	0.005402012	0.04793729	-0.09788499	0	0
26.83126	-0.006315705	0.2673804	0.02859042	0.006484933	0.4314329	0.03268262	0	0
26.84783	-0.005710464	0.2670044	0.03653241	-0.02269457	0.2396897	-0.880639	0	0
26.86439	-0.003684194	0.2656974	0.1223059	-0.07889132	2.58865	-1.696021	0	0
26.88108	-0.00228947	0.2647484	0.08358907	-0.0568755	-1.164322	0.6620759	0	0
26.89759	-0.002052629	0.2646231	0.01434364	-0.0075914	-2.085869	1.484577	0	0
26.91409	-0.00136842	0.2641575	0.04145641	-0.02820915	0.821196	-0.6244736	0	0
26.93066	0.002263154	0.2616861	0.2192023	-0.1491732	5.37459	-3.657652	0	0
26.94723	0.00376314	0.2606652	0.09053934	-0.06162395	-3.883055	2.642243	0	0
26.96414	0.003947348	0.2605398	0.01089306	-0.007414209	-2.379078	1.619275	0	0
26.99693	0.003973663	0.2605577	0.0008025172	0.0005462206	-0.2030222	0.1601642	0	0
27.0135	0.003973663	0.2605577	0	0	-0.01625962	-0.01106685	0	0
27.03006	0.003973663	0.2605577	0	0	0	0	0	0
27.05187	0.003973663	0.2605577	0	0	0	0	0	0
27.06844	0.003973663	0.2605577	0	0	0	0	0	0
27.08501	0.003947348	0.2605398	-0.001588404	-0.001081122	-0.04793812	-0.03262833	0	0
27.10158	0.003947348	0.2605398	0	0	0.04793812	0.03262833	0	0
27.11825	0.003947348	0.2605398	0	0	0	0	0	0
27.13471	0.003947348	0.2605398	0	0	0	0	0	0
27.15128	0.003973663	0.2605219	0.001588404	-0.001081122	0.04809315	-0.03273385	0	0
27.16784	0.003973663	0.2605219	0	0	-0.04793812	0.03262833	0	0
27.18441	0.003973663	0.2605219	0	0	0	0	0	0
27.25391	0.003973663	0.2605219	0	0	0	0	0	0
27.27048	0.003973663	0.2605219	0	0	0	0	0	0
27.28737	0.003973663	0.2605219	0	0	0	0	0	0
27.30388	0.003973663	0.2605219	0	0	0	0	0	0
27.32039	0.003973663	0.2605219	0	0	0	0	0	0
27.33691	0.003999979	0.260504	0.001593725	-0.001084744	0.04826262	-0.03284919	0	0
27.35331	0.004052609	0.2604682	0.00320892	-0.00218412	0.04907439	-0.03340229	0	0
27.37856	0.004078925	0.2604502	0.001041981	-0.0007092081	-0.05201923	0.03540653	0	0
27.39513	0.004131556	0.2604144	0.003176807	-0.002162244	0.051045	-0.03474297	0	0
27.4117	0.004157871	0.2603965	0.001588404	-0.001081122	-0.04793812	0.03262833	0	0
27.42847	0.004184186	0.2603786	0.001568869	-0.001067845	-0.000585927	0.0003982369	0	0
27.44483	0.004184186	0.2603786	0	0	-0.04735127	0.03222947	0	0
27.4614	0.004184186	0.2603786	0	0	0	0	0	0
27.47796	0.004184186	0.2603786	0	0	0	0	0	0
27.49453	0.004184186	0.2603786	0	0	0	0	0	0
27.5111	0.004184186	0.2603786	0	0	0	0	0	0
27.52804	0.004184186	0.2603786	0	0	0	0	0	0
27.54456	0.004184186	0.2603786	0	0	0	0	0	0
27.56107	0.004184186	0.2603786	0	0	0	0	0	0
27.57758	0.004184186	0.2603786	0	0	0	0	0	0
27.59393	0.004157871	0.2603607	-0.001609124	-0.001095244	-0.04895801	-0.03332309	0	0
27.6105	0.004157871	0.2603607	0	0	0.04888143	0.03327096	0	0
27.62711	0.004131556	0.2603428	-0.001583845	-0.001078019	-0.04773459	-0.0324898	0	0
27.64363	0.004131556	0.2603428	0	0	0.04780329	0.03253656	0	0
27.6602	0.004131556	0.2603428	0	0	0	0	0	0
27.67677	0.004131556	0.2603428	0	0	0	0	0	0
27.69333	0.004157871	0.2603249	0.001588221	-0.001080998	0.04792985	-0.03262269	0	0
27.7099	0.004131556	0.260307	-0.001588587	-0.001081246	-0.09587624	-7.511695E-06	0	0
27.72669	0.004157871	0.260289	0.001567649	-0.001066995	0.09463435	0.0004272985	0	0
27.74303	0.004184186	0.2602711	0.001609687	-0.001097451	0.001268735	-0.0009191497	0	0
27.7596	0.004210501	0.2602532	0.001588404	-0.001081122	-0.0006466254	0.0004960871	0	0
27.77617	0.004210501	0.2602532	0	0	-0.04793812	0.03262833	0	0
27.79274	0.004236817	0.2602353	0.001588404	-0.001081122	0.04793812	-0.03262833	0	0
27.8093	0.004236817	0.2602353	0	0	-0.04793812	0.03262833	0	0
27.82587	0.004236817	0.2602353	0	0	0	0	0	0
27.84244	0.004236817	0.2602353	0	0	0	0	0	0
27.85928	0.004236817	0.2602353	0	0	0	0	0	0
27.87557	0.004236817	0.2602353	0	0	0	0	0	0
27.91182	0.004210501	0.2602174	-0.0007259985	-0.0004941394	-0.01381957	-0.009406068	0	0
27.92835	0.004236817	0.2601995	0.001591335	-0.001083117	0.04390223	-0.01115827	0	0
27.94492	0.004236817	0.2601995	0	0	-0.04807086	0.03271867	0	0
27.96185	0.004236817	0.2601995	0	0	0	0	0	0
27.97837	0.004236817	0.2601995	0	0	0	0	0	0
27.99462	0.004236817	0.2601995	0	0	0	0	0	0
28.01119	0.004236817	0.2601636	0	-0.002162244	0	-0.06587858	0	0
28.0279	0.004263132	0.2601457	0.001574239	-0.0010715	0.04729826	0.03277158	0	0
28.04432	0.004289447	0.2601278	0.001602797	-0.001090918	0.0008618774	-0.0005860492	0	0
28.06093	0.004342078	0.260092	0.003169481	-0.002157276	0.04744102	-0.03229056	0	0
28.07746	0.004473655	0.2600024	0.007961239	-0.00541871	0.1446238	-0.09843594	0	0
28.09402	0.004868383	0.2597337	0.02382583	-0.01621863	0.4793738	-0.3263366	0	0
28.11059	0.006710425	0.2584798	0.1111987	-0.07569804	2.637071	-1.795196	0	0
28.12716	0.01136793	0.2553084	0.2811276	-0.1914215	5.128759	-3.492743	0	0
28.14399	0.01715621	0.2513656	0.3439173	-0.2342705	1.880061	-1.282993	0	0
28.16029	0.0198132	0.249555	0.1629841	-0.1110642	-5.460887	3.718589	0	0
28.17686	0.02141778	0.2484613	0.09685272	-0.06601319	-2.011948	1.370608	0	0
28.19352	0.02346937	0.2470627	0.1231258	-0.08393608	0.7906474	-0.5393614	0	0
28.21003	0.02354828	0.2470089	0.004778028	-0.003257464	-3.567225	2.431806	0	0
28.22656	0.02354828	0.2470089	0	0	-0.144609	0.09858855	0	0
28.24312	0.02354828	0.2470089	0	0	0	0	0	0
28.25969	0.02354828	0.2470089	0	0	0	0	0	0
28.27626	0.02354828	0.2470089	0	0	0	0	0	0
28.29282	0.02354828	0.2470089	0	0	0	0	0	0
28.30939	0.02354828	0.2470089	0	0	0	0	0	0
28.32596	0.02354828	0.2470089	0	0	0	0	0	0
28.34252	0.02354828	0.2470089	0	0	0	0	0	0
28.35914	0.02354828	0.2470089	0	0	0	0	0	0
28.37566	0.02354828	0.2470089	0	0	0	0	0	0
28.39223	0.02354828	0.2470089	0	0	0	0	0	0
28.40879	0.02352198	0.2470269	-0.001587687	0.001082146	-0.04791649	0.03265923	0	0
28.42568	0.02349568	0.2470448	-0.001556855	0.001062013	0.0009215049	-0.0006017227	0	0
28.4427	0.02349568	0.2470448	0	0	0.04591552	-0.03132141	0	0
28.47506	0.02349568	0.2470807	0	0.00110798	0	0.02244159	0	0
28.49173	0.02349568	0.2470807	0	0	0	-0.02259698	0	0
28.50824	0.02346937	0.2470986	-0.001592935	0.001086548	-0.04800027	0.03274121	0	0
28.52476	0.02349568	0.2470807	0.001592751	-0.001086423	0.0964607	-0.06579629	0	0
28.54132	0.02349568	0.2470807	0	0	-0.04814415	0.03283935	0	0
28.55789	0.02349568	0.2470807	0	0	0	0	0	0
28.57446	0.02349568	0.2470807	0	0	0	0	0	0
28.59102	0.02346937	0.2470627	-0.001587617	-0.001082021	-0.04791437	-0.03265547	0	0
28.60759	0.02346937	0.2470627	0	0	0.04791437	0.03265547	0	0
28.62416	0.02346937	0.2470627	0	0	0	0	0	0
28.64072	0.02346937	0.2470627	0	0	0	0	0	0
28.65735	0.02346937	0.2470627	0	0	0	0	0	0
28.67386	0.02346937	0.2470627	0	0	0	0	0	0
28.72356	0.02346937	0.2470627	0	0	0	0	0	0
28.74013	0.02346937	0.2470627	0	0	0	0	0	0
28.75692	0.02346937	0.2470627	0	0	0	0	0	0
28.77326	0.02346937	0.2470627	0	0	0	0	0	0
28.79281	0.02346937	0.2470627	0	0	0	0	0	0
28.80938	0.02346937	0.2470627	0	0	0	0	0	0
28.82594	0.02346937	0.2470627	0	0	0	0	0	0
28.84251	0.02346937	0.2470627	0	0	0	0	0	0
28.85908	0.02346937	0.2470627	0	0	0	0	0	0
28.87564	0.02344307	0.2470807	-0.001587504	0.001082021	-0.04791373	0.03265735	0	0
28.89252	0.02344307	0.2470807	0	0	0.04746832	-0.03235376	0	0
28.90878	0.02344307	0.2470807	0	0	0	0	0	0
28.92534	0.02344307	0.2470807	0	0	0	0	0	0
28.94191	0.02344307	0.2470807	0	0	0	0	0	0
28.95848	0.02344307	0.2470807	0	0	0	0	0	0
28.97504	0.02346937	0.2470627	0.001587504	-0.001082021	0.04791097	-0.03265547	0	0
28.99161	0.02346937	0.2470627	0	0	-0.04791097	0.03265547	0	0
29.00818	0.02346937	0.2470627	0	0	0	0	0	0
29.02475	0.02346937	0.2470627	0	0	0	0	0	0
29.04131	0.02344307	0.2470448	-0.001587504	-0.001082021	-0.04791097	-0.03265547	0	0
29.05788	0.02344307	0.2470448	0	0	0.04791097	0.03265547	0	0
29.07445	0.02344307	0.2470448	0	0	0	0	0	0
29.09116	0.02344307	0.2470448	0	0	0	0	0	0
29.10768	0.02344307	0.2470448	0	0	0	0	0	0
29.12415	0.02344307	0.2470448	0	0	0	0	0	0
29.14071	0.02344307	0.2470448	0	0	0	0	0	0
29.15728	0.02344307	0.2470448	0	0	0	0	0	0
29.17385	0.02341677	0.2470627	-0.001587617	0.001082021	-0.04791437	0.03265547	0	0
29.19042	0.02341677	0.2470627	0	0	0.04791437	-0.03265547	0	0
29.20698	0.02341677	0.2470627	0	0	0	0	0	0
29.22355	0.02341677	0.2470627	0	0	0	0	0	0
29.24012	0.02341677	0.2470627	0	0	0	0	0	0
29.25669	0.02344307	0.2470807	0.001587617	0.001082021	0.04791437	0.03265547	0	0
29.28982	0.02344307	0.2470807	0	0	-0.03194291	-0.02177031	0	0
29.30639	0.02344307	0.2470807	0	0	0	0	0	0
29.32295	0.02344307	0.2470807	0	0	0	0	0	0
29.33952	0.02344307	0.2470807	0	0	0	0	0	0
29.40579	0.02344307	0.2470807	0	0	0	0	0	0
29.42236	0.02344307	0.2470807	0	0	0	0	0	0
29.43892	0.02344307	0.2470807	0	0	0	0	0	0
29.45549	0.02344307	0.2470807	0	0	0	0	0	0
29.47206	0.02344307	0.2470807	0	0	0	0	0	0
29.48862	0.02344307	0.2470807	0	0	0	0	0	0
29.50519	0.02344307	0.2470807	0	0	0	0	0	0
29.52198	0.02344307	0.2470807	0	0	0	0	0	0
29.53832	0.02344307	0.2470807	0	0	0	0	0	0
29.555	0.02344307	0.2470807	0	0	0	0	0	0
29.57146	0.02341677	0.2470986	-0.001598289	0.001090201	-0.04823924	0.03290421	0	0
29.58802	0.02341677	0.2470986	0	0	0.04839805	-0.03301254	0	0
29.60459	0.02341677	0.2470986	0	0	0	0	0	0
29.62116	0.02339047	0.2470807	-0.001587504	-0.001082921	-0.04791373	-0.0326845	0	0
29.63772	0.02341677	0.2470627	0.001587504	-0.001082021	0.09582195	2.714469E-05	0	0
29.65429	0.02346937	0.2468834	0.003175121	-0.01082381	0.04791437	-0.2940078	0	0
29.67086	0.02389019	0.2461661	0.02540063	-0.04329704	0.6707672	-0.9800441	0	0
29.6876	0.02696715	0.242238	0.1838416	-0.2346946	4.757384	-5.746948	0	0
29.70399	0.03369777	0.2328693	0.4104668	-0.5713521	6.839563	-10.16034	0	0
29.72056	0.04856704	0.2075161	0.8975113	-1.530319	14.77472	-29.09072	0	0
29.75685	0.0584334	0.1736207	0.2718813	-0.9340356	-11.8364	11.28119	0	0
29.77342	0.06370316	0.1381458	0.3180835	-2.141273	0.8741058	-22.83992	0	0
29.79017	0.06663803	0.1120514	0.1751924	-1.557664	-4.288515	17.51553	0	0
29.80655	0.06768592	0.1003279	0.06397235	-0.715708	-3.356821	25.41175	0	0
29.82319	0.06949318	0.08465591	0.1085991	-0.941734	1.351429	-6.844725	0	0
29.83968	0.07072395	0.06626611	0.07463305	-1.115146	-1.025157	-5.233881	0	0
29.85625	0.07198069	0.05452892	0.07585707	-0.7084582	0.03702644	12.30218	0	0
29.87282	0.07318485	0.04167769	0.07268296	-0.7757018	-0.09579486	-2.029417	0	0
29.88938	0.07397006	0.03359548	0.04739532	-0.4878435	-0.7631825	8.687583	0	0
29.90595	0.07567102	0.02394427	0.1026706	-0.5825482	1.668211	-2.858195	0	0
29.92252	0.07786855	0.01679643	0.132643	-0.4314443	0.9045674	4.560324	0	0
29.93908	0.07935929	0.005708861	0.08999173	-0.669324	-1.287291	-7.179636	0	0
29.95579	0.07988228	-0.0006485377	0.03131156	-0.3806221	-1.763864	8.678071	0	0
29.97222	0.08069283	-0.006508841	0.04932803	-0.3566439	0.5437381	0.7236654	0	0
29.98881	0.08132027	-0.01565003	0.03781595	-0.5509385	-0.3485991	-5.883467	0	0
30.02192	0.08108498	-0.02756908	-0.007106774	-0.3600079	-0.9038816	3.841678	0	0
30.03848	0.08105884	-0.0443029	-0.001578242	-1.010171	0.1112983	-13.08885	0	0
30.05505	0.07964694	-0.05305921	-0.085222	-0.5285321	-2.524519	14.53674	0	0
30.07162	0.07410092	-0.05869395	-0.3347588	-0.3401136	-7.531035	5.686484	0	0
30.08818	0.07166652	-0.06047866	-0.1469404	-0.1077254	5.66837	7.013488	0	0
30.10475	0.07017406	-0.06157307	-0.09008525	-0.06605862	1.715892	1.257507	0	0
30.1214	0.06765972	-0.06341723	-0.1509836	-0.1107402	-1.833169	-1.34501	0	0
30.13792	0.06765972	-0.06341723	0	0	4.552503	3.339072	0	0
30.15445	0.06763352	-0.06339801	-0.001584309	0.001162548	-0.04794149	0.03517891	0	0
30.17102	0.06763352	-0.06339801	0	0	0.04786138	-0.03512013	0	0
30.18759	0.06760734	-0.0633788	-0.001580759	0.001159823	-0.04770739	0.03500351	0	0
30.20415	0.06760734	-0.0633788	0	0	0.04770739	-0.03500351	0	0
30.22072	0.06758114	-0.06335958	-0.001581208	0.001159823	-0.04772096	0.03500351	0	0
30.23729	0.06755494	-0.06334037	-0.001581208	0.001159823	0	0	0	0
30.254	0.06752875	-0.06332115	-0.001567493	0.001149762	0.0004121202	-0.0003022933	0	0
30.27042	0.06752875	-0.06332115	0	0	0.04730976	-0.03470189	0	0
30.28702	0.06752875	-0.06332115	0	0	0	0	0	0
30.30355	0.06752875	-0.06332115	0	0	0	0	0	0
30.32012	0.06752875	-0.06332115	0	0	0	0	0	0
30.33669	0.06752875	-0.06332115	0	0	0	0	0	0
30.35357	0.06752875	-0.06332115	0	0	0	0	0	0
30.45265	0.06745016	-0.0633788	-0.0007931609	-0.0005817867	-0.006839552	-0.005016839	0	0
30.46922	0.06745016	-0.0633788	0	0	0.006858277	0.005030574	0	0
30.48579	0.06745016	-0.0633788	0	0	0	0	0	0
30.50235	0.06739777	-0.06334037	-0.003162417	0.002319645	-0.09544742	0.07001106	0	0
30.51892	0.06737157	-0.06332115	-0.00158139	0.001159956	0.04771822	-0.0350015	0	0
30.53549	0.06726678	-0.06324429	-0.006325283	0.00463929	-0.1431792	0.1050126	0	0
30.55205	0.06716199	-0.06316743	-0.006324833	0.00463929	1.356181E-05	0	0	0
30.56873	0.0671358	-0.06314822	-0.0015709	0.001152261	0.1430048	-0.1048946	0	0
30.58519	0.0671358	-0.06314822	0	0	0.04741257	-0.03477731	0	0
30.60175	0.0671358	-0.06314822	0	0	0	0	0	0
30.61876	0.0671358	-0.06314822	0	0	0	0	0	0
30.63489	0.0671096	-0.063129	-0.001624793	0.001191792	-0.04903635	0.03596836	0	0
30.65145	0.0671096	-0.063129	0	0	0.04970298	-0.03645734	0	0
30.66802	0.0671096	-0.063129	0	0	0	0	0	0
30.68459	0.0671096	-0.063129	0	0	0	0	0	0
30.70366	0.0671096	-0.063129	0	0	0	0	0	0
30.72022	0.0671096	-0.063129	0	0	0	0	0	0
30.73685	0.0671096	-0.063129	0	0	0	0	0	0
30.76992	0.0671096	-0.063129	0	0	0	0	0	0
30.78649	0.0670834	-0.06307136	-0.001581208	0.003479468	-0.03185187	0.07009041	0	0
30.80339	0.0670834	-0.06307136	0	0	0.04724234	-0.1039573	0	0
30.81991	0.067031	-0.06303293	-0.003173461	0.002326964	-0.09497162	0.06963865	0	0
30.83642	0.06666423	-0.06272553	-0.02221031	0.01861492	-0.5764246	0.4931897	0	0
30.85276	0.06532796	-0.06155387	-0.08178728	0.07171247	-1.813486	1.616257	0	0
30.86933	0.06393904	-0.06022912	-0.08383507	0.07996187	-0.06223214	0.2506992	0	0
30.88595	0.05966594	-0.05675697	-0.2569784	0.2088103	-5.215869	3.881504	0	0
30.90247	0.05420999	-0.05254228	-0.3304247	0.2552511	-2.216229	1.401344	0	0
30.91903	0.04567873	-0.04415018	-0.5151852	0.5067817	-5.586696	7.605656	0	0
30.93559	0.04021515	-0.03522968	-0.3297824	0.5384421	5.596755	0.955734	0	0
30.95216	0.03674661	-0.01962435	-0.2093615	0.9419396	3.634312	12.17758	0	0
30.96901	0.0356428	-0.005792232	-0.06549533	0.820735	4.304718	-3.626646	0	0
30.98553	0.03522227	0.01458551	-0.02546801	1.234123	1.199671	12.38979	0	0
31.00186	0.03514342	0.03016356	-0.004827729	0.9537994	0.6284235	-8.534874	0	0
31.01855	0.03495944	0.04028225	-0.01102285	0.6062284	-0.1875954	-10.52486	0	0
31.03506	0.03488058	0.05956866	-0.004775534	1.16803	0.1881544	16.92015	0	0
31.05157	0.03503828	0.07380147	0.009550842	0.8619716	0.4338193	-9.267809	0	0
31.06813	0.03566908	0.09228747	0.0381054	1.116717	0.8635679	7.704205	0	0
31.08469	0.0359319	0.1058269	0.0158638	0.8172427	-0.6715235	-9.041801	0	0
31.10161	0.03601074	0.1230712	0.004661467	1.019503	-0.3345818	6.040927	0	0
31.11812	0.03643124	0.1353601	0.02546643	0.7442492	0.6224133	-8.234642	0	0
31.13439	0.0363524	0.1425489	-0.004844812	0.4417469	-0.9245344	-9.226733	0	0
31.15096	0.03664149	0.1597826	0.01744928	1.040228	0.678855	18.22375	0	0
31.16753	0.03664149	0.1661259	0	0.3828809	-0.5266203	-19.83878	0	0
31.18417	0.03622099	0.1779254	-0.0252704	0.7091196	-0.7609977	9.824415	0	0
31.2338	0.03837589	0.201211	0.04342154	0.4692085	1.036593	-3.62037	0	0
31.28349	0.0440767	0.2137984	0.1147049	0.253269	0.7176626	-2.174025	0	0
31.33878	0.04405043	0.2138164	-0.0004750571	0.0003255995	-1.097116	-2.409345	0	0
31.35535	0.04405043	0.2138164	0	0	0.006611631	-0.004531546	0	0
31.37191	0.04402417	0.2138344	-0.001585256	0.001085619	-0.04784311	0.03276405	0	0
31.38848	0.04384031	0.2139963	-0.01109641	0.009773944	-0.2870308	0.262199	0	0
31.40505	0.04373525	0.2141403	-0.006342203	0.008689551	0.1434823	-0.03272704	0	0
31.42161	0.04373525	0.2141763	0	0.002172388	0.1914301	-0.196711	0	0
31.43818	0.04373525	0.2141763	0	0	0	-0.06556656	0	0
31.45486	0.04378778	0.2141403	0.003149344	-0.002157483	0.09472569	-0.06489257	0	0
31.47131	0.04378778	0.2141043	0	-0.002187246	-0.09505288	-0.0008983211	0	0
31.48788	0.04381405	0.2140863	0.001585481	-0.001085619	0.04801574	0.03336241	0	0
31.50445	0.04381405	0.2140503	0	-0.002173037	-0.0478499	-0.03281834	0	0
31.52102	0.04384031	0.2140323	0.001585256	-0.001085619	0.04784311	0.03281834	0	0
31.53758	0.04386658	0.2139783	0.001585481	-0.003258656	6.78793E-06	-0.06558239	0	0
31.55415	0.04389284	0.2139243	0.001585256	-0.003257757	-6.78793E-06	2.714469E-05	0	0
31.57072	0.04386658	0.2139063	-0.001585256	-0.001086519	-0.09568623	0.0655281	0	0
31.58728	0.04386658	0.2139063	0	0	0.04784311	0.03279119	0	0
31.60385	0.04386658	0.2139063	0	0	0	0	0	0
31.62048	0.04384031	0.2138884	-0.00157948	-0.00108151	-0.04757841	-0.03257816	0	0
31.63699	0.04384031	0.2138884	0	0	0.04766056	0.03263441	0	0
31.65355	0.04381405	0.2138704	-0.001585986	-0.001087019	-0.04795902	-0.03287064	0	0
31.67289	0.04381405	0.2138704	0	0	0.04417774	0.03027899	0	0
31.68946	0.04381405	0.2138704	0	0	0	0	0	0
31.70604	0.04381405	0.2138704	0	0	0	0	0	0
31.72259	0.04381405	0.2138704	0	0	0	0	0	0
31.73916	0.04381405	0.2138704	0	0	0	0	0	0
31.75573	0.04381405	0.2138704	0	0	0	0	0	0
31.77229	0.04378778	0.2138524	-0.001585481	-0.001085619	-0.0478499	-0.03276405	0	0
31.78886	0.04378778	0.2138524	0	0	0.0478499	0.03276405	0	0
31.80543	0.04376152	0.2138344	-0.001585256	-0.001086519	-0.04784311	-0.03279119	0	0
31.82199	0.04373525	0.2138164	-0.001585481	-0.001085619	-6.78793E-06	2.714469E-05	0	0
31.83864	0.04373525	0.2137804	0	-0.002162428	0.04774272	-0.03242537	0	0
31.85513	0.04368272	0.2136724	-0.003185405	-0.006547464	-0.09614126	-0.1323483	0	0
31.87169	0.04368272	0.2136005	0	-0.004344275	0.09635759	0.06664582	0	0
31.88826	0.04365645	0.2135465	-0.001585481	-0.003258656	-0.0478499	0.03276405	0	0
31.90483	0.04365645	0.2134745	0	-0.004344275	0.0478499	-0.03276405	0	0
31.9217	0.04368272	0.2134565	0.001557332	-0.001067228	0.0465794	0.09801566	0	0
31.93796	0.04365645	0.2134385	-0.001614855	-0.001105733	-0.0957423	-0.001162131	0	0
31.95453	0.04365645	0.2134025	0	-0.002173037	0.04918376	-0.03250697	0	0
31.97123	0.04365645	0.2134025	0	0	0	0.06531544	0	0
31.98774	0.04365645	0.2134025	0	0	0	0	0	0
32.00423	0.04368272	0.2133845	0.001593184	-0.001090894	0.04827971	-0.03305836	0	0
32.0208	0.04365645	0.2133665	-0.001585481	-0.001086519	-0.09616479	0.000132372	0	0
32.03736	0.04363019	0.2133485	-0.001585256	-0.001085619	6.78793E-06	2.714469E-05	0	0
32.05393	0.04363019	0.2133485	0	0	0.04784311	0.03276405	0	0
32.0705	0.04363019	0.2133125	0	-0.002173037	0	-0.06558239	0	0
32.12034	0.04363019	0.2133125	0	0	0	0.0327215	0	0
32.13677	0.04363019	0.2133125	0	0	0	0	0	0
32.15334	0.04363019	0.2133125	0	0	0	0	0	0
32.1699	0.04360392	0.2132946	-0.001585481	-0.001085619	-0.0478499	-0.03276405	0	0
32.18647	0.04360392	0.2132946	0	0	0.0478499	0.03276405	0	0
32.20304	0.04357766	0.2132406	-0.001585481	-0.003258656	-0.0478499	-0.09834644	0	0
32.2196	0.04357766	0.2132046	0	-0.002172138	0.0478499	0.0327912	0	0
32.23643	0.04357766	0.2131686	0	-0.002140023	0	0.0009618145	0	0
32.25274	0.04360392	0.2131506	0.001610323	-0.001102629	0.04859965	0.03130859	0	0
32.26945	0.04357766	0.2131326	-0.001571728	-0.001077094	-0.09635621	0.0007732366	0	0
32.28596	0.04357766	0.2130966	0	-0.002179666	0.04730958	-0.0331878	0	0
32.30247	0.04357766	0.2130606	0	-0.002180568	0	-2.733749E-05	0	0
32.319	0.04355139	0.2130066	-0.001588914	-0.003266177	-0.04809195	-0.03285829	0	0
32.33599	0.04344633	0.2129346	-0.006182265	-0.004235059	-0.1370186	-0.02890154	0	0
32.3525	0.04334126	0.2128627	-0.006363676	-0.004360234	-0.005414526	-0.003736077	0	0
32.3687	0.04326246	0.2128087	-0.004866249	-0.003333885	0.04578813	0.03138356	0	0
32.38553	0.04307859	0.2126827	-0.01092479	-0.007484913	-0.1834598	-0.1256979	0	0
32.40204	0.04302606	0.2126467	-0.003181951	-0.002179666	0.2322357	0.1591234	0	0
32.4184	0.04299979	0.2126287	-0.001605442	-0.001100198	0.04796011	0.03283926	0	0
32.43506	0.04297353	0.2126107	-0.001576406	-0.0010803	0.0008792496	0.0006025397	0	0
32.45158	0.04294726	0.2126287	-0.001590608	0.001090032	-0.0004280707	0.06541791	0	0
32.4681	0.04294726	0.2126287	0	0	0.04814321	-0.0329922	0	0
32.48467	0.04294726	0.2126287	0	0	0	0	0	0
32.50124	0.04294726	0.2126287	0	0	0	0	0	0
32.5178	0.04294726	0.2126287	0	0	0	0	0	0
32.56987	0.04289472	0.2126647	-0.0010089	0.0006911058	-0.01469889	0.01006887	0	0
32.58644	0.04289472	0.2126647	0	0	0.01469889	-0.01006887	0	0
32.60301	0.04286846	0.2127187	-0.001585481	0.003259556	-0.0478499	0.09837358	0	0
32.61958	0.04276339	0.2127907	-0.006342147	0.004344275	-0.1435565	0.0327369	0	0
32.63614	0.04260578	0.2129346	-0.009513108	0.00869035	-0.09569979	0.1311648	0	0
32.65272	0.04250071	0.2130066	-0.006337769	0.004341276	0.09579883	-0.13121	0	0
32.66927	0.04226429	0.2131686	-0.01428338	0.009784981	-0.2398266	0.1643102	0	0
32.68584	0.04197533	0.2133665	-0.01744164	0.01194811	-0.09536026	0.06531332	0	0
32.70276	0.04053042	0.2143562	-0.08540551	0.05849686	-2.029656	1.390121	0	0
32.71898	0.03716709	0.216623	-0.207405	0.1397842	-3.681952	2.453257	0	0
32.73554	0.02630972	0.2240488	-0.6553521	0.4482249	-13.66379	9.40841	0	0
32.80183	0.009657594	0.2354187	-0.2512232	0.1715331	4.877756	-3.339615	0	0
32.81837	0.007420917	0.2369445	-0.1351617	0.09220119	1.401161	-0.9577404	0	0
32.83494	0.006947257	0.2372676	-0.02859676	0.01950516	3.218361	-2.195487	0	0
32.85151	0.006894628	0.2373035	-0.003176695	0.002166741	0.7672673	-0.5233348	0	0
32.86807	0.006894628	0.2373035	0	0	0.09587284	-0.06539237	0	0
32.88488	0.006894628	0.2373035	0	0	0	0	0	0
32.9014	0.006894628	0.2373035	0	0	0	0	0	0
32.91791	0.006894628	0.2373035	0	0	0	0	0	0
32.93434	0.006920942	0.2372855	0.001601624	-0.001092879	0.04862259	-0.03317797	0	0
32.95093	0.006920942	0.2372855	0	0	-0.04850463	0.03309748	0	0
32.96794	0.006920942	0.2372496	0	-0.002110374	0	-0.06280901	0	0
32.98404	0.006920942	0.2372496	0	0	0	0.06374257	0	0
33.03399	0.006815684	0.237106	-0.002107284	-0.002874647	-0.0319055	-0.04352382	0	0
33.0503	0.006605167	0.2369265	-0.01290292	-0.01100088	-0.1629159	-0.1226322	0	0
33.07936	0.006473594	0.2368009	-0.004527578	-0.004323129	0.1845772	0.1471655	0	0
33.09593	0.00639465	0.2367471	-0.004765071	-0.003250561	-0.005205017	0.02350699	0	0
33.11255	0.006236761	0.2366035	-0.009499547	-0.008640012	-0.1426568	-0.1623922	0	0
33.14563	0.005421	0.2360111	-0.02465948	-0.0179056	-0.3050185	-0.186424	0	0
33.1622	0.005131534	0.2358137	-0.01747219	-0.01191842	0.1447642	0.1205918	0	0
33.17909	0.004473655	0.2353649	-0.0389474	-0.02656832	-0.6418423	-0.43785	0	0
33.19533	0.004473655	0.2353649	0	0	1.175435	0.8018335	0	0
33.21211	0.004473655	0.2353649	0	0	0	0	0	0
33.22863	0.004473655	0.2353649	0	0	0	0	0	0
33.24514	0.004473655	0.2353649	0	0	0	0	0	0
33.2616	0.004473655	0.2353649	0	0	0	0	0	0
33.27817	0.004473655	0.2353649	0	0	0	0	0	0
33.29473	0.004473655	0.2353649	0	0	0	0	0	0
33.3113	0.004473655	0.2353649	0	0	0	0	0	0
33.32787	0.004447339	0.2353469	-0.001588404	-0.00108382	-0.04793812	-0.03270976	0	0
33.34444	0.004447339	0.2353469	0	0	0.04793812	0.03270976	0	0
33.361	0.004473655	0.235329	0.001588404	-0.00108382	0.04793812	-0.03270976	0	0
33.37757	0.004473655	0.235329	0	0	-0.04793812	0.03270976	0	0
33.39414	0.004473655	0.235329	0	0	0	0	0	0
33.41453	0.004526285	0.2352931	0.002581245	-0.001760553	0.06984495	-0.04763815	0	0
33.4311	0.004526285	0.2352931	0	0	-0.06984495	0.04763815	0	0
33.44766	0.004526285	0.2352931	0	0	0	0	0	0
33.46429	0.0045526	0.2352751	0.001582182	-0.001079594	0.04765709	-0.03251858	0	0
33.4808	0.0045526	0.2352392	0	-0.002174251	-0.04773937	-0.03302918	0	0
33.49736	0.004578915	0.2352213	0.001589502	-0.001084569	0.04807087	0.03295493	0	0
33.53084	0.004578915	0.2351854	0	-0.001072583	-0.03176628	0.0002395457	0	0
33.54736	0.004578915	0.2351854	0	0	0	0.02145363	0	0
33.56387	0.004578915	0.2351854	0	0	0	0	0	0
33.58038	0.004578915	0.2351854	0	0	0	0	0	0
33.59676	0.004578915	0.2351854	0	0	0	0	0	0
33.61333	0.004578915	0.2351495	0	-0.002166741	0	-0.06575575	0	0
33.62991	0.004578915	0.2351495	0	0	0	0.06536227	0	0
33.64646	0.004578915	0.2351495	0	0	0	0	0	0
33.66303	0.004578915	0.2351495	0	0	0	0	0	0
33.69616	0.004578915	0.2351495	0	0	0	0	0	0
33.71273	0.004578915	0.2351495	0	0	0	0	0	0
33.72948	0.004578915	0.2351495	0	0	0	0	0	0
33.74586	0.004578915	0.2351495	0	0	0	0	0	0
33.76243	0.00460523	0.2351315	0.001588376	-0.00108382	0.04820924	-0.03289533	0	0
33.779	0.00460523	0.2351315	0	0	-0.04793727	0.03270976	0	0
33.79557	0.00460523	0.2351315	0	0	0	0	0	0
33.81255	0.00460523	0.2351315	0	0	0	0	0	0
33.87859	0.004578915	0.2351135	-0.0003984472	-0.0002718784	-0.004799234	-0.003274734	0	0
33.89496	0.00460523	0.2350956	0.00160725	-0.001095789	0.0243361	-0.009996905	0	0
33.91161	0.00460523	0.2350956	0	0	-0.048675	0.03318559	0	0
33.92809	0.00460523	0.2350956	0	0	0	0	0	0
33.94466	0.00460523	0.2350956	0	0	0	0	0	0
33.96123	0.00460523	0.2350956	0	0	0	0	0	0
33.97779	0.00460523	0.2350956	0	0	0	0	0	0
33.99467	0.00460523	0.2350956	0	0	0	0	0	0
34.01093	0.004631546	0.2350776	0.001618592	-0.001104418	0.04885482	-0.03333525	0	0
34.02749	0.004631546	0.2350776	0	0	-0.04930902	0.03364517	0	0
34.04406	0.004631546	0.2350776	0	0	0	0	0	0
34.06063	0.004631546	0.2350776	0	0	0	0	0	0
34.07719	0.004631546	0.2350776	0	0	0	0	0	0
34.09376	0.004631546	0.2350776	0	0	0	0	0	0
34.11033	0.004631546	0.2350776	0	0	0	0	0	0
34.1269	0.004631546	0.2350776	0	0	0	0	0	0
34.14346	0.004631546	0.2350776	0	0	0	0	0	0
34.16003	0.004631546	0.2350776	0	0	0	0	0	0
34.1766	0.004631546	0.2350776	0	0	0	0	0	0
34.19316	0.004657861	0.2350597	0.001588376	-0.00108382	0.04793727	-0.03270976	0	0
34.20982	0.004657861	0.2350597	0	0	-0.04780518	0.03261963	0	0
34.2263	0.004631546	0.2350418	-0.001597572	-0.001089191	-0.04822037	-0.03287562	0	0
34.24286	0.004631546	0.2350418	0	0	0.04835399	0.03296672	0	0
34.25943	0.004631546	0.2350418	0	0	0	0	0	0
34.27599	0.004631546	0.2350418	0	0	0	0	0	0
34.29288	0.004631546	0.2350418	0	0	0	0	0	0
34.32569	0.004631546	0.2350418	0	0	0	0	0	0
34.34226	0.004631546	0.2350418	0	0	0	0	0	0
34.36119	0.004631546	0.2350418	0	0	0	0	0	0
34.37794	0.004631546	0.2350418	0	0	0	0	0	0
34.39433	0.004631546	0.2350418	0	0	0	0	0	0
34.4109	0.004631546	0.2350418	0	0	0	0	0	0
34.42747	0.004631546	0.2350418	0	0	0	0	0	0
34.44403	0.004631546	0.2350418	0	0	0	0	0	0
34.4606	0.004631546	0.2350418	0	0	0	0	0	0
34.47717	0.004631546	0.2350418	0	0	0	0	0	0
34.49373	0.004631546	0.2350418	0	0	0	0	0	0
34.51053	0.004631546	0.2350418	0	0	0	0	0	0
34.52686	0.004657861	0.2350238	0.001611379	-0.001099517	0.04863713	-0.0331873	0	0
34.54355	0.004657861	0.2350238	0	0	-0.04880007	0.03329849	0	0
34.56	0.004657861	0.2350238	0	0	0	0	0	0
34.57656	0.004657861	0.2350238	0	0	0	0	0	0
34.59313	0.004657861	0.2350238	0	0	0	0	0	0
34.6101	0.004657861	0.2350238	0	0	0	0	0	0
34.62626	0.004657861	0.2350238	0	0	0	0	0	0
34.64283	0.004657861	0.2350238	0	0	0	0	0	0
34.6594	0.004657861	0.2350238	0	0	0	0	0	0
34.67615	0.004657861	0.2350238	0	0	0	0	0	0
34.69253	0.004631546	0.2350058	-0.001606501	-0.001096188	-0.0484843	-0.03308302	0	0
34.7592	0.004657861	0.2349879	0.0003946856	-0.0002693118	0.02409513	0.009955936	0	0
34.77572	0.004631546	0.2350058	-0.001593512	0.001087325	-0.02390032	0.01630826	0	0
34.79193	0.004631546	0.2350058	0	0	0.04869213	-0.03322483	0	0
34.8085	0.004631546	0.2350058	0	0	0	0	0	0
34.82526	0.004631546	0.2350058	0	0	0	0	0	0
34.84177	0.004631546	0.2350058	0	0	0	0	0	0
34.8582	0.004631546	0.2350058	0	0	0	0	0	0
34.87477	0.004631546	0.2350058	0	0	0	0	0	0
34.89133	0.004631546	0.2350058	0	0	0	0	0	0
34.9079	0.004631546	0.2350058	0	0	0	0	0	0
34.92447	0.004631546	0.2350058	0	0	0	0	0	0
34.94134	0.004631546	0.2350058	0	0	0	0	0	0
34.95786	0.004631546	0.2350058	0	0	0	0	0	0
34.97417	0.004631546	0.2350058	0	0	0	0	0	0
34.99088	0.004631546	0.2350058	0	0	0	0	0	0
35.0074	0.004631546	0.2350058	0	0	0	0	0	0
35.0239	0.004631546	0.2350058	0	0	0	0	0	0
35.04043	0.004631546	0.2350058	0	0	0	0	0	0
35.057	0.004631546	0.2350058	0	0	0	0	0	0
35.07357	0.004631546	0.2350058	0	0	0	0	0	0
35.09013	0.004631546	0.2350058	0	0	0	0	0	0
35.10696	0.004631546	0.2350058	0	0	0	0	0	0
35.12327	0.004631546	0.2350058	0	0	0	0	0	0
35.13984	0.004631546	0.2350058	0	0	0	0	0	0
35.1564	0.004631546	0.2350058	0	0	0	0	0	0
35.17297	0.004631546	0.2350058	0	0	0	0	0	0
35.20653	0.004631546	0.2350058	0	0	0	0	0	0
35.22618	0.004631546	0.2350058	0	0	0	0	0	0
35.24275	0.004631546	0.2350058	0	0	0	0	0	0
35.25932	0.004631546	0.2350058	0	0	0	0	0	0
35.27588	0.004657861	0.2349879	0.001588741	-0.00108407	0.04795383	-0.03272106	0	0
35.29259	0.004657861	0.2349879	0	0	-0.04775041	0.03258225	0	0
35.30901	0.004578915	0.2346109	-0.0048061	-0.02295126	-0.1450484	-0.6926704	0	0
35.32558	0.005421	0.2328513	0.0508283	-0.1062063	1.686232	-2.523391	0	0
35.34215	0.006289391	0.2238871	0.0524162	-0.5410853	0.04792284	-13.12467	0	0
35.35872	0.005078904	0.2111169	-0.07306514	-0.7708094	-3.787034	-6.933085	0	0
35.37528	0.002657888	0.1894153	-0.1461328	-1.309912	-2.205186	-16.27016	0	0
35.44095	-0.007763002	0.1190901	-0.1586857	-1.070887	-0.1526425	2.906528	0	0
35.45752	-0.01152581	0.09981431	-0.227071	-1.163219	-0.8315223	-1.122694	0	0
35.47409	-0.01531459	0.08732386	-0.2287443	-0.7540988	-0.05050153	12.34727	0	0
35.49065	-0.01973428	0.07653151	-0.2667729	-0.6514277	-1.147838	3.098976	0	0
35.50725	-0.0278875	0.06312229	-0.4913377	-0.8080797	-6.771921	-4.723959	0	0
35.52378	-0.0341709	0.05313815	-0.3799666	-0.603756	3.361572	6.16721	0	0
35.54035	-0.04250071	0.0441696	-0.502788	-0.5413428	-3.710174	1.885371	0	0
35.57379	-0.05746298	0.02467321	-0.4474413	-0.5830323	1.106782	-0.8336746	0	0
35.59005	-0.06760734	0.01301078	-0.6238051	-0.7171559	-3.548447	-2.698573	0	0
35.60662	-0.07300162	0.004524813	-0.3255998	-0.5122141	9.083514	6.242651	0	0
35.62336	-0.07852243	-0.002418723	-0.3297439	-0.4147201	-0.1244104	2.926875	0	0
35.63975	-0.082392	-0.009508991	-0.2361231	-0.4326515	2.825808	-0.5412349	0	0
35.65635	-0.08555381	-0.01633099	-0.1904963	-0.4110194	1.383229	0.6558037	0	0
35.67289	-0.08578892	-0.01642558	-0.01421749	-0.005720043	5.320107	12.23196	0	0
35.68945	-0.08573667	-0.01646341	0.003153872	-0.00228378	0.524752	0.1038022	0	0
35.70602	-0.08576279	-0.01644449	-0.001577074	0.001142209	-0.1427967	0.1034085	0	0
35.72258	-0.08576279	-0.01644449	0	0	0.04760715	-0.03447988	0	0
35.73915	-0.08576279	-0.01644449	0	0	0	0	0	0
35.75571	-0.08576279	-0.01648233	0	-0.002283893	0	-0.06892802	0	0
35.77228	-0.08576279	-0.01648233	0	0	0	0.06892802	0	0
35.78894	-0.08578892	-0.01650125	-0.001568493	-0.00113567	-0.04720678	-0.03418016	0	0
35.80542	-0.08578892	-0.01650125	0	0	0.04733722	0.0342746	0	0
35.82198	-0.08578892	-0.01650125	0	0	0	0	0	0
35.83855	-0.08578892	-0.01650125	0	0	0	0	0	0
35.85512	-0.08581504	-0.01648233	-0.001576711	0.001141946	-0.04758523	0.03446401	0	0
35.872	-0.08584116	-0.01646341	-0.001547493	0.001120785	0.0008735587	-0.0006326829	0	0
35.88825	-0.08586729	-0.01644449	-0.001607431	0.001164195	-0.001809146	0.001310288	0	0
35.90502	-0.08589341	-0.01642558	-0.001557702	0.001128067	0.00150604	-0.001094127	0	0
35.92138	-0.08591953	-0.01640666	-0.00159619	0.001156054	-0.00116159	0.0008446441	0	0
35.93795	-0.08594565	-0.01638774	-0.001576711	0.001141834	0.0005914924	-0.0004318062	0	0
35.95452	-0.08594565	-0.01638774	0	0	0.04758523	-0.03446062	0	0
35.97108	-0.08594565	-0.01638774	0	0	0	0	0	0
35.98765	-0.08594565	-0.01638774	0	0	0	0	0	0
36.00422	-0.08594565	-0.01638774	0	0	0	0	0	0
36.03735	-0.08594565	-0.01638774	0	0	0	0	0	0
36.07048	-0.08594565	-0.01638774	0	0	0	0	0	0
36.08714	-0.08594565	-0.01638774	0	0	0	0	0	0
36.10365	-0.08594565	-0.01638774	0	0	0	0	0	0
36.12018	-0.08594565	-0.01638774	0	0	0	0	0	0
36.14969	-0.08594565	-0.01638774	0	0	0	0	0	0
36.16626	-0.08594565	-0.01638774	0	0	0	0	0	0
36.18282	-0.08594565	-0.01638774	0	0	0	0	0	0
36.19939	-0.08594565	-0.01638774	0	0	0	0	0	0
36.21623	-0.08594565	-0.01638774	0	0	0	0	0	0
36.23252	-0.08594565	-0.01638774	0	0	0	0	0	0
36.24925	-0.08594565	-0.01638774	0	0	0	0	0	0
36.26566	-0.08594565	-0.01638774	0	0	0	0	0	0
36.28222	-0.08594565	-0.01638774	0	0	0	0	0	0
36.29879	-0.08594565	-0.01638774	0	0	0	0	0	0
36.31535	-0.08594565	-0.01638774	0	0	0	0	0	0
36.33192	-0.08594565	-0.01638774	0	0	0	0	0	0
36.34849	-0.08594565	-0.01638774	0	0	0	0	0	0
36.36506	-0.08594565	-0.01638774	0	0	0	0	0	0
36.38162	-0.08594565	-0.01638774	0	0	0	0	0	0
36.39819	-0.08594565	-0.01638774	0	0	0	0	0	0
36.41476	-0.08594565	-0.01638774	0	0	0	0	0	0
36.43132	-0.08594565	-0.01638774	0	0	0	0	0	0
36.49759	-0.08594565	-0.01638774	0	0	0	0	0	0
36.51445	-0.08594565	-0.01638774	0	0	0	0	0	0
36.53096	-0.08594565	-0.01638774	0	0	0	0	0	0
36.54729	-0.08591953	-0.01640666	0.001599172	-0.0011581	0.04868913	-0.03526004	0	0
36.56386	-0.08591953	-0.01640666	0	0	-0.04860446	0.03519872	0	0
36.58043	-0.08591953	-0.01636882	0	0.00228378	0	0.06892462	0	0
36.597	-0.08618074	-0.01617965	-0.01575578	0.01141057	-0.4753461	0.2753519	0	0
36.61356	-0.08631135	-0.01604724	-0.007889005	0.007998024	0.2374197	-0.1029908	0	0
36.63013	-0.08722548	-0.01527178	-0.05517724	0.04680681	-1.427655	1.171656	0	0
36.64669	-0.08696432	-0.0147423	0.01576396	0.03195909	2.14101	-0.448105	0	0
36.66326	-0.08842669	-0.01186954	-0.08826929	0.1734002	-3.139729	4.268702	0	0
36.67983	-0.092655	-0.008584121	-0.2552208	0.1983085	-5.038606	0.7517323	0	0
36.69658	-0.09893905	-0.00381294	-0.3751601	0.2848409	-3.599884	2.597203	0	0
36.71309	-0.1062042	0.002757365	-0.440042	0.3979589	-1.950729	3.400985	0	0
36.72953	-0.1146009	0.015129	-0.51071	0.7524712	-2.144614	10.75866	0	0
36.7461	-0.1176126	0.0271393	-0.1817845	0.724943	9.964849	-0.833972	0	0
36.76266	-0.1174049	0.04498748	0.01253274	1.077318	5.864507	10.6347	0	0
36.77964	-0.1163666	0.05875384	0.06116617	0.8109596	1.449899	-7.940892	0	0
36.79615	-0.1143412	0.07250961	0.1226507	0.8329848	1.835951	0.6576792	0	0
36.81237	-0.1108074	0.08993504	0.2179669	1.074817	2.912526	7.389541	0	0
36.82893	-0.1088834	0.09819984	0.1161307	0.4988645	-3.106687	-17.57041	0	0
36.84569	-0.1044084	0.112088	0.2670996	0.8289379	4.530693	9.905754	0	0
36.86207	-0.1004502	0.1207523	0.2416421	0.5289453	-0.7683085	-9.053795	0	0
36.87872	-0.09596746	0.1288911	0.2692797	0.4888949	0.8368015	-1.212633	0	0
36.8952	-0.08894888	0.1406389	0.4257004	0.7125444	4.720785	6.749758	0	0
36.91177	-0.08058824	0.1539046	0.5046492	0.8007192	2.388454	2.667569	0	0
36.9449	-0.06792168	0.1713768	0.3823218	0.5273739	-2.46142	-5.50014	0	0
36.96177	-0.05533818	0.1895958	0.7459719	1.080051	7.273112	11.0537	0	0
36.97803	-0.04854079	0.2005081	0.4179912	0.6710293	-9.899616	-12.34571	0	0
36.9946	-0.04326246	0.207156	0.3186002	0.4012689	-3.02751	-8.217064	0	0
37.01117	-0.03645752	0.2170726	0.410747	0.59857	2.780995	5.95456	0	0
37.02773	-0.02657269	0.2277145	0.5966496	0.6423465	5.610554	1.321176	0	0
37.04433	-0.01755083	0.237106	0.5434345	0.565699	-1.604374	-2.310832	0	0
