Time	Pos X	Pos Y	Vel X	Vel Y	Acc X	Acc YForce X	Force Y
0.01650949	-0.01715621	0.1223957	-1.039173	7.413655	-62.94394	449.054	0	0
0.05045142	-0.01715621	0.1223957	0	0	20.59749	-146.9464	0	0
0.06704815	-0.01715621	0.1223957	0	0	0	0	0	0
0.08406097	-0.01715621	0.1223957	0	0	0	0	0	0
0.1005716	-0.0171299	0.1223774	0.001593393	-0.001105583	0.04753063	-0.03297934	0	0
0.1167188	-0.0171299	0.1223774	0	0	-0.04879059	0.03385357	0	0
0.1332879	-0.0171299	0.1223774	0	0	0	0	0	0
0.1498534	-0.0171299	0.1223774	0	0	0	0	0	0
2.4472	0.03543253	0.08008898	0.02287963	-0.01840752	0.009887855	-0.007955151	0	0
2.463767	0.03535368	0.0802548	-0.004759365	0.01000892	-0.01194469	0.01228068	0	0
2.480334	0.03519599	0.08051273	-0.009518779	0.01556923	-0.1436415	0.1678129	0	0
2.496902	0.03493315	0.08080748	-0.0158647	0.01779103	-0.1915215	0.06705458	0	0
2.513468	0.03354005	0.08226256	-0.08409265	0.08783362	-2.059168	2.113935	0	0
2.530034	0.03093749	0.08449025	-0.1570995	0.1344716	-2.203476	1.407618	0	0
2.558091	0.02333787	0.09013725	-0.2708675	0.2012714	-2.549545	1.496985	0	0
2.593498	0.01439374	0.09663987	-0.2526101	0.1836544	0.2876834	-0.2775929	0	0
2.626879	0.005868354	0.1030965	-0.2553911	0.1934195	-0.04042744	0.1419585	0	0
2.643446	0.002763151	0.1055521	-0.1874358	0.1482228	1.360508	-0.9048686	0	0
2.660014	-0.001684209	0.1088669	-0.2684316	0.2000749	-2.44444	1.56489	0	0
2.678658	-0.003684194	0.1104411	-0.1072704	0.08443254	4.576847	-3.284149	0	0
2.695226	-0.006763055	0.1137526	-0.1858378	0.1998765	-2.231279	3.278559	0	0
2.711792	-0.008236656	0.1167876	-0.08894929	0.1832001	2.924121	-0.5032978	0	0
2.728428	-0.008210341	0.1167693	0.001581837	-0.001098636	2.726663	-5.550804	0	0
2.744926	-0.00826297	0.1168059	-0.003189952	0.002215563	-0.144017	0.1000256	0	0
2.761493	-0.008394539	0.1169338	-0.007941797	0.007722779	-0.1437129	0.1665581	0	0
2.778462	-0.009604968	0.1178476	-0.07133191	0.05384986	-1.890227	1.375461	0	0
2.794625	-0.01631434	0.1225052	-0.4150919	0.2881555	-10.37529	7.071764	0	0
2.811193	-0.02073387	0.1256079	-0.2667632	0.1872787	4.531774	-3.082011	0	0
2.827759	-0.02804528	0.1306777	-0.4413427	0.30603	-5.26897	3.584023	0	0
2.844326	-0.03803428	0.1375997	-0.6029374	0.4178113	-4.877078	3.373665	0	0
2.860893	-0.0447333	0.1422397	-0.4043652	0.2800807	5.993008	-4.156778	0	0
2.877531	-0.05245185	0.1475845	-0.463903	0.3212374	-1.793037	1.239472	0	0
2.894026	-0.05793509	0.1514174	-0.332419	0.2323625	3.96834	-2.682347	0	0
2.910593	-0.06378179	0.1554654	-0.3529176	0.2443451	-0.6200089	0.3624302	0	0
2.92716	-0.06606162	0.1570439	-0.137615	0.09528268	6.498033	-4.498841	0	0
2.943726	-0.06692621	0.1576425	-0.05218812	0.03613408	2.578261	-1.78516	0	0
2.960294	-0.06697861	0.1576788	-0.003162821	0.002190095	1.479597	-1.024439	0	0
2.976859	-0.06760734	0.1581141	-0.03795481	0.02628042	-1.050085	0.7270894	0	0
2.993613	-0.06928366	0.1592749	-0.1000559	0.06928089	-1.863835	1.290569	0	0
3.059695	-0.08782612	0.1721912	-0.2805986	0.1954605	-2.179528	1.523251	0	0
3.079927	-0.09351591	0.1761713	-0.2812147	0.1967141	-0.007136839	0.01452435	0	0
3.096685	-0.0954981	0.1775457	-0.1182851	0.08201464	4.404615	-3.10077	0	0
3.113062	-0.09706245	0.1786667	-0.09552155	0.06844974	0.687001	-0.4093865	0	0
3.129711	-0.1007368	0.1812154	-0.2207012	0.1530865	-3.790393	2.562769	0	0
3.146195	-0.1020912	0.1821551	-0.08216063	0.05700316	4.181313	-2.899904	0	0
3.162762	-0.101961	0.1821008	0.007859946	-0.003272242	2.723646	-1.823682	0	0
3.179328	-0.101961	0.1821008	0	0	-0.2372239	0.09876072	0	0
3.195895	-0.101961	0.1821008	0	0	0	0	0	0
3.212462	-0.101961	0.1821008	0	0	0	0	0	0
3.22928	-0.101961	0.1821008	0	0	0	0	0	0
3.245792	-0.1019349	0.1820828	0.001577458	-0.001094655	0.04732784	-0.03284249	0	0
3.262162	-0.1019349	0.1820828	0	0	-0.04797403	0.0332909	0	0
3.278728	-0.1019349	0.1820828	0	0	0	0	0	0
3.295327	-0.1019349	0.1820828	0	0	0	0	0	0
3.311862	-0.1019089	0.1821008	0.001574846	0.001093155	0.04753033	0.03299244	0	0
3.328428	-0.1018047	0.1822093	0.006288318	0.006544672	0.1423963	0.164693	0	0
3.345362	-0.101362	0.1825164	0.02614785	0.01814	0.5928269	0.346132	0	0
3.361562	-0.09818328	0.1846844	0.1962106	0.1338191	5.132614	3.491278	0	0
3.394695	-0.08479618	0.1935477	0.4040469	0.2675121	4.21294	2.710019	0	0
3.411262	-0.08050981	0.1964336	0.2587254	0.1741937	-2.923986	-1.877641	0	0
3.427828	-0.0692051	0.2038598	0.6823931	0.4482687	12.78668	8.271835	0	0
3.444395	-0.06223531	0.2082904	0.4207091	0.2674442	-7.897982	-5.45753	0	0
3.460962	-0.05321287	0.2141223	0.5446113	0.3520206	3.739484	2.552594	0	0
3.477528	-0.0510346	0.2155436	0.1314887	0.08579673	-12.4686	-8.034999	0	0
3.494095	-0.04063552	0.2216222	0.6276898	0.3669015	14.97581	8.484002	0	0
3.510979	-0.03595818	0.2238152	0.2770263	0.1298858	-10.4828	-7.08539	0	0
3.527229	-0.02491589	0.2278044	0.6795395	0.2454947	12.14814	3.489158	0	0
3.543795	-0.01931339	0.2316303	0.3381923	0.2309477	-10.40195	-0.4432951	0	0
3.560513	-0.01699836	0.2332105	0.1384699	0.09451785	-6.000435	-4.098879	0	0
3.576928	-0.01697205	0.2332284	0.001602739	0.001093911	-4.130836	-2.819662	0	0
3.593537	-0.01697205	0.2332284	0	0	-0.04853348	-0.03312537	0	0
3.610061	-0.01697205	0.2332284	0	0	0	0	0	0
3.627061	-0.01697205	0.2332284	0	0	0	0	0	0
3.643195	-0.01697205	0.2332284	0	0	0	0	0	0
3.660085	-0.01694575	0.2332105	0.001557604	-0.001063105	0.0471657	-0.03219182	0	0
3.676328	-0.01691944	0.2331925	0.001619606	-0.001105423	0.001871288	-0.001277204	0	0
3.692896	-0.01660374	0.232977	0.01905567	-0.01300584	0.5314143	-0.3626995	0	0
3.709462	-0.01581447	0.2324383	0.04764305	-0.03251738	0.8627936	-0.5888762	0	0
3.726131	-0.007868258	0.2270138	0.476705	-0.3254237	12.90982	-8.813107	0	0
3.742644	-0.00210526	0.2230782	0.3490054	-0.23834	-3.848498	2.624454	0	0
3.759163	0.002789466	0.2197703	0.2963076	-0.2002506	-1.59537	1.153115	0	0
3.775729	0.005605204	0.2178461	0.1699705	-0.1161543	-3.818549	2.541817	0	0
3.792295	0.005684149	0.2178281	0.004765264	-0.00108565	-4.986156	3.472954	0	0
3.809192	0.006657796	0.2171626	0.05762504	-0.03938661	1.579648	-1.144576	0	0
3.825701	0.008210341	0.2161013	0.09403795	-0.06428257	1.09001	-0.7452537	0	0
3.858725	0.01092062	0.2142842	0.08207212	-0.0550244	-0.2415735	0.1869094	0	0
3.875237	0.01092062	0.2142842	0	0	-1.65685	1.110818	0	0
3.908262	0.01092062	0.2142842	0	0	0	0	0	0
3.924828	0.01092062	0.2142842	0	0	0	0	0	0
3.941395	0.01092062	0.2142842	0	0	0	0	0	0
3.9647	0.01094693	0.2142662	0.001129048	-0.0007723864	0.02831652	-0.01937145	0	0
3.981311	0.01094693	0.2142662	0	0	-0.02828607	0.01935063	0	0
3.998324	0.01094693	0.2142662	0	0	0	0	0	0
4.014401	0.01094693	0.2142662	0	0	0	0	0	0
4.030968	0.01094693	0.2142662	0	0	0	0	0	0
4.047535	0.01092062	0.2142482	-0.001588281	-0.00108565	-0.04793579	-0.03276593	0	0
4.064101	0.01092062	0.2142482	0	0	0.04793648	0.03276641	0	0
4.080668	0.01089431	0.2142662	-0.001588281	0.00108565	-0.04793648	0.03276641	0	0
4.097235	0.01089431	0.2142662	0	0	0.04793579	-0.03276593	0	0
4.113801	0.01089431	0.2142662	0	0	0	0	0	0
4.130368	0.01089431	0.2142662	0	0	0	0	0	0
4.146935	0.01089431	0.2142662	0	0	0	0	0	0
4.163501	0.01089431	0.2142662	0	0	0	0	0	0
4.180068	0.01086799	0.2142482	-0.001588281	-0.00108565	-0.04793648	-0.03276641	0	0
4.196635	0.01086799	0.2142482	0	0	0.04793579	0.03276593	0	0
4.213202	0.01086799	0.2142482	0	0	0	0	0	0
4.229993	0.01086799	0.2142482	0	0	0	0	0	0
4.246335	0.01089431	0.2142302	0.001610109	-0.001101482	0.04859457	-0.03324376	0	0
4.262902	0.01089431	0.2142302	0	0	-0.04892621	0.03347063	0	0
4.279521	0.01089431	0.2142302	0	0	0	0	0	0
4.296035	0.01089431	0.2142302	0	0	0	0	0	0
4.312602	0.01089431	0.2142302	0	0	0	0	0	0
4.329168	0.01089431	0.2142302	0	0	0	0	0	0
4.345735	0.01089431	0.2142302	0	0	0	0	0	0
4.362301	0.01086799	0.2142482	-0.001588372	0.001086612	-0.04793993	0.03279591	0	0
4.378868	0.01086799	0.2142482	0	0	0.04793924	-0.03279544	0	0
4.395435	0.01086799	0.2142482	0	0	0	0	0	0
4.412002	0.01086799	0.2142482	0	0	0	0	0	0
4.428568	0.01086799	0.2142482	0	0	0	0	0	0
4.445138	0.01084168	0.2142302	-0.001587915	-0.0010863	-0.04791993	-0.03278223	0	0
4.461702	0.01084168	0.2142302	0	0	0.04792407	0.03278506	0	0
4.478269	0.01084168	0.2142302	0	0	0	0	0	0
4.495176	0.01084168	0.2142302	0	0	0	0	0	0
4.511402	0.01084168	0.2142302	0	0	0	0	0	0
4.527969	0.01084168	0.2142302	0	0	0	0	0	0
4.544536	0.01084168	0.2142302	0	0	0	0	0	0
4.561102	0.01084168	0.2142302	0	0	0	0	0	0
4.577669	0.01084168	0.2142302	0	0	0	0	0	0
4.594249	0.01081537	0.2142122	-0.001587047	-0.001084807	-0.04787927	-0.0327273	0	0
4.610803	0.01081537	0.2142122	0	0	0.04789857	0.03274049	0	0
4.627369	0.01081537	0.2142122	0	0	0	0	0	0
4.643936	0.01081537	0.2142122	0	0	0	0	0	0
4.660502	0.01081537	0.2142122	0	0	0	0	0	0
4.677068	0.01081537	0.2142122	0	0	0	0	0	0
4.693635	0.01081537	0.2142122	0	0	0	0	0	0
4.710202	0.01081537	0.2142122	0	0	0	0	0	0
4.726769	0.01081537	0.2142122	0	0	0	0	0	0
4.759902	0.01081537	0.2142122	0	0	0	0	0	0
4.809602	0.01081537	0.2142122	0	0	0	0	0	0
4.826168	0.01081537	0.2142122	0	0	0	0	0	0
4.845967	0.01081537	0.2142122	0	0	0	0	0	0
4.862934	0.01081537	0.2142122	0	0	0	0	0	0
4.879102	0.01081537	0.2142122	0	0	0	0	0	0
4.895958	0.01081537	0.2142122	0	0	0	0	0	0
4.928802	0.01081537	0.2142122	0	0	0	0	0	0
4.945368	0.01078906	0.2141943	-0.001588281	-0.00108565	-0.03214501	-0.02197234	0	0
4.961935	0.01078906	0.2141943	0	0	0.04793579	0.03276593	0	0
4.978518	0.01078906	0.2141943	0	0	0	0	0	0
4.995069	0.01078906	0.2141943	0	0	0	0	0	0
5.011635	0.01078906	0.2141943	0	0	0	0	0	0
5.028202	0.01078906	0.2141943	0	0	0	0	0	0
5.044768	0.01078906	0.2141943	0	0	0	0	0	0
5.061335	0.01078906	0.2141943	0	0	0	0	0	0
5.078086	0.01078906	0.2141943	0	0	0	0	0	0
5.094469	0.01078906	0.2141943	0	0	0	0	0	0
5.111035	0.01078906	0.2141943	0	0	0	0	0	0
5.127602	0.01078906	0.2141943	0	0	0	0	0	0
5.144168	0.01078906	0.2141943	0	0	0	0	0	0
5.160735	0.01078906	0.2141943	0	0	0	0	0	0
5.177656	0.01078906	0.2141943	0	0	0	0	0	0
5.193868	0.01078906	0.2141943	0	0	0	0	0	0
5.210679	0.01078906	0.2141943	0	0	0	0	0	0
5.227002	0.01078906	0.2141943	0	0	0	0	0	0
5.243702	0.01078906	0.2141943	0	0	0	0	0	0
5.260136	0.01078906	0.2141943	0	0	0	0	0	0
5.276701	0.01076274	0.2142122	-0.001588418	0.001085744	-0.04813598	0.03290277	0	0
5.293737	0.01076274	0.2142122	0	0	0.04727187	-0.03231212	0	0
5.309835	0.01076274	0.2142122	0	0	0	0	0	0
5.326401	0.01076274	0.2142122	0	0	0	0	0	0
5.342968	0.01076274	0.2142122	0	0	0	0	0	0
5.359785	0.01076274	0.2142122	0	0	0	0	0	0
5.376101	0.01076274	0.2142122	0	0	0	0	0	0
5.392808	0.01076274	0.2142122	0	0	0	0	0	0
5.409235	0.01078906	0.2141943	0.001601743	-0.001094852	0.04834069	-0.0330427	0	0
5.425801	0.01078906	0.2141943	0	0	-0.04854749	0.03318406	0	0
5.442368	0.01078906	0.2141943	0	0	0	0	0	0
5.458935	0.01078906	0.2141943	0	0	0	0	0	0
5.475502	0.01078906	0.2141943	0	0	0	0	0	0
5.492383	0.01078906	0.2141943	0	0	0	0	0	0
5.508635	0.01078906	0.2141943	0	0	0	0	0	0
5.525403	0.01078906	0.2141943	0	0	0	0	0	0
5.541768	0.01078906	0.2141943	0	0	0	0	0	0
5.641168	0.01073643	0.2141583	-0.0005294388	-0.0003620351	-0.00457337	-0.003127312	0	0
5.657734	0.0106838	0.2140863	-0.003176653	-0.004344525	-0.02282744	-0.03434179	0	0
5.674301	0.0106838	0.2140503	0	-0.0021731	0.09587572	0.06553658	0	0
5.690868	0.01063118	0.2138704	-0.00317647	-0.01086069	-0.09586744	-0.2621957	0	0
5.707435	0.01057855	0.2137984	-0.003176562	-0.0043444	-2.754562E-06	0.1966648	0	0
5.740568	0.01028911	0.2134205	-0.008735782	-0.01140489	-0.111856	-0.1420628	0	0
5.757135	0.01023648	0.2133125	-0.00317647	-0.006517312	0.1118568	0.09834108	0	0
5.773702	0.009815474	0.2125927	-0.025413	-0.0434494	-0.6711094	-1.114629	0	0
5.790589	0.009894414	0.2122868	0.00467454	-0.01811732	0.899372	0.7572224	0	0
5.809721	0.009973354	0.2120888	0.004126136	-0.01034813	-0.01522546	0.2156981	0	0
5.826288	0.009999666	0.2119628	0.001588235	-0.007603831	-0.07109188	0.07687339	0	0
5.842855	0.01031542	0.2112429	0.01905916	-0.04345625	0.5272735	-1.082028	0	0
5.859637	0.01418326	0.2079843	0.2304779	-0.1941711	6.339576	-4.519315	0	0
5.875989	0.01976059	0.2021481	0.3410854	-0.3569209	3.338238	-4.911942	0	0
5.892557	0.0288867	0.194125	0.5508375	-0.4842603	6.371683	-3.868217	0	0
5.909122	0.03648381	0.1889098	0.458615	-0.3148244	-2.783399	5.113807	0	0
5.925689	0.04607264	0.1823177	0.5787996	-0.3979129	3.627439	-2.507796	0	0
5.942255	0.05064088	0.1791729	0.2757475	-0.1898251	-9.146393	6.280282	0	0
5.958822	0.05885301	0.1735122	0.4956994	-0.341692	6.638352	-4.583485	0	0
5.97539	0.06663803	0.1681362	0.4698913	-0.3244828	-0.7788899	0.5193747	0	0
5.991956	0.07203305	0.164441	0.325672	-0.2230632	-4.352673	3.06094	0	0
6.008522	0.07457199	0.1626832	0.1532596	-0.1061081	-5.20379	3.529966	0	0
6.025255	0.07883627	0.1597282	0.2548472	-0.1765998	3.050772	-2.116934	0	0
6.041655	0.07915009	0.1595106	0.01913488	-0.01326903	-7.11412	4.929544	0	0
6.058278	0.07912394	0.1595287	-0.001573212	0.00109094	-0.627074	0.4348428	0	0
6.074789	0.07912394	0.1595287	0	0	0.04748032	-0.0329251	0	0
6.091355	0.07912394	0.1595287	0	0	0	0	0	0
6.108314	0.07912394	0.1595287	0	0	0	0	0	0
6.124487	0.07912394	0.1595287	0	0	0	0	0	0
6.141055	0.07912394	0.1595287	0	0	0	0	0	0
6.157621	0.07912394	0.1595287	0	0	0	0	0	0
6.174188	0.07912394	0.1595287	0	0	0	0	0	0
6.190873	0.07912394	0.1595287	0	0	0	0	0	0
6.207321	0.07912394	0.1595287	0	0	0	0	0	0
6.223888	0.07912394	0.1595287	0	0	0	0	0	0
6.240455	0.07912394	0.1595287	0	0	0	0	0	0
6.257418	0.07912394	0.1595287	0	0	0	0	0	0
6.273588	0.07912394	0.1594925	0	-0.002243004	0	-0.06769594	0	0
6.290155	0.07912394	0.1594925	0	0	0	0.06851633	0	0
6.306721	0.07912394	0.1594925	0	0	0	0	0	0
6.323288	0.07909779	0.1594743	-0.00157851	-0.001093714	-0.04764158	-0.03300978	0	0
6.339855	0.07909779	0.1594381	0	-0.00218929	0.04764021	-0.03306502	0	0
6.356421	0.07909779	0.1594381	0	0	0	0.0660748	0	0
6.389555	0.07896703	0.1593474	-0.003946389	-0.002736612	-0.07940378	-0.05506233	0	0
6.472571	0.06425353	0.1491834	-0.177236	-0.1224339	-1.491948	-1.030542	0	0
6.489082	0.05413128	0.1422033	-0.6130626	-0.4227522	-4.378963	-3.017445	0	0
6.505523	0.03984732	0.1323726	-0.868808	-0.5979446	-7.761189	-5.316619	0	0
6.522106	0.02980696	0.1254802	-0.6054623	-0.4156312	7.974416	5.52066	0	0
6.538656	0.02044452	0.1190901	-0.5657204	-0.3861208	1.199481	0.890678	0	0
6.555223	0.009789161	0.1117221	-0.6431772	-0.4447456	-2.338931	-1.770269	0	0
6.571789	0.004789437	0.1083543	-0.3017927	-0.2032847	10.3033	7.287516	0	0
6.588355	-0.006526223	0.100548	-0.6830736	-0.4712322	-11.50774	-8.087139	0	0
6.605164	-0.008447167	0.09928233	-0.114284	-0.07529743	17.04274	11.86346	0	0
6.621489	-0.01599864	0.09412444	-0.4625573	-0.3159415	-10.51106	-7.262758	0	0
6.638055	-0.01897141	0.09204861	-0.1794524	-0.1253081	8.607297	5.795867	0	0
6.654622	-0.02225948	0.08978797	-0.1984685	-0.1364521	-0.5739323	-0.3363406	0	0
6.671213	-0.02262772	0.08953059	-0.02219544	-0.01551363	5.316183	3.647357	0	0
6.687755	-0.02262772	0.08953059	0	0	0.6698984	0.4682291	0	0
6.709019	-0.02260141	0.08954898	0.001236913	0.000864727	0.03271694	0.02287244	0	0
6.725749	-0.02260141	0.08954898	0	0	-0.03255476	-0.02275905	0	0
6.742262	-0.02257511	0.08953059	0.001592889	-0.00111359	0.04791696	-0.03349877	0	0
6.75872	-0.02257511	0.08953059	0	0	-0.04831266	0.03377541	0	0
6.775287	-0.02257511	0.08953059	0	0	0	0	0	0
6.791853	-0.02257511	0.08953059	0	0	0	0	0	0
6.808808	-0.02257511	0.08953059	0	0	0	0	0	0
6.825	-0.02257511	0.08953059	0	0	0	0	0	0
6.841832	-0.02260141	0.08954898	-0.001562611	0.001092422	-0.04731766	0.03307981	0	0
6.858119	-0.02260141	0.08954898	0	0	0.04718073	-0.03298408	0	0
6.874855	-0.02260141	0.08954898	0	0	0	0	0	0
6.891369	-0.02260141	0.08954898	0	0	0	0	0	0
6.90782	-0.02260141	0.08954898	0	0	0	0	0	0
6.924387	-0.02260141	0.08954898	0	0	0	0	0	0
6.940953	-0.02260141	0.08954898	0	0	0	0	0	0
6.957913	-0.02257511	0.08953059	0.001550837	-0.001084191	0.04625781	-0.03233886	0	0
6.974087	-0.02254881	0.08951221	0.00162628	-0.001136933	0.002276945	-0.001591815	0	0
6.990654	-0.02254881	0.08947544	0	-0.002219358	-0.04967166	-0.03306063	0	0
7.00722	-0.0224173	0.08938351	0.00793877	-0.005549099	0.2396029	-0.1004961	0	0
7.02396	-0.02215427	0.08919965	0.01571223	-0.01098294	0.2333944	-0.1631485	0	0
7.040353	-0.02199645	0.08908933	0.009627062	-0.006729671	-0.1836561	0.1283677	0	0
7.05692	-0.01860312	0.08671682	0.2048339	-0.1432137	5.922635	-4.140967	0	0
7.073487	-0.0140254	0.08351463	0.2763038	-0.1932787	2.156996	-1.510986	0	0
7.090054	-0.002368417	0.07531428	0.7036369	-0.4949887	12.89694	-9.105624	0	0
7.10662	0.009736534	0.06682065	0.7307194	-0.5127205	0.8173986	-0.5351781	0	0
7.189454	0.04370899	0.04286806	0.4101281	-0.2891646	-3.225279	2.249063	0	0
7.206021	0.04567873	0.04147306	0.1188905	-0.08420006	-2.929912	2.061987	0	0
7.222587	0.04722801	0.04037529	0.09352557	-0.06626885	-0.7655492	0.5411885	0	0
7.239153	0.04730678	0.04031947	0.00475478	-0.003369834	-2.6793	1.898433	0	0
7.25572	0.04730678	0.04031947	0	0	-0.1435057	0.1017062	0	0
7.272286	0.04730678	0.04031947	0	0	0	0	0	0
7.288853	0.04730678	0.04031947	0	0	0	0	0	0
7.305419	0.04730678	0.04031947	0	0	0	0	0	0
7.321988	0.04730678	0.04031947	0	0	0	0	0	0
7.338553	0.04730678	0.04031947	0	0	0	0	0	0
7.355195	0.04730678	0.04031947	0	0	0	0	0	0
7.371687	0.04730678	0.04031947	0	0	0	0	0	0
7.388253	0.04730678	0.04031947	0	0	0	0	0	0
7.40482	0.04730678	0.04031947	0	0	0	0	0	0
7.421388	0.04730678	0.04031947	0	0	0	0	0	0
7.437953	0.04730678	0.04031947	0	0	0	0	0	0
7.454521	0.04730678	0.04031947	0	0	0	0	0	0
7.471087	0.04730678	0.04031947	0	0	0	0	0	0
7.487653	0.04730678	0.04031947	0	0	0	0	0	0
7.504303	0.04730678	0.04031947	0	0	0	0	0	0
7.537354	0.04730678	0.04031947	0	0	0	0	0	0
7.570487	0.04730678	0.04031947	0	0	0	0	0	0
7.587053	0.04730678	0.04031947	0	0	0	0	0	0
7.603882	0.04733304	0.04030085	0.001560154	-0.00110592	0.04671777	-0.03311606	0	0
7.620381	0.04738555	0.04026364	0.003182845	-0.00225556	0.04868776	-0.03449415	0	0
7.636894	0.04754309	0.04011476	0.009540364	-0.009016071	0.1925798	-0.2047871	0	0
7.656012	0.04825199	0.03942612	0.03708132	-0.03602164	0.772966	-0.7579399	0	0
7.672579	0.04932837	0.03825327	0.06496865	-0.07079098	0.7814849	-0.9743388	0	0
7.689147	0.04680789	0.03575742	-0.1521367	-0.1506499	-6.552156	-2.410112	0	0
7.705713	0.04299979	0.03309208	-0.2298637	-0.1608849	-2.345842	-0.3088986	0	0
7.72228	0.03682545	0.02874509	-0.3727056	-0.2624002	-4.311163	-3.063869	0	0
7.738847	0.02857117	0.02287862	-0.4982292	-0.3541006	-3.788419	-2.767602	0	0
7.755413	0.02331157	0.01913698	-0.3174886	-0.2258591	5.454922	3.870447	0	0
7.77198	0.01765606	0.01518522	-0.3413769	-0.2385352	-0.7209821	-0.382583	0	0
7.788547	0.01628803	0.01424813	-0.08257666	-0.05656457	7.810831	5.492044	0	0
7.805114	0.01394646	0.01265449	-0.1413374	-0.09619214	-1.773427	-1.19598	0	0
7.821681	0.01389384	0.012692	-0.003176154	0.002263815	4.169653	2.971364	0	0
7.838247	0.01389384	0.012692	0	0	0.09585927	-0.06832404	0	0
7.854814	0.01386753	0.01271075	-0.001588214	0.001132005	-0.04793584	0.03416644	0	0
7.87138	0.01386753	0.01271075	0	0	0.04793447	-0.03416546	0	0
7.888572	0.01386753	0.01271075	0	0	0	0	0	0
7.921083	0.01386753	0.01271075	0	0	0	0	0	0
7.937647	0.01384122	0.01272951	-0.001588443	0.001132112	-0.03236789	0.02306918	0	0
7.954218	0.01386753	0.01274826	0.001587757	0.001131623	0.09585652	-1.474562E-05	0	0
7.97078	0.01384122	0.01276701	-0.001588626	0.001132298	-0.09586756	2.037872E-05	0	0
7.98735	0.01386753	0.01278576	0.001587849	0.001131688	0.09587307	-1.841517E-05	0	0
8.041908	0.01386753	0.01278576	0	0	-0.0223237	-0.01591051	0	0
8.058475	0.01386753	0.01278576	0	0	0	0	0	0
8.075203	0.01386753	0.01278576	0	0	0	0	0	0
8.141309	0.01386753	0.01278576	0	0	0	0	0	0
8.157875	0.01386753	0.01278576	0	0	0	0	0	0
8.174441	0.01386753	0.01278576	0	0	0	0	0	0
8.191008	0.01384122	0.01280451	-0.001588214	0.001131949	-0.04793515	0.03416426	0	0
8.207574	0.01384122	0.01280451	0	0	0.04793515	-0.03416426	0	0
8.22414	0.01384122	0.01280451	0	0	0	0	0	0
8.240706	0.01381491	0.01282327	-0.001588214	0.001131949	-0.04793515	0.03416426	0	0
8.25733	0.0137886	0.01284202	-0.001582747	0.001128053	0.0001647153	-0.0001173947	0	0
8.27384	0.01381491	0.01286077	0.001593627	0.00113575	0.09586591	0.0002323211	0	0
8.290406	0.01373598	0.01291703	-0.004764642	0.003395791	-0.1922304	0.06832812	0	0
8.306973	0.01360442	0.01308579	-0.007941071	0.01018698	-0.09587033	0.2049703	0	0
8.323539	0.01326238	0.01344203	-0.02064701	0.02150416	-0.383488	0.341573	0	0
8.340387	0.01297296	0.01364826	-0.01717793	0.01224017	0.1038186	-0.2772419	0	0
8.356672	0.01231517	0.0141919	-0.04039249	0.03338287	-0.7006372	0.6381063	0	0
8.373239	0.01002598	0.01597218	-0.1381836	0.1074645	-2.976787	2.255064	0	0
8.389805	0.00939446	0.01649673	-0.03812079	0.0316632	3.020074	-2.287819	0	0
8.406372	0.009420774	0.01651546	0.001588291	0.001130703	1.198457	-0.9214991	0	0
8.422939	0.009499714	0.01657165	0.004764818	0.003391997	0.09586775	0.06824599	0	0
8.439506	0.009341833	0.01687135	-0.009530241	0.01809083	-0.4314381	0.4436245	0	0
8.456072	0.008683993	0.01737703	-0.03970962	0.03052456	-0.910868	0.3752723	0	0
8.47298	0.002447363	0.02188747	-0.3688426	0.2667535	-9.832225	7.056891	0	0
8.489205	-0.005315739	0.02755015	-0.4784696	0.3490126	-3.308644	2.482658	0	0
8.522339	-0.01273615	0.03284968	-0.223955	0.1599447	5.156463	-3.830514	0	0
8.538905	-0.02331157	0.04059859	-0.6383699	0.4677522	-8.338365	6.193337	0	0
8.555539	-0.02815046	0.04409524	-0.2909037	0.2102108	10.46576	-7.757212	0	0
8.572039	-0.03322461	0.04779296	-0.3075336	0.224111	-0.5019042	0.4195211	0	0
8.588606	-0.03976849	0.05256315	-0.3949895	0.2879294	-2.64483	1.92999	0	0
8.62429	-0.04827825	0.05867976	-0.2384714	0.1714076	2.995459	-2.230005	0	0
8.6411	-0.05704331	0.06500887	-0.5214363	0.3765205	-5.390419	3.907355	0	0
8.657425	-0.0620256	0.06855772	-0.3051939	0.2173877	6.526209	-4.802639	0	0
8.673991	-0.06540657	0.07105117	-0.2040875	0.1505135	3.073959	-2.033189	0	0
8.690557	-0.07433645	0.07745342	-0.53904	0.3864626	-10.10947	7.121368	0	0
8.707124	-0.07739771	0.07964676	-0.1847885	0.1323978	10.69195	-7.668132	0	0
8.72369	-0.08359421	0.08415893	-0.374043	0.2723711	-5.71204	4.224646	0	0
8.74067	-0.08850502	0.08805956	-0.2892086	0.2297165	2.528862	-1.271511	0	0
8.756824	-0.09489831	0.09436319	-0.3957638	0.3902141	-3.215843	4.843827	0	0
8.773391	-0.09792265	0.09950247	-0.18256	0.3102252	6.515897	-2.444605	0	0
8.789957	-0.100346	0.1039213	-0.146285	0.2667377	1.094844	-1.312531	0	0
8.806523	-0.09943415	0.1118136	0.05504505	0.4764042	6.076503	6.328113	0	0
8.823091	-0.09854815	0.116093	0.05347911	0.2583081	-0.04726143	-6.582343	0	0
8.83974	-0.0977402	0.1263012	0.04852808	0.6131331	-0.1490535	10.6822	0	0
8.856224	-0.09716673	0.1295839	0.03478856	0.1991421	-0.4146712	-12.49463	0	0
8.87279	-0.09526341	0.1352509	0.1148916	0.342077	2.423652	4.324735	0	0
8.889358	-0.0931246	0.1374358	0.1290987	0.1318852	0.4287856	-6.343783	0	0
8.905924	-0.09012362	0.1394562	0.1811496	0.1219543	1.570944	-0.2997223	0	0
8.922491	-0.08824392	0.1407662	0.1134593	0.0790766	-2.042955	-1.29409	0	0
8.939057	-0.08803502	0.1409482	0.01260947	0.01098184	-3.043743	-2.055163	0	0
9.055023	-0.08764333	0.1420578	0.003377713	0.009568721	-0.06965674	-0.0106625	0	0
9.071589	-0.08761721	0.142076	0.001576352	0.001098274	-0.01359188	-0.06391241	0	0
9.088915	-0.0875911	0.1421306	0.001507283	0.003149598	-0.002037937	0.06052588	0	0
9.104927	-0.08756498	0.1421488	0.0016309	0.001135348	0.003708036	-0.06041976	0	0
9.121292	-0.08746052	0.1422215	0.006383395	0.004446205	0.1467851	0.1022587	0	0
9.13795	-0.08735606	0.1422943	0.006270753	0.004367164	-0.003411031	-0.002393519	0	0
9.154425	-0.08730383	0.1423306	0.003170224	0.002207851	-0.09357953	-0.06517194	0	0
9.170991	-0.08717325	0.1424216	0.00788266	0.005489573	0.1426239	0.09932273	0	0
9.187557	-0.08706878	0.142458	0.006305858	0.002195649	-0.04759073	-0.09941655	0	0
9.204123	-0.08678149	0.1426944	0.01734212	0.01427217	0.3330943	0.3644911	0	0
9.22069	-0.08636358	0.1429854	0.02522613	0.01756519	0.2379536	0.0993894	0	0
9.237257	-0.07716228	0.1493832	0.5553917	0.3861728	16.00089	11.12492	0	0
9.253823	-0.06975506	0.1545217	0.4471263	0.3101775	-3.26755	-2.293608	0	0
9.27039	-0.06299549	0.1592023	0.4080323	0.2825399	-1.179927	-0.8341542	0	0
9.287057	-0.0548397	0.1648759	0.4893268	0.3403983	2.446151	1.740959	0	0
9.303523	-0.04869831	0.1691502	0.3729706	0.2595853	-3.511738	-2.43901	0	0
9.32009	-0.04100332	0.1747062	0.4644705	0.3353601	2.769921	2.293884	0	0
9.336657	-0.03808684	0.1774011	0.1760495	0.1626696	-8.704813	-5.211957	0	0
9.353224	-0.0382445	0.1830404	-0.009516706	0.3403924	-5.600561	5.363838	0	0
9.36979	-0.04412923	0.1913103	-0.3552232	0.4992031	-10.43374	4.793053	0	0
9.386627	-0.04893459	0.194576	-0.2854027	0.1939527	2.09022	-9.138305	0	0
9.402924	-0.05945616	0.2018057	-0.6456383	0.4436401	-10.87225	7.535798	0	0
9.419649	-0.06393904	0.2048866	-0.2680263	0.1842045	11.43519	-7.856464	0	0
9.436162	-0.06642843	0.2065977	-0.1507544	0.1036222	3.528203	-2.424371	0	0
9.452676	-0.07014787	0.2091547	-0.225232	0.1548387	-2.255072	1.550761	0	0
9.469191	-0.07255661	0.2108109	-0.1458538	0.1002853	2.403317	-1.651702	0	0
9.485757	-0.07373451	0.2116209	-0.0711018	0.04889345	2.259662	-1.553513	0	0
9.50271	-0.07373451	0.2116209	0	0	2.121192	-1.458646	0	0
9.518891	-0.07373451	0.2116209	0	0	0	0	0	0
9.535456	-0.07373451	0.2116209	0	0	0	0	0	0
9.552022	-0.07376067	0.2116389	-0.0015795	0.001086581	-0.0476749	0.03279686	0	0
9.568588	-0.07376067	0.2116748	0	0.002172263	0.04767216	0.03276782	0	0
9.587677	-0.0738392	0.2118368	-0.004113506	0.00848618	-0.1153696	0.1770835	0	0
9.604244	-0.07397006	0.2120348	-0.007898846	0.01194991	-0.1061628	0.09714292	0	0
9.620812	-0.07410092	0.2121608	-0.007898391	0.007603393	1.3716E-05	-0.1311742	0	0
9.637378	-0.07436263	0.2123768	-0.01579861	0.01303792	-0.238436	0.1640192	0	0
9.653946	-0.07888857	0.2155976	-0.2731708	0.1943983	-7.767733	5.473624	0	0
9.670512	-0.0807974	0.2169467	-0.1152239	0.08143961	4.766847	-3.409099	0	0
9.687078	-0.09155908	0.2243903	-0.6496136	0.4493193	-16.12884	11.10327	0	0
9.703646	-0.09625427	0.2276247	-0.2834019	0.1952298	11.05261	-7.668658	0	0
9.720211	-0.1011796	0.2310556	-0.2973297	0.2071118	-0.4203666	0.3586203	0	0
9.736777	-0.1067505	0.2349699	-0.3362802	0.2362855	-1.175629	0.8805414	0	0
9.753386	-0.1100015	0.2372137	-0.1957454	0.1350999	4.236228	-3.050099	0	0
9.803044	-0.1137438	0.2439242	-0.0753591	0.1351325	1.816685	0.000491331	0	0
9.81961	-0.1101055	0.2463992	0.2196302	0.149409	4.45441	0.2155785	0	0
9.836443	-0.1017266	0.2521722	0.4977591	0.3429471	8.327554	5.794792	0	0
9.852743	-0.09698425	0.2553981	0.2909375	0.1979051	-6.242069	-4.377502	0	0
9.88598	-0.08934049	0.2606473	0.2299811	0.1579348	-1.23053	-0.8068815	0	0
9.902443	-0.08808725	0.2614712	0.07612334	0.05004562	-3.095742	-2.170819	0	0
9.91901	-0.08800891	0.2613816	0.004728334	-0.005405609	-2.161487	-1.678788	0	0
9.935576	-0.08785223	0.2612742	0.009457663	-0.006487105	0.1427355	-0.03264054	0	0
9.952143	-0.08782612	0.2612562	0.001576352	-0.001081184	-0.2378721	0.1631604	0	0
9.96871	-0.08782612	0.2612562	0	0	-0.04757577	0.03263114	0	0
9.985275	-0.08777389	0.2612204	0.003152886	-0.002162493	0.09515975	-0.06526792	0	0
10.00184	-0.08772167	0.2611846	0.00315171	-0.002161995	-3.547853E-05	1.502339E-05	0	0
10.01841	-0.08764333	0.2611309	0.004729329	-0.003243739	0.04761262	-0.03264711	0	0
10.03498	-0.08764333	0.2611309	0	0	-0.1427438	0.0979047	0	0
10.05159	-0.08764333	0.2611309	0	0	0	0	0	0
10.06811	-0.08764333	0.2611309	0	0	0	0	0	0
10.08468	-0.08761721	0.2611488	0.001576352	0.001081184	0.04764709	0.03268005	0	0
10.10124	-0.0875911	0.2611667	0.001576261	0.001081122	-2.740548E-06	-1.876221E-06	0	0
10.11781	-0.08719937	0.2612562	0.02364618	0.005405921	0.6660907	0.1305264	0	0
10.13438	-0.08641583	0.2610413	0.04729731	-0.01297421	0.7138336	-0.5547454	0	0
10.15094	-0.08134641	0.2620443	0.3059908	0.06054103	7.80761	2.218758	0	0
10.16751	-0.07569719	0.2632979	0.341007	0.07567389	1.056823	0.4567239	0	0
10.18408	-0.05969216	0.2666822	0.9661213	0.2042844	18.86707	3.881698	0	0
10.20064	-0.05255682	0.2671477	0.4307147	0.0280982	-16.15953	-5.317617	0	0
10.21721	-0.04215921	0.2672193	0.6276368	0.004322938	5.943464	-0.71758	0	0
10.23378	-0.03900652	0.2672909	0.190297	0.004322689	-13.19932	-7.504884E-06	0	0
10.25034	-0.0241795	0.2680428	0.8950124	0.04538815	21.26896	1.239394	0	0
10.26724	-0.02220687	0.269099	0.1167162	0.06249295	-23.25542	0.51109	0	0
10.28347	-0.01784021	0.2720702	0.2690075	0.1830423	4.596293	3.63829	0	0
10.30004	-0.01770867	0.2721239	0.007940114	0.003241753	-7.959672	-5.481929	0	0
10.31678	-0.01770867	0.2720881	0	-0.002138655	-0.2384254	-0.1615626	0	0
10.33317	-0.01770867	0.2720881	0	0	0	0.06454659	0	0
10.34974	-0.01755083	0.2719807	0.0095275	-0.006483134	0.2890212	-0.1966689	0	0
10.36631	-0.01731406	0.2718197	0.01428736	-0.009718305	0.1436322	-0.09762362	0	0
10.38287	-0.01381491	0.2694391	0.2112942	-0.14375	5.946021	-4.045318	0	0
10.39944	-0.009131325	0.2662525	0.282718	-0.1923554	2.156071	-1.467253	0	0
10.48227	0.01178893	0.2519033	0.2525643	-0.1732334	-0.3033642	0.1923791	0	0
10.49884	0.01749821	0.2480131	0.344633	-0.2348283	0.926266	-0.619682	0	0
10.5154	0.01955014	0.2466144	0.1238617	-0.08442771	-6.663275	4.539361	0	0
10.53197	0.02320636	0.2441215	0.2206897	-0.150472	2.92236	-1.993279	0	0
10.55107	0.0249422	0.2429377	0.09090327	-0.06199823	-3.639282	2.480853	0	0
10.56763	0.0248896	0.2429735	-0.003174896	0.002165842	-2.638003	1.799195	0	0
10.5842	0.0248896	0.2429735	0	0	0.09582131	-0.06536711	0	0
10.60077	0.0248633	0.2429915	-0.001587483	0.001082983	-0.0479131	0.03268638	0	0
10.61749	0.0248633	0.2429915	0	0	0.04769345	-0.03253653	0	0
10.634	0.0248633	0.2429915	0	0	0	0	0	0
10.65051	0.0248633	0.2429915	0	0	0	0	0	0
10.66703	0.0248633	0.2429915	0	0	0	0	0	0
10.70017	0.024837	0.2430094	-0.000793775	0.0005410262	-0.01598489	0.01089509	0	0
10.71673	0.0248107	0.2430273	-0.001587392	0.001082921	-0.01596791	0.01090315	0	0
10.7333	0.0247844	0.2430453	-0.001587596	0.001082983	-6.152178E-06	1.879735E-06	0	0
10.75008	0.0247844	0.2430453	0	0	0.04761089	-0.03247791	0	0
10.76643	0.0247581	0.2430632	-0.001608128	0.001097067	-0.04853618	0.03311145	0	0
10.783	0.0247318	0.2430812	-0.001587596	0.001082983	0.0006236941	-0.0004278137	0	0
10.79961	0.0247318	0.2430812	0	0	0.04784763	-0.0326394	0	0
10.8327	0.0247055	0.2430991	-0.0007948398	0.0005422407	-0.01599251	0.01091011	0	0
10.84927	0.0246792	0.243117	-0.001587596	0.001082084	-0.0159659	0.0108723	0	0
10.86583	0.0246792	0.243117	0	0	0.04791649	-0.03265923	0	0
10.8824	0.0246792	0.243117	0	0	0	0	0	0
10.89919	0.0246792	0.243117	0	0	0	0	0	0
10.91554	0.0246792	0.243117	0	0	0	0	0	0
10.9321	0.0246529	0.243135	-0.00158851	0.001083607	-0.04826361	0.03292317	0	0
10.94867	0.0246529	0.243135	0	0	0.04795789	-0.03271462	0	0
10.96523	0.0246529	0.243135	0	0	0	0	0	0
10.9818	0.0246529	0.243135	0	0	0	0	0	0
10.99837	0.0246529	0.243135	0	0	0	0	0	0
11.01527	0.0246529	0.243135	0	0	0	0	0	0
11.0315	0.0246529	0.243135	0	0	0	0	0	0
11.04807	0.0246529	0.243135	0	0	0	0	0	0
11.06463	0.0246529	0.243135	0	0	0	0	0	0
11.0812	0.0246529	0.243135	0	0	0	0	0	0
11.09776	0.0246529	0.243135	0	0	0	0	0	0
11.11433	0.0246529	0.243135	0	0	0	0	0	0
11.1309	0.0246529	0.243135	0	0	0	0	0	0
11.16437	0.0246529	0.243135	0	0	0	0	0	0
11.1806	0.0246529	0.243135	0	0	0	0	0	0
11.19716	0.0246529	0.243135	0	0	0	0	0	0
11.21373	0.0246529	0.243135	0	0	0	0	0	0
11.2303	0.0246529	0.243135	0	0	0	0	0	0
11.24686	0.0246529	0.243135	0	0	0	0	0	0
11.26344	0.0246792	0.243117	0.001586774	-0.001082422	0.04787927	-0.03266099	0	0
11.28	0.0246792	0.243117	0	0	-0.0478903	0.03266851	0	0
11.29656	0.0246792	0.243117	0	0	0	0	0	0
11.31347	0.0246529	0.2430991	-0.001555274	-0.001060054	-0.04645691	-0.0316644	0	0
11.32999	0.0246529	0.2430991	0	0	0.04653512	0.03171771	0	0
11.34626	0.0246529	0.2430991	0	0	0	0	0	0
11.36301	0.0246529	0.2430991	0	0	0	0	0	0
11.3794	0.0246529	0.2430991	0	0	0	0	0	0
11.39604	0.0246529	0.2430991	0	0	0	0	0	0
11.41254	0.0246529	0.2430991	0	0	0	0	0	0
11.43432	0.0246266	0.243117	-0.001207786	0.0008232689	-0.0315486	0.02150462	0	0
11.45089	0.0246266	0.243117	0	0	0.03150073	-0.02147199	0	0
11.46745	0.0246266	0.243117	0	0	0	0	0	0
11.48402	0.0246266	0.243117	0	0	0	0	0	0
11.50058	0.0246266	0.243117	0	0	0	0	0	0
11.51715	0.0246266	0.243117	0	0	0	0	0	0
11.53372	0.0246266	0.243117	0	0	0	0	0	0
11.55028	0.0246266	0.243117	0	0	0	0	0	0
11.56685	0.0246266	0.243117	0	0	0	0	0	0
11.58342	0.0246266	0.243117	0	0	0	0	0	0
11.61669	0.0246266	0.243117	0	0	0	0	0	0
11.6332	0.0246266	0.243117	0	0	0	0	0	0
11.64968	0.0246266	0.243117	0	0	0	0	0	0
11.66625	0.0246266	0.243117	0	0	0	0	0	0
11.68282	0.0246266	0.243117	0	0	0	0	0	0
11.69938	0.0246266	0.243117	0	0	0	0	0	0
11.71595	0.0246266	0.243117	0	0	0	0	0	0
11.73252	0.0246266	0.243117	0	0	0	0	0	0
11.74908	0.0246266	0.243117	0	0	0	0	0	0
11.76565	0.0246266	0.243117	0	0	0	0	0	0
11.79878	0.0246266	0.243117	0	0	0	0	0	0
11.81535	0.0246266	0.243117	0	0	0	0	0	0
11.83191	0.0246266	0.243117	0	0	0	0	0	0
11.84848	0.0246266	0.243117	0	0	0	0	0	0
11.86505	0.0246266	0.243117	0	0	0	0	0	0
11.88187	0.0246266	0.243117	0	0	0	0	0	0
11.89818	0.0246266	0.243117	0	0	0	0	0	0
11.91475	0.0246266	0.243117	0	0	0	0	0	0
11.93131	0.0246266	0.243117	0	0	0	0	0	0
11.94788	0.0246266	0.243117	0	0	0	0	0	0
11.96493	0.0246266	0.243117	0	0	0	0	0	0
11.98101	0.0246266	0.243117	0	0	0	0	0	0
11.99758	0.0246266	0.243117	0	0	0	0	0	0
12.01415	0.0246266	0.243117	0	0	0	0	0	0
12.03071	0.0246266	0.243117	0	0	0	0	0	0
12.04728	0.0246266	0.243117	0	0	0	0	0	0
12.06384	0.0246266	0.243117	0	0	0	0	0	0
12.08041	0.0246266	0.243117	0	0	0	0	0	0
12.09702	0.0246266	0.243117	0	0	0	0	0	0
12.11354	0.0246266	0.243117	0	0	0	0	0	0
12.13011	0.0246003	0.243135	-0.001587596	0.001082983	-0.04797725	0.03272783	0	0
12.14705	0.0246003	0.243135	0	0	0.04737648	-0.03231801	0	0
12.16357	0.0246003	0.243135	0	0	0	0	0	0
12.18008	0.0246003	0.243135	0	0	0	0	0	0
12.19659	0.0246003	0.243135	0	0	0	0	0	0
12.21294	0.0246003	0.243135	0	0	0	0	0	0
12.22951	0.0246003	0.243135	0	0	0	0	0	0
12.24612	0.0246003	0.243135	0	0	0	0	0	0
12.26264	0.0246003	0.243135	0	0	0	0	0	0
12.28226	0.0246003	0.243135	0	0	0	0	0	0
12.29883	0.0246003	0.243135	0	0	0	0	0	0
12.31539	0.0246003	0.243135	0	0	0	0	0	0
12.33196	0.0246003	0.243135	0	0	0	0	0	0
12.34853	0.0246003	0.243135	0	0	0	0	0	0
12.36509	0.0246003	0.243135	0	0	0	0	0	0
12.38166	0.0246003	0.243135	0	0	0	0	0	0
12.39823	0.0246003	0.243135	0	0	0	0	0	0
12.41479	0.0246003	0.243135	0	0	0	0	0	0
12.43136	0.0246003	0.243135	0	0	0	0	0	0
12.44792	0.0246003	0.243135	0	0	0	0	0	0
12.46449	0.0246003	0.243135	0	0	0	0	0	0
12.48106	0.0246003	0.243135	0	0	0	0	0	0
12.49762	0.0246003	0.243135	0	0	0	0	0	0
12.51419	0.0246003	0.243135	0	0	0	0	0	0
12.53082	0.0246003	0.243135	0	0	0	0	0	0
12.54733	0.0246003	0.243135	0	0	0	0	0	0
12.56389	0.0246003	0.243135	0	0	0	0	0	0
12.58046	0.0246003	0.243135	0	0	0	0	0	0
12.59702	0.0246003	0.243135	0	0	0	0	0	0
12.61388	0.0246003	0.243135	0	0	0	0	0	0
12.63016	0.0246003	0.243135	0	0	0	0	0	0
12.64672	0.0246003	0.243135	0	0	0	0	0	0
12.66329	0.0246003	0.243135	0	0	0	0	0	0
12.67986	0.0246266	0.243117	0.001587596	-0.001082983	0.04791649	-0.03268638	0	0
12.69644	0.0246266	0.243117	0	0	-0.04789581	0.03267227	0	0
12.71299	0.0246003	0.243135	-0.001588876	0.001083857	-0.04795376	0.0327118	0	0
12.72956	0.0246003	0.243135	0	0	0.04797447	-0.03272593	0	0
12.74612	0.0246003	0.243135	0	0	0	0	0	0
12.76269	0.0246003	0.243135	0	0	0	0	0	0
12.77925	0.0246003	0.243135	0	0	0	0	0	0
12.79582	0.0246003	0.2431709	0	0.002165966	0	0.06537275	0	0
12.81252	0.0245477	0.2432426	-0.003150414	0.004297388	-0.09471439	0.06407931	0	0
12.82895	0.024574	0.2432964	0.00160003	0.00327349	0.1433728	-0.0309022	0	0
12.84552	0.0247581	0.2436372	0.01111283	0.02057308	0.2882335	0.5241696	0	0
12.86209	0.0296492	0.2471165	0.2952447	0.2100232	8.575609	5.717944	0	0
12.89522	0.04381405	0.2567778	0.4275205	0.2915932	2.661547	1.641287	0	0
12.91209	0.06163237	0.2689021	1.056361	0.7187924	12.57677	8.543951	0	0
12.92835	0.07014787	0.2747188	0.5235197	0.3576014	-16.08166	-10.90108	0	0
12.94511	0.08037908	0.2816782	0.6106321	0.4153587	2.638094	1.749109	0	0
12.96162	0.08474392	0.284665	0.2643602	0.1809009	-10.40916	-7.047957	0	0
12.97813	0.0919766	0.2896182	0.4380026	0.2999585	5.258096	3.605202	0	0
12.99462	0.09591531	0.2923178	0.2388825	0.1637313	-6.033772	-4.127979	0	0
13.01119	0.09763593	0.2934977	0.1038629	0.07121963	-4.084773	-2.798774	0	0
13.02775	0.1020912	0.29659	0.268936	0.1866653	4.982202	3.484357	0	0
13.04432	0.1077131	0.3004504	0.3393565	0.2330267	2.125416	1.39927	0	0
13.06089	0.1164964	0.3065258	0.5301949	0.3667337	5.759847	4.035519	0	0
13.07745	0.1208296	0.3095452	0.2615638	0.1822596	-8.107768	-5.56776	0	0
13.14375	0.1453622	0.3322461	0.3700326	0.3424051	1.308986	1.932612	0	0
13.16028	0.1476029	0.3381569	0.1355143	0.3574753	-2.831208	0.1819345	0	0
13.17685	0.1479118	0.3472998	0.01864818	0.5519004	-3.530583	5.87368	0	0
13.19727	0.1478861	0.3552111	-0.00126054	0.3875163	-0.5383414	-4.445026	0	0
13.21383	0.1456971	0.359551	-0.132128	0.2619607	-3.53863	-3.394999	0	0
13.2304	0.1455425	0.3643022	-0.009330385	0.286798	3.706147	0.7496141	0	0
13.24697	0.1444603	0.3676248	-0.06532439	0.2005624	-1.69	-2.602748	0	0
13.26353	0.1387088	0.3732167	-0.3471842	0.3375489	-8.507037	4.134501	0	0
13.2801	0.1378569	0.3767725	-0.05142461	0.2146411	8.926557	-3.709578	0	0
13.29685	0.1435325	0.3809543	0.3387578	0.249598	11.71001	1.049112	0	0
13.31323	0.1451561	0.3820803	0.09913059	0.06874854	-7.232379	-5.458362	0	0
13.34637	0.1530567	0.3873893	0.2384409	0.1602264	2.813618	1.847558	0	0
13.36293	0.1531595	0.3873893	0.006206465	0	-4.672656	-3.223824	0	0
13.3795	0.1537249	0.386996	0.03413106	-0.02374108	0.8428144	-0.7165484	0	0
13.39606	0.1539819	0.3868172	0.01551166	-0.01079205	-0.5619667	0.3908248	0	0
13.41263	0.1539819	0.3868172	0	0	-0.4681699	0.3257236	0	0
13.4292	0.1539819	0.3868172	0	0	0	0	0	0
13.44576	0.1539562	0.3868351	-0.001550717	0.001079385	-0.04680342	0.03257778	0	0
13.4987	0.1539819	0.3869603	0.0004852554	0.002363791	0.02929176	0.01847889	0	0
13.51551	0.1546499	0.3874966	0.03974919	0.03191142	0.5629482	0.4236404	0	0
13.53184	0.1549068	0.3877111	0.0157336	0.01313993	-0.7247919	-0.5665247	0	0
13.5484	0.1561397	0.3886408	0.07442001	0.05611724	1.7841	1.306534	0	0
13.56497	0.1562937	0.3887838	0.009299803	0.008635081	-1.965445	-1.433097	0	0
13.58154	0.1565762	0.389052	0.01704979	0.01618898	0.2339085	0.2279902	0	0
13.5981	0.1576544	0.3899103	0.06508423	0.05180509	1.449766	1.074958	0	0
13.61467	0.1619635	0.3928785	0.2600971	0.1791658	5.885668	3.843865	0	0
13.63124	0.1650889	0.3950246	0.188663	0.1295442	-2.155945	-1.497626	0	0
13.6478	0.1706656	0.3986735	0.3366269	0.2202611	4.465817	2.738	0	0
13.66437	0.1714577	0.399085	0.04781676	0.02483665	-8.716811	-5.898262	0	0
13.68094	0.1717643	0.3988703	0.01850589	-0.01295727	-0.8846293	-1.140656	0	0
13.69763	0.1718665	0.3987987	0.006119873	-0.004285786	-0.372364	0.260693	0	0
13.71407	0.1720198	0.3987272	0.009324597	-0.004353171	0.09672154	-0.002033739	0	0
13.73066	0.1723008	0.3985662	0.01694026	-0.00970633	0.2306111	-0.1620999	0	0
13.7472	0.1724796	0.3984767	0.01080539	-0.005404948	-0.185156	0.1298197	0	0
13.76377	0.1728626	0.3982084	0.02312403	-0.01619797	0.3720127	-0.3259406	0	0
13.78034	0.1748794	0.3967953	0.1217367	-0.08530021	2.976307	-2.08563	0	0
13.7972	0.1775066	0.3950246	0.1557659	-0.1049824	1.017834	-0.588706	0	0
13.81372	0.1803097	0.3942377	0.1697401	-0.04765102	0.4186332	1.717511	0	0
13.83023	0.1862376	0.3962945	0.3590492	0.1245776	5.7325	5.215282	0	0
13.8466	0.1872539	0.3969742	0.06206504	0.04150712	-9.03084	-2.526048	0	0
13.86317	0.1911378	0.3988882	0.2344461	0.1155356	5.232893	2.247249	0	0
13.87976	0.1934451	0.3990492	0.1390587	0.009704779	-2.876726	-3.191684	0	0
13.8963	0.1947119	0.398441	0.07658637	-0.03677032	-1.885474	-1.402662	0	0
13.91287	0.1947119	0.398441	0	0	-2.313312	1.110658	0	0
13.92943	0.1947373	0.3984588	0.001529041	0.001079323	0.04614921	0.03257591	0	0
13.946	0.1947879	0.3984231	0.003058258	-0.00215877	0.04615319	-0.09772866	0	0
13.96282	0.1951172	0.3981905	0.01957843	-0.01382726	0.4948482	-0.3495201	0	0
13.97933	0.1976233	0.3964197	0.1517739	-0.107247	3.966264	-2.802876	0	0
13.99584	0.2030319	0.3925924	0.3275556	-0.2317868	5.322874	-3.771208	0	0
14.01235	0.2071182	0.3896957	0.2474795	-0.1754343	-2.424798	1.706419	0	0
14.02884	0.2155963	0.3836353	0.5144315	-0.3677287	8.091329	-5.828452	0	0
14.04835	0.2196356	0.3807577	0.207016	-0.1474783	-8.541069	6.119319	0	0
14.06539	0.2214397	0.3794709	0.1058473	-0.07549693	-2.76748	1.969058	0	0
14.08148	0.2227167	0.3785595	0.07936411	-0.0566434	-0.7992646	0.5690007	0	0
14.09805	0.2227417	0.3785416	0.001510965	-0.001079261	-2.38385	1.701365	0	0
14.11462	0.2230671	0.3783093	0.01964121	-0.01402301	0.547172	-0.3906432	0	0
14.13118	0.2237928	0.3777911	0.04380505	-0.03128238	0.7293079	-0.5209187	0	0
14.14795	0.2278172	0.3749141	0.2400019	-0.1715702	5.885658	-4.208458	0	0
14.16432	0.2344996	0.3701259	0.4083343	-0.2925918	5.080427	-3.652544	0	0
14.18088	0.2377832	0.3677677	0.1981961	-0.1423393	-6.380917	4.562468	0	0
14.19745	0.2428227	0.3641414	0.3042022	-0.2188939	3.199363	-2.310489	0	0
14.21402	0.2470086	0.3611228	0.2526751	-0.1822164	-1.555182	1.106993	0	0
14.23058	0.2474539	0.3608013	0.02688029	-0.01940734	-6.814893	4.91387	0	0
14.24715	0.2475281	0.3607477	0.004480348	-0.003234558	-0.6760705	0.4881238	0	0
14.26403	0.2479733	0.3604262	0.02636912	-0.01904162	0.654389	-0.4725695	0	0
14.28054	0.2494072	0.3593189	0.08683223	-0.06706072	1.810502	-1.43788	0	0
14.29685	0.2498025	0.3589616	0.02425001	-0.02190937	-1.907013	1.375857	0	0
14.31357	0.2497778	0.3589795	-0.001478546	0.001067691	-0.7790905	0.6957719	0	0
14.33008	0.2497531	0.3589616	-0.001496433	-0.001081259	-0.0005382739	-0.06466928	0	0
14.34655	0.2497778	0.3589438	0.001500072	-0.001085698	0.09085836	-0.0001346014	0	0
14.36311	0.2497778	0.3589438	0	0	-0.04540689	0.03286385	0	0
14.37968	0.2499755	0.3584437	0.0119317	-0.03018681	0.3601203	-0.911092	0	0
14.39625	0.2502472	0.3574971	0.01640306	-0.05713905	0.1349535	-0.8134673	0	0
14.41281	0.2545652	0.3537288	0.2606517	-0.2274696	7.371864	-5.140883	0	0
14.42965	0.2577913	0.3513536	0.1916355	-0.1410924	-2.066321	2.586104	0	0
14.44595	0.2597587	0.3498892	0.120712	-0.08984786	-2.140598	1.546651	0	0
14.46251	0.2615521	0.3485141	0.1082587	-0.08300472	-0.3789279	0.2082225	0	0
14.47918	0.261503	0.3485499	-0.002944605	0.002143644	-3.345916	2.561966	0	0
14.49565	0.261503	0.3485499	0	0	0.08887091	-0.06469716	0	0
14.51221	0.261503	0.3485499	0	0	0	0	0	0
14.52922	0.261503	0.3485499	0	0	0	0	0	0
14.54535	0.261503	0.3485499	0	0	0	0	0	0
14.56191	0.261503	0.3485499	0	0	0	0	0	0
14.57875	0.261503	0.3485499	0	0	0	0	0	0
14.59526	0.261503	0.3485499	0	0	0	0	0	0
14.61161	0.2614785	0.3485677	-0.001502071	0.001091918	-0.04571017	0.03322863	0	0
14.62818	0.2614785	0.3485677	0	0	0.04563468	-0.03317375	0	0
14.64474	0.2614539	0.3485856	-0.001482356	0.001077586	-0.04474016	0.03252349	0	0
14.66131	0.2614539	0.3485856	0	0	0.04474016	-0.03252349	0	0
14.67788	0.2614048	0.3486213	-0.00296651	0.002155172	-0.08953462	0.06504697	0	0
14.69483	0.2613557	0.348657	-0.002896839	0.002107591	0.002078463	-0.001419466	0	0
14.71225	0.2613557	0.348657	0	0	0.08427121	-0.06131139	0	0
14.72882	0.2613066	0.3486927	-0.002964541	0.002155048	-0.08722316	0.06340615	0	0
14.74539	0.2613311	0.3487106	0.00148227	0.001077524	0.134205	-0.03251974	0	0
14.76195	0.2613066	0.3487284	-0.001482356	0.001079385	-0.08947517	5.616717E-05	0	0
14.77852	0.2613066	0.3487284	0	0	0.04474016	-0.03257778	0	0
14.79509	0.2613066	0.3487284	0	0	0	0	0	0
14.81165	0.2613066	0.3487284	0	0	0	0	0	0
14.82822	0.261282	0.3487106	-0.00148227	-0.001079323	-0.0447363	-0.03257497	0	0
14.86135	0.2612574	0.3487284	-0.0007411778	0.0005396926	0.01491138	0.03257591	0	0
14.89449	0.2612574	0.3487284	0	0	0.01118488	-0.008144329	0	0
14.91105	0.2612574	0.3487284	0	0	0	0	0	0
14.93097	0.2612574	0.3487284	0	0	0	0	0	0
14.94754	0.2612574	0.3487284	0	0	0	0	0	0
14.9641	0.2612574	0.3487284	0	0	0	0	0	0
14.98067	0.2612083	0.3487642	-0.002964711	0.002155172	-0.08948032	0.06504697	0	0
14.99724	0.2612083	0.3487642	0	0	0.08948032	-0.06504697	0	0
15.0138	0.2611838	0.348782	-0.001482185	0.001077462	-0.04473243	0.03251787	0	0
15.03057	0.2611346	0.348782	-0.002931576	0	-0.04348365	-0.03232528	0	0
15.04694	0.2611101	0.3487642	-0.001500408	-0.001090709	0.04319772	-0.03292146	0	0
15.0635	0.261061	0.3487284	-0.002964711	-0.002155172	-0.04446279	-0.03232186	0	0
15.12977	0.248097	0.3395498	-0.1956355	-0.1385128	-2.326034	-1.646188	0	0
15.14633	0.2372612	0.3319961	-0.6540876	-0.4559665	-5.534699	-3.832485	0	0
15.1629	0.2321084	0.3282995	-0.311041	-0.2231395	10.35376	7.027137	0	0
15.17947	0.2254435	0.3235669	-0.4022952	-0.2856608	-2.754135	-1.886952	0	0
15.19618	0.2156465	0.3166548	-0.5861831	-0.4135699	-5.525418	-3.843378	0	0
15.21269	0.2134357	0.3151187	-0.1339082	-0.09304421	13.61325	9.647661	0	0
15.22917	0.2030823	0.308098	-0.6284007	-0.4261204	-14.99112	-10.0976	0	0
15.24573	0.1960288	0.303792	-0.4257779	-0.2599267	6.132288	5.029777	0	0
15.2623	0.1931663	0.3021659	-0.1727898	-0.09815749	7.635635	4.882486	0	0
15.27886	0.1889046	0.3007363	-0.257249	-0.08629685	-2.54913	0.3579754	0	0
15.29543	0.1886508	0.301058	-0.01532547	0.01941814	7.301686	3.190668	0	0
15.31226	0.1886254	0.3010758	-0.001508926	0.001060853	0.4137451	-0.5497204	0	0
15.32877	0.1886254	0.3010758	0	0	0.04525941	-0.0318197	0	0
15.34513	0.1886254	0.3010758	0	0	0	0	0	0
15.3617	0.1886254	0.3010758	0	0	0	0	0	0
15.37826	0.1885746	0.3011116	-0.003065454	0.00215877	-0.09252091	0.06515557	0	0
15.39483	0.1885238	0.3011473	-0.003065454	0.002156971	0	-5.429251E-05	0	0
15.4114	0.1883968	0.3012367	-0.007663635	0.005393328	-0.1387814	0.09767906	0	0
15.42796	0.1883207	0.3012903	-0.004598181	0.003236357	0.09252091	-0.06510127	0	0
15.44453	0.1882953	0.3013082	-0.001532727	0.001079385	0.09252091	-0.06510127	0	0
15.46109	0.1882953	0.3013082	0	0	0.04626045	-0.03257778	0	0
15.47766	0.1882445	0.3013439	-0.003066353	0.002156971	-0.09254806	0.06510127	0	0
15.49423	0.1881937	0.3013797	-0.003065454	0.002156971	2.715328E-05	0	0	0
15.51079	0.1880921	0.3014154	-0.006131454	0.002156847	-0.09253474	-3.752442E-06	0	0
15.52741	0.1880413	0.3014511	-0.003057728	0.002150904	0.09263726	-0.0001791127	0	0
15.54393	0.1879905	0.3014869	-0.003074125	0.002164877	-0.0004948939	0.0004217262	0	0
15.56049	0.1879397	0.3014869	-0.003066353	0	0.0002349008	-0.06543216	0	0
15.57706	0.1878381	0.3015583	-0.006132707	0.004313943	-0.09254806	0.1302025	0	0
15.59363	0.1876857	0.3016656	-0.00919906	0.006472713	-0.09254806	0.06515557	0	0
15.61047	0.1875841	0.3017013	-0.00603303	0.002121913	0.09477357	-0.1302391	0	0
15.62676	0.1874317	0.301737	-0.009353966	0.002193079	-0.1002289	0.00214783	0	0
15.64333	0.1873047	0.3017907	-0.007667233	0.003236357	0.05133119	0.03174937	0	0
15.65989	0.1872539	0.3017907	-0.003066353	0	0.1388628	-0.09767906	0	0
15.67651	0.186822	0.3019515	-0.02598847	0.009678426	-0.690737	0.2916506	0	0
15.69303	0.1865679	0.3020945	-0.01538589	0.008656595	0.3199955	-0.03083982	0	0
15.70959	0.1815319	0.3048105	-0.3039908	0.1639514	-8.724176	4.694373	0	0
15.72616	0.1684669	0.3063471	-0.7886537	0.09275337	-14.628	-2.148885	0	0
15.74272	0.1555747	0.3056146	-0.7782196	-0.04421881	0.3149178	-4.134067	0	0
15.75957	0.1423981	0.3040779	-0.7822824	-0.09122869	-0.1216032	-1.407057	0	0
15.77586	0.1267122	0.3015583	-0.9629321	-0.154673	-5.452176	-1.914807	0	0
15.79242	0.1156397	0.2995747	-0.6683778	-0.1197398	8.965011	1.06322	0	0
15.80899	0.1027943	0.2962146	-0.7753921	-0.2028255	-3.229884	-2.507675	0	0
15.83065	0.08753887	0.2924787	-0.7041942	-0.1724528	1.862359	0.7944736	0	0
15.84722	0.08098041	0.2892785	-0.3958692	-0.1931628	8.064815	-0.5417098	0	0
15.86379	0.07412709	0.2877408	-0.4136915	-0.09282173	-0.5378934	3.028388	0	0
15.88035	0.068236	0.2866143	-0.3555866	-0.06799735	1.753659	0.7492229	0	0
15.89719	0.06724058	0.2868288	-0.05912726	0.01274571	8.875379	2.41728	0	0
15.91349	0.06724058	0.2868288	0	0	1.784516	-0.3846774	0	0
15.93005	0.06724058	0.2868288	0	0	0	0	0	0
15.9467	0.06724058	0.2868288	0	0	0	0	0	0
15.96321	0.06721438	0.286811	-0.001586597	-0.001083001	-0.04784916	-0.03266154	0	0
15.97976	0.06721438	0.286811	0	0	0.04800102	0.0327652	0	0
15.99632	0.06721438	0.286811	0	0	0	0	0	0
16.01289	0.06718819	0.2867931	-0.001581299	-0.001079385	-0.04772645	-0.03257778	0	0
16.02946	0.0671358	0.2867573	-0.003162052	-0.002158398	-0.04770586	-0.03256372	0	0
16.04627	0.067031	0.2866858	-0.006232011	-0.00425363	-0.09195808	-0.06276096	0	0
16.06259	0.06669043	0.2864533	-0.02087184	-0.01424788	-0.4418564	-0.3016445	0	0
16.07916	0.06624503	0.2861493	-0.02688414	-0.01834849	-0.1828302	-0.124697	0	0
16.09572	0.0630217	0.2840212	-0.194561	-0.1284538	-5.060498	-3.322986	0	0
16.12886	0.04449692	0.2718913	-0.5591109	-0.3661032	-7.335041	-4.781698	0	0
16.14542	0.038008	0.2676131	-0.391672	-0.258228	3.369008	2.170535	0	0
16.16199	0.03180506	0.2635308	-0.3744104	-0.2464131	0.5209541	0.3565769	0	0
16.17856	0.0241532	0.2586768	-0.4619206	-0.2930178	-2.641214	-1.406614	0	0
16.19512	0.02107583	0.2567957	-0.1857505	-0.1135466	8.33531	5.416763	0	0
16.21169	0.01812959	0.2550755	-0.177835	-0.1038291	0.2388897	0.2932748	0	0
16.22826	0.01752452	0.2546633	-0.03652216	-0.0248784	4.26483	2.382736	0	0
16.24492	0.01749821	0.2546454	-0.001579408	-0.001075303	1.051729	0.7164404	0	0
16.26143	0.01752452	0.2546275	0.001593273	-0.001086548	0.0956526	-0.0003390241	0	0
16.27796	0.01752452	0.2546275	0	0	-0.04821553	0.03288106	0	0
16.29453	0.01752452	0.2546275	0	0	0	0	0	0
16.31109	0.01755083	0.2546096	0.001587954	-0.001081122	0.04792455	-0.03262833	0	0
16.32766	0.01755083	0.2546096	0	0	-0.04792455	0.03262833	0	0
16.34449	0.01755083	0.2546096	0	0	0	0	0	0
16.361	0.01755083	0.2546096	0	0	0	0	0	0
16.37736	0.01755083	0.2546096	0	0	0	0	0	0
16.39393	0.01755083	0.2546096	0	0	0	0	0	0
16.41054	0.01755083	0.2546096	0	0	0	0	0	0
16.42706	0.01755083	0.2546096	0	0	0	0	0	0
16.44363	0.01755083	0.2546096	0	0	0	0	0	0
16.4602	0.01755083	0.2546096	0	0	0	0	0	0
16.47676	0.01757714	0.2545917	0.001587954	-0.001081122	0.04792455	-0.03262833	0	0
16.49333	0.01755083	0.2546096	-0.001587954	0.001081122	-0.0958491	0.06525666	0	0
16.5099	0.01755083	0.2546096	0	0	0.04792455	-0.03262833	0	0
16.52662	0.01755083	0.2546096	0	0	0	0	0	0
16.54313	0.01755083	0.2546096	0	0	0	0	0	0
16.5596	0.01755083	0.2546096	0	0	0	0	0	0
16.57617	0.01757714	0.2545917	0.001587954	-0.001081122	0.04807121	-0.03272818	0	0
16.59274	0.01757714	0.2545917	0	0	-0.04792455	0.03262833	0	0
16.6093	0.01757714	0.2545917	0	0	0	0	0	0
16.62587	0.01757714	0.2545917	0	0	0	0	0	0
16.64244	0.01760344	0.2545737	0.001587842	-0.001082921	0.04792115	-0.03268262	0	0
16.659	0.01760344	0.2545737	0	0	-0.04792115	0.03268262	0	0
16.67557	0.01760344	0.2545737	0	0	0	0	0	0
16.69604	0.01760344	0.2545737	0	0	0	0	0	0
16.71261	0.01760344	0.2545737	0	0	0	0	0	0
16.72918	0.01760344	0.2545737	0	0	0	0	0	0
16.74574	0.01762975	0.2545558	0.001587954	-0.001081122	0.04792455	-0.03262833	0	0
16.76231	0.01762975	0.2545558	0	0	-0.04792455	0.03262833	0	0
16.77888	0.01762975	0.2545558	0	0	0	0	0	0
16.79544	0.01762975	0.2545558	0	0	0	0	0	0
16.81201	0.01762975	0.2545558	0	0	0	0	0	0
16.82858	0.01762975	0.2545558	0	0	0	0	0	0
16.84514	0.01765606	0.2545379	0.001587954	-0.001081122	0.04792731	-0.03263021	0	0
16.86187	0.01765606	0.2545379	0	0	-0.04770213	0.0324769	0	0
16.87838	0.01765606	0.2545379	0	0	0	0	0	0
16.89489	0.01765606	0.2545379	0	0	0	0	0	0
16.99425	0.01768237	0.25452	0.000264786	-0.0001805734	0.002285246	-0.001558446	0	0
17.01081	0.01768237	0.25452	0	0	-0.002284156	0.001557702	0	0
17.02748	0.01768237	0.25452	0	0	0	0	0	0
17.04395	0.01770867	0.2545021	0.00159796	-0.001088011	0.0482293	-0.03283813	0	0
17.06051	0.01770867	0.2545021	0	0	-0.0483797	0.03294053	0	0
17.07708	0.01770867	0.2545021	0	0	0	0	0	0
17.09453	0.01770867	0.2545021	0	0	0	0	0	0
17.11021	0.01770867	0.2545021	0	0	0	0	0	0
17.12705	0.01770867	0.2545021	0	0	0	0	0	0
17.14335	0.01770867	0.2545021	0	0	0	0	0	0
17.15991	0.01770867	0.2545021	0	0	0	0	0	0
17.17648	0.01770867	0.2545021	0	0	0	0	0	0
17.19305	0.01770867	0.2545021	0	0	0	0	0	0
17.20962	0.01770867	0.2545021	0	0	0	0	0	0
17.22618	0.01770867	0.2545021	0	0	0	0	0	0
17.24275	0.01770867	0.2545021	0	0	0	0	0	0
17.25932	0.01770867	0.2545021	0	0	0	0	0	0
17.27588	0.01770867	0.2545021	0	0	0	0	0	0
17.29268	0.01770867	0.2545021	0	0	0	0	0	0
17.30919	0.01770867	0.2545021	0	0	0	0	0	0
17.32558	0.01770867	0.2545021	0	0	0	0	0	0
17.34221	0.01770867	0.2545021	0	0	0	0	0	0
17.35872	0.01770867	0.2545021	0	0	0	0	0	0
17.37573	0.01773498	0.2544841	0.00154647	-0.001052879	0.04613085	-0.03140713	0	0
17.39185	0.01773498	0.2544841	0	0	-0.04668332	0.03178326	0	0
17.40842	0.01773498	0.2544841	0	0	0	0	0	0
17.42498	0.01773498	0.2544841	0	0	0	0	0	0
17.44155	0.01773498	0.2544841	0	0	0	0	0	0
17.45812	0.01776129	0.2544662	0.001587954	-0.001082921	0.04792455	-0.03268262	0	0
17.47469	0.01776129	0.2544662	0	0	-0.04792455	0.03268262	0	0
17.49125	0.01776129	0.2544662	0	0	0	0	0	0
17.50782	0.0177876	0.2544483	0.001587954	-0.001081122	0.04792455	-0.03262833	0	0
17.52439	0.0177876	0.2544483	0	0	-0.04792455	0.03262833	0	0
17.54095	0.0177876	0.2544483	0	0	0	0	0	0
17.55752	0.0177876	0.2544483	0	0	0	0	0	0
17.57409	0.0177876	0.2544483	0	0	0	0	0	0
17.59065	0.0177876	0.2544483	0	0	0	0	0	0
17.70662	0.0177876	0.2544483	0	0	0	0	0	0
17.7264	0.0177876	0.2544483	0	0	0	0	0	0
17.74297	0.0177876	0.2544483	0	0	0	0	0	0
17.75953	0.0177876	0.2544483	0	0	0	0	0	0
17.7761	0.0177876	0.2544483	0	0	0	0	0	0
17.79267	0.0177876	0.2544483	0	0	0	0	0	0
17.8258	0.0177876	0.2544483	0	0	0	0	0	0
17.84237	0.0177876	0.2544483	0	0	0	0	0	0
17.85908	0.0177876	0.2544483	0	0	0	0	0	0
17.87559	0.0178139	0.2544304	0.001593345	-0.001084869	0.047963	-0.03265681	0	0
17.89207	0.0178139	0.2544304	0	0	-0.04829575	0.03288338	0	0
17.90864	0.0177876	0.2544125	-0.001588024	-0.001081246	-0.04805392	-0.03271872	0	0
17.92521	0.0177876	0.2544125	0	0	0.04792943	0.03263396	0	0
17.94177	0.0177876	0.2544125	0	0	0	0	0	0
17.97491	0.0177876	0.2544125	0	0	0	0	0	0
17.99168	0.0177876	0.2544125	0	0	0	0	0	0
18.00804	0.0177876	0.2544125	0	0	0	0	0	0
18.02461	0.0177876	0.2544125	0	0	0	0	0	0
18.04122	0.0177876	0.2544125	0	0	0	0	0	0
18.05774	0.0177876	0.2544125	0	0	0	0	0	0
18.07431	0.0177876	0.2544125	0	0	0	0	0	0
18.09087	0.0177876	0.2544125	0	0	0	0	0	0
18.10744	0.0177876	0.2544125	0	0	0	0	0	0
18.12401	0.0177876	0.2544125	0	0	0	0	0	0
18.14057	0.0177876	0.2544125	0	0	0	0	0	0
18.15714	0.0177876	0.2544125	0	0	0	0	0	0
18.17371	0.0177876	0.2544125	0	0	0	0	0	0
18.19028	0.0177876	0.2544125	0	0	0	0	0	0
18.20684	0.0178139	0.2543945	0.001587842	-0.001082921	0.04792115	-0.03268262	0	0
18.22341	0.0178139	0.2543945	0	0	-0.04792392	0.0326845	0	0
18.23997	0.0178139	0.2543945	0	0	0	0	0	0
18.25654	0.0178139	0.2543945	0	0	0	0	0	0
18.27311	0.0178139	0.2543945	0	0	0	0	0	0
18.28968	0.0177876	0.2543766	-0.001587842	-0.001081122	-0.04792115	-0.03262833	0	0
18.30624	0.0177876	0.2543766	0	0	0.04792115	0.03262833	0	0
18.32281	0.0177876	0.2543766	0	0	0	0	0	0
18.33938	0.0177876	0.2543766	0	0	0	0	0	0
18.35594	0.0177876	0.2543766	0	0	0	0	0	0
18.42249	0.0177876	0.2543766	0	0	0	0	0	0
18.43878	0.0177876	0.2543766	0	0	0	0	0	0
18.45551	0.0177876	0.2543766	0	0	0	0	0	0
18.47191	0.0177876	0.2543766	0	0	0	0	0	0
18.48848	0.0177876	0.2543766	0	0	0	0	0	0
18.50504	0.0177876	0.2543766	0	0	0	0	0	0
18.52161	0.0177876	0.2543766	0	0	0	0	0	0
18.53818	0.0177876	0.2543766	0	0	0	0	0	0
18.55474	0.0177876	0.2543766	0	0	0	0	0	0
18.57131	0.0177876	0.2543766	0	0	0	0	0	0
18.58788	0.0177876	0.2543766	0	0	0	0	0	0
18.60445	0.0178139	0.2543587	0.001587842	-0.001081122	0.04792115	-0.03262833	0	0
18.63764	0.0178139	0.2543587	0	0	-0.03190948	0.02172637	0	0
18.67071	0.0178139	0.2543587	0	0	0	0	0	0
18.68728	0.0178139	0.2543587	0	0	0	0	0	0
18.70719	0.0178139	0.2543587	0	0	0	0	0	0
18.72375	0.0178139	0.2543587	0	0	0	0	0	0
18.74032	0.0178139	0.2543587	0	0	0	0	0	0
18.75689	0.0178139	0.2543587	0	0	0	0	0	0
18.77346	0.0178139	0.2543587	0	0	0	0	0	0
18.79002	0.0178139	0.2543587	0	0	0	0	0	0
18.80676	0.0178139	0.2543587	0	0	0	0	0	0
18.82327	0.0178139	0.2543587	0	0	0	0	0	0
18.83978	0.0178139	0.2543587	0	0	0	0	0	0
18.85629	0.0178139	0.2543587	0	0	0	0	0	0
18.87286	0.0178139	0.2543587	0	0	0	0	0	0
18.88943	0.0177876	0.2543408	-0.001587842	-0.001082921	-0.04792392	-0.0326845	0	0
18.93792	0.0177876	0.2543408	0	0	0.02440378	0.01664358	0	0
18.95449	0.0177876	0.2543049	0	-0.002162244	0	-0.03323186	0	0
18.97138	0.0177876	0.2543049	0	0	0	0.0646353	0	0
18.98763	0.01776129	0.2543229	-0.001619083	0.001102315	-0.04886403	0.03326795	0	0
19.00419	0.0177876	0.2543408	0.001587954	0.001081122	0.09772805	-0.0006458268	0	0
19.02076	0.01776129	0.2543587	-0.001587954	0.001082921	-0.0958491	5.428939E-05	0	0
19.03733	0.01776129	0.2543587	0	0	0.04792455	-0.03268262	0	0
19.07046	0.0177876	0.2544483	0.000793977	0.002703704	0.01597485	0.05439864	0	0
19.08703	0.01786652	0.2545021	0.00476375	0.003245165	0.07987198	0.01089421	0	0
19.1036	0.01802436	0.2546096	0.0095275	0.006490329	0.1437703	0.09793926	0	0
19.12016	0.01865573	0.2550397	0.03810932	0.02595952	0.862601	0.5875813	0	0
19.13673	0.01989211	0.2558818	0.07462822	0.05083432	1.102143	0.7507229	0	0
19.1533	0.02289074	0.2579244	0.1809973	0.1232893	3.210225	2.186695	0	0
19.16986	0.03122669	0.2635666	0.503159	0.3405606	9.72286	6.557262	0	0
19.18643	0.04116095	0.2702983	0.5996331	0.4063292	2.911593	1.984898	0	0
19.203	0.04943338	0.2758998	0.499325	0.3381051	-3.027305	-2.059005	0	0
19.21957	0.05783018	0.2814814	0.5068319	0.3369089	0.2265589	-0.03610336	0	0
19.23613	0.06561619	0.2864712	0.4699645	0.3011833	-1.112661	-1.078201	0	0
19.2527	0.07559253	0.2927826	0.6021728	0.3809579	3.990055	2.407602	0	0
19.26927	0.08244428	0.2972156	0.4135728	0.2675732	-5.69196	-3.421957	0	0
19.28611	0.08897499	0.3014333	0.3876781	0.2503733	-0.7749904	-0.5147678	0	0
19.30262	0.09768806	0.3072583	0.5278669	0.3529004	4.203324	3.074101	0	0
19.31897	0.1042262	0.3114567	0.3999383	0.2568144	-3.893842	-2.924629	0	0
19.33554	0.1131722	0.3173514	0.5399835	0.3558078	4.254739	3.007538	0	0
19.3521	0.1174828	0.3202806	0.2601861	0.1768075	-8.444303	-5.402241	0	0
19.36867	0.1241477	0.3248706	0.4022938	0.2770514	4.28882	3.025367	0	0
19.38524	0.1330255	0.3310318	0.5358668	0.371888	4.03124	2.862172	0	0
19.4018	0.1406958	0.3363355	0.4629783	0.3201308	-2.199778	-1.562033	0	0
19.41837	0.1507168	0.3433533	0.6047965	0.4235514	4.279835	3.121058	0	0
19.43494	0.1588092	0.3492285	0.4885745	0.3547058	-3.507789	-2.077881	0	0
19.51778	0.2003543	0.3795424	0.5014642	0.3659004	0.1296608	0.1126088	0	0
19.53434	0.2053786	0.3841716	0.3035442	0.2796727	-1.991156	-0.8674852	0	0
19.5509	0.2089573	0.3893202	0.216013	0.3107731	-2.642912	0.9390423	0	0
19.56747	0.2081513	0.3961156	-0.04865049	0.4101715	-7.987561	2.999852	0	0
19.58404	0.2048236	0.4040589	-0.2008584	0.4794587	-4.593644	2.09109	0	0
19.60084	0.2003796	0.4072088	-0.2645578	0.1875124	-1.909155	-8.75001	0	0
19.61735	0.1968135	0.4098401	-0.2159705	0.1593616	1.458645	-0.8451162	0	0
19.63374	0.1914422	0.4141015	-0.3277223	0.2600009	-3.396529	3.058779	0	0
19.6503	0.1877619	0.4183822	-0.22214	0.2583846	3.20363	-0.04904345	0	0
19.66687	0.1881683	0.4221089	0.02452762	0.2249417	7.444443	-1.009307	0	0
19.68344	0.1902499	0.429028	0.1256576	0.4176849	3.052283	5.817337	0	0
19.7	0.1946866	0.4357901	0.2678025	0.4081622	4.290191	-0.2874133	0	0
19.71657	0.1975221	0.437405	0.1711491	0.09747906	-2.917005	-9.376435	0	0
19.75337	0.1973956	0.4379255	-0.003437937	0.01414292	-3.271522	-1.561605	0	0
19.76994	0.1972184	0.4389485	-0.01069159	0.06174807	-0.1359236	0.892055	0	0
19.7865	0.1914168	0.443706	-0.3501855	0.2871665	-10.24594	6.803141	0	0
19.80348	0.1864409	0.4473701	-0.2931606	0.2158722	1.700168	-2.125603	0	0
19.81999	0.1836187	0.449688	-0.1709175	0.1403723	3.650637	-2.25471	0	0
19.8362	0.1809209	0.454757	-0.1663848	0.312625	0.1385023	5.263434	0	0
19.85277	0.1827537	0.4589296	0.110627	0.25186	8.450223	-1.85363	0	0
19.86934	0.1860851	0.4685965	0.201086	0.5834946	2.730057	10.00875	0	0
19.88604	0.1891077	0.4749221	0.18101	0.3788032	-0.6034985	-6.153159	0	0
19.90247	0.1887523	0.4802249	-0.02162764	0.3226791	-6.115967	-1.693926	0	0
19.91904	0.1891331	0.4808564	0.02298508	0.03812169	1.351862	-8.622705	0	0
19.93561	0.1892093	0.4808023	0.004597017	-0.00326855	-0.5549529	-1.24916	0	0
19.95217	0.1893108	0.480694	0.006128756	-0.006535301	0.04622798	-0.09859074	0	0
19.96874	0.1892854	0.480676	-0.001531739	-0.001088317	-0.2311942	0.1643903	0	0
19.98531	0.1893108	0.4806579	0.001531739	-0.001090116	0.09245597	-5.42929E-05	0	0
20.00187	0.1893362	0.4805677	0.001532639	-0.005445185	2.714469E-05	-0.1314362	0	0
20.01844	0.1894124	0.4804775	0.004596117	-0.005446984	0.09245597	-5.428939E-05	0	0
20.03501	0.1894377	0.4804595	0.001531739	-0.001088317	-0.09248312	0.1315448	0	0
20.05158	0.1894885	0.4804234	0.003064025	-0.002178183	0.04624182	-0.03289031	0	0
20.06817	0.1895139	0.4804053	0.001530348	-0.001088487	-0.04624919	0.0328606	0	0
20.08471	0.1895393	0.4803873	0.001534212	-0.001090074	0.0001166172	-4.790474E-05	0	0
20.10128	0.1895139	0.4803692	-0.001531739	-0.001090116	-0.09260523	-1.265852E-06	0	0
20.11785	0.1895139	0.4803692	0	0	0.04622798	0.03289977	0	0
20.13441	0.1894885	0.4803151	-0.001532639	-0.003266751	-0.04625513	-0.09859074	0	0
20.15098	0.1894377	0.480279	-0.003064378	-0.002178434	-0.04622798	0.03284549	0	0
20.16755	0.1894631	0.480261	0.001532639	-0.001088317	0.1387382	0.03289977	0	0
20.18411	0.1894631	0.4802249	0	-0.002178685	-0.04625779	-0.03290924	0	0
20.20077	0.1894885	0.4802068	0.001523321	-0.001084125	0.04584988	0.03294474	0	0
20.21725	0.1895646	0.4801166	0.004621657	-0.005475443	0.09350796	-0.1325302	0	0
20.23381	0.1895646	0.4800805	0	-0.002178434	-0.1398683	0.09977964	0	0
20.31685	0.1901484	0.479449	0.007029222	-0.007604523	0.07056923	-0.05447472	0	0
20.38292	0.2023501	0.4702179	0.1846992	-0.1397327	1.191591	-0.8861526	0	0
20.39948	0.2082269	0.4656969	0.3547222	-0.2728852	2.057639	-1.611428	0	0
20.41605	0.2113737	0.4631945	0.1899402	-0.1510495	-4.973133	3.677011	0	0
20.43262	0.2181562	0.4576164	0.4094407	-0.33673	6.624919	-5.604172	0	0
20.44918	0.2238929	0.4532467	0.3462657	-0.2637542	-1.906733	2.202542	0	0
20.46575	0.2285413	0.4499036	0.2805835	-0.2017938	-1.982293	1.869966	0	0
20.48232	0.2326566	0.4469031	0.2483981	-0.1811104	-0.9713579	0.6242269	0	0
20.49889	0.2332794	0.446418	0.03759372	-0.02927664	-6.362089	4.582352	0	0
20.51545	0.2332545	0.4463642	-0.001502957	-0.00325236	-1.17994	0.7854143	0	0
20.53202	0.2332296	0.4463462	-0.001503857	-0.00108472	-2.714469E-05	0.06541951	0	0
20.54902	0.2332047	0.4463282	-0.001465556	-0.001057094	0.00114101	0.0008230018	0	0
20.58172	0.2334787	0.4461306	0.00837939	-0.006042566	0.1980883	-0.1003117	0	0
20.59856	0.2337527	0.445933	0.01627014	-0.01173468	0.159288	-0.1149048	0	0
20.61485	0.2347984	0.4451427	0.06417535	-0.04850097	1.445865	-1.109673	0	0
20.63158	0.2375346	0.4431673	0.1635415	-0.1180674	3.008749	-2.106431	0	0
20.64799	0.2459691	0.4370641	0.5141988	-0.3720767	10.58286	-7.666014	0	0
20.6646	0.2499014	0.4341395	0.2366683	-0.1760221	-8.405402	5.93779	0	0
20.68522	0.2541709	0.4308571	0.2070725	-0.1591987	-0.7948735	0.4518367	0	0
20.70179	0.2539243	0.430068	-0.01488207	-0.04762693	-5.968819	3.000396	0	0
20.71836	0.2504201	0.4275219	-0.2115131	-0.153683	-5.934337	-3.200779	0	0
20.73515	0.2439877	0.4228257	-0.3829269	-0.2795699	-5.137495	-3.772993	0	0
20.75166	0.2401183	0.4199587	-0.2343669	-0.1736494	4.460188	3.180027	0	0
20.76818	0.2393734	0.4192421	-0.04511613	-0.04340057	5.731063	3.944314	0	0
20.78469	0.2376589	0.415176	-0.1038304	-0.2462512	-1.777935	-6.142553	0	0
20.80119	0.2394727	0.4138329	0.1099232	-0.08139955	6.474948	4.99363	0	0
20.81775	0.240019	0.4134389	0.03297512	-0.02377929	-2.326985	1.742494	0	0
20.83472	0.2400438	0.413421	0.001463087	-0.001055601	-0.9396757	0.6776109	0	0
20.85089	0.2400438	0.413421	0	0	-0.04415606	0.0318581	0	0
20.86746	0.2400438	0.413421	0	0	0	0	0	0
20.88426	0.240019	0.4134389	-0.001477202	0.001065784	-0.04426354	0.03193564	0	0
20.90077	0.240019	0.4134389	0	0	0.04433956	-0.03199049	0	0
20.91716	0.2399942	0.4134569	-0.00151594	0.001093077	-0.04608274	0.03322822	0	0
20.93373	0.2399693	0.4134748	-0.00149846	0.001081122	0.0005304303	-0.0003627877	0	0
20.95187	0.2399693	0.4134748	0	0	0.04316619	-0.03114392	0	0
20.96844	0.2399693	0.4134748	0	0	0	0	0	0
20.98501	0.2399693	0.4134748	0	0	0	0	0	0
21.00157	0.2399693	0.4134748	0	0	0	0	0	0
21.01814	0.2399693	0.4134748	0	0	0	0	0	0
21.03471	0.2399693	0.4134748	0	0	0	0	0	0
21.10098	0.2399693	0.4134748	0	0	0	0	0	0
21.11754	0.2399693	0.4134748	0	0	0	0	0	0
21.13444	0.2399693	0.4134748	0	0	0	0	0	0
21.15095	0.2399693	0.4134748	0	0	0	0	0	0
21.16724	0.2399445	0.4134569	-0.001523899	-0.001099476	-0.04645669	-0.03351797	0	0
21.18381	0.2399445	0.4134569	0	0	0.04637849	0.03346155	0	0
21.20038	0.2399445	0.4134569	0	0	0	0	0	0
21.21694	0.2399445	0.4134569	0	0	0	0	0	0
21.23351	0.2399445	0.4134569	0	0	0	0	0	0
21.25008	0.2399445	0.4134569	0	0	0	0	0	0
21.26665	0.2399445	0.4134569	0	0	0	0	0	0
21.28322	0.2399445	0.4134569	0	0	0	0	0	0
21.29978	0.2399445	0.4134569	0	0	0	0	0	0
21.31635	0.2399445	0.4134569	0	0	0	0	0	0
21.33291	0.2399445	0.4134569	0	0	0	0	0	0
21.34948	0.2399445	0.4134569	0	0	0	0	0	0
21.36611	0.2399197	0.4134389	-0.001493856	-0.001077154	-0.04500436	-0.03245065	0	0
21.38261	0.2398452	0.4133852	-0.004512906	-0.003255359	-0.09111511	-0.06573837	0	0
21.39918	0.2396962	0.4132778	-0.008994631	-0.006486426	-0.135524	-0.09770503	0	0
21.41574	0.2392989	0.4129913	-0.02398436	-0.01729255	-0.4524429	-0.3261671	0	0
21.43231	0.2391001	0.412848	-0.01199626	-0.008648172	0.3618224	0.260903	0	0
21.44888	0.2383797	0.4123287	-0.04349273	-0.03134715	-0.9506749	-0.6851354	0	0
21.46567	0.2327563	0.4083543	-0.3347648	-0.2365998	-8.730302	-6.15204	0	0
21.48201	0.2261684	0.4036295	-0.4032646	-0.2892221	-2.067327	-1.588145	0	0
21.49858	0.2189336	0.3984946	-0.436739	-0.3099759	-1.017406	-0.6307799	0	0
21.51515	0.2098637	0.3920738	-0.5473345	-0.3874705	-3.337586	-2.338658	0	0
21.53172	0.2033348	0.3874787	-0.393862	-0.2772031	4.629943	3.326537	0	0
21.54827	0.1950665	0.3816335	-0.4995319	-0.3531434	-3.189673	-2.292278	0	0
21.56484	0.1893616	0.3776839	-0.3443517	-0.2383991	4.685504	3.464585	0	0
21.58175	0.1825501	0.3728951	-0.4027512	-0.2831496	-1.744327	-1.336647	0	0
21.61478	0.1733733	0.3663922	-0.2778504	-0.1968943	2.501012	1.727175	0	0
21.63404	0.1682111	0.3627125	-0.2680749	-0.1910874	0.1869682	0.1110634	0	0
21.65061	0.1637316	0.3596225	-0.2703866	-0.1865124	-0.06452904	0.1277087	0	0
21.66731	0.158219	0.3557469	-0.3299265	-0.2319563	-1.789296	-1.365682	0	0
21.68374	0.149559	0.3497642	-0.5272095	-0.3642174	-5.954011	-3.991648	0	0
21.70031	0.1435325	0.3455855	-0.3637652	-0.252227	4.953861	3.394337	0	0
21.71688	0.1369789	0.3410498	-0.3955728	-0.2737775	-0.9599571	-0.6503947	0	0
21.73344	0.1299478	0.3361926	-0.4244486	-0.2932121	-0.8715226	-0.5865712	0	0
21.75001	0.1227223	0.3312461	-0.4361324	-0.2985731	-0.3526388	-0.1618061	0	0
21.83293	0.08351582	0.304739	-0.4728006	-0.3196552	-0.368557	-0.2118987	0	0
21.84945	0.07030499	0.2975015	-0.7999858	-0.4382688	-3.290354	-1.192844	0	0
21.86646	0.05992816	0.2923893	-0.6100526	-0.3005474	5.665665	4.108199	0	0
21.88254	0.05239936	0.2872222	-0.4679618	-0.3211655	4.293003	-0.6229389	0	0
21.89911	0.04780566	0.2840927	-0.2773404	-0.1889412	5.837989	4.049513	0	0
21.91567	0.04415549	0.2815709	-0.2203245	-0.1522205	1.720942	1.10836	0	0
21.9325	0.04063552	0.2792096	-0.2091433	-0.1402956	0.3347886	0.3570576	0	0
21.94902	0.03884887	0.2779573	-0.1082036	-0.07584181	3.02737	1.933091	0	0
21.96553	0.03848099	0.2777069	-0.02227663	-0.01516661	2.601819	1.837209	0	0
21.98194	0.03850727	0.2776532	0.001601272	-0.003270644	0.7252288	0.3613087	0	0
22.03164	0.03853355	0.2776353	0.0005287387	-0.0003597882	-0.01622331	0.04403009	0	0
22.04859	0.03855982	0.2776174	0.00155041	-0.001056908	0.01532969	-0.01045994	0	0
22.06478	0.03861238	0.2775816	0.003246463	-0.002209261	0.051187	-0.0347781	0	0
22.08134	0.03863866	0.277528	0.001586338	-0.003240141	-0.05068623	-0.03147437	0	0
22.0979	0.03866493	0.27751	0.001586296	-0.001081371	-1.275592E-06	0.06516307	0	0
22.11447	0.03866493	0.2774027	0	-0.006479536	-0.04788001	-0.1629357	0	0
22.13104	0.0385861	0.2773133	-0.004758016	-0.005398414	-0.1435972	0.03262833	0	0
22.14765	0.03837589	0.2771701	-0.0126536	-0.008616174	-0.2379606	-0.0969782	0	0
22.16417	0.03806056	0.2768838	-0.01908835	-0.01732984	-0.1942123	-0.2629941	0	0
22.18074	0.0359319	0.2754703	-0.1284862	-0.08531868	-3.306392	-2.054864	0	0
22.19769	0.02854488	0.2704415	-0.4358458	-0.2967097	-9.170552	-6.307181	0	0
22.21387	0.01907663	0.2640322	-0.5850427	-0.3960334	-4.503029	-2.997768	0	0
22.23044	0.003842086	0.2536598	-0.9196649	-0.6261496	-10.21773	-7.026624	0	0
22.24722	-0.001578946	0.2500032	-0.3229385	-0.2178286	17.89182	12.24281	0	0
22.26373	-0.008710306	0.2451439	-0.4318917	-0.2942913	-3.272015	-2.296281	0	0
22.28025	-0.01586709	0.2403004	-0.4334314	-0.2933338	-0.04662412	0.02899388	0	0
22.29676	-0.0198395	0.2375906	-0.2405784	-0.1641085	5.839812	3.913091	0	0
22.31327	-0.01955014	0.2377881	0.01752229	0.01195516	7.815138	5.331105	0	0
22.32984	-0.01941861	0.2378419	0.007939096	0.003249662	-0.2896884	-0.2631567	0	0
22.34641	-0.01941861	0.2378419	0	0	-0.2396024	-0.09807499	0	0
22.36297	-0.01941861	0.2378419	0	0	0	0	0	0
22.37954	-0.01941861	0.2378419	0	0	0	0	0	0
22.39611	-0.01941861	0.2378419	0	0	0	0	0	0
22.41268	-0.01941861	0.2378419	0	0	0	0	0	0
22.42924	-0.01941861	0.2378419	0	0	0	0	0	0
22.53697	-0.01939231	0.2378239	0.0002442011	-0.0001665472	0.001964762	-0.001339983	0	0
22.55353	-0.01939231	0.2378239	0	0	-0.001964762	0.001339983	0	0
22.5701	-0.01939231	0.2378239	0	0	0	0	0	0
22.58667	-0.01939231	0.2378239	0	0	0	0	0	0
22.60324	-0.01939231	0.2378239	0	0	0	0	0	0
22.6198	-0.01939231	0.2378239	0	0	0	0	0	0
22.63637	-0.01939231	0.2378239	0	0	0	0	0	0
22.65501	-0.01939231	0.2378239	0	0	0	0	0	0
22.67158	-0.01939231	0.2378239	0	0	0	0	0	0
22.68815	-0.01939231	0.2378239	0	0	0	0	0	0
22.70471	-0.01939231	0.2378239	0	0	0	0	0	0
22.72128	-0.01939231	0.2378239	0	0	0	0	0	0
22.73808	-0.01939231	0.2378239	0	0	0	0	0	0
22.75441	-0.01939231	0.2378239	0	0	0	0	0	0
22.77098	-0.01939231	0.2378239	0	0	0	0	0	0
22.78755	-0.019366	0.237806	0.001587842	-0.00108382	0.04792115	-0.03270976	0	0
22.82068	-0.019366	0.237806	0	0	-0.03194744	0.02180651	0	0
22.87038	-0.01933969	0.2377881	0.0005292805	-0.0003609736	0.006389487	-0.004357682	0	0
22.88695	-0.01933969	0.2377881	0	0	-0.007986858	0.005447102	0	0
22.90351	-0.01933969	0.2377881	0	0	0	0	0	0
22.92021	-0.01928708	0.2377522	0.003151375	-0.002150156	0.09474871	-0.06464622	0	0
22.93665	-0.01923447	0.2377163	0.003200369	-0.002183584	0.001478659	-0.001008879	0	0
22.95323	-0.01918186	0.2376804	0.003172396	-0.002164498	-0.0008470611	0.000577948	0	0
22.96978	-0.01912924	0.2376445	0.003179343	-0.002168338	0.000209679	-0.0001158934	0	0
22.98635	-0.01910294	0.2376265	0.001587842	-0.00108382	-0.04805928	0.03274966	0	0
23.00292	-0.01902402	0.2376086	0.004763525	-0.001082921	0.09584231	2.714469E-05	0	0
23.01948	-0.01897141	0.2375727	0.003175683	-0.002166741	-0.04792115	-0.03270976	0	0
23.03605	-0.01889249	0.2375547	0.004763525	-0.00108382	0.04792115	0.03268262	0	0
23.05262	-0.01886618	0.2375368	0.001587842	-0.001082921	-0.09584231	2.714469E-05	0	0
23.06932	-0.01886618	0.2375368	0	0	-0.04772336	0.03254772	0	0
23.08575	-0.01883988	0.2375188	0.001601413	-0.001093006	0.04833352	-0.03298889	0	0
23.10234	-0.01881357	0.2375368	0.001585651	0.001082325	-0.0004773724	0.06588297	0	0
23.11889	-0.01876096	0.2375727	0.003180077	0.002169739	0.04811986	0.03281821	0	0
23.13545	-0.01870834	0.2375727	0.003175796	0	-0.0001292919	-0.0655281	0	0
23.15202	-0.01868204	0.2375906	0.001588024	0.001083045	-0.04792178	0.03268826	0	0
23.16858	-0.01862942	0.2375906	0.003175683	0	0.0479184	-0.03268826	0	0
23.1854	-0.01849789	0.2376445	0.007822359	0.003202629	0.1391953	0.0959376	0	0
23.20172	-0.01844528	0.2376804	0.003224049	0.002198749	-0.1387773	-0.03029714	0	0
23.21843	-0.01844528	0.2376804	0	0	-0.0976223	-0.06657684	0	0
23.23494	-0.01836636	0.2376983	0.004779043	0.001087325	0.1438591	0.03273076	0	0
23.25145	-0.01834005	0.2377163	0.001593529	0.0010868	-0.09646662	-1.592068E-05	0	0
23.26799	-0.01826113	0.2377342	0.004771991	0.001085695	0.09618085	-3.342033E-05	0	0
23.28455	-0.01823482	0.2377522	0.001587842	0.001082921	-0.09618086	-8.38007E-05	0	0
23.30112	-0.0181559	0.237806	0.00476375	0.003249662	0.0958491	0.06539237	0	0
23.31769	-0.01810328	0.2378419	0.003175796	0.002166741	-0.04792456	-0.03268261	0	0
23.33426	-0.01805067	0.2378419	0.003175796	0	0	-0.06539237	0	0
23.35082	-0.01802436	0.2378598	0.001587842	0.00108382	-0.04792454	0.03270976	0	0
23.36739	-0.01791913	0.2379316	0.006351704	0.004332582	0.1437736	0.09804785	0	0
23.38396	-0.0177876	0.2380214	0.007939545	0.005416403	0.04792115	0.03270977	0	0
23.40056	-0.01773498	0.2380573	0.003169704	0.002162509	-0.1438134	-0.09810672	0	0
23.41709	-0.01757714	0.2381649	0.009546183	0.006512069	0.1924425	0.13127	0	0
23.43366	-0.01739298	0.2382906	0.01111557	0.007583144	0.04741046	0.03235677	0	0
23.45023	-0.01723514	0.2383982	0.009527724	0.006499324	-0.04792115	-0.03270976	0	0
23.46679	-0.01723514	0.2383982	0	0	-0.2875473	-0.19615	0	0
23.48336	-0.01723514	0.2383982	0	0	0	0	0	0
23.49993	-0.01723514	0.2383982	0	0	0	0	0	0
23.53566	-0.01723514	0.2383982	0	0	0	0	0	0
23.55216	-0.01723514	0.2383982	0	0	0	0	0	0
23.56873	-0.01723514	0.2383982	0	0	0	0	0	0
23.60186	-0.01723514	0.2383982	0	0	0	0	0	0
23.61843	-0.01723514	0.2383982	0	0	0	0	0	0
23.635	-0.01723514	0.2383982	0	0	0	0	0	0
23.65174	-0.01723514	0.2383982	0	0	0	0	0	0
23.66813	-0.01723514	0.2383982	0	0	0	0	0	0
23.6847	-0.01723514	0.2383982	0	0	0	0	0	0
23.70127	-0.01723514	0.2383982	0	0	0	0	0	0
23.71783	-0.01723514	0.2383982	0	0	0	0	0	0
23.80066	-0.01726144	0.2384162	-0.0003175908	0.0002165842	-0.003195399	0.002179134	0	0
23.81723	-0.01726144	0.2384162	0	0	0.00319497	-0.002178841	0	0
23.8338	-0.01723514	0.2384341	0.001587954	0.00108382	0.04792455	0.03270976	0	0
23.85037	-0.01720883	0.2384521	0.001587771	0.001082796	-5.515754E-06	-3.090579E-05	0	0
23.86693	-0.01702467	0.2385777	0.01111696	0.007584017	0.2875915	0.1962072	0	0
23.8835	-0.01644589	0.2389725	0.03493555	0.02382965	0.718888	0.4903225	0	0
23.90042	-0.01552507	0.2396006	0.05442772	0.03712391	0.5821093	0.3970163	0	0
23.91693	-0.01384122	0.2407489	0.1019659	0.06953919	1.421936	0.9695883	0	0
23.9332	-0.0126046	0.2415922	0.0760169	0.05183601	-0.7915721	-0.5400339	0	0
23.94977	-0.008710306	0.2442471	0.2350598	0.1602507	4.843698	3.301802	0	0
23.96634	-0.003315777	0.2479234	0.3255769	0.2218788	2.731656	1.859832	0	0
23.9829	0.003999979	0.252907	0.4415799	0.3008109	3.500776	2.38204	0	0
23.99949	0.00726303	0.2551292	0.1967091	0.1339632	-7.38554	-5.032287	0	0
24.01604	0.01144687	0.2579423	0.2528863	0.1700322	1.695531	1.088627	0	0
24.03261	0.01439374	0.2599487	0.1778328	0.1210776	-2.266425	-1.478305	0	0
24.04917	0.01449898	0.2600203	0.006354517	0.004325982	-5.175522	-3.523773	0	0
24.06574	0.01449898	0.2600203	0	0	-0.1918128	-0.1305809	0	0
24.0823	0.01449898	0.2600203	0	0	0	0	0	0
24.09887	0.01447267	0.2600024	-0.001588066	-0.001081122	-0.04792794	-0.03262833	0	0
24.11544	0.01447267	0.2600024	0	0	0.04792794	0.03262833	0	0
24.13201	0.01449898	0.2599845	0.001588066	-0.001081122	0.04792794	-0.03262833	0	0
24.1486	0.01449898	0.2599845	0	0	-0.04788384	0.0325983	0	0
24.16514	0.01449898	0.2599845	0	0	0	0	0	0
24.18171	0.01447267	0.2599666	-0.001588066	-0.001081122	-0.04797489	-0.03266029	0	0
24.19827	0.01447267	0.2599308	0	-0.002162244	0.04792794	-0.03262833	0	0
24.21484	0.01449898	0.2599129	0.001588066	-0.001081122	0.04792794	0.03262833	0	0
24.23141	0.01447267	0.259895	-0.001588066	-0.001081122	-0.09585588	0	0	0
24.24797	0.01449898	0.259877	0.001588066	-0.001082921	0.09585588	-5.428939E-05	0	0
24.26469	0.01449898	0.259877	0	0	-0.04771918	0.03254026	0	0
24.28111	0.01452529	0.2598591	0.001602327	-0.001090792	0.04836111	-0.03292205	0	0
24.29771	0.01452529	0.2598591	0	0	-0.04852032	0.03303044	0	0
24.31424	0.01452529	0.2598233	0	-0.002166734	0	-0.0653884	0	0
24.33081	0.0145516	0.2598054	0.001588066	-0.001081122	0.04797765	0.03279782	0	0
24.34738	0.01457791	0.2597875	0.001588123	-0.001081122	1.696983E-06	0	0	0
24.48671	0.01481471	0.2595904	0.001699473	-0.001414271	0.0007142448	-0.002136954	0	0
24.50327	0.01481471	0.2595904	0	0	-0.01090124	0.009071821	0	0
24.51987	0.01481471	0.2595904	0	0	0	0	0	0
24.53641	0.01481471	0.2595904	0	0	0	0	0	0
24.55298	0.01484102	0.2595725	0.001588066	-0.001081122	0.04796384	-0.03265276	0	0
24.56954	0.01484102	0.2595725	0	0	-0.0479307	0.03263021	0	0
24.58611	0.01484102	0.2595725	0	0	0	0	0	0
24.60599	0.01486733	0.2595546	0.001323541	-0.0009010386	0.0363155	-0.02472283	0	0
24.62255	0.01486733	0.2595546	0	0	-0.0363155	0.02472283	0	0
24.63912	0.01486733	0.2595546	0	0	0	0	0	0
24.65569	0.01486733	0.2595546	0	0	0	0	0	0
24.67226	0.01489364	0.2595367	0.001588066	-0.001081122	0.04792794	-0.03262833	0	0
24.68882	0.01489364	0.2595367	0	0	-0.04792794	0.03262833	0	0
24.70539	0.01489364	0.2595367	0	0	0	0	0	0
24.72196	0.01489364	0.2595367	0	0	0	0	0	0
24.73852	0.01491995	0.2595188	0.001588249	-0.001081246	0.04793622	-0.03263396	0	0
24.75509	0.01494626	0.2595009	0.001588123	-0.001081122	-3.822823E-06	3.756064E-06	0	0
24.77166	0.01491995	0.2594829	-0.001588123	-0.001081122	-0.09585927	0	0	0
24.78823	0.01494626	0.259465	0.001588123	-0.001081122	0.09585927	0	0	0
24.80507	0.01494626	0.259465	0	0	-0.04752747	0.03235454	0	0
24.82136	0.01494626	0.259465	0	0	0	0	0	0
24.8381	0.01494626	0.259465	0	0	0	0	0	0
24.85449	0.01494626	0.259465	0	0	0	0	0	0
24.87106	0.01494626	0.259465	0	0	0	0	0	0
24.88763	0.01497257	0.2594471	0.001587701	-0.001080873	0.04791139	-0.03261706	0	0
24.9042	0.01497257	0.2594471	0	0	-0.04791691	0.03262081	0	0
24.92076	0.01497257	0.2594471	0	0	0	0	0	0
24.93733	0.01499888	0.2594292	0.001588066	-0.001081122	0.04792794	-0.03262833	0	0
24.95419	0.01499888	0.2594292	0	0	-0.04751222	0.03234531	0	0
24.9707	0.01499888	0.2594292	0	0	0	0	0	0
24.98703	0.01499888	0.2594292	0	0	0	0	0	0
25.0036	0.01502519	0.2594113	0.001588066	-0.001081122	0.04826971	-0.03286099	0	0
25.02016	0.01502519	0.2594113	0	0	-0.04792794	0.03262833	0	0
25.03675	0.01502519	0.2594113	0	0	0	0	0	0
25.06986	0.01502519	0.2594113	0	0	0	0	0	0
25.08643	0.01499888	0.2593934	-0.001588249	-0.001081246	-0.03196668	-0.02176224	0	0
25.103	0.01502519	0.2593755	0.001588066	-0.001081122	0.09586692	3.756064E-06	0	0
25.13613	0.01502519	0.2593396	0	-0.001082084	-0.03195319	-1.935033E-05	0	0
25.15282	0.01510411	0.2592501	0.004727676	-0.005364232	0.09488072	-0.08593933	0	0
25.16926	0.01520935	0.2591784	0.006401645	-0.004358104	0.0505205	0.03036501	0	0
25.18585	0.01547245	0.2589635	0.01586588	-0.01296332	0.2866046	-0.260591	0	0
25.2024	0.01557769	0.2588918	0.006358742	-0.004330774	-0.2869426	0.2605458	0	0
25.23553	0.01839266	0.2569748	0.08495616	-0.05785351	1.58193	-1.077252	0	0
25.2521	0.01862942	0.2568136	0.01429091	-0.009733695	-1.421788	0.9681726	0	0
25.26867	0.02170712	0.2547171	0.1857698	-0.1265434	5.175244	-3.525325	0	0
25.28523	0.02581006	0.2519212	0.2476826	-0.1687788	1.868637	-1.274739	0	0
25.3018	0.0363524	0.2447314	0.636337	-0.4339814	11.73029	-8.004292	0	0
25.31837	0.04578377	0.2382188	0.5692788	-0.3931003	-2.023821	1.233796	0	0
25.33493	0.05948238	0.2285589	0.8268496	-0.5830728	7.7735	-5.733382	0	0
25.3515	0.06972887	0.2208131	0.6184795	-0.4675349	-6.28862	3.486941	0	0
25.36807	0.08186923	0.2096228	0.7327933	-0.6754512	3.449997	-6.274926	0	0
25.38463	0.09054125	0.2013732	0.5235045	-0.4980039	-6.316713	5.355676	0	0
25.4012	0.09408978	0.1988858	0.2141894	-0.1501401	-9.335685	10.49915	0	0
25.45104	0.1291715	0.1674119	0.7039275	-0.6315355	7.375092	-7.249455	0	0
25.48725	0.1296632	0.1398747	0.01357703	-0.7604238	-8.022664	-1.49783	0	0
25.50382	0.1287833	0.1317166	-0.05310899	-0.492425	-1.263468	5.077644	0	0
25.52038	0.1277996	0.1267937	-0.05937266	-0.297143	-0.1890379	5.89362	0	0
25.5371	0.1272301	0.1212819	-0.03407405	-0.3297354	0.7601006	-0.9792416	0	0
25.55351	0.1267381	0.1141732	-0.02997182	-0.4330691	0.1238199	-3.118976	0	0
25.57008	0.1255467	0.108098	-0.0719108	-0.3667027	-1.271577	2.012207	0	0
25.58665	0.1245364	0.09920895	-0.06098535	-0.5365418	0.3297307	-5.125755	0	0
25.60322	0.1232925	0.08969606	-0.07507951	-0.5741994	-0.4253626	-1.136509	0	0
25.61978	0.1219705	0.08209682	-0.0797975	-0.4586911	-0.1423892	3.486047	0	0
25.63635	0.1210111	0.07367229	-0.05790838	-0.508505	0.660615	-1.503386	0	0
25.65292	0.1207777	0.06452806	-0.01408786	-0.5519469	1.322506	-1.311079	0	0
25.66949	0.1199996	0.0510789	-0.04696539	-0.8117933	-0.9922459	-7.842178	0	0
25.68605	0.1192992	0.04095212	-0.04227664	-0.6112533	0.141507	6.05231	0	0
25.70262	0.11795	0.02824102	-0.08144122	-0.7672436	-1.18199	-4.707798	0	0
25.71919	0.1158474	0.01966104	-0.1269117	-0.5178884	-1.372303	7.525555	0	0
25.73575	0.1141594	0.01196056	-0.1018881	-0.464802	0.7552152	1.602152	0	0
25.75232	0.1104435	0.004919542	-0.2242919	-0.4249969	-3.694153	1.20132	0	0
25.76889	0.1092995	0.001271238	-0.06905809	-0.2202374	4.685235	6.180009	0	0
25.80202	0.1054755	-0.005829944	-0.115408	-0.2143141	-0.9325972	0.1191822	0	0
25.83515	0.101362	-0.008772849	-0.1241552	-0.08882216	-0.1319992	1.893731	0	0
25.85183	0.101362	-0.008772849	0	0	2.492841	1.78341	0	0
25.86829	0.101362	-0.008772849	0	0	0	0	0	0
25.88485	0.101362	-0.008772849	0	0	0	0	0	0
25.90142	0.101362	-0.008772849	0	0	0	0	0	0
25.91799	0.101362	-0.008772849	0	0	0	0	0	0
25.93489	0.101362	-0.008772849	0	0	0	0	0	0
25.95112	0.101362	-0.008772849	0	0	0	0	0	0
25.96769	0.101362	-0.008772849	0	0	0	0	0	0
25.98442	0.101362	-0.008772849	0	0	0	0	0	0
26.00082	0.1013099	-0.008810596	-0.003176241	-0.002301435	-0.09585916	-0.06945745	0	0
26.01739	0.1012578	-0.00888609	-0.003143978	-0.004556879	0.0009786106	-0.06841206	0	0
26.03396	0.1011275	-0.009018211	-0.007861069	-0.007974792	-0.1423621	-0.1031528	0	0
26.05053	0.09729706	-0.01190733	-0.2312076	-0.1743874	-6.740613	-5.022341	0	0
26.06709	0.08636358	-0.02009782	-0.6599462	-0.4943791	-12.93936	-9.657369	0	0
26.08366	0.08016991	-0.02458981	-0.3738079	-0.2711062	8.635173	6.738	0	0
26.10023	0.07279221	-0.02998116	-0.4453701	-0.3254595	-2.15975	-1.640387	0	0
26.11702	0.06750255	-0.03389768	-0.3149693	-0.233207	3.908952	2.765403	0	0
26.13336	0.06351969	-0.03690503	-0.2437451	-0.1840452	2.149551	1.483708	0	0
26.15004	0.05811869	-0.04086863	-0.323769	-0.2376019	-2.423357	-1.621855	0	0
26.16656	0.05352776	-0.04420745	-0.2780368	-0.2022068	1.377741	1.066325	0	0
26.18306	0.04919711	-0.04732069	-0.2623653	-0.1886109	0.4746332	0.4117712	0	0
26.19963	0.04680789	-0.04906019	-0.1442138	-0.1049963	3.572402	2.528148	0	0
26.2162	0.04604638	-0.0495765	-0.045965	-0.03116455	2.965153	2.228247	0	0
26.23276	0.04604638	-0.0495765	0	0	1.387226	0.9405481	0	0
26.24933	0.04602012	-0.04955738	-0.001585031	0.001154201	-0.04783633	0.03483386	0	0
26.34873	0.04607264	-0.04955738	0.0005283537	0	0.01822375	-0.009952695	0	0
26.3653	0.04607264	-0.04955738	0	0	-0.004556003	0	0	0
26.38221	0.04607264	-0.04955738	0	0	0	0	0	0
26.39843	0.04607264	-0.04955738	0	0	0	0	0	0
26.415	0.04607264	-0.04955738	0	0	0	0	0	0
26.43175	0.04607264	-0.04955738	0	0	0	0	0	0
26.44826	0.04607264	-0.04955738	0	0	0	0	0	0
26.48442	0.04604638	-0.04953825	-0.0007261764	0.0005288962	-0.01378691	0.01004143	0	0
26.50099	0.04604638	-0.04953825	0	0	0.01377195	-0.01003053	0	0
26.53432	0.04602012	-0.04951913	-0.0007877992	0.0005737779	-0.01578754	0.01149854	0	0
26.55069	0.04602012	-0.04951913	0	0	0.01585116	-0.01154488	0	0
26.56734	0.04602012	-0.04951913	0	0	0	0	0	0
26.58386	0.04602012	-0.04951913	0	0	0	0	0	0
26.60039	0.04602012	-0.04951913	0	0	0	0	0	0
26.61695	0.04602012	-0.04951913	0	0	0	0	0	0
26.63352	0.04599386	-0.04950001	-0.001585031	0.001154201	-0.04783633	0.03483386	0	0
26.65009	0.04599386	-0.04950001	0	0	0.04783633	-0.03483386	0	0
26.66665	0.04599386	-0.04950001	0	0	0	0	0	0
26.68322	0.04599386	-0.04950001	0	0	0	0	0	0
26.69994	0.04599386	-0.04950001	0	0	0	0	0	0
26.71645	0.04599386	-0.04950001	0	0	0	0	0	0
26.73292	0.04599386	-0.04950001	0	0	0	0	0	0
26.74949	0.04599386	-0.04950001	0	0	0	0	0	0
26.76649	0.04599386	-0.04950001	0	0	0	0	0	0
26.78262	0.04599386	-0.04950001	0	0	0	0	0	0
26.79919	0.04599386	-0.04950001	0	0	0	0	0	0
26.81576	0.04599386	-0.04950001	0	0	0	0	0	0
26.83232	0.04599386	-0.04950001	0	0	0	0	0	0
26.8489	0.04599386	-0.04950001	0	0	0	0	0	0
26.86556	0.04599386	-0.04950001	0	0	0	0	0	0
26.88207	0.04599386	-0.04950001	0	0	0	0	0	0
26.89859	0.04599386	-0.04950001	0	0	0	0	0	0
26.93173	0.04599386	-0.04950001	0	0	0	0	0	0
26.94829	0.04599386	-0.04950001	0	0	0	0	0	0
26.96486	0.04599386	-0.04950001	0	0	0	0	0	0
26.98143	0.04599386	-0.04950001	0	0	0	0	0	0
26.99799	0.04599386	-0.04950001	0	0	0	0	0	0
27.01466	0.04599386	-0.04950001	0	0	0	0	0	0
27.03112	0.04599386	-0.04950001	0	0	0	0	0	0
27.04769	0.04599386	-0.04950001	0	0	0	0	0	0
27.06426	0.04599386	-0.04950001	0	0	0	0	0	0
27.08083	0.04599386	-0.04950001	0	0	0	0	0	0
27.09739	0.04599386	-0.04950001	0	0	0	0	0	0
27.14709	0.04599386	-0.04950001	0	0	0	0	0	0
27.16377	0.04599386	-0.04950001	0	0	0	0	0	0
27.18028	0.04599386	-0.04950001	0	0	0	0	0	0
27.2138	0.0459676	-0.04948088	-0.0007833169	0.0005705134	-0.01565523	0.01140218	0	0
27.23032	0.0459676	-0.04948088	0	0	0.01565523	-0.01140218	0	0
27.24683	0.04591507	-0.04944263	-0.003180539	0.002316093	-0.09630486	0.07012993	0	0
27.26334	0.04586256	-0.04936614	-0.003180314	0.004631961	6.831031E-06	0.07011906	0	0
27.27963	0.04575751	-0.04921316	-0.006451009	0.009394996	-0.09972588	0.1452284	0	0
27.29637	0.04570499	-0.04913668	-0.003137775	0.004569458	0.1003344	-0.1461313	0	0
27.31288	0.04525855	-0.04869691	-0.02703759	0.02663307	-0.7187741	0.6635512	0	0
27.32939	0.04517976	-0.04852485	-0.004772576	0.01042299	0.6742885	-0.4909169	0	0
27.3459	0.0451535	-0.0484675	-0.001590566	0.0034733	0.09636606	-0.2104688	0	0
27.36246	0.04447066	-0.04735891	-0.04123044	0.06693755	-1.198542	1.91889	0	0
27.37903	0.04239563	-0.04531485	-0.1252489	0.1233797	-2.536121	1.703721	0	0
27.39559	0.03984732	-0.04224186	-0.1538166	0.1854862	-0.8621736	1.874378	0	0
27.41454	0.0332509	-0.03273741	-0.3481752	0.501668	-5.472898	8.90329	0	0
27.43146	0.02949145	-0.02587985	-0.2221886	0.4052913	3.512723	-2.687151	0	0
27.44768	0.0245477	-0.01667152	-0.3048632	0.5678445	-2.494982	4.905582	0	0
27.46424	0.02275923	-0.01481794	-0.1079524	0.1118826	6.006399	-13.90827	0	0
27.48081	0.01741929	-0.005509403	-0.3223192	0.5618643	-6.469603	13.58047	0	0
27.49751	0.01426219	0.006761	-0.189061	0.7348059	4.005831	5.198738	0	0
27.51472	0.01334131	0.01747067	-0.05349642	0.6221551	3.997463	-3.321792	0	0
27.53129	0.01257828	0.03199183	-0.04605651	0.8764992	0.220239	7.529196	0	0
27.54786	0.01170999	0.04191951	-0.0524103	0.5992361	-0.1917576	-8.367817	0	0
27.56442	0.01031542	0.04781153	-0.08417623	0.355643	-0.9586979	-7.351655	0	0
27.58107	0.005499945	0.06069802	-0.2892973	0.7741756	-6.175991	12.6016	0	0
27.59758	0.002631573	0.06796647	-0.1737152	0.440194	3.485867	-10.07263	0	0
27.61413	-0.001684209	0.07383837	-0.2608615	0.3549189	-2.636301	-2.579697	0	0
27.63069	-0.01034174	0.08023638	-0.5225694	0.3861845	-7.903819	0.9442495	0	0
27.64726	-0.01715621	0.08526324	-0.4113225	0.303422	3.357436	-2.497777	0	0
27.66383	-0.02352198	0.09390404	-0.3842383	0.52156	0.8174028	6.583416	0	0
27.6804	-0.02667788	0.1012082	-0.1904907	0.4408778	5.847314	-2.434991	0	0
27.69696	-0.03070088	0.1108987	-0.2428286	0.5849189	-1.579559	4.347169	0	0
27.71367	-0.03296174	0.1184323	-0.1353596	0.4510468	3.230219	-4.023824	0	0
27.74666	-0.0348543	0.1284717	-0.05735527	0.3042495	1.56951	-2.953681	0	0
27.76323	-0.03987359	0.140366	-0.3029651	0.7179405	-4.955371	8.346542	0	0
27.7798	-0.04546864	0.1442764	-0.3377177	0.2360363	-1.048837	-14.5439	0	0
27.79723	-0.05402632	0.1502732	-0.4909925	0.3440629	-4.508535	3.177574	0	0
27.81293	-0.05851208	0.1533782	-0.285659	0.1977266	6.197335	-4.416694	0	0
27.8295	-0.06509212	0.157969	-0.3971722	0.2771045	-3.455586	2.459773	0	0
27.84626	-0.0712738	0.162357	-0.3687961	0.2617819	0.8513926	-0.4597384	0	0
27.86277	-0.07920239	0.1682811	-0.4801182	0.3587388	-3.345455	2.913755	0	0
27.87928	-0.08286246	0.1743987	-0.2216878	0.3705369	7.825571	0.3572578	0	0
27.89579	-0.0828886	0.1840702	-0.001583078	0.5857958	6.665796	6.519044	0	0
27.91233	-0.07909779	0.1927539	0.2292625	0.5251777	6.985834	-1.834421	0	0
27.92889	-0.07640362	0.1985072	0.1626203	0.3472704	-2.013237	-5.374513	0	0
27.94546	-0.07357746	0.2015714	0.170587	0.1849564	0.2404367	-4.898646	0	0
27.96203	-0.06663803	0.2062735	0.418865	0.2838206	7.493045	2.983727	0	0
27.9786	-0.06152751	0.2098208	0.3084719	0.2141134	-3.331671	-2.103767	0	0
27.99516	-0.05452485	0.214662	0.4227298	0.2922523	3.448509	2.358371	0	0
28.01173	-0.04964339	0.2180799	0.2946455	0.2062991	-3.865813	-2.594221	0	0
28.0283	-0.04612515	0.2204895	0.2123611	0.145446	-2.483349	-1.836551	0	0
28.04486	-0.03848099	0.2257561	0.4614025	0.3178912	7.516085	5.204408	0	0
28.06143	-0.03514342	0.2280379	0.2014563	0.1377324	-7.845191	-5.437203	0	0
28.078	-0.03038538	0.231325	0.2871957	0.1984066	2.58762	1.831149	0	0
28.09456	-0.02862376	0.2325281	0.1063318	0.07262315	-5.458485	-3.796151	0	0
28.11113	-0.0242058	0.2359034	0.2666994	0.2037565	4.840183	3.95784	0	0
28.1277	-0.02207536	0.2388289	0.1285935	0.1765853	-4.168284	-0.8200737	0	0
28.14426	-0.02396909	0.2461482	-0.1143059	0.4417903	-7.330719	8.003901	0	0
28.16083	-0.02812416	0.2503438	-0.2508004	0.2532479	-4.11941	-5.690223	0	0
28.1774	-0.02962291	0.2513656	-0.0904647	0.06167432	4.83894	-5.781701	0	0
28.21053	-0.03427605	0.2545379	-0.1404319	0.09574135	-1.005342	0.6854301	0	0
28.2271	-0.03427605	0.2545379	0	0	2.825495	-1.92632	0	0
28.24367	-0.03424976	0.25452	0.001586605	-0.001082921	0.04788383	-0.03268262	0	0
28.26056	-0.03422347	0.2545021	0.0015565	-0.001060608	-0.0008998684	0.0006669465	0	0
28.2768	-0.03419719	0.2544841	0.001618087	-0.001102574	0.001858823	-0.001266612	0	0
28.29337	-0.0341709	0.2544662	0.001586605	-0.001082921	-0.0009594792	0.0005989698	0	0
28.30993	-0.0341709	0.2544662	0	0	-0.04788383	0.03268262	0	0
28.3265	-0.03414462	0.2544841	0.001586605	0.001082921	0.04788383	0.03268262	0	0
28.36213	-0.03388176	0.2546633	0.007377833	0.00502988	0.1109546	0.07562007	0	0
28.39515	-0.03175248	0.2561148	0.06447715	0.04395197	0.8317308	0.5669543	0	0
28.41171	-0.02404799	0.2612921	0.4654188	0.312752	8.087136	5.421793	0	0
28.42827	-0.0171299	0.2659302	0.4175768	0.2799584	-1.444457	-0.990113	0	0
28.44484	-0.00781563	0.2721955	0.5622107	0.378175	4.365058	2.964184	0	0
28.46141	-0.001157894	0.2765081	0.4018617	0.2603093	-4.839341	-3.557193	0	0
28.47798	0.006447279	0.2813205	0.4590492	0.2904728	1.72592	0.9103352	0	0
28.49454	0.008078772	0.2822863	0.0984771	0.05829963	-10.88209	-7.007	0	0
28.51111	0.01126268	0.2837708	0.1921812	0.0896036	2.827995	0.9447556	0	0
28.52768	0.01139424	0.2836814	0.007941119	-0.005396615	-5.560376	-2.867112	0	0
28.54424	0.01152581	0.283592	0.007941063	-0.005398414	-1.686442E-06	-5.428939E-05	0	0
28.56081	0.01155212	0.2835383	0.001588235	-0.003237969	-0.1917287	0.06520236	0	0
28.57738	0.01157843	0.2834846	0.001588179	-0.003239768	-1.696983E-06	-5.428939E-05	0	0
28.59395	0.01163105	0.2834131	0.00317647	-0.004317292	0.04793473	-0.03251974	0	0
28.61051	0.01165737	0.2833952	0.001588179	-0.001079323	-0.04793473	0.0977221	0	0
28.62708	0.01168368	0.2833058	0.001588235	-0.005398414	1.696983E-06	-0.1303504	0	0
28.64365	0.01168368	0.2832343	0	-0.004317789	-0.04793579	0.0326152	0	0
28.66021	0.01168368	0.2831985	0	-0.002160445	0	0.06511253	0	0
28.67678	0.01165737	0.2830018	-0.001588235	-0.01187435	-0.04793303	-0.2931663	0	0
28.69337	0.01165737	0.2830018	0	0	0.04789443	0.3580801	0	0
28.70992	0.01163105	0.2829839	-0.001590743	-0.001081066	-0.04800871	-0.03262662	0	0
28.72648	0.01163105	0.2829839	0	0	0.04804743	0.03265294	0	0
28.74305	0.01163105	0.2829839	0	0	0	0	0	0
28.75962	0.01163105	0.2829839	0	0	0	0	0	0
28.77618	0.01165737	0.282966	0.001588179	-0.001079323	0.04793134	-0.03257403	0	0
28.79275	0.01168368	0.2829481	0.001588235	-0.001079323	1.696983E-06	0	0	0
28.80932	0.01170999	0.2829302	0.001588179	-0.001081122	-1.696983E-06	-5.42929E-05	0	0
28.82589	0.0117363	0.2829123	0.001588235	-0.001079323	1.696983E-06	5.42929E-05	0	0
28.84248	0.01176262	0.2828944	0.001585623	-0.001077586	-7.876365E-05	5.237453E-05	0	0
28.85902	0.01178893	0.2829123	0.001590983	0.00108119	0.0001617567	0.06515575	0	0
28.87559	0.01178893	0.2829123	0	0	-0.04805745	-0.03265858	0	0
28.89215	0.01178893	0.2829123	0	0	0	0	0	0
28.90872	0.01178893	0.2829123	0	0	0	0	0	0
28.92529	0.01181524	0.2829302	0.001588179	0.001079323	0.04793409	0.03257591	0	0
28.94205	0.01181524	0.2829302	0	0	-0.04764609	-0.03238019	0	0
28.95856	0.01181524	0.2829302	0	0	0	0	0	0
28.97508	0.01181524	0.2829302	0	0	0	0	0	0
28.99155	0.01181524	0.2829302	0	0	0	0	0	0
29.00812	0.01181524	0.2829302	0	0	0	0	0	0
29.02469	0.01181524	0.2829302	0	0	0	0	0	0
29.04125	0.01181524	0.2829302	0	0	0	0	0	0
29.05782	0.01181524	0.2829302	0	0	0	0	0	0
29.07439	0.01181524	0.2829302	0	0	0	0	0	0
29.09096	0.01181524	0.2829302	0	0	0	0	0	0
29.10752	0.01181524	0.2829302	0	0	0	0	0	0
29.12409	0.01181524	0.2829302	0	0	0	0	0	0
29.1407	0.01181524	0.2829302	0	0	0	0	0	0
29.15722	0.01181524	0.2829302	0	0	0	0	0	0
29.17379	0.01181524	0.2829302	0	0	0	0	0	0
29.19036	0.01178893	0.2829123	-0.001588179	-0.001079323	-0.04793134	-0.03257403	0	0
29.20692	0.01178893	0.2829123	0	0	0.04793134	0.03257403	0	0
29.22349	0.01178893	0.2829123	0	0	0	0	0	0
29.25921	0.01181524	0.2828944	0.0007366328	-0.0005006141	0.014089	-0.009574857	0	0
29.27578	0.01181524	0.2828587	0	-0.002158646	-0.01408849	-0.03171073	0	0
29.29234	0.01184155	0.2828408	0.001588179	-0.001079323	0.04793134	0.03257403	0	0
29.30891	0.01186786	0.2827871	0.001588235	-0.003239768	1.696983E-06	-0.06520236	0	0
29.32548	0.01192049	0.2827514	0.003176358	-0.002158646	0.04792964	0.03262833	0	0
29.34204	0.01192049	0.2827156	0	-0.002158646	-0.09586267	0	0	0
29.35861	0.01192049	0.2826798	0	-0.002160445	0	-5.428939E-05	0	0
29.37518	0.0119468	0.2826262	0.001588235	-0.003237969	0.04793303	-0.03251975	0	0
29.39188	0.01202574	0.2825367	0.004727042	-0.005355868	0.09435462	-0.06366544	0	0
29.40839	0.01210467	0.2824831	0.004780554	-0.003248816	0.001611269	0.06344488	0	0
29.4249	0.01213098	0.2824652	0.001593683	-0.001083064	-0.09650771	0.06558527	0	0
29.44145	0.01213098	0.2824652	0	0	-0.04821124	0.03276426	0	0
29.45801	0.01213098	0.2824652	0	0	0	0	0	0
29.47458	0.01213098	0.2824652	0	0	0	0	0	0
29.49145	0.0121573	0.2824473	0.001559806	-0.001061807	0.04665074	-0.03175658	0	0
29.50771	0.01218361	0.2824294	0.001617793	-0.001099449	0.001750164	-0.001136085	0	0
29.52448	0.01218361	0.2823936	0	-0.002133106	-0.04898017	-0.03129491	0	0
29.54085	0.01220992	0.2823758	0.001607425	-0.001092403	0.04851218	0.03140849	0	0
29.55741	0.01223623	0.2823579	0.001588179	-0.001079323	-0.0005843476	0.0003971244	0	0
29.57401	0.01226254	0.28234	0.001585679	-0.001077586	-7.537592E-05	5.237453E-05	0	0
29.59055	0.01231517	0.2822684	0.003181853	-0.004326563	0.04817538	-0.09805995	0	0
29.60711	0.01263091	0.2820538	0.01905809	-0.01295547	0.4795599	-0.2606461	0	0
29.62368	0.01278878	0.2819107	0.009529017	-0.008636383	-0.287588	0.1303504	0	0
29.64055	0.01528828	0.2802472	0.1481249	-0.09858391	4.144423	-2.689694	0	0
29.65681	0.0208917	0.2764365	0.3446507	-0.2343823	5.931503	-4.09864	0	0
29.67338	0.02586265	0.2730545	0.3000475	-0.2041378	-1.358798	0.9213752	0	0
29.68995	0.02662528	0.2725356	0.04603257	-0.03132555	-7.666187	5.215483	0	0
29.70651	0.02665158	0.2725177	0.001587279	-0.001081122	-1.341361	0.9127787	0	0
29.72308	0.02665158	0.2725177	0	0	-0.04790419	0.03262833	0	0
29.73965	0.02665158	0.2725177	0	0	0	0	0	0
29.75621	0.02665158	0.2725177	0	0	0	0	0	0
29.77278	0.02665158	0.2725177	0	0	0	0	0	0
29.78966	0.02665158	0.2725177	0	0	0	0	0	0
29.80592	0.02665158	0.2725177	0	0	0	0	0	0
29.84991	0.02665158	0.2725177	0	0	0	0	0	0
29.86648	0.02665158	0.2725177	0	0	0	0	0	0
29.88305	0.02665158	0.2725177	0	0	0	0	0	0
29.89961	0.02665158	0.2725177	0	0	0	0	0	0
29.93275	0.02665158	0.2725177	0	0	0	0	0	0
29.94931	0.02662528	0.2725356	-0.001587279	0.001081122	-0.03193613	0.02175222	0	0
29.96588	0.02662528	0.2725356	0	0	0.04790419	-0.03262833	0	0
29.98245	0.02662528	0.2725356	0	0	0	0	0	0
30.01558	0.02662528	0.2725356	0	0	0	0	0	0
30.03215	0.02662528	0.2725356	0	0	0	0	0	0
30.04872	0.02662528	0.2725356	0	0	0	0	0	0
30.06536	0.02662528	0.2725356	0	0	0	0	0	0
30.10189	0.02659899	0.2725534	-0.0007199159	0.0004895306	-0.01353911	0.009206363	0	0
30.11845	0.02659899	0.2725534	0	0	0.01356051	-0.009220917	0	0
30.13502	0.02657269	0.2725714	-0.001587279	0.001081122	-0.04791246	0.03263396	0	0
30.15158	0.02654639	0.2725892	-0.001587279	0.001079323	0	-5.42929E-05	0	0
30.16815	0.02654639	0.2725892	0	0	0.04790419	-0.03257403	0	0
30.18472	0.02654639	0.2725892	0	0	0	0	0	0
30.20129	0.02654639	0.2725892	0	0	0	0	0	0
30.21785	0.02654639	0.2725892	0	0	0	0	0	0
30.23442	0.02654639	0.2725892	0	0	0	0	0	0
30.25099	0.02654639	0.2725892	0	0	0	0	0	0
30.26756	0.0265201	0.2726071	-0.001587279	0.001081122	-0.04790419	0.03262833	0	0
30.28412	0.0265201	0.2726071	0	0	0.04790419	-0.03262833	0	0
30.30069	0.0264938	0.272625	-0.001587392	0.001079323	-0.04790758	0.03257403	0	0
30.31726	0.0264938	0.272625	0	0	0.04790758	-0.03257403	0	0
30.33382	0.0264938	0.272625	0	0	0	0	0	0
30.35057	0.0264938	0.272625	0	0	0	0	0	0
30.36695	0.0264938	0.272625	0	0	0	0	0	0
30.38359	0.0264938	0.272625	0	0	0	0	0	0
30.40009	0.0264938	0.272625	0	0	0	0	0	0
30.41665	0.0264938	0.272625	0	0	0	0	0	0
30.43322	0.0264938	0.272625	0	0	0	0	0	0
30.44979	0.0264938	0.272625	0	0	0	0	0	0
30.46635	0.0264938	0.272625	0	0	0	0	0	0
30.48292	0.0264938	0.272625	0	0	0	0	0	0
30.49967	0.0264938	0.272625	0	0	0	0	0	0
30.51606	0.0264938	0.272625	0	0	0	0	0	0
30.5327	0.0264938	0.272625	0	0	0	0	0	0
30.54919	0.0264938	0.272625	0	0	0	0	0	0
30.56576	0.0264938	0.272625	0	0	0	0	0	0
30.59889	0.0264938	0.272625	0	0	0	0	0	0
30.61546	0.0264938	0.272625	0	0	0	0	0	0
30.63227	0.0264938	0.272625	0	0	0	0	0	0
30.64859	0.0264938	0.272625	0	0	0	0	0	0
30.66516	0.0264938	0.272625	0	0	0	0	0	0
30.68173	0.0264938	0.272625	0	0	0	0	0	0
30.69829	0.0264938	0.272625	0	0	0	0	0	0
30.71486	0.0264675	0.2726429	-0.001587279	0.001081122	-0.04790419	0.03262833	0	0
30.73184	0.0264938	0.272625	0.001548417	-0.001054652	0.09346267	-0.06365895	0	0
30.74835	0.0264938	0.272625	0	0	-0.04623102	0.0314887	0	0
30.76456	0.0264938	0.272625	0	0	0	0	0	0
30.84743	0.0265201	0.2726071	0.0003173688	-0.0002157901	0.003203432	-0.002178125	0	0
30.86396	0.0265201	0.2726071	0	0	-0.003192798	0.002170894	0	0
30.88053	0.0265201	0.2725714	0	-0.002160445	0	-0.06526247	0	0
30.8971	0.0265201	0.2725714	0	0	0	0.0651986	0	0
30.91366	0.02636231	0.2723566	-0.009524998	-0.01296596	-0.287465	-0.3913135	0	0
30.93049	0.02588895	0.2719629	-0.02813487	-0.02340119	-0.5573481	-0.3125251	0	0
30.9468	0.02554707	0.2716586	-0.02096166	-0.01865462	0.216488	0.1432518	0	0
30.96337	0.02515259	0.2712469	-0.0238111	-0.02484781	-0.08666988	-0.188375	0	0
30.98002	0.0241795	0.2703699	-0.05841306	-0.05264806	-1.041412	-0.8367011	0	0
30.9965	0.0241795	0.2676848	0	-0.1629754	1.76291	-3.329685	0	0
31.01307	0.03004359	0.2637635	0.3539572	-0.2366848	10.71205	-2.230717	0	0
31.03214	0.04221175	0.2554697	0.6381537	-0.4349649	7.975206	-5.564197	0	0
31.04907	0.04470703	0.2537673	0.1473416	-0.1005251	-13.63249	9.28919	0	0
31.06527	0.05827605	0.2444623	0.8376393	-0.5744133	20.83323	-14.30197	0	0
31.08184	0.06755494	0.2381111	0.5600753	-0.3833612	-8.471007	5.830744	0	0
31.09861	0.07726692	0.2314507	0.5791482	-0.3971775	0.57213	-0.4144487	0	0
31.11497	0.08834836	0.2238691	0.6772196	-0.4633325	2.959971	-1.996678	0	0
31.13154	0.0945071	0.2196624	0.3717422	-0.253917	-9.276463	6.359342	0	0
31.1481	0.09857421	0.2170367	0.2454916	-0.1584887	-3.810253	2.880033	0	0
31.16516	0.09844391	0.2172345	-0.007640801	0.0116021	-7.529033	5.059089	0	0
31.18124	0.09787052	0.2178461	-0.03565663	0.03802837	-0.8455195	0.7975464	0	0
31.19781	0.09753167	0.2181518	-0.02045317	0.01845462	0.465677	-0.5995373	0	0
31.21437	0.09648892	0.2192308	-0.06294072	0.06512905	-1.282277	1.408637	0	0
31.23094	0.09137641	0.2227906	-0.3085915	0.2148716	-7.413756	4.51924	0	0
31.24751	0.08330674	0.2284152	-0.4870859	0.3394984	-5.386971	3.761242	0	0
31.26407	0.07056684	0.2373394	-0.7689822	0.5386649	-8.507647	6.010859	0	0
31.28064	0.06362453	0.2423098	-0.4190386	0.3000158	10.56132	-7.202444	0	0
31.29721	0.04544238	0.2548425	-1.09735	0.7563915	-20.47031	13.77265	0	0
31.31378	0.03816567	0.2598054	-0.4392737	0.2995916	19.8608	-13.78625	0	0
31.33034	0.02772973	0.2669507	-0.6299869	0.4313436	-5.756401	3.97674	0	0
31.34691	0.01468316	0.2759714	-0.787493	0.5444861	-4.753816	3.414845	0	0
31.36348	0.005394685	0.2823579	-0.5606532	0.385491	6.846038	-4.798481	0	0
31.38004	-0.005657834	0.2898685	-0.6671314	0.4533427	-3.213517	2.047767	0	0
31.39661	-0.01360442	0.2952673	-0.4797123	0.3259103	5.656643	-3.846137	0	0
31.41318	-0.01907663	0.2989849	-0.3302651	0.2243708	4.510325	-3.064468	0	0
31.42974	-0.02957033	0.3061506	-0.6335465	0.4326185	-9.153576	6.28529	0	0
31.44636	-0.04037279	0.3134932	-0.650092	0.4418761	-0.4986563	0.2790099	0	0
31.47944	-0.06294306	0.3288531	-0.6822326	0.4642855	-0.646694	0.4508937	0	0
31.49601	-0.07797317	0.3391033	-0.9072192	0.618704	-4.531435	3.110129	0	0
31.51258	-0.08597177	0.3445676	-0.4826854	0.3297508	12.81098	-8.71962	0	0
31.52942	-0.09846997	0.3530858	-0.7421738	0.505833	-7.766551	5.270183	0	0
31.54593	-0.1107554	0.36148	-0.7441217	0.5084298	-0.05840721	0.07786495	0	0
31.56227	-0.1256244	0.3717159	-0.9096435	0.6262015	-5.037797	3.584482	0	0
31.57895	-0.1323792	0.3763794	-0.4050117	0.2796221	15.28084	-10.49483	0	0
31.59546	-0.1466501	0.3862273	-0.8643814	0.5964811	-13.8415	9.547437	0	0
31.61198	-0.152414	0.3901963	-0.3490341	0.2403449	15.60531	-10.78422	0	0
31.62854	-0.1557802	0.3925388	-0.2032051	0.1414076	4.408489	-2.990927	0	0
31.6455	-0.1561654	0.392807	-0.02271521	0.01581656	5.38397	-3.746351	0	0
31.66167	-0.1561654	0.392807	0	0	0.6855859	-0.4773721	0	0
31.67824	-0.1561654	0.392807	0	0	0	0	0	0
31.69481	-0.1561654	0.392807	0	0	0	0	0	0
31.71155	-0.1562424	0.3928607	-0.004602396	0.003204763	-0.1381926	0.09622695	0	0
31.77764	-0.1722241	0.4040589	-0.2418051	0.1694311	-2.863649	2.00678	0	0
31.79421	-0.1774811	0.4077457	-0.317312	0.2225366	-0.9134555	0.6424525	0	0
31.81111	-0.1819901	0.4108785	-0.2667003	0.1852966	1.511972	-1.112508	0	0
31.82734	-0.1849157	0.4129734	-0.1803046	0.1291069	2.607576	-1.695905	0	0
31.84414	-0.1874571	0.4147641	-0.1513093	0.1066176	0.8780631	-0.6810403	0	0
31.86047	-0.192203	0.4181493	-0.2905055	0.2072169	-4.201191	3.036266	0	0
31.87716	-0.1960794	0.4209263	-0.232298	0.1664101	1.762591	-1.235677	0	0
31.89367	-0.2013651	0.4246717	-0.3200364	0.2267781	-2.642475	1.818143	0	0
31.91018	-0.2028299	0.4257113	-0.08872368	0.06296933	7.004013	-4.960034	0	0
31.92674	-0.2039658	0.426518	-0.06860959	0.04872372	0.6083052	-0.4308261	0	0
31.96301	-0.2039658	0.426518	0	0	1.29888	-0.9224114	0	0
31.97957	-0.2039658	0.426518	0	0	0	0	0	0
31.99625	-0.2039405	0.4265001	0.001513884	-0.001074196	0.04554231	-0.03231514	0	0
32.01276	-0.2039153	0.4264821	0.001528199	-0.0010868	0.0004314035	-0.0003798164	0	0
32.02927	-0.2039153	0.4264463	0	-0.00217054	-0.04627297	-0.03281502	0	0
32.04584	-0.2038648	0.4264104	0.003046389	-0.002164043	0.09207802	0.000196378	0	0
32.06241	-0.2038396	0.4263925	0.001523644	-0.001081122	-0.04595653	0.03268262	0	0
32.07898	-0.2038143	0.4263746	0.001523644	-0.001082921	0	-5.428939E-05	0	0
32.09554	-0.2038143	0.4263746	0	0	-0.04598368	0.03268262	0	0
32.11234	-0.2037891	0.4263566	0.001501994	-0.001066389	0.0450193	-0.03196291	0	0
32.12868	-0.2037891	0.4263566	0	0	-0.04533028	0.0321837	0	0
32.14524	-0.2037639	0.4263387	0.001523995	-0.00108317	0.04631956	-0.03292134	0	0
32.16237	-0.2037386	0.4262849	0.001473433	-0.003138221	-0.001500578	-0.06098938	0	0
32.17838	-0.2037134	0.426267	0.001577023	-0.001120859	0.003125984	0.06087708	0	0
32.19494	-0.2036882	0.4262132	0.001523096	-0.003245912	-0.001655734	-0.06524594	0	0
32.21151	-0.2036377	0.4261774	0.003047289	-0.002164043	0.04600553	0.03265464	0	0
32.22808	-0.2036124	0.4261236	0.001523644	-0.003246963	-0.04598368	-0.03268261	0	0
32.26144	-0.2032591	0.4258009	0.01059311	-0.009672492	0.1816553	-0.1286991	0	0
32.27777	-0.2030319	0.4256037	0.01390906	-0.01207088	0.06672734	-0.04826304	0	0
32.29434	-0.2029561	0.42555	0.004571833	-0.003245165	-0.2837911	0.2682444	0	0
32.31097	-0.2028299	0.4254603	0.007591155	-0.005391145	0.09095578	-0.06464672	0	0
32.32748	-0.2027289	0.4253887	0.006117505	-0.004341281	-0.04446972	0.03168131	0	0
32.34404	-0.2027036	0.4253707	0.001524346	-0.00108342	-0.1388936	0.09851525	0	0
32.3606	-0.2026026	0.425299	0.006096377	-0.004328086	0.1380159	-0.09794676	0	0
32.37751	-0.2024511	0.4251915	0.008961812	-0.006359995	0.0856019	-0.06070119	0	0
32.39402	-0.2022996	0.4250839	0.00917716	-0.006514628	0.006444337	-0.004627413	0	0
32.41053	-0.2019713	0.4248509	0.01988136	-0.01411087	0.3241356	-0.2300229	0	0
32.42687	-0.201744	0.4246896	0.01391636	-0.009874183	-0.1815921	0.128977	0	0
32.44344	-0.2016682	0.4246358	0.004574531	-0.003246963	-0.2839309	0.2014244	0	0
32.46	-0.2016177	0.4246	0.003049088	-0.002164043	-0.04603796	0.03268261	0	0
32.47658	-0.2015672	0.4245642	0.003046983	-0.002160751	-6.350072E-05	9.930418E-05	0	0
32.49314	-0.2015672	0.4245642	0	0	-0.09195813	0.0652116	0	0
32.5097	-0.2015166	0.4245283	0.003049987	-0.002164043	0.0920806	-0.06533351	0	0
32.52627	-0.2014661	0.4244566	0.003049088	-0.004328086	-2.714469E-05	-0.06531094	0	0
32.54284	-0.2013903	0.424367	0.004574531	-0.005409207	0.04603796	-0.03262832	0	0
32.60911	-0.2002785	0.4231125	0.0167774	-0.01893088	0.1473134	-0.1632339	0	0
32.65881	-0.1796474	0.4081574	0.4150989	-0.3008955	3.434677	-2.431345	0	0
32.67538	-0.1741392	0.40422	0.3324738	-0.2376651	-1.246816	0.9541479	0	0
32.69194	-0.1634754	0.3967595	0.6436705	-0.4503134	9.391935	-6.417736	0	0
32.70851	-0.1560626	0.391591	0.4474334	-0.3119711	-5.922448	4.175177	0	0
32.72508	-0.1465213	0.3849224	0.5759151	-0.4025227	3.877586	-2.732853	0	0
32.74165	-0.1388895	0.3794888	0.4606605	-0.3279685	-3.478391	2.250051	0	0
32.75821	-0.1275925	0.3713228	0.6818839	-0.4928999	6.676537	-4.977638	0	0
32.77478	-0.11795	0.3646059	0.5820272	-0.4054369	-3.013682	2.639637	0	0
32.79135	-0.1110154	0.3598011	0.4185732	-0.2900177	-4.933052	3.483359	0	0
32.80791	-0.09654105	0.3497642	0.8736706	-0.6058276	13.73487	-9.531163	0	0
32.82484	-0.08516194	0.3419069	0.6722936	-0.4642196	-6.012504	4.227984	0	0
32.84105	-0.0696765	0.3312996	0.9553815	-0.6544206	8.54361	-5.740277	0	0
32.88	-0.03808684	0.3097953	0.8109127	-0.5520214	-2.618881	1.856257	0	0
32.89657	-0.02686196	0.3021659	0.6775349	-0.4605076	-2.40221	1.648217	0	0
32.91314	-0.01657743	0.2951779	0.6207755	-0.4217958	-1.713004	1.168322	0	0
32.92971	-0.004789437	0.2871686	0.7115245	-0.483445	2.738813	-1.860575	0	0
32.94627	0.000368421	0.2836635	0.3113289	-0.2115671	-12.07793	8.205291	0	0
32.96284	0.009026071	0.2777784	0.5225768	-0.355225	6.375473	-4.335604	0	0
32.97945	0.01502519	0.2737346	0.3611095	-0.2434127	-4.86637	3.369845	0	0
32.99598	0.02197015	0.2690095	0.4203603	-0.2859977	1.788194	-1.285218	0	0
33.01254	0.02638861	0.2660018	0.2666988	-0.1815439	-4.643929	3.156784	0	0
33.02911	0.03106895	0.2628144	0.2825057	-0.1923929	0.4770536	-0.3274235	0	0
33.04568	0.03424976	0.2606473	0.1919942	-0.1308086	-2.731642	1.85862	0	0
33.06224	0.03619471	0.2593217	0.1173975	-0.08001022	-2.251334	1.533097	0	0
33.07903	0.03614215	0.2593576	-0.00313237	0.002136494	-3.614297	2.463311	0	0
33.12603	0.03616843	0.2593396	0.0005591793	-0.0003817162	0.05787785	-0.03948168	0	0
33.14259	0.03616843	0.2593396	0	0	-0.008796538	0.006004837	0	0
33.15916	0.03616843	0.2593396	0	0	0	0	0	0
33.17573	0.03616843	0.2593396	0	0	0	0	0	0
33.1923	0.03616843	0.2593396	0	0	0	0	0	0
33.20886	0.03616843	0.2593396	0	0	0	0	0	0
33.22543	0.03616843	0.2593396	0	0	0	0	0	0
33.24214	0.03616843	0.2593396	0	0	0	0	0	0
33.25866	0.03616843	0.2593396	0	0	0	0	0	0
33.27513	0.03616843	0.2593396	0	0	0	0	0	0
33.2917	0.03616843	0.2593396	0	0	0	0	0	0
33.30827	0.03616843	0.2593396	0	0	0	0	0	0
33.32483	0.03616843	0.2593396	0	0	0	0	0	0
33.3414	0.03616843	0.2593396	0	0	0	0	0	0
33.35797	0.03616843	0.2593396	0	0	0	0	0	0
33.37474	0.03616843	0.2593396	0	0	0	0	0	0
33.39125	0.03616843	0.2593396	0	0	0	0	0	0
33.49051	0.03616843	0.2593396	0	0	0	0	0	0
33.50707	0.03616843	0.2593396	0	0	0	0	0	0
33.52364	0.03614215	0.2593576	-0.00158638	0.001082921	-0.04787704	0.03268262	0	0
33.54037	0.03614215	0.2593576	0	0	0.04764666	-0.03252534	0	0
33.55687	0.03614215	0.2593576	0	0	0	0	0	0
33.57338	0.03614215	0.2593576	0	0	0	0	0	0
33.5899	0.03614215	0.2593576	0	0	0	0	0	0
33.60647	0.03614215	0.2593576	0	0	0	0	0	0
33.62304	0.03614215	0.2593576	0	0	0	0	0	0
33.63961	0.03614215	0.2593576	0	0	0	0	0	0
33.65617	0.03614215	0.2593576	0	0	0	0	0	0
33.67295	0.03614215	0.2593576	0	0	0	0	0	0
33.6893	0.03614215	0.2593576	0	0	0	0	0	0
33.70587	0.03611587	0.2593755	-0.001586155	0.001081122	-0.04818647	0.03284386	0	0
33.72249	0.03614215	0.2593576	0.001581421	-0.001077895	0.09545479	-0.0650619	0	0
33.73901	0.03614215	0.2593576	0	0	-0.04772739	0.03253095	0	0
33.75557	0.03614215	0.2593576	0	0	0	0	0	0
33.77214	0.03614215	0.2593576	0	0	0	0	0	0
33.79203	0.03614215	0.2593576	0	0	0	0	0	0
33.8086	0.03614215	0.2593576	0	0	0	0	0	0
33.82517	0.03611587	0.2593396	-0.001586155	-0.001082921	-0.04787026	-0.03268262	0	0
33.84174	0.03611587	0.2593396	0	0	0.04787026	0.03268262	0	0
33.8583	0.03614215	0.2593576	0.001586155	0.001082921	0.04787026	0.03268262	0	0
33.87487	0.03614215	0.2593576	0	0	-0.04787026	-0.03268262	0	0
33.89144	0.03614215	0.2593576	0	0	0	0	0	0
33.908	0.03611587	0.2593755	-0.001586155	0.001081122	-0.04787026	0.03262833	0	0
33.92464	0.03608959	0.2593576	-0.001579832	-0.00107666	0.0001904298	-0.06498731	0	0
33.94114	0.03608959	0.2593576	0	0	0.04767943	0.03249365	0	0
33.95771	0.03608959	0.2593576	0	0	0	0	0	0
33.97427	0.03611587	0.2593396	0.00158638	-0.001082921	0.04787704	-0.03268262	0	0
33.99084	0.03611587	0.2593396	0	0	-0.04787704	0.03268262	0	0
34.00741	0.03611587	0.2593396	0	0	0	0	0	0
34.02421	0.03611587	0.2593396	0	0	0	0	0	0
34.04054	0.03611587	0.2593396	0	0	0	0	0	0
34.05723	0.03611587	0.2593396	0	0	0	0	0	0
34.07367	0.03611587	0.2593396	0	0	0	0	0	0
34.09024	0.03611587	0.2593396	0	0	0	0	0	0
34.1068	0.03611587	0.2593396	0	0	0	0	0	0
34.12378	0.03611587	0.2593396	0	0	0	0	0	0
34.13994	0.03611587	0.2593396	0	0	0	0	0	0
34.15651	0.03611587	0.2593396	0	0	0	0	0	0
34.23934	0.03611587	0.2593396	0	0	0	0	0	0
34.25591	0.03611587	0.2593396	0	0	0	0	0	0
34.27248	0.03611587	0.2593396	0	0	0	0	0	0
34.28904	0.03611587	0.2593396	0	0	0	0	0	0
34.30561	0.03611587	0.2593396	0	0	0	0	0	0
34.32218	0.03611587	0.2593396	0	0	0	0	0	0
34.33875	0.03611587	0.2593396	0	0	0	0	0	0
34.35531	0.03611587	0.2593396	0	0	0	0	0	0
34.37188	0.03611587	0.2593396	0	0	0	0	0	0
34.38847	0.03611587	0.2593396	0	0	0	0	0	0
34.40501	0.03611587	0.2593396	0	0	0	0	0	0
34.42158	0.03611587	0.2593396	0	0	0	0	0	0
34.43815	0.03611587	0.2593396	0	0	0	0	0	0
34.45472	0.03611587	0.2593396	0	0	0	0	0	0
34.47153	0.03611587	0.2593396	0	0	0	0	0	0
34.48785	0.03614215	0.2593217	0.001611008	-0.001098062	0.04862593	-0.03314339	0	0
34.50441	0.03611587	0.2593038	-0.001586155	-0.001081122	-0.09724066	0.0005152227	0	0
34.52107	0.03611587	0.2593038	0	0	0.04774383	0.03254216	0	0
34.53758	0.03611587	0.2593038	0	0	0	0	0	0
34.55411	0.03608959	0.2592859	-0.001589674	-0.001083367	-0.04810939	-0.03278667	0	0
34.57068	0.03608959	0.2592859	0	0	0.04802623	0.03272999	0	0
34.58725	0.03608959	0.2592859	0	0	0	0	0	0
34.60381	0.03608959	0.2592859	0	0	0	0	0	0
34.63695	0.03608959	0.2592859	0	0	0	0	0	0
34.65351	0.03608959	0.2592859	0	0	0	0	0	0
34.67008	0.03608959	0.2592859	0	0	0	0	0	0
34.68669	0.03608959	0.2592859	0	0	0	0	0	0
34.7037	0.03608959	0.2592859	0	0	0	0	0	0
34.72336	0.03608959	0.2592859	0	0	0	0	0	0
34.73993	0.03608959	0.2592859	0	0	0	0	0	0
34.7565	0.03608959	0.2592859	0	0	0	0	0	0
34.77325	0.03608959	0.2592859	0	0	0	0	0	0
34.78976	0.03608959	0.2592859	0	0	0	0	0	0
34.80627	0.03608959	0.2592859	0	0	0	0	0	0
34.82278	0.03608959	0.2592859	0	0	0	0	0	0
34.83933	0.03608959	0.2592859	0	0	0	0	0	0
34.8559	0.03608959	0.2592859	0	0	0	0	0	0
34.87246	0.03608959	0.2592859	0	0	0	0	0	0
34.88903	0.03608959	0.2592859	0	0	0	0	0	0
34.97189	0.03608959	0.2592859	0	0	0	0	0	0
34.98843	0.03608959	0.2592859	0	0	0	0	0	0
35.005	0.03608959	0.2592859	0	0	0	0	0	0
35.02156	0.03608959	0.2592859	0	0	0	0	0	0
35.03813	0.03608959	0.2592859	0	0	0	0	0	0
35.05495	0.03608959	0.2592859	0	0	0	0	0	0
35.07146	0.03608959	0.2592859	0	0	0	0	0	0
35.08783	0.03608959	0.2592859	0	0	0	0	0	0
35.10449	0.03608959	0.2592859	0	0	0	0	0	0
35.121	0.03608959	0.2592859	0	0	0	0	0	0
35.13753	0.03608959	0.2592859	0	0	0	0	0	0
35.1541	0.03608959	0.2592859	0	0	0	0	0	0
35.18755	0.03608959	0.2592859	0	0	0	0	0	0
35.20406	0.03608959	0.2592859	0	0	0	0	0	0
35.22037	0.03608959	0.2592859	0	0	0	0	0	0
35.23708	0.03606331	0.259268	-0.001572261	-0.0010715	-0.04760989	-0.03244626	0	0
35.2535	0.03606331	0.259268	0	0	0.04745094	0.03233793	0	0
35.30809	0.03606331	0.259268	0	0	0	0	0	0
35.32466	0.03606331	0.259268	0	0	0	0	0	0
35.34123	0.03606331	0.259268	0	0	0	0	0	0
35.3578	0.03606331	0.259268	0	0	0	0	0	0
35.37436	0.03606331	0.259268	0	0	0	0	0	0
35.39093	0.03606331	0.259268	0	0	0	0	0	0
35.4075	0.03606331	0.259268	0	0	0	0	0	0
35.42406	0.03606331	0.259268	0	0	0	0	0	0
35.44063	0.03606331	0.259268	0	0	0	0	0	0
35.4572	0.03606331	0.259268	0	0	0	0	0	0
35.47377	0.03606331	0.259268	0	0	0	0	0	0
35.49033	0.03606331	0.259268	0	0	0	0	0	0
35.5069	0.03606331	0.259268	0	0	0	0	0	0
35.52347	0.03606331	0.259268	0	0	0	0	0	0
35.54004	0.03606331	0.259268	0	0	0	0	0	0
35.5566	0.03606331	0.259268	0	0	0	0	0	0
35.57317	0.03606331	0.259268	0	0	0	0	0	0
35.6063	0.03606331	0.259268	0	0	0	0	0	0
35.62287	0.03606331	0.259268	0	0	0	0	0	0
35.63944	0.03606331	0.259268	0	0	0	0	0	0
35.65601	0.03606331	0.259268	0	0	0	0	0	0
35.67257	0.03606331	0.259268	0	0	0	0	0	0
35.68914	0.03606331	0.259268	0	0	0	0	0	0
35.72227	0.03606331	0.259268	0	0	0	0	0	0
35.73884	0.03606331	0.259268	0	0	0	0	0	0
35.75541	0.03606331	0.259268	0	0	0	0	0	0
35.77198	0.03606331	0.259268	0	0	0	0	0	0
35.79137	0.03606331	0.259268	0	0	0	0	0	0
35.80793	0.03606331	0.259268	0	0	0	0	0	0
35.8245	0.03606331	0.259268	0	0	0	0	0	0
35.84107	0.03606331	0.259268	0	0	0	0	0	0
35.85804	0.03606331	0.259268	0	0	0	0	0	0
35.87455	0.03606331	0.259268	0	0	0	0	0	0
35.89077	0.03606331	0.259268	0	0	0	0	0	0
35.90733	0.03606331	0.259268	0	0	0	0	0	0
35.9239	0.03606331	0.259268	0	0	0	0	0	0
35.94047	0.03606331	0.259268	0	0	0	0	0	0
35.95704	0.03606331	0.259268	0	0	0	0	0	0
35.9736	0.03606331	0.259268	0	0	0	0	0	0
35.99017	0.03606331	0.259268	0	0	0	0	0	0
36.00674	0.03606331	0.259268	0	0	0	0	0	0
36.0233	0.03606331	0.259268	0	0	0	0	0	0
36.07301	0.03606331	0.259268	0	0	0	0	0	0
36.08957	0.03606331	0.259268	0	0	0	0	0	0
36.10622	0.03606331	0.259268	0	0	0	0	0	0
36.12273	0.03606331	0.259268	0	0	0	0	0	0
36.13927	0.03606331	0.259268	0	0	0	0	0	0
36.15584	0.03606331	0.259268	0	0	0	0	0	0
36.17241	0.03606331	0.259268	0	0	0	0	0	0
36.18898	0.03606331	0.259268	0	0	0	0	0	0
36.20579	0.03606331	0.259268	0	0	0	0	0	0
36.22211	0.03606331	0.259268	0	0	0	0	0	0
36.23868	0.03606331	0.259268	0	0	0	0	0	0
36.25533	0.03606331	0.259268	0	0	0	0	0	0
36.27184	0.03606331	0.259268	0	0	0	0	0	0
36.28838	0.03606331	0.259268	0	0	0	0	0	0
36.30495	0.03603702	0.2592859	-0.00158638	0.001081122	-0.04792118	0.03265841	0	0
36.32151	0.03598446	0.2593217	-0.00317276	0.002162244	-0.04787704	0.03262833	0	0
36.33839	0.03580049	0.2595188	-0.01090134	0.01167637	-0.231094	0.2844839	0	0
36.3549	0.03545881	0.2598233	-0.02069009	0.01844032	-0.2931635	0.2025738	0	0
36.37122	0.0343549	0.2608622	-0.06767651	0.06369124	-1.431402	1.378531	0	0
36.38778	0.03230455	0.2624383	-0.1237595	0.09513513	-1.705744	0.9563553	0	0
36.40435	0.02696715	0.2666822	-0.3221662	0.2561593	-5.987929	4.85972	0	0
36.42095	0.01181524	0.2777784	-0.9126795	0.6683852	-17.80328	12.42812	0	0
36.43748	0.004631546	0.2828408	-0.434509	0.3061999	14.43121	-10.93077	0	0
36.45405	-0.01544614	0.2978411	-1.211891	0.9054207	-23.48578	18.10328	0	0
36.47062	-0.02741418	0.3090449	-0.7223925	0.6762642	14.77311	-6.915956	0	0
36.48719	-0.04116095	0.324567	-0.8297564	0.9369153	-3.24025	7.866466	0	0
36.50375	-0.04386658	0.3285138	-0.1633122	0.2382282	20.11333	-21.08642	0	0
36.52032	-0.05090336	0.3401212	-0.4247408	0.7006228	-7.889933	13.9551	0	0
36.53689	-0.05696462	0.3548182	-0.3658586	0.8871118	1.777069	5.628249	0	0
36.55355	-0.06254987	0.3666601	-0.3352738	0.7108534	0.920508	-5.304831	0	0
36.57006	-0.06579961	0.3747712	-0.1968342	0.4912831	4.17379	-6.619784	0	0
36.58659	-0.07020024	0.3844218	-0.2662358	0.5838568	-2.100589	2.801944	0	0
36.60315	-0.07378685	0.3913407	-0.2164879	0.4176243	1.503124	-5.022691	0	0
36.61972	-0.0777116	0.4009634	-0.2368988	0.5808287	-0.616002	4.92552	0	0
36.63629	-0.08090198	0.4094821	-0.1925715	0.5141877	1.337802	-2.01123	0	0
36.65285	-0.08513582	0.4239548	-0.2555549	0.8735717	-1.900844	10.84623	0	0
36.66963	-0.0870949	0.4316103	-0.1167714	0.4563118	4.16214	-12.51369	0	0
36.68967	-0.09069785	0.4493106	-0.1798005	0.8833078	-1.712021	11.59822	0	0
36.70624	-0.09268108	0.4574725	-0.1197082	0.492657	1.641606	-10.67182	0	0
36.72281	-0.09375069	0.4619885	-0.06456151	0.2725866	1.664329	-6.641737	0	0
36.73968	-0.09919964	0.4701098	-0.3228775	0.4812246	-7.723964	6.238529	0	0
36.75619	-0.1006847	0.4769056	-0.08994935	0.4116184	6.976774	-2.084877	0	0
36.7727	-0.1019089	0.4815061	-0.0741488	0.2786489	0.478514	-4.026937	0	0
36.78922	-0.1027162	0.4913135	-0.04888497	0.5938926	0.7650181	9.545945	0	0
36.80573	-0.1025599	0.4983312	0.009463269	0.4250538	1.766852	-5.112634	0	0
36.8222	-0.1014922	0.5052306	0.06480812	0.4187638	1.677844	-0.1906902	0	0
36.83877	-0.1012578	0.5063723	0.01414903	0.06891118	-1.533131	-10.58783	0	0
36.85534	-0.1013359	0.5065354	-0.004716192	0.009843426	-0.5693534	-1.782668	0	0
36.8719	-0.1017266	0.5069522	-0.02358186	0.02516262	-0.569367	0.4623342	0	0
36.88847	-0.1020652	0.5075142	-0.02043563	0.03391952	0.09495328	0.264284	0	0
36.90504	-0.1020131	0.5075504	0.003143978	0.002187428	0.711634	-0.9576766	0	0
36.9216	-0.101961	0.5075504	0.003143528	0	-1.356883E-05	-0.06601671	0	0
36.93817	-0.1018568	0.5074417	0.006287956	-0.006562284	0.09489901	-0.1980501	0	0
36.95483	-0.1018047	0.5074054	0.003125984	-0.002178486	-0.09515464	0.1319236	0	0
36.97134	-0.1014401	0.5071517	0.02208547	-0.01536867	0.5715405	-0.3976229	0	0
36.98787	-0.101388	0.5071154	0.003152412	-0.002196589	-0.5731165	0.3987278	0	0
37.00444	-0.101362	0.5070972	0.001572214	-0.001093714	-0.04775095	0.03332705	0	0
37.021	-0.1007889	0.5067347	0.0345896	-0.02188148	0.9964668	-0.6273759	0	0
37.05441	-0.09205488	0.50197	0.2614859	-0.1426504	4.540766	-2.41689	0	0
37.07071	-0.08105884	0.4994895	0.6745956	-0.1521728	8.311784	-0.1915912	0	0
37.08743	-0.06551138	0.5003947	0.9296697	0.05412437	7.723939	6.246918	0	0
37.10394	-0.0465453	0.5023322	1.148762	0.11735	6.5925	1.902457	0	0
37.1204	-0.03664149	0.5046327	0.6015353	0.1397272	-16.59559	0.6786271	0	0
37.13697	-0.0264938	0.5076411	0.6125156	0.1815889	0.3324197	1.267329	0	0
37.15397	-0.0246792	0.5083119	0.106728	0.03945339	-15.06695	-4.234088	0	0
37.1701	-0.0189188	0.5101433	0.3571559	0.1135547	7.558801	2.23664	0	0
37.20324	-0.01841897	0.5099801	0.01508478	-0.00492711	-6.943774	-2.405087	0	0
37.2198	-0.01823482	0.5098531	0.01111523	-0.007663194	-0.07986745	-0.05505011	0	0
37.23653	-0.01802436	0.509708	0.01258151	-0.008673033	0.04403952	-0.03033035	0	0
37.25304	-0.01757714	0.5093998	0.02708821	-0.01867202	0.4364565	-0.3008349	0	0
37.2695	-0.01481471	0.5074961	0.1678227	-0.115654	4.268507	-2.941483	0	0
37.28607	-0.006894628	0.5020062	0.4780568	-0.3313702	9.393165	-6.531383	0	0
37.30264	-0.0008947366	0.4978788	0.3621542	-0.2491311	-3.49795	2.481979	0	0
37.3192	0.004078925	0.4944596	0.3002108	-0.206381	-1.869455	1.290203	0	0
37.35234	0.009762848	0.4905544	0.1715411	-0.1178585	-2.588838	1.781076	0	0
37.3689	0.01031542	0.4901749	0.03335356	-0.02290863	-2.78034	1.910395	0	0
37.38547	0.01036805	0.4901387	0.00317647	-0.002182032	-0.9107463	0.6255301	0	0
37.40204	0.01097324	0.4897231	0.03652963	-0.02508886	1.0066	-0.6913296	0	0
37.41867	0.01160474	0.4892894	0.03797739	-0.0260811	0.04361313	-0.02989059	0	0
37.43517	0.01523566	0.4867963	0.2199732	-0.1510429	5.492645	-3.771353	0	0
37.45174	0.01886618	0.4843041	0.2191386	-0.1504271	-0.02523564	0.01861934	0	0
37.4687	0.02147038	0.4825169	0.1535483	-0.1053791	-1.956321	1.343616	0	0
37.48521	0.02218057	0.4820295	0.04301557	-0.0295171	-3.302427	2.266558	0	0
