Time	Pos X	Pos Y	Vel X	Vel Y	Acc X	Acc YForce X	Force Y
0.01645976	0.03974222	0.1885127	-0.0006366411	-0.003019834	1.020122E-05	4.838832E-05	0	0
0.04461259	0.03974222	0.1885127	0	0	-1.020312E-05	-4.839735E-05	0	0
0.0611805	0.03974222	0.1885127	0	0	0	0	0	0
0.07774724	0.03971595	0.1884946	-0.001585977	-0.001089249	-0.04786461	-0.03287341	0	0
0.09431358	0.03968967	0.1884765	-0.001586016	-0.001090175	-1.162991E-06	-2.794692E-05	0	0
0.1108807	0.0396634	0.1884585	-0.00158594	-0.001090123	2.283793E-06	1.570547E-06	0	0
0.1275903	0.03958457	0.1884043	-0.004717242	-0.003240693	-0.09409873	-0.06462678	0	0
0.144101	0.03950575	0.1883502	-0.004774087	-0.003280647	-0.001711142	-0.001202697	0	0
0.1605801	0.03942693	0.188296	-0.004783234	-0.003286029	-0.0002772813	-0.0001631378	0	0
0.177148	0.03940065	0.188278	-0.001585865	-0.001090071	0.09675212	0.0664495	0	0
0.1941391	0.03937438	0.1882599	-0.001546367	-0.001062922	0.001176953	0.0008089993	0	0
0.2102823	0.0393481	0.1882419	-0.001627592	-0.00111783	-0.002451379	-0.001657137	0	0
0.2268486	0.0393481	0.1882419	0	0	0.049759	0.03417448	0	0
0.2434154	0.03932182	0.1882238	-0.001586202	-0.001090149	-0.04787368	-0.03290213	0	0
0.2634007	0.03932182	0.1882238	0	0	0.04339569	0.02982454	0	0
0.2799706	0.03932182	0.1882238	0	0	0	0	0	0
0.2965413	0.03932182	0.1882238	0	0	0	0	0	0
0.3132233	0.03932182	0.1882238	0	0	0	0	0	0
0.3296692	0.03932182	0.1882238	0	0	0	0	0	0
0.3462454	0.03929555	0.1882057	-0.001585072	-0.001088627	-0.04800029	-0.0329666	0	0
0.3628031	0.03932182	0.1881877	0.001586847	-0.001090746	0.09573042	-6.394542E-05	0	0
0.3793698	0.03929555	0.1881696	-0.001585979	-0.00108925	-0.09578519	4.51612E-05	0	0
0.4787678	0.03905907	0.1880071	-0.002379099	-0.001634813	-0.006839321	-0.004704557	0	0
0.4953547	0.03879631	0.1878266	-0.01584142	-0.01088466	-0.1160696	-0.07975047	0	0
0.5119017	0.03813939	0.1873752	-0.03970035	-0.02727903	-0.7200767	-0.494792	0	0
0.528875	0.03698313	0.1865807	-0.0681224	-0.04680965	-0.8479055	-0.5826503	0	0
0.5450347	0.03664149	0.1863459	-0.02114163	-0.01452705	1.417944	0.974333	0	0
0.5618955	0.03664149	0.1863459	0	0	0.6402566	0.4399395	0	0
0.5781682	0.03664149	0.1863459	0	0	0	0	0	0
0.5949209	0.03664149	0.1863459	0	0	0	0	0	0
0.6113013	0.03664149	0.1863459	0	0	0	0	0	0
0.6278692	0.03664149	0.1863459	0	0	0	0	0	0
0.6444348	0.03664149	0.1863459	0	0	0	0	0	0
0.6775683	0.03664149	0.1863459	0	0	0	0	0	0
0.7107014	0.03664149	0.1863459	0	0	0	0	0	0
0.7440243	0.03664149	0.1863459	0	0	0	0	0	0
0.7604012	0.03664149	0.1863459	0	0	0	0	0	0
0.7770485	0.03664149	0.1863459	0	0	0	0	0	0
0.7935347	0.03664149	0.1863459	0	0	0	0	0	0
0.8101014	0.03664149	0.1863459	0	0	0	0	0	0
0.8266682	0.03664149	0.1863459	0	0	0	0	0	0
0.8435946	0.03664149	0.1863459	0	0	0	0	0	0
0.8598013	0.03664149	0.1863459	0	0	0	0	0	0
0.9138466	0.03664149	0.1863459	0	0	0	0	0	0
0.9306576	0.03664149	0.1863459	0	0	0	0	0	0
0.9469816	0.03664149	0.1863459	0	0	0	0	0	0
0.9635484	0.03661521	0.186364	-0.001586201	0.001090148	-0.04822637	0.03314452	0	0
0.9801151	0.03661521	0.186364	0	0	0.04787301	-0.03290167	0	0
0.9966819	0.03661521	0.186364	0	0	0	0	0	0
1.013247	0.03661521	0.186364	0	0	0	0	0	0
1.029815	0.03661521	0.186364	0	0	0	0	0	0
1.046381	0.03661521	0.186364	0	0	0	0	0	0
1.062949	0.03661521	0.186364	0	0	0	0	0	0
1.079516	0.03661521	0.186364	0	0	0	0	0	0
1.096784	0.03661521	0.186364	0	0	0	0	0	0
1.129304	0.03661521	0.186364	0	0	0	0	0	0
1.145815	0.03661521	0.186364	0	0	0	0	0	0
1.162349	0.03664149	0.1863459	0.001589312	-0.001092285	0.04809529	-0.03305443	0	0
1.178915	0.03664149	0.1863459	0	0	-0.0480151	0.03299931	0	0
1.195481	0.03664149	0.1863459	0	0	0	0	0	0
1.212047	0.03664149	0.1863459	0	0	0	0	0	0
1.228869	0.03664149	0.1863459	0	0	0	0	0	0
1.245181	0.03661521	0.186364	-0.001610961	0.001107165	-0.04862031	0.03341526	0	0
1.261748	0.03661521	0.186364	0	0	0.04899685	-0.03367405	0	0
1.282116	0.03661521	0.186364	0	0	0	0	0	0
1.29892	0.03661521	0.186364	0	0	0	0	0	0
1.315249	0.03661521	0.186364	0	0	0	0	0	0
1.331941	0.03661521	0.186364	0	0	0	0	0	0
1.348383	0.03661521	0.186364	0	0	0	0	0	0
1.364983	0.03661521	0.186364	0	0	0	0	0	0
1.381517	0.03661521	0.186364	0	0	0	0	0	0
1.398083	0.03661521	0.186364	0	0	0	0	0	0
1.431511	0.03661521	0.186364	0	0	0	0	0	0
1.447783	0.03661521	0.186364	0	0	0	0	0	0
1.46435	0.03661521	0.186364	0	0	0	0	0	0
1.480917	0.03661521	0.186364	0	0	0	0	0	0
1.49756	0.03661521	0.186364	0	0	0	0	0	0
1.51405	0.03661521	0.186364	0	0	0	0	0	0
1.530617	0.03661521	0.186364	0	0	0	0	0	0
1.547186	0.03661521	0.186364	0	0	0	0	0	0
1.563751	0.03664149	0.1863459	0.001586315	-0.001090226	0.04787594	-0.03290368	0	0
1.580319	0.03664149	0.1863459	0	0	-0.04787715	0.03290451	0	0
1.596884	0.03664149	0.1863459	0	0	0	0	0	0
1.61345	0.03664149	0.1863459	0	0	0	0	0	0
1.630018	0.03661521	0.186364	-0.001586167	0.001090124	-0.04787267	0.03290143	0	0
1.646583	0.03661521	0.186364	0	0	0.04787267	-0.03290143	0	0
1.663175	0.03661521	0.186364	0	0	0	0	0	0
1.679717	0.03661521	0.186364	0	0	0	0	0	0
1.696283	0.03661521	0.186364	0	0	0	0	0	0
1.71285	0.03661521	0.186364	0	0	0	0	0	0
1.729419	0.03661521	0.186364	0	0	0	0	0	0
1.745983	0.03661521	0.186364	0	0	0	0	0	0
1.76255	0.03661521	0.186364	0	0	0	0	0	0
1.779117	0.03661521	0.186364	0	0	0	0	0	0
1.795684	0.03661521	0.186364	0	0	0	0	0	0
1.828816	0.03661521	0.186364	0	0	0	0	0	0
1.845383	0.03661521	0.186364	0	0	0	0	0	0
1.86195	0.03661521	0.186364	0	0	0	0	0	0
1.878516	0.03664149	0.1863821	0.001586235	0.001089272	0.04787456	0.03287559	0	0
1.895341	0.03664149	0.1863821	0	0	-0.04750436	-0.03262137	0	0
1.911649	0.03658893	0.1864182	-0.003222858	0.002214815	-0.09726883	0.06684518	0	0
1.928216	0.03648381	0.1865626	-0.006345253	0.008720282	-0.09497694	0.1978831	0	0
1.944884	0.03643124	0.1866349	-0.003153608	0.004334144	0.0960338	-0.1319751	0	0
1.961349	0.0363524	0.186689	-0.004788374	0.003289688	-0.04933928	-0.03152299	0	0
1.977924	0.03632612	0.1867071	-0.001585707	0.001089654	0.09693429	-0.06658786	0	0
1.994483	0.03632612	0.1867071	0	0	0.0478581	-0.03288676	0	0
2.01105	0.03632612	0.1867071	0	0	0	0	0	0
2.027617	0.03632612	0.1867071	0	0	0	0	0	0
2.044183	0.03632612	0.1867071	0	0	0	0	0	0
2.06075	0.0363524	0.186689	0.001586471	-0.001090179	0.04788187	-0.03290309	0	0
2.077316	0.0363524	0.186689	0	0	-0.04788256	0.03290356	0	0
2.093978	0.03637868	0.186671	0.001577368	-0.001083924	0.04747083	-0.03262063	0	0
2.11045	0.03643124	0.1866349	0.003190857	-0.002191919	0.0486959	-0.03343985	0	0
2.127016	0.03640496	0.1866168	-0.001586471	-0.001090179	-0.1445994	0.03334728	0	0
2.143584	0.03677289	0.186364	0.02220724	-0.01525917	0.7181007	-0.4276241	0	0
2.16015	0.03795545	0.185443	0.07138665	-0.05560063	1.48428	-1.217543	0	0
2.242985	0.08824392	0.105717	0.6070941	-0.9624703	5.389396	-9.123411	0	0
2.283115	0.09322895	0.02745678	0.1242202	-1.950137	-3.92691	-8.032077	0	0
2.299628	0.09393328	0.007211817	0.04265252	-1.225993	-1.440013	12.78419	0	0
2.316158	0.09406369	1.033328E-05	0.007889916	-0.4356793	-1.05206	23.91816	0	0
2.332724	0.09398545	-0.007961399	-0.004723074	-0.4811885	-0.3811023	-1.375063	0	0
2.349291	0.09364634	-0.008018006	-0.02046905	-0.003416887	-0.4752282	14.41959	0	0
2.365857	0.09359417	-0.007980268	-0.003149152	0.002278042	0.5227419	0.1718819	0	0
2.382683	0.09359417	-0.007980268	0	0	0.09430937	-0.06822176	0	0
2.399195	0.09356809	-0.007961399	-0.001579668	0.001142676	-0.04738298	0.03427518	0	0
2.415558	0.09359417	-0.007980268	0.001594193	-0.001153183	0.09654382	-0.0698364	0	0
2.432124	0.09359417	-0.007980268	0	0	-0.04841311	0.03502034	0	0
2.448732	0.09362026	-0.007999136	0.001570665	-0.001136164	0.04734622	-0.03424858	0	0
2.465257	0.09359417	-0.008055743	-0.001578415	-0.003425366	-0.09504353	-0.06909122	0	0
2.481824	0.0933333	-0.008319922	-0.01574643	-0.01594633	-0.4281337	-0.3783627	0	0
2.498391	0.09098494	-0.01005649	-0.1417516	-0.1048222	-3.802952	-2.682356	0	0
2.514958	0.08706878	-0.01292763	-0.2363866	-0.1733077	-2.856174	-2.066955	0	0
2.531524	0.08147712	-0.01704994	-0.337523	-0.24883	-3.05239	-2.279335	0	0
2.5483	0.07823473	-0.01947286	-0.1932772	-0.1444293	4.326172	3.131152	0	0
2.564657	0.07229484	-0.02377433	-0.3631367	-0.2629715	-5.126591	-3.577767	0	0
2.581324	0.06870747	-0.02648711	-0.2152426	-0.1627665	4.478405	3.034323	0	0
2.597792	0.06060988	-0.03250922	-0.491729	-0.365695	-8.344436	-6.124438	0	0
2.614358	0.05415751	-0.03722878	-0.3894883	-0.2848898	3.095028	2.446135	0	0
2.630925	0.04762186	-0.04197479	-0.3945042	-0.2864783	-0.1513861	-0.0479447	0	0
2.647491	0.04352513	-0.04495203	-0.2472937	-0.179717	4.443013	3.222204	0	0
2.664382	0.03561651	-0.05066679	-0.4682213	-0.3383363	-6.603324	-4.740986	0	0
2.680894	0.03004359	-0.05464886	-0.3375041	-0.2411595	3.913347	2.909231	0	0
2.69741	0.027309	-0.0566036	-0.1655749	-0.1183561	5.205578	3.718173	0	0
2.713758	0.02554707	-0.0578116	-0.1077739	-0.07389119	1.758789	1.352995	0	0
2.730324	0.02396909	-0.05896254	-0.09525248	-0.0694753	0.3804202	0.1341617	0	0
2.746943	0.02389019	-0.05890498	-0.004747618	0.00346343	2.727243	2.197911	0	0
2.763458	0.02386389	-0.0588858	-0.001592682	0.001161718	0.09521822	-0.06946731	0	0
2.780024	0.02383759	-0.05890498	-0.001587596	-0.00115809	0.0001537573	-0.07012549	0	0
2.796591	0.02378499	-0.05894336	-0.0031751	-0.002316339	-0.04791304	-0.03495752	0	0
2.813489	0.02375869	-0.05896254	-0.001556437	-0.001135361	0.0483693	0.03529027	0	0
2.829725	0.02370608	-0.05900092	-0.003239836	-0.002363482	-0.05080543	-0.03706502	0	0
2.846511	0.02370608	-0.05900092	0	0	0.09811023	0.07157208	0	0
2.863023	0.02370608	-0.05900092	0	0	0	0	0	0
2.879535	0.02362718	-0.0590201	-0.00477858	-0.001161903	-0.1447009	-0.03518377	0	0
2.89599	0.02357458	-0.0590201	-0.003196676	0	0.04798467	0.03524458	0	0
2.929125	0.02349568	-0.05900092	-0.002381296	0.0005790077	0.01644256	0.01167598	0	0
2.94569	0.02341677	-0.05898173	-0.004763218	0.001158365	-0.04792574	0.01165703	0	0
2.962593	0.02339047	-0.05896254	-0.001556042	0.001135073	0.09582878	-0.000695954	0	0
2.978825	0.02333787	-0.05892417	-0.003240549	0.002363773	-0.0508378	0.03708171	0	0
2.995618	0.02331157	-0.05890498	-0.00156616	0.001142676	0.05069952	-0.03697411	0	0
3.012129	0.02331157	-0.05890498	0	0	0.04702723	-0.03431123	0	0
3.028525	0.02331157	-0.05890498	0	0	0	0	0	0
3.045153	0.02331157	-0.05890498	0	0	0	0	0	0
3.061659	0.02331157	-0.05890498	0	0	0	0	0	0
3.161057	0.02333787	-0.05892417	0.0002645986	-0.0001930521	0.002282924	-0.001665629	0	0
3.177624	0.02333787	-0.05892417	0	0	-0.002281695	0.001664732	0	0
3.194255	0.02333787	-0.05892417	0	0	0	0	0	0
3.210757	0.02333787	-0.05892417	0	0	0	0	0	0
3.230562	0.02333787	-0.05892417	0	0	0	0	0	0
3.24713	0.02333787	-0.05892417	0	0	0	0	0	0
3.263697	0.02333787	-0.05892417	0	0	0	0	0	0
3.280264	0.02333787	-0.05892417	0	0	0	0	0	0
3.296831	0.02333787	-0.05892417	0	0	0	0	0	0
3.313416	0.02336417	-0.05890498	0.001585882	0.001156983	0.04783655	0.03489923	0	0
3.329964	0.02336417	-0.05890498	0	0	-0.04786443	-0.03491958	0	0
3.346531	0.02336417	-0.05890498	0	0	0	0	0	0
3.363097	0.02333787	-0.0588858	-0.001587708	0.00115809	-0.04791851	0.03495224	0	0
3.379663	0.02215427	-0.05794585	-0.0714462	0.05673878	-2.108455	1.677525	0	0
3.396399	0.02049713	-0.05666111	-0.09901781	0.07676606	-0.8279248	0.6013823	0	0
3.412798	0.01394646	-0.05173836	-0.3994574	0.3001878	-9.067219	6.742832	0	0
3.429423	0.007157772	-0.04669014	-0.4083383	0.303649	-0.2689233	0.1048097	0	0
3.445946	-0.0002631579	-0.04088769	-0.4491499	0.3511915	-1.231217	1.434278	0	0
3.462497	-0.01113112	-0.03191978	-0.6566056	0.5418112	-6.27249	5.763447	0	0
3.479065	-0.01986581	-0.02440015	-0.5272192	0.4538794	3.906687	-2.655009	0	0
3.49563	-0.03020134	-0.01188844	-0.6239169	0.7552846	-2.918466	9.096821	0	0
3.512198	-0.03359262	-0.003643341	-0.2046894	0.4976534	12.65267	-7.77555	0	0
3.528765	-0.03545881	0.01614079	-0.1126468	1.194207	2.777831	21.02188	0	0
3.545505	-0.03608959	0.03180531	-0.03768043	0.9357492	2.25078	-7.759909	0	0
3.562017	-0.03632612	0.05172833	-0.0143248	1.206584	0.7023829	8.144921	0	0
3.578531	-0.03687801	0.06537869	-0.03341991	0.8266019	-0.578189	-11.50564	0	0
3.644886	-0.04071433	0.1150875	-0.05781513	0.7491344	-0.2943836	-0.9348202	0	0
3.661591	-0.0407406	0.122633	-0.001572602	0.4516855	0.6771292	-3.581121	0	0
3.678097	-0.04037279	0.1346681	0.022283	0.7291113	0.7182888	8.353252	0	0
3.694609	-0.04026769	0.1464215	0.00636493	0.7118353	-0.4821045	-0.5232332	0	0
3.711153	-0.03974222	0.1604354	0.03176159	0.8470501	0.768297	4.090504	0	0
3.727721	-0.03855982	0.1730598	0.07136648	0.7619818	1.196079	-2.569085	0	0
3.760853	-0.03756127	0.1846663	0.03013877	0.3503108	-0.829535	-8.283155	0	0
3.77742	-0.03619471	0.2007244	0.08248807	0.969296	1.053336	12.45478	0	0
3.793987	-0.0377715	0.205481	-0.0951779	0.2871208	-5.362124	-20.58868	0	0
3.810553	-0.03976849	0.2084345	-0.1205423	0.1782769	-0.7655202	-3.285009	0	0
3.827121	-0.03892769	0.2093347	0.05075089	0.05433762	5.169712	-3.74055	0	0
3.843714	-0.03890142	0.2093167	0.001583378	-0.00108477	-1.482684	-1.671304	0	0
3.87682	-0.03884887	0.2092807	0.001587436	-0.001087923	8.165349E-05	-6.344607E-05	0	0
3.893387	-0.03882259	0.2092987	0.001586201	0.00108655	-2.487342E-05	0.04377653	0	0
3.909953	-0.03874376	0.2093527	0.004758153	0.003260549	0.09573246	0.06561331	0	0
3.92652	-0.03834961	0.2096228	0.02379166	0.01630094	0.574449	0.3935713	0	0
3.943087	-0.03792917	0.2099108	0.02537854	0.0173866	0.04789336	0.03276599	0	0
3.959797	-0.03769267	0.2100368	0.01415299	0.007541304	-0.3373338	-0.2958563	0	0
3.97622	-0.0374036	0.2099468	0.01760166	-0.005481294	0.1040849	-0.3930369	0	0
3.992787	-0.0372722	0.2098568	0.007931229	-0.005432749	-0.2931366	0.00147152	0	0
4.009354	-0.03711453	0.2097488	0.009517655	-0.006520198	0.04787981	-0.03282022	0	0
4.02592	-0.03706197	0.2097128	0.003172626	-0.002173999	-0.1914988	0.1311723	0	0
4.042487	-0.03698313	0.2096588	0.004758827	-0.00325965	0.04787302	-0.03276594	0	0
4.059053	-0.03687801	0.2095868	0.006345436	-0.004347224	0.047886	-0.03282448	0	0
4.075879	-0.03640496	0.2092627	0.02811548	-0.01926013	0.6519641	-0.4466083	0	0
4.141888	-0.03359262	0.2073361	0.04260502	-0.02918716	0.1749212	-0.1198414	0	0
4.158453	-0.03359262	0.2073361	0	0	-0.5159565	0.3534631	0	0
4.17502	-0.03359262	0.2073361	0	0	0	0	0	0
4.191587	-0.03356634	0.2073181	0.00158665	-0.00108655	0.04788658	-0.03279308	0	0
4.208154	-0.03356634	0.2073181	0	0	-0.04788658	0.03279308	0	0
4.227333	-0.03332976	0.2074801	0.01233506	0.008449977	0.3450742	0.2363888	0	0
4.243997	-0.03264629	0.2079483	0.04101456	0.02809612	0.8001342	0.5481108	0	0
4.260509	-0.03101637	0.2090647	0.098712	0.06760786	1.739135	1.190976	0	0
4.277033	-0.03041167	0.2094787	0.03659413	0.02505844	-1.880296	-1.287962	0	0
4.293601	-0.02949145	0.2100728	0.055545	0.03585961	0.5726802	0.3264028	0	0
4.310167	-0.02617823	0.2122688	0.1999977	0.1325548	4.359717	2.918351	0	0
4.326733	-0.024311	0.2135825	0.1127128	0.07929883	-2.634416	-1.607361	0	0
4.3433	-0.02352198	0.2140863	0.04762684	0.0304126	-1.964382	-1.475453	0	0
4.36008	-0.02352198	0.2140863	0	0	-1.428214	-0.9120006	0	0
4.376433	-0.02349568	0.2141043	0.001608288	0.001099832	0.04853964	0.03319396	0	0
4.393001	-0.02349568	0.2141043	0	0	-0.04885391	-0.03340888	0	0
4.409567	-0.02346937	0.2141223	0.001587708	0.001086581	0.04791851	0.03279402	0	0
4.426134	-0.02344307	0.2141043	0.00158755	-0.00108655	-4.771432E-06	-0.06558805	0	0
4.4427	-0.02333787	0.2140323	0.006350608	-0.004344525	0.1437556	-0.09833014	0	0
4.459267	-0.02304855	0.2138344	0.01746373	-0.01194755	0.335409	-0.2294697	0	0
4.476161	-0.0198395	0.2116389	0.1899428	-0.1299524	5.154542	-3.526578	0	0
4.508967	-0.01476209	0.2081644	0.1547736	-0.1059111	-0.7076266	0.4837268	0	0
4.525534	-0.00781563	0.2035535	0.4192889	-0.2783151	5.357525	-3.491893	0	0
4.54221	-0.0005789473	0.1994266	0.4339717	-0.2474836	0.441684	0.9274668	0	0
4.558667	0.005078904	0.2011028	0.3437943	0.1018565	-2.721714	10.54371	0	0
4.575233	0.01178893	0.2024904	0.4050295	0.08375788	1.854272	-0.5480486	0	0
4.591801	0.0185505	0.2043462	0.4081295	0.112013	0.09356067	0.8527548	0	0
4.608367	0.02310115	0.2067418	0.2746856	0.1446029	-4.027403	0.983577	0	0
4.624933	0.02767714	0.2099108	0.2762311	0.1912995	0.04664383	1.40939	0	0
4.6415	0.03064829	0.2118368	0.1793392	0.1162548	-2.924328	-2.264953	0	0
4.658067	0.03196279	0.2127727	0.07934786	0.05649142	-3.017832	-1.803714	0	0
4.674634	0.03230455	0.2129706	0.02062774	0.01194776	-1.772202	-1.34435	0	0
4.6912	0.03227826	0.2129886	-0.001587012	0.001086644	-0.6704716	-0.3278033	0	0
4.707827	0.03227826	0.2129886	0	0	0.04781287	-0.03273796	0	0
4.724335	0.03227826	0.2129886	0	0	0	0	0	0
4.7409	0.03227826	0.2129886	0	0	0	0	0	0
4.757467	0.03227826	0.2129886	0	0	0	0	0	0
4.774372	0.03227826	0.2129886	0	0	0	0	0	0
4.7906	0.03227826	0.2129886	0	0	0	0	0	0
4.807167	0.03227826	0.2129886	0	0	0	0	0	0
4.823733	0.03227826	0.2129886	0	0	0	0	0	0
4.8403	0.03227826	0.2129886	0	0	0	0	0	0
4.85693	0.03225197	0.2130066	-0.001580824	0.00108151	-0.04761958	0.03257862	0	0
4.873442	0.03225197	0.2130066	0	0	0.04769769	-0.03263206	0	0
4.89	0.03227826	0.2129886	0.001587698	-0.001086213	0.0480094	-0.03284532	0	0
4.906566	0.03225197	0.2130066	-0.001586967	0.001085713	-0.09584192	0.06556962	0	0
4.923133	0.03222568	0.2129886	-0.00158665	-0.00108565	9.546516E-06	-0.06553564	0	0
4.93999	0.03225197	0.2129706	0.001559318	-0.001067832	0.0941233	0.000533097	0	0
4.956266	0.03225197	0.2129706	0	0	-0.04706166	0.03222816	0	0
4.972834	0.03225197	0.2129706	0	0	0	0	0	0
4.9894	0.03222568	0.2129526	-0.001586696	-0.001086581	-0.04788797	-0.03279402	0	0
5.006036	0.03222568	0.2129526	0	0	0.04778824	0.03272573	0	0
5.022533	0.03222568	0.2129166	0	-0.00218143	0	-0.06583852	0	0
5.0391	0.03219939	0.2128986	-0.001586875	-0.00108655	-0.04799491	0.03311455	0	0
5.055666	0.03219939	0.2128986	0	0	0.04789338	0.03279308	0	0
5.072233	0.0321731	0.2128447	-0.001586875	-0.00325875	-0.04789338	-0.0983521	0	0
5.089096	0.03212053	0.2128087	-0.003117886	-0.002134116	-0.04579869	0.03364232	0	0
5.105606	0.03209424	0.2127547	-0.001592329	-0.00326995	0.04571313	-0.03403512	0	0
5.122118	0.03206795	0.2127367	-0.001592145	-0.001090158	5.570123E-06	0.06601043	0	0
5.158146	0	0	-0.8900628	-5.904618	-16.91012	-112.3609	0	0
5.174533	0.03209424	0.2126827	1.958577	12.97913	54.34742	360.2712	0	0
5.191099	0.03209424	0.2126827	0	0	-59.43586	-393.8706	0	0
5.207666	0.03209424	0.2126467	0	-0.0021722	0	-0.06555996	0	0
5.224232	0.03209424	0.2126107	0	-0.002173162	0	-2.902914E-05	0	0
5.240798	0.03209424	0.2125747	0	-0.002172263	0	2.714626E-05	0	0
5.257366	0.03209424	0.2125387	0	-0.002173037	0	-2.337195E-05	0	0
5.273932	0.03209424	0.2125027	0	-0.002172263	0	2.337195E-05	0	0
5.290499	0.03206795	0.2124847	-0.001586875	-0.00108655	-0.04789406	0.03276829	0	0
5.31353	0.03209424	0.2124667	0.001141466	-0.0007815735	0.06890102	0.007701815	0	0
5.330097	0.03209424	0.2124667	0	0	-0.02882602	0.01973747	0	0
5.346664	0.03209424	0.2124667	0	0	0	0	0	0
5.363288	0.03209424	0.2124667	0	0	0	0	0	0
5.379802	0.03209424	0.2124667	0	0	0	0	0	0
5.396366	0.03209424	0.2124667	0	0	0	0	0	0
5.412931	0.03209424	0.2124667	0	0	0	0	0	0
5.429499	0.03206795	0.2124847	-0.001586784	0.001086487	-0.0478913	0.03279167	0	0
5.446065	0.03206795	0.2124847	0	0	0.04789061	-0.0327912	0	0
5.462632	0.03206795	0.2124847	0	0	0	0	0	0
5.479198	0.03206795	0.2124847	0	0	0	0	0	0
5.495765	0.03206795	0.2124847	0	0	0	0	0	0
5.512332	0.03206795	0.2124847	0	0	0	0	0	0
5.545465	0.03206795	0.2124847	0	0	0	0	0	0
5.562031	0.03206795	0.2124847	0	0	0	0	0	0
5.578598	0.03206795	0.2124847	0	0	0	0	0	0
5.595165	0.03206795	0.2124847	0	0	0	0	0	0
5.611965	0.03206795	0.2124847	0	0	0	0	0	0
5.6283	0.03206795	0.2124847	0	0	0	0	0	0
5.644988	0.03206795	0.2124847	0	0	0	0	0	0
5.6615	0.03206795	0.2124847	0	0	0	0	0	0
5.678011	0.03206795	0.2124847	0	0	0	0	0	0
5.695025	0.03206795	0.2124847	0	0	0	0	0	0
5.711132	0.03206795	0.2124847	0	0	0	0	0	0
5.727701	0.03206795	0.2124847	0	0	0	0	0	0
5.744266	0.03206795	0.2124847	0	0	0	0	0	0
5.760832	0.03206795	0.2124847	0	0	0	0	0	0
5.777585	0.03206795	0.2124847	0	0	0	0	0	0
5.860232	0.03204166	0.2124667	-0.0003180929	-0.0002178014	-0.003200144	-0.002191171	0	0
5.876799	0.03204166	0.2124667	0	0	0.003206142	0.002195278	0	0
5.893365	0.03204166	0.2124667	0	0	0	0	0	0
5.909931	0.03204166	0.2124667	0	0	0	0	0	0
5.926498	0.03204166	0.2124667	0	0	0	0	0	0
5.943065	0.03204166	0.2124667	0	0	0	0	0	0
5.959631	0.03204166	0.2124667	0	0	0	0	0	0
5.976198	0.03204166	0.2124667	0	0	0	0	0	0
5.992764	0.03204166	0.2124667	0	0	0	0	0	0
6.009332	0.03204166	0.2124667	0	0	0	0	0	0
6.025898	0.03204166	0.2124667	0	0	0	0	0	0
6.042465	0.03204166	0.2124667	0	0	0	0	0	0
6.059782	0.03204166	0.2124667	0	0	0	0	0	0
6.075598	0.03204166	0.2124667	0	0	0	0	0	0
6.094954	0.03204166	0.2124667	0	0	0	0	0	0
6.11152	0.03204166	0.2124667	0	0	0	0	0	0
6.128088	0.03204166	0.2124667	0	0	0	0	0	0
6.144654	0.03201537	0.2124487	-0.001586967	-0.001085713	-0.04789613	-0.03276782	0	0
6.161225	0.03201537	0.2124487	0	0	0.04789062	0.03276405	0	0
6.177868	0.03201537	0.2124487	0	0	0	0	0	0
6.19438	0.03201537	0.2124487	0	0	0	0	0	0
6.210923	0.03201537	0.2124487	0	0	0	0	0	0
6.22749	0.03201537	0.2124487	0	0	0	0	0	0
6.244415	0.03201537	0.2124487	0	0	0	0	0	0
6.261425	0.03201537	0.2124487	0	0	0	0	0	0
6.277187	0.03201537	0.2124487	0	0	0	0	0	0
6.29395	0.03201537	0.2124487	0	0	0	0	0	0
6.31032	0.03201537	0.2124487	0	0	0	0	0	0
6.366128	0.03201537	0.2124487	0	0	0	0	0	0
6.382696	0.03201537	0.2124487	0	0	0	0	0	0
6.399263	0.03201537	0.2124487	0	0	0	0	0	0
6.41583	0.03201537	0.2124487	0	0	0	0	0	0
6.432545	0.03201537	0.2124487	0	0	0	0	0	0
6.449057	0.03201537	0.2124487	0	0	0	0	0	0
6.465529	0.03201537	0.2124487	0	0	0	0	0	0
6.482096	0.03201537	0.2124487	0	0	0	0	0	0
6.498663	0.03201537	0.2124487	0	0	0	0	0	0
6.515606	0.03201537	0.2124487	0	0	0	0	0	0
6.531797	0.03201537	0.2124487	0	0	0	0	0	0
6.548363	0.03201537	0.2124487	0	0	0	0	0	0
6.564929	0.03201537	0.2124487	0	0	0	0	0	0
6.581496	0.03201537	0.2124487	0	0	0	0	0	0
6.598162	0.03201537	0.2124487	0	0	0	0	0	0
6.614674	0.03201537	0.2124487	0	0	0	0	0	0
6.631196	0.03201537	0.2124487	0	0	0	0	0	0
6.647763	0.03201537	0.2124487	0	0	0	0	0	0
6.66433	0.03201537	0.2124487	0	0	0	0	0	0
6.680896	0.03201537	0.2124487	0	0	0	0	0	0
6.697733	0.03201537	0.2124487	0	0	0	0	0	0
6.714029	0.03201537	0.2124487	0	0	0	0	0	0
6.730755	0.03201537	0.2124487	0	0	0	0	0	0
6.747163	0.03201537	0.2124487	0	0	0	0	0	0
6.76373	0.03201537	0.2124487	0	0	0	0	0	0
6.780296	0.03201537	0.2124487	0	0	0	0	0	0
6.796863	0.03201537	0.2124487	0	0	0	0	0	0
6.81343	0.03201537	0.2124487	0	0	0	0	0	0
6.830328	0.03201537	0.2124487	0	0	0	0	0	0
6.846563	0.03201537	0.2124487	0	0	0	0	0	0
6.86313	0.03201537	0.2124487	0	0	0	0	0	0
6.879863	0.03201537	0.2124487	0	0	0	0	0	0
6.896263	0.03201537	0.2124487	0	0	0	0	0	0
6.912885	0.03201537	0.2124487	0	0	0	0	0	0
6.931571	0.03201537	0.2124487	0	0	0	0	0	0
6.94841	0.03201537	0.2124487	0	0	0	0	0	0
6.964705	0.03201537	0.2124487	0	0	0	0	0	0
6.981433	0.03201537	0.2124487	0	0	0	0	0	0
6.997946	0.03201537	0.2124487	0	0	0	0	0	0
7.014457	0.03201537	0.2124487	0	0	0	0	0	0
7.030972	0.03201537	0.2124487	0	0	0	0	0	0
7.047538	0.03201537	0.2124487	0	0	0	0	0	0
7.064105	0.03201537	0.2124487	0	0	0	0	0	0
7.081004	0.03201537	0.2124487	0	0	0	0	0	0
7.097239	0.03201537	0.2124487	0	0	0	0	0	0
7.114028	0.03201537	0.2124487	0	0	0	0	0	0
7.130372	0.03201537	0.2124487	0	0	0	0	0	0
7.14705	0.03201537	0.2124487	0	0	0	0	0	0
7.163506	0.03201537	0.2124487	0	0	0	0	0	0
7.180079	0.03201537	0.2124487	0	0	0	0	0	0
7.196639	0.03201537	0.2124487	0	0	0	0	0	0
7.213205	0.03201537	0.2124487	0	0	0	0	0	0
7.229771	0.03201537	0.2124487	0	0	0	0	0	0
7.246338	0.03201537	0.2124487	0	0	0	0	0	0
7.262905	0.03201537	0.2124487	0	0	0	0	0	0
7.279644	0.03198908	0.2124667	-0.001570556	0.001074486	-0.04715586	0.03226137	0	0
7.296038	0.03198908	0.2124667	0	0	0.04740153	-0.03242945	0	0
7.312605	0.03198908	0.2124667	0	0	0	0	0	0
7.329171	0.03198908	0.2124667	0	0	0	0	0	0
7.345739	0.03198908	0.2124667	0	0	0	0	0	0
7.362304	0.03198908	0.2124667	0	0	0	0	0	0
7.378871	0.03196279	0.2124847	-0.001586875	0.00108655	-0.04789613	0.03279497	0	0
7.401677	0.03196279	0.2124847	0	0	0.04030421	-0.02759671	0	0
7.418244	0.03198908	0.2124667	0.001586784	-0.001086487	0.04030092	-0.02759445	0	0
7.434812	0.03198908	0.2124667	0	0	-0.04788855	0.03278978	0	0
7.451379	0.03198908	0.2124667	0	0	0	0	0	0
7.467955	0.03198908	0.2124667	0	0	0	0	0	0
7.484512	0.03198908	0.2124667	0	0	0	0	0	0
7.5013	0.03198908	0.2124667	0	0	0	0	0	0
7.517645	0.03201537	0.2124487	0.001608402	-0.001100378	0.04854377	-0.0332109	0	0
7.534212	0.03201537	0.2124487	0	0	-0.04887011	0.03343416	0	0
7.550778	0.03204166	0.2124307	0.001586921	-0.001086581	0.04789544	-0.0327945	0	0
7.567346	0.03204166	0.2124307	0	0	-0.04789406	0.03279355	0	0
7.583912	0.03204166	0.2124307	0	0	0	0	0	0
7.600478	0.03204166	0.2124307	0	0	0	0	0	0
7.699878	0.0777116	0.1810346	0.459456	-0.3158561	3.961978	-2.723688	0	0
7.716446	0.09215925	0.1704537	0.8720365	-0.6386486	3.557718	-2.783468	0	0
7.733011	0.1091175	0.1548484	1.023719	-0.9420481	4.577988	-9.15701	0	0
7.749578	0.1211408	0.1422579	0.7257469	-0.759984	-8.993464	5.4951	0	0
7.766145	0.1270488	0.131917	0.3566217	-0.6241941	-11.14054	4.098266	0	0
7.782711	0.1371339	0.1015016	0.6087688	-1.835987	7.610141	-36.57358	0	0
7.799512	0.139354	0.08861126	0.1321469	-0.7672392	-14.28416	32.02995	0	0
7.815845	0.1425528	0.06478697	0.1958499	-1.458693	1.922616	-20.86872	0	0
7.832534	0.1453364	0.05145001	0.1667863	-0.7991093	-0.8801166	19.97383	0	0
7.849046	0.1523369	0.04231012	0.4239764	-0.5535492	7.746406	7.396118	0	0
7.884504	0.166113	0.03234619	0.3885124	-0.2810022	-0.6823934	5.244315	0	0
7.901072	0.1718154	0.02818501	0.3442006	-0.2511691	-0.8517279	0.5734292	0	0
7.917638	0.1769457	0.02443025	0.3096801	-0.2266511	-1.041861	0.7399746	0	0
7.934204	0.1804115	0.02188747	0.2092136	-0.1534911	-3.032259	2.208102	0	0
7.951117	0.1805898	0.02175654	0.0105409	-0.007741245	-5.934212	4.353442	0	0
7.967338	0.1807426	0.02171913	0.009419923	-0.002306292	-0.03383199	0.164032	0	0
7.983904	0.1837204	0.0196049	0.1797518	-0.1276228	5.195129	-3.822158	0	0
8.000471	0.1863901	0.01763921	0.1611384	-0.1186494	-0.5617692	0.2708248	0	0
8.017037	0.1923805	0.01317954	0.3616021	-0.2692016	6.05018	-4.543806	0	0
8.033605	0.1936732	0.01214813	0.07802876	-0.06225614	-8.558507	6.245807	0	0
8.050187	0.1930903	0.01216688	-0.03515266	0.001131067	-3.414249	1.912149	0	0
8.066736	0.1884984	0.00952132	-0.2774682	-0.1598613	-7.31373	-4.859179	0	0
8.08371	0.1821429	0.006328911	-0.3744399	-0.188082	-2.892725	-0.8418395	0	0
8.09987	0.1758234	0.004336831	-0.3910547	-0.1232722	-0.5014499	1.956019	0	0
8.116437	0.1508711	0.0005749761	-1.506125	-0.227066	-34.07163	-3.171479	0	0
8.133003	0.1371855	6.680187E-05	-0.826111	-0.03067523	20.52346	5.927255	0	0
8.149758	0.1147827	-0.000629711	-1.337072	-0.04157019	-15.33434	-0.326966	0	0
8.166138	0.08333288	-0.001288709	-1.92009	-0.04023343	-17.5955	0.04034341	0	0
8.182703	0.05906281	-0.001646505	-1.465113	-0.02159912	13.81031	0.5656242	0	0
8.199291	0.02749307	-0.00160884	-1.903143	0.002270568	-13.21215	0.7199743	0	0
8.215837	0.004657861	-0.001269878	-1.380163	0.02048692	15.78401	0.5497863	0	0
8.232404	-0.01707729	-0.0007426728	-1.311936	0.03182219	2.060464	0.342326	0	0
8.24897	-0.03700941	0.0001985582	-1.203175	0.05681609	3.282525	0.7543389	0	0
8.265536	-0.06066232	0.001722789	-1.427775	0.09200805	-6.778838	1.062157	0	0
8.282351	-0.07561869	0.003735217	-0.8895066	0.119686	16.12523	0.8291644	0	0
8.298673	-0.08897499	0.009840396	-0.8182935	0.3740429	2.149091	7.676065	0	0
8.315238	-0.09745347	0.01593471	-0.5118209	0.3678961	9.31883	-0.1869055	0	0
8.331803	-0.1067245	0.02259813	-0.5596665	0.4022512	-1.444149	1.03696	0	0
8.348397	-0.1197402	0.03195453	-0.7843647	0.5638442	-6.776336	4.87324	0	0
8.364937	-0.1294561	0.03894213	-0.5874353	0.422478	5.943512	-4.266564	0	0
8.381503	-0.1390701	0.04586093	-0.580335	0.4176434	0.2144722	-0.1460344	0	0
8.39807	-0.1508711	0.05436205	-0.7123064	0.5131291	-3.98302	2.881847	0	0
8.431204	-0.1670599	0.06604428	-0.4885926	0.3525803	4.501218	-3.230309	0	0
8.447968	-0.1701544	0.06828059	-0.1845978	0.1334018	6.092423	-4.392601	0	0
8.464336	-0.1753642	0.07204814	-0.3182733	0.2301656	-4.034569	2.920505	0	0
8.480991	-0.1815574	0.07656839	-0.3718534	0.2714056	-1.622465	1.248796	0	0
8.497471	-0.1921016	0.08421416	-0.6398356	0.4639567	-8.08772	5.811203	0	0
8.514037	-0.1978257	0.08837219	-0.3455292	0.2509939	8.906024	-6.444479	0	0
8.563737	-0.2205879	0.1050025	-0.457995	0.3346147	-1.697186	1.261894	0	0
8.580303	-0.2235676	0.1072556	-0.1798625	0.1360075	4.19721	-2.997118	0	0
8.59687	-0.2263183	0.1105875	-0.1660341	0.2011161	0.4173539	1.965039	0	0
8.613437	-0.2292403	0.1140086	-0.1763787	0.2065084	-0.3122122	0.162745	0	0
8.630003	-0.2335783	0.1171897	-0.2618625	0.1920217	-2.580052	-0.4372346	0	0
8.646569	-0.2368136	0.1196016	-0.1952923	0.1455893	2.009208	-1.401415	0	0
8.663136	-0.2442603	0.1251518	-0.4494814	0.3350102	-7.671664	5.716898	0	0
8.679703	-0.2481217	0.1281799	-0.2330896	0.1827894	6.530905	-4.594165	0	0
8.696269	-0.2530119	0.1321904	-0.2951876	0.2420863	-1.874227	1.789688	0	0
8.712835	-0.2587261	0.1369261	-0.3449301	0.2858653	-1.50132	1.321328	0	0
8.729666	-0.265918	0.1436037	-0.4273182	0.3967562	-2.466952	3.320413	0	0
8.745969	-0.2699069	0.1487837	-0.2446695	0.3177336	5.512509	-2.384974	0	0
8.781494	-0.2746429	0.1530333	-0.1333144	0.1196205	2.148535	-3.822482	0	0
8.79806	-0.2746185	0.1530151	0.001471562	-0.001095576	2.587479	-2.317382	0	0
8.814724	-0.2746185	0.1530151	0	0	-0.04428437	0.03296966	0	0
8.84776	-0.2745698	0.1529788	0.001475852	-0.001099221	0.02969535	-0.02211723	0	0
8.864326	-0.274521	0.1529425	0.002943124	-0.002192051	0.02958059	-0.02203175	0	0
8.880893	-0.2744723	0.1529062	0.002943124	-0.002191152	0	2.714626E-05	0	0
8.897459	-0.2743991	0.1528154	0.004416484	-0.005479679	0.04446867	-0.09925365	0	0
8.914025	-0.274204	0.1526702	0.01177429	-0.008767306	0.2220719	-0.09922649	0	0
8.930592	-0.2741553	0.1526339	0.002944923	-0.002191152	-0.2664863	0.1984801	0	0
8.947158	-0.2740577	0.1525612	0.005888046	-0.004384103	0.08882876	-0.0661872	0	0
8.963724	-0.2739358	0.1524705	0.007361407	-0.005479679	0.04446867	-0.03306646	0	0
8.980385	-0.2738626	0.152416	0.004391457	-0.003268997	-0.08938372	0.06653277	0	0
8.996952	-0.2737894	0.1523615	0.004418029	-0.003287438	0.0007996898	-0.0005549886	0	0
9.013519	-0.273643	0.1522526	0.00883426	-0.006575776	0.1332821	-0.09924223	0	0
9.030375	-0.2735455	0.15218	0.005788543	-0.004308699	-0.09112521	0.06782899	0	0
9.046653	-0.2733747	0.1520529	0.01049112	-0.007807923	0.1419282	-0.1056098	0	0
9.063398	-0.2732527	0.1519621	0.00728437	-0.005421009	-0.09710702	0.07228059	0	0
9.079785	-0.2729355	0.1517261	0.01935961	-0.01440468	0.3644526	-0.2711433	0	0
9.129485	-0.271031	0.1503096	0.03831984	-0.02850092	0.2868989	-0.2132989	0	0
9.146455	-0.271031	0.1503096	0	0	-0.5747734	0.4274958	0	0
9.162618	-0.271031	0.1503096	0	0	0	0	0	0
9.179187	-0.2710066	0.1502914	0.001474905	-0.001096286	0.04506002	-0.03349278	0	0
9.19599	-0.2710066	0.1502914	0	0	-0.04419598	0.03285055	0	0
9.212317	-0.2710066	0.1502914	0	0	0	0	0	0
9.228884	-0.2709821	0.1502732	0.001473361	-0.001096475	0.04479099	-0.03333346	0	0
9.245451	-0.2709821	0.1502732	0	0	-0.0444674	0.03309264	0	0
9.262036	-0.2709821	0.1502732	0	0	0	0	0	0
9.278584	-0.2709577	0.1502551	0.001476775	-0.001097676	0.04457044	-0.03312888	0	0
9.295152	-0.2709333	0.1502369	0.001475075	-0.001096412	-5.134308E-05	3.816367E-05	0	0
9.311718	-0.2709333	0.1502369	0	0	-0.04451913	0.03309074	0	0
9.328287	-0.2709333	0.1502369	0	0	0	0	0	0
9.361609	-0.27086	0.1502187	0.002199243	-0.0005451153	0.04408054	-0.01092602	0	0
9.394552	-0.26533	0.1518168	0.1678678	0.0485111	2.500087	0.7403023	0	0
9.411146	-0.2537517	0.1527428	0.6977389	0.0558019	10.69654	0.1471799	0	0
9.427687	-0.2314603	0.1530514	1.347688	0.01865829	19.6155	-1.120996	0	0
9.444253	-0.2123295	0.152761	1.154804	-0.01753371	-5.82612	-1.093189	0	0
9.460819	-0.1869745	0.1527428	1.530519	-0.001095576	11.33976	0.4961325	0	0
9.477386	-0.1687226	0.1529243	1.101746	0.01095846	-12.94112	0.3638124	0	0
9.493952	-0.1629886	0.1531059	0.3461273	0.01095846	-22.80594	0	0	0
9.51052	-0.1295855	0.155048	2.016096	0.1172194	50.39977	3.206962	0	0
9.543737	-0.09896511	0.1594562	0.921818	0.1327078	-21.97981	0.3111006	0	0
9.560219	-0.08537094	0.1622663	0.8248186	0.1705025	-1.951744	0.7604764	0	0
9.576785	-0.07061921	0.1673756	0.8904676	0.3084163	1.986493	4.173177	0	0
9.593352	-0.06074098	0.1703994	0.5962513	0.1825144	-8.879721	-3.799836	0	0
9.609919	-0.0546298	0.1723722	0.3688927	0.1190859	-6.861894	-1.914333	0	0
9.626799	-0.04433934	0.1790644	0.6096231	0.3964583	7.197516	8.293065	0	0
9.643052	-0.04102959	0.1813419	0.2036334	0.1401199	-12.25315	-7.736533	0	0
9.659618	-0.035012	0.1855152	0.3632433	0.2519168	4.863227	3.406393	0	0
9.676187	-0.02859746	0.1899207	0.38716	0.2658993	0.721809	0.4219928	0	0
9.712675	-0.01915555	0.1963615	0.2587639	0.1765162	-2.419979	-1.68467	0	0
9.729243	-0.01707729	0.1978221	0.125437	0.08815583	-2.512913	-1.665395	0	0
9.74581	-0.01673528	0.1980204	0.02064482	0.01197218	-3.162634	-2.299227	0	0
9.762391	-0.01673528	0.1980204	0	0	-0.6228108	-0.3611756	0	0
9.778942	-0.01673528	0.1980204	0	0	0	0	0	0
9.795508	-0.01676159	0.1980384	-0.001588046	0.00108838	-0.04795215	0.0328644	0	0
9.812076	-0.01676159	0.1980384	0	0	0.04792869	-0.03284832	0	0
9.828642	-0.01676159	0.1980384	0	0	0	0	0	0
9.845209	-0.01676159	0.1980384	0	0	0	0	0	0
9.861962	-0.01676159	0.1980384	0	0	0	0	0	0
9.878343	-0.0167879	0.1980565	-0.001606075	0.001100736	-0.04847282	0.03322125	0	0
9.894909	-0.0167879	0.1980565	0	0	0.04874783	-0.03340973	0	0
9.911477	-0.0168142	0.1980745	-0.001587863	0.001088255	-0.04792179	0.03284359	0	0
9.928042	-0.0168142	0.1980745	0	0	0.04792317	-0.03284454	0	0
9.944609	-0.0168142	0.1980745	0	0	0	0	0	0
9.961175	-0.0167879	0.1980565	0.001588046	-0.00108838	0.04793007	-0.03284927	0	0
9.977742	-0.0167879	0.1980565	0	0	-0.04792869	0.03284832	0	0
9.994308	-0.0167879	0.1980565	0	0	0	0	0	0
10.01087	-0.0168142	0.1980384	-0.001588046	-0.00108838	-0.04793007	-0.03284927	0	0
10.04409	-0.0168142	0.1980384	0	0	0.0318989	0.02186218	0	0
10.0606	-0.0168142	0.1980384	0	0	0	0	0	0
10.07714	-0.0167879	0.1980204	0.001590609	-0.001090137	0.04812797	-0.0329849	0	0
10.09371	-0.0167879	0.1980204	0	0	-0.04804617	0.03292884	0	0
10.11027	-0.0167879	0.1980204	0	0	0	0	0	0
10.12684	-0.0168142	0.1980024	-0.001587954	-0.001088317	-0.04792593	-0.03284643	0	0
10.14341	-0.0168142	0.1980024	0	0	0.04792593	0.03284643	0	0
10.15998	-0.0168142	0.1980024	0	0	0	0	0	0
10.1767	-0.0168142	0.1980024	0	0	0	0	0	0
10.19311	-0.01684051	0.1979843	-0.001603015	-0.001098562	-0.04837909	-0.03315466	0	0
10.20971	-0.01686682	0.1979663	-0.001584579	-0.001086004	0.0005584085	0.0003803577	0	0
10.22624	-0.01686682	0.1979663	0	0	0.04782544	0.03277756	0	0
10.24281	-0.01686682	0.1979663	0	0	0	0	0	0
10.27594	-0.01689313	0.1979483	-0.000793977	-0.0005441587	-0.01597515	-0.0109487	0	0
10.29251	-0.01689313	0.1979483	0	0	0.01597515	0.0109487	0	0
10.30928	-0.01689313	0.1979483	0	0	0	0	0	0
10.32579	-0.01691944	0.1979302	-0.001593273	-0.001091963	-0.04787153	-0.03280915	0	0
10.34233	-0.01691944	0.1979302	0	0	0.04820302	0.03303634	0	0
10.35881	-0.01691944	0.1979302	0	0	0	0	0	0
10.37534	-0.01691944	0.1979302	0	0	0	0	0	0
10.39191	-0.01694575	0.1979122	-0.001587954	-0.001088317	-0.0479784	-0.03288239	0	0
10.40847	-0.01694575	0.1979122	0	0	0.04792593	0.03284643	0	0
10.42504	-0.01694575	0.1979122	0	0	0	0	0	0
10.44161	-0.01697205	0.1978942	-0.001588046	-0.00108838	-0.04793007	-0.03284927	0	0
10.45817	-0.01697205	0.1978942	0	0	0.04793007	0.03284927	0	0
10.47474	-0.01699836	0.1978762	-0.001588046	-0.00108838	-0.04793007	-0.03284927	0	0
10.49131	-0.01699836	0.1978762	0	0	0.04793007	0.03284927	0	0
10.50787	-0.01699836	0.1978762	0	0	0	0	0	0
10.52444	-0.01699836	0.1978762	0	0	0	0	0	0
10.54101	-0.01699836	0.1978762	0	0	0	0	0	0
10.55757	-0.01699836	0.1978762	0	0	0	0	0	0
10.57414	-0.01699836	0.1978762	0	0	0	0	0	0
10.5907	-0.01699836	0.1978762	0	0	0	0	0	0
10.62639	-0.01699836	0.1978762	0	0	0	0	0	0
10.64301	-0.01702467	0.1978581	-0.0015836	-0.001085256	-0.03027668	-0.02074891	0	0
10.66002	-0.01705098	0.1978401	-0.001546124	-0.001059649	0.001114384	0.0007614691	0	0
10.6761	-0.0171036	0.197804	-0.003273907	-0.002243799	-0.05221974	-0.03578923	0	0
10.69266	-0.0171299	0.197786	-0.001588046	-0.00108838	0.05165396	0.03540147	0	0
10.70923	-0.01715621	0.197768	-0.001587954	-0.001088317	2.761629E-06	1.893789E-06	0	0
10.72584	-0.01715621	0.197768	0	0	0.04785705	0.03279923	0	0
10.74236	-0.01715621	0.197768	0	0	0	0	0	0
10.75893	-0.01715621	0.197768	0	0	0	0	0	0
10.77549	-0.01715621	0.197768	0	0	0	0	0	0
10.79206	-0.01715621	0.197768	0	0	0	0	0	0
10.80863	-0.01715621	0.197768	0	0	0	0	0	0
10.82519	-0.01715621	0.197768	0	0	0	0	0	0
10.84176	-0.01718252	0.1977499	-0.001587954	-0.001088317	-0.04792593	-0.03284643	0	0
10.85833	-0.01718252	0.1977499	0	0	0.04792593	0.03284643	0	0
10.87489	-0.01718252	0.1977499	0	0	0	0	0	0
10.89146	-0.01718252	0.1977499	0	0	0	0	0	0
10.90803	-0.01718252	0.1977499	0	0	0	0	0	0
10.99086	-0.01720883	0.1977319	-0.0003176018	-0.000217671	-0.003195203	-0.002189859	0	0
11.00743	-0.01720883	0.1977319	0	0	0.003195203	0.002189859	0	0
11.02399	-0.01720883	0.1977319	0	0	0	0	0	0
11.04056	-0.01720883	0.1977319	0	0	0	0	0	0
11.0573	-0.01720883	0.1977319	0	0	0	0	0	0
11.07369	-0.01720883	0.1977319	0	0	0	0	0	0
11.09026	-0.01720883	0.1977319	0	0	0	0	0	0
11.10684	-0.01720883	0.1977319	0	0	0	0	0	0
11.12339	-0.01720883	0.1977319	0	0	0	0	0	0
11.13996	-0.01720883	0.1977319	0	0	0	0	0	0
11.15653	-0.01720883	0.1977319	0	0	0	0	0	0
11.17309	-0.01723514	0.1977139	-0.001587954	-0.001088317	-0.04792731	-0.03284737	0	0
11.18966	-0.01723514	0.1977139	0	0	0.04792593	0.03284643	0	0
11.20641	-0.01723514	0.1977139	0	0	0	0	0	0
11.22292	-0.01723514	0.1977139	0	0	0	0	0	0
11.23943	-0.01723514	0.1977139	0	0	0	0	0	0
11.25593	-0.01723514	0.1977139	0	0	0	0	0	0
11.27771	-0.01723514	0.1977139	0	0	0	0	0	0
11.29428	-0.01723514	0.1977139	0	0	0	0	0	0
11.31148	-0.01726144	0.1976959	-0.001529069	-0.00104796	-0.04527305	-0.03102826	0	0
11.32741	-0.01726144	0.1976959	0	0	0.04615005	0.03162932	0	0
11.34397	-0.01726144	0.1976959	0	0	0	0	0	0
11.36054	-0.01726144	0.1976959	0	0	0	0	0	0
11.37711	-0.01726144	0.1976959	0	0	0	0	0	0
11.39404	-0.01728775	0.1976778	-0.001553612	-0.001064781	-0.0463782	-0.03178567	0	0
11.41024	-0.01728775	0.1976778	0	0	0.04688946	0.03213608	0	0
11.42756	-0.01728775	0.1976778	0	0	0	0	0	0
11.44338	-0.01728775	0.1976778	0	0	0	0	0	0
11.46009	-0.01728775	0.1976778	0	0	0	0	0	0
11.4771	-0.01731406	0.1976598	-0.001546557	-0.001059946	-0.04585947	-0.03143017	0	0
11.49308	-0.01731406	0.1976598	0	0	0.04688435	0.03213257	0	0
11.50965	-0.01736668	0.1976237	-0.003175177	-0.002176134	-0.09755668	-0.06686127	0	0
11.52663	-0.01739298	0.1976057	-0.001548641	-0.001061374	0.04846818	0.03321807	0	0
11.54679	-0.01757714	0.1974795	-0.009138647	-0.006263311	-0.2043679	-0.1400669	0	0
11.56335	-0.0177876	0.1973352	-0.01270268	-0.008706038	-0.09706143	-0.0665243	0	0
11.59649	-0.02002364	0.1957664	-0.06748772	-0.04735173	-1.102298	-0.7775678	0	0
11.61319	-0.02002364	0.1957664	0	0	1.354088	0.9500753	0	0
11.62962	-0.02002364	0.1957664	0	0	0	0	0	0
11.64619	-0.02002364	0.1957664	0	0	0	0	0	0
11.66275	-0.02002364	0.1957664	0	0	0	0	0	0
11.67932	-0.02002364	0.1957664	0	0	0	0	0	0
11.72928	-0.02002364	0.1957664	0	0	0	0	0	0
11.74579	-0.02002364	0.1957664	0	0	0	0	0	0
11.7623	-0.02002364	0.1957664	0	0	0	0	0	0
11.77872	-0.02002364	0.1957664	0	0	0	0	0	0
11.79529	-0.02002364	0.1957664	0	0	0	0	0	0
11.81185	-0.02004994	0.1957844	-0.001587842	0.001088317	-0.04792254	0.03284643	0	0
11.82842	-0.02002364	0.1957664	0.001587933	-0.00108838	0.09584782	-0.06569475	0	0
11.84499	-0.02002364	0.1957664	0	0	-0.04792667	0.03284927	0	0
11.86155	-0.02002364	0.1957664	0	0	0	0	0	0
11.87812	-0.02002364	0.1957664	0	0	0	0	0	0
11.89469	-0.02002364	0.1957664	0	0	0	0	0	0
11.91125	-0.02002364	0.1957664	0	0	0	0	0	0
11.92782	-0.02002364	0.1957664	0	0	0	0	0	0
11.94439	-0.02002364	0.1957664	0	0	0	0	0	0
11.96095	-0.02002364	0.1957664	0	0	0	0	0	0
11.97752	-0.02002364	0.1957664	0	0	0	0	0	0
12.01065	-0.02004994	0.1957844	-0.0007939436	0.0005441743	-0.01597479	0.01094923	0	0
12.02749	-0.02004994	0.1957844	0	0	0.01588881	-0.0108903	0	0
12.04379	-0.02002364	0.1958024	0.001614137	0.00110634	0.04871755	0.03339134	0	0
12.06035	-0.02002364	0.1958024	0	0	-0.0491148	-0.03366362	0	0
12.07692	-0.02002364	0.1958024	0	0	0	0	0	0
12.09349	-0.02002364	0.1958024	0	0	0	0	0	0
12.11005	-0.02002364	0.1958024	0	0	0	0	0	0
12.12662	-0.02002364	0.1958024	0	0	0	0	0	0
12.14318	-0.02002364	0.1958024	0	0	0	0	0	0
12.15975	-0.02002364	0.1958024	0	0	0	0	0	0
12.17632	-0.02002364	0.1958024	0	0	0	0	0	0
12.1931	-0.02002364	0.1958024	0	0	0	0	0	0
12.20945	-0.02002364	0.1958024	0	0	0	0	0	0
12.22602	-0.02002364	0.1958024	0	0	0	0	0	0
12.24259	-0.02002364	0.1958024	0	0	0	0	0	0
12.25915	-0.02002364	0.1958024	0	0	0	0	0	0
12.27572	-0.02002364	0.1958024	0	0	0	0	0	0
12.29228	-0.02002364	0.1958024	0	0	0	0	0	0
12.30885	-0.02002364	0.1958024	0	0	0	0	0	0
12.32542	-0.02002364	0.1958024	0	0	0	0	0	0
12.34198	-0.02002364	0.1958024	0	0	0	0	0	0
12.35855	-0.02002364	0.1958024	0	0	0	0	0	0
12.37523	-0.02002364	0.1958024	0	0	0	0	0	0
12.45795	-0.02002364	0.1958024	0	0	0	0	0	0
12.47451	-0.02002364	0.1958024	0	0	0	0	0	0
12.49108	-0.02002364	0.1958024	0	0	0	0	0	0
12.51123	-0.02002364	0.1958024	0	0	0	0	0	0
12.52783	-0.02002364	0.1958024	0	0	0	0	0	0
12.54436	-0.02002364	0.1958024	0	0	0	0	0	0
12.56093	-0.02002364	0.1958024	0	0	0	0	0	0
12.5775	-0.02002364	0.1958024	0	0	0	0	0	0
12.59407	-0.02002364	0.1958024	0	0	0	0	0	0
12.6109	-0.02002364	0.1958024	0	0	0	0	0	0
12.6272	-0.02002364	0.1958024	0	0	0	0	0	0
12.64376	-0.02002364	0.1958024	0	0	0	0	0	0
12.66033	-0.02002364	0.1958024	0	0	0	0	0	0
12.6769	-0.02002364	0.1958024	0	0	0	0	0	0
12.69346	-0.02002364	0.1958024	0	0	0	0	0	0
12.71003	-0.02002364	0.1958024	0	0	0	0	0	0
12.7266	-0.02002364	0.1958024	0	0	0	0	0	0
12.74316	-0.02002364	0.1958024	0	0	0	0	0	0
12.75973	-0.02002364	0.1958024	0	0	0	0	0	0
12.7763	-0.02002364	0.1958024	0	0	0	0	0	0
12.79302	-0.02002364	0.1958024	0	0	0	0	0	0
12.80954	-0.02002364	0.1958024	0	0	0	0	0	0
12.826	-0.02002364	0.1958024	0	0	0	0	0	0
12.84256	-0.02002364	0.1958024	0	0	0	0	0	0
12.85913	-0.02002364	0.1958024	0	0	0	0	0	0
12.8757	-0.02002364	0.1958024	0	0	0	0	0	0
12.89226	-0.02002364	0.1958024	0	0	0	0	0	0
12.90883	-0.02002364	0.1958024	0	0	0	0	0	0
12.9254	-0.02002364	0.1958024	0	0	0	0	0	0
12.94196	-0.02002364	0.1958024	0	0	0	0	0	0
12.95864	-0.02002364	0.1958024	0	0	0	0	0	0
12.9751	-0.02002364	0.1958024	0	0	0	0	0	0
12.99166	-0.02002364	0.1958024	0	0	0	0	0	0
13.00823	-0.02002364	0.1958024	0	0	0	0	0	0
13.0248	-0.02002364	0.1958024	0	0	0	0	0	0
13.04136	-0.02002364	0.1958024	0	0	0	0	0	0
13.05793	-0.02002364	0.1958024	0	0	0	0	0	0
13.0745	-0.02002364	0.1958024	0	0	0	0	0	0
13.09106	-0.02002364	0.1958024	0	0	0	0	0	0
13.10774	-0.02002364	0.1958024	0	0	0	0	0	0
13.1242	-0.02002364	0.1958024	0	0	0	0	0	0
13.14077	-0.02002364	0.1958024	0	0	0	0	0	0
13.15733	-0.02002364	0.1958024	0	0	0	0	0	0
13.1739	-0.02002364	0.1958024	0	0	0	0	0	0
13.19046	-0.02002364	0.1958024	0	0	0	0	0	0
13.20703	-0.02002364	0.1958024	0	0	0	0	0	0
13.22359	-0.02002364	0.1958024	0	0	0	0	0	0
13.24016	-0.02002364	0.1958024	0	0	0	0	0	0
13.25673	-0.02002364	0.1958024	0	0	0	0	0	0
13.27329	-0.02002364	0.1958024	0	0	0	0	0	0
13.28986	-0.02002364	0.1958024	0	0	0	0	0	0
13.30643	-0.02002364	0.1958024	0	0	0	0	0	0
13.32299	-0.02002364	0.1958024	0	0	0	0	0	0
13.33956	-0.02002364	0.1958024	0	0	0	0	0	0
13.35642	-0.02002364	0.1958024	0	0	0	0	0	0
13.37626	-0.02002364	0.1958024	0	0	0	0	0	0
13.39294	-0.02002364	0.1958024	0	0	0	0	0	0
13.4094	-0.02002364	0.1958024	0	0	0	0	0	0
13.42597	-0.02002364	0.1958024	0	0	0	0	0	0
13.44253	-0.02002364	0.1958024	0	0	0	0	0	0
13.4591	-0.02002364	0.1958024	0	0	0	0	0	0
13.47566	-0.02002364	0.1958024	0	0	0	0	0	0
13.49252	-0.02002364	0.1958024	0	0	0	0	0	0
13.5088	-0.02002364	0.1958024	0	0	0	0	0	0
13.52536	-0.02002364	0.1958024	0	0	0	0	0	0
13.54193	-0.02002364	0.1958024	0	0	0	0	0	0
13.55856	-0.02002364	0.1958024	0	0	0	0	0	0
13.57506	-0.02002364	0.1958024	0	0	0	0	0	0
13.59163	-0.02002364	0.1958024	0	0	0	0	0	0
13.6082	-0.02002364	0.1958024	0	0	0	0	0	0
13.69103	-0.02004994	0.1957844	-0.0003175829	-0.0002176735	-0.003195044	-0.002189905	0	0
13.7577	-0.04554743	0.180872	-0.3824352	-0.2236702	-2.555907	-1.494628	0	0
13.77386	-0.06024281	0.1771841	-0.9093133	-0.2282	-6.360777	-0.05468732	0	0
13.79043	-0.07917624	0.178287	-1.14289	0.06658008	-7.137077	9.007179	0	0
13.80699	-0.100867	0.1819201	-1.309335	0.2193068	-5.02361	4.609567	0	0
13.82356	-0.1285762	0.1903177	-1.672529	0.5068798	-10.96152	8.679221	0	0
13.84013	-0.1515655	0.2015534	-1.387715	0.6782245	8.595943	5.171342	0	0
13.85669	-0.1568843	0.204094	-0.3210622	0.1533581	32.1935	-15.84141	0	0
13.87326	-0.1746752	0.2134385	-1.073923	0.5640705	-22.72268	12.39604	0	0
13.88982	-0.1837459	0.2198422	-0.5475388	0.3865494	15.88721	-5.357906	0	0
13.90639	-0.1924312	0.2259897	-0.5242754	0.3710836	0.7021329	-0.4667855	0	0
13.92296	-0.1977498	0.2297624	-0.3210505	0.2277359	6.133691	-4.326492	0	0
13.93952	-0.2028046	0.2333541	-0.3051287	0.216808	0.4805495	-0.3298228	0	0
13.95634	-0.2048489	0.2348084	-0.1215921	0.08649987	5.498631	-3.903942	0	0
13.97266	-0.2047984	0.2347725	0.003091402	-0.002200319	3.763063	-2.677054	0	0
13.98936	-0.2047984	0.2347725	0	0	-0.09361394	0.06663012	0	0
14.00579	-0.2047732	0.2347904	0.001535295	0.001092752	0.04633662	0.03298028	0	0
14.02238	-0.2047732	0.2347904	0	0	-0.0464905	-0.03308981	0	0
14.03892	-0.2047732	0.2347904	0	0	0	0	0	0
14.05549	-0.204748	0.2348084	0.001522833	0.001083883	0.04599624	0.03273803	0	0
14.07206	-0.2047227	0.2347904	0.001522745	-0.00108382	-2.645682E-06	-0.06542329	0	0
14.08862	-0.2047227	0.2347904	0	0	-0.04595653	0.03270976	0	0
14.10519	-0.2046975	0.2347725	0.001522833	-0.001083883	0.0459605	-0.03271259	0	0
14.12195	-0.2046723	0.2347545	0.001505071	-0.001071241	-0.0005329359	0.0003793202	0	0
14.13833	-0.2046218	0.2347186	0.003081499	-0.00219236	0.04757532	-0.03383447	0	0
14.15498	-0.2045966	0.2347006	0.001515244	-0.001078481	-0.04742938	0.03373051	0	0
14.17146	-0.2045209	0.2346468	0.004592929	-0.003267489	0.09289543	-0.066072	0	0
14.18802	-0.2044957	0.2346288	0.001522833	-0.001083883	-0.09289901	0.06607445	0	0
14.20459	-0.20442	0.234575	0.004568871	-0.003251273	0.09192963	-0.06541198	0	0
14.22116	-0.204319	0.2345032	0.006092581	-0.004334881	0.04598697	-0.03270427	0	0
14.23772	-0.2042433	0.2344493	0.004569397	-0.003250748	-0.04597373	0.032722	0	0
14.25429	-0.2042181	0.2344314	0.001522833	-0.001083883	-0.0919508	0.06539991	0	0
14.27086	-0.2041929	0.2344134	0.001523644	-0.00108382	2.449979E-05	1.883248E-06	0	0
14.28757	-0.2041929	0.2344134	0	0	-0.04578338	0.03256728	0	0
14.30408	-0.2042181	0.2343954	-0.001528837	-0.001087514	-0.04601721	-0.03273361	0	0
14.32423	-0.2041929	0.2343775	0.001252603	-0.0008910191	0.07586491	0.005359472	0	0
14.3408	-0.2041929	0.2343775	0	0	-0.0341129	0.02426567	0	0
14.35737	-0.2041929	0.2343775	0	0	0	0	0	0
14.37393	-0.2041929	0.2343775	0	0	0	0	0	0
14.3905	-0.2041676	0.2343954	0.001522833	0.001083883	0.04596182	0.03271352	0	0
14.40715	-0.2041676	0.2343954	0	0	-0.04584043	-0.03262713	0	0
14.42363	-0.2041676	0.2343954	0	0	0	0	0	0
14.4402	-0.2041676	0.2343954	0	0	0	0	0	0
14.45676	-0.2041676	0.2343954	0	0	0	0	0	0
14.47333	-0.2041676	0.2343954	0	0	0	0	0	0
14.4899	-0.2041676	0.2343954	0	0	0	0	0	0
14.50646	-0.2041676	0.2343954	0	0	0	0	0	0
14.52303	-0.2041424	0.2343775	0.001523732	-0.001083883	0.04598897	-0.03271352	0	0
14.53975	-0.204092	0.2343416	0.003018385	-0.002147457	0.04490836	-0.03195617	0	0
14.55626	-0.2040415	0.2342698	0.003056948	-0.004350306	0.001160621	-0.06629893	0	0
14.57273	-0.2039405	0.234198	0.006128249	-0.004358971	0.09311552	-0.0002627198	0	0
14.5893	-0.2038648	0.2341441	0.004569397	-0.003251648	-0.04718068	0.03351459	0	0
14.60586	-0.2038396	0.2341262	0.001523732	-0.001082983	-0.09192365	0.0654542	0	0
14.62243	-0.2037891	0.2340902	0.003046565	-0.002167765	0.04596183	-0.03274067	0	0
14.639	-0.2037639	0.2340723	0.001523644	-0.00108382	-0.04596315	0.03271447	0	0
14.65583	-0.2037386	0.2340543	0.001499901	-0.001066931	-0.0007109526	0.0005057278	0	0
14.67213	-0.2037134	0.2340364	0.001548242	-0.001101318	0.00145899	-0.001037831	0	0
14.6887	-0.2036882	0.2340184	0.001522833	-0.001083883	-0.0007730305	0.0005304164	0	0
14.70536	-0.2036377	0.2339825	0.003029501	-0.002154093	0.04533954	-0.0322054	0	0
14.72187	-0.2036124	0.2339646	0.001528837	-0.001087514	-0.04523416	0.03214964	0	0
14.7384	-0.2035367	0.2339107	0.004581903	-0.003259905	0.09241835	-0.06575974	0	0
14.75496	-0.2034862	0.2338748	0.003047464	-0.002167765	-0.04637084	0.03300454	0	0
14.77153	-0.203461	0.2338927	0.001523732	0.001083883	-0.04598897	0.09814058	0	0
14.78809	-0.2033348	0.2339825	0.007618661	0.005419413	0.1839559	0.1308541	0	0
14.80493	-0.2031076	0.2341082	0.01349452	0.007465091	0.1759161	0.06124511	0	0
14.82123	-0.2026279	0.234198	0.02943333	0.005507607	0.4810481	-0.05907869	0	0
14.83795	-0.1997477	0.233803	0.1722136	-0.02361703	4.323676	-0.8819533	0	0
14.85436	-0.1935211	0.2330848	0.3794836	-0.0437718	6.255782	-0.608307	0	0
14.87093	-0.1775831	0.2318458	0.9620767	-0.0747915	17.66813	-0.9407252	0	0
14.88749	-0.1668552	0.2315225	0.6475772	-0.01951259	-9.492162	1.668417	0	0
14.90406	-0.1429395	0.2305347	1.443633	-0.05962524	24.02639	-1.210672	0	0
14.92063	-0.1239663	0.2304988	1.145292	-0.002168665	-9.004457	1.734143	0	0
14.93719	-0.1051112	0.2303192	1.138164	-0.01084152	-0.2151503	-0.2617625	0	0
14.95376	-0.08233973	0.2300139	1.374567	-0.0184314	7.135078	-0.2290761	0	0
14.97032	-0.06729298	0.2298163	0.9082757	-0.01192631	-14.07351	0.1963354	0	0
14.98706	-0.05814491	0.2293313	0.546765	-0.02898605	-10.85698	-0.5123425	0	0
15.00357	-0.04604638	0.2283433	0.7327577	-0.05983943	5.595074	-0.9281381	0	0
15.02002	-0.03490687	0.2231321	0.6768628	-0.3166423	-1.695404	-7.789337	0	0
15.03659	-0.0279138	0.2183496	0.4221025	-0.2886739	-7.714215	0.8468913	0	0
15.05316	-0.0243899	0.2159394	0.2127152	-0.1454903	-6.319501	4.321414	0	0
15.06972	-0.01881357	0.2121248	0.3366074	-0.2302625	3.739289	-2.558578	0	0
15.08629	-0.01497257	0.2094968	0.2318568	-0.1586381	-3.161562	2.161753	0	0
15.10286	-0.01486733	0.2094247	0.006352688	-0.004347224	-6.806118	4.656777	0	0
15.12193	-0.01499888	0.2095148	-0.006896332	0.004719059	-0.3717284	0.2543731	0	0
15.1385	-0.01499888	0.2095148	0	0	0.1934855	-0.1323993	0	0
15.15507	-0.01502519	0.2095328	-0.001588066	0.001086519	-0.04792794	0.03279119	0	0
15.17169	-0.01502519	0.2095328	0	0	0.04784944	-0.03273749	0	0
15.1882	-0.01502519	0.2095328	0	0	0	0	0	0
15.22133	-0.0150515	0.2095148	-0.0007940789	-0.0005432905	-0.01599531	-0.01094363	0	0
15.2379	-0.0150515	0.2095148	0	0	0.01597751	0.01093145	0	0
15.25447	-0.0150515	0.2095148	0	0	0	0	0	0
15.27103	-0.01510411	0.2095148	-0.00317626	0	-0.09586522	0	0	0
15.2876	-0.01510411	0.2095148	0	0	0.09586522	0	0	0
15.30416	-0.01513042	0.2094968	-0.001588158	-0.001086581	-0.04793346	-0.03279497	0	0
15.32073	-0.01515673	0.2094787	-0.001588158	-0.001087481	0	-2.714977E-05	0	0
15.3373	-0.01515673	0.2094787	0	0	0.04793346	0.03282212	0	0
15.35386	-0.01518304	0.2094607	-0.001588158	-0.001086581	-0.04793346	-0.03279497	0	0
15.37043	-0.01518304	0.2094247	0	-0.002173162	0.04793346	-0.03279497	0	0
15.387	-0.01520935	0.2094067	-0.001588158	-0.001086581	-0.04793346	0.03279497	0	0
15.40384	-0.01523566	0.2093887	-0.001561549	-0.001069261	0.0007963104	0.0005183477	0	0
15.42036	-0.01523566	0.2093887	0	0	0.04680835	0.03205171	0	0
15.43687	-0.01523566	0.2093887	0	0	0	0	0	0
15.45338	-0.01526197	0.2093707	-0.001593478	-0.001090221	-0.04825377	-0.03301411	0	0
15.46983	-0.01531459	0.2093347	-0.003198539	-0.002188406	-0.04869451	-0.03331684	0	0
15.4864	-0.01539352	0.2092807	-0.004764418	-0.003260643	-0.0474262	-0.03247515	0	0
15.50296	-0.01547245	0.2092267	-0.004764143	-0.003259556	8.277859E-06	3.280927E-05	0	0
15.51953	-0.01563031	0.2091187	-0.009528835	-0.006521286	-0.1438028	-0.09844203	0	0
15.5361	-0.01581447	0.2089926	-0.01111613	-0.007606529	-0.04790598	-0.03275366	0	0
15.55295	-0.0158934	0.2089386	-0.004683212	-0.003205105	0.1924838	0.1316981	0	0
15.56946	-0.0158934	0.2089386	0	0	0.140362	0.09606119	0	0
15.58597	-0.0158934	0.2089386	0	0	0	0	0	0
15.60249	-0.0158934	0.2089386	0	0	0	0	0	0
15.619	-0.0158934	0.2089386	0	0	0	0	0	0
15.6355	-0.0158934	0.2089386	0	0	0	0	0	0
15.65207	-0.0158934	0.2089386	0	0	0	0	0	0
15.66863	-0.0158934	0.2089386	0	0	0	0	0	0
15.68555	-0.0158934	0.2089386	0	0	0	0	0	0
15.70206	-0.0158934	0.2089386	0	0	0	0	0	0
15.71857	-0.0158934	0.2089386	0	0	0	0	0	0
15.7349	-0.0158934	0.2089386	0	0	0	0	0	0
15.75146	-0.0158934	0.2089386	0	0	0	0	0	0
15.7681	-0.0158934	0.2089386	0	0	0	0	0	0
15.7846	-0.01591971	0.2089206	-0.001595137	-0.001091356	-0.04814271	-0.03293813	0	0
15.80116	-0.01591971	0.2089206	0	0	0.04824964	0.0330113	0	0
15.81773	-0.01594602	0.2089026	-0.001588158	-0.001087481	-0.04793346	-0.03282212	0	0
15.8343	-0.01594602	0.2089026	0	0	0.04793346	0.03282212	0	0
15.85087	-0.01594602	0.2089026	0	0	0	0	0	0
15.86767	-0.01594602	0.2089026	0	0	0	0	0	0
15.88418	-0.01597233	0.2088846	-0.001593458	-0.001090284	-0.0478373	-0.0327315	0	0
15.90056	-0.01597233	0.2088846	0	0	0.04844902	0.03315005	0	0
15.91713	-0.01597233	0.2088846	0	0	0	0	0	0
15.93372	-0.01597233	0.2088846	0	0	0	0	0	0
15.95026	-0.01597233	0.2088846	0	0	0	0	0	0
15.98613	-0.01599864	0.2088666	-0.0007334279	-0.0005017945	-0.01399248	-0.009573336	0	0
16.0027	-0.01602494	0.2088486	-0.001588046	-0.001086581	-0.01629745	-0.0111518	0	0
16.01927	-0.01602494	0.2088486	0	0	0.04792869	0.03279402	0	0
16.03584	-0.01602494	0.2088486	0	0	0	0	0	0
16.0524	-0.01605125	0.2088306	-0.001588066	-0.001087418	-0.04792794	-0.03281834	0	0
16.06897	-0.01605125	0.2088306	0	0	0.0479307	0.03282023	0	0
16.08554	-0.01605125	0.2088306	0	0	0	0	0	0
16.1021	-0.01605125	0.2088306	0	0	0	0	0	0
16.11867	-0.01605125	0.2088306	0	0	0	0	0	0
16.13536	-0.01607756	0.2088126	-0.001575799	-0.001078202	-0.04737771	-0.03241704	0	0
16.1518	-0.01607756	0.2088126	0	0	0.04755771	0.03254019	0	0
16.16839	-0.01607756	0.2088126	0	0	0	0	0	0
16.18494	-0.01607756	0.2088126	0	0	0	0	0	0
16.2015	-0.01607756	0.2088126	0	0	0	0	0	0
16.21807	-0.01607756	0.2088126	0	0	0	0	0	0
16.23493	-0.01607756	0.2088126	0	0	0	0	0	0
16.25145	-0.01607756	0.2088126	0	0	0	0	0	0
16.26777	-0.01607756	0.2088126	0	0	0	0	0	0
16.28434	-0.01607756	0.2088126	0	0	0	0	0	0
16.3009	-0.01607756	0.2088126	0	0	0	0	0	0
16.31749	-0.01607756	0.2088126	0	0	0	0	0	0
16.33404	-0.01607756	0.2088126	0	0	0	0	0	0
16.36717	-0.01607756	0.2088126	0	0	0	0	0	0
16.38404	-0.01607756	0.2088126	0	0	0	0	0	0
16.4003	-0.01607756	0.2088126	0	0	0	0	0	0
16.41687	-0.01610387	0.2087946	-0.001588066	-0.001086519	-0.04837066	-0.03309409	0	0
16.43358	-0.01610387	0.2087946	0	0	0.04773012	0.03265585	0	0
16.45009	-0.01610387	0.2087946	0	0	0	0	0	0
16.4666	-0.01610387	0.2087946	0	0	0	0	0	0
16.48314	-0.01610387	0.2087946	0	0	0	0	0	0
16.50012	-0.01610387	0.2087946	0	0	0	0	0	0
16.51627	-0.01610387	0.2087946	0	0	0	0	0	0
16.53284	-0.01610387	0.2087946	0	0	0	0	0	0
16.54966	-0.01610387	0.2087946	0	0	0	0	0	0
16.56617	-0.01610387	0.2087946	0	0	0	0	0	0
16.58254	-0.01610387	0.2087946	0	0	0	0	0	0
16.60436	-0.01610387	0.2087946	0	0	0	0	0	0
16.62093	-0.01610387	0.2087946	0	0	0	0	0	0
16.63772	-0.01610387	0.2087946	0	0	0	0	0	0
16.65423	-0.01610387	0.2087946	0	0	0	0	0	0
16.67063	-0.01610387	0.2087946	0	0	0	0	0	0
16.68719	-0.01610387	0.2087946	0	0	0	0	0	0
16.70377	-0.01610387	0.2087946	0	0	0	0	0	0
16.72033	-0.01610387	0.2087946	0	0	0	0	0	0
16.73689	-0.01610387	0.2087946	0	0	0	0	0	0
16.75346	-0.01610387	0.2087946	0	0	0	0	0	0
16.77003	-0.01610387	0.2087946	0	0	0	0	0	0
16.78916	-0.01610387	0.2087946	0	0	0	0	0	0
16.80573	-0.01610387	0.2087946	0	0	0	0	0	0
16.82229	-0.01610387	0.2087946	0	0	0	0	0	0
16.83886	-0.01610387	0.2087946	0	0	0	0	0	0
16.85543	-0.01610387	0.2087946	0	0	0	0	0	0
16.87199	-0.01610387	0.2087946	0	0	0	0	0	0
16.88856	-0.01610387	0.2087946	0	0	0	0	0	0
16.90513	-0.01610387	0.2087946	0	0	0	0	0	0
16.9217	-0.01610387	0.2087946	0	0	0	0	0	0
16.93826	-0.01610387	0.2087946	0	0	0	0	0	0
17.03767	-0.01610387	0.2087946	0	0	0	0	0	0
17.05423	-0.01610387	0.2087946	0	0	0	0	0	0
17.0708	-0.01610387	0.2087946	0	0	0	0	0	0
17.08737	-0.01610387	0.2087946	0	0	0	0	0	0
17.10394	-0.01610387	0.2087946	0	0	0	0	0	0
17.1205	-0.01610387	0.2087946	0	0	0	0	0	0
17.13707	-0.01610387	0.2087946	0	0	0	0	0	0
17.15364	-0.01610387	0.2087946	0	0	0	0	0	0
17.1702	-0.01610387	0.2087946	0	0	0	0	0	0
17.18677	-0.01610387	0.2087946	0	0	0	0	0	0
17.20334	-0.01610387	0.2087946	0	0	0	0	0	0
17.2199	-0.01610387	0.2087946	0	0	0	0	0	0
17.32569	-0.01610387	0.2087946	0	0	0	0	0	0
17.34226	-0.01610387	0.2087946	0	0	0	0	0	0
17.35882	-0.01610387	0.2087946	0	0	0	0	0	0
17.37539	-0.01610387	0.2087946	0	0	0	0	0	0
17.39195	-0.01610387	0.2087946	0	0	0	0	0	0
17.40852	-0.01610387	0.2087946	0	0	0	0	0	0
17.42509	-0.01610387	0.2087946	0	0	0	0	0	0
17.4418	-0.01610387	0.2087946	0	0	0	0	0	0
17.45822	-0.01610387	0.2087946	0	0	0	0	0	0
17.47483	-0.01610387	0.2087946	0	0	0	0	0	0
17.50792	-0.01610387	0.2087946	0	0	0	0	0	0
17.52449	-0.01610387	0.2087946	0	0	0	0	0	0
17.54106	-0.01610387	0.2087946	0	0	0	0	0	0
17.55762	-0.01610387	0.2087946	0	0	0	0	0	0
17.57419	-0.01610387	0.2087946	0	0	0	0	0	0
17.59075	-0.01610387	0.2087946	0	0	0	0	0	0
17.60732	-0.01610387	0.2087946	0	0	0	0	0	0
17.62389	-0.01610387	0.2087946	0	0	0	0	0	0
17.64045	-0.01610387	0.2087946	0	0	0	0	0	0
17.65702	-0.01610387	0.2087946	0	0	0	0	0	0
17.67359	-0.01610387	0.2087946	0	0	0	0	0	0
17.69016	-0.01610387	0.2087946	0	0	0	0	0	0
17.70672	-0.01610387	0.2087946	0	0	0	0	0	0
17.72401	-0.01610387	0.2087946	0	0	0	0	0	0
17.73985	-0.01610387	0.2087946	0	0	0	0	0	0
17.78955	-0.01610387	0.2087946	0	0	0	0	0	0
17.80612	-0.01610387	0.2087946	0	0	0	0	0	0
17.82269	-0.01610387	0.2087946	0	0	0	0	0	0
17.83926	-0.01610387	0.2087946	0	0	0	0	0	0
17.85797	-0.01610387	0.2087946	0	0	0	0	0	0
17.87454	-0.01610387	0.2087946	0	0	0	0	0	0
17.8911	-0.01610387	0.2087946	0	0	0	0	0	0
17.90767	-0.01610387	0.2087946	0	0	0	0	0	0
17.92424	-0.01610387	0.2087946	0	0	0	0	0	0
17.9408	-0.01610387	0.2087946	0	0	0	0	0	0
17.95737	-0.01610387	0.2087946	0	0	0	0	0	0
17.97394	-0.01610387	0.2087946	0	0	0	0	0	0
17.9905	-0.01610387	0.2087946	0	0	0	0	0	0
18.00707	-0.01610387	0.2087946	0	0	0	0	0	0
18.02364	-0.01610387	0.2087946	0	0	0	0	0	0
18.04073	-0.01610387	0.2087946	0	0	0	0	0	0
18.05677	-0.01610387	0.2087946	0	0	0	0	0	0
18.07334	-0.01610387	0.2087946	0	0	0	0	0	0
18.12304	-0.01610387	0.2087946	0	0	0	0	0	0
18.15617	-0.01610387	0.2087946	0	0	0	0	0	0
18.17274	-0.01610387	0.2087946	0	0	0	0	0	0
18.18931	-0.01610387	0.2087946	0	0	0	0	0	0
18.20587	-0.01610387	0.2087946	0	0	0	0	0	0
18.22244	-0.01610387	0.2087946	0	0	0	0	0	0
18.23901	-0.01610387	0.2087946	0	0	0	0	0	0
18.25558	-0.01610387	0.2087946	0	0	0	0	0	0
18.27214	-0.01610387	0.2087946	0	0	0	0	0	0
18.28871	-0.01610387	0.2087946	0	0	0	0	0	0
18.30528	-0.01610387	0.2087946	0	0	0	0	0	0
18.32193	-0.01610387	0.2087946	0	0	0	0	0	0
18.33845	-0.01610387	0.2087946	0	0	0	0	0	0
18.35498	-0.01610387	0.2087946	0	0	0	0	0	0
18.37154	-0.01610387	0.2087946	0	0	0	0	0	0
18.38811	-0.01610387	0.2087946	0	0	0	0	0	0
18.40468	-0.01610387	0.2087946	0	0	0	0	0	0
18.42125	-0.01610387	0.2087946	0	0	0	0	0	0
18.43781	-0.01610387	0.2087946	0	0	0	0	0	0
18.45438	-0.01610387	0.2087946	0	0	0	0	0	0
18.47095	-0.01610387	0.2087946	0	0	0	0	0	0
18.48751	-0.01610387	0.2087946	0	0	0	0	0	0
18.50408	-0.01610387	0.2087946	0	0	0	0	0	0
18.52065	-0.01610387	0.2087946	0	0	0	0	0	0
18.53759	-0.01610387	0.2087946	0	0	0	0	0	0
18.55411	-0.01610387	0.2087946	0	0	0	0	0	0
18.57035	-0.01610387	0.2087946	0	0	0	0	0	0
18.64181	-0.01610387	0.2087946	0	0	0	0	0	0
18.65838	-0.01610387	0.2087946	0	0	0	0	0	0
18.67519	-0.01610387	0.2087946	0	0	0	0	0	0
18.70808	-0.01610387	0.2087946	0	0	0	0	0	0
18.72472	-0.01610387	0.2087946	0	0	0	0	0	0
18.74124	-0.01610387	0.2087946	0	0	0	0	0	0
18.76499	-0.01610387	0.2087946	0	0	0	0	0	0
18.78176	-0.01610387	0.2087946	0	0	0	0	0	0
18.79812	-0.01613018	0.2088126	-0.001608134	0.001100326	-0.04853359	0.03320792	0	0
18.81469	-0.01613018	0.2088126	0	0	0.04884003	-0.03341759	0	0
18.83126	-0.01613018	0.2088126	0	0	0	0	0	0
18.84782	-0.01613018	0.2088126	0	0	0	0	0	0
18.86439	-0.01613018	0.2088126	0	0	0	0	0	0
18.88134	-0.01613018	0.2088126	0	0	0	0	0	0
18.89752	-0.01613018	0.2088126	0	0	0	0	0	0
18.91409	-0.01613018	0.2088126	0	0	0	0	0	0
18.93066	-0.01613018	0.2088126	0	0	0	0	0	0
18.94723	-0.01613018	0.2088126	0	0	0	0	0	0
18.9639	-0.01613018	0.2088126	0	0	0	0	0	0
18.98036	-0.01615649	0.2088306	-0.001598001	0.001093316	-0.04822777	0.03299633	0	0
18.99693	-0.0161828	0.2088486	-0.001587954	0.001087418	0.0003041678	-0.0001785449	0	0
19.01349	-0.0161828	0.2088486	0	0	0.04792455	-0.03281834	0	0
19.03006	-0.0161828	0.2088486	0	0	0	0	0	0
19.07976	-0.01694575	0.2095148	-0.01535056	0.01340279	-0.2316404	0.2022486	0	0
19.09633	-0.01836636	0.2107389	-0.08574817	0.07388776	-1.062302	0.9127199	0	0
19.1129	-0.02386389	0.214716	-0.33187	0.2400898	-7.4284	5.016275	0	0
19.12952	-0.03004359	0.219015	-0.3718089	0.2586535	-1.203486	0.5593838	0	0
19.14603	-0.03467031	0.2223233	-0.2801727	0.2003313	2.765584	-1.760165	0	0
19.1626	-0.04728053	0.2355444	-0.7611541	0.7980299	-14.53948	18.0677	0	0
19.17916	-0.05331784	0.2506844	-0.3644549	0.9139581	11.97309	3.498922	0	0
19.19573	-0.06024281	0.2739672	-0.4179917	1.405354	-1.615836	14.83121	0	0
19.2123	-0.06359833	0.2849512	-0.2025397	0.6629904	6.502354	-22.40458	0	0
19.22887	-0.06941461	0.2993602	-0.351031	0.8696346	-4.481219	6.236175	0	0
19.2456	-0.07925469	0.3135825	-0.5880587	0.8499426	-7.117456	-0.5913087	0	0
19.26211	-0.08738218	0.3217452	-0.492276	0.4944096	2.881275	-10.69492	0	0
19.27856	-0.09581101	0.3275852	-0.5123043	0.3549534	-0.6076047	-4.230714	0	0
19.29513	-0.1050331	0.3338712	-0.5565183	0.3793361	-1.338851	0.7383358	0	0
19.3117	-0.1114312	0.3382283	-0.3863251	0.2630895	5.136736	-3.508531	0	0
19.32826	-0.1199996	0.3440498	-0.5171891	0.3513826	-3.950166	2.665151	0	0
19.34517	-0.1262719	0.3483713	-0.3710378	0.2556379	4.366369	-2.860436	0	0
19.36139	-0.1318878	0.3521751	-0.3460677	0.2344007	0.7536429	-0.6409771	0	0
19.37796	-0.1377019	0.355979	-0.3509392	0.229608	-0.1485447	-0.146142	0	0
19.39453	-0.1399992	0.3574257	-0.1386624	0.08731903	6.406525	-4.294289	0	0
19.4111	-0.1413407	0.358283	-0.08097351	0.05174635	1.741055	-1.073586	0	0
19.42766	-0.1415728	0.3581222	-0.01401231	-0.009703115	2.020893	-1.854548	0	0
19.44423	-0.1419855	0.3578364	-0.02490718	-0.01724938	-0.3288077	-0.2277468	0	0
19.4608	-0.1421402	0.3577293	-0.009339742	-0.006466944	0.4698261	0.3254146	0	0
19.47737	-0.1422176	0.3576757	-0.004668972	-0.003234371	0.1409642	0.09755923	0	0
19.49428	-0.1423723	0.3575685	-0.009149243	-0.006337413	-0.1338282	-0.09268957	0	0
19.5105	-0.1424496	0.3575149	-0.004769254	-0.003303204	0.132196	0.09157787	0	0
19.52707	-0.1440737	0.3564255	-0.09803042	-0.06575776	-2.844262	-1.904728	0	0
19.54363	-0.1476544	0.3539431	-0.2161264	-0.1498406	-3.564142	-2.537626	0	0
19.5602	-0.1567816	0.3476034	-0.5509216	-0.3826632	-10.10414	-7.026599	0	0
19.57684	-0.1643975	0.3422998	-0.4578007	-0.3188077	2.804582	1.923177	0	0
19.59333	-0.1716366	0.3372462	-0.438769	-0.3063042	0.5743788	0.3773565	0	0
19.6099	-0.1783223	0.3325675	-0.4035535	-0.2824031	1.065012	0.7228347	0	0
19.62647	-0.185653	0.3274244	-0.4424793	-0.3104385	-1.174783	-0.8461101	0	0
19.64304	-0.1915436	0.3232811	-0.3555596	-0.2500899	2.623242	1.821323	0	0
19.66294	-0.1958262	0.3202628	-0.2151514	-0.1516371	3.849718	2.699386	0	0
19.67951	-0.1987869	0.3181731	-0.1787035	-0.1261369	0.9993308	0.6991652	0	0
19.69608	-0.2042686	0.3142613	-0.3308764	-0.2361163	-4.592586	-3.319185	0	0
19.71264	-0.2088314	0.3109207	-0.2754126	-0.2016337	1.673899	1.040686	0	0
19.72921	-0.2122289	0.308509	-0.2050714	-0.1455755	2.122904	1.691841	0	0
19.74596	-0.2125558	0.3082767	-0.01951924	-0.01386872	5.569517	3.9533	0	0
19.76234	-0.2125558	0.3082767	0	0	0.5891258	0.4185829	0	0
19.77898	-0.2125558	0.3082767	0	0	0	0	0	0
19.79549	-0.2125558	0.3082767	0	0	0	0	0	0
19.81204	-0.2125558	0.3082767	0	0	0	0	0	0
19.82861	-0.2125558	0.3082767	0	0	0	0	0	0
19.84518	-0.2125809	0.3082946	-0.001517348	0.001079323	-0.04579366	0.03257403	0	0
19.86174	-0.2126061	0.3083124	-0.001517523	0.001077648	-5.273949E-06	-5.054699E-05	0	0
19.87855	-0.2126312	0.3083303	-0.001496369	0.001063769	0.0006338336	-0.0004158469	0	0
19.89488	-0.2126312	0.3083303	0	0	0.04516311	-0.03210647	0	0
19.96114	-0.2126563	0.3083481	-0.000379348	0.0002693888	-0.004593141	0.003261757	0	0
19.97771	-0.2126563	0.3083481	0	0	0.004579604	-0.003252143	0	0
19.99428	-0.2126563	0.3083481	0	0	0	0	0	0
20.01085	-0.2126815	0.308366	-0.001518248	0.001079323	-0.04582081	0.03257403	0	0
20.02741	-0.2126815	0.308366	0	0	0.04582081	-0.03257403	0	0
20.04398	-0.2126815	0.308366	0	0	0	0	0	0
20.06055	-0.2126815	0.308366	0	0	0	0	0	0
20.0772	-0.2126563	0.3083481	0.001510769	-0.001074006	0.04548251	-0.03233354	0	0
20.09368	-0.2126563	0.3083481	0	0	-0.04559771	0.03241544	0	0
20.11025	-0.2126815	0.3083303	-0.001518248	-0.001077524	-0.04593716	-0.03260232	0	0
20.12681	-0.2126815	0.3083303	0	0	0.04582081	0.03251974	0	0
20.14338	-0.2126815	0.3083303	0	0	0	0	0	0
20.17677	-0.2126563	0.3083124	0.0007534423	-0.0005356225	0.01508288	-0.01072243	0	0
20.19328	-0.2126563	0.3083124	0	0	-0.01510018	0.01073473	0	0
20.20965	-0.2126563	0.3083124	0	0	0	0	0	0
20.2263	-0.2126563	0.3083124	0	0	0	0	0	0
20.24278	-0.2126312	0.3082946	0.001525603	-0.001083386	0.04604545	-0.03269855	0	0
20.25935	-0.2126312	0.3082946	0	0	-0.04616771	0.03278537	0	0
20.27592	-0.2126061	0.3083124	0.001518248	0.001077524	0.04582081	0.03251974	0	0
20.29248	-0.2126061	0.3083124	0	0	-0.04582081	-0.03251974	0	0
20.30905	-0.2125809	0.3082946	0.001517348	-0.001077524	0.04579366	-0.03251974	0	0
20.32562	-0.2125055	0.3083481	0.004552945	0.003234371	0.09161447	0.1301333	0	0
20.34218	-0.2119522	0.3086697	0.033399	0.01941386	0.8706258	0.488326	0	0
20.3589	-0.211273	0.3089735	0.04063053	0.01816914	0.2172848	-0.03739984	0	0
20.37532	-0.2106692	0.3090449	0.03678083	0.004352782	-0.1161841	-0.4169786	0	0
20.39188	-0.2099644	0.3086876	0.04253702	-0.02156847	0.1745057	-0.7858334	0	0
20.40845	-0.2082773	0.3077765	0.1018377	-0.05499691	1.789699	-1.008872	0	0
20.42502	-0.2030823	0.3053465	0.3135667	-0.1466692	6.389995	-2.766675	0	0
20.44196	-0.1879905	0.2994854	0.8908414	-0.3459754	17.22781	-5.947964	0	0
20.45815	-0.169771	0.2949277	1.125256	-0.2814856	7.07505	1.946418	0	0
20.47472	-0.1369014	0.2893321	1.98401	-0.337749	26.21452	-1.717509	0	0
20.49129	-0.1071148	0.2861314	1.797926	-0.1931934	-5.616009	4.362695	0	0
20.50801	-0.06716199	0.2822684	2.389546	-0.2310436	17.77326	-1.137084	0	0
20.52442	-0.04102959	0.2792991	1.592203	-0.1809177	-24.06524	1.512889	0	0
20.54099	-0.01236779	0.2749693	1.73003	-0.2613455	4.179114	-2.438686	0	0
20.55755	-0.00228947	0.2714438	0.6083987	-0.2128238	-33.85284	1.46447	0	0
20.57412	0.01052593	0.2656616	0.7735388	-0.3490135	4.984225	-4.110449	0	0
20.60927	0.02846599	0.253373	0.5103229	-0.3495614	-5.089093	-0.01059241	0	0
20.62584	0.04047788	0.2451797	0.7250388	-0.4945476	4.15138	-2.803206	0	0
20.6426	0.04620393	0.2412692	0.3416915	-0.2333515	-11.50323	7.837796	0	0
20.65897	0.05184823	0.2374112	0.3446983	-0.2356144	0.09074931	-0.068299	0	0
20.67562	0.05465604	0.2354546	0.1686449	-0.1175142	-5.331099	3.576213	0	0
20.6921	0.05819736	0.232995	0.2148433	-0.1492204	1.39435	-0.9569501	0	0
20.70867	0.05990193	0.2318278	0.102888	-0.07045192	-3.387396	2.383273	0	0
20.72524	0.06040013	0.2314148	0.03007106	-0.02493146	-2.197621	1.37381	0	0
20.74217	0.06037391	0.2314327	-0.001548901	0.00106062	-0.9439682	0.7759559	0	0
20.75837	0.06037391	0.2314327	0	0	0.04674593	-0.03200957	0	0
20.77494	0.06034769	0.2314148	-0.001582557	-0.00108382	-0.04828983	-0.03307147	0	0
20.79171	0.06032147	0.2314327	-0.001564055	0.001070997	0.0005550721	0.0646455	0	0
20.80807	0.06032147	0.2314327	0	0	0.04720328	-0.03232275	0	0
20.87434	0.06013792	0.2313429	-0.002769724	-0.001355039	-0.0335172	-0.01639771	0	0
20.89091	0.06013792	0.2313429	0	0	0.03343771	0.01635882	0	0
20.90747	0.0601117	0.231325	-0.001582782	-0.00108382	-0.04777121	-0.03271164	0	0
20.92404	0.06008548	0.231307	-0.00158274	-0.001083945	1.285986E-06	-3.766605E-06	0	0
20.94061	0.06005926	0.231289	-0.001582782	-0.00108382	-1.285986E-06	3.766605E-06	0	0
20.95732	0.06000682	0.231289	-0.003137168	0	-0.04670177	0.03256355	0	0
20.97374	0.06000682	0.231289	0	0	0.09467992	0	0	0
20.99031	0.06000682	0.231289	0	0	0	0	0	0
21.00687	0.06000682	0.231289	0	0	0	0	0	0
21.02344	0.0599806	0.2312711	-0.001582782	-0.00108472	-0.04777121	-0.03273879	0	0
21.04001	0.0599806	0.2312711	0	0	0.04776846	0.0327369	0	0
21.0569	0.0599806	0.2312711	0	0	0	0	0	0
21.07314	0.05995438	0.2312531	-0.001613999	-0.001105196	-0.0487106	-0.03335489	0	0
21.08971	0.05992816	0.2312352	-0.001582557	-0.00108382	0.0009581852	0.0006514307	0	0
21.10643	0.05990193	0.2312172	-0.001568159	-0.001073807	0.0004325407	0.0003008114	0	0
21.12295	0.05990193	0.2312172	0	0	0.04718317	0.03230897	0	0
21.13946	0.05987571	0.2311992	-0.001588268	-0.001088479	-0.04809459	-0.03296041	0	0
21.15598	0.05984949	0.2311813	-0.001587168	-0.001086823	3.330536E-05	5.013073E-05	0	0
21.17254	0.05984949	0.2311813	0	0	0.04796985	0.03284766	0	0
21.18911	0.05977083	0.2311274	-0.004748122	-0.003251461	-0.1433069	-0.09813493	0	0
21.20568	0.0597446	0.2311094	-0.001582782	-0.00108472	0.09553014	0.06539237	0	0
21.22224	0.05961349	0.2310196	-0.007914823	-0.005420625	-0.1911124	-0.1308654	0	0
21.23881	0.05953483	0.2309299	-0.004747254	-0.005418753	0.09559191	5.649256E-05	0	0
21.25538	0.05932504	0.2307862	-0.0126654	-0.008674358	-0.2389701	-0.09825436	0	0
21.27205	0.05927259	0.2307143	-0.00314551	-0.004308403	0.2864205	0.1313564	0	0
21.28856	0.05911525	0.2306066	-0.009530059	-0.006527264	-0.1923981	-0.06686527	0	0
21.30508	0.05906281	0.2305706	-0.003175661	-0.002175302	0.1924074	0.1317749	0	0
21.32209	0.05898413	0.2305168	-0.004625258	-0.003166875	-0.04323868	-0.02957671	0	0
21.33859	0.05898413	0.2305168	0	0	0.1379939	0.09448326	0	0
21.35511	0.05895791	0.2304988	-0.001587901	-0.001088228	-0.04808626	-0.0329547	0	0
21.37134	0.05893168	0.2304808	-0.001615367	-0.001105975	-0.0008386628	-0.0005419296	0	0
21.38813	0.05893168	0.2304808	0	0	0.048918	0.03349215	0	0
21.40448	0.05895791	0.2304988	0.001604434	0.00109849	0.04842471	0.03315441	0	0
21.42104	0.05895791	0.2304988	0	0	-0.04874742	-0.03337536	0	0
21.43761	0.05895791	0.2304988	0	0	0	0	0	0
21.45418	0.05893168	0.2304808	-0.001583007	-0.00108382	-0.04777525	-0.03270976	0	0
21.47075	0.05893168	0.2304808	0	0	0.04777525	0.03270976	0	0
21.48731	0.05893168	0.2304808	0	0	0	0	0	0
21.50388	0.05893168	0.2304808	0	0	0	0	0	0
21.52045	0.05893168	0.2304808	0	0	0	0	0	0
21.54121	0.05893168	0.2304808	0	0	0	0	0	0
21.55778	0.05893168	0.2304808	0	0	0	0	0	0
21.64081	0.05893168	0.2304808	0	0	0	0	0	0
21.65734	0.05893168	0.2304808	0	0	0	0	0	0
21.67375	0.05893168	0.2304808	0	0	0	0	0	0
21.69031	0.05893168	0.2304808	0	0	0	0	0	0
21.70688	0.05893168	0.2304808	0	0	0	0	0	0
21.72345	0.05890546	0.2304629	-0.001582418	-0.001083571	-0.04775197	-0.03269847	0	0
21.74002	0.05890546	0.2304629	0	0	0.04775747	0.03270223	0	0
21.75658	0.05887923	0.2304449	-0.001583007	-0.00108472	-0.04778075	-0.03274067	0	0
21.77315	0.05887923	0.2304449	0	0	0.04777525	0.0327369	0	0
21.78992	0.05885301	0.230427	-0.001563922	-0.001070753	-0.046913	-0.03211941	0	0
21.80628	0.05882679	0.230409	-0.001602336	-0.00109721	-0.001159355	-0.0007984707	0	0
21.82294	0.05872189	0.2303012	-0.006297727	-0.006469713	-0.1421901	-0.162695	0	0
21.83945	0.05861698	0.2302294	-0.006352281	-0.004351106	-0.001644647	0.06386982	0	0
21.85598	0.05783018	0.2296906	-0.04760117	-0.03259956	-1.248343	-0.8549023	0	0
21.87255	0.0534228	0.2267084	-0.2660297	-0.1800032	-6.599786	-4.453778	0	0
21.88912	0.04594133	0.2215502	-0.4515825	-0.3113469	-5.599992	-3.963961	0	0
21.90569	0.03446004	0.2137264	-0.6930124	-0.472247	-7.28637	-4.855974	0	0
21.92251	0.02491589	0.207192	-0.5671404	-0.3882936	3.769101	2.513895	0	0
21.93903	0.01544614	0.2007424	-0.5735103	-0.3906043	-0.1910576	-0.06930599	0	0
21.95555	0.003368408	0.1924652	-0.7311176	-0.5010536	-4.771428	-3.343761	0	0
21.97205	-0.00536837	0.1865085	-0.5293641	-0.3609198	6.10933	4.243413	0	0
21.98852	-0.01641958	0.1789921	-0.6710696	-0.4564205	-4.297709	-2.896388	0	0
22.00508	-0.02375869	0.1740188	-0.4429896	-0.3001921	6.904135	4.729137	0	0
22.02165	-0.02846599	0.1708519	-0.2841336	-0.1911508	4.794284	3.290873	0	0
22.03822	-0.03601074	0.1657998	-0.4554019	-0.3049465	-5.168889	-3.434362	0	0
22.05479	-0.039243	0.1635712	-0.1950996	-0.1345169	7.855941	5.143576	0	0
22.07135	-0.04168636	0.1619219	-0.1474816	-0.09955226	1.437112	1.055236	0	0
22.08792	-0.0417389	0.1618857	-0.003171186	-0.002188327	4.355298	2.938449	0	0
22.10449	-0.0417389	0.1618857	0	0	0.09570108	0.06604005	0	0
22.12116	-0.04176517	0.1619038	-0.001576088	0.001087081	-0.04741905	0.0327065	0	0
22.13767	-0.0417389	0.1619219	0.001591017	0.00109828	0.09545157	0.0003375318	0	0
22.15419	-0.0417389	0.1619582	0	0.002194898	-0.0481695	0.03320109	0	0
22.17076	-0.04176517	0.1619763	-0.001585705	0.001093714	-0.04792842	-0.0332836	0	0
22.18732	-0.04179144	0.1620307	-0.001585705	0.003282941	0	0.066071	0	0
22.20389	-0.04179144	0.1620669	0	0.002187428	0.04785668	-0.03306264	0	0
22.22046	-0.04181771	0.1621576	-0.001585705	0.005471268	-0.04785668	0.09910649	0	0
22.23702	-0.04179144	0.162212	0.001585705	0.003282042	0.09571337	-0.06607099	0	0
22.25359	-0.04179144	0.1622482	0	0.002188327	-0.04785668	-0.03300836	0	0
22.27027	-0.04179144	0.1622844	0	0.002173167	0	-0.0004560425	0	0
22.28673	-0.04176517	0.1623388	0.00159618	0.003303722	0.04817281	0.0341202	0	0
22.30329	-0.0417389	0.162357	0.001585705	0.001094613	-0.0003171643	-0.06689049	0	0
22.35775	-0.04166009	0.1626651	0.001447279	0.005658583	-0.00194912	0.06426305	0	0
22.37431	-0.04168636	0.1627195	-0.001585705	0.003282042	-0.04270598	-0.03346293	0	0
22.39681	-0.04168636	0.1627195	0	0	0.04059604	-0.08402436	0	0
22.41337	-0.0417389	0.162792	-0.003171186	0.004375755	-0.08118632	0.1120248	0	0
22.42994	-0.04187025	0.1629188	-0.007928303	0.007657797	-0.1435701	0.09905221	0	0
22.44651	-0.04376152	0.1646222	-0.1141702	0.1028282	-3.206572	2.872412	0	0
22.47964	-0.04520602	0.165981	-0.04359521	0.04100753	1.420027	-1.243881	0	0
22.49621	-0.04875081	0.1724446	-0.2139641	0.3901447	-3.427829	7.024654	0	0
22.51278	-0.05276676	0.175466	-0.2424031	0.1823705	-0.8582916	-6.270638	0	0
22.52945	-0.05982327	0.1805105	-0.4231062	0.3024708	-5.435482	3.612573	0	0
22.54591	-0.06522314	0.1846302	-0.3281282	0.2503332	2.866443	-1.573515	0	0
22.56248	-0.06797406	0.1920863	-0.1660458	0.4500525	4.908043	6.047732	0	0
22.57904	-0.06682142	0.1987235	0.06957361	0.4006249	7.111007	-1.491728	0	0
22.59561	-0.0649873	0.2027607	0.1107075	0.2436851	1.241424	-4.736454	0	0
22.61218	-0.05827605	0.2083084	0.4050922	0.3348618	8.884547	2.751719	0	0
22.62875	-0.05197945	0.2133125	0.3800631	0.3020477	-0.7553786	-0.9903319	0	0
22.64531	-0.05119208	0.2152918	0.04752619	0.1194658	-10.03599	-5.510333	0	0
22.66189	-0.04961714	0.217882	0.09501965	0.156277	1.433025	1.110709	0	0
22.67845	-0.04882957	0.2183496	0.04755934	0.0282373	-1.432355	-3.864245	0	0
22.7338	-0.04885583	0.2183676	-0.0004743659	0.0003249487	-0.6679795	-0.3881624	0	0
22.75061	-0.04885583	0.2183676	0	0	0.006573394	-0.004502887	0	0
22.76693	-0.04885583	0.2183676	0	0	0	0	0	0
22.7835	-0.04885583	0.2183676	0	0	0	0	0	0
22.80015	-0.04885583	0.2183676	0	0	0	0	0	0
22.81666	-0.04885583	0.2183676	0	0	0	0	0	0
22.84977	-0.04809446	0.2191769	0.02299797	0.02444439	0.4635028	0.4926539	0	0
22.86633	-0.04691292	0.219986	0.07131784	0.04884207	0.9727577	0.491165	0	0
22.8829	-0.04633523	0.2204176	0.03486956	0.02604766	-1.100012	-0.6879364	0	0
22.89972	-0.04630897	0.2204715	0.001561127	0.003206854	-0.9976126	-0.6840995	0	0
22.91603	-0.0459676	0.2207053	0.02092826	0.01432962	0.584535	0.3357049	0	0
22.9326	-0.04531107	0.2211547	0.03962802	0.02712968	0.5687469	0.3893098	0	0
22.94917	-0.03919045	0.225199	0.3694415	0.2441132	9.95379	6.548575	0	0
22.96574	-0.03293546	0.2292595	0.3775522	0.24509	0.2447806	0.02947946	0	0
22.9823	-0.02907076	0.2316482	0.2332738	0.144185	-4.354331	-3.045319	0	0
22.99887	-0.02252251	0.2350418	0.395253	0.2048348	4.888544	1.830417	0	0
23.01544	-0.01834005	0.2369624	0.2524537	0.1159328	-4.309694	-2.683069	0	0
23.03201	-0.01728775	0.2365317	0.06351681	-0.02600179	-5.702125	-4.283594	0	0
23.04883	-0.0104733	0.2318817	0.4049801	-0.2763475	10.22533	-7.496758	0	0
23.06514	-0.002973675	0.2267623	0.4598788	-0.31392	1.656846	-1.13394	0	0
23.08171	0.004421024	0.221712	0.4463449	-0.304835	-0.4116756	0.2763475	0	0
23.09837	0.01273615	0.2160293	0.4990868	-0.3410847	1.587274	-1.090941	0	0
23.11488	0.01641958	0.2135105	0.2230766	-0.1525473	-8.320424	5.683528	0	0
23.13141	0.02131256	0.2101628	0.296057	-0.2025543	2.20891	-1.513571	0	0
23.14841	0.02354828	0.2086325	0.1315258	-0.09002609	-4.907648	3.356498	0	0
23.16454	0.0242847	0.2081284	0.0456433	-0.03124815	-2.592089	1.774024	0	0
23.18111	0.0242847	0.2081284	0	0	-1.395756	0.9555574	0	0
23.19767	0.0242847	0.2081284	0	0	0	0	0	0
23.21424	0.0242847	0.2081284	0	0	0	0	0	0
23.23096	0.0242847	0.2081284	0	0	0	0	0	0
23.24747	0.0242584	0.2081104	-0.001592638	-0.001090032	-0.04792247	-0.03279907	0	0
23.26394	0.0242584	0.2081104	0	0	0.04829388	0.03305326	0	0
23.28051	0.0242584	0.2081104	0	0	0	0	0	0
23.30195	0.0242321	0.2081284	-0.001226371	0.0008394112	-0.03226311	0.02208306	0	0
23.31852	0.0242321	0.2081284	0	0	0.03226149	-0.02208195	0	0
23.33508	0.0242321	0.2081284	0	0	0	0	0	0
23.35205	0.0242321	0.2081284	0	0	0	0	0	0
23.36856	0.0242321	0.2081284	0	0	0	0	0	0
23.38478	0.0242321	0.2081284	0	0	0	0	0	0
23.40135	0.0242321	0.2081284	0	0	0	0	0	0
23.41792	0.0242321	0.2081284	0	0	0	0	0	0
23.46763	0.0242321	0.2081284	0	0	0	0	0	0
23.48419	0.0242321	0.2081284	0	0	0	0	0	0
23.50075	0.0242321	0.2081284	0	0	0	0	0	0
23.51732	0.0242058	0.2081104	-0.001587504	-0.001086519	-0.04791097	-0.03279119	0	0
23.53389	0.0241795	0.2081284	-0.001587504	0.001086519	0	0.06558239	0	0
23.55069	0.0241795	0.2081284	0	0	0.04757413	-0.03256065	0	0
23.56702	0.0241795	0.2081284	0	0	0	0	0	0
23.58359	0.0241795	0.2081284	0	0	0	0	0	0
23.60023	0.0241795	0.2081284	0	0	0	0	0	0
23.61674	0.0242058	0.2081104	0.001593006	-0.001090284	0.04805766	-0.03289159	0	0
23.63329	0.0241795	0.2080924	-0.001588968	-0.00108752	-0.09624269	8.360204E-05	0	0
23.64986	0.0241795	0.2080924	0	0	0.04797724	0.03283655	0	0
23.66642	0.0241795	0.2080924	0	0	0	0	0	0
23.68299	0.0241795	0.2080924	0	0	0	0	0	0
23.69956	0.0241795	0.2080924	0	0	0	0	0	0
23.71631	0.0241795	0.2080924	0	0	0	0	0	0
23.73269	0.0241795	0.2080924	0	0	0	0	0	0
23.74933	0.0241795	0.2080924	0	0	0	0	0	0
23.76584	0.0241795	0.2080924	0	0	0	0	0	0
23.78239	0.0241795	0.2080924	0	0	0	0	0	0
23.79937	0.0241795	0.2080924	0	0	0	0	0	0
23.81552	0.0241532	0.2080744	-0.001628181	-0.001115281	-0.04914142	-0.03366118	0	0
23.83209	0.0241532	0.2080744	0	0	0.04976016	0.03408501	0	0
23.84866	0.0241532	0.2080744	0	0	0	0	0	0
23.86522	0.0241532	0.2080744	0	0	0	0	0	0
23.88193	0.0241532	0.2080744	0	0	0	0	0	0
23.89836	0.0241269	0.2080564	-0.001600773	-0.0010956	-0.04831422	-0.03306718	0	0
23.91495	0.0241269	0.2080564	0	0	0.04847328	0.03317605	0	0
23.93149	0.0241269	0.2080564	0	0	0	0	0	0
23.94806	0.0241269	0.2080564	0	0	0	0	0	0
23.96462	0.0241269	0.2080564	0	0	0	0	0	0
23.98119	0.0241269	0.2080564	0	0	0	0	0	0
23.99776	0.0241269	0.2080564	0	0	0	0	0	0
24.01433	0.0241269	0.2080564	0	0	0	0	0	0
24.03103	0.0241269	0.2080564	0	0	0	0	0	0
24.04746	0.0241269	0.2080564	0	0	0	0	0	0
24.06406	0.0241006	0.2080384	-0.001584585	-0.001084521	-0.04798308	-0.03284055	0	0
24.08059	0.0241006	0.2080384	0	0	0.04782563	0.03273279	0	0
24.09716	0.0241006	0.2080384	0	0	0	0	0	0
24.11409	0.0241006	0.2080384	0	0	0	0	0	0
24.13029	0.0241006	0.2080384	0	0	0	0	0	0
24.16343	0.0241006	0.2080384	0	0	0	0	0	0
24.17999	0.0241006	0.2080384	0	0	0	0	0	0
24.19666	0.0241006	0.2080384	0	0	0	0	0	0
24.21733	0.0241006	0.2080384	0	0	0	0	0	0
24.23418	0.0241006	0.2080384	0	0	0	0	0	0
24.2507	0.0241006	0.2080384	0	0	0	0	0	0
24.26721	0.0241006	0.2080384	0	0	0	0	0	0
24.28359	0.0241006	0.2080384	0	0	0	0	0	0
24.30016	0.0241006	0.2080384	0	0	0	0	0	0
24.31673	0.0241006	0.2080384	0	0	0	0	0	0
24.33329	0.0241006	0.2080384	0	0	0	0	0	0
24.34986	0.0241006	0.2080384	0	0	0	0	0	0
24.36643	0.0241006	0.2080384	0	0	0	0	0	0
24.383	0.0241006	0.2080384	0	0	0	0	0	0
24.39956	0.0241006	0.2080384	0	0	0	0	0	0
24.41631	0.0241006	0.2080384	0	0	0	0	0	0
24.43283	0.0240743	0.2080564	-0.001592638	0.001090032	-0.04788125	0.03277085	0	0
24.44926	0.0240743	0.2080564	0	0	0.04833022	-0.03307813	0	0
24.46583	0.0240743	0.2080564	0	0	0	0	0	0
24.4824	0.0240743	0.2080564	0	0	0	0	0	0
24.49897	0.0240743	0.2080564	0	0	0	0	0	0
24.51553	0.0240743	0.2080564	0	0	0	0	0	0
24.5324	0.0240743	0.2080564	0	0	0	0	0	0
24.54867	0.0240743	0.2080564	0	0	0	0	0	0
24.56523	0.0240743	0.2080564	0	0	0	0	0	0
24.5818	0.0240743	0.2080564	0	0	0	0	0	0
24.59837	0.0240743	0.2080564	0	0	0	0	0	0
24.61493	0.0240743	0.2080564	0	0	0	0	0	0
24.6315	0.0240743	0.2080564	0	0	0	0	0	0
24.64848	0.0240743	0.2080564	0	0	0	0	0	0
24.66463	0.0240743	0.2080564	0	0	0	0	0	0
24.6812	0.0240743	0.2080564	0	0	0	0	0	0
24.69777	0.0240743	0.2080564	0	0	0	0	0	0
24.71433	0.0240743	0.2080564	0	0	0	0	0	0
24.73104	0.0241006	0.2080384	0.001574453	-0.001077586	0.04732368	-0.03238924	0	0
24.74755	0.0241006	0.2080384	0	0	-0.04739977	0.03244131	0	0
24.76403	0.0241006	0.2080384	0	0	0	0	0	0
24.7806	0.0241006	0.2080384	0	0	0	0	0	0
24.79717	0.0241006	0.2080384	0	0	0	0	0	0
24.81374	0.0241006	0.2080384	0	0	0	0	0	0
24.8303	0.0241006	0.2080384	0	0	0	0	0	0
24.84712	0.0241006	0.2080384	0	0	0	0	0	0
24.86344	0.0241006	0.2080384	0	0	0	0	0	0
24.88	0.0240743	0.2080564	-0.001587504	0.001086519	-0.04828341	0.0330461	0	0
24.89666	0.0240743	0.2080564	0	0	0.04778444	-0.0327046	0	0
24.9297	0.0240743	0.2080564	0	0	0	0	0	0
24.94669	0.0240743	0.2080564	0	0	0	0	0	0
24.96284	0.0240743	0.2080564	0	0	0	0	0	0
24.97972	0.0241006	0.2080384	0.00155791	-0.001066264	0.0471726	-0.03228584	0	0
24.99623	0.0241006	0.2080384	0	0	-0.04665526	0.03193175	0	0
25.01254	0.0241006	0.2080384	0	0	0	0	0	0
25.02925	0.0241006	0.2080384	0	0	0	0	0	0
25.04567	0.0240743	0.2080564	-0.001601889	0.001096364	-0.04834512	0.03308833	0	0
25.06224	0.0240743	0.2080564	0	0	0.04856316	-0.03323757	0	0
25.07881	0.0240743	0.2080564	0	0	0	0	0	0
25.09537	0.0240743	0.2080564	0	0	0	0	0	0
25.11532	0.0240743	0.2080564	0	0	0	0	0	0
25.13188	0.0240743	0.2080564	0	0	0	0	0	0
25.14845	0.0240743	0.2080564	0	0	0	0	0	0
25.16535	0.0240743	0.2080564	0	0	0	0	0	0
25.18159	0.02404799	0.2080744	-0.001619956	0.001108729	-0.04889036	0.0334615	0	0
25.19838	0.02404799	0.2080744	0	0	0.0490513	-0.03357166	0	0
25.23129	0.02404799	0.2080744	0	0	0	0	0	0
25.28098	0.0242058	0.2080023	0.003175131	-0.001449047	0.03843557	-0.01754099	0	0
25.29755	0.0245214	0.2077863	0.01904972	-0.01304272	0.2395549	-0.1749539	0	0
25.31412	0.02502109	0.2074441	0.03016157	-0.02065195	0.3353565	-0.229647	0	0
25.34748	0.03396062	0.2013551	0.2679446	-0.1825049	4.762274	-3.241559	0	0
25.36399	0.04386658	0.1945579	0.599997	-0.4117041	6.657912	-4.595626	0	0
25.38039	0.05174325	0.1891445	0.4804703	-0.3302138	-3.632626	2.476634	0	0
25.39695	0.06475146	0.1801852	0.7851774	-0.5407849	9.244504	-6.388514	0	0
25.41352	0.08312381	0.1674843	1.109085	-0.7667152	9.776109	-6.818984	0	0
25.43009	0.1013099	0.1548121	1.097712	-0.7648973	-0.3432517	0.05486695	0	0
25.44665	0.1058659	0.1516353	0.2750016	-0.1917525	-24.82945	17.29754	0	0
25.46322	0.1305428	0.1343402	1.489505	-1.043933	36.65378	-25.71885	0	0
25.47979	0.1409538	0.1269944	0.6284044	-0.4433922	-25.98807	18.12435	0	0
25.49659	0.1502023	0.1204418	0.5505081	-0.3900374	-2.33452	1.599022	0	0
25.51292	0.1621942	0.111905	0.7342309	-0.5226816	5.545084	-4.00344	0	0
25.52961	0.1650121	0.1098921	0.168828	-0.1206014	-17.12105	12.17546	0	0
25.54605	0.1786537	0.1000711	0.829613	-0.5972634	19.94253	-14.38569	0	0
25.56262	0.1835933	0.09651138	0.2981549	-0.2148653	-16.09968	11.58414	0	0
25.57919	0.1917212	0.09063355	0.4906018	-0.3547865	5.80806	-4.222829	0	0
25.59576	0.197016	0.08671682	0.3195947	-0.2364145	-5.161004	3.572475	0	0
25.61232	0.2047732	0.08102854	0.4682265	-0.3433448	4.485716	-3.227164	0	0
25.62918	0.2088818	0.07795116	0.243674	-0.1825151	-6.71746	4.811199	0	0
25.64546	0.2116504	0.07592294	0.1701307	-0.1246337	-2.219543	1.746864	0	0
25.66203	0.2159227	0.07252806	0.2578773	-0.2049149	2.671884	-2.444561	0	0
25.67859	0.2183819	0.07068187	0.1484393	-0.1114365	-3.302844	2.821183	0	0
25.69523	0.2183318	0.07068187	-0.003014314	0	-4.560903	3.35582	0	0
25.71174	0.2183568	0.07066341	0.001518821	-0.001118134	0.1367394	-0.03372788	0	0
25.72829	0.2183568	0.07066341	0	0	-0.04593861	0.03381933	0	0
25.74486	0.2183568	0.07066341	0	0	0	0	0	0
25.76143	0.2183568	0.07066341	0	0	0	0	0	0
25.77799	0.2183318	0.07064494	-0.001513751	-0.001114851	-0.04568508	-0.03364626	0	0
25.79456	0.2183318	0.07064494	0	0	0.04568508	0.03364626	0	0
25.81132	0.2183067	0.07062647	-0.001496521	-0.001101717	-0.04490661	-0.03305959	0	0
25.8277	0.2182816	0.070608	-0.001531381	-0.001127835	-0.001052066	-0.0007882431	0	0
25.84426	0.2182064	0.07055261	-0.004542151	-0.003343653	-0.0913913	-0.06726068	0	0
25.86083	0.2180809	0.07046027	-0.007570552	-0.005573354	-0.09139732	-0.06729252	0	0
25.8774	0.2173785	0.06994316	-0.04240031	-0.03121312	-1.051164	-0.7738097	0	0
25.89396	0.217253	0.06985082	-0.007574122	-0.005574446	1.051117	0.7738214	0	0
25.91053	0.217253	0.06985082	0	0	0.2286006	0.1682468	0	0
25.9271	0.2172279	0.06979541	-0.00151465	-0.003344552	-0.04571223	-0.1009388	0	0
25.94391	0.2172028	0.06977694	-0.001492315	-0.001098411	0.0006690642	0.06728515	0	0
25.96042	0.2172028	0.06977694	0	0	0.04477782	0.0329585	0	0
25.9768	0.2172028	0.06977694	0	0	0	0	0	0
25.99716	0.2171777	0.06975847	-0.001232436	-0.0009071282	-0.03355061	-0.02469476	0	0
26.03029	0.2171777	0.06975847	0	0	0.02303816	0.01695712	0	0
26.06343	0.2171526	0.06974	-0.000757325	-0.0005574254	-0.01142806	-0.008411566	0	0
26.08001	0.2171526	0.06974	0	0	0.01523215	0.01121155	0	0
26.09656	0.2171025	0.06974	-0.003032792	0	-0.09153511	0	0	0
26.16283	0.2170523	0.06977694	-0.0007573468	0.0005574414	0.02747618	0.006731151	0	0
26.17939	0.2170523	0.06977694	0	0	0.009142919	-0.006729601	0	0
26.19596	0.2170272	0.06979541	-0.00151465	0.001114851	-0.04571223	0.03364626	0	0
26.21253	0.2170021	0.06981388	-0.00151465	0.001114851	0	0	0	0
26.2291	0.216977	0.06983235	-0.00151465	0.001114851	0	0	0	0
26.24566	0.2169519	0.06985082	-0.001515724	0.001114979	-3.241318E-05	3.875527E-06	0	0
26.26264	0.2169519	0.06985082	0	0	0.04518028	-0.03323499	0	0
26.2788	0.2169268	0.06986929	-0.001553643	0.001143551	-0.04688904	0.03451245	0	0
26.29536	0.2169017	0.06988776	-0.001514824	0.001114979	0.001186508	-0.0008733226	0	0
26.31193	0.2169017	0.06988776	0	0	0.04572012	-0.03365207	0	0
26.3285	0.2168766	0.06990622	-0.00151465	0.001114401	-0.04571223	0.03363269	0	0
26.3452	0.2168515	0.06992469	-0.001502198	0.001105685	0.0003742549	-0.0002619501	0	0
26.36163	0.2168515	0.06992469	0	0	0.04533643	-0.03336965	0	0
26.3782	0.2168264	0.06994316	-0.001515549	0.001114851	-0.04592973	0.03378629	0	0
26.39476	0.2168264	0.06994316	0	0	0.04573938	-0.03364626	0	0
26.41133	0.2165503	0.07014632	-0.01666475	0.01226291	-0.502943	0.3700953	0	0
26.4279	0.2160231	0.07053414	-0.03182024	0.02340872	-0.4573937	0.3363812	0	0
26.46103	0.2145916	0.07162353	-0.04320395	0.03287798	-0.2290407	0.1905219	0	0
26.4778	0.2117007	0.07374611	-0.1724305	0.1266029	-2.589708	1.878253	0	0
26.49431	0.2048236	0.07885434	-0.4164901	0.3093663	-7.334069	5.492097	0	0
26.51073	0.2027541	0.08040219	-0.126019	0.09425314	8.819743	-6.531605	0	0
26.52733	0.1895393	0.0901924	-0.7960922	0.589784	-20.29177	15.00612	0	0
26.54387	0.180004	0.09719051	-0.5767442	0.4232842	6.620317	-5.025264	0	0
26.56043	0.165729	0.1077317	-0.8616425	0.6362695	-8.607165	6.434577	0	0
26.577	0.1533137	0.1168059	-0.7493884	0.5477169	3.387835	-2.672524	0	0
26.59356	0.1356099	0.1294928	-1.068726	0.7658692	-9.638174	6.58423	0	0
26.61039	0.1266863	0.1358882	-0.5303273	0.3800805	16.1236	-11.55334	0	0
26.6267	0.104981	0.1523979	-1.33097	1.012374	-24.16346	19.08265	0	0
26.64327	0.09648892	0.1591116	-0.5125862	0.4052453	24.89377	-18.46776	0	0
26.65983	0.08087584	0.1720465	-0.9424073	0.7807463	-12.97203	11.33264	0	0
26.6764	0.0692051	0.1801129	-0.7045283	0.4869468	7.179617	-8.867398	0	0
26.69297	0.05859076	0.1874294	-0.6406828	0.4416248	1.926971	-1.367899	0	0
26.70996	0.04465451	0.1970467	-0.8199539	0.5658473	-5.341234	3.701107	0	0
26.7261	0.03467031	0.2038958	-0.6186732	0.4244031	6.074664	-4.268795	0	0
26.74267	0.02531038	0.2103069	-0.5649664	0.3869724	1.642144	-1.144485	0	0
26.7595	0.01392015	0.2180978	-0.6766868	0.4628576	-3.344965	2.272042	0	0
26.7758	0.01118374	0.220004	-0.1678561	0.1169288	15.35654	-10.44015	0	0
26.84207	-0.02331157	0.2435834	-0.5205503	0.3558241	-4.271501	2.893277	0	0
26.85864	-0.02886041	0.2473676	-0.3349286	0.2284117	2.240881	-1.538161	0	0
26.8752	-0.02933369	0.2476903	-0.02857072	0.01948402	9.24643	-6.305814	0	0
26.89474	-0.03006988	0.2481924	-0.03768566	0.02569994	-0.2524887	0.1721841	0	0
26.91161	-0.03414462	0.2509712	-0.241503	0.1646975	-5.59823	3.817831	0	0
26.92787	-0.03953202	0.2546454	-0.331287	0.2259376	-2.709684	1.848229	0	0
26.94463	-0.04512724	0.2584619	-0.3338457	0.2277121	-0.07748513	0.05373807	0	0
26.96101	-0.05163826	0.262904	-0.3976301	0.2712798	-1.925018	1.314877	0	0
26.97766	-0.0546298	0.264838	-0.1796593	0.1161476	6.600027	-4.697312	0	0
26.99414	-0.05452485	0.2647663	0.00636698	-0.004344698	5.614285	-3.636465	0	0
27.01071	-0.05415751	0.2641933	0.02217244	-0.03458691	0.4782211	-0.9150292	0	0
27.02728	-0.05418376	0.2641396	-0.001583724	-0.003242992	-0.7169213	0.9459068	0	0
27.04384	-0.05415751	0.2640501	0.001584089	-0.005404433	0.09560479	-0.0652324	0	0
27.06041	-0.05410504	0.2639426	0.003167363	-0.006484933	0.04778607	-0.03261143	0	0
27.07723	-0.0540788	0.2638889	0.001560197	-0.003194815	-0.04813861	0.09854716	0	0
27.09354	-0.05400008	0.2638352	0.004825153	-0.003291974	0.09854225	-0.002932435	0	0
27.11025	-0.05394761	0.2637994	0.003140472	-0.002143734	-0.0510141	0.03477004	0	0
27.12667	-0.05363273	0.2635486	0.01917375	-0.01526749	0.483913	-0.3960987	0	0
27.14324	-0.05355401	0.2634591	0.00475172	-0.005403811	-0.4371701	0.2989946	0	0
27.15981	-0.05352776	0.2634054	0.001583907	-0.003243366	-0.09560478	0.06520236	0	0
27.1768	-0.05352776	0.2634054	0	0	-0.04719654	0.09664437	0	0
27.19294	-0.05352776	0.2634054	0	0	0	0	0	0
27.20951	-0.05352776	0.2634054	0	0	0	0	0	0
27.22608	-0.05352776	0.2634054	0	0	0	0	0	0
27.24285	-0.05355401	0.2633875	-0.001564632	-0.001067966	-0.04693163	-0.03203397	0	0
27.25921	-0.05358025	0.2633696	-0.001603662	-0.001092785	-0.001177903	-0.0007490298	0	0
27.27587	-0.05365897	0.2632442	-0.004724841	-0.007525401	-0.09451292	-0.1947871	0	0
27.29235	-0.05371145	0.2632084	-0.003186154	-0.002174763	0.04644033	0.1614919	0	0
27.30891	-0.05371145	0.2631726	0	-0.002160445	0.09643587	0.0004333559	0	0
27.32548	-0.05371145	0.2631726	0	0	0	0.06520236	0	0
27.34205	-0.05371145	0.2631726	0	0	0	0	0	0
27.35861	-0.05371145	0.2631726	0	0	0	0	0	0
27.37518	-0.05371145	0.2631726	0	0	0	0	0	0
27.39175	-0.05371145	0.2631726	0	0	0	0	0	0
27.40847	-0.05368521	0.2631547	0.001569273	-0.001071133	0.04714364	-0.03217868	0	0
27.42498	-0.05363273	0.2631189	0.003178566	-0.002169738	0.04842642	-0.0330589	0	0
27.44149	-0.0534228	0.2629756	0.01271201	-0.008675141	0.2886836	-0.1969912	0	0
27.45801	-0.05316039	0.2627965	0.01588318	-0.01084117	0.0959935	-0.06556726	0	0
27.47458	-0.0520057	0.2620085	0.06969751	-0.04756397	1.626367	-1.109829	0	0
27.49153	-0.04594133	0.2578706	0.3578472	-0.2441668	8.597885	-5.866285	0	0
27.50772	-0.03653637	0.2514552	0.5809959	-0.3963175	6.73464	-4.591919	0	0
27.52428	-0.02107583	0.2409104	0.9332	-0.636484	10.75272	-7.332231	0	0
27.55742	0.0006578946	0.2260795	0.655925	-0.4475975	-5.578784	3.800404	0	0
27.57398	0.006605167	0.2220177	0.3589781	-0.2451736	-5.974584	4.072776	0	0
27.59055	0.01797175	0.2142482	0.6860882	-0.4689641	9.872204	-6.754009	0	0
27.60712	0.02204906	0.2114589	0.2461069	-0.1683663	-13.27866	9.07206	0	0
27.62368	0.0247318	0.2096228	0.1619491	-0.1108394	-2.540033	1.736264	0	0
27.64025	0.02541558	0.2091547	0.04127309	-0.02825398	-3.64222	2.492578	0	0
27.65682	0.02541558	0.2091547	0	0	-1.245624	0.8527068	0	0
27.67339	0.02541558	0.2091547	0	0	0	0	0	0
27.69017	0.02541558	0.2091547	0	0	0	0	0	0
27.70652	0.02544188	0.2091367	0.001608878	-0.001101225	0.04855883	-0.03323695	0	0
27.7232	0.02541558	0.2091547	-0.001576682	0.001079188	-0.09645689	0.06602163	0	0
27.73965	0.02541558	0.2091547	0	0	0.0475871	-0.03257184	0	0
27.80783	0.02536298	0.2092267	-0.0007714478	0.001056281	-0.009115227	0.01248074	0	0
27.8244	0.02533668	0.2092447	-0.001587392	0.001086519	-0.009627963	0.0003567985	0	0
27.84097	0.02531038	0.2092627	-0.001587392	0.001086519	0	0	0	0
27.85753	0.02528408	0.2092807	-0.001587504	0.001086519	-3.393965E-06	0	0	0
27.8741	0.02528408	0.2092807	0	0	0.04791097	-0.03279119	0	0
27.89067	0.02525778	0.2092987	-0.001587392	0.001086519	-0.04790758	0.03279119	0	0
27.90723	0.02525778	0.2092987	0	0	0.04790758	-0.03279119	0	0
27.9238	0.02525778	0.2092987	0	0	0	0	0	0
27.94037	0.02525778	0.2092987	0	0	0	0	0	0
27.95694	0.02525778	0.2092987	0	0	0	0	0	0
27.9735	0.02525778	0.2092987	0	0	0	0	0	0
27.99039	0.02525778	0.2092987	0	0	0	0	0	0
28.00664	0.02525778	0.2092987	0	0	0	0	0	0
28.02342	0.02525778	0.2092987	0	0	0	0	0	0
28.03977	0.02525778	0.2092987	0	0	0	0	0	0
28.05634	0.02525778	0.2092987	0	0	0	0	0	0
28.07295	0.02525778	0.2092987	0	0	0	0	0	0
28.08947	0.02528408	0.2092807	0.001591606	-0.001089403	0.04803478	-0.03287825	0	0
28.10604	0.02528408	0.2092807	0	0	-0.04810123	0.03292374	0	0
28.12261	0.02528408	0.2092807	0	0	0	0	0	0
28.16883	0.02528408	0.2092807	0	0	0	0	0	0
28.1854	0.02528408	0.2092807	0	0	0	0	0	0
28.20197	0.02528408	0.2092807	0	0	0	0	0	0
28.25167	0.02528408	0.2092807	0	0	0	0	0	0
28.26824	0.02528408	0.2092807	0	0	0	0	0	0
28.2848	0.02528408	0.2092807	0	0	0	0	0	0
28.30137	0.02528408	0.2092807	0	0	0	0	0	0
28.32167	0.02528408	0.2092807	0	0	0	0	0	0
28.33824	0.02528408	0.2092807	0	0	0	0	0	0
28.35481	0.02528408	0.2092807	0	0	0	0	0	0
28.37137	0.02528408	0.2092807	0	0	0	0	0	0
28.38794	0.02528408	0.2092807	0	0	0	0	0	0
28.40451	0.02528408	0.2092807	0	0	0	0	0	0
28.42108	0.02528408	0.2092807	0	0	0	0	0	0
28.43764	0.02525778	0.2092627	-0.001587392	-0.001086519	-0.04791034	-0.03279308	0	0
28.45421	0.02528408	0.2092807	0.001587392	0.001086519	0.09581516	0.06558239	0	0
28.47078	0.02525778	0.2092627	-0.001587575	-0.001086644	-0.0958262	-0.06558993	0	0
28.48734	0.02528408	0.2092807	0.001587209	0.001086393	0.09581517	0.06558239	0	0
28.50426	0.02525778	0.2092627	-0.001554463	-0.00106398	-0.09381676	-0.06421455	0	0
28.52077	0.02525778	0.2092627	0	0	0.04650155	0.03182881	0	0
28.53704	0.02525778	0.2092627	0	0	0	0	0	0
28.55361	0.02525778	0.2092627	0	0	0	0	0	0
28.60331	0.02525778	0.2092627	0	0	0	0	0	0
28.65301	0.02525778	0.2092627	0	0	0	0	0	0
28.66958	0.02525778	0.2092627	0	0	0	0	0	0
28.68614	0.02525778	0.2092627	0	0	0	0	0	0
28.70271	0.02528408	0.2092447	0.001587392	-0.001086519	0.04790758	-0.03279119	0	0
28.71928	0.02528408	0.2092447	0	0	-0.04790758	0.03279119	0	0
28.73585	0.02528408	0.2092447	0	0	0	0	0	0
28.77195	0.02528408	0.2092447	0	0	0	0	0	0
28.78828	0.02528408	0.2092447	0	0	0	0	0	0
28.80485	0.02528408	0.2092447	0	0	0	0	0	0
28.82142	0.02528408	0.2092447	0	0	0	0	0	0
28.83798	0.02528408	0.2092447	0	0	0	0	0	0
28.85455	0.02528408	0.2092447	0	0	0	0	0	0
28.87112	0.02528408	0.2092447	0	0	0	0	0	0
28.88804	0.02528408	0.2092447	0	0	0	0	0	0
28.90425	0.02528408	0.2092447	0	0	0	0	0	0
28.92082	0.02528408	0.2092447	0	0	0	0	0	0
28.93739	0.02528408	0.2092447	0	0	0	0	0	0
28.95395	0.02528408	0.2092447	0	0	0	0	0	0
28.9706	0.02528408	0.2092447	0	0	0	0	0	0
28.98709	0.02528408	0.2092447	0	0	0	0	0	0
29.00365	0.02528408	0.2092447	0	0	0	0	0	0
29.02022	0.02528408	0.2092447	0	0	0	0	0	0
29.03679	0.02528408	0.2092447	0	0	0	0	0	0
29.05335	0.02528408	0.2092447	0	0	0	0	0	0
29.06992	0.02528408	0.2092447	0	0	0	0	0	0
29.08648	0.02528408	0.2092447	0	0	0	0	0	0
29.10306	0.02528408	0.2092447	0	0	0	0	0	0
29.1197	0.02528408	0.2092447	0	0	0	0	0	0
29.13622	0.02528408	0.2092447	0	0	0	0	0	0
29.15275	0.02528408	0.2092447	0	0	0	0	0	0
29.16932	0.02531038	0.2092267	0.001587504	-0.001086519	0.04795514	-0.03282142	0	0
29.18589	0.02531038	0.2092267	0	0	-0.04791097	0.03279119	0	0
29.20245	0.02531038	0.2092267	0	0	0	0	0	0
29.21902	0.02528408	0.2092447	-0.001587504	0.001086519	-0.04791097	0.03279119	0	0
29.23559	0.02528408	0.2092447	0	0	0.04791097	-0.03279119	0	0
29.2523	0.02528408	0.2092447	0	0	0	0	0	0
29.26872	0.02528408	0.2092447	0	0	0	0	0	0
29.28529	0.02528408	0.2092447	0	0	0	0	0	0
29.30186	0.02528408	0.2092447	0	0	0	0	0	0
29.31842	0.02528408	0.2092447	0	0	0	0	0	0
29.33499	0.02528408	0.2092447	0	0	0	0	0	0
29.35187	0.02528408	0.2092447	0	0	0	0	0	0
29.36812	0.02528408	0.2092447	0	0	0	0	0	0
29.46752	0.02531038	0.2092267	0.0002645942	-0.0001810934	0.002287847	-0.001565846	0	0
29.48409	0.02531038	0.2092267	0	0	-0.002281638	0.001561597	0	0
29.50066	0.02531038	0.2092267	0	0	0	0	0	0
29.51749	0.02531038	0.2092267	0	0	0	0	0	0
29.53379	0.02531038	0.2092267	0	0	0	0	0	0
29.55036	0.02531038	0.2092267	0	0	0	0	0	0
29.56692	0.02531038	0.2092267	0	0	0	0	0	0
29.58349	0.02531038	0.2092267	0	0	0	0	0	0
29.60006	0.02531038	0.2092267	0	0	0	0	0	0
29.61662	0.02533668	0.2092087	0.001587392	-0.001087418	0.04790758	-0.03281834	0	0
29.63319	0.02533668	0.2092087	0	0	-0.04790758	0.03281834	0	0
29.65395	0.02533668	0.2092087	0	0	0	0	0	0
29.67052	0.02533668	0.2092087	0	0	0	0	0	0
29.68711	0.02533668	0.2092087	0	0	0	0	0	0
29.70365	0.02533668	0.2092087	0	0	0	0	0	0
29.72022	0.02533668	0.2092087	0	0	0	0	0	0
29.73678	0.02533668	0.2092087	0	0	0	0	0	0
29.75335	0.02533668	0.2092087	0	0	0	0	0	0
29.77017	0.02533668	0.2092087	0	0	0	0	0	0
29.79819	0.02533668	0.2092087	0	0	0	0	0	0
29.8152	0.02533668	0.2092087	0	0	0	0	0	0
29.83171	0.02533668	0.2092087	0	0	0	0	0	0
29.84789	0.02533668	0.2092087	0	0	0	0	0	0
29.86446	0.02533668	0.2092087	0	0	0	0	0	0
29.88102	0.02533668	0.2092087	0	0	0	0	0	0
29.89759	0.02533668	0.2092087	0	0	0	0	0	0
29.91427	0.02533668	0.2092087	0	0	0	0	0	0
29.93072	0.02533668	0.2092087	0	0	0	0	0	0
29.94729	0.02533668	0.2092087	0	0	0	0	0	0
29.96386	0.02533668	0.2092087	0	0	0	0	0	0
29.98082	0.02533668	0.2092087	0	0	0	0	0	0
29.99699	0.02533668	0.2092087	0	0	0	0	0	0
30.01356	0.02533668	0.2092087	0	0	0	0	0	0
30.03012	0.02533668	0.2092087	0	0	0	0	0	0
30.04687	0.02533668	0.2092087	0	0	0	0	0	0
30.06326	0.02533668	0.2092087	0	0	0	0	0	0
30.07989	0.02533668	0.2092087	0	0	0	0	0	0
30.09641	0.02533668	0.2092087	0	0	0	0	0	0
30.11296	0.02533668	0.2092087	0	0	0	0	0	0
30.12953	0.02533668	0.2092087	0	0	0	0	0	0
30.14609	0.02533668	0.2092087	0	0	0	0	0	0
30.16266	0.02533668	0.2092087	0	0	0	0	0	0
30.17923	0.02533668	0.2092087	0	0	0	0	0	0
30.1958	0.02533668	0.2092087	0	0	0	0	0	0
30.2124	0.02533668	0.2092087	0	0	0	0	0	0
30.22893	0.02533668	0.2092087	0	0	0	0	0	0
30.26206	0.02533668	0.2092087	0	0	0	0	0	0
30.3449	0.02533668	0.2092087	0	0	0	0	0	0
30.36147	0.02533668	0.2092087	0	0	0	0	0	0
30.37803	0.02533668	0.2092087	0	0	0	0	0	0
30.39462	0.02533668	0.2092087	0	0	0	0	0	0
30.41117	0.02533668	0.2092087	0	0	0	0	0	0
30.42814	0.02533668	0.2092087	0	0	0	0	0	0
30.4443	0.02533668	0.2092087	0	0	0	0	0	0
30.46087	0.02533668	0.2092087	0	0	0	0	0	0
30.47743	0.02533668	0.2092087	0	0	0	0	0	0
30.494	0.02533668	0.2092087	0	0	0	0	0	0
30.51057	0.02533668	0.2092087	0	0	0	0	0	0
30.54624	0.02533668	0.2092087	0	0	0	0	0	0
30.56261	0.02533668	0.2092087	0	0	0	0	0	0
30.57917	0.02533668	0.2092087	0	0	0	0	0	0
30.59577	0.02533668	0.2092087	0	0	0	0	0	0
30.61231	0.02533668	0.2092087	0	0	0	0	0	0
30.62929	0.02533668	0.2092087	0	0	0	0	0	0
30.64581	0.02533668	0.2092087	0	0	0	0	0	0
30.66201	0.02533668	0.2092087	0	0	0	0	0	0
30.67882	0.02533668	0.2092087	0	0	0	0	0	0
30.69514	0.02533668	0.2092087	0	0	0	0	0	0
30.71171	0.02533668	0.2092087	0	0	0	0	0	0
30.72828	0.02533668	0.2092087	0	0	0	0	0	0
30.74487	0.02533668	0.2092087	0	0	0	0	0	0
30.76141	0.02533668	0.2092087	0	0	0	0	0	0
30.77798	0.02536298	0.2091907	0.001587392	-0.001086519	0.04794898	-0.03281953	0	0
30.79454	0.02533668	0.2092087	-0.001587392	0.001086519	-0.09581516	0.06558239	0	0
30.81111	0.02533668	0.2092087	0	0	0.04790758	-0.03279119	0	0
30.82768	0.02533668	0.2092087	0	0	0	0	0	0
30.84425	0.02533668	0.2092087	0	0	0	0	0	0
30.86096	0.02533668	0.2092087	0	0	0	0	0	0
30.87738	0.02533668	0.2092087	0	0	0	0	0	0
30.89398	0.02533668	0.2092087	0	0	0	0	0	0
30.91051	0.02533668	0.2092087	0	0	0	0	0	0
30.9275	0.02533668	0.2092087	0	0	0	0	0	0
31.04305	0.02533668	0.2092087	0	0	0	0	0	0
31.05961	0.02533668	0.2092087	0	0	0	0	0	0
31.07618	0.02533668	0.2092087	0	0	0	0	0	0
31.09275	0.02533668	0.2092087	0	0	0	0	0	0
31.10964	0.02533668	0.2092087	0	0	0	0	0	0
31.12589	0.02533668	0.2092087	0	0	0	0	0	0
31.14245	0.02533668	0.2092087	0	0	0	0	0	0
31.15902	0.02533668	0.2092087	0	0	0	0	0	0
31.17569	0.02531038	0.2092267	-0.001577765	0.001080823	-0.04747493	0.03252196	0	0
31.19215	0.02517889	0.2093167	-0.0079858	0.00546685	-0.1933949	0.1323705	0	0
31.20872	0.0246529	0.2097488	-0.03174885	0.02608004	-0.7193649	0.6240112	0	0
31.22529	0.0208917	0.2124667	-0.2270266	0.1640553	-5.893495	4.164102	0	0
31.24185	0.01405171	0.2174324	-0.4128626	0.2997271	-5.608541	4.094584	0	0
31.25875	0.003921032	0.22457	-0.5997505	0.4225578	-5.585629	3.671113	0	0
31.27499	-0.008499796	0.2334439	-0.7647787	0.5463842	-4.980848	3.737302	0	0
31.29156	-0.02591525	0.2470089	-1.051078	0.8186955	-8.725919	8.299591	0	0
31.35782	-0.04297353	0.3151544	-0.2574321	1.028406	9.581353	2.531744	0	0
31.37439	-0.04328873	0.318691	-0.01902577	0.2134721	2.878246	-9.838578	0	0
31.39134	-0.04662408	0.3302103	-0.1967468	0.6795029	-5.30198	13.90317	0	0
31.40752	-0.05263555	0.338014	-0.371492	0.4822478	-5.273821	-5.95317	0	0
31.42409	-0.0584334	0.3419248	-0.3499593	0.2360515	0.6575058	-7.517633	0	0
31.44065	-0.06456801	0.3461034	-0.3702858	0.2522216	-0.6134576	0.4880137	0	0
31.45722	-0.07540937	0.3534966	-0.6543854	0.4462569	-8.574143	5.855997	0	0
31.4739	-0.07839166	0.3555325	-0.1788173	0.122073	14.30492	-9.751333	0	0
31.49041	-0.0965932	0.3679821	-1.102455	0.7540597	-27.83059	19.0427	0	0
31.50692	-0.1024558	0.3720018	-0.3550514	0.2434428	22.63356	-15.46297	0	0
31.52349	-0.1166003	0.3817228	-0.8537634	0.586765	-15.07633	10.37881	0	0
31.54006	-0.1218408	0.3853335	-0.3163217	0.2179387	16.22002	-11.1312	0	0
31.55662	-0.1268935	0.3888196	-0.3049762	0.210423	0.3424071	-0.2268238	0	0
31.57319	-0.137547	0.3961872	-0.6430499	0.4447063	-10.20308	7.070683	0	0
31.58998	-0.1430942	0.4000331	-0.3303041	0.2290052	9.37447	-6.465582	0	0
31.60996	-0.1469334	0.402699	-0.1921562	0.1334308	3.756707	-2.598989	0	0
31.62653	-0.1471136	0.4027885	-0.01087958	0.005400213	4.960135	-3.503204	0	0
31.6431	-0.1471136	0.4027885	0	0	0.3283463	-0.1629788	0	0
31.65967	-0.1471136	0.4027885	0	0	0	0	0	0
31.67623	-0.1471136	0.4027885	0	0	0	0	0	0
31.6928	-0.1471136	0.4027885	0	0	0	0	0	0
31.70937	-0.1470879	0.4027705	0.001554225	-0.001081122	0.04690661	-0.03262833	0	0
31.72593	-0.1470364	0.4027348	0.00310845	-0.002158646	0.04690661	-0.03251974	0	0
31.74259	-0.1469849	0.402699	0.003091721	-0.002148818	-0.0005035304	0.0002958167	0	0
31.75907	-0.1470106	0.4026811	-0.001562862	-0.00108713	-0.1404837	0.03204366	0	0
31.77563	-0.1470364	0.4026632	-0.001554225	-0.001079323	0.0002613724	0.0002362558	0	0
31.7922	-0.1470364	0.4026274	0	-0.002160445	0.04690661	-0.03262832	0	0
31.80877	-0.1470106	0.4025737	0.001554225	-0.003239768	0.04690661	-0.03257404	0	0
31.82534	-0.1469591	0.4025379	0.00310845	-0.002160445	0.04690661	0.03257404	0	0
31.8419	-0.1469076	0.4025022	0.00310935	-0.002158646	2.714469E-05	5.428939E-05	0	0
31.85847	-0.1468046	0.4024306	0.006216901	-0.00432089	0.09378608	-0.06525665	0	0
31.87504	-0.1467789	0.4023769	0.001555304	-0.003240141	-0.1406954	0.03261894	0	0
31.8916	-0.1467531	0.4023232	0.001554225	-0.003239768	-3.255021E-05	1.125765E-05	0	0
31.90817	-0.1467274	0.4022338	0.001554225	-0.005400213	0	-0.06520236	0	0
31.92474	-0.1466759	0.4021264	0.00310935	-0.006481335	0.04693376	-0.03262833	0	0
31.94131	-0.1466501	0.402037	0.001554225	-0.005398414	-0.04693376	0.03268262	0	0
31.95787	-0.1465728	0.4019475	0.004663575	-0.005400213	0.09384037	-5.428939E-05	0	0
31.97444	-0.1463926	0.4017507	0.01088227	-0.01187975	0.1876807	-0.1955528	0	0
31.99101	-0.1462638	0.4016612	0.007772925	-0.005400213	-0.09384035	0.1955528	0	0
32.00779	-0.1462123	0.4015896	0.003070116	-0.004266369	-0.1410299	0.03400221	0	0
32.02414	-0.1461865	0.401536	0.001575071	-0.003281323	-0.04511795	0.02972705	0	0
32.04071	-0.1462123	0.4015181	-0.001555483	-0.001079572	-0.0950934	0.06688017	0	0
32.05727	-0.1460835	0.4013928	0.007773824	-0.007558859	0.2815914	-0.1955678	0	0
32.07384	-0.146032	0.4013213	0.00310935	-0.00432089	-0.1407741	0.09772211	0	0
32.09041	-0.1459032	0.401196	0.007774724	-0.007558859	0.1408013	-0.09772211	0	0
32.10698	-0.1458774	0.4011781	0.001554225	-0.001081122	-0.187735	0.1954985	0	0
32.18981	-0.1431973	0.399246	0.03235528	-0.02332596	0.3098711	-0.2237922	0	0
32.22294	-0.1432231	0.3992281	-0.000778012	-0.000540561	-0.2857136	0.1964821	0	0
32.23951	-0.1432231	0.3992281	0	0	0.01565363	0.01087611	0	0
32.25608	-0.1432489	0.3992102	-0.001556024	-0.001079323	-0.0469609	-0.03257403	0	0
32.27298	-0.1432489	0.3992102	0	0	0.0464952	0.032251	0	0
32.28921	-0.1432489	0.3992102	0	0	0	0	0	0
32.30578	-0.1432489	0.3992102	0	0	0	0	0	0
32.32235	-0.1432489	0.3992102	0	0	0	0	0	0
32.33891	-0.1432489	0.3992102	0	0	0	0	0	0
32.35548	-0.1432489	0.3992102	0	0	0	0	0	0
32.37205	-0.1432489	0.3992102	0	0	0	0	0	0
32.38861	-0.1432489	0.3992102	0	0	0	0	0	0
32.40518	-0.1432231	0.3991923	0.001556024	-0.001079323	0.04696631	-0.03257778	0	0
32.42175	-0.1432231	0.3991923	0	0	-0.0469609	0.03257403	0	0
32.43832	-0.1431973	0.3991744	0.001556024	-0.001079323	0.0469609	-0.03257403	0	0
32.47513	-0.1431458	0.3991386	0.001400583	-0.0009723122	-0.002912024	0.002004734	0	0
32.49164	-0.1430684	0.399085	0.004684071	-0.003250245	0.06157427	-0.0427174	0	0
32.50815	-0.1429395	0.3989955	0.007807085	-0.005417124	0.09456848	-0.06561559	0	0
32.52467	-0.1428106	0.3988703	0.007807086	-0.007583304	2.820153E-08	-0.06559446	0	0
32.54123	-0.1427075	0.3987987	0.006224995	-0.004319091	-0.04782466	0.09867319	0	0
32.5578	-0.1426817	0.3987451	0.001556024	-0.003239768	-0.1409098	0.03257402	0	0
32.57437	-0.1426044	0.3986556	0.004668972	-0.005398414	0.09394895	-0.06514806	0	0
32.59093	-0.1412891	0.3977433	0.07938871	-0.05506706	2.255046	-1.499003	0	0
32.6075	-0.1367981	0.3945954	0.2710756	-0.1900094	5.785121	-4.072569	0	0
32.62407	-0.1302583	0.3900712	0.3947471	-0.2730831	3.732414	-2.507169	0	0
32.64075	-0.1264273	0.3873893	0.2297022	-0.1608013	-4.964491	3.377395	0	0
32.6572	-0.1239663	0.385691	0.14958	-0.1032235	-2.418369	1.737901	0	0
32.67377	-0.1203887	0.3829025	0.2159465	-0.168315	2.009885	-1.971274	0	0
32.69033	-0.1158993	0.3794173	0.2709793	-0.2103655	1.660896	-1.269084	0	0
32.7069	-0.1057878	0.3714658	0.6103306	-0.479957	10.24164	-8.136288	0	0
32.72347	-0.09784445	0.3616229	0.4794623	-0.594117	-3.949615	-3.445356	0	0
32.74004	-0.09398545	0.3471212	0.23293	-0.875322	-7.440358	-8.486784	0	0
32.7566	-0.09020193	0.3248885	0.2283735	-1.341973	-0.1375165	-14.08355	0	0
32.77317	-0.08659866	0.3083124	0.2174935	-1.000533	-0.3283598	10.30469	0	0
32.78986	-0.07925469	0.2882414	0.4401412	-1.2029	6.695626	-6.085741	0	0
32.80637	-0.07705764	0.2835204	0.1330738	-0.2859487	-9.250275	27.62276	0	0
32.83944	-0.05334408	0.2579065	0.7170802	-0.7745469	11.77916	-9.854818	0	0
32.856	-0.03703569	0.2470986	0.9843765	-0.6523635	5.38504	2.461545	0	0
32.87291	-0.02212797	0.2369265	0.8815632	-0.601522	-3.071092	1.518666	0	0
32.9057	-0.009026071	0.227984	0.399556	-0.2727118	-9.698004	6.615674	0	0
32.92227	0.007341973	0.2168028	0.9879771	-0.6748971	11.9214	-8.148271	0	0
32.93884	0.0117363	0.2137984	0.2652423	-0.1813488	-21.81218	14.89532	0	0
32.95547	0.02202275	0.2067598	0.6183286	-0.4230968	10.63413	-7.280881	0	0
32.97198	0.02670418	0.2035535	0.2835506	-0.1942042	-10.10013	6.905608	0	0
32.98854	0.03049055	0.2009587	0.2287037	-0.1567324	-1.65872	1.133248	0	0
33.00511	0.03141072	0.2003278	0.05554152	-0.03807582	-5.227852	3.582301	0	0
33.02168	0.03138443	0.2003459	-0.00158683	0.001087418	-1.724137	1.181949	0	0
33.03824	0.03141072	0.2003278	0.00158683	-0.001087418	0.09578124	-0.06563668	0	0
33.05505	0.03138443	0.2003459	-0.001564495	0.001072113	-0.09443312	0.06471285	0	0
33.07137	0.03141072	0.2003278	0.001610187	-0.001103424	0.09582315	-0.06566539	0	0
33.08807	0.03141072	0.2003278	0	0	-0.04875834	0.03341297	0	0
33.10458	0.03141072	0.2003278	0	0	0	0	0	0
33.12109	0.03141072	0.2003278	0	0	0	0	0	0
33.13764	0.03141072	0.2003278	0	0	0	0	0	0
33.15461	0.03141072	0.2003278	0	0	0	0	0	0
33.17077	0.03141072	0.2003278	0	0	0	0	0	0
33.18734	0.03141072	0.2003278	0	0	0	0	0	0
33.20391	0.03141072	0.2003278	0	0	0	0	0	0
33.22066	0.03141072	0.2003278	0	0	0	0	0	0
33.23704	0.03141072	0.2003278	0	0	0	0	0	0
33.2536	0.03138443	0.2003098	-0.00158683	-0.001088317	-0.04816789	-0.03303565	0	0
33.27017	0.03138443	0.2003098	0	0	0.04789062	0.03284548	0	0
33.28674	0.03138443	0.2003098	0	0	0	0	0	0
33.32672	0.03138443	0.2003098	0	0	0	0	0	0
33.34328	0.03138443	0.2003098	0	0	0	0	0	0
33.35985	0.03138443	0.2003098	0	0	0	0	0	0
33.37642	0.03138443	0.2003098	0	0	0	0	0	0
33.39328	0.03138443	0.2003098	0	0	0	0	0	0
33.40955	0.03138443	0.2003098	0	0	0	0	0	0
33.42612	0.03138443	0.2003098	0	0	0	0	0	0
33.44269	0.03138443	0.2003098	0	0	0	0	0	0
33.45926	0.03138443	0.2003098	0	0	0	0	0	0
33.47584	0.03138443	0.2003098	0	0	0	0	0	0
33.49239	0.03138443	0.2003098	0	0	0	0	0	0
33.50895	0.03138443	0.2003098	0	0	0	0	0	0
33.52552	0.03138443	0.2003098	0	0	0	0	0	0
33.54209	0.03138443	0.2003098	0	0	0	0	0	0
33.5589	0.03138443	0.2003098	0	0	0	0	0	0
33.57522	0.03138443	0.2003098	0	0	0	0	0	0
33.62672	0.03138443	0.2003098	0	0	0	0	0	0
33.64328	0.03138443	0.2003098	0	0	0	0	0	0
33.65997	0.03138443	0.2003098	0	0	0	0	0	0
33.67648	0.03138443	0.2003098	0	0	0	0	0	0
33.69299	0.03138443	0.2003098	0	0	0	0	0	0
33.70955	0.03138443	0.2003098	0	0	0	0	0	0
33.72612	0.03138443	0.2003098	0	0	0	0	0	0
33.74268	0.03138443	0.2003098	0	0	0	0	0	0
33.75925	0.03135814	0.2002918	-0.00158683	-0.001087418	-0.04789062	-0.03281834	0	0
33.77582	0.03135814	0.2002918	0	0	0.04789062	0.03281834	0	0
33.79257	0.03135814	0.2002918	0	0	0	0	0	0
33.80895	0.03135814	0.2002918	0	0	0	0	0	0
33.82559	0.03135814	0.2002918	0	0	0	0	0	0
33.8421	0.03135814	0.2002918	0	0	0	0	0	0
33.85865	0.03135814	0.2002918	0	0	0	0	0	0
33.87522	0.03135814	0.2002918	0	0	0	0	0	0
33.89178	0.03135814	0.2002918	0	0	0	0	0	0
33.90835	0.03135814	0.2002918	0	0	0	0	0	0
33.92492	0.03135814	0.2002918	0	0	0	0	0	0
33.94149	0.03135814	0.2002918	0	0	0	0	0	0
33.95805	0.03135814	0.2002918	0	0	0	0	0	0
33.97462	0.03135814	0.2002918	0	0	0	0	0	0
33.99119	0.03135814	0.2002918	0	0	0	0	0	0
34.07402	0.03135814	0.2002918	0	0	0	0	0	0
34.09059	0.03135814	0.2002918	0	0	0	0	0	0
34.10715	0.03135814	0.2002918	0	0	0	0	0	0
34.12372	0.03135814	0.2002918	0	0	0	0	0	0
34.14032	0.03135814	0.2002918	0	0	0	0	0	0
34.15734	0.03135814	0.2002918	0	0	0	0	0	0
34.17343	0.03135814	0.2002918	0	0	0	0	0	0
34.18999	0.03135814	0.2002918	0	0	0	0	0	0
34.20656	0.03135814	0.2002918	0	0	0	0	0	0
34.22932	0.03135814	0.2002918	0	0	0	0	0	0
34.2459	0.03135814	0.2002918	0	0	0	0	0	0
34.26851	0.03135814	0.2002918	0	0	0	0	0	0
34.28508	0.03135814	0.2002918	0	0	0	0	0	0
34.30164	0.03135814	0.2002918	0	0	0	0	0	0
34.31845	0.03135814	0.2002918	0	0	0	0	0	0
34.33478	0.03133185	0.2003098	-0.001610187	0.001103424	-0.04858995	0.03329758	0	0
34.35135	0.03133185	0.2003098	0	0	0.04895059	-0.03354472	0	0
34.368	0.03133185	0.2003098	0	0	0	0	0	0
34.38451	0.03133185	0.2003098	0	0	0	0	0	0
34.40105	0.03135814	0.2002918	0.001589391	-0.001089173	0.04808973	-0.03295479	0	0
34.41761	0.03135814	0.2002918	0	0	-0.04800662	0.03289783	0	0
34.43418	0.03135814	0.2002918	0	0	0	0	0	0
34.45075	0.03135814	0.2002918	0	0	0	0	0	0
34.46732	0.03135814	0.2002918	0	0	0	0	0	0
34.48388	0.03135814	0.2002918	0	0	0	0	0	0
34.50045	0.03135814	0.2002918	0	0	0	0	0	0
34.51709	0.03135814	0.2002918	0	0	0	0	0	0
34.5336	0.03135814	0.2002918	0	0	0	0	0	0
34.55014	0.03135814	0.2002918	0	0	0	0	0	0
34.56713	0.03135814	0.2002918	0	0	0	0	0	0
34.58328	0.03135814	0.2002918	0	0	0	0	0	0
34.61641	0.03135814	0.2002918	0	0	0	0	0	0
34.63298	0.03135814	0.2002918	0	0	0	0	0	0
34.64954	0.03135814	0.2002918	0	0	0	0	0	0
34.66619	0.03135814	0.2002918	0	0	0	0	0	0
34.6827	0.03135814	0.2002918	0	0	0	0	0	0
34.69925	0.03135814	0.2002918	0	0	0	0	0	0
34.71581	0.03135814	0.2002918	0	0	0	0	0	0
34.73238	0.03135814	0.2002918	0	0	0	0	0	0
34.74895	0.03135814	0.2002918	0	0	0	0	0	0
34.76551	0.03135814	0.2002918	0	0	0	0	0	0
34.78208	0.03135814	0.2002918	0	0	0	0	0	0
34.79865	0.03135814	0.2002918	0	0	0	0	0	0
34.81522	0.03135814	0.2002918	0	0	0	0	0	0
34.83178	0.03135814	0.2002918	0	0	0	0	0	0
34.84835	0.03133185	0.2002738	-0.00158683	-0.001088317	-0.04789062	-0.03284548	0	0
34.86492	0.03133185	0.2002738	0	0	0.04789062	0.03284548	0	0
34.88148	0.03133185	0.2002738	0	0	0	0	0	0
34.89805	0.03133185	0.2002738	0	0	0	0	0	0
34.91462	0.03133185	0.2002738	0	0	0	0	0	0
34.93119	0.03133185	0.2002738	0	0	0	0	0	0
34.94775	0.03133185	0.2002738	0	0	0	0	0	0
34.96441	0.03133185	0.2002738	0	0	0	0	0	0
34.98093	0.03133185	0.2002738	0	0	0	0	0	0
34.99746	0.03133185	0.2002738	0	0	0	0	0	0
35.01402	0.03133185	0.2002738	0	0	0	0	0	0
35.03059	0.03133185	0.2002738	0	0	0	0	0	0
35.04747	0.03133185	0.2002738	0	0	0	0	0	0
35.06398	0.03133185	0.2002738	0	0	0	0	0	0
35.0805	0.03133185	0.2002738	0	0	0	0	0	0
35.09686	0.03133185	0.2002738	0	0	0	0	0	0
35.13231	0.03133185	0.2002738	0	0	0	0	0	0
35.14888	0.03133185	0.2002738	0	0	0	0	0	0
35.16544	0.03133185	0.2002738	0	0	0	0	0	0
35.18201	0.03133185	0.2002738	0	0	0	0	0	0
35.19858	0.03135814	0.2002557	0.001586464	-0.001088067	0.04787408	-0.03283414	0	0
35.21514	0.03135814	0.2002557	0	0	-0.04788511	0.0328417	0	0
35.23171	0.03135814	0.2002557	0	0	0	0	0	0
35.24828	0.03135814	0.2002557	0	0	0	0	0	0
35.26513	0.03135814	0.2002557	0	0	0	0	0	0
35.28141	0.03135814	0.2002557	0	0	0	0	0	0
35.29798	0.03135814	0.2002557	0	0	0	0	0	0
35.31454	0.03135814	0.2002557	0	0	0	0	0	0
35.34768	0.03135814	0.2002557	0	0	0	0	0	0
35.36425	0.03135814	0.2002557	0	0	0	0	0	0
35.38081	0.03135814	0.2002557	0	0	0	0	0	0
35.39738	0.03135814	0.2002557	0	0	0	0	0	0
35.43052	0.03135814	0.2002557	0	0	0	0	0	0
35.44708	0.03135814	0.2002557	0	0	0	0	0	0
35.46365	0.03135814	0.2002557	0	0	0	0	0	0
35.48022	0.03135814	0.2002557	0	0	0	0	0	0
35.4968	0.03135814	0.2002557	0	0	0	0	0	0
35.51335	0.03135814	0.2002557	0	0	0	0	0	0
35.52991	0.03135814	0.2002557	0	0	0	0	0	0
35.54648	0.03135814	0.2002557	0	0	0	0	0	0
35.56305	0.03135814	0.2002557	0	0	0	0	0	0
35.57962	0.03135814	0.2002557	0	0	0	0	0	0
35.59618	0.03135814	0.2002557	0	0	0	0	0	0
35.61288	0.03135814	0.2002557	0	0	0	0	0	0
35.62939	0.03135814	0.2002557	0	0	0	0	0	0
35.6459	0.03133185	0.2002377	-0.001592329	-0.001091187	-0.04821758	-0.0330424	0	0
35.66245	0.03133185	0.2002377	0	0	0.04817306	0.03301189	0	0
35.67902	0.03133185	0.2002377	0	0	0	0	0	0
35.69594	0.03133185	0.2002377	0	0	0	0	0	0
35.71215	0.03133185	0.2002377	0	0	0	0	0	0
35.72871	0.03133185	0.2002377	0	0	0	0	0	0
35.74528	0.03133185	0.2002377	0	0	0	0	0	0
35.76198	0.03133185	0.2002377	0	0	0	0	0	0
35.77849	0.03135814	0.2002197	0.001592329	-0.001092089	0.04794069	-0.03287983	0	0
35.795	0.03135814	0.2002197	0	0	-0.04822315	0.03307355	0	0
35.81154	0.03135814	0.2002197	0	0	0	0	0	0
35.91094	0.03138443	0.2002017	0.0002644818	-0.0001812433	0.002281193	-0.00156325	0	0
35.92751	0.03138443	0.2002017	0	0	-0.002280668	0.00156289	0	0
35.94411	0.03138443	0.2002017	0	0	0	0	0	0
35.96064	0.03138443	0.2002017	0	0	0	0	0	0
35.97721	0.03138443	0.2002017	0	0	0	0	0	0
35.99377	0.03138443	0.2002017	0	0	0	0	0	0
36.01034	0.03138443	0.2002017	0	0	0	0	0	0
36.02716	0.03138443	0.2002017	0	0	0	0	0	0
36.04347	0.03138443	0.2002017	0	0	0	0	0	0
36.07661	0.03138443	0.2002017	0	0	0	0	0	0
36.09321	0.03138443	0.2002017	0	0	0	0	0	0
36.10974	0.03138443	0.2002017	0	0	0	0	0	0
36.12943	0.03138443	0.2002017	0	0	0	0	0	0
36.146	0.03138443	0.2002017	0	0	0	0	0	0
36.16276	0.03138443	0.2002017	0	0	0	0	0	0
36.17913	0.03138443	0.2002017	0	0	0	0	0	0
36.1957	0.03138443	0.2002017	0	0	0	0	0	0
36.2123	0.03138443	0.2002017	0	0	0	0	0	0
36.22931	0.03138443	0.2002017	0	0	0	0	0	0
36.2454	0.03138443	0.2002017	0	0	0	0	0	0
36.26197	0.03138443	0.2002017	0	0	0	0	0	0
36.27854	0.03138443	0.2002017	0	0	0	0	0	0
36.2951	0.03138443	0.2002017	0	0	0	0	0	0
36.31187	0.03138443	0.2002017	0	0	0	0	0	0
36.32838	0.03138443	0.2002017	0	0	0	0	0	0
36.34489	0.03138443	0.2002017	0	0	0	0	0	0
36.36137	0.03138443	0.2002017	0	0	0	0	0	0
36.37793	0.03138443	0.2002017	0	0	0	0	0	0
36.3945	0.03138443	0.2002017	0	0	0	0	0	0
36.41107	0.03138443	0.2002017	0	0	0	0	0	0
36.42795	0.03138443	0.2002017	0	0	0	0	0	0
36.4442	0.03138443	0.2002017	0	0	0	0	0	0
36.46097	0.03138443	0.2002017	0	0	0	0	0	0
36.47748	0.03138443	0.2002017	0	0	0	0	0	0
36.494	0.03141072	0.2001836	0.001591962	-0.001091837	0.04820644	-0.03306209	0	0
36.51051	0.03141072	0.2001836	0	0	-0.04820644	0.03306209	0	0
36.52703	0.03141072	0.2001836	0	0	0	0	0	0
36.5436	0.03141072	0.2001836	0	0	0	0	0	0
36.56017	0.03141072	0.2001836	0	0	0	0	0	0
36.57674	0.03141072	0.2001836	0	0	0	0	0	0
36.5933	0.03141072	0.2001836	0	0	0	0	0	0
36.60987	0.03141072	0.2001836	0	0	0	0	0	0
36.7424	0.05376393	0.1848288	0.1686601	-0.1158555	1.131179	-0.7770257	0	0
36.75897	0.06404387	0.1777446	0.6204988	-0.4276053	3.030415	-2.09086	0	0
36.77554	0.07671756	0.1689873	0.764985	-0.528594	4.360604	-3.047844	0	0
36.79221	0.08252269	0.1649664	0.3482337	-0.241198	-12.5386	8.64675	0	0
36.80872	0.08550156	0.1629369	0.180428	-0.1229259	-5.057398	3.564533	0	0
36.82524	0.08547544	0.1629913	-0.001581445	0.003291895	-5.510822	3.821581	0	0
36.8418	0.08398618	0.1642779	-0.08989187	0.07766089	-2.669209	2.247825	0	0
36.85837	0.08343741	0.1647309	-0.03312353	0.02734195	1.713272	-1.518629	0	0
36.87527	0.07886242	0.167937	-0.270785	0.189764	-7.102317	4.85385	0	0
36.89151	0.07292309	0.1721188	-0.3657409	0.2575134	-2.865775	2.044679	0	0
36.90829	0.06700481	0.1762437	-0.3525206	0.2456943	0.4002783	-0.3578528	0	0
36.92464	0.05987571	0.1811973	-0.4361376	0.3030484	-2.523564	1.73095	0	0
36.94121	0.05649246	0.1834921	-0.2042135	0.1385131	7.046534	-4.999066	0	0
36.95783	0.05106084	0.1872308	-0.3267997	0.2249424	-3.693704	2.604245	0	0
36.97434	0.04644027	0.1904802	-0.2798648	0.1968143	1.41666	-0.8490056	0	0
36.99091	0.03792917	0.1965058	-0.513731	0.3637049	-7.070305	5.04548	0	0
37.00786	0.03035909	0.2017696	-0.4464456	0.3104375	2.007108	-1.588955	0	0
37.02404	0.0224699	0.20721	-0.4876452	0.3362801	-1.243408	0.7799332	0	0
37.04061	0.01202574	0.2144641	-0.6304111	0.4378598	-4.359882	3.102108	0	0
37.0574	0.006841999	0.2181158	-0.3086973	0.2174615	9.643836	-6.606756	0	0
37.07374	-0.004631546	0.2262412	-0.7020823	0.4972053	-11.87238	8.442682	0	0
37.09042	-0.01376229	0.2325461	-0.5473518	0.3779514	4.685421	-3.611146	0	0
37.11012	-0.02886041	0.2447493	-0.7667339	0.6197203	-6.031434	6.646909	0	0
37.12668	-0.03616843	0.2579423	-0.4411133	0.7963327	8.980485	4.870897	0	0
37.14325	-0.04068806	0.2821432	-0.2728052	1.46077	5.079548	20.05277	0	0
37.15982	-0.04171263	0.2946774	-0.06184364	0.7565659	6.366832	-21.25293	0	0
37.17638	-0.04365645	0.3129394	-0.1173292	1.102293	-1.674556	10.43406	0	0
37.193	-0.04680789	0.3384783	-0.1896969	1.537287	-2.181049	13.11002	0	0
37.20952	-0.0490921	0.3573542	-0.1382574	1.142508	1.552445	-11.91443	0	0
37.22609	-0.05226814	0.3783093	-0.191706	1.264853	-1.615312	3.697487	0	0
37.24303	-0.05439366	0.3897672	-0.125409	0.6760318	1.978073	-17.56841	0	0
37.25922	-0.06024281	0.397475	-0.3614612	0.4763213	-7.124888	-6.027971	0	0
37.27605	-0.06320518	0.3988524	-0.1759328	0.08180293	5.618664	-11.94785	0	0
37.29235	-0.06446319	0.3986377	-0.07719599	-0.01317262	2.979883	-2.866368	0	0
37.30892	-0.06800026	0.3962229	-0.2134977	-0.1457572	-4.147497	-4.034387	0	0
37.42488	-0.1299478	0.3509071	-0.5341833	-0.3907656	-2.419647	-1.848645	0	0
37.44145	-0.1360749	0.3466748	-0.3698345	-0.2554632	1.240049	1.020888	0	0
37.45802	-0.1473969	0.338764	-0.6833959	-0.4774943	-9.4633	-6.700913	0	0
37.4747	-0.1501765	0.3368354	-0.1666289	-0.1156118	15.54238	10.88405	0	0
37.49115	-0.1622198	0.3285674	-0.7319894	-0.5025342	-17.06261	-11.67734	0	0
37.50772	-0.1693363	0.3236383	-0.4294555	-0.2974487	9.161077	6.210226	0	0
