Time	Pos X	Pos Y	Vel X	Vel Y	Acc X	Acc YForce X	Force Y
0.01656634	-0.01363073	0.2186194	0.0002222694	-0.003564914	-3.625413E-06	5.814695E-05	0	0
0.06695697	-0.01360442	0.2186014	0.0005221367	-0.0003566298	-4.893803E-06	-5.235888E-05	0	0
0.0835245	-0.01363073	0.2186194	-0.001588094	0.0010847	-0.03151566	0.02152583	0	0
0.1000912	-0.01363073	0.2186194	0	0	0.04792906	-0.03273651	0	0
0.116658	-0.01363073	0.2186194	0	0	0	0	0	0
0.1336179	-0.01363073	0.2186194	0	0	0	0	0	0
0.1497914	-0.01363073	0.2186194	0	0	0	0	0	0
0.1666392	-0.01363073	0.2186194	0	0	0	0	0	0
0.1829249	-0.01363073	0.2186194	0	0	0	0	0	0
0.1994916	-0.01363073	0.2186194	0	0	0	0	0	0
0.216058	-0.01363073	0.2186194	0	0	0	0	0	0
0.2326247	-0.01360442	0.2186014	0.00158817	-0.001084752	0.04793306	-0.03273925	0	0
0.2492045	-0.01360442	0.2186014	0	0	-0.04791365	0.03272599	0	0
0.2657586	-0.01360442	0.2186014	0	0	0	0	0	0
0.2823249	-0.01360442	0.2186014	0	0	0	0	0	0
0.3485914	-0.01360442	0.2186014	0	0	0	0	0	0
0.3651586	-0.01357811	0.2185834	0.001588131	-0.001085625	0.01917254	-0.01310609	0	0
0.3817979	-0.01357811	0.2185834	0	0	-0.04782588	0.03269312	0	0
0.3983074	-0.01360442	0.2185654	-0.001593676	-0.001089415	-0.0480763	-0.03286431	0	0
0.4148608	-0.01360442	0.2185654	0	0	0.04820145	0.03294986	0	0
0.4318305	-0.01360442	0.2185654	0	0	0	0	0	0
0.4479938	-0.01357811	0.2185474	0.001627812	-0.00111275	0.04912953	-0.03358428	0	0
0.4811277	-0.01357811	0.2185474	0	0	-0.0330204	0.0225723	0	0
0.4983774	-0.01357811	0.2185474	0	0	0	0	0	0
0.5142612	-0.01357811	0.2185474	0	0	0	0	0	0
0.5357695	-0.01357811	0.2185474	0	0	0	0	0	0
0.5524163	-0.01357811	0.2185474	0	0	0	0	0	0
0.5689057	-0.01357811	0.2185474	0	0	0	0	0	0
0.5854732	-0.01357811	0.2185474	0	0	0	0	0	0
0.60204	-0.01357811	0.2185474	0	0	0	0	0	0
0.6186063	-0.01357811	0.2185474	0	0	0	0	0	0
0.6351731	-0.01357811	0.2185474	0	0	0	0	0	0
0.6517386	-0.0135518	0.2185295	0.001588283	-0.001085729	0.04793757	-0.03276948	0	0
0.6683062	-0.01357811	0.2185115	-0.001588094	-0.0010856	-0.0958672	3.893032E-06	0	0
0.6848721	-0.0135518	0.2184935	0.001588248	-0.001085705	0.09586515	-3.183257E-06	0	0
0.7015237	-0.0135518	0.2184935	0	0	-0.04781353	0.03268468	0	0
0.7180344	-0.0135518	0.2184935	0	0	0	0	0	0
0.7345727	-0.0135518	0.2184935	0	0	0	0	0	0
0.7511395	-0.0135518	0.2184935	0	0	0	0	0	0
0.7677054	-0.0135518	0.2184935	0	0	0	0	0	0
0.7845804	-0.0135518	0.2184935	0	0	0	0	0	0
0.8008376	-0.0135518	0.2184935	0	0	0	0	0	0
0.817599	-0.0135518	0.2184935	0	0	0	0	0	0
0.83397	-0.0135518	0.2184935	0	0	0	0	0	0
0.8505367	-0.0135518	0.2184935	0	0	0	0	0	0
0.8671062	-0.0135518	0.2184935	0	0	0	0	0	0
0.8836733	-0.0135518	0.2184935	0	0	0	0	0	0
0.9002401	-0.0135518	0.2184935	0	0	0	0	0	0
0.9168064	-0.0135518	0.2184935	0	0	0	0	0	0
0.9336877	-0.0135518	0.2184935	0	0	0	0	0	0
0.9502454	-0.0135518	0.2184935	0	0	0	0	0	0
0.9665038	-0.0135518	0.2184935	0	0	0	0	0	0
0.9830717	-0.0135518	0.2184935	0	0	0	0	0	0
1.016204	-0.0135518	0.2184935	0	0	0	0	0	0
1.032771	-0.0135518	0.2184935	0	0	0	0	0	0
1.049338	-0.0135518	0.2184935	0	0	0	0	0	0
1.065904	-0.0135518	0.2184935	0	0	0	0	0	0
1.082471	-0.0135518	0.2184935	0	0	0	0	0	0
1.099299	-0.0135518	0.2184935	0	0	0	0	0	0
1.115604	-0.0135518	0.2184935	0	0	0	0	0	0
1.13217	-0.0135518	0.2184935	0	0	0	0	0	0
1.148737	-0.0135518	0.2184935	0	0	0	0	0	0
1.165304	-0.0135518	0.2184935	0	0	0	0	0	0
1.341977	-0.01352549	0.2184755	0.0001489285	-0.0001018019	0.0007706908	-0.0005268151	0	0
1.358545	-0.01352549	0.2184755	0	0	-0.000770686	0.0005268119	0	0
1.375112	-0.01352549	0.2184755	0	0	0	0	0	0
1.391679	-0.01352549	0.2184755	0	0	0	0	0	0
1.408245	-0.01352549	0.2184755	0	0	0	0	0	0
1.425028	-0.01352549	0.2184755	0	0	0	0	0	0
1.44154	-0.01352549	0.2184755	0	0	0	0	0	0
1.458053	-0.01352549	0.2184755	0	0	0	0	0	0
1.474563	-0.01352549	0.2184755	0	0	0	0	0	0
1.491079	-0.01352549	0.2184755	0	0	0	0	0	0
1.524212	-0.01352549	0.2184755	0	0	0	0	0	0
1.540779	-0.01352549	0.2184755	0	0	0	0	0	0
1.557345	-0.01352549	0.2184755	0	0	0	0	0	0
1.573912	-0.01352549	0.2184755	0	0	0	0	0	0
1.590645	-0.01352549	0.2184755	0	0	0	0	0	0
1.610399	-0.0135518	0.2184575	-0.001331998	-0.0009105036	-0.03650624	-0.02495429	0	0
1.627173	-0.0135518	0.2184575	0	0	0.03646561	0.02492652	0	0
1.643685	-0.0135518	0.2184575	0	0	0	0	0	0
1.660197	-0.0135518	0.2184575	0	0	0	0	0	0
1.677207	-0.0135518	0.2184575	0	0	0	0	0	0
1.693237	-0.0135518	0.2184575	0	0	0	0	0	0
1.709801	-0.0135518	0.2184575	0	0	0	0	0	0
1.726368	-0.01352549	0.2184395	0.00158819	-0.001084727	0.04793651	-0.03274044	0	0
1.743761	-0.01352549	0.2184395	0	0	-0.04676586	0.03194089	0	0
1.759501	-0.01352549	0.2184395	0	0	0	0	0	0
1.776067	-0.01352549	0.2184395	0	0	0	0	0	0
1.792791	-0.01352549	0.2184395	0	0	0	0	0	0
1.825766	-0.01352549	0.2184395	0	0	0	0	0	0
1.842333	-0.01352549	0.2184395	0	0	0	0	0	0
1.8589	-0.01352549	0.2184395	0	0	0	0	0	0
1.875466	-0.01352549	0.2184395	0	0	0	0	0	0
1.892033	-0.01352549	0.2184395	0	0	0	0	0	0
1.90887	-0.01352549	0.2184395	0	0	0	0	0	0
1.925166	-0.0135518	0.2184575	-0.001614586	0.001102756	-0.04873041	0.03328267	0	0
1.941894	-0.0135518	0.2184575	0	0	0.04889065	-0.03339212	0	0
1.958405	-0.01352549	0.2184395	0.00159358	-0.001088408	0.04794271	-0.03274468	0	0
1.974866	-0.01352549	0.2184395	0	0	-0.04833133	0.0330101	0	0
1.991433	-0.01352549	0.2184395	0	0	0	0	0	0
2.008	-0.01352549	0.2184395	0	0	0	0	0	0
2.024566	-0.01352549	0.2184395	0	0	0	0	0	0
2.041133	-0.01352549	0.2184395	0	0	0	0	0	0
2.0577	-0.0135518	0.2184575	-0.001588225	0.001084751	-0.04793409	0.03273879	0	0
2.074266	-0.0135518	0.2184575	0	0	0.04793409	-0.03273879	0	0
2.1571	-0.0135518	0.2184575	0	0	0	0	0	0
2.173667	-0.0135518	0.2184575	0	0	0	0	0	0
2.190233	-0.0135518	0.2184575	0	0	0	0	0	0
2.2068	-0.0135518	0.2184575	0	0	0	0	0	0
2.223592	-0.0135518	0.2184575	0	0	0	0	0	0
2.239933	-0.0135518	0.2184575	0	0	0	0	0	0
2.256616	-0.0135518	0.2184575	0	0	0	0	0	0
2.273066	-0.0135518	0.2184575	0	0	0	0	0	0
2.289632	-0.0135518	0.2184575	0	0	0	0	0	0
2.306199	-0.0135518	0.2184575	0	0	0	0	0	0
2.322766	-0.0135518	0.2184575	0	0	0	0	0	0
2.339333	-0.0135518	0.2184575	0	0	0	0	0	0
2.3559	-0.0135518	0.2184575	0	0	0	0	0	0
2.372467	-0.0135518	0.2184575	0	0	0	0	0	0
2.389033	-0.0135518	0.2184575	0	0	0	0	0	0
2.405599	-0.0135518	0.2184575	0	0	0	0	0	0
2.422167	-0.0135518	0.2184575	0	0	0	0	0	0
2.438745	-0.01357811	0.2184395	-0.001587072	-0.001084002	-0.04788208	-0.03270442	0	0
2.4553	-0.01363073	0.2184395	-0.003178624	0	-0.04803521	0.03271666	0	0
2.471866	-0.01363073	0.2184395	0	0	0.09596835	0	0	0
2.488433	-0.01365705	0.2184216	-0.001588214	-0.001085682	-0.04793447	-0.03276735	0	0
2.504999	-0.01365705	0.2184216	0	0	0.04793447	0.03276735	0	0
2.521566	-0.01368336	0.2184395	-0.001588168	0.00108565	-0.0479324	0.03276593	0	0
2.538315	-0.01368336	0.2184395	0	0	0.04766999	-0.03258656	0	0
2.5547	-0.01368336	0.2184395	0	0	0	0	0	0
2.574624	-0.01365705	0.2184216	0.001320547	-0.000902708	0.03636968	-0.02486182	0	0
2.591192	-0.01368336	0.2184395	-0.0015881	0.001085603	-0.07970723	0.05448678	0	0
2.607759	-0.01368336	0.2184395	0	0	0.04792929	-0.03276381	0	0
2.624325	-0.01368336	0.2184395	0	0	0	0	0	0
2.641388	-0.01368336	0.2184395	0	0	0	0	0	0
2.657458	-0.01368336	0.2184395	0	0	0	0	0	0
2.674025	-0.01368336	0.2184395	0	0	0	0	0	0
2.690592	-0.01368336	0.2184395	0	0	0	0	0	0
2.707159	-0.01373598	0.2184755	-0.003176337	0.002170401	-0.0958648	0.06550472	0	0
2.723946	-0.01555138	0.2198961	-0.1081413	0.08462545	-3.146995	2.472116	0	0
2.740292	-0.01739298	0.2214424	-0.1126658	0.09459553	-0.136554	0.3009105	0	0
2.756858	-0.0241269	0.2265467	-0.4064715	0.3081061	-8.926875	6.487221	0	0
2.773425	-0.03632612	0.2368906	-0.7363676	0.6243803	-9.956573	9.545448	0	0
2.789993	-0.04581003	0.2476365	-0.5724255	0.6485957	4.947747	0.730817	0	0
2.806558	-0.05337032	0.2669865	-0.4563991	1.16812	3.501835	15.67995	0	0
2.823125	-0.05625637	0.2826619	-0.1742071	0.9461942	8.517247	-6.698266	0	0
2.839692	-0.05788264	0.2983237	-0.09816456	0.9453721	2.295034	-0.02481075	0	0
2.85654	-0.06003304	0.3175479	-0.1276347	1.141035	-0.8819491	5.855567	0	0
2.873052	-0.06134399	0.3302639	-0.0793943	0.7701083	1.446057	-11.1189	0	0
2.889391	-0.06372937	0.3414605	-0.1459859	0.6852347	-2.027038	-2.583538	0	0
3.005358	-0.08941881	0.4115947	-0.2215236	0.604777	-0.5709282	-0.6081149	0	0
3.021925	-0.09617604	0.4168775	-0.4078911	0.3188936	-1.406194	-2.157068	0	0
3.038493	-0.09914752	0.4189197	-0.1793458	0.1232534	6.89746	-5.904388	0	0
3.055058	-0.1032369	0.4217684	-0.2468691	0.1719746	-2.037915	1.470451	0	0
3.071692	-0.1091695	0.4259264	-0.3566633	0.2499767	-3.307193	2.34956	0	0
3.088203	-0.1110154	0.4271992	-0.1117932	0.0770858	7.387854	-5.216206	0	0
3.104758	-0.1210111	0.4341395	-0.6037961	0.4192296	-14.8793	10.34721	0	0
3.121325	-0.1229556	0.4355209	-0.1173678	0.0833849	14.68593	-10.13961	0	0
3.137892	-0.1264273	0.4379614	-0.209568	0.1473127	-2.782687	1.9294	0	0
3.154458	-0.1283692	0.4393075	-0.1172125	0.08125198	2.787417	-1.993802	0	0
3.171025	-0.1329221	0.442467	-0.2748331	0.1907238	-4.757205	3.304008	0	0
3.187774	-0.1373921	0.4455738	-0.2668703	0.185485	0.2390079	-0.1572463	0	0
3.204285	-0.1447438	0.4506943	-0.4452679	0.3101309	-5.363674	3.747584	0	0
3.220725	-0.1508196	0.4550087	-0.3695797	0.262434	2.297018	-1.447525	0	0
3.237292	-0.1544444	0.4577963	-0.2187959	0.1682641	4.568285	-2.853057	0	0
3.253858	-0.1599892	0.4651027	-0.3347074	0.4410422	-3.498369	8.232815	0	0
3.270425	-0.1599892	0.4695693	0	0.2696023	10.10178	-5.174215	0	0
3.286991	-0.1598354	0.4805677	0.009289009	0.6639047	0.2803509	11.90041	0	0
3.303856	-0.1589888	0.4897231	0.05019775	0.5428842	1.223692	-3.620052	0	0
3.320125	-0.1576544	0.4980416	0.08202112	0.5113135	0.9604658	-0.9528409	0	0
3.336881	-0.1550353	0.5070972	0.1563051	0.5404229	2.249293	0.8814206	0	0
3.353391	-0.1536478	0.5135904	0.08403884	0.3932914	-2.172357	-4.422837	0	0
3.369825	-0.1529024	0.5176028	0.04535489	0.2441499	-1.174235	-4.527128	0	0
3.386414	-0.1497649	0.5259283	0.1891357	0.5018719	4.353945	7.804293	0	0
3.402958	-0.1468046	0.5278026	0.1789282	0.1132912	-0.3080742	-11.72781	0	0
3.419525	-0.1454137	0.5281667	0.08395936	0.02197205	-2.868189	-2.757961	0	0
3.436091	-0.1446149	0.5276024	0.04821613	-0.0340582	-1.078779	-1.691069	0	0
3.452658	-0.1446149	0.5276024	0	0	-1.45525	1.027938	0	0
3.469225	-0.1444603	0.5274568	0.009332547	-0.008789287	0.2816649	-0.2652688	0	0
3.485791	-0.1442799	0.5273294	0.0108892	-0.00768882	0.04698116	0.03321311	0	0
3.519008	-0.1442541	0.5273113	0.000776091	-0.0005473012	-0.2031448	0.1434537	0	0
3.53552	-0.1441253	0.5271111	0.007804378	-0.0121253	0.1413335	-0.2328248	0	0
3.555978	-0.1438418	0.5268017	0.01385765	-0.01512062	0.163732	-0.08101873	0	0
3.572546	-0.1435067	0.5265651	0.02022622	-0.01427924	0.1720019	0.02272383	0	0
3.589112	-0.1425786	0.5258737	0.05602369	-0.04173623	1.080393	-0.8286714	0	0
3.605679	-0.1416502	0.5251461	0.05603827	-0.04392252	0.000440068	-0.06598524	0	0
3.622246	-0.1413665	0.5247277	0.01712575	-0.02525329	-1.174416	0.5634547	0	0
3.638816	-0.1415728	0.5245822	-0.01245306	-0.00878045	-0.8926196	0.4971119	0	0
3.655607	-0.1415728	0.5245822	0	0	0.3732744	0.2631897	0	0
3.671946	-0.1415728	0.5245822	0	0	0	0	0	0
3.688513	-0.1415728	0.5245822	0	0	0	0	0	0
3.705079	-0.1415212	0.5245822	0.003113937	0	0.0939815	0	0	0
3.721651	-0.141057	0.5242548	0.02801696	-0.019757	0.7514829	-0.5961946	0	0
3.738212	-0.139354	0.523091	0.1028254	-0.07027482	2.257821	-1.524697	0	0
3.754779	-0.1319396	0.5181295	0.4475644	-0.2994898	10.40641	-6.919165	0	0
3.821046	-0.1091435	0.5036725	0.3440033	-0.2181635	-1.250235	0.9818063	0	0
3.854179	-0.09732313	0.4954906	0.3567544	-0.2469409	0.1282804	-0.2895103	0	0
3.870745	-0.09022804	0.4906086	0.4282733	-0.2946835	1.439019	-0.9606194	0	0
3.887312	-0.08732995	0.4886389	0.1749341	-0.1188963	-7.646013	5.305421	0	0
3.903879	-0.08270565	0.4857306	0.2791313	-0.175548	3.14477	-1.709801	0	0
3.920446	-0.07891472	0.4836541	0.2288271	-0.1253418	-1.518228	1.515268	0	0
3.937013	-0.07548787	0.4819754	0.2068425	-0.101329	-0.6635006	0.7247135	0	0
3.970327	-0.07268751	0.480261	0.0840608	-0.05146285	-2.461494	0.9997023	0	0
3.986712	-0.07268751	0.480261	0	0	-1.691396	1.035489	0	0
4.003351	-0.07268751	0.480261	0	0	0	0	0	0
4.019862	-0.07268751	0.480261	0	0	0	0	0	0
4.036412	-0.07268751	0.480261	0	0	0	0	0	0
4.05339	-0.07268751	0.480261	0	0	0	0	0	0
4.069897	-0.07268751	0.4802971	0	0.002186363	0	0.06529392	0	0
4.086112	-0.07268751	0.4803331	0	0.002225776	0	0.001204484	0	0
4.102679	-0.07268751	0.4803331	0	0	0	-0.0678971	0	0
4.119246	-0.07268751	0.4803331	0	0	0	0	0	0
4.135812	-0.07268751	0.4803331	0	0	0	0	0	0
4.152456	-0.07268751	0.4803331	0	0	0	0	0	0
4.168971	-0.07268751	0.4803331	0	0	0	0	0	0
4.185513	-0.07268751	0.4803331	0	0	0	0	0	0
4.202491	-0.07268751	0.4803331	0	0	0	0	0	0
4.218646	-0.07268751	0.4803331	0	0	0	0	0	0
4.235213	-0.07268751	0.4803331	0	0	0	0	0	0
4.251779	-0.07268751	0.4803331	0	0	0	0	0	0
4.268537	-0.07271368	0.4803151	-0.001561878	-0.001077709	-0.04686911	-0.03234009	0	0
4.284913	-0.07271368	0.4803151	0	0	0.04713891	0.03252625	0	0
4.301479	-0.07271368	0.4803151	0	0	0	0	0	0
4.318074	-0.07271368	0.4803151	0	0	0	0	0	0
4.334612	-0.07271368	0.4803151	0	0	0	0	0	0
4.35118	-0.07271368	0.4803151	0	0	0	0	0	0
4.368109	-0.07271368	0.4803151	0	0	0	0	0	0
4.384313	-0.07271368	0.4803151	0	0	0	0	0	0
4.400879	-0.07271368	0.4803151	0	0	0	0	0	0
4.417446	-0.07271368	0.4803151	0	0	0	0	0	0
4.533412	-0.07276604	0.480279	-0.0004514693	-0.0003112163	-0.003406465	-0.002348216	0	0
4.54998	-0.07279221	0.480261	-0.001579859	-0.001088317	-0.008513993	-0.005863429	0	0
4.566546	-0.07279221	0.480261	0	0	0.04768093	0.03284596	0	0
4.58603	-0.07281839	0.4802429	-0.001343798	-0.0009269684	-0.03727612	-0.02571352	0	0
4.602597	-0.07281839	0.4802429	0	0	0.03727513	0.02571284	0	0
4.619296	-0.07284456	0.4802249	-0.001567453	-0.001079771	-0.04711866	-0.03245863	0	0
4.635732	-0.07287074	0.4802068	-0.001592463	-0.001098813	-0.0007548269	-0.0005747009	0	0
4.652298	-0.07287074	0.4802068	0	0	0.04825299	0.03329498	0	0
4.668864	-0.07289692	0.4801888	-0.0015804	-0.00108838	-0.04769931	-0.03284927	0	0
4.702345	-0.07300162	0.4800805	-0.00312727	-0.003233864	-0.0309084	-0.04286944	0	0
4.718564	-0.0730278	0.4800625	-0.001613766	-0.001111675	0.03045294	0.04270016	0	0
4.735131	-0.07308014	0.4800264	-0.003159809	-0.002178496	-0.04715576	-0.03253905	0	0
4.75188	-0.0731325	0.4799542	-0.00312589	-0.004309609	0.001018124	-0.06396728	0	0
4.768264	-0.07328955	0.4795934	-0.009585268	-0.02202352	-0.19495	-0.5346222	0	0
4.784933	-0.07260897	0.4778255	0.04083079	-0.1060637	1.525313	-2.542595	0	0
4.801416	-0.06915271	0.4748319	0.2096823	-0.1816112	5.093309	-2.278849	0	0
4.817964	-0.06834078	0.4738043	0.04906495	-0.06209839	-4.862556	3.618152	0	0
4.834531	-0.0686027	0.473624	-0.01580983	-0.01088138	-1.959053	1.546623	0	0
4.851098	-0.06933604	0.4700918	-0.04426694	-0.21322	-0.8588617	-6.106766	0	0
4.867665	-0.06579961	0.4676599	0.2134595	-0.1467897	7.778424	2.004926	0	0
4.884473	-0.05990193	0.4636085	0.3508743	-0.2410319	4.117207	-2.823673	0	0
4.900985	-0.05237311	0.4584439	0.4559759	-0.3127888	3.154314	-2.153571	0	0
4.917365	-0.04502219	0.4534085	0.4487792	-0.307411	-0.2188026	0.1635023	0	0
4.933931	-0.03874376	0.4491129	0.3789774	-0.2592914	-2.118635	1.460532	0	0
4.9505	-0.03148959	0.4441191	0.4378375	-0.3014124	1.776375	-1.271195	0	0
4.967065	-0.02583635	0.4402588	0.3412692	-0.2330329	-2.914521	2.063757	0	0
4.983631	-0.007605116	0.427755	1.100503	-0.7547763	22.9157	-15.74761	0	0
5.000197	0.004526285	0.4194929	0.732295	-0.4987263	-11.11318	7.728048	0	0
5.016765	0.01997103	0.4089809	0.9322465	-0.6345088	6.034723	-4.098042	0	0
5.033331	0.02980696	0.4022875	0.5937321	-0.4040391	-10.21668	6.955792	0	0
5.049898	0.03559023	0.3983515	0.3490788	-0.2375734	-7.383863	5.024088	0	0
5.066465	0.04334126	0.3930753	0.467867	-0.318485	3.585084	-2.441953	0	0
5.083031	0.05468227	0.3853156	0.6846038	-0.4684127	6.541508	-4.525087	0	0
5.099598	0.06197317	0.3802752	0.4400794	-0.3042432	-7.380081	4.95486	0	0
5.116638	0.06970268	0.3745389	0.453616	-0.3366377	0.4027928	-0.9639227	0	0
5.132731	0.07687452	0.365106	0.4456426	-0.5861408	-0.2406491	-7.530341	0	0
5.149298	0.07687452	0.3622481	0	-0.1725114	-13.6449	12.66471	0	0
5.165865	0.07446731	0.3486749	-0.1452998	-0.81928	-4.385221	-19.51979	0	0
5.182431	0.07006931	0.3410676	-0.2654865	-0.4592143	-3.627397	10.86727	0	0
5.198998	0.06310033	0.3363176	-0.4206486	-0.2867114	-4.683004	5.206373	0	0
5.215565	0.05940371	0.333764	-0.2231285	-0.1541363	5.96117	4.001122	0	0
5.232131	0.0524256	0.328871	-0.4212238	-0.2953612	-5.9787	-4.262297	0	0
5.248698	0.05071962	0.3277102	-0.102979	-0.07007009	9.6052	6.799689	0	0
5.265265	0.03905907	0.3197091	-0.7038524	-0.482957	-18.13518	-12.46149	0	0
5.281832	0.03419719	0.3164048	-0.2934639	-0.1994517	12.38573	8.556331	0	0
5.298397	0.02996471	0.3135289	-0.2555021	-0.1736093	1.145754	0.7799696	0	0
5.314965	0.02867635	0.3126536	-0.07776366	-0.05283134	5.364389	3.645244	0	0
5.331532	0.0243899	0.3097059	-0.2587305	-0.1779192	-5.461512	-3.775105	0	0
5.348302	0.02078648	0.3072226	-0.2148745	-0.148085	1.31553	0.8949257	0	0
5.364815	0.01549876	0.3036312	-0.3202181	-0.2174903	-3.165109	-2.085323	0	0
5.381326	0.01476209	0.3031309	-0.04461722	-0.03030237	8.345513	5.668266	0	0
5.397799	0.01426219	0.3027914	-0.03034578	-0.0206096	0.4326746	0.2938605	0	0
5.414366	0.01136793	0.3008257	-0.1747029	-0.1186534	-4.369157	-2.967423	0	0
5.430932	0.009026071	0.2991994	-0.1413672	-0.09816931	1.006133	0.6182464	0	0
5.447501	0.008999757	0.2990386	-0.001588108	-0.009707393	4.218479	2.669748	0	0
5.464065	0.009105012	0.2989671	0.006354263	-0.004316239	0.2397081	0.16271	0	0
5.513919	0.02531038	0.2879196	0.3250579	-0.221597	4.79844	-3.271405	0	0
5.536724	0.03020134	0.2845935	0.2144711	-0.1458521	-1.522007	1.042478	0	0
5.553291	0.03669405	0.2801756	0.3919007	-0.266663	4.506498	-3.068449	0	0
5.569959	0.04026769	0.2777426	0.2144036	-0.1459698	-5.340659	3.631499	0	0
5.586424	0.04893459	0.2718376	0.5263615	-0.3586288	9.415181	-6.418247	0	0
5.602991	0.05247809	0.2694212	0.2138925	-0.1458567	-9.459467	6.441312	0	0
5.619558	0.05880056	0.2651066	0.381636	-0.2604392	5.062655	-3.458204	0	0
5.636125	0.0612129	0.2634591	0.1456136	-0.09944269	-7.123374	4.859023	0	0
5.652691	0.06472525	0.2610592	0.2120178	-0.1448661	2.004168	-1.37094	0	0
5.669258	0.06786928	0.2588739	0.1897797	-0.1319115	-0.6711763	0.3909877	0	0
5.686041	0.0700955	0.2573152	0.1326454	-0.09286836	-1.713174	1.170708	0	0
5.702391	0.0753047	0.2537135	0.3186003	-0.2202838	5.612292	-3.845517	0	0
5.719063	0.08019605	0.2503259	0.2933848	-0.2031947	-0.7635869	0.5175011	0	0
5.735524	0.08712102	0.2455384	0.4206918	-0.2908365	3.8423	-2.64515	0	0
5.752091	0.09174175	0.2423277	0.2789159	-0.1938034	-4.292645	2.937936	0	0
5.768658	0.09638463	0.239134	0.2802449	-0.1927734	0.04011002	0.0310872	0	0
5.785225	0.1021954	0.2350956	0.3507469	-0.2437658	2.127786	-1.538977	0	0
5.802123	0.1046947	0.2333721	0.1479126	-0.1019988	-6.061191	4.23635	0	0
5.818635	0.1088314	0.2305168	0.2505275	-0.1729227	3.07142	-2.122862	0	0
5.835147	0.1116651	0.2285589	0.1716101	-0.1185711	-2.389674	1.645806	0	0
5.851491	0.1117951	0.2284691	0.007950393	-0.005495667	-4.980979	3.441448	0	0
5.868058	0.1133281	0.2274091	0.09253708	-0.06398051	2.570141	-1.777044	0	0
5.884625	0.1141074	0.2268701	0.0470405	-0.03253533	-1.373129	0.9490448	0	0
5.901193	0.1141074	0.2268701	0	0	-1.419665	0.9819041	0	0
5.917758	0.1141074	0.2268701	0	0	0	0	0	0
5.934325	0.1141074	0.2268701	0	0	0	0	0	0
5.950894	0.1141074	0.2268701	0	0	0	0	0	0
5.967459	0.1141074	0.2268701	0	0	0	0	0	0
5.984252	0.1141074	0.2268701	0	0	0	0	0	0
6.000592	0.1141074	0.2268701	0	0	0	0	0	0
6.017159	0.1141074	0.2268701	0	0	0	0	0	0
6.033725	0.1141074	0.2268701	0	0	0	0	0	0
6.050299	0.1141074	0.2268701	0	0	0	0	0	0
6.066858	0.1141074	0.2268701	0	0	0	0	0	0
6.083426	0.1141074	0.2268701	0	0	0	0	0	0
6.099992	0.1140814	0.2268881	-0.001567762	0.001084751	-0.04731583	0.03273832	0	0
6.116559	0.1140814	0.2268881	0	0	0.04731719	-0.03273926	0	0
6.133359	0.1140814	0.2268881	0	0	0	0	0	0
6.149692	0.1140814	0.2268881	0	0	0	0	0	0
6.166381	0.1140814	0.2268881	0	0	0	0	0	0
6.182826	0.1140814	0.2268881	0	0	0	0	0	0
6.199404	0.1140295	0.226924	-0.003133718	0.002167942	-0.09489537	0.06564969	0	0
6.215958	0.1139776	0.2269959	-0.003137962	0.004341478	-0.0001280927	0.06560123	0	0
6.232525	0.1139516	0.2270138	-0.001568166	0.00108382	0.04739564	-0.09835594	0	0
6.249093	0.1139256	0.2270318	-0.001567717	0.00108472	1.357235E-05	2.714469E-05	0	0
6.265658	0.1139256	0.2270318	0	0	0.04731583	-0.03273832	0	0
6.282225	0.1137438	0.2271217	-0.01097568	0.005422855	-0.3312658	0.1636715	0	0
6.298975	0.1137178	0.2271396	-0.001551024	0.001072862	0.2828776	-0.1305634	0	0
6.402485	0.1130943	0.2272115	-0.006023452	0.0006941693	-0.03718958	-0.003148944	0	0
6.419052	0.1129644	0.2271935	-0.007841508	-0.001083851	-0.01514079	-0.01480738	0	0
6.435619	0.1128345	0.2272115	-0.007841508	0.001083851	0	0.06542329	0	0
6.452186	0.1125747	0.2271755	-0.01568392	-0.002168602	-0.2366911	-0.09816207	0	0
6.468752	0.1088314	0.2247318	-0.2259475	-0.1475117	-6.34595	-4.386591	0	0
6.485319	0.0977402	0.2172165	-0.6694878	-0.4536327	-13.38646	-9.239016	0	0
6.502119	0.09176784	0.2130966	-0.355509	-0.2452421	9.410087	6.24556	0	0
6.518453	0.08132027	0.2059313	-0.6396188	-0.4386714	-8.574697	-5.837874	0	0
6.535142	0.07878396	0.204184	-0.1519723	-0.1046946	14.76671	10.11335	0	0
6.551587	0.06873366	0.1974434	-0.6111401	-0.4098844	-13.85771	-9.210646	0	0
6.568165	0.06241881	0.1931688	-0.380924	-0.2578507	6.971413	4.60389	0	0
6.58472	0.06024281	0.1916352	-0.1314423	-0.09264287	7.529806	4.986269	0	0
6.601286	0.05452485	0.1877724	-0.3451464	-0.2331612	-6.45211	-4.242499	0	0
6.617853	0.05134956	0.1856236	-0.191672	-0.1297142	4.632066	3.12217	0	0
6.680972	0.0480157	0.1834017	-0.05281829	-0.03520007	1.742518	1.186087	0	0
6.69754	0.04804195	0.1834198	0.001584536	0.001090984	0.6827054	0.4554193	0	0
6.714107	0.04812072	0.1835282	0.004754418	0.006542496	0.09566587	0.1645246	0	0
6.731017	0.04814697	0.1835644	0.001552498	0.002136971	-0.09564586	-0.1315992	0	0
6.747584	0.04814697	0.1835644	0	0	-0.04637464	-0.06383341	0	0
6.764305	0.04817323	0.1835824	0.001570253	0.001080106	0.04717107	0.03244685	0	0
6.780718	0.04809446	0.1836005	-0.004798945	0.001101286	-0.1922283	0.0006392152	0	0
6.797285	0.0480157	0.1836547	-0.004754193	0.003271248	0.001356942	0.06579638	0	0
6.813852	0.04793693	0.1837089	-0.004754555	0.003271342	-1.091987E-05	2.845912E-06	0	0
6.830418	0.04788442	0.183745	-0.003169795	0.002181258	0.04783023	-0.03290025	0	0
6.846985	0.04780566	0.1837631	-0.00475433	0.001090148	-0.04782344	-0.03293119	0	0
6.863552	0.04770063	0.1838353	-0.006339407	0.00436149	-0.04783908	0.09873216	0	0
6.880118	0.0466766	0.1845398	-0.06181259	0.04252565	-1.674232	1.15183	0	0
6.896685	0.04402417	0.1863279	-0.1601101	0.1079331	-2.966754	1.974087	0	0
6.913252	0.03900652	0.1897763	-0.3028659	0.2081438	-4.308502	3.024453	0	0
6.929818	0.03188393	0.1944497	-0.4299452	0.2821045	-3.835371	2.232202	0	0
6.946384	0.0248107	0.1990841	-0.4269657	0.2797488	0.08992808	-0.0711009	0	0
6.962953	0.02115474	0.2015173	-0.2206614	0.146864	6.226274	-4.010469	0	0
6.979518	0.01465685	0.2056071	-0.3922588	0.2468876	-5.178968	3.018804	0	0
6.996085	0.009973354	0.2076242	-0.2826961	0.1217512	3.306798	-3.77684	0	0
7.012652	-0.0005789473	0.2044363	-0.6369565	-0.1924299	-10.69175	-9.482143	0	0
7.029218	-0.01097324	0.2010668	-0.6274552	-0.2033989	0.2867675	-0.3310627	0	0
7.045784	-0.02318006	0.196127	-0.736826	-0.2981725	-3.301008	-2.860437	0	0
7.062352	-0.02865005	0.1940348	-0.3301695	-0.1262889	12.27309	5.187531	0	0
7.079027	-0.04011006	0.1929163	-0.6872371	-0.06707611	-10.74123	1.781227	0	0
7.095485	-0.04292099	0.1931508	-0.1707991	0.01425146	15.5868	2.454577	0	0
7.161751	-0.04922336	0.195604	-0.0951064	0.03702076	0.9150021	0.2752438	0	0
7.228018	-0.04922336	0.195604	0	0	0.7176051	-0.2793323	0	0
7.244645	-0.04922336	0.195604	0	0	0	0	0	0
7.263549	-0.04919711	0.195586	0.001388657	-0.0009545414	0.03908239	-0.02686464	0	0
7.280117	-0.04919711	0.195586	0	0	-0.03914754	0.02690942	0	0
7.296684	-0.04919711	0.195586	0	0	0	0	0	0
7.313251	-0.04919711	0.195586	0	0	0	0	0	0
7.329817	-0.04919711	0.195586	0	0	0	0	0	0
7.346384	-0.04919711	0.195586	0	0	0	0	0	0
7.36295	-0.04919711	0.195586	0	0	0	0	0	0
7.379517	-0.04919711	0.195586	0	0	0	0	0	0
7.396084	-0.04919711	0.195586	0	0	0	0	0	0
7.412651	-0.04919711	0.195586	0	0	0	0	0	0
7.429217	-0.04922336	0.195604	-0.001584627	0.001089248	-0.04782551	0.03287452	0	0
7.445784	-0.04922336	0.195604	0	0	0.04782551	-0.03287452	0	0
7.46235	-0.04922336	0.195604	0	0	0	0	0	0
7.478917	-0.04922336	0.195604	0	0	0	0	0	0
7.495484	-0.04922336	0.195604	0	0	0	0	0	0
7.512051	-0.04924962	0.1956221	-0.001584627	0.001088349	-0.04782551	0.03284737	0	0
7.528617	-0.04924962	0.1956221	0	0	0.04782551	-0.03284737	0	0
7.545186	-0.04922336	0.1956401	0.00158449	0.001088255	0.04781931	0.03284312	0	0
7.561751	-0.04922336	0.1956762	0	0.002177785	-0.04782138	0.03288303	0	0
7.578317	-0.04919711	0.1956942	0.001584672	0.00108838	0.04782964	-0.03288114	0	0
7.594884	-0.04917086	0.1957123	0.001584627	0.001089248	-1.377321E-06	2.620071E-05	0	0
7.611451	-0.04911835	0.1957483	0.003169253	0.002176697	0.04782551	0.03282022	0	0
7.628415	-0.0490921	0.1957664	0.00154748	0.001063714	-0.04836613	-0.03319249	0	0
7.644584	-0.0490396	0.1958024	0.003247298	0.0022303	0.05130282	0.03520915	0	0
7.66115	-0.04882957	0.1959467	0.01267783	0.008709739	0.2880882	0.1979369	0	0
7.677717	-0.04880332	0.1959647	0.001584627	0.001088349	-0.334808	-0.230024	0	0
7.694468	-0.04869831	0.1960369	0.006269081	0.004306449	0.1406001	0.0965887	0	0
7.710986	-0.04859329	0.196109	0.006357622	0.004367115	0.002661353	0.001823514	0	0
7.727489	-0.04822574	0.1963615	0.02227096	0.0152977	0.4819023	0.33101	0	0
7.743984	-0.04793693	0.1965599	0.01750952	0.01202715	-0.1442945	-0.09911329	0	0
7.76055	-0.04767437	0.1967402	0.01584943	0.01088501	-0.05021446	-0.0345474	0	0
7.777519	-0.04759561	0.1967943	0.004641663	0.003188399	-0.3342062	-0.2295066	0	0
7.793684	-0.04620393	0.1977499	0.08609537	0.0591214	2.458313	1.688086	0	0
7.81025	-0.03895397	0.2027247	0.4376214	0.3002844	10.73983	7.368018	0	0
7.826817	-0.03059571	0.2084525	0.5045198	0.3457414	2.019056	1.371935	0	0
7.843383	-0.0242584	0.2127547	0.3825431	0.2596956	-3.681423	-2.596981	0	0
7.85995	-0.01799806	0.2170367	0.3778967	0.2584759	-0.1402373	-0.03681333	0	0
7.876516	-0.01205205	0.2211008	0.3589121	0.2453183	-0.5729807	-0.3971131	0	0
7.893101	-0.006631482	0.2247677	0.326838	0.2210995	-0.9674987	-0.7305458	0	0
7.975917	0.003105253	0.2314507	0.1175705	0.08069639	-2.105285	-1.412492	0	0
7.992486	0.003078938	0.2314327	-0.001588281	-0.001083727	-1.198964	-0.8228635	0	0
8.009189	0.003078938	0.2314327	0	0	0.04773724	0.0325724	0	0
8.025697	0.003078938	0.2314327	0	0	0	0	0	0
8.042208	0.003078938	0.2313968	0	-0.002175028	0	-0.06587186	0	0
8.05875	0.003078938	0.2313968	0	0	0	0.06580345	0	0
8.075319	0.003078938	0.2313968	0	0	0	0	0	0
8.091884	0.003078938	0.2313968	0	0	0	0	0	0
8.10845	0.003078938	0.2313968	0	0	0	0	0	0
8.125016	0.003078938	0.2313968	0	0	0	0	0	0
8.141583	0.003052622	0.2313788	-0.001588404	-0.00108382	-0.0479395	-0.0327107	0	0
8.15815	0.003052622	0.2313788	0	0	0.0479395	0.0327107	0	0
8.20785	0.003052622	0.2313788	0	0	0	0	0	0
8.224415	0.003026307	0.2313609	-0.001588587	-0.001084845	-0.0239732	-0.01637128	0	0
8.240981	0.003026307	0.2313609	0	0	0.04794778	0.0327435	0	0
8.277499	0.002999991	0.231307	-0.0007206203	-0.001475096	-0.013575	-0.02778776	0	0
8.294065	0.002973675	0.231289	-0.001588495	-0.001083883	-0.01634897	0.007369651	0	0
8.310632	0.00294736	0.2312711	-0.001588509	-0.001084782	-4.251485E-07	-2.714626E-05	0	0
8.327405	0.002921044	0.2312531	-0.001568896	-0.00107051	0.0005882763	0.0004280929	0	0
8.343765	0.002921044	0.2312172	0	-0.00219506	0.04735075	-0.03393997	0	0
8.360429	0.002894729	0.2311992	-0.001579236	-0.00107845	-0.0478211	0.03381225	0	0
8.376941	0.002868413	0.2311813	-0.001593725	-0.001087451	-0.0004367224	-0.0002713219	0	0
8.393466	0.002868413	0.2311813	0	0	0.04824033	0.03291596	0	0
8.410033	0.002842098	0.2311633	-0.001588418	-0.00108382	-0.04799933	-0.03275124	0	0
8.426976	0.002842098	0.2311633	0	0	0.04740101	0.03234299	0	0
8.443488	0.002815782	0.2311454	-0.001593725	-0.001087451	-0.04763801	-0.03250499	0	0
8.459731	0.002815782	0.2311094	0	-0.002211829	0.04865607	-0.03432703	0	0
8.476297	0.002789466	0.2310915	-0.001588509	-0.001083883	-0.0484165	0.03437891	0	0
8.492864	0.002763151	0.2310735	-0.001588495	-0.001083883	4.251485E-07	0	0	0
8.509447	0.00271052	0.2310376	-0.00317373	-0.00216642	-0.04782046	-0.032656	0	0
8.525998	0.00271052	0.2310376	0	0	0.09578336	0.06538267	0	0
8.542564	0.002684204	0.2310196	-0.001588495	-0.001083883	-0.04796573	-0.0327286	0	0
8.559132	0.002684204	0.2310196	0	0	0.04794226	0.03271259	0	0
8.575698	0.002684204	0.2309837	0	-0.002167765	0	-0.06542517	0	0
8.592265	0.002657888	0.2309658	-0.001588418	-0.00108472	-0.04793992	0.03268732	0	0
8.608831	0.002631573	0.2309119	-0.001588509	-0.003251648	-2.761629E-06	-0.06539991	0	0
8.625398	0.002578942	0.230876	-0.003177004	-0.002168665	-0.04794364	0.03268638	0	0
8.641965	0.002578942	0.230876	0	0	0.09588494	0.06545231	0	0
8.658642	0.002552626	0.230858	-0.001577972	-0.001076693	-0.04746617	-0.03238745	0	0
8.675152	0.002578942	0.2308401	0.001593923	-0.001087577	0.09557667	-0.0003279541	0	0
8.691664	0.002578942	0.2308401	0	0	-0.04826862	0.03293498	0	0
8.708232	0.002578942	0.2308401	0	0	0	0	0	0
8.724799	0.002578942	0.2308401	0	0	0	0	0	0
8.741364	0.002552626	0.2308221	-0.001588601	-0.001084845	-0.04794683	-0.03274256	0	0
8.757931	0.002552626	0.2308221	0	0	0.0479482	0.0327435	0	0
8.774498	0.002552626	0.2308221	0	0	0	0	0	0
8.791064	0.002552626	0.2308221	0	0	0	0	0	0
8.807746	0.002526311	0.2308041	-0.001577507	-0.001076385	-0.04744675	-0.03237448	0	0
8.824258	0.002526311	0.2308041	0	0	0.04752444	0.03242749	0	0
8.840769	0.002526311	0.2308041	0	0	0	0	0	0
8.857331	0.002526311	0.2308041	0	0	0	0	0	0
8.873898	0.002526311	0.2308041	0	0	0	0	0	0
8.890466	0.002499995	0.2307862	-0.001588326	-0.001083758	-0.04793579	-0.03270788	0	0
8.907032	0.002499995	0.2307862	0	0	0.04793579	0.03270788	0	0
8.923598	0.002499995	0.2307862	0	0	0	0	0	0
8.940165	0.002499995	0.2307862	0	0	0	0	0	0
8.956858	0.002499995	0.2307862	0	0	0	0	0	0
8.973298	0.002499995	0.2307862	0	0	0	0	0	0
9.039564	0.002473679	0.2307682	-0.0003971216	-0.0002709668	-0.004801579	-0.003276247	0	0
9.056419	0.002473679	0.2307682	0	0	0.004777615	0.003259896	0	0
9.072698	0.002473679	0.2307682	0	0	0	0	0	0
9.089443	0.002473679	0.2307682	0	0	0	0	0	0
9.105954	0.002473679	0.2307682	0	0	0	0	0	0
9.12641	0.002473679	0.2307682	0	0	0	0	0	0
9.142979	0.002473679	0.2307682	0	0	0	0	0	0
9.159545	0.002447363	0.2307502	-0.001588509	-0.001084782	-0.0479413	-0.03273879	0	0
9.176112	0.002447363	0.2307502	0	0	0.04794269	0.03273973	0	0
9.192678	0.002447363	0.2307502	0	0	0	0	0	0
9.209245	0.002447363	0.2307502	0	0	0	0	0	0
9.225811	0.002447363	0.2307502	0	0	0	0	0	0
9.242378	0.002447363	0.2307502	0	0	0	0	0	0
9.258945	0.002447363	0.2307502	0	0	0	0	0	0
9.292078	0.002447363	0.2307502	0	0	0	0	0	0
9.32521	0.002447363	0.2307502	0	0	0	0	0	0
9.341777	0.002447363	0.2307502	0	0	0	0	0	0
9.358343	0.002447363	0.2307502	0	0	0	0	0	0
9.37491	0.002447363	0.2307502	0	0	0	0	0	0
9.391477	0.002447363	0.2307502	0	0	0	0	0	0
9.408167	0.002447363	0.2307502	0	0	0	0	0	0
9.42461	0.002447363	0.2307502	0	0	0	0	0	0
9.441192	0.002447363	0.2307502	0	0	0	0	0	0
9.457743	0.002447363	0.2307502	0	0	0	0	0	0
9.474309	0.002447363	0.2307502	0	0	0	0	0	0
9.490875	0	0	-0.1477317	-13.92891	-4.458807	-420.3997	0	0
9.507442	0.002447363	0.2307502	0.1477317	13.92891	8.917614	840.7993	0	0
9.524247	0.002447363	0.2307502	0	0	-4.426825	-417.3842	0	0
9.540759	0.002447363	0.2307502	0	0	0	0	0	0
9.557141	0.002447363	0.2307502	0	0	0	0	0	0
9.573709	0.002421048	0.2307323	-0.001588404	-0.00108382	-0.04820729	-0.03289343	0	0
9.590301	0.002421048	0.2307323	0	0	0.04790227	0.0326853	0	0
9.606843	0.002421048	0.2307323	0	0	0	0	0	0
9.623407	0.002421048	0.2307323	0	0	0	0	0	0
9.639974	0.002421048	0.2307323	0	0	0	0	0	0
9.65684	0.002421048	0.2307323	0	0	0	0	0	0
9.673106	0.002421048	0.2307323	0	0	0	0	0	0
9.689673	0.002421048	0.2307323	0	0	0	0	0	0
9.706373	0.002421048	0.2307323	0	0	0	0	0	0
9.722884	0.002421048	0.2307323	0	0	0	0	0	0
9.739397	0.002421048	0.2307323	0	0	0	0	0	0
9.755939	0.002421048	0.2307323	0	0	0	0	0	0
9.772506	0.002421048	0.2307323	0	0	0	0	0	0
9.789433	0.002421048	0.2307323	0	0	0	0	0	0
9.805638	0.002421048	0.2307323	0	0	0	0	0	0
9.822205	0.002421048	0.2307323	0	0	0	0	0	0
9.838771	0.002421048	0.2307323	0	0	0	0	0	0
9.954738	0.002421048	0.2307323	0	0	0	0	0	0
9.971306	0.002421048	0.2307323	0	0	0	0	0	0
9.98787	0.002421048	0.2307323	0	0	0	0	0	0
10.00444	0.002421048	0.2307323	0	0	0	0	0	0
10.02109	0.002421048	0.2307323	0	0	0	0	0	0
10.03761	0.002421048	0.2307323	0	0	0	0	0	0
10.05414	0.002421048	0.2307323	0	0	0	0	0	0
10.0707	0.002421048	0.2307323	0	0	0	0	0	0
10.08727	0.002421048	0.2307323	0	0	0	0	0	0
10.10384	0.002421048	0.2307323	0	0	0	0	0	0
10.1204	0.002421048	0.2307323	0	0	0	0	0	0
10.14047	0.002421048	0.2307323	0	0	0	0	0	0
10.15719	0.002421048	0.2307323	0	0	0	0	0	0
10.1736	0.002421048	0.2307323	0	0	0	0	0	0
10.19021	0.002421048	0.2307323	0	0	0	0	0	0
10.20674	0.002421048	0.2307323	0	0	0	0	0	0
10.2233	0.002421048	0.2307323	0	0	0	0	0	0
10.23987	0.002421048	0.2307323	0	0	0	0	0	0
10.25644	0.002421048	0.2307323	0	0	0	0	0	0
10.273	0.002421048	0.2307323	0	0	0	0	0	0
10.28957	0.002421048	0.2307323	0	0	0	0	0	0
10.30614	0.002421048	0.2307323	0	0	0	0	0	0
10.32281	0.002421048	0.2307323	0	0	0	0	0	0
10.33932	0.002421048	0.2307323	0	0	0	0	0	0
10.35584	0.002421048	0.2307323	0	0	0	0	0	0
10.3724	0.002421048	0.2307323	0	0	0	0	0	0
10.38897	0.002421048	0.2307323	0	0	0	0	0	0
10.40554	0.002421048	0.2307323	0	0	0	0	0	0
10.4221	0.002421048	0.2307323	0	0	0	0	0	0
10.43867	0.002421048	0.2307323	0	0	0	0	0	0
10.4554	0.002421048	0.2307323	0	0	0	0	0	0
10.47191	0.002421048	0.2307323	0	0	0	0	0	0
10.48837	0.002421048	0.2306964	0	-0.002182865	0	-0.06620865	0	0
10.50494	0.002315785	0.2306245	-0.006354037	-0.00433643	-0.1924021	-0.06521057	0	0
10.5215	0.00228947	0.2306066	-0.001588509	-0.001083883	0.1438322	0.09816772	0	0
10.53807	0.002210523	0.2305168	-0.004765514	-0.005420313	-0.09588771	-0.1308813	0	0
10.55463	0.002026313	0.2303551	-0.01111956	-0.009757642	-0.1917767	-0.1309084	0	0
10.5712	0.001289473	0.2298522	-0.04447832	-0.03035771	-1.006827	-0.6217471	0	0
10.58777	0.001052631	0.2297265	-0.01429662	-0.007589877	0.9109379	0.6871741	0	0
10.60433	0.001026315	0.2297085	-0.001588516	-0.001083883	0.3835534	0.1963626	0	0
10.7203	0.000736842	0.229942	-0.002496195	0.002013534	-0.006848747	0.02337107	0	0
10.73687	0.000368421	0.2301935	-0.02223793	0.01517798	-0.1489571	0.09932952	0	0
10.75343	0	0.2305168	-0.0222405	0.01951641	-7.735594E-05	0.1309416	0	0
10.77	-0.0008421051	0.2311274	-0.05083249	0.0368601	-0.8629825	0.523479	0	0
10.78656	-0.01073643	0.2379137	-0.597257	0.4096438	-16.49207	11.25128	0	0
10.80313	-0.01647219	0.2418254	-0.3462115	0.2361127	7.576788	-5.237329	0	0
10.8197	-0.02636231	0.2485689	-0.5970031	0.4070622	-7.569125	5.159415	0	0
10.83626	-0.03989987	0.257799	-0.8171754	0.5571606	-6.645197	4.530239	0	0
10.85283	-0.05253058	0.2664136	-0.762435	0.52001	1.652166	-1.121273	0	0
10.8694	-0.06087207	0.272106	-0.5035226	0.3436133	7.814439	-5.32397	0	0
10.88596	-0.07067158	0.2787982	-0.5915337	0.4039617	-2.656331	1.821425	0	0
10.90253	-0.07540937	0.2820359	-0.2859734	0.1954312	9.222093	-6.293643	0	0
10.91922	-0.08547544	0.2889209	-0.6031106	0.4125157	-9.535815	6.527387	0	0
10.93566	-0.09255063	0.2937658	-0.4303042	0.2946592	5.215607	-3.557122	0	0
10.95223	-0.1018047	0.3001108	-0.5585784	0.3829888	-3.885975	2.675882	0	0
10.9688	-0.1090135	0.3050607	-0.4351456	0.2987882	3.725318	-2.541251	0	0
10.98536	-0.1160551	0.3099025	-0.4250329	0.2922519	0.3052099	-0.1972727	0	0
11.00193	-0.1248214	0.3159404	-0.5291641	0.3644688	-3.142775	2.179574	0	0
11.0185	-0.1316292	0.3206021	-0.4109462	0.2814029	3.568027	-2.507078	0	0
11.05467	-0.1452591	0.3299603	-0.3768288	0.2587273	0.6469448	-0.4299816	0	0
11.07133	-0.1505624	0.3335676	-0.3182753	0.2164875	1.108283	-0.7995031	0	0
11.08784	-0.1554463	0.3369247	-0.2957947	0.2033299	0.6776664	-0.3966289	0	0
11.10437	-0.1595275	0.3396569	-0.2469435	0.165313	1.47863	-1.150695	0	0
11.12093	-0.1638853	0.3417283	-0.2630319	0.1250324	-0.4861369	-1.217144	0	0
11.1375	-0.1699499	0.3430319	-0.3660852	0.07868718	-3.110243	-1.398741	0	0
11.15407	-0.1727094	0.3449248	-0.1665725	0.1142619	6.02165	1.07371	0	0
11.17063	-0.1765121	0.3475855	-0.2295457	0.1606125	-1.900642	1.398944	0	0
11.1872	-0.178042	0.348657	-0.0923468	0.06467856	4.140908	-2.895459	0	0
11.20376	-0.1800295	0.3500499	-0.1199746	0.08408051	-0.8338554	0.5855858	0	0
11.22033	-0.1832625	0.3521394	-0.1951461	0.1261189	-2.268747	1.268758	0	0
11.23694	-0.1833897	0.3521929	-0.007658205	0.003224035	5.650914	-3.70407	0	0
11.25346	-0.1834915	0.3521215	-0.006159266	-0.004323842	0.04524069	-0.2278085	0	0
11.27047	-0.1835678	0.3520679	-0.004489076	-0.003149891	0.04982137	0.03501871	0	0
11.2866	-0.1836187	0.3520322	-0.003153636	-0.00221512	0.04030483	0.02821225	0	0
11.30316	-0.1836441	0.3520143	-0.001535425	-0.001077586	0.04949007	0.03478943	0	0
11.31973	-0.1836696	0.3519965	-0.001535425	-0.001077586	0	0	0	0
11.3363	-0.183695	0.3519786	-0.001535425	-0.001077586	0	0	0	0
11.35286	-0.1837204	0.3519607	-0.001535337	-0.001079323	2.666764E-06	-5.241824E-05	0	0
11.36943	-0.183695	0.3519786	0.001535425	0.001079385	0.09267846	0.06515182	0	0
11.386	-0.183695	0.3519786	0	0	-0.0463419	-0.03257778	0	0
11.40256	-0.183695	0.3519786	0	0	0	0	0	0
11.46883	-0.183695	0.3519429	0	-0.0005392429	0	-0.006510128	0	0
11.48562	-0.183695	0.3519429	0	0	0	0.00649271	0	0
11.50196	-0.183695	0.3519429	0	0	0	0	0	0
11.51864	-0.1837204	0.351925	-0.001525066	-0.001070316	-0.04617942	-0.03240946	0	0
11.5351	-0.1837459	0.3519072	-0.001545837	-0.001084893	-0.0006269002	-0.0004399703	0	0
11.55167	-0.1839494	0.3517643	-0.01228128	-0.008622798	-0.3250817	-0.2282565	0	0
11.56823	-0.1841274	0.3516393	-0.01074922	-0.00754757	0.04623922	0.03245137	0	0
11.5848	-0.1938759	0.3447819	-0.588419	-0.4139132	-17.43562	-12.2652	0	0
11.60136	-0.1982304	0.3417105	-0.2628564	-0.1854024	9.825783	6.896668	0	0
11.61821	-0.2041172	0.3375497	-0.3493908	-0.2469488	-2.589701	-1.841887	0	0
11.6345	-0.2111221	0.3325854	-0.4301459	-0.3048431	-2.437264	-1.747304	0	0
11.65124	-0.2119019	0.3320318	-0.04658835	-0.03307137	11.61457	8.229562	0	0
11.66763	-0.2118768	0.3320497	0.001534233	0.001088869	1.452384	1.030988	0	0
11.6842	-0.2118768	0.3320497	0	0	-0.04654707	-0.03303519	0	0
11.70076	-0.2118768	0.3320497	0	0	0	0	0	0
11.71733	-0.2118768	0.3320497	0	0	0	0	0	0
11.7339	-0.2118768	0.3320497	0	0	0	0	0	0
11.75046	-0.2118768	0.3320497	0	0	0	0	0	0
11.76703	-0.2118265	0.3320854	0.00303667	0.002155172	0.09164953	0.0650451	0	0
11.78383	-0.2118013	0.3321033	0.001496501	0.001064494	-0.04616219	-0.03268998	0	0
11.80034	-0.2117762	0.3321568	0.001523334	0.003243401	0.0008055355	0.06541312	0	0
11.81673	-0.2117762	0.3321568	0	0	-0.04629945	-0.09857833	0	0
11.83329	-0.2117258	0.3321925	0.00303757	0.002156971	0.09217012	0.0654498	0	0
11.84987	-0.2116755	0.3322282	0.003034225	0.002153437	-0.0001009128	-0.0001066377	0	0
11.86643	-0.2116755	0.3322282	0	0	-0.09157573	-0.06499273	0	0
11.88299	-0.2116755	0.3322282	0	0	0	0	0	0
11.89956	-0.2116755	0.3322282	0	0	0	0	0	0
11.91613	-0.2116755	0.3322282	0	0	0	0	0	0
11.93293	-0.2116755	0.3322282	0	0	0	0	0	0
11.94926	-0.2116755	0.3322282	0	0	0	0	0	0
11.96596	-0.2116755	0.3322282	0	0	0	0	0	0
12.00098	-0.2116755	0.3322282	0	0	0	0	0	0
12.01752	-0.2116755	0.3322282	0	0	0	0	0	0
12.03409	-0.2116755	0.3322282	0	0	0	0	0	0
12.05065	-0.2116755	0.3322282	0	0	0	0	0	0
12.06753	-0.2116755	0.3322282	0	0	0	0	0	0
12.08379	-0.2116755	0.3322282	0	0	0	0	0	0
12.17961	-0.2116755	0.3322282	0	0	0	0	0	0
12.19591	-0.2116504	0.3322104	0.001542759	-0.00109492	0.01375887	-0.009764887	0	0
12.21248	-0.2116504	0.3322104	0	0	-0.04693338	0.03330935	0	0
12.22905	-0.2116504	0.3322104	0	0	0	0	0	0
12.24565	-0.2116252	0.3322282	0.00151476	0.001075049	0.04566298	0.03240773	0	0
12.26218	-0.2113485	0.332389	0.016743	0.009724827	0.4596158	0.2610658	0	0
12.27875	-0.2107195	0.332764	0.03797007	0.02263651	0.6414281	0.3901581	0	0
12.29531	-0.2104427	0.3327104	0.01671068	-0.003232759	-0.6416466	-0.7807809	0	0
12.3122	-0.2100903	0.3325318	0.02086775	-0.01057551	0.1242695	-0.2195009	0	0
12.32845	-0.2098889	0.332389	0.01239471	-0.008793877	-0.2557316	0.05377292	0	0
12.34501	-0.2096372	0.3322104	0.01519684	-0.01077946	0.08539692	-0.06051194	0	0
12.36158	-0.2088818	0.3316747	0.04559863	-0.03233838	0.9175804	-0.650687	0	0
12.37814	-0.2052272	0.3291924	0.2206002	-0.1498384	5.281863	-3.546363	0	0
12.42784	-0.1859326	0.3166191	0.388224	-0.252985	2.529557	-1.556552	0	0
12.44441	-0.1816083	0.3139397	0.2609995	-0.1617182	-1.91985	1.377238	0	0
12.46098	-0.1753132	0.3097417	0.3800194	-0.2534237	3.592133	-2.767755	0	0
12.47755	-0.166804	0.3039707	0.5135852	-0.3483171	4.031139	-2.863972	0	0
12.49411	-0.1600405	0.2995032	0.4083128	-0.2697046	-3.177311	2.372665	0	0
12.51084	-0.1513855	0.2938015	0.5174468	-0.340876	3.278198	-2.137866	0	0
12.52724	-0.145491	0.2898864	0.3592451	-0.2386134	-4.774537	3.086292	0	0
12.54381	-0.1376761	0.2846471	0.4717607	-0.3162781	3.412327	-2.355381	0	0
12.56038	-0.1322757	0.2809806	0.3259681	-0.2213134	-4.400283	2.866205	0	0
12.57694	-0.126013	0.2767228	0.3780439	-0.2570142	1.571693	-1.077484	0	0
12.59351	-0.1235517	0.275023	0.1485715	-0.1026082	-6.925888	4.660253	0	0
12.61008	-0.1164185	0.2701014	0.4305564	-0.2970675	8.510564	-5.868964	0	0
12.62664	-0.113432	0.2680786	0.1802767	-0.1221036	-7.553674	5.280571	0	0
12.64343	-0.1100795	0.2657691	0.1997141	-0.137582	0.5827813	-0.4640794	0	0
12.65978	-0.1089095	0.2649633	0.07157729	-0.04929154	-3.867287	2.664689	0	0
12.67645	-0.1067505	0.263477	0.1294477	-0.08911647	1.752333	-1.20591	0	0
12.69297	-0.1063342	0.2632263	0.02521171	-0.0151846	-3.140605	2.22755	0	0
12.70948	-0.10597	0.2629756	0.02206426	-0.01518455	-0.09531392	1.52297E-06	0	0
12.72604	-0.1048249	0.2622592	0.06911715	-0.04324128	1.422516	-0.8482184	0	0
12.74261	-0.1043303	0.2619189	0.0298531	-0.0205407	-1.185026	0.6851245	0	0
12.75918	-0.1043303	0.2619189	0	0	-0.9010201	0.6199552	0	0
12.77574	-0.1043303	0.2619189	0	0	0	0	0	0
12.79231	-0.1043303	0.2619189	0	0	0	0	0	0
12.82556	-0.1043564	0.2619368	-0.0007829531	0.0005387004	-0.01571686	0.01081377	0	0
12.84201	-0.1043564	0.2619368	0	0	0.01575335	-0.01083888	0	0
12.85858	-0.1043564	0.2619368	0	0	0	0	0	0
12.87514	-0.1043564	0.2619368	0	0	0	0	0	0
12.89171	-0.1043564	0.2619368	0	0	0	0	0	0
12.90828	-0.1043564	0.2619368	0	0	0	0	0	0
12.92484	-0.1043564	0.2619368	0	0	0	0	0	0
12.95798	-0.1043564	0.2619368	0	0	0	0	0	0
12.97454	-0.1043564	0.2619368	0	0	0	0	0	0
12.99436	-0.1043564	0.2619368	0	0	0	0	0	0
13.01119	-0.1043564	0.2619368	0	0	0	0	0	0
13.0275	-0.1043564	0.2619368	0	0	0	0	0	0
13.04421	-0.1043824	0.2619189	-0.001557774	-0.001071806	-0.04717121	-0.03245552	0	0
13.06063	-0.1043824	0.2619189	0	0	0.04702183	0.03235275	0	0
13.07724	-0.1043824	0.2619189	0	0	0	0	0	0
13.09377	-0.1043824	0.2619189	0	0	0	0	0	0
13.11033	-0.1043824	0.2619189	0	0	0	0	0	0
13.1269	-0.1043824	0.2619189	0	0	0	0	0	0
13.14346	-0.1043824	0.2619189	0	0	0	0	0	0
13.16003	-0.1043824	0.2619189	0	0	0	0	0	0
13.17681	-0.1043824	0.2619189	0	0	0	0	0	0
13.19316	-0.1043824	0.2619189	0	0	0	0	0	0
13.20973	-0.1043824	0.2619189	0	0	0	0	0	0
13.24286	-0.1043824	0.2619189	0	0	0	0	0	0
13.25943	-0.1043824	0.2619189	0	0	0	0	0	0
13.276	-0.1043824	0.2619189	0	0	0	0	0	0
13.29289	-0.1044084	0.261901	-0.001540449	-0.001060189	-0.04603769	-0.03168469	0	0
13.30913	-0.1044084	0.261901	0	0	0.04649219	0.03199749	0	0
13.3257	-0.1044084	0.261901	0	0	0	0	0	0
13.34226	-0.1044084	0.261901	0	0	0	0	0	0
13.35883	-0.1044084	0.261901	0	0	0	0	0	0
13.37545	-0.1044084	0.261901	0	0	0	0	0	0
13.39196	-0.1044084	0.261901	0	0	0	0	0	0
13.40853	-0.1044084	0.261901	0	0	0	0	0	0
13.42509	-0.1044084	0.261901	0	0	0	0	0	0
13.44166	-0.1044084	0.261901	0	0	0	0	0	0
13.45823	-0.1044084	0.261901	0	0	0	0	0	0
13.4748	-0.1044084	0.261901	0	0	0	0	0	0
13.49153	-0.1044084	0.261901	0	0	0	0	0	0
13.50793	-0.1044345	0.2619189	-0.001587305	0.001092124	-0.04790908	0.03296321	0	0
13.5245	-0.1044345	0.2619189	0	0	0.04814885	-0.03312817	0	0
13.54106	-0.1044345	0.2619189	0	0	0	0	0	0
13.55763	-0.1044345	0.2619189	0	0	0	0	0	0
13.5742	-0.1044345	0.2619189	0	0	0	0	0	0
13.59076	-0.1044605	0.2619368	-0.001571495	0.001081246	-0.04743056	0.03263396	0	0
13.60733	-0.1044605	0.2619368	0	0	0.04743056	-0.03263396	0	0
13.67359	-0.1044345	0.2619189	0.0003928512	-0.000270296	0.004742728	-0.00326317	0	0
13.69017	-0.1043824	0.2619189	0.003141094	0	0.03317609	0.003262945	0	0
13.70673	-0.1043824	0.2619189	0	0	-0.09480114	0	0	0
13.7233	-0.1043824	0.2619189	0	0	0	0	0	0
13.73986	-0.1043824	0.2619189	0	0	0	0	0	0
13.75643	-0.1043564	0.261901	0.001571315	-0.001081122	0.04742373	-0.03262927	0	0
13.773	-0.1043564	0.261901	0	0	-0.04742373	0.03262927	0	0
13.78956	-0.1043043	0.261901	0.003142448	0	0.09483927	0	0	0
13.80613	-0.1041741	0.2618473	0.007856575	-0.003243553	0.1422726	-0.09789061	0	0
13.82276	-0.103315	0.2618652	0.0516564	0.001076968	1.319375	0.1301464	0	0
13.83926	-0.1019349	0.2620264	0.08364008	0.009769463	0.9653527	0.2623627	0	0
13.85583	-0.09826148	0.2606473	0.2217435	-0.08324938	4.176505	-2.813063	0	0
13.87239	-0.08960155	0.2555951	0.5227444	-0.3049641	9.084749	-6.691748	0	0
13.88931	-0.08299313	0.2510608	0.3906541	-0.2680439	-3.94505	1.10267	0	0
13.90582	-0.07499069	0.2455743	0.4847306	-0.3323357	2.814529	-1.923445	0	0
13.92533	-0.06991219	0.2421304	0.2602608	-0.1764912	-6.231434	4.326345	0	0
13.9419	-0.06805264	0.2409642	0.1122359	-0.0703858	-4.102534	2.940731	0	0
13.95847	-0.06485628	0.2417537	0.192933	0.04764941	2.435373	3.562207	0	0
13.97503	-0.05817114	0.2455743	0.4035389	0.2306277	6.356282	5.522456	0	0
13.9916	-0.05008965	0.2496267	0.4877437	0.2445761	2.541231	0.4209513	0	0
14.00817	-0.04318366	0.2536598	0.416918	0.2434789	-2.137583	-0.03311638	0	0
14.02473	-0.03679917	0.258014	0.3853909	0.2628339	-0.9516012	0.5842032	0	0
14.10831	-0.02993842	0.2622234	0.08209069	0.05036729	-3.028716	-2.121663	0	0
14.12488	-0.02935998	0.2620085	0.03491665	-0.01297421	-0.4710737	-0.6325198	0	0
14.14144	-0.02596785	0.2602353	0.2047615	-0.1070372	5.126223	-2.838991	0	0
14.15801	-0.01912924	0.2565448	0.4128025	-0.2227689	6.279053	-3.49299	0	0
14.17458	-0.006894628	0.2527278	0.7384405	-0.2303826	9.827771	-0.2297825	0	0
14.19114	0.004578915	0.252692	0.6925843	-0.002164167	-1.383942	6.887647	0	0
14.20771	0.01281509	0.2532117	0.4971936	0.03137594	-5.897411	1.01233	0	0
14.22428	0.03041167	0.2548425	1.062132	0.09843786	17.05086	2.024049	0	0
14.24084	0.03879631	0.2567598	0.506127	0.1157335	-16.78075	0.5219977	0	0
14.25741	0.04583629	0.257799	0.4249584	0.06272847	-2.449813	-1.599786	0	0
14.27398	0.04885583	0.2578169	0.1822597	0.001081122	-7.324874	-1.860574	0	0
14.29059	0.04938088	0.2577452	0.03159545	-0.004313128	-4.540129	-0.1625508	0	0
14.30711	0.04935462	0.2577273	-0.001589522	-0.001084493	-1.001553	0.09744319	0	0
14.32368	0.04935462	0.2577273	0	0	0.04804793	0.03278196	0	0
14.34024	0.04932837	0.2577094	-0.001584672	-0.001081184	-0.04782826	-0.03263208	0	0
14.35681	0.04932837	0.2577094	0	0	0.04782688	0.03263114	0	0
14.37337	0.04932837	0.2577094	0	0	0	0	0	0
14.38994	0.04935462	0.2576915	0.001584581	-0.001081122	0.04782413	-0.03262927	0	0
14.40651	0.04932837	0.2576736	-0.001584672	-0.001082983	-0.09565102	-5.617068E-05	0	0
14.42308	0.04935462	0.2576557	0.001584581	-0.001081122	0.09565102	5.617068E-05	0	0
14.4397	0.04935462	0.2576198	0	-0.002155296	-0.0477458	-0.03236647	0	0
14.45621	0.04935462	0.2576198	0	0	0	0.06504697	0	0
14.47277	0.04935462	0.2576198	0	0	0	0	0	0
14.48934	0.04932837	0.2575661	-0.001584672	-0.003243553	-0.04783101	-0.09790188	0	0
14.50591	0.04935462	0.2575123	0.00158449	-0.003244978	0.0956455	-4.301833E-05	0	0
14.52248	0.04938088	0.2574227	0.001584672	-0.00540772	5.505531E-06	-0.06527168	0	0
14.53904	0.04938088	0.2573869	0	-0.002162368	-0.04782826	0.09795054	0	0
14.55561	0.04935462	0.257369	-0.00158449	-0.00108106	-0.04782	0.03263396	0	0
14.57229	0.04932837	0.2573511	-0.0015738	-0.001075553	0.000321499	0.0001656163	0	0
14.5888	0.04927587	0.2573152	-0.003179595	-0.002169362	-0.04837665	-0.03295241	0	0
14.60531	0.04922336	0.2572794	-0.003180697	-0.002170114	-3.337331E-05	-2.277536E-05	0	0
14.62187	0.04917086	0.2572794	-0.00316971	0	0.0003322349	0.06561881	0	0
14.63844	0.04914461	0.2572615	-0.001584581	-0.001081122	0.0478434	-0.03263114	0	0
14.65535	0.0490921	0.2572257	-0.003104996	-0.002120227	-0.04541694	-0.03103954	0	0
14.67158	0.0490396	0.2571898	-0.003236227	-0.002208	-0.00396066	-0.00264907	0	0
14.68814	0.0490396	0.2571898	0	0	0.09869499	0.06733724	0	0
14.70488	0.04893459	0.2571182	-0.006272831	-0.004281431	-0.1883333	-0.1285442	0	0
14.72128	0.04888208	0.2570823	-0.003202902	-0.002185264	0.09265331	0.06326428	0	0
14.73791	0.04880332	0.2570286	-0.004735161	-0.003232326	-0.04639588	-0.03170443	0	0
14.75441	0.04861955	0.2569032	-0.0111374	-0.007600277	-0.1932254	-0.1318288	0	0
14.77388	0.04806821	0.2565269	-0.02832003	-0.0193265	-0.4777095	-0.3260112	0	0
14.79044	0.04665034	0.2555593	-0.08558267	-0.05840397	-1.58906	-1.084415	0	0
14.80701	0.04565247	0.2548784	-0.06022815	-0.04110005	0.7651789	0.5222181	0	0
14.82358	0.04565247	0.2548784	0	0	1.817637	1.240366	0	0
14.84015	0.04565247	0.2548784	0	0	0	0	0	0
15.07407	0.04562621	0.2548605	-0.0001122569	-7.656847E-05	-0.0004481506	-0.0003056757	0	0
15.09065	0.04559994	0.2548425	-0.001583524	-0.001079941	-0.005873104	-0.004005331	0	0
15.1072	0.04559994	0.2548425	0	0	0.04779084	0.03259268	0	0
15.12377	0.04559994	0.2548425	0	0	0	0	0	0
15.14034	0.04559994	0.2548425	0	0	0	0	0	0
15.15691	0.04559994	0.2548425	0	0	0	0	0	0
15.1773	0.04559994	0.2548425	0	0	0	0	0	0
15.21063	0.04559994	0.2548425	0	0	0	0	0	0
15.24372	0.04557369	0.2548605	-0.0007934975	0.0005412308	-0.01194639	0.008148426	0	0
15.27717	0.04554743	0.2548425	-0.0007849694	-0.0005354139	0.0001281529	-0.01617885	0	0
15.29852	0.04554743	0.2548425	0	0	0.014325	0.009770831	0	0
15.31508	0.04554743	0.2548425	0	0	0	0	0	0
15.33183	0.04557369	0.2548246	0.001568597	-0.001069913	0.04709367	-0.03212177	0	0
15.34834	0.04557369	0.2548246	0	0	-0.04717471	0.03217705	0	0
15.36485	0.04554743	0.2548067	-0.001590341	-0.001086548	-0.04816014	-0.03290385	0	0
15.38135	0.04554743	0.2548067	0	0	0.04816987	0.0329105	0	0
15.39792	0.04554743	0.2548067	0	0	0	0	0	0
15.41448	0.04554743	0.2548067	0	0	0	0	0	0
15.43105	0.04554743	0.2548067	0	0	0	0	0	0
15.4479	0.04554743	0.2548067	0	0	0	0	0	0
15.46442	0.04554743	0.2548067	0	0	0	0	0	0
15.48075	0.04554743	0.2548067	0	0	0	0	0	0
15.49732	0.04554743	0.2548067	0	0	0	0	0	0
15.51395	0.04552116	0.2547888	-0.001578803	-0.001076721	-0.04755256	-0.03243018	0	0
15.53046	0.0454949	0.2548067	-0.001590341	0.001084744	-0.0003480709	0.06520874	0	0
15.54702	0.0454949	0.2548067	0	0	0.04809624	-0.03280561	0	0
15.56358	0.0454949	0.2548067	0	0	0	0	0	0
15.58015	0.0454949	0.2548067	0	0	0	0	0	0
15.66306	0.0454949	0.2548067	0	0	0	0	0	0
15.67955	0.0454949	0.2548067	0	0	0	0	0	0
15.69612	0.0454949	0.2548067	0	0	0	0	0	0
15.71268	0.0454949	0.2548067	0	0	0	0	0	0
15.72925	0.0454949	0.2548067	0	0	0	0	0	0
15.74582	0.0454949	0.2548067	0	0	0	0	0	0
15.76238	0.0454949	0.2548067	0	0	0	0	0	0
15.79552	0.04552116	0.2547888	0.000792561	-0.0005405921	0.01594697	-0.01087715	0	0
15.81216	0.0454949	0.2548067	-0.001577404	0.001075919	-0.04760887	0.03247318	0	0
15.82865	0.0454949	0.2548067	0	0	0.0476075	-0.03247225	0	0
15.84522	0.0454949	0.2548067	0	0	0	0	0	0
15.8622	0.0454949	0.2548067	0	0	0	0	0	0
15.87835	0.0454949	0.2548067	0	0	0	0	0	0
15.89492	0.0454949	0.2548067	0	0	0	0	0	0
15.91148	0.0454949	0.2548067	0	0	0	0	0	0
15.92824	0.0454949	0.2548067	0	0	0	0	0	0
15.94462	0.0454949	0.2548067	0	0	0	0	0	0
15.96118	0.0454949	0.2548067	0	0	0	0	0	0
15.99714	0.0454949	0.2548067	0	0	0	0	0	0
16.0138	0.04546864	0.2547888	-0.001576544	-0.00107518	-0.0299615	-0.02043332	0	0
16.03028	0.04546864	0.2547888	0	0	0.04758292	0.03245088	0	0
16.04684	0.04546864	0.2547888	0	0	0	0	0	0
16.06341	0.04546864	0.2547888	0	0	0	0	0	0
16.07998	0.04546864	0.2547888	0	0	0	0	0	0
16.09654	0.04546864	0.2547888	0	0	0	0	0	0
16.11337	0.04546864	0.2547888	0	0	0	0	0	0
16.12968	0.04546864	0.2547888	0	0	0	0	0	0
16.1464	0.04546864	0.2547888	0	0	0	0	0	0
16.16281	0.04546864	0.2547888	0	0	0	0	0	0
16.17938	0.04546864	0.2547888	0	0	0	0	0	0
16.19594	0.04546864	0.2547888	0	0	0	0	0	0
16.21251	0.04546864	0.2547888	0	0	0	0	0	0
16.22908	0.04544238	0.2548067	-0.001585031	0.001081122	-0.04783633	0.03262833	0	0
16.24564	0.04544238	0.2548425	0	0.002164043	0.04783633	0.03268262	0	0
16.26221	0.04544238	0.2548425	0	0	0	-0.06531094	0	0
16.27878	0.04541612	0.2548605	-0.001585256	0.001081122	-0.04784311	0.03262833	0	0
16.2955	0.04541612	0.2548605	0	0	0.04761834	-0.03247504	0	0
16.31191	0.04541612	0.2548605	0	0	0	0	0	0
16.32853	0.04541612	0.2548605	0	0	0	0	0	0
16.34504	0.04541612	0.2548605	0	0	0	0	0	0
16.36161	0.04541612	0.2548605	0	0	0	0	0	0
16.37818	0.04541612	0.2548605	0	0	0	0	0	0
16.39474	0.04541612	0.2548605	0	0	0	0	0	0
16.41131	0.04541612	0.2548605	0	0	0	0	0	0
16.4281	0.04538986	0.2548425	-0.00156432	-0.001066995	-0.04690079	-0.03199021	0	0
16.44444	0.04538986	0.2548425	0	0	0.04721126	0.03220198	0	0
16.46101	0.04538986	0.2548425	0	0	0	0	0	0
16.47758	0.04541612	0.2548246	0.001585031	-0.001081122	0.04783633	-0.03262833	0	0
16.49415	0.04541612	0.2548246	0	0	-0.04783633	0.03262833	0	0
16.51071	0.04541612	0.2547888	0	-0.002164043	0	-0.06531094	0	0
16.52728	0.04538986	0.2547709	-0.001585031	-0.001081122	-0.04783633	0.03268262	0	0
16.54385	0.04536359	0.2547529	-0.001585256	-0.001082921	-6.78793E-06	-5.428939E-05	0	0
16.56041	0.04491714	0.2544483	-0.02695133	-0.01839018	-0.7655936	-0.5223643	0	0
16.57698	0.0432362	0.2533013	-0.1014618	-0.06923138	-2.248859	-1.534479	0	0
16.59355	0.03354005	0.2466862	-0.585328	-0.3993371	-14.60395	-9.963182	0	0
16.61011	0.02386389	0.2400851	-0.5840541	-0.3984447	0.0384513	0.02693336	0	0
16.62668	0.01705098	0.2354367	-0.411228	-0.2805763	5.215899	3.557274	0	0
16.64325	0.003526301	0.2262412	-0.8160694	-0.5548466	-12.21603	-8.276066	0	0
16.65981	-0.009894414	0.2170726	-0.8104492	-0.5536725	0.1696272	0.03543802	0	0
16.67638	-0.02002364	0.2101448	-0.6114012	-0.418163	6.008664	4.090626	0	0
16.69295	-0.03025392	0.2031391	-0.6175013	-0.4228671	-0.1841019	-0.1419688	0	0
16.70951	-0.04150247	0.1954237	-0.6789637	-0.4657036	-1.854937	-1.292809	0	0
16.72608	-0.04919711	0.1901373	-0.4644493	-0.3190893	6.474055	4.424829	0	0
16.74265	-0.0730278	0.1737112	-1.438423	-0.9914787	-29.39458	-20.29276	0	0
16.75922	-0.08084969	0.168263	-0.4721305	-0.3288535	29.16277	19.99807	0	0
16.77578	-0.09622819	0.1575881	-0.9282479	-0.6443388	-13.76565	-9.521363	0	0
16.79235	-0.1070367	0.1500553	-0.652404	-0.4546819	8.324986	5.723855	0	0
16.80892	-0.1207258	0.1404751	-0.8262767	-0.5782581	-5.247487	-3.729536	0	0
16.82549	-0.1305946	0.1335387	-0.5956789	-0.4186865	6.959455	4.81588	0	0
16.84205	-0.140154	0.1267573	-0.577007	-0.4093261	0.5635182	0.2824984	0	0
16.86094	-0.1553949	0.1159833	-0.8070523	-0.5705125	-6.488944	-4.546625	0	0
16.8775	-0.1638084	0.1099836	-0.5078404	-0.3621457	8.439943	5.877453	0	0
16.89407	-0.1719176	0.1041779	-0.4894721	-0.3504324	0.5543565	0.3535098	0	0
16.91064	-0.1771242	0.1004379	-0.3142683	-0.225744	5.287661	3.763102	0	0
16.92721	-0.1879651	0.09258144	-0.6543621	-0.474219	-10.26405	-7.498991	0	0
16.94377	-0.1918987	0.08976959	-0.2374304	-0.1697231	12.58302	9.189706	0	0
16.96034	-0.1982557	0.08515282	-0.3837119	-0.2786691	-4.414786	-3.287996	0	0
16.97691	-0.1984834	0.08495038	-0.01374068	-0.01221929	11.16575	8.041471	0	0
16.99347	-0.1984834	0.08495038	0	0	0.4146946	0.3687788	0	0
17.01004	-0.1984834	0.08495038	0	0	0	0	0	0
17.02661	-0.1985087	0.08493198	-0.001526694	-0.001111059	-0.04607837	-0.03353376	0	0
17.04317	-0.1985087	0.08493198	0	0	0.04608103	0.03353569	0	0
17.06005	-0.1985087	0.08493198	0	0	0	0	0	0
17.07631	-0.1985087	0.08493198	0	0	0	0	0	0
17.09287	-0.1985087	0.08493198	0	0	0	0	0	0
17.10944	-0.1984834	0.08491357	0.001526343	-0.001110803	0.04606511	-0.03352411	0	0
17.1261	-0.1983569	0.08482155	0.00759156	-0.00552394	0.1825442	-0.1328217	0	0
17.14258	-0.198104	0.0846375	0.01535277	-0.01117112	0.2342336	-0.1704321	0	0
17.15914	-0.1979016	0.08449025	0.01221614	-0.008887775	-0.09492589	0.06910228	0	0
17.17571	-0.197345	0.08408531	0.0336014	-0.02444543	0.6454455	-0.4695581	0	0
17.19228	-0.1908841	0.07938878	0.3899756	-0.2834828	10.75601	-7.818214	0	0
17.20884	-0.185653	0.07555406	0.3157524	-0.2314644	-2.240062	1.569919	0	0
17.22541	-0.1700522	0.06425065	0.941668	-0.6822752	18.89017	-13.60549	0	0
17.24198	-0.1636547	0.05966124	0.3861512	-0.277017	-16.76553	12.23071	0	0
17.25854	-0.154393	0.05297123	0.559038	-0.4038103	5.217735	-3.826628	0	0
17.27511	-0.1428622	0.04465291	0.6960015	-0.5020943	4.133564	-2.966218	0	0
17.29168	-0.1352224	0.0391469	0.4611399	-0.3323436	-7.088137	5.123088	0	0
17.30825	-0.1262719	0.03270051	0.5402489	-0.3891052	2.387514	-1.713068	0	0
17.32481	-0.1203627	0.02844639	0.3566803	-0.2567788	-5.54011	3.993617	0	0
17.34138	-0.1158214	0.02517777	0.2741152	-0.1972941	-2.491819	1.795254	0	0
17.35827	-0.1108334	0.0215882	0.2953639	-0.212556	0.6351447	-0.4561939	0	0
17.37452	-0.1069327	0.01878131	0.2400091	-0.1727048	-1.670325	1.202505	0	0
17.39108	-0.104981	0.01737703	0.1178534	-0.08480178	-3.722883	2.678979	0	0
17.40765	-0.101362	0.01477293	0.2184743	-0.1572017	3.037619	-2.185663	0	0
17.42432	-0.09953837	0.01346078	0.1093915	-0.07871245	-3.28211	2.361606	0	0
17.44078	-0.09823541	0.01252322	0.07913867	-0.05694512	-0.9130335	0.6569392	0	0
17.45735	-0.09823541	0.01252322	0	0	-2.395857	1.723966	0	0
17.47392	-0.09823541	0.01252322	0	0	0	0	0	0
17.49048	-0.09820934	0.01254197	0.001573563	0.00113194	0.04749023	0.03416202	0	0
17.58181	-0.09823541	0.01256073	-0.000285463	0.0002053575	-0.01723058	-0.008588129	0	0
17.59844	-0.09823541	0.01256073	0	0	0.002644208	-0.001902201	0	0
17.61494	-0.09826148	0.01257948	-0.001579478	0.00113652	-0.04766874	0.03430023	0	0
17.63151	-0.09826148	0.01257948	0	0	0.04776497	-0.03436948	0	0
17.64808	-0.09826148	0.01257948	0	0	0	0	0	0
17.66464	-0.09826148	0.01257948	0	0	0	0	0	0
17.68121	-0.09826148	0.01257948	0	0	0	0	0	0
17.71434	-0.09826148	0.01257948	0	0	0	0	0	0
17.73104	-0.09826148	0.01257948	0	0	0	0	0	0
17.74748	-0.09826148	0.01257948	0	0	0	0	0	0
17.76404	-0.09826148	0.01257948	0	0	0	0	0	0
17.78061	-0.09826148	0.01257948	0	0	0	0	0	0
17.80038	-0.09826148	0.01257948	0	0	0	0	0	0
17.81695	-0.09826148	0.01257948	0	0	0	0	0	0
17.83351	-0.09826148	0.01257948	0	0	0	0	0	0
17.85012	-0.09826148	0.01257948	0	0	0	0	0	0
17.86665	-0.09826148	0.01257948	0	0	0	0	0	0
17.88321	-0.09826148	0.01257948	0	0	0	0	0	0
17.89978	-0.09826148	0.01257948	0	0	0	0	0	0
17.91635	-0.09826148	0.01257948	0	0	0	0	0	0
17.93318	-0.09826148	0.01257948	0	0	0	0	0	0
17.94969	-0.09826148	0.01257948	0	0	0	0	0	0
17.96621	-0.09826148	0.01257948	0	0	0	0	0	0
17.98272	-0.09826148	0.01257948	0	0	0	0	0	0
17.99923	-0.09826148	0.01257948	0	0	0	0	0	0
18.01575	-0.09826148	0.01257948	0	0	0	0	0	0
18.03231	-0.09826148	0.01257948	0	0	0	0	0	0
18.04888	-0.09826148	0.01257948	0	0	0	0	0	0
18.06577	-0.09826148	0.01257948	0	0	0	0	0	0
18.08229	-0.09826148	0.01257948	0	0	0	0	0	0
18.09858	-0.09826148	0.01257948	0	0	0	0	0	0
18.11515	-0.09826148	0.01257948	0	0	0	0	0	0
18.13182	-0.09826148	0.01257948	0	0	0	0	0	0
18.14828	-0.09826148	0.01257948	0	0	0	0	0	0
18.16535	-0.09826148	0.01257948	0	0	0	0	0	0
18.18142	-0.09826148	0.01257948	0	0	0	0	0	0
18.19837	-0.09826148	0.01257948	0	0	0	0	0	0
18.21455	-0.09826148	0.01257948	0	0	0	0	0	0
18.23112	-0.09828754	0.01259823	-0.001573113	0.00113194	-0.0480408	0.03456795	0	0
18.24791	-0.0983136	0.01261699	-0.001552205	0.001116895	0.0006267891	-0.0004510089	0	0
18.26425	-0.09839179	0.01267325	-0.004783777	0.003442186	-0.09752904	0.07017741	0	0
18.28093	-0.09841785	0.01272951	-0.0015625	0.003372854	0.09754401	-0.00209947	0	0
18.34708	-0.09987709	0.01407943	-0.02205872	0.02040619	-0.2474422	0.2056364	0	0
18.39701	-0.1092215	0.02229892	-0.1871551	0.1646248	-1.422249	1.242394	0	0
18.41335	-0.1130164	0.02570095	-0.2322668	0.2082236	-0.6807563	0.6579264	0	0
18.43003	-0.1232925	0.03331582	-0.6159442	0.4564287	-11.61887	7.516372	0	0
18.44654	-0.1287315	0.0373408	-0.3293993	0.2437625	8.632043	-6.406478	0	0
18.46306	-0.1425528	0.04792297	-0.8369508	0.6408061	-15.36836	12.02225	0	0
18.47961	-0.1512055	0.05501094	-0.5226374	0.4281266	9.504601	-6.431269	0	0
18.49618	-0.1595532	0.06228969	-0.5038711	0.4393463	0.5665615	0.3387294	0	0
18.51309	-0.1700522	0.0726019	-0.6208532	0.6098092	-3.494319	5.091822	0	0
18.52931	-0.1775576	0.08001528	-0.4626699	0.4569954	4.774255	-4.612195	0	0
18.54611	-0.1812773	0.09318767	-0.2214136	0.7840746	7.305944	9.904909	0	0
18.56263	-0.1813792	0.100603	-0.006167526	0.4490369	6.461178	-10.05704	0	0
18.57901	-0.1805898	0.1120148	0.04817269	0.696436	1.651685	7.519763	0	0
18.59558	-0.1784498	0.126739	0.1291734	0.8887551	2.458048	5.836115	0	0
18.61216	-0.1764101	0.1371628	0.1230165	0.6286721	-0.1857389	-7.846158	0	0
18.62871	-0.1737818	0.1496557	0.1587887	0.7547678	1.079669	3.805794	0	0
18.64528	-0.1717132	0.1576607	0.1248606	0.4831823	-1.024426	-8.200241	0	0
18.66185	-0.1711	0.1602359	0.03701359	0.1554423	-2.651227	-9.891213	0	0
18.67842	-0.1695665	0.1708157	0.09256634	0.6385986	1.676585	14.58169	0	0
18.69498	-0.1692341	0.1752127	0.02006282	0.2654029	-2.188161	-11.26307	0	0
18.73072	-0.1643719	0.1961631	0.1360574	0.5862536	2.21773	6.134425	0	0
18.74729	-0.158604	0.2034274	0.3481545	0.4384714	4.055137	-2.825485	0	0
18.76385	-0.1523369	0.2093707	0.378282	0.3587409	0.9092496	-2.406271	0	0
18.78042	-0.148092	0.2123048	0.2561901	0.1770794	-3.68453	-5.482238	0	0
18.7973	-0.1445892	0.214788	0.207561	0.1471431	-1.453985	-0.8950831	0	0
18.81355	-0.1404636	0.2176302	0.253782	0.1748385	1.395033	0.8358974	0	0
18.83012	-0.1361782	0.2206154	0.2586652	0.1801831	0.1487694	0.1628281	0	0
18.84683	-0.1291715	0.2253787	0.4193556	0.2850876	4.829075	3.152595	0	0
18.86334	-0.1238627	0.2288822	0.3214783	0.2121575	-2.94614	-2.195222	0	0
18.87982	-0.120674	0.2310196	0.1935165	0.1297161	-3.878641	-2.498874	0	0
18.89639	-0.1128864	0.2362265	0.470056	0.3142872	8.368618	5.585478	0	0
18.91296	-0.1058399	0.2409822	0.4253329	0.2870523	-1.349746	-0.8219513	0	0
18.92952	-0.09562848	0.2478338	0.616431	0.4136118	5.767685	3.819795	0	0
18.94609	-0.08829614	0.2527995	0.4425809	0.2997316	-5.247108	-3.43711	0	0
18.96266	-0.07833935	0.2593755	0.6009932	0.3969264	4.780891	2.933346	0	0
18.97943	-0.069886	0.2648022	0.5040933	0.3236056	-2.906708	-2.199406	0	0
18.99579	-0.06040013	0.2699224	0.579642	0.312877	2.280065	-0.3237915	0	0
19.01236	-0.04289472	0.2721955	1.056628	0.1372053	14.48385	-5.334329	0	0
19.02896	-0.03296174	0.2721597	0.5981787	-0.002155482	-13.82012	-4.201082	0	0
19.04549	-0.01407802	0.2720165	1.142586	-0.008664527	16.4312	-0.1964547	0	0
19.14489	0.02144408	0.2663957	0.3573599	-0.05654652	-6.773359	-0.4130298	0	0
19.16156	0.02147038	0.2663778	0.0015781	-0.001074565	-3.06524	0.477919	0	0
19.17807	0.0215756	0.2662704	0.006373439	-0.00650816	0.1445406	-0.1637788	0	0
19.19459	0.02346937	0.2649812	0.114612	-0.07802039	3.276832	-2.164973	0	0
19.21116	0.02662528	0.2628323	0.1905131	-0.1297226	2.293869	-1.562534	0	0
19.22772	0.02836081	0.2616503	0.1047567	-0.07134685	-2.588282	1.761884	0	0
19.24429	0.03114782	0.2597158	0.1682239	-0.1167648	1.915442	-1.370715	0	0
19.26086	0.03540625	0.2568136	0.2570395	-0.1751795	2.680463	-1.762961	0	0
19.27743	0.03782406	0.2551651	0.1459391	-0.09950279	-3.353018	2.283928	0	0
19.29399	0.04139739	0.2527278	0.2156868	-0.1471153	2.104988	-1.436949	0	0
19.31056	0.04489087	0.2503438	0.2108671	-0.1438989	-0.1454568	0.09707072	0	0
19.32713	0.04872456	0.2477262	0.2314019	-0.1579985	0.6197414	-0.4255254	0	0
19.34369	0.04982714	0.2469731	0.06655196	-0.04545839	-4.975182	3.396467	0	0
19.36026	0.0498009	0.246991	-0.001584356	0.001082021	-2.056358	1.404592	0	0
19.37683	0.0498009	0.246991	0	0	0.04781597	-0.03265547	0	0
19.39339	0.0498009	0.246991	0	0	0	0	0	0
19.40996	0.04982714	0.2469731	0.001584356	-0.001082021	0.04781872	-0.03265735	0	0
19.42653	0.04982714	0.2469731	0	0	-0.04781597	0.03265547	0	0
19.44326	0.04982714	0.2469372	0	-0.002143717	0	-0.06437881	0	0
19.45966	0.0498009	0.2469193	-0.001600386	-0.001092969	-0.04830252	0.03171348	0	0
19.47623	0.0498009	0.2469193	0	0	0.04854285	0.03315188	0	0
19.49279	0.0498009	0.2469193	0	0	0	0	0	0
19.50936	0.0498009	0.2469193	0	0	0	0	0	0
19.52593	0.0498009	0.2469193	0	0	0	0	0	0
19.55934	0.0498009	0.2469193	0	0	0	0	0	0
19.59219	0.0498009	0.2469193	0	0	0	0	0	0
19.60876	0.0498009	0.2469193	0	0	0	0	0	0
19.62533	0.0498009	0.2469193	0	0	0	0	0	0
19.6419	0.0498009	0.2469193	0	0	0	0	0	0
19.65846	0.04977464	0.2469013	-0.001585129	-0.001083295	-0.04783928	-0.03269391	0	0
19.67503	0.04977464	0.2469013	0	0	0.04784754	0.03269956	0	0
19.69588	0.04974839	0.2468834	-0.001259026	-0.000859718	-0.03364727	-0.02297583	0	0
19.71245	0.04974839	0.2468834	0	0	0.03364556	0.02297466	0	0
19.72902	0.04972214	0.2468655	-0.001584539	-0.001082146	-0.04782147	-0.03265923	0	0
19.74558	0.04972214	0.2468655	0	0	0.04782423	0.03266111	0	0
19.76215	0.04972214	0.2468655	0	0	0	0	0	0
19.77872	0.04969589	0.2468834	-0.001584581	0.001082021	-0.04782275	0.03265547	0	0
19.79551	0.04969589	0.2468834	0	0	0.04749739	-0.0324333	0	0
19.81185	0.04966964	0.2468655	-0.001606592	-0.001097051	-0.04848703	-0.03310907	0	0
19.82842	0.04964339	0.2468476	-0.001584356	-0.001082921	0.0006756956	0.000429397	0	0
19.84499	0.04964339	0.2468476	0	0	0.04781597	0.03268262	0	0
19.87812	0.04959089	0.2468117	-0.001584581	-0.001082471	-0.03188184	-0.02177936	0	0
19.89469	0.04956464	0.2467938	-0.001584356	-0.001082021	4.522944E-06	9.048231E-06	0	0
19.91125	0.04953839	0.2467758	-0.001584764	-0.001082146	-1.229417E-05	-3.759577E-06	0	0
19.92782	0.04943338	0.2467041	-0.0063381	-0.004329884	-0.1434642	-0.09802258	0	0
19.94439	0.04935462	0.2466503	-0.004753743	-0.003246963	0.04781598	0.03268262	0	0
19.96096	0.04906585	0.246453	-0.01742839	-0.01190536	-0.3824995	-0.2612959	0	0
19.97752	0.0480157	0.2457716	-0.0633873	-0.0411339	-1.386963	-0.8820683	0	0
20.01067	0.04683415	0.2449645	-0.03564695	-0.02434831	0.5580084	0.3376489	0	0
20.02722	0.04683415	0.2449645	0	0	0.7172456	0.4899079	0	0
20.04379	0.04683415	0.2449645	0	0	0	0	0	0
20.0607	0.04683415	0.2449645	0	0	0	0	0	0
20.07692	0.04683415	0.2449645	0	0	0	0	0	0
20.1118	0.04683415	0.2449645	0	0	0	0	0	0
20.12837	0.04680789	0.2449825	-0.001585031	0.001082021	-0.03080905	0.0210318	0	0
20.14494	0.04680789	0.2449825	0	0	0.04783633	-0.03265547	0	0
20.1615	0.04680789	0.2449825	0	0	0	0	0	0
20.17829	0.04680789	0.2449825	0	0	0	0	0	0
20.19464	0.04680789	0.2449825	0	0	0	0	0	0
20.2112	0.04680789	0.2449825	0	0	0	0	0	0
20.22777	0.04680789	0.2449825	0	0	0	0	0	0
20.24434	0.04680789	0.2449825	0	0	0	0	0	0
20.26091	0.04680789	0.2449825	0	0	0	0	0	0
20.27747	0.04678163	0.2450004	-0.001584806	0.001082921	-0.04782954	0.03268262	0	0
20.29404	0.04678163	0.2450004	0	0	0.04782954	-0.03268262	0	0
20.31089	0.04678163	0.2450004	0	0	0	0	0	0
20.32718	0.04678163	0.2450004	0	0	0	0	0	0
20.34374	0.04675537	0.2450183	-0.001585031	0.001082921	-0.04824176	0.03295962	0	0
20.36031	0.04675537	0.2450183	0	0	0.04783633	-0.03268262	0	0
20.37688	0.04675537	0.2450183	0	0	0	0	0	0
20.39345	0.04675537	0.2450183	0	0	0	0	0	0
20.41001	0.04675537	0.2450183	0	0	0	0	0	0
20.42658	0.04675537	0.2450183	0	0	0	0	0	0
20.44315	0.04675537	0.2450183	0	0	0	0	0	0
20.45971	0.04675537	0.2450183	0	0	0	0	0	0
20.47628	0.04675537	0.2450183	0	0	0	0	0	0
20.49284	0.04675537	0.2450183	0	0	0	0	0	0
20.50953	0.04675537	0.2450183	0	0	0	0	0	0
20.57568	0.04675537	0.2450183	0	0	0	0	0	0
20.59259	0.04675537	0.2450183	0	0	0	0	0	0
20.60881	0.04675537	0.2450183	0	0	0	0	0	0
20.6285	0.04675537	0.2450183	0	0	0	0	0	0
20.64507	0.04675537	0.2450183	0	0	0	0	0	0
20.66164	0.04675537	0.2450183	0	0	0	0	0	0
20.6782	0.04675537	0.2450183	0	0	0	0	0	0
20.69477	0.04675537	0.2450183	0	0	0	0	0	0
20.71134	0.04675537	0.2450183	0	0	0	0	0	0
20.7279	0.04675537	0.2450183	0	0	0	0	0	0
20.74469	0.04675537	0.2450183	0	0	0	0	0	0
20.7612	0.04675537	0.2450183	0	0	0	0	0	0
20.7776	0.04675537	0.2450183	0	0	0	0	0	0
20.79417	0.04675537	0.2450183	0	0	0	0	0	0
20.81074	0.04675537	0.2450183	0	0	0	0	0	0
20.8273	0.04675537	0.2450183	0	0	0	0	0	0
20.84387	0.04675537	0.2450183	0	0	0	0	0	0
20.86044	0.04675537	0.2450183	0	0	0	0	0	0
20.87701	0.04675537	0.2450183	0	0	0	0	0	0
20.89357	0.04675537	0.2450183	0	0	0	0	0	0
20.91014	0.04675537	0.2450183	0	0	0	0	0	0
20.92671	0.04675537	0.2450183	0	0	0	0	0	0
20.94328	0.04675537	0.2450183	0	0	0	0	0	0
20.95984	0.04675537	0.2450183	0	0	0	0	0	0
20.97641	0.04675537	0.2450183	0	0	0	0	0	0
20.99298	0.04675537	0.2450183	0	0	0	0	0	0
21.00989	0.04672911	0.2450004	-0.001552851	-0.001060935	-0.04638453	-0.03169072	0	0
21.02611	0.04672911	0.2450004	0	0	0.04686784	0.03202093	0	0
21.04268	0.04672911	0.2450004	0	0	0	0	0	0
21.05924	0.04672911	0.2450004	0	0	0	0	0	0
21.07581	0.04672911	0.2450004	0	0	0	0	0	0
21.09238	0.04672911	0.2450004	0	0	0	0	0	0
21.10894	0.04672911	0.2450004	0	0	0	0	0	0
21.12551	0.04672911	0.2450004	0	0	0	0	0	0
21.14208	0.04672911	0.2450004	0	0	0	0	0	0
21.15899	0.04672911	0.2450004	0	0	0	0	0	0
21.17521	0.04672911	0.2450004	0	0	0	0	0	0
21.19202	0.04672911	0.2450004	0	0	0	0	0	0
21.20853	0.04672911	0.2450004	0	0	0	0	0	0
21.22491	0.04672911	0.2450004	0	0	0	0	0	0
21.24148	0.04672911	0.2450004	0	0	0	0	0	0
21.25805	0.04672911	0.2450004	0	0	0	0	0	0
21.27461	0.04672911	0.2450004	0	0	0	0	0	0
21.29118	0.04672911	0.2450004	0	0	0	0	0	0
21.30775	0.04672911	0.2450004	0	0	0	0	0	0
21.32432	0.04672911	0.2450004	0	0	0	0	0	0
21.34088	0.04672911	0.2450004	0	0	0	0	0	0
21.35745	0.04672911	0.2450004	0	0	0	0	0	0
21.37402	0.04672911	0.2450004	0	0	0	0	0	0
21.39058	0.04672911	0.2450004	0	0	0	0	0	0
21.40715	0.04670286	0.2450183	-0.001584806	0.001082921	-0.04782954	0.03268262	0	0
21.42372	0.04670286	0.2450183	0	0	0.04782954	-0.03268262	0	0
21.45871	0.04670286	0.2450183	0	0	0	0	0	0
21.47509	0.04670286	0.2450183	0	0	0	0	0	0
21.49166	0.04670286	0.2450183	0	0	0	0	0	0
21.5248	0.04670286	0.2450183	0	0	0	0	0	0
21.54136	0.04670286	0.2450183	0	0	0	0	0	0
21.55793	0.04670286	0.2450183	0	0	0	0	0	0
21.5745	0.04670286	0.2450183	0	0	0	0	0	0
21.59106	0.04670286	0.2450183	0	0	0	0	0	0
21.60763	0.04670286	0.2450183	0	0	0	0	0	0
21.6242	0.04670286	0.2450183	0	0	0	0	0	0
21.64077	0.04670286	0.2450183	0	0	0	0	0	0
21.65733	0.04670286	0.2450183	0	0	0	0	0	0
21.6739	0.04670286	0.2450183	0	0	0	0	0	0
21.69047	0.04670286	0.2450183	0	0	0	0	0	0
21.7074	0.04670286	0.2450183	0	0	0	0	0	0
21.72391	0.04670286	0.2450183	0	0	0	0	0	0
21.74017	0.04670286	0.2450183	0	0	0	0	0	0
21.75693	0.04670286	0.2450183	0	0	0	0	0	0
21.87301	0.04670286	0.2450183	0	0	0	0	0	0
21.88927	0.04670286	0.2450183	0	0	0	0	0	0
21.90603	0.04670286	0.2450183	0	0	0	0	0	0
21.9224	0.04670286	0.2450183	0	0	0	0	0	0
21.93896	0.04670286	0.2450183	0	0	0	0	0	0
21.95553	0.04670286	0.2450183	0	0	0	0	0	0
21.97258	0.04670286	0.2450183	0	0	0	0	0	0
21.98866	0.04670286	0.2450183	0	0	0	0	0	0
22.00523	0.04670286	0.2450183	0	0	0	0	0	0
22.0218	0.04670286	0.2450183	0	0	0	0	0	0
22.05496	0.04670286	0.2450183	0	0	0	0	0	0
22.0715	0.04670286	0.2450183	0	0	0	0	0	0
22.08807	0.04670286	0.2450183	0	0	0	0	0	0
22.10463	0.04670286	0.2450183	0	0	0	0	0	0
22.1212	0.04670286	0.2450183	0	0	0	0	0	0
22.13777	0.04670286	0.2450183	0	0	0	0	0	0
22.15433	0.04670286	0.2450183	0	0	0	0	0	0
22.1709	0.04670286	0.2450183	0	0	0	0	0	0
22.18747	0.04670286	0.2450183	0	0	0	0	0	0
22.20403	0.04670286	0.2450183	0	0	0	0	0	0
22.2206	0.04670286	0.2450183	0	0	0	0	0	0
22.23717	0.04670286	0.2450183	0	0	0	0	0	0
22.25373	0.04670286	0.2450183	0	0	0	0	0	0
22.2703	0.04670286	0.2450183	0	0	0	0	0	0
22.28687	0.0466766	0.2450363	-0.001585213	0.001082146	-0.04784459	0.03266111	0	0
22.30343	0.0466766	0.2450363	0	0	0.04784459	-0.03266111	0	0
22.32	0.0466766	0.2450363	0	0	0	0	0	0
22.33657	0.0466766	0.2450363	0	0	0	0	0	0
22.35313	0.0466766	0.2450363	0	0	0	0	0	0
22.3697	0.0466766	0.2450363	0	0	0	0	0	0
22.38638	0.04665034	0.2450542	-0.001574697	0.001075861	-0.04736903	0.03236335	0	0
22.40284	0.04665034	0.2450542	0	0	0.04752446	-0.03246954	0	0
22.4194	0.04665034	0.2450542	0	0	0	0	0	0
22.43597	0.04665034	0.2450542	0	0	0	0	0	0
22.47388	0.04665034	0.2450542	0	0	0	0	0	0
22.49045	0.04665034	0.2450542	0	0	0	0	0	0
22.50701	0.04665034	0.2450542	0	0	0	0	0	0
22.52358	0.04665034	0.2450542	0	0	0	0	0	0
22.54015	0.04665034	0.2450542	0	0	0	0	0	0
22.55672	0.04662408	0.2450721	-0.001584806	0.001082021	-0.04782954	0.03265547	0	0
22.57328	0.04662408	0.2450721	0	0	0.0478323	-0.03265735	0	0
22.58985	0.04659782	0.2450901	-0.001585031	0.001082921	-0.04783908	0.0326845	0	0
22.60641	0.04659782	0.2450901	0	0	0.04783633	-0.03268262	0	0
22.62298	0.04659782	0.2450901	0	0	0	0	0	0
22.63955	0.04659782	0.2450901	0	0	0	0	0	0
22.65611	0.04657156	0.245108	-0.001585213	0.001083045	-0.04784459	0.03268826	0	0
22.67268	0.04659782	0.2450901	0.001585031	-0.001082921	0.09568366	-0.06537275	0	0
22.68925	0.04659782	0.2450901	0	0	-0.04783633	0.03268262	0	0
22.70582	0.04659782	0.2450901	0	0	0	0	0	0
22.72262	0.04659782	0.2450901	0	0	0	0	0	0
22.73895	0.04659782	0.2450901	0	0	0	0	0	0
22.75552	0.04657156	0.2450721	-0.001585031	-0.001082921	-0.04817744	-0.03291567	0	0
22.77208	0.04651904	0.2450721	-0.003170062	0	-0.04783633	0.03268262	0	0
22.78865	0.04649279	0.2450542	-0.001584806	-0.001082021	0.04784311	-0.03265547	0	0
22.8387	0.04646653	0.2450721	-0.0005246591	0.0003581585	0.01591383	0.02161849	0	0
22.88805	0.04678163	0.2454667	0.006384984	0.007995176	0.06951249	0.07683002	0	0
22.90462	0.04780566	0.2460944	0.06181013	0.03788694	0.84082	0.4534691	0	0
22.92126	0.05176949	0.2487303	0.2382154	0.1584109	5.312302	3.629481	0	0
22.93775	0.05334408	0.2497701	0.09547115	0.06304842	-4.308279	-2.878211	0	0
22.95432	0.06129156	0.2549859	0.4797105	0.3148241	11.62246	7.615703	0	0
22.98745	0.08322834	0.2602532	0.6620535	0.1589672	3.668749	-3.135848	0	0
23.05065	0.148787	0.2470627	1.03732	-0.2087096	3.895459	-3.81667	0	0
23.06736	0.1609893	0.239475	0.7303969	-0.4541828	-3.841036	-3.072007	0	0
23.08379	0.1698988	0.2332284	0.5423334	-0.3802374	-5.675769	2.231678	0	0
23.10036	0.1759254	0.22899	0.3637697	-0.2558301	-5.411805	3.770462	0	0
23.11692	0.1882953	0.2202198	0.7466442	-0.529372	11.55518	-8.255509	0	0
23.13349	0.1947119	0.2156695	0.3873106	-0.2746535	-10.84471	7.687418	0	0
23.15006	0.206967	0.2069039	0.7397168	-0.5290977	10.63564	-7.67914	0	0
23.16694	0.2180308	0.1989759	0.6554361	-0.4696645	-2.519808	1.776921	0	0
23.18319	0.2276924	0.1920141	0.5943972	-0.4283023	-1.842156	1.248315	0	0
23.19976	0.2343752	0.1871766	0.4033754	-0.2919919	-5.819994	4.153061	0	0
23.21633	0.2428475	0.180872	0.5113904	-0.3805468	3.2599	-2.672591	0	0
23.23289	0.2491847	0.1762075	0.3825166	-0.2815486	-3.889421	2.987771	0	0
23.24946	0.2530859	0.1733493	0.2354714	-0.1725199	-4.437832	3.290493	0	0
23.26603	0.2582095	0.1695485	0.3092656	-0.2294164	2.227114	-1.71714	0	0
23.28259	0.2644966	0.1649121	0.3794864	-0.2798559	2.119266	-1.522266	0	0
23.29916	0.2691245	0.1614506	0.2793414	-0.2089354	-3.022382	2.140386	0	0
23.31573	0.2746917	0.157316	0.3360382	-0.2495665	1.711114	-1.226249	0	0
23.33256	0.2776392	0.1550843	0.1751459	-0.132615	-4.817746	3.501983	0	0
23.34907	0.2826943	0.1510905	0.3061522	-0.2418734	3.929348	-3.277052	0	0
23.36543	0.2868876	0.1470757	0.2563214	-0.2454101	-1.515938	-0.1075926	0	0
23.382	0.2907324	0.1422579	0.2320724	-0.2908056	-0.7364559	-1.378688	0	0
23.39856	0.2961099	0.1369261	0.3245866	-0.321828	2.792084	-0.9362588	0	0
23.43437	0.3010618	0.1332107	0.1382888	-0.1037564	-3.556945	4.163597	0	0
23.45094	0.3028609	0.1318441	0.1085943	-0.08248816	-0.5669515	0.4060692	0	0
23.46765	0.3033403	0.1314432	0.02868417	-0.02398758	-2.40105	1.75776	0	0
23.48417	0.3033643	0.1314614	0.001451138	0.001103695	-0.8196298	0.7551695	0	0
23.50068	0.3033403	0.1314797	-0.001451138	0.001103695	-0.08788427	0	0	0
23.51721	0.3033403	0.1314797	0	0	0.04391677	-0.03340187	0	0
23.53378	0.3032924	0.1315161	-0.002892586	0.00220002	-0.08739399	0.06646944	0	0
23.55071	0.3032684	0.1315343	-0.001416296	0.001075857	0.04405994	-0.0335507	0	0
23.56691	0.3032205	0.1315708	-0.002959364	0.00225081	-0.04657256	0.03546218	0	0
23.58348	0.3031246	0.1316437	-0.00578697	0.00440094	-0.08631114	0.06563154	0	0
23.60025	0.3030047	0.1317348	-0.007146208	0.005432504	-0.04076841	0.03094031	0	0
23.61661	0.3029568	0.1317713	-0.002931168	0.002227979	0.1272175	-0.09671833	0	0
23.63317	0.3028609	0.1318441	-0.005788769	0.004399141	-0.08678713	0.06593954	0	0
23.64979	0.3025732	0.1320264	-0.01732044	0.01097105	-0.3475665	0.1980783	0	0
23.66631	0.3022134	0.1322997	-0.02177183	0.01654216	-0.1343431	0.1681363	0	0
23.68288	0.3019736	0.1324819	-0.01447732	0.0109992	0.2204406	-0.1675085	0	0
23.69944	0.3016857	0.1327006	-0.0173771	0.01319742	-0.08751556	0.06634247	0	0
23.71601	0.3016377	0.132737	-0.002896183	0.00220002	0.437035	-0.3319023	0	0
23.73285	0.3015897	0.1327735	-0.002850244	0.002164238	0.001375382	-0.001071287	0	0
23.74936	0.3015657	0.1327917	-0.001452775	0.001103568	0.04190552	-0.03180603	0	0
23.76571	0.3015177	0.1328281	-0.00293618	0.002229018	-0.04513561	0.03424412	0	0
23.78228	0.3014937	0.1328463	-0.001448092	0.001099111	0.04520465	-0.03432395	0	0
23.79885	0.3014697	0.1328646	-0.001448092	0.00110001	0	2.714821E-05	0	0
23.81541	0.3014458	0.1328828	-0.001448092	0.00110001	0	0	0	0
23.83198	0.3014218	0.132901	-0.001448092	0.001099111	0	-2.714821E-05	0	0
23.84855	0.3014218	0.132901	0	0	0.04370349	-0.03317122	0	0
23.86511	0.3014218	0.1329374	0	0.00220002	0	0.06639674	0	0
23.88168	0.3013978	0.1329557	-0.001448092	0.00110001	-0.04370349	-0.03319837	0	0
23.89847	0.3013978	0.1329557	0	0	0.04341857	-0.03298194	0	0
23.91498	0.3013978	0.1329557	0	0	0	0	0	0
23.93149	0.3014218	0.1329739	0.001452943	0.001102793	0.04399679	0.03339384	0	0
23.948	0.3014218	0.1329739	0	0	-0.04399679	-0.03339384	0	0
23.96452	0.3013978	0.1329921	-0.001452439	0.001103313	-0.04397393	0.0334038	0	0
23.98108	0.3013978	0.1329921	0	0	0.04390547	-0.0333518	0	0
23.99765	0.3013737	0.1330103	-0.001449891	0.00110001	-0.04376283	0.03320219	0	0
24.01422	0.3013498	0.1330285	-0.001448092	0.001099111	5.42929E-05	-2.714821E-05	0	0
24.03106	0.3013018	0.133065	-0.002848307	0.002163652	-0.0419064	0.03186016	0	0
24.04758	0.3013018	0.133065	0	0	0.08538213	-0.06485859	0	0
24.06409	0.3013018	0.133065	0	0	0	0	0	0
24.08049	0.3012778	0.1330832	-0.00146473	0.00111036	-0.04450797	0.03373991	0	0
24.09711	0.3012778	0.1330832	0	0	0.04435373	-0.03362299	0	0
24.11362	0.3012538	0.1331014	-0.001452943	0.001103695	-0.04384737	0.03330766	0	0
24.13019	0.3012298	0.1331196	-0.001448425	0.001100263	0.000136582	-0.0001037503	0	0
24.14715	0.3011578	0.1331743	-0.004245389	0.0032227	-0.08343279	0.06331179	0	0
24.16332	0.3010138	0.1332836	-0.008904352	0.006759346	-0.1406159	0.1067423	0	0
24.17989	0.2994528	0.1344677	-0.09421771	0.07147098	-2.605812	1.976553	0	0
24.19668	0.2948093	0.137982	-0.2764977	0.2092543	-5.463794	4.130019	0	0
24.21319	0.2886539	0.142658	-0.3727854	0.2831939	-2.89099	2.219999	0	0
24.2297	0.2853375	0.1452582	-0.2008472	0.157471	5.206487	-3.807034	0	0
24.24622	0.2790502	0.1500008	-0.3807721	0.2872233	-5.448332	3.92905	0	0
24.26272	0.2746185	0.1533056	-0.2685178	0.2002385	3.399975	-2.634608	0	0
24.27929	0.2671915	0.1588215	-0.4482986	0.3329406	-5.436123	4.012578	0	0
24.29886	0.2531352	0.1691864	-0.7180679	0.5294969	-7.464078	5.438394	0	0
24.31543	0.247256	0.1734941	-0.3548697	0.2600098	10.0491	-7.456269	0	0
24.332	0.2328808	0.1839618	-0.8676858	0.6318321	-15.47682	11.22162	0	0
24.34856	0.2273926	0.1879349	-0.3312685	0.2398193	16.1891	-11.83097	0	0
24.3653	0.2189086	0.1940528	-0.5068484	0.3654899	-5.2717	3.773198	0	0
24.38181	0.2057064	0.2035175	-0.7995517	0.5731995	-8.802892	6.246753	0	0
24.39833	0.1949146	0.2112069	-0.6535797	0.4656889	4.420202	-3.255545	0	0
24.41484	0.1800295	0.221712	-0.9014751	0.6362174	-7.506563	5.163802	0	0
24.4314	0.168518	0.2297444	-0.6951532	0.4850598	6.238658	-4.570628	0	0
24.44797	0.153031	0.2404439	-0.9348017	0.6458219	-7.234271	4.852928	0	0
24.46453	0.1419081	0.2479772	-0.6713767	0.4547116	7.950182	-5.767721	0	0
24.4811	0.1347056	0.252907	-0.434745	0.297564	7.141559	-4.742725	0	0
24.4979	0.1198959	0.2630114	-0.8816354	0.6015208	-13.39389	9.109983	0	0
24.51441	0.1083113	0.2706742	-0.7014256	0.4639681	5.409471	-4.129007	0	0
24.53092	0.09377677	0.2802293	-0.8804485	0.5788146	-5.42102	3.477685	0	0
24.54737	0.08202606	0.2857738	-0.714456	0.3371108	5.036918	-7.334322	0	0
24.56395	0.0601117	0.2870077	-1.321993	0.07443404	-18.39692	-7.954156	0	0
24.5805	0.0417389	0.2865427	-1.109879	-0.02808503	6.402342	-3.094388	0	0
24.59707	0.01889249	0.2865606	-1.379012	0.001079323	-8.125731	0.8805368	0	0
24.61398	0.01328869	0.2864712	-0.3313414	-0.005288218	31.29272	-0.1901911	0	0
24.6302	-0.01131531	0.2861672	-1.516884	-0.01874118	-35.78181	-0.4060346	0	0
24.71305	-0.04268458	0.2806765	-0.3786209	-0.0662719	11.48931	-0.4797617	0	0
24.7296	-0.04489087	0.2791739	-0.13331	-0.09079319	2.46788	-0.2466894	0	0
24.74617	-0.04541612	0.278816	-0.03170377	-0.02159726	3.06807	2.08942	0	0
24.76309	-0.04541612	0.278816	0	0	0.9467394	0.6449383	0	0
24.7796	-0.04538986	0.2787982	0.001590524	-0.001083064	0.04757761	-0.03239786	0	0
24.79587	-0.04538986	0.2787982	0	0	-0.04852163	0.03304069	0	0
24.81262	-0.04536359	0.2787803	0.00156757	-0.001067281	0.04746782	-0.03231852	0	0
24.82913	-0.04531107	0.2787445	0.003180907	-0.002167682	0.04849798	-0.03307877	0	0
24.84565	-0.04531107	0.2787087	0	-0.002165877	-0.09632155	5.465456E-05	0	0
24.8787	-0.04533733	0.2786908	-0.0007943903	-0.0005418397	-0.01602622	0.03276371	0	0
24.89527	-0.04538986	0.2786193	-0.003170511	-0.004319091	-0.04788299	-0.07611821	0	0
24.91219	-0.04544238	0.2785835	-0.003103472	-0.002113152	0.002001699	0.06586634	0	0
24.9284	-0.04546864	0.2785298	-0.001620096	-0.003311441	0.04477096	-0.0361665	0	0
24.94497	-0.0454949	0.2785119	-0.001585256	-0.001079323	0.001062993	0.06810246	0	0
24.96173	-0.04546864	0.2784583	0.001567034	-0.003202529	0.09458639	-0.0637081	0	0
24.97824	-0.04544238	0.2784404	0.001590341	-0.001084744	0.0007004768	0.06365109	0	0
24.99475	-0.04541612	0.2784583	0.001590566	0.001084744	6.83182E-06	0.06569459	0	0
25.01127	-0.04538986	0.2784404	0.001590157	-0.001084618	-1.239386E-05	-0.065687	0	0
25.0278	-0.04538986	0.2784404	0	0	-0.04811289	0.03281697	0	0
25.04437	-0.04538986	0.2784046	0	-0.002158646	0	-0.06520812	0	0
25.06094	-0.04536359	0.2783867	0.001585438	-0.001079447	0.04785138	0.03257215	0	0
25.0775	-0.04531107	0.2783509	0.003170287	-0.002160445	0.04783357	-0.03262645	0	0
25.09432	-0.04531107	0.2783151	0	-0.002127863	-0.09495248	0.0009758442	0	0
25.11064	-0.04525855	0.2782794	0.003219585	-0.002192213	0.09716727	-0.001942086	0	0
25.1272	-0.04517976	0.2782257	0.004755542	-0.003239768	0.04671292	-0.03185918	0	0
25.14659	-0.04502219	0.2780825	0.008127421	-0.00738287	0.09377941	-0.1152288	0	0
25.16316	-0.0447333	0.27785	0.01743736	-0.0140384	0.2589301	-0.1851049	0	0
25.17973	-0.04428681	0.27751	0.0269498	-0.02051793	0.2870858	-0.1955528	0	0
25.1964	-0.04423428	0.2774743	0.003151507	-0.002145554	-0.7160493	0.5527929	0	0
25.21291	-0.04410296	0.2773848	0.007953975	-0.005418929	0.1447472	-0.09866003	0	0
25.22943	-0.04352513	0.277027	0.034979	-0.0216614	0.8182073	-0.4917556	0	0
25.24599	-0.04271085	0.2764723	0.04914967	-0.0334788	0.4282881	-0.357164	0	0
25.26256	-0.04050415	0.2749693	0.1331968	-0.0907225	2.536547	-1.727618	0	0
25.27913	-0.04013633	0.2747188	0.02220168	-0.01512132	-3.349839	2.281648	0	0
25.29597	-0.04013633	0.2747188	0	0	-0.6645774	0.4526363	0	0
25.31226	-0.03989987	0.2745577	0.01451184	-0.009883823	0.4379681	-0.2982944	0	0
25.32899	-0.0374036	0.2728577	0.1492149	-0.1016204	4.078964	-2.77789	0	0
25.3455	-0.02872894	0.2669865	0.5253577	-0.3555703	11.31554	-7.639596	0	0
25.36201	-0.02083909	0.2616503	0.4778275	-0.323176	-1.439268	0.9809376	0	0
25.37853	-0.01018386	0.2544662	0.6451563	-0.4349846	5.066325	-3.385303	0	0
25.39509	-0.007631431	0.2527637	0.1541003	-0.1027896	-14.84488	10.04243	0	0
25.41166	0.004289447	0.2447134	0.7195457	-0.485913	17.06714	-11.56402	0	0
25.42856	0.01105218	0.2401748	0.4001829	-0.2685736	-9.542806	6.494268	0	0
25.4448	0.01910294	0.2347545	0.4958782	-0.3338559	2.888089	-1.970222	0	0
25.46136	0.02594155	0.2301216	0.4127792	-0.2796409	-2.533305	1.652765	0	0
25.47793	0.02723011	0.2292415	0.07777782	-0.05312518	-10.11036	6.836258	0	0
25.5442	0.04068806	0.2201119	0.2030867	-0.1377697	1.512766	-1.021854	0	0
25.5939	0.04066179	0.2201299	-0.0005285888	0.0003618869	-1.755806	1.19113	0	0
25.61046	0.04066179	0.2201299	0	0	0.007976879	-0.005461199	0	0
25.62703	0.04066179	0.2201299	0	0	0	0	0	0
25.6436	0.04060924	0.2201299	-0.003171636	0	-0.09572016	0	0	0
25.66016	0.04060924	0.2201299	0	0	0.09572016	0	0	0
25.67673	0.04058297	0.2201479	-0.001585705	0.00108472	-0.04785668	0.0327369	0	0
25.6933	0.04058297	0.2201479	0	0	0.04785668	-0.0327369	0	0
25.70987	0.0405567	0.2201658	-0.00158593	0.001085619	-0.04786347	0.03276405	0	0
25.72678	0.0405567	0.2201658	0	0	0.04737262	-0.03242804	0	0
25.743	0.04053042	0.2201838	-0.001619452	0.001108723	-0.04887797	0.03346325	0	0
25.75957	0.04050415	0.2202018	-0.00158593	0.00108472	0.001022331	-0.000732042	0	0
25.77613	0.04050415	0.2202018	0	0	0.04786347	-0.0327369	0	0
25.7927	0.04050415	0.2202018	0	0	0	0	0	0
25.80927	0.04047788	0.2202198	-0.001585705	0.001085619	-0.04785668	0.03276405	0	0
25.82583	0.04047788	0.2202198	0	0	0.04785944	-0.03276594	0	0
25.8424	0.04047788	0.2202198	0	0	0	0	0	0
25.85897	0.04047788	0.2202198	0	0	0	0	0	0
25.87553	0.0404516	0.2202018	-0.00158593	-0.001085619	-0.04786347	-0.03276405	0	0
25.8921	0.0404516	0.2202018	0	0	0.04786347	0.03276405	0	0
25.90891	0.04047788	0.2201838	0.001563431	-0.001069331	0.04684735	-0.03204191	0	0
25.92523	0.04047788	0.2201838	0	0	-0.04718716	0.03227433	0	0
25.94412	0.04047788	0.2201838	0	0	0	0	0	0
25.96069	0.04047788	0.2201838	0	0	0	0	0	0
25.97725	0.04047788	0.2201838	0	0	0	0	0	0
25.99396	0.0404516	0.2201658	-0.001572174	-0.001076203	-0.04724434	-0.03234024	0	0
26.01391	0.0404516	0.2201658	0	0	0.04289063	0.02935998	0	0
26.03047	0.0404516	0.2201658	0	0	0	0	0	0
26.04704	0.04047788	0.2201479	0.00158593	-0.001085619	0.04786347	-0.03276405	0	0
26.06361	0.04047788	0.2201479	0	0	-0.04786347	0.03276405	0	0
26.08018	0.04047788	0.2201479	0	0	0	0	0	0
26.09674	0.04047788	0.2201479	0	0	0	0	0	0
26.11331	0.0404516	0.2201299	-0.00158593	-0.00108472	-0.04786347	-0.0327369	0	0
26.12988	0.0404516	0.2201299	0	0	0.04786347	0.0327369	0	0
26.14657	0.0404516	0.2201299	0	0	0	0	0	0
26.16301	0.04042533	0.2201479	-0.001598403	0.001093406	-0.04824267	0.03300094	0	0
26.17958	0.04042533	0.2201479	0	0	0.04843226	-0.03313063	0	0
26.19614	0.04042533	0.2201479	0	0	0	0	0	0
26.21271	0.04042533	0.2201479	0	0	0	0	0	0
26.22928	0.04042533	0.2201479	0	0	0	0	0	0
26.24615	0.04042533	0.2201479	0	0	0	0	0	0
26.26241	0.04042533	0.2201479	0	0	0	0	0	0
26.27898	0.04042533	0.2201479	0	0	0	0	0	0
26.29568	0.04042533	0.2201479	0	0	0	0	0	0
26.31211	0.04039906	0.2201658	-0.001599186	0.001094693	-0.04826632	0.03303981	0	0
26.3287	0.04039906	0.2201658	0	0	0.04842801	-0.03315049	0	0
26.34524	0.04037279	0.2201838	-0.001588265	0.001087372	-0.0479367	0.03281883	0	0
26.36181	0.04037279	0.2201838	0	0	0.0479726	-0.03284341	0	0
26.37838	0.04034651	0.2202018	-0.00158593	0.00108472	-0.04786347	0.0327369	0	0
26.39494	0.04024142	0.2202737	-0.006343496	0.004341577	-0.1435836	0.09829215	0	0
26.41151	0.04021515	0.2202917	-0.001585888	0.001084845	0.1435932	-0.09829404	0	0
26.44479	0.04008378	0.2203816	-0.00394767	0.002701933	-0.04738459	0.03244375	0	0
26.47778	0.04008378	0.2203816	0	0	0.05957218	-0.04077343	0	0
26.49434	0.04008378	0.2203816	0	0	0	0	0	0
26.51091	0.04008378	0.2203816	0	0	0	0	0	0
26.52748	0.04008378	0.2203816	0	0	0	0	0	0
26.54435	0.04008378	0.2203816	0	0	0	0	0	0
26.56061	0.04008378	0.2203816	0	0	0	0	0	0
26.57718	0.04008378	0.2203816	0	0	0	0	0	0
26.59374	0.04008378	0.2203456	0	-0.002171238	0	-0.06552809	0	0
26.6104	0.04008378	0.2203456	0	0	0	0.06534754	0	0
26.62691	0.04008378	0.2203456	0	0	0	0	0	0
26.64344	0.04008378	0.2203456	0	0	0	0	0	0
26.66001	0.04011006	0.2203277	0.001586113	-0.001084845	0.04792692	-0.0327803	0	0
26.67657	0.04011006	0.2203277	0	0	-0.04787174	0.03274256	0	0
26.69314	0.04011006	0.2203277	0	0	0	0	0	0
26.70971	0.04011006	0.2203277	0	0	0	0	0	0
26.72648	0.04008378	0.2203097	-0.001566275	-0.001072165	-0.04697553	-0.03215623	0	0
26.743	0.04008378	0.2203097	0	0	0.04705359	0.03220966	0	0
26.75951	0.04011006	0.2202917	0.001591243	-0.001089256	0.04818468	-0.03298393	0	0
26.77602	0.04008378	0.2202737	-0.001591427	-0.001088479	-0.09638049	2.352143E-05	0	0
26.79254	0.04008378	0.2202737	0	0	0.04817634	0.03295089	0	0
26.80911	0.04008378	0.2202737	0	0	0	0	0	0
26.82568	0.04011006	0.2202557	0.00158593	-0.001085619	0.04786347	-0.03276405	0	0
26.84224	0.04011006	0.2202557	0	0	-0.04786347	0.03276405	0	0
26.86186	0.04008378	0.2202378	-0.001339628	-0.0009162574	-0.03702623	-0.02532462	0	0
26.87842	0.04008378	0.2202378	0	0	0.03702623	0.02532462	0	0
26.89499	0.04008378	0.2202378	0	0	0	0	0	0
26.91156	0.04005751	0.2202198	-0.00158593	-0.001085619	-0.04786347	-0.03276405	0	0
26.92813	0.04005751	0.2202198	0	0	0.04785796	0.03276028	0	0
26.94469	0.04008378	0.2202018	0.001586296	-0.001085869	0.0478745	-0.03277159	0	0
26.96126	0.04008378	0.2202018	0	0	-0.04788001	0.03277537	0	0
26.97783	0.04008378	0.2202018	0	0	0	0	0	0
26.99439	0.04005751	0.2202198	-0.00158593	0.001085619	-0.04786347	0.03276405	0	0
27.01096	0.04005751	0.2202198	0	0	0.04786347	-0.03276405	0	0
27.02753	0.04005751	0.2202198	0	0	0	0	0	0
27.0441	0.04005751	0.2202198	0	0	0	0	0	0
27.06067	0.04005751	0.2202198	0	0	0	0	0	0
27.07724	0.04005751	0.2202198	0	0	0	0	0	0
27.13657	0.04005751	0.2202198	0	0	0	0	0	0
27.15313	0.04005751	0.2202198	0	0	0	0	0	0
27.1697	0.04005751	0.2202198	0	0	0	0	0	0
27.18627	0.04005751	0.2202198	0	0	0	0	0	0
27.20284	0.04005751	0.2202198	0	0	0	0	0	0
27.2194	0.04005751	0.2202198	0	0	0	0	0	0
27.23597	0.04005751	0.2202198	0	0	0	0	0	0
27.25286	0.04005751	0.2202198	0	0	0	0	0	0
27.26938	0.04005751	0.2202198	0	0	0	0	0	0
27.28589	0.04008378	0.2202018	0.001591243	-0.001089256	0.04818468	-0.03298393	0	0
27.3024	0.04008378	0.2202018	0	0	-0.04818746	0.03298583	0	0
27.31891	0.04008378	0.2202018	0	0	0	0	0	0
27.33542	0.04008378	0.2202018	0	0	0	0	0	0
27.40164	0.04005751	0.2202198	-0.0003968138	0.0002716315	-0.004796862	0.003283603	0	0
27.4182	0.04005751	0.2202198	0	0	0.004793547	-0.003281333	0	0
27.43477	0.04005751	0.2202198	0	0	0	0	0	0
27.45151	0.04005751	0.2202198	0	0	0	0	0	0
27.46802	0.04005751	0.2202198	0	0	0	0	0	0
27.48447	0.04005751	0.2202198	0	0	0	0	0	0
27.50154	0.04005751	0.2202198	0	0	0	0	0	0
27.51805	0.04005751	0.2202198	0	0	0	0	0	0
27.53417	0.04005751	0.2202198	0	0	0	0	0	0
27.55074	0.04005751	0.2202198	0	0	0	0	0	0
27.56731	0.04005751	0.2202198	0	0	0	0	0	0
27.5841	0.04005751	0.2202198	0	0	0	0	0	0
27.60044	0.04005751	0.2202198	0	0	0	0	0	0
27.61713	0.04005751	0.2202198	0	0	0	0	0	0
27.63363	0.04005751	0.2202198	0	0	0	0	0	0
27.65014	0.04005751	0.2202198	0	0	0	0	0	0
27.6667	0.04005751	0.2202198	0	0	0	0	0	0
27.68327	0.04005751	0.2202198	0	0	0	0	0	0
27.69984	0.04005751	0.2202198	0	0	0	0	0	0
27.71669	0.04005751	0.2202198	0	0	0	0	0	0
27.73297	0.04005751	0.2202198	0	0	0	0	0	0
27.74971	0.04005751	0.2202198	0	0	0	0	0	0
27.76623	0.04005751	0.2202198	0	0	0	0	0	0
27.78267	0.04005751	0.2202198	0	0	0	0	0	0
27.79925	0.04005751	0.2202198	0	0	0	0	0	0
27.8158	0.04005751	0.2202198	0	0	0	0	0	0
27.85302	0.04005751	0.2202198	0	0	0	0	0	0
27.8698	0.04005751	0.2202198	0	0	0	0	0	0
27.88616	0.04005751	0.2202198	0	0	0	0	0	0
27.90272	0.04005751	0.2202198	0	0	0	0	0	0
27.91929	0.04005751	0.2202198	0	0	0	0	0	0
27.93586	0.04005751	0.2202198	0	0	0	0	0	0
27.95242	0.04005751	0.2202198	0	0	0	0	0	0
27.96899	0.04005751	0.2202198	0	0	0	0	0	0
27.98556	0.04005751	0.2202198	0	0	0	0	0	0
28.00212	0.04005751	0.2202198	0	0	0	0	0	0
28.01869	0.04005751	0.2202198	0	0	0	0	0	0
28.03526	0.04005751	0.2202198	0	0	0	0	0	0
28.05183	0.04005751	0.2202198	0	0	0	0	0	0
28.16802	0.04003124	0.2202018	-0.0002260943	-0.0001547906	-0.001702993	-0.001165917	0	0
28.18453	0.04005751	0.2201838	0.001591569	-0.001088731	0.01369754	-0.007037983	0	0
28.20104	0.04005751	0.2201838	0	0	-0.04820012	0.03297184	0	0
28.21749	0.04003124	0.2201658	-0.001596735	-0.00109317	-0.04843492	-0.03315992	0	0
28.23406	0.04013633	0.220022	0.006342766	-0.008681255	0.2404312	-0.2297893	0	0
28.25063	0.04039906	0.2196264	0.01586206	-0.02388372	0.2873092	-0.4588378	0	0
28.26719	0.04851453	0.2135645	0.489851	-0.3658995	14.30666	-10.32325	0	0
28.28376	0.05405256	0.2094427	0.3342375	-0.2487598	-4.696153	3.535079	0	0
28.30033	0.06603543	0.1999133	0.7233705	-0.5752653	11.74406	-9.853957	0	0
28.31689	0.07161416	0.185172	0.336733	-0.8897831	-11.66941	-9.492712	0	0
28.33364	0.07171889	0.1713225	0.006255697	-0.827291	-9.921853	1.87619	0	0
28.35003	0.07109052	0.1521073	-0.03833434	-1.172247	-1.345807	-10.41139	0	0
28.36659	0.0702788	0.1381276	-0.04899542	-0.843821	-0.3234651	9.964681	0	0
28.38317	0.07017406	0.1335751	-0.006318497	-0.2746295	1.287621	17.17329	0	0
28.39973	0.06810503	0.1078416	-0.1249586	-1.554171	-3.580566	-38.61664	0	0
28.4163	0.06700481	0.09643795	-0.06640985	-0.6883261	1.767514	26.13877	0	0
28.43286	0.06519694	0.08182056	-0.1091357	-0.882409	-1.289544	-5.857771	0	0
28.44972	0.06399146	0.07138352	-0.0715197	-0.6192164	1.125535	7.875169	0	0
28.466	0.06320518	0.06413967	-0.04829974	-0.4449752	0.7007796	5.258611	0	0
28.48256	0.06205181	0.05013239	-0.06961701	-0.8454812	-0.6489977	-12.19328	0	0
28.49913	0.06066232	0.04000309	-0.08386992	-0.6114055	-0.4301536	7.064419	0	0
28.51576	0.05788264	0.02773689	-0.1671088	-0.7374185	-2.507102	-3.795433	0	0
28.53227	0.05599404	0.01909954	-0.1143912	-0.5231581	1.590562	6.464531	0	0
28.54883	0.05397384	0.01106012	-0.1220235	-0.4855958	-0.230823	1.135987	0	0
28.5654	0.05145454	0.001026622	-0.1520829	-0.605693	-0.9075596	-3.626002	0	0
28.58196	0.04956464	-0.00590537	-0.1140748	-0.4184158	1.147153	5.65236	0	0
28.59882	0.04373525	-0.01198289	-0.3457327	-0.3604494	-6.930017	1.734059	0	0
28.6151	0.04087196	-0.01404278	-0.1759479	-0.1265791	5.124116	7.058219	0	0
28.63185	0.03632612	-0.01788261	-0.2713883	-0.229239	-2.890046	-3.108661	0	0
28.64836	0.03477545	-0.02040087	-0.09392306	-0.1525297	5.33564	2.306329	0	0
28.66487	0.03522227	-0.02466568	0.02705748	-0.2582569	3.663431	-3.201544	0	0
28.68136	0.03298803	-0.02969617	-0.1354829	-0.3050453	-4.924755	-1.417627	0	0
28.69793	0.03020134	-0.03155857	-0.168205	-0.1124151	-0.9898341	5.827009	0	0
28.71449	0.02907076	-0.03237611	-0.06825008	-0.04935211	3.016818	1.903354	0	0
28.73106	0.02904446	-0.03239512	-0.001587055	-0.00114768	2.01201	1.454896	0	0
28.74793	0.02899187	-0.03235709	-0.003118219	0.002254863	-0.04579934	0.101775	0	0
28.76419	0.02899187	-0.03235709	0	0	0.09411344	-0.06805582	0	0
28.78076	0.02899187	-0.03235709	0	0	0	0	0	0
28.79733	0.02899187	-0.03235709	0	0	0	0	0	0
28.90204	0.02899187	-0.03235709	0	0	0	0	0	0
28.91848	0.02899187	-0.03235709	0	0	0	0	0	0
28.93505	0.02899187	-0.03235709	0	0	0	0	0	0
28.95161	0.02899187	-0.03239512	0	-0.002295625	0	-0.06928608	0	0
28.96859	0.02896558	-0.03245217	-0.001549068	-0.00336085	-0.04618732	-0.03176096	0	0
28.9851	0.02872894	-0.03266134	-0.01433179	-0.01266835	-0.38174	-0.2779569	0	0
29.00132	0.02801898	-0.033327	-0.04378037	-0.04104871	-0.8997924	-0.867153	0	0
29.01812	0.02783491	-0.03456361	-0.01095266	-0.07358278	0.9941185	-0.9852265	0	0
29.03514	0.03524855	-0.03997255	0.435749	-0.3179195	13.20852	-7.224793	0	0
29.05101	0.04313113	-0.04573501	0.4964252	-0.3629059	1.8447	-1.36769	0	0
29.08417	0.06008548	-0.05809929	0.5113596	-0.3729185	0.3045714	-0.2041965	0	0
29.10072	0.06383421	-0.06084342	0.2265602	-0.1658459	-5.730175	4.166309	0	0
29.11728	0.06933604	-0.06487804	0.3320915	-0.2435304	3.186958	-2.346008	0	0
29.13385	0.06991219	-0.06530105	0.03477624	-0.02553274	-8.972993	6.579181	0	0
29.15072	0.06978125	-0.0652049	-0.007762148	0.005699486	-1.27224	0.9340946	0	0
29.16698	0.06970268	-0.06514722	-0.004830137	0.003546223	0.08848827	-0.0649856	0	0
29.18355	0.06959794	-0.06507031	-0.006322585	0.004642438	-0.04545558	0.03338751	0	0
29.20026	0.06957175	-0.06505108	-0.001567584	0.001151048	0.1429057	-0.1049294	0	0
29.21668	0.06959794	-0.06503186	0.001594341	0.001170242	0.09543259	0.0005793052	0	0
29.23328	0.06954556	-0.0649934	-0.003156792	0.002317975	-0.1438948	0.0347607	0	0
29.24982	0.06954556	-0.0649934	0	0	0.09527767	-0.06996065	0	0
29.26638	0.06954556	-0.0649934	0	0	0	0	0	0
29.28295	0.06954556	-0.0649934	0	0	0	0	0	0
29.29952	0.06954556	-0.0649934	0	0	0	0	0	0
29.31634	0.06954556	-0.0649934	0	0	0	0	0	0
29.33285	0.06954556	-0.0649934	0	0	0	0	0	0
29.34922	0.06954556	-0.0649934	0	0	0	0	0	0
29.36587	0.06951937	-0.06497417	-0.001572611	0.001154292	-0.04762049	0.0349533	0	0
29.38238	0.06951937	-0.06497417	0	0	0.04742056	-0.03480655	0	0
29.39892	0.06949318	-0.06495494	-0.001583676	0.001162864	-0.04792232	0.03518848	0	0
29.41549	0.06949318	-0.06495494	0	0	0.04783949	-0.03512766	0	0
29.43205	0.06946699	-0.06493572	-0.001580759	0.001160272	-0.04770739	0.03501709	0	0
29.44862	0.06946699	-0.06493572	0	0	0.04771014	-0.0350191	0	0
29.46519	0.0694408	-0.06491649	-0.001580759	0.001160722	-0.04771014	0.03503267	0	0
29.48175	0.0694408	-0.06491649	0	0	0.04770739	-0.03503066	0	0
29.49832	0.0694408	-0.06491649	0	0	0	0	0	0
29.51489	0.0694408	-0.06491649	0	0	0	0	0	0
29.53149	0.0694408	-0.06491649	0	0	0	0	0	0
29.54802	0.0694408	-0.06491649	0	0	0	0	0	0
29.58116	0.0694408	-0.06491649	0	0	0	0	0	0
29.59772	0.0694408	-0.06491649	0	0	0	0	0	0
29.61429	0.0694408	-0.06491649	0	0	0	0	0	0
29.63106	0.0694408	-0.06491649	0	0	0	0	0	0
29.64742	0.06941461	-0.06489727	-0.001601116	0.001174881	-0.04832178	0.03545796	0	0
29.66399	0.06936223	-0.06485882	-0.003161517	0.002320994	-0.0473876	0.03480617	0	0
29.68056	0.0692051	-0.06470501	-0.009484551	0.009283977	-0.1908295	0.2101432	0	0
29.69713	0.06828839	-0.06395534	-0.05533285	0.04525017	-1.383704	1.085462	0	0
29.73317	0.06299549	-0.05992202	-0.1468567	0.1119084	-1.739716	1.267062	0	0
29.74973	0.05630883	-0.05491708	-0.4036072	0.3020987	-4.880401	3.615201	0	0
29.76667	0.05213692	-0.05156611	-0.2463989	0.1979127	4.692958	-3.110144	0	0
29.78318	0.03879631	-0.04067795	-0.8079381	0.6594124	-16.79071	13.7994	0	0
29.79943	0.03293546	-0.03581975	-0.3605277	0.2988494	13.65378	-11.00342	0	0
29.8162	0.02210166	-0.02567113	-0.646339	0.6054622	-8.656199	9.286199	0	0
29.83271	0.01328869	-0.01784476	-0.533734	0.4739834	3.384206	-3.951433	0	0
29.84922	0.009973354	-0.0154609	-0.2007845	0.144372	10.08209	-9.981016	0	0
29.8657	-0.01007861	-0.0009686078	-1.216642	0.8793118	-30.78979	22.27542	0	0
29.88227	-0.02020778	0.006422848	-0.6113979	0.4461492	18.31374	-13.10683	0	0
29.89884	-0.03014876	0.01366701	-0.6000388	0.4372583	0.3428164	-0.2683278	0	0
29.9154	-0.03679917	0.01863155	-0.4014197	0.2996605	5.994337	-4.152709	0	0
29.98167	-0.0490921	0.07669746	-0.1855061	0.8762416	2.606575	6.96066	0	0
29.99824	-0.0480157	0.093353	0.06497187	1.005331	3.023845	1.558401	0	0
30.0148	-0.04738555	0.1008414	0.03803557	0.4520007	-0.8129393	-16.69953	0	0
30.03137	-0.04649279	0.1181948	0.05388745	1.047453	0.4784108	17.97078	0	0
30.04794	-0.04644027	0.1246226	0.003170062	0.3879811	-1.530654	-19.9029	0	0
30.06451	-0.04633523	0.1373448	0.006340123	0.7679167	0.09567265	11.46648	0	0
30.08108	-0.04670286	0.1462943	-0.02218743	0.5401264	-0.8609137	-6.874331	0	0
30.09764	-0.04875081	0.1537775	-0.1236291	0.4517433	-3.061516	-2.667407	0	0
30.11421	-0.05232063	0.1611062	-0.2154742	0.4423579	-2.772052	-0.2832693	0	0
30.13078	-0.0559678	0.1636981	-0.2201441	0.1564488	-0.1409371	-8.628754	0	0
30.14734	-0.05864321	0.1655824	-0.1614876	0.1137382	1.770256	-1.289009	0	0
30.16391	-0.06462043	0.1699287	-0.3607858	0.262343	-6.014829	4.484901	0	0
30.18048	-0.06980744	0.1741273	-0.3130887	0.2534277	1.4395	-0.2690617	0	0
30.21361	-0.07318485	0.1884585	-0.1019362	0.4325407	4.248559	3.603898	0	0
30.23018	-0.07263515	0.1987956	0.03317974	0.6239513	2.718643	3.851336	0	0
30.24674	-0.07232102	0.2080203	0.01896101	0.5568048	-0.4291223	-2.026485	0	0
30.26331	-0.07082869	0.2136184	0.09007715	0.3379019	2.14629	-6.606503	0	0
30.27988	-0.06928366	0.2193207	0.09325801	0.3441898	0.09599836	0.1897711	0	0
30.29655	-0.06773831	0.223905	0.09270148	0.275	-0.01674402	-2.081682	0	0
30.31307	-0.06241881	0.2275888	0.3220496	0.2230189	6.9106	-1.566268	0	0
30.32958	-0.05890546	0.2299959	0.2127767	0.1457816	-3.308336	-2.338431	0	0
30.34615	-0.05594157	0.232169	0.1789007	0.1311674	-1.024088	-0.4417939	0	0
30.36271	-0.0546298	0.2331745	0.07917869	0.06069573	-3.009617	-2.12684	0	0
30.37928	-0.05058838	0.2361188	0.2439405	0.1777168	4.972521	3.531704	0	0
30.39612	-0.04906585	0.2374471	0.09041161	0.0788736	-4.595681	-2.95874	0	0
30.41263	-0.0502209	0.2382726	-0.0699522	0.04999838	-4.808236	-0.8657745	0	0
30.42898	-0.05591534	0.2421663	-0.3483289	0.2381742	-8.47165	5.726625	0	0
30.44565	-0.0601117	0.2450363	-0.2516705	0.1721234	2.927099	-2.000208	0	0
30.46217	-0.06435836	0.2479414	-0.2571875	0.1759405	-0.1662461	0.115021	0	0
30.47868	-0.06527555	0.2485331	-0.05554067	0.0358294	6.105749	-4.242483	0	0
30.49525	-0.06724058	0.2498777	-0.1186095	0.08116239	-1.906494	1.370361	0	0
30.5122	-0.06724058	0.2497701	0	-0.006343152	3.538094	-2.61027	0	0
30.52838	-0.06726678	0.2497522	-0.001619238	-0.001108966	-0.04886869	0.1579681	0	0
30.54523	-0.06729298	0.2497701	-0.001555688	0.00106514	0.001924471	0.06583825	0	0
30.56151	-0.06729298	0.2497701	0	0	0.04695346	-0.03214784	0	0
30.57825	-0.06729298	0.2497701	0	0	0	0	0	0
30.59465	-0.06729298	0.2497343	0	-0.002187354	0	-0.06601829	0	0
30.61121	-0.06729298	0.2497343	0	0	0	0.06635444	0	0
30.62778	-0.06726678	0.2497163	0.001581658	-0.001082021	0.04773453	-0.03265547	0	0
30.65042	-0.06666423	0.249304	0.02660968	-0.01820986	0.6382865	-0.4368091	0	0
30.66699	-0.06634983	0.2490889	0.01897675	-0.01298606	-0.1946618	0.1332221	0	0
30.68356	-0.06627123	0.2490351	0.004744524	-0.003246064	-0.4295294	0.2939535	0	0
30.70013	-0.06616643	0.2489634	0.006325732	-0.004328985	0.04772096	-0.03268261	0	0
30.71669	-0.06600922	0.2488558	0.009489048	-0.006493028	0.09546906	-0.06531095	0	0
30.73326	-0.06577341	0.2487303	0.01423402	-0.007575049	0.1432036	-0.03265547	0	0
30.74987	-0.06556379	0.2486227	0.0126175	-0.006476033	-0.04871939	0.0331226	0	0
30.76639	-0.06517074	0.2483896	0.02379335	-0.01410959	0.3373072	-0.2303943	0	0
30.78296	-0.06464663	0.2480669	0.03163496	-0.01947998	0.2370013	-0.1623125	0	0
30.79953	-0.06420112	0.2478696	0.02689398	-0.0119072	-0.1430913	0.2285601	0	0
30.81609	-0.06092451	0.2458792	0.197777	-0.1201448	5.157555	-3.266806	0	0
30.83293	-0.05127082	0.2396365	0.5733252	-0.3707504	11.24217	-7.501968	0	0
30.84923	-0.04559994	0.2359393	0.3479834	-0.2268688	-6.800829	4.342354	0	0
30.8658	-0.03716709	0.2302833	0.5090083	-0.3413989	4.899793	-3.48501	0	0
30.88247	-0.027309	0.2236534	0.5912237	-0.3976162	2.473294	-1.691191	0	0
30.89898	-0.02073387	0.2191948	0.398251	-0.270052	-5.815225	3.844141	0	0
30.91549	-0.01515673	0.2154177	0.3376863	-0.2287008	-1.833862	1.25209	0	0
30.93206	-0.01031542	0.2121428	0.2922221	-0.1976726	-1.374251	0.9378905	0	0
30.94863	-0.008078772	0.2108649	0.1350046	-0.07713562	-4.744833	3.637814	0	0
30.9652	-0.006263076	0.2114949	0.1095956	0.03802635	-0.7668446	3.475595	0	0
30.98176	-0.001447367	0.21486	0.2907102	0.2031412	5.466364	4.983463	0	0
30.99833	0.005605204	0.2197163	0.4256941	0.2931306	4.074056	2.716043	0	0
31.0149	0.01065749	0.2232759	0.3049566	0.214859	-3.643864	-2.362242	0	0
31.03157	0.01420957	0.2263131	0.2130061	0.1821278	-2.765997	-0.9845987	0	0
31.04803	0.0164985	0.2298881	0.1390729	0.2172154	-2.231308	1.058944	0	0
31.0646	0.01384122	0.2331745	-0.1603938	0.1983679	-9.067677	-0.5706915	0	0
31.08161	0.009447088	0.2361368	-0.2582437	0.1740898	-2.913699	-0.7229356	0	0
31.09773	0.00634202	0.2381829	-0.1926339	0.1269386	1.980105	-1.423026	0	0
31.1143	-0.0006842104	0.2427224	-0.4241042	0.2740051	-7.081581	4.499341	0	0
31.13087	-0.006710425	0.2467938	-0.3637431	0.2457484	1.821701	-0.8527884	0	0
31.14743	-0.01605125	0.2531221	-0.5638135	0.3819805	-6.038138	4.111494	0	0
31.164	-0.02383759	0.2583902	-0.4699841	0.3179812	2.831776	-1.931504	0	0
31.22076	-0.0540788	0.2783151	-0.5328193	0.3510571	-0.8569493	0.4510919	0	0
31.23772	-0.06215667	0.2833952	-0.4761786	0.2994645	0.7683113	-0.6998364	0	0
31.25389	-0.06912652	0.2865427	-0.4310225	0.1946453	1.362814	-3.16345	0	0
31.27046	-0.07470284	0.2883487	-0.3365869	0.1090098	2.884611	-2.615804	0	0
31.28703	-0.08215676	0.2929792	-0.4499198	0.2794979	-3.420395	5.14534	0	0
31.30377	-0.08672925	0.2961074	-0.2730722	0.1868166	5.308853	-2.782234	0	0
31.32068	-0.0887139	0.2974658	-0.1173483	0.08031712	4.62678	-3.164251	0	0
31.33725	-0.08897499	0.2976445	-0.01575947	0.01078963	3.034342	-2.076706	0	0
31.37039	-0.08897499	0.2976445	0	0	0.3170811	-0.2170878	0	0
31.38695	-0.08897499	0.2976445	0	0	0	0	0	0
31.42009	-0.08894888	0.2976624	0.0007879058	0.0005387621	0.0158527	0.01083991	0	0
31.43666	-0.08894888	0.2976624	0	0	-0.0158527	-0.01083991	0	0
31.45322	-0.08894888	0.2976624	0	0	0	0	0	0
31.46989	-0.08892278	0.2976445	0.001566075	-0.001070867	0.04711779	-0.03221867	0	0
31.48641	-0.08892278	0.2976445	0	0	-0.04719362	0.03227052	0	0
31.50292	-0.08892278	0.2976445	0	0	0	0	0	0
31.52216	-0.08889666	0.2976266	0.001357466	-0.0009295063	0.03796764	-0.02599781	0	0
31.53894	-0.08887056	0.2976088	0.001555574	-0.001065462	0.005499903	-0.003774422	0	0
31.55545	-0.08884445	0.2975909	0.001581273	-0.001083064	0.0007718998	-0.0005286963	0	0
31.57186	-0.08881834	0.297573	0.0015912	-0.001088046	0.0003015649	-0.0001513678	0	0
31.58843	-0.08879223	0.2975551	0.001576261	-0.001079323	-0.0004530328	0.0002645504	0	0
31.60499	-0.08876612	0.2975373	0.001575812	-0.001079323	-1.357235E-05	0	0	0
31.62156	-0.0887139	0.2975015	0.003152436	-0.002157096	0.04758535	-0.03252911	0	0
31.63851	-0.08855724	0.2973943	0.009241905	-0.006325954	0.1816888	-0.1243844	0	0
31.65469	-0.08827003	0.2971619	0.01774685	-0.01435806	0.2566798	-0.2424094	0	0
31.67126	-0.08688596	0.2961431	0.08354275	-0.06149443	2.008969	-1.439231	0	0
31.68783	-0.08385552	0.2940339	0.1829174	-0.1273133	2.999132	-1.986419	0	0
31.70456	-0.07750235	0.2896897	0.3798055	-0.2597046	5.913503	-3.976349	0	0
31.72096	-0.07263515	0.2863639	0.2966879	-0.2027308	-2.508641	1.719572	0	0
31.73753	-0.0691789	0.2840033	0.2086197	-0.142485	-2.670973	1.827161	0	0
31.7541	-0.06805264	0.28327	0.06798116	-0.04426124	-4.244478	2.9644	0	0
31.77066	-0.06742396	0.2828408	0.0379472	-0.02590915	-0.9064267	0.5538672	0	0
31.78723	-0.06265473	0.2795853	0.2878717	-0.1965016	7.542735	-5.148489	0	0
31.80413	-0.05914148	0.277188	0.2079191	-0.1418755	-2.389181	1.632362	0	0
31.82036	-0.05108709	0.2716944	0.4961018	-0.3383734	8.697871	-5.93066	0	0
31.83693	-0.04869831	0.2700656	0.144187	-0.09831373	-10.72826	7.318316	0	0
31.8535	-0.03661521	0.2618294	0.7293375	-0.497138	17.65988	-12.03654	0	0
31.87006	-0.02599414	0.2545917	0.6410887	-0.4368704	-2.663356	1.81888	0	0
31.88663	-0.01741929	0.2487482	0.5175793	-0.352712	-3.727521	2.539906	0	0
31.9032	-0.005999928	0.2410001	0.689274	-0.4676761	5.181758	-3.469623	0	0
31.91977	0.002763151	0.2350238	0.5289405	-0.3607314	-4.838875	3.227598	0	0
31.93633	0.008815561	0.2309299	0.3653242	-0.247111	-4.93795	3.429069	0	0
31.95324	0.02394279	0.2205974	0.8948467	-0.6112146	15.81983	-10.87784	0	0
31.96947	0.02691455	0.2185654	0.183107	-0.1251992	-21.48034	14.66797	0	0
31.98626	0.03871748	0.2105229	0.7028776	-0.4789442	15.74017	-10.71243	0	0
32.0026	0.04628271	0.2053369	0.4629271	-0.3173345	-7.241722	4.877392	0	0
32.01917	0.05478722	0.1995347	0.5133333	-0.3502215	1.531665	-0.999319	0	0
32.03574	0.05979705	0.196091	0.3023937	-0.207865	-6.366168	4.296325	0	0
32.05231	0.06236638	0.1943234	0.1550138	-0.106642	-4.446909	3.054215	0	0
32.06887	0.06226153	0.1943956	-0.006331796	0.004357075	-4.869421	3.349958	0	0
32.08544	0.06223531	0.1944136	-0.001582333	0.001089217	0.1433721	-0.09864687	0	0
32.102	0.06223531	0.1944136	0	0	0.04776039	-0.03287641	0	0
32.11857	0.06223531	0.1944136	0	0	0	0	0	0
32.13514	0.06223531	0.1944136	0	0	0	0	0	0
32.15188	0.0622091	0.1944316	-0.001565748	0.001076911	-0.04700545	0.03233002	0	0
32.16839	0.06218288	0.1944858	-0.00158745	0.003277316	-0.0006525434	0.06616459	0	0
32.1849	0.06215667	0.1945038	-0.001587591	0.001092992	-4.276057E-06	-0.06614386	0	0
32.20142	0.06210424	0.1945399	-0.0031749	0.002184576	-0.04806555	0.03305444	0	0
32.21797	0.06205181	0.194612	-0.003167582	0.004359083	0.0002212912	0.06576303	0	0
32.23454	0.06199938	0.1946481	-0.003164665	0.002177534	8.80869E-05	-0.06586961	0	0
32.2511	0.06155372	0.1949547	-0.02690033	0.01850859	-0.7163437	0.4928722	0	0
32.26796	0.06126534	0.1951531	-0.01710354	0.01176647	0.2930696	-0.2016896	0	0
32.28424	0.06089829	0.1954417	-0.02255502	0.01773379	-0.164526	0.1800939	0	0
32.3008	0.06081963	0.1954958	-0.004748766	0.003266604	0.5422634	-0.4405769	0	0
32.3175	0.06079341	0.1955139	-0.001570264	0.001079864	0.0955643	-0.06574617	0	0
32.33401	0.0607672	0.195568	-0.001587675	0.003276414	-0.0005242602	0.06613972	0	0
32.35052	0.06074098	0.195586	-0.001588042	0.001092089	-1.110788E-05	-0.06614387	0	0
32.36707	0.06071476	0.195604	-0.001584381	0.001090472	0.000110738	-4.891405E-05	0	0
32.38364	0.06068854	0.1956221	-0.001582557	0.001088317	5.507999E-05	-6.50744E-05	0	0
32.40056	0.0606361	0.1956581	-0.003098759	0.002131883	-0.04527429	0.03116122	0	0
32.41677	0.0606361	0.1956581	0	0	0.09353149	-0.06434775	0	0
32.43634	0.06053123	0.1957664	-0.005358247	0.005528588	-0.1497476	0.1545081	0	0
32.45291	0.06026903	0.1959467	-0.01582625	0.01088587	-0.2896479	0.1482351	0	0
32.46947	0.06016415	0.1960188	-0.006330679	0.004354169	0.2865769	-0.1971272	0	0
32.48604	0.06016415	0.1960188	0	0	0.1910603	-0.1314091	0	0
32.50263	0.06013792	0.1960369	-0.001580962	0.001087066	-0.04768608	0.03278884	0	0
32.51918	0.06008548	0.196073	-0.003168988	0.002180044	-0.04792672	0.03298615	0	0
32.53574	0.06003304	0.196109	-0.003165564	0.002176635	0.0001033822	-0.0001029533	0	0
32.55231	0.06000682	0.196127	-0.001582557	0.001088317	0.04777525	-0.03284548	0	0
32.56887	0.06000682	0.196127	0	0	0.04776718	-0.03284926	0	0
32.58544	0.06000682	0.196127	0	0	0	0	0	0
32.65173	0.06000682	0.196127	0	0	0	0	0	0
32.66827	0.0599806	0.1961451	-0.001585338	0.001090975	-0.01913911	0.01317089	0	0
32.68526	0.0599806	0.1961451	0	0	0.04729025	-0.03254354	0	0
32.70177	0.05995438	0.1961631	-0.001587901	0.001091837	-0.04740448	0.03259521	0	0
32.71798	0.05995438	0.1961631	0	0	0.04853197	-0.03337047	0	0
32.73454	0.05995438	0.1961631	0	0	0	0	0	0
32.75111	0.05995438	0.1961631	0	0	0	0	0	0
32.76781	0.05995438	0.1961631	0	0	0	0	0	0
32.78433	0.05992816	0.1961451	-0.001587675	-0.001091837	-0.04779508	-0.03286846	0	0
32.80084	0.05992816	0.1961451	0	0	0.04807665	0.03306209	0	0
32.81738	0.05992816	0.1961451	0	0	0	0	0	0
32.83394	0.05992816	0.1961451	0	0	0	0	0	0
32.85051	0.05992816	0.1961451	0	0	0	0	0	0
32.86708	0.05992816	0.1961451	0	0	0	0	0	0
32.88364	0.05992816	0.1961451	0	0	0	0	0	0
32.90021	0.05992816	0.1961451	0	0	0	0	0	0
32.91692	0.05992816	0.1961451	0	0	0	0	0	0
32.93344	0.05995438	0.196127	0.001587675	-0.001092739	0.04778411	-0.03288807	0	0
32.94992	0.05995438	0.196127	0	0	-0.04812112	0.03312002	0	0
32.96648	0.05995438	0.196127	0	0	0	0	0	0
32.98305	0.05995438	0.196127	0	0	0	0	0	0
32.99961	0.05995438	0.196127	0	0	0	0	0	0
33.01618	0.05995438	0.196091	0	-0.002176635	0	-0.06569096	0	0
33.03275	0.05995438	0.196091	0	0	0	0.06569096	0	0
33.04932	0.05995438	0.196091	0	0	0	0	0	0
33.06603	0.05995438	0.196091	0	0	0	0	0	0
33.08254	0.0599806	0.196073	0.001588268	-0.001092089	0.04780194	-0.0328685	0	0
33.09906	0.0599806	0.196073	0	0	-0.04809459	0.03306973	0	0
33.11558	0.0599806	0.196073	0	0	0	0	0	0
33.13215	0.0599806	0.196073	0	0	0	0	0	0
33.14872	0.0599806	0.196073	0	0	0	0	0	0
33.16528	0.0599806	0.196073	0	0	0	0	0	0
33.18185	0.0599806	0.196073	0	0	0	0	0	0
33.19863	0.0599806	0.196073	0	0	0	0	0	0
33.21498	0.0599806	0.196073	0	0	0	0	0	0
33.24816	0.0599806	0.196073	0	0	0	0	0	0
33.26468	0.0599806	0.196073	0	0	0	0	0	0
33.28125	0.0599806	0.196073	0	0	0	0	0	0
33.29782	0.0599806	0.196073	0	0	0	0	0	0
33.31438	0.0599806	0.196073	0	0	0	0	0	0
33.33095	0.0599806	0.196073	0	0	0	0	0	0
33.35176	0.0599806	0.196073	0	0	0	0	0	0
33.36832	0.0599806	0.196073	0	0	0	0	0	0
33.38489	0.0599806	0.196073	0	0	0	0	0	0
33.40146	0.0599806	0.196073	0	0	0	0	0	0
33.41803	0.0599806	0.196073	0	0	0	0	0	0
33.43459	0.0599806	0.196073	0	0	0	0	0	0
33.45116	0.06000682	0.1960549	0.001582782	-0.001089217	0.04776846	-0.03287263	0	0
33.48433	0.06000682	0.1960549	0	0	-0.03182122	0.02189828	0	0
33.50086	0.0599806	0.1960369	-0.001586435	-0.001090829	-0.03191914	-0.02194753	0	0
33.51743	0.0599806	0.1960369	0	0	0.04793389	0.03295923	0	0
33.534	0.0599806	0.1960369	0	0	0	0	0	0
33.55056	0.0599806	0.1960369	0	0	0	0	0	0
33.56713	0.0599806	0.1960369	0	0	0	0	0	0
33.58391	0.0599806	0.1960369	0	0	0	0	0	0
33.60042	0.0599806	0.1960369	0	0	0	0	0	0
33.61693	0.0599806	0.1960369	0	0	0	0	0	0
33.63344	0.0599806	0.1960369	0	0	0	0	0	0
33.64996	0.0599806	0.1960369	0	0	0	0	0	0
33.66653	0.0599806	0.1960369	0	0	0	0	0	0
33.6831	0.0599806	0.1960369	0	0	0	0	0	0
33.69967	0.05995438	0.1960549	-0.001582782	0.001088317	-0.04776846	0.03284548	0	0
33.71623	0.05995438	0.1960549	0	0	0.04776846	-0.03284548	0	0
33.7328	0.0599806	0.1960369	0.001582782	-0.001088317	0.04776846	-0.03284548	0	0
33.74937	0.0599806	0.1960369	0	0	-0.04776846	0.03284548	0	0
33.76593	0.0599806	0.1960369	0	0	0	0	0	0
33.7825	0.0599806	0.1960369	0	0	0	0	0	0
33.79907	0.0599806	0.1960369	0	0	0	0	0	0
33.81564	0.05992816	0.1960369	-0.00316534	0	-0.09553014	0	0	0
33.8322	0.05990193	0.1960188	-0.001582782	-0.001088317	0.04776167	-0.03284548	0	0
33.84877	0.05990193	0.1960188	0	0	0.04776846	0.03284548	0	0
33.86562	0.05987571	0.1960008	-0.001556265	-0.001070084	-0.04657141	-0.03202239	0	0
33.88213	0.05987571	0.1960008	0	0	0.0466513	0.03207732	0	0
33.89847	0.05987571	0.1960008	0	0	0	0	0	0
33.91504	0.05987571	0.1960008	0	0	0	0	0	0
33.93161	0.05987571	0.1960008	0	0	0	0	0	0
33.94817	0.05987571	0.1960008	0	0	0	0	0	0
33.96474	0.05987571	0.1960008	0	0	0	0	0	0
33.98131	0.05987571	0.1960008	0	0	0	0	0	0
33.99822	0.05987571	0.1960008	0	0	0	0	0	0
34.01444	0.05990193	0.1960188	0.001616276	0.001111348	0.04877932	0.03354055	0	0
34.03101	0.05990193	0.1960188	0	0	-0.04929003	-0.03389172	0	0
34.04758	0.05990193	0.1960188	0	0	0	0	0	0
34.06426	0.05990193	0.1960188	0	0	0	0	0	0
34.08077	0.05990193	0.1960188	0	0	0	0	0	0
34.09728	0.05990193	0.1960188	0	0	0	0	0	0
34.13041	0.05990193	0.1960188	0	0	0	0	0	0
34.14698	0.05990193	0.1960188	0	0	0	0	0	0
34.16354	0.05990193	0.1960188	0	0	0	0	0	0
34.18011	0.05990193	0.1960188	0	0	0	0	0	0
34.19667	0.05990193	0.1960188	0	0	0	0	0	0
34.21336	0.05990193	0.1960188	0	0	0	0	0	0
34.22988	0.05984949	0.1960549	-0.003175802	0.002183674	-0.09564769	0.06576712	0	0
34.24638	0.05969216	0.1961631	-0.009535992	0.006558887	-0.1926607	0.1325324	0	0
34.26647	0.05840718	0.1970467	-0.06394278	0.04397053	-1.486752	1.022333	0	0
34.28304	0.05533818	0.1991562	-0.1852449	0.1273259	-3.308565	2.273553	0	0
34.29961	0.0502209	0.2026706	-0.30888	0.2121319	-3.731315	2.55945	0	0
34.31617	0.04060924	0.2092987	-0.5801607	0.4000718	-8.187267	5.672035	0	0
34.33274	0.03125298	0.2157055	-0.564745	0.386717	0.4652458	-0.4030489	0	0
34.34946	0.01794544	0.2248036	-0.7957325	0.5440273	-6.938465	4.72533	0	0
34.38244	-0.003789456	0.2396365	-0.6591477	0.4498302	2.748302	-1.895395	0	0
34.39901	-0.01944492	0.2503079	-0.9449655	0.6441328	-5.769263	3.922019	0	0
34.41557	-0.0278875	0.256061	-0.5095956	0.3472578	13.13949	-8.959705	0	0
34.43214	-0.04607264	0.2684903	-1.097657	0.7502338	-17.74772	12.16184	0	0
34.44871	-0.06034769	0.2782257	-0.8616439	0.5876266	7.122883	-4.907495	0	0
34.46527	-0.07894088	0.2909234	-1.122287	0.7664327	-7.866227	5.396378	0	0
34.48184	-0.09192441	0.299807	-0.7836875	0.5362203	10.21896	-6.947824	0	0
34.49857	-0.1082333	0.3109922	-0.9749764	0.6686716	-5.745331	3.978152	0	0
34.51508	-0.1159512	0.3162976	-0.4674715	0.3213432	15.26906	-10.44991	0	0
34.53154	-0.1236294	0.3215845	-0.4664637	0.321187	0.03056664	-0.0047383	0	0
34.54811	-0.1411601	0.3336926	-1.058156	0.7308474	-17.91505	12.40356	0	0
34.56467	-0.1500222	0.3398355	-0.5349134	0.3707852	15.79149	-10.8667	0	0
34.58124	-0.1578084	0.3452462	-0.4699786	0.3265924	1.959736	-1.333744	0	0
34.59781	-0.1670855	0.3517107	-0.5599636	0.3902005	-2.715751	1.919697	0	0
34.61438	-0.1691574	0.3531573	-0.1250603	0.08731364	13.12541	-9.141143	0	0
34.63094	-0.1800804	0.3608013	-0.6593189	0.4613926	-16.12396	11.28973	0	0
34.64751	-0.1822701	0.3623374	-0.1321685	0.09271925	15.90943	-11.12658	0	0
34.66408	-0.1825501	0.3625338	-0.0168986	0.01185816	3.478853	-2.440392	0	0
34.68064	-0.1825501	0.3625338	0	0	0.5100008	-0.3578801	0	0
34.69721	-0.1825501	0.3625338	0	0	0	0	0	0
34.71378	-0.1825501	0.3625338	0	0	0	0	0	0
34.73035	-0.1825501	0.3625338	0	0	0	0	0	0
34.74691	-0.1825501	0.3625338	0	0	0	0	0	0
34.76348	-0.1825246	0.362516	0.001536236	-0.001077524	0.04636371	-0.03251974	0	0
34.78005	-0.1825246	0.362516	0	0	-0.04636371	0.03251974	0	0
34.79662	-0.1825246	0.362516	0	0	0	0	0	0
34.8133	-0.1825246	0.362516	0	0	0	0	0	0
34.82981	-0.1825246	0.362516	0	0	0	0	0	0
34.84632	-0.1825246	0.362516	0	0	0	0	0	0
34.86288	-0.1824483	0.3624624	0.004610833	-0.003235862	0.139412	-0.09783872	0	0
34.87945	-0.1823719	0.3624088	0.004608709	-0.003234371	-6.409956E-05	4.498918E-05	0	0
34.89635	-0.182321	0.3623731	0.003010774	-0.002113535	-0.04773666	0.03348382	0	0
34.91258	-0.1822447	0.3623195	0.004706237	-0.003302816	0.05117507	-0.03589669	0	0
34.92915	-0.1821683	0.3622659	0.004608709	-0.003234371	-0.002974207	0.00208728	0	0
34.94571	-0.182092	0.3622123	0.004608709	-0.003234371	0	0	0	0
34.9624	-0.1820156	0.3621587	0.004575	-0.003210714	-0.001013612	0.0007113487	0	0
34.97892	-0.1819392	0.3621052	0.004624516	-0.003244831	0.001491308	-0.001027528	0	0
34.99543	-0.1819392	0.3621052	0	0	-0.1400357	0.09825726	0	0
35.01198	-0.1819392	0.3621052	0	0	0	0	0	0
35.02856	-0.1819392	0.3621052	0	0	0	0	0	0
35.04511	-0.1819392	0.3621052	0	0	0	0	0	0
35.06168	-0.1819138	0.3620873	0.001536236	-0.001077524	0.04639041	-0.03253847	0	0
35.07825	-0.1819138	0.3620873	0	0	-0.04636371	0.03251974	0	0
35.09499	-0.1819138	0.3620873	0	0	0	0	0	0
35.11138	-0.1818883	0.3620695	0.001553405	-0.001089566	0.04688726	-0.03288696	0	0
35.12794	-0.1818629	0.3620516	0.001537136	-0.001079323	-0.0004937326	0.0003108638	0	0
35.14736	-0.1818374	0.3620337	0.001311039	-0.0009195692	-0.006283936	0.004440045	0	0
35.16404	-0.181812	0.3620159	0.001525697	-0.001070132	0.005947109	-0.004171332	0	0
35.18055	-0.181761	0.3619801	0.003084024	-0.002164322	0.04694932	-0.0329658	0	0
35.19706	-0.1817356	0.3619623	0.001541561	-0.001081259	-0.04671298	0.03280022	0	0
35.21363	-0.1817101	0.3619444	0.001536236	-0.001079323	-0.0001609643	5.851872E-05	0	0
35.29664	-0.1812264	0.3615693	0.005827154	-0.004518548	0.04309064	-0.0345377	0	0
35.31696	-0.1811755	0.3615336	0.002506132	-0.001757299	-0.03214036	0.02672296	0	0
35.33352	-0.1811246	0.3614979	0.003074272	-0.002156847	0.01540331	-0.01083247	0	0
35.35018	-0.1810227	0.3614264	0.006115259	-0.004289181	0.09153479	-0.064184	0	0
35.36669	-0.1809718	0.3613907	0.003084024	-0.002164322	-0.09139866	0.06406934	0	0
35.38322	-0.1809463	0.3613729	0.001539973	-0.001079513	-0.04672329	0.03282655	0	0
35.3998	-0.1809209	0.361355	0.001536075	-0.001078578	-0.0001177041	2.822551E-05	0	0
35.41636	-0.1808954	0.3613371	0.001538198	-0.001078269	6.409183E-05	9.32462E-06	0	0
35.43292	-0.1808954	0.3613371	0	0	-0.04644431	0.03255722	0	0
35.44949	-0.180819	0.3612835	0.004610508	-0.003234371	0.1391614	-0.09762476	0	0
35.46626	-0.1805898	0.3610871	0.01367054	-0.01171786	0.2718051	-0.2545086	0	0
35.48277	-0.1793162	0.3601583	0.07714392	-0.05625614	1.907505	-1.338466	0	0
35.49919	-0.1753897	0.3572649	0.2390952	-0.1761868	4.917705	-3.641737	0	0
35.51579	-0.1656266	0.3499785	0.5880836	-0.4388984	10.56778	-7.955212	0	0
35.53232	-0.1574234	0.3420855	0.4962885	-0.4775253	-2.770702	-1.165897	0	0
35.54889	-0.1536735	0.3238705	0.2263439	-1.099456	-8.156333	-18.79154	0	0
35.56545	-0.153288	0.3183874	0.02326931	-0.3309618	-6.128804	23.1932	0	0
35.58202	-0.1517969	0.2948741	0.09000115	-1.419267	2.013971	-32.8451	0	0
