Time	Pos X	Pos Y	Vel X	Vel Y	Acc X	Acc YForce X	Force Y
0.01656634	0.003657878	0.1372538	-5.859016E-05	-0.002198466	9.387185E-07	3.522334E-05	0	0
0.08956309	0.003657878	0.1372538	0	0	-9.39568E-07	-3.525521E-05	0	0
0.106133	0.003631563	0.137272	-0.001588149	0.001098934	-0.01773148	0.01226946	0	0
0.1226981	0.003605247	0.1372902	-0.001588603	0.001099249	-1.371264E-05	9.486072E-06	0	0
0.1395262	0.003578932	0.1373084	-0.001563784	0.001082075	0.0007432398	-0.0005142908	0	0
0.156038	0.003552617	0.1373266	-0.001593731	0.001101894	-0.0008982194	0.0005944634	0	0
0.1725535	0.003526301	0.1373448	-0.001593387	0.001102559	1.040528E-05	2.012322E-05	0	0
0.1889662	0.003526301	0.1373448	0	0	0.04838974	-0.03348373	0	0
0.2552312	0.00347367	0.1373812	-0.0007942494	0.0005493633	-0.009606569	0.006644634	0	0
0.2717979	0.00347367	0.1373812	0	0	0.009588715	-0.006632285	0	0
0.2886307	0.00347367	0.1373812	0	0	0	0	0	0
0.3049314	0.00347367	0.1373812	0	0	0	0	0	0
0.3214981	0.003447355	0.1373994	-0.001588452	0.001099144	-0.04832911	0.03344177	0	0
0.338177	0.003447355	0.1373994	0	0	0.04777938	-0.03306138	0	0
0.3546316	0.00347367	0.1373812	0.001599273	-0.001106631	0.04826758	-0.03339919	0	0
0.3711987	0.00347367	0.1373812	0	0	-0.04843085	0.03351217	0	0
0.3882017	0.003499986	0.137363	0.0015477	-0.001070069	0.04610355	-0.03187567	0	0
0.4043314	0.003526301	0.1373448	0.001631487	-0.001128923	0.002528837	-0.001776303	0	0
0.4208989	0.003526301	0.1373448	0	0	-0.04989675	0.03452652	0	0
0.4374645	0.003552617	0.1373266	0.001588564	-0.001099221	0.04794493	-0.03317594	0	0
0.4540308	0.003578932	0.1373084	0.00158849	-0.001098271	-2.241736E-06	2.869985E-05	0	0
0.4705976	0.003605247	0.1372902	0.001588452	-0.001099144	-1.120829E-06	-2.636934E-05	0	0
0.4871639	0.003631563	0.137272	0.00158849	-0.00109917	1.120829E-06	-7.76499E-07	0	0
0.5037307	0.003657878	0.1372538	0.001588449	-0.001099142	-1.208667E-06	8.362289E-07	0	0
0.5202978	0.003657878	0.1372538	0	0	-0.04794036	0.03317278	0	0
0.5368645	0.003657878	0.1372538	0	0	0	0	0	0
0.5534313	0.003657878	0.1372538	0	0	0	0	0	0
0.570334	0.003684194	0.1372356	0.00155688	-0.001076416	0.04651646	-0.03216116	0	0
0.5865639	0.003684194	0.1372356	0	0	-0.04698926	0.03248805	0	0
0.6031307	0.003684194	0.1372356	0	0	0	0	0	0
0.6196978	0.003684194	0.1372356	0	0	0	0	0	0
0.6362649	0.003684194	0.1372356	0	0	0	0	0	0
0.6528881	0.003684194	0.1372356	0	0	0	0	0	0
0.6693984	0.003684194	0.1372356	0	0	0	0	0	0
0.6859643	0.003684194	0.1372356	0	0	0	0	0	0
0.7025311	0.003684194	0.1372356	0	0	0	0	0	0
0.7218311	0.003684194	0.1372356	0	0	0	0	0	0
0.7383999	0.003684194	0.1372356	0	0	0	0	0	0
0.7549674	0.003684194	0.1372356	0	0	0	0	0	0
0.7715345	0.003657878	0.1372538	-0.001588415	0.001098219	-0.04793821	0.03314414	0	0
0.7881004	0.003657878	0.1372538	0	0	0.04794054	-0.03314575	0	0
0.8046675	0.003657878	0.1372538	0	0	0	0	0	0
0.8212327	0.003657878	0.1372538	0	0	0	0	0	0
0.837799	0.003631563	0.137272	-0.00158849	0.00109917	-0.04794502	0.033176	0	0
0.8543673	0.003631563	0.137272	0	0	0.04794045	-0.03317283	0	0
0.8710438	0.003631563	0.137272	0	0	0	0	0	0
0.8874992	0.003605247	0.1372902	-0.001599197	0.001106579	-0.0482676	0.03339921	0	0
0.9040679	0.003605247	0.1372902	0	0	0.04842511	-0.0335082	0	0
0.9206323	0.003578932	0.1373084	-0.001588678	0.0010993	-0.04794838	0.03317833	0	0
0.9375914	0.003552617	0.1373266	-0.001551698	0.001072833	0.001103108	-0.0007895135	0	0
0.953765	0.003526301	0.1373448	-0.001627068	0.001125865	-0.002274789	0.00160058	0	0
0.9703325	0.003526301	0.1373448	0	0	0.04969501	-0.03438693	0	0
1.179011	0.003657878	0.1372538	0.0006305277	-0.000436228	0.00279929	-0.001936678	0	0
1.195772	0.003657878	0.1372538	0	0	-0.002796884	0.001935013	0	0
1.212146	0.003684194	0.1372356	0.001607173	-0.001111188	0.0485037	-0.03353512	0	0
1.228714	0.003710509	0.1372174	0.001588301	-0.001099039	-0.0005728803	0.0003687845	0	0
1.245306	0.003710509	0.1372174	0	0	-0.04789762	0.0331432	0	0
1.261845	0.003710509	0.1372174	0	0	0	0	0	0
1.278411	0.003736825	0.1371992	0.001588484	-0.001099166	0.04798248	-0.03320192	0	0
1.294978	0.003736825	0.1371992	0	0	-0.04794243	0.03317421	0	0
1.311545	0.003736825	0.1371992	0	0	0	0	0	0
1.328112	0.003736825	0.1371992	0	0	0	0	0	0
1.344679	0.00376314	0.137181	0.001588381	-0.001098195	0.04793778	-0.03314384	0	0
1.361245	0.00376314	0.137181	0	0	-0.04793898	0.03314468	0	0
1.377811	0.00376314	0.137181	0	0	0	0	0	0
1.394378	0.00376314	0.137181	0	0	0	0	0	0
1.410945	0.003736825	0.1371992	-0.001588449	0.001098243	-0.04794088	0.03314599	0	0
1.427511	0.003736825	0.1371992	0	0	0.0479414	-0.03314634	0	0
1.460646	0.003736825	0.1371992	0	0	0	0	0	0
1.477468	0.003710509	0.1372174	-0.001564338	0.001082458	-0.03131382	0.02166788	0	0
1.493778	0.003710509	0.1372174	0	0	0.04721504	-0.03267089	0	0
1.510491	0.003684194	0.1372356	-0.001574536	0.001089515	-0.04767965	0.03299237	0	0
1.526911	0.003657878	0.1372174	-0.001602657	-0.001108973	-0.0008487247	-0.06635338	0	0
1.543478	0.003657878	0.1372174	0	0	0.04858503	0.03361886	0	0
1.560045	0.003631563	0.1372356	-0.001588415	0.001099118	-0.04793933	0.03317206	0	0
1.576612	0.003631563	0.1372356	0	0	0.04793985	-0.03317242	0	0
1.593178	0.003631563	0.1372356	0	0	0	0	0	0
1.610062	0.003631563	0.1372356	0	0	0	0	0	0
1.626312	0.003631563	0.1372356	0	0	0	0	0	0
1.642879	0.003631563	0.1372356	0	0	0	0	0	0
1.659445	0.003605247	0.1372538	-0.001588449	0.001098243	-0.04794088	0.03314599	0	0
1.676011	0.003605247	0.1372538	0	0	0.04794209	-0.03314682	0	0
1.692578	0.003631563	0.1372356	0.001588449	-0.001098243	0.04794209	-0.03314682	0	0
1.709145	0.003631563	0.1372356	0	0	-0.04794088	0.03314599	0	0
1.725712	0.003657878	0.1372174	0.001588415	-0.001099118	0.04793933	-0.03317206	0	0
1.742278	0.003657878	0.1372174	0	0	-0.04793985	0.03317242	0	0
1.758845	0.003684194	0.1371992	0.001588449	-0.001099142	0.0479414	-0.03317349	0	0
1.775411	0.003684194	0.1371992	0	0	-0.0479414	0.03317349	0	0
1.794639	0.003710509	0.137181	0.001368644	-0.000946271	0.03823693	-0.02643674	0	0
1.811207	0.003710509	0.137181	0	0	-0.03823489	0.02643533	0	0
1.827773	0.003736825	0.1371628	0.001588529	-0.001099198	0.04794226	-0.03317409	0	0
1.84434	0.003736825	0.1371628	0	0	-0.0479445	0.03317564	0	0
1.860907	0.003789456	0.1371264	0.00317683	-0.002198237	0.09587866	-0.06634412	0	0
1.877473	0.003815771	0.1371082	0.00158847	-0.001098267	-0.0479382	0.03319813	0	0
1.89404	0.003842086	0.13709	0.001588484	-0.001099166	4.251454E-07	-2.714606E-05	0	0
1.910608	0.003842086	0.13709	0	0	-0.04794071	0.03317301	0	0
1.927292	0.003842086	0.13709	0	0	0	0	0	0
1.94374	0.003868402	0.1370717	0.001599846	-0.001107028	0.04828607	-0.03341199	0	0
1.960312	0.003868402	0.1370717	0	0	-0.0484494	0.03352501	0	0
1.976873	0.003894717	0.1370535	0.001589021	-0.001099538	0.04795882	-0.03318555	0	0
1.99344	0.003894717	0.1370535	0	0	-0.04796728	0.0331914	0	0
2.010006	0.003894717	0.1370535	0	0	0	0	0	0
2.026574	0.003894717	0.1370535	0	0	0	0	0	0
2.04314	0.003894717	0.1370535	0	0	0	0	0	0
2.059706	0.003894717	0.1370535	0	0	0	0	0	0
2.076273	0.003868402	0.1370717	-0.001588404	0.001099111	-0.0479395	0.03317218	0	0
2.092841	0.003868402	0.1370717	0	0	0.04793708	-0.03317051	0	0
2.109409	0.003868402	0.1370717	0	0	0	0	0	0
2.125974	0.003842086	0.13709	-0.001588564	0.001099221	-0.04794537	0.03317624	0	0
2.159107	0.003789456	0.13709	-0.001588477	0	1.752144E-06	-0.02211786	0	0
2.175673	0.00376314	0.1371082	-0.001588495	0.001099174	-3.724423E-07	0.02211659	0	0
2.19224	0.003736825	0.13709	-0.001588495	-0.001099174	0	-0.06635009	0	0
2.208807	0.003684194	0.1370535	-0.003176807	-0.002198221	-0.04793674	-0.03317027	0	0
2.225373	0.003026307	0.1366348	-0.03971244	-0.0252774	-1.102679	-0.6965511	0	0
2.24194	-0.00192105	0.1332472	-0.2986231	-0.2044768	-7.814163	-5.408406	0	0
2.258507	-0.005789409	0.1305683	-0.2335013	-0.1616998	1.965406	1.291031	0	0
2.275073	-0.009131325	0.1283258	-0.2017301	-0.1353675	0.958899	0.7947457	0	0
2.29164	-0.01655112	0.1232172	-0.4478726	-0.3083643	-7.428916	-5.221278	0	0
2.308207	-0.01918186	0.1213914	-0.1587961	-0.1102057	8.724596	5.980611	0	0
2.324774	-0.0216019	0.1197112	-0.1460784	-0.1014242	0.3838323	0.265032	0	0
2.34134	-0.02339047	0.1184689	-0.1079613	-0.07498768	1.150411	0.797879	0	0
2.357907	-0.02365348	0.1182496	-0.01587595	-0.01323513	2.779221	1.863749	0	0
2.374474	-0.02365348	0.1182496	0	0	0.4791509	0.3994485	0	0
2.39104	-0.02362718	0.1182313	0.001587708	-0.001102772	0.0479192	-0.03328316	0	0
2.407606	-0.02360088	0.1182131	0.001587596	-0.001103222	-3.39416E-06	-1.357313E-05	0	0
2.424174	-0.02357458	0.1181948	0.001587504	-0.001102708	-2.758115E-06	1.548761E-05	0	0
2.441152	-0.02354828	0.1181765	0.001549203	-0.001076466	-0.001141771	0.0007822863	0	0
2.457307	-0.02352198	0.1181583	0.001628013	-0.001130846	0.002378569	-0.001641253	0	0
2.473873	-0.02352198	0.1181583	0	0	-0.04975321	0.03455945	0	0
2.49044	-0.02352198	0.1181583	0	0	0	0	0	0
2.507007	-0.02349568	0.11814	0.00158755	-0.00110319	0.04791373	-0.0332953	0	0
2.523574	-0.02349568	0.11814	0	0	-0.04791373	0.0332953	0	0
2.54014	-0.02349568	0.11814	0	0	0	0	0	0
2.556707	-0.02349568	0.11814	0	0	0	0	0	0
2.573273	-0.02349568	0.11814	0	0	0	0	0	0
2.58984	-0.02349568	0.11814	0	0	0	0	0	0
2.606407	-0.02346937	0.1181217	0.001587662	-0.00110274	0.04791713	-0.03328172	0	0
2.624764	-0.02346937	0.1181217	0	0	-0.04546046	0.0315754	0	0
2.641332	-0.02346937	0.1181217	0	0	0	0	0	0
2.657898	-0.02346937	0.1181217	0	0	0	0	0	0
2.674465	-0.02346937	0.1181217	0	0	0	0	0	0
2.691032	-0.02346937	0.1181217	0	0	0	0	0	0
2.707599	-0.02349568	0.11814	-0.001587662	0.00110274	-0.04791713	0.03328172	0	0
2.724388	-0.02349568	0.11814	0	0	0.04759724	-0.03305954	0	0
2.740732	-0.02352198	0.1181583	-0.00160918	0.001118221	-0.04856654	0.03374893	0	0
2.757298	-0.02354828	0.1181765	-0.001587596	0.001102772	0.0006558489	-0.0004694166	0	0
2.773865	-0.02357458	0.1181948	-0.001587662	0.00110319	-2.016791E-06	1.261724E-05	0	0
2.790432	-0.02360088	0.1182131	-0.00158755	0.00110274	3.394063E-06	-1.357274E-05	0	0
2.840132	-0.0242847	0.1186881	-0.01375884	0.00955858	-0.1836704	0.1276025	0	0
2.856945	-0.0248633	0.1190901	-0.03441517	0.02390725	-0.3105628	0.2157287	0	0
2.873265	-0.02615193	0.1200217	-0.07895815	0.05708387	-1.344377	1.001323	0	0
2.889833	-0.02825564	0.1214828	-0.1269744	0.08818543	-1.459975	0.9456691	0	0
2.906399	-0.03012246	0.1228521	-0.1126885	0.08265842	0.4311529	-0.1668068	0	0
2.922967	-0.03369777	0.1253342	-0.2158025	0.14982	-3.112053	2.026985	0	0
2.939532	-0.03829706	0.1286358	-0.2776418	0.1993027	-1.866394	1.493454	0	0
2.956514	-0.04772689	0.1352873	-0.5552813	0.3916771	-8.275979	5.734365	0	0
2.972665	-0.04953839	0.1365802	-0.1121604	0.08005004	13.37399	-9.405329	0	0
2.989232	-0.05455109	0.1402022	-0.302576	0.218634	-5.819957	4.235747	0	0
3.005801	-0.05599404	0.1418941	-0.08708913	0.102114	6.50322	-3.516477	0	0
3.022564	-0.05434119	0.1428945	0.09859715	0.05967331	5.570753	-1.273259	0	0
3.039077	-0.05129706	0.1448946	0.1843564	0.1211304	2.577221	1.846897	0	0
3.0555	-0.04152874	0.1510723	0.5947957	0.3761641	12.46205	7.743515	0	0
3.072099	-0.03464403	0.1549572	0.4147625	0.2340433	-5.45189	-4.303801	0	0
3.088633	-0.02010255	0.1604898	0.8794715	0.3346071	14.02535	3.035108	0	0
3.105621	0.006526223	0.1658542	1.567479	0.3157709	20.5237	-0.5618955	0	0
3.121766	0.03135814	0.1685346	1.538125	0.166031	-0.8859702	-4.519417	0	0
3.138332	0.05848585	0.1706166	1.637479	0.1256737	3.037332	-1.233753	0	0
3.154904	0.1042262	0.1741273	2.760139	0.2118483	33.87778	2.600436	0	0
3.171667	0.1306981	0.1759724	1.579163	0.110067	-35.42752	-3.053288	0	0
3.188032	0.1388636	0.1766235	0.4989792	0.03978572	-32.60659	-2.121521	0	0
3.204711	0.1469076	0.1772745	0.4822673	0.0390309	-0.5057469	-0.02284298	0	0
3.221205	0.1945599	0.1836908	2.889189	0.3890254	72.55698	10.55063	0	0
3.237731	0.2135613	0.1890181	1.149756	0.3223515	-52.67852	-2.019212	0	0
3.254298	0.2253184	0.1923569	0.7096807	0.201537	-13.29805	-3.650733	0	0
3.270865	0.2336531	0.1958926	0.5030707	0.2134097	-6.235549	0.3583207	0	0
3.287749	0.2440868	0.1978401	0.6179904	0.1153497	3.435483	-2.931465	0	0
3.304266	0.2482453	0.1985252	0.2517655	0.04147812	-10.96456	-2.211673	0	0
3.32057	0.2501978	0.1995888	0.1197574	0.0652383	-4.02207	0.7239336	0	0
3.337131	0.2501978	0.1995888	0	0	-3.643914	-1.985036	0	0
3.353818	0.2501731	0.1996068	-0.001480611	0.001079649	-0.0445324	0.03247266	0	0
3.370266	0.2501731	0.1996068	0	0	0.04468493	-0.03258388	0	0
3.386832	0.2500743	0.1996789	-0.005963432	0.004352496	-0.1806292	0.1318348	0	0
3.403399	0.2500249	0.1996789	-0.002982701	0	0.08996251	-0.1313642	0	0
3.419966	0.2500002	0.199697	-0.001491308	0.001088349	0.04501228	0.03284785	0	0
3.436861	0.2498272	0.1997871	-0.01023601	0.005334086	-0.2613302	0.1268813	0	0
3.457339	0.2498272	0.1997871	0	0	0.2738874	-0.1427254	0	0
3.473907	0.2497778	0.1998231	-0.0029833	0.002175641	-0.08053075	0.05872893	0	0
3.490473	0.2497531	0.1998412	-0.001491308	0.001088349	0.04502809	-0.03281432	0	0
3.50704	0.2497037	0.1998412	-0.002982615	0	-0.04500905	-0.03284737	0	0
3.523606	0.249679	0.1998592	-0.00149135	0.00108838	0.0450084	0.03284879	0	0
3.540174	0.249679	0.1998592	0	0	0.04501034	-0.03284832	0	0
3.55674	0.249679	0.1998592	0	0	0	0	0	0
3.573452	0.249679	0.1998592	0	0	0	0	0	0
3.589873	0.2497037	0.1998412	0.001504472	-0.001097956	0.04540635	-0.03313733	0	0
3.60644	0.249679	0.1998592	-0.001491308	0.001088349	-0.09081271	0.06627465	0	0
3.623007	0.249679	0.1998592	0	0	0.0450084	-0.0328469	0	0
3.639574	0.249679	0.1998592	0	0	0	0	0	0
3.65614	0.2496049	0.1999133	-0.004475016	0.003264288	-0.135065	0.09852278	0	0
3.672706	0.2493825	0.2001116	-0.01342447	0.01196824	-0.2701086	0.262699	0	0
3.689274	0.2477507	0.2014813	-0.09848951	0.08267675	-2.567286	2.134002	0	0
3.706045	0.2444089	0.2045263	-0.1992574	0.1815613	-3.022542	2.966052	0	0
3.722408	0.2381312	0.2095148	-0.3836642	0.3048667	-5.565489	3.721416	0	0
3.738974	0.228042	0.2182417	-0.6090267	0.5267988	-6.843951	6.739779	0	0
3.755581	0.2242681	0.2279301	-0.2272426	0.5833821	11.50877	1.705685	0	0
3.772107	0.224168	0.2317021	-0.006054786	0.2282452	6.675703	-10.71844	0	0
3.838376	0.226968	0.2836993	0.042251	0.7846391	0.5834391	6.720147	0	0
3.855153	0.2261684	0.2872401	-0.04766172	0.211056	-1.082689	-6.906836	0	0
3.871507	0.2250934	0.2879733	-0.06572819	0.04482834	-0.545302	-5.017265	0	0
3.888074	0.2251934	0.287866	0.006037014	-0.006475938	2.179885	-1.55838	0	0
3.904642	0.2252184	0.2878481	0.001509253	-0.001079323	-0.1366481	0.1628702	0	0
3.92121	0.2252434	0.2878302	0.001509188	-0.001079276	-1.967474E-06	1.405338E-06	0	0
3.937778	0.2252934	0.2877944	0.00301739	-0.002158491	0.045515	-0.03256888	0	0
3.954341	0.2252934	0.2877944	0	0	-0.09107288	0.065149	0	0
3.970908	0.2253184	0.2877766	0.001509297	-0.001079354	0.0455569	-0.03257943	0	0
3.987477	0.2253685	0.287705	0.003018246	-0.004316919	0.04553887	-0.09770711	0	0
4.004041	0.2253935	0.2876514	0.001509536	-0.003238575	-0.04553527	0.03254614	0	0
4.020607	0.2254435	0.2875799	0.003017781	-0.004317541	0.0455245	-0.03256723	0	0
4.037175	0.2254435	0.2875441	0	-0.002158522	-0.09107681	0.06515931	0	0
4.053741	0.2254185	0.2874905	-0.001508528	-0.003238342	-0.04552877	-0.03258997	0	0
4.070326	0.2254185	0.2874189	0	-0.004312575	0.04550519	-0.03240457	0	0
4.086874	0.2254185	0.2873832	0	-0.002161072	0	0.06493343	0	0
4.103441	0.2254435	0.2873653	0.001508397	-0.001079354	0.04554974	0.03266511	0	0
4.120008	0.2254935	0.2873295	0.00301868	-0.00215877	0.0455824	-0.03257825	0	0
4.136576	0.2254935	0.2872938	0	-0.002158522	-0.09110396	7.497641E-06	0	0
4.153363	0.2254935	0.2872222	0	-0.004260637	0	-0.06302115	0	0
4.169877	0.2254685	0.2871686	-0.001514178	-0.003248535	-0.04546962	0.03039267	0	0
4.186389	0.2254435	0.2871507	-0.001514266	-0.001082907	-2.650791E-06	0.06557392	0	0
4.20284	0.2254185	0.2870971	-0.001518978	-0.003260775	-0.0001429492	-0.06606856	0	0
4.269106	0.2253184	0.2869898	-0.001509329	-0.001619066	0.000116642	0.01984731	0	0
4.285672	0.2252934	0.2869719	-0.00150934	-0.001079385	-1.30706E-07	0.006515379	0	0
4.302466	0.2252434	0.2869361	-0.002976909	-0.002129532	-0.04399186	-0.03147923	0	0
4.318808	0.2252184	0.2869183	-0.001530084	-0.00109422	0.04366401	0.0312449	0	0
4.335372	0.2251184	0.2868467	-0.006037883	-0.004317914	-0.136988	-0.09796517	0	0
4.355205	0.2249934	0.2867573	-0.006304548	-0.004508079	-0.007326477	-0.005224675	0	0
4.371774	0.2249684	0.2867394	-0.001509123	-0.00107923	0.1317378	0.09419585	0	0
4.388344	0.2246183	0.2864891	-0.0211295	-0.01510791	-0.5920674	-0.4233317	0	0
4.405042	0.224118	0.2860957	-0.02995874	-0.02356043	-0.2653938	-0.2540699	0	0
4.421554	0.2224163	0.2848796	-0.1030615	-0.07364705	-2.201208	-1.508166	0	0
4.438062	0.2216901	0.284361	-0.0439865	-0.03141609	1.789065	1.27895	0	0
4.454606	0.2216651	0.2843431	-0.001514087	-0.001080847	1.285019	0.9178044	0	0
4.471173	0.2216651	0.2843431	0	0	0.04572814	0.03264353	0	0
4.48774	0.22164	0.284361	-0.001511995	0.001079354	-0.04563342	0.03257591	0	0
4.504306	0.2213395	0.2841464	-0.01814177	-0.01295622	-0.5019092	-0.4236127	0	0
4.520873	0.2209637	0.2838781	-0.02268017	-0.01619164	-0.1369734	-0.09764813	0	0
4.53744	0.2174538	0.2814814	-0.2118691	-0.1446694	-5.709816	-3.877523	0	0
4.554006	0.205883	0.2732872	-0.6984758	-0.4946461	-14.68667	-10.56292	0	0
4.570573	0.1947626	0.2654826	-0.6712256	-0.4710885	0.8224491	0.7109997	0	0
4.58717	0.1787046	0.2543049	-0.9675065	-0.6734619	-8.933677	-6.102107	0	0
4.603707	0.166804	0.2460585	-0.7196502	-0.4986745	7.480426	5.275169	0	0
4.620695	0.1628861	0.2433502	-0.2306295	-0.1594245	14.58696	10.11946	0	0
4.636841	0.1512569	0.2354367	-0.720246	-0.4901195	-14.77687	-9.980541	0	0
4.686539	0.1102095	0.2081644	-0.8259301	-0.5487563	-1.605054	-0.8905333	0	0
4.703107	0.09797478	0.1999854	-0.7384686	-0.4936726	1.319852	0.83125	0	0
4.719673	0.0881917	0.1940167	-0.590542	-0.360288	4.4645	4.025615	0	0
4.736241	0.07567102	0.1898124	-0.7557275	-0.2537694	-4.98538	3.214783	0	0
4.752806	0.05617767	0.1863098	-1.176757	-0.2114376	-12.70724	1.277631	0	0
4.769373	0.04150247	0.1838353	-0.8858221	-0.1493655	8.78106	1.873475	0	0
4.802506	0.009999666	0.1794983	-0.9507976	-0.1308974	-1.30736	0.3715934	0	0
4.819072	0.002763151	0.1774915	-0.4368221	-0.1211394	10.34171	0.1963408	0	0
4.835639	-0.007157772	0.1745434	-0.5988454	-0.1779504	-4.890084	-1.714634	0	0
4.852355	-0.01723514	0.1695304	-0.6028744	-0.2998993	-0.1210565	-3.664078	0	0
4.868772	-0.02186494	0.1663795	-0.2820039	-0.1919275	9.684309	3.258737	0	0
4.885376	-0.02504739	0.1642236	-0.1916631	-0.129838	2.735781	1.880249	0	0
4.901905	-0.02717752	0.1627557	-0.128875	-0.08880867	1.89503	1.238321	0	0
4.918472	-0.0279401	0.1622301	-0.04603074	-0.03172762	2.5032	1.724745	0	0
4.935413	-0.0279138	0.1622482	0.001552253	0.001070459	1.420056	0.9788184	0	0
4.951923	-0.0279138	0.1622482	0	0	-0.04640367	-0.03200072	0	0
4.968172	-0.0279138	0.1622482	0	0	0	0	0	0
4.984739	-0.0278875	0.1622663	0.001587213	0.001093745	0.04836714	0.03332971	0	0
5.001458	-0.02786121	0.1622482	0.001572727	-0.001083764	-0.0004351835	-0.06541798	0	0
5.01797	-0.02786121	0.1622482	0	0	-0.04732674	0.03261277	0	0
5.034439	-0.02783491	0.1622301	0.001596634	-0.001101142	0.04841083	-0.03338725	0	0
5.051006	-0.02780862	0.162212	0.001587213	-0.001093745	-0.0002851731	0.0002239028	0	0
5.067573	-0.02775603	0.1621757	0.003174538	-0.00218839	0.04790695	-0.0330374	0	0
5.084518	-0.02772973	0.1621576	0.00155175	-0.001069308	-0.04842392	0.03339336	0	0
5.100706	-0.02770344	0.1621394	0.00162445	-0.001120247	0.002194146	-0.001537373	0	0
5.117273	-0.02765085	0.1621032	0.003174425	-0.00218839	0.04732043	-0.0326102	0	0
5.133839	-0.02757196	0.1620488	0.004762137	-0.003282325	0.04792	-0.03301691	0	0
5.150405	-0.02749307	0.1619944	0.00476175	-0.003282136	-1.167929E-05	5.699098E-06	0	0
5.166973	-0.02738789	0.1619219	0.00634871	-0.004376529	0.04789454	-0.03302884	0	0
5.183539	-0.0272827	0.1618132	0.006349371	-0.00656536	1.994247E-05	-0.06606002	0	0
5.200106	-0.02715122	0.1617225	0.007936629	-0.005470684	0.04790632	0.03303931	0	0
5.223572	-0.02704603	0.16165	0.004482429	-0.003089885	-0.08628413	0.05947112	0	0
5.24014	-0.02704603	0.16165	0	0	-0.1119647	0.07718094	0	0
5.256707	-0.02701974	0.1616319	0.001587167	-0.001094613	0.04790011	-0.03303503	0	0
5.273274	-0.02701974	0.1615956	0	-0.00218839	-0.04790149	-0.03301073	0	0
5.289841	-0.02704603	0.1615775	-0.001587213	-0.001094645	-0.04790355	0.03301025	0	0
5.306409	-0.02707233	0.1615594	-0.001587142	-0.00109362	2.118532E-06	3.094532E-05	0	0
5.322974	-0.02707233	0.1615594	0	0	0.04790212	0.03300693	0	0
5.33954	-0.02712492	0.1615956	-0.00317465	0.00218839	-0.09582078	0.06605241	0	0
5.356107	-0.02712492	0.1615956	0	0	0.09581389	-0.06604765	0	0
5.372674	-0.02712492	0.1615956	0	0	0	0	0	0
5.389241	-0.02712492	0.1615956	0	0	0	0	0	0
5.405808	-0.02715122	0.1616138	-0.001587279	0.001094613	-0.04790488	0.03303597	0	0
5.422374	-0.02715122	0.1616138	0	0	0.04790557	-0.03303645	0	0
5.438941	-0.02715122	0.1616138	0	0	0	0	0	0
5.455507	-0.02715122	0.1616138	0	0	0	0	0	0
5.488804	-0.02715122	0.1616138	0	0	0	0	0	0
5.505207	-0.02715122	0.1616138	0	0	0	0	0	0
5.521773	-0.02715122	0.1616138	0	0	0	0	0	0
5.53834	-0.02715122	0.1616138	0	0	0	0	0	0
5.554907	-0.02715122	0.1616138	0	0	0	0	0	0
5.571475	-0.02712492	0.1615956	0.001587279	-0.001094613	0.04790419	-0.0330355	0	0
5.588375	-0.02709863	0.1615775	0.001556019	-0.001073056	-0.000934052	0.0006441346	0	0
5.60461	-0.02701974	0.1615231	0.004859064	-0.003349132	0.09968321	-0.06869014	0	0
5.621175	-0.02691455	0.1614506	0.006350032	-0.004377285	0.04545606	-0.03134594	0	0
5.637742	-0.02657269	0.1612149	0.02063534	-0.01422589	0.4311687	-0.2972571	0	0
5.654424	-0.02507369	0.1601815	0.08985391	-0.06194621	2.081801	-1.435224	0	0
5.670934	-0.02275923	0.1585857	0.1401896	-0.09666082	1.516494	-1.045868	0	0
5.687444	-0.02010255	0.1567899	0.1609082	-0.1087671	0.627454	-0.366636	0	0
5.704009	-0.01691944	0.1545943	0.1921665	-0.1325503	0.9450793	-0.7190697	0	0
5.720576	-0.01584078	0.1538501	0.06510791	-0.04491693	-3.834968	2.645008	0	0
5.737142	-0.01586709	0.1538683	-0.001588204	0.001095608	-2.01298	1.388721	0	0
5.753709	-0.01584078	0.1538501	0.001588066	-0.001095513	0.09586416	-0.066131	0	0
5.770275	-0.01584078	0.1538501	0	0	-0.04792932	0.03306359	0	0
5.786841	-0.01584078	0.1538501	0	0	0	0	0	0
5.803529	-0.01584078	0.1538501	0	0	0	0	0	0
5.819975	-0.01584078	0.1538501	0	0	0	0	0	0
5.836553	-0.01584078	0.1538501	0	0	0	0	0	0
5.853108	-0.01584078	0.1538501	0	0	0	0	0	0
5.869675	-0.01586709	0.1538683	-0.001588158	0.001095576	-0.04794864	0.03307692	0	0
5.886242	-0.0158934	0.1538864	-0.001587908	0.001095481	7.529371E-06	-2.856453E-06	0	0
5.902808	-0.0158934	0.1538864	0	0	0.04792455	-0.03306264	0	0
5.919374	-0.01597233	0.1539046	-0.004764636	0.001095639	-0.1438115	0.03306979	0	0
5.935947	-0.01602494	0.1539409	-0.003174741	0.002190143	0.0479762	0.03302745	0	0
5.952508	-0.01613018	0.1540135	-0.006354602	0.004383818	-0.09596837	0.06620524	0	0
5.969147	-0.01620911	0.1540679	-0.004743607	0.003273306	0.04852493	-0.03344985	0	0
5.985641	-0.01631434	0.1541405	-0.006379952	0.004401307	-0.04938641	0.03404409	0	0
6.002209	-0.01641958	0.1542131	-0.006351929	0.004382052	0.0008476049	-0.0005823938	0	0
6.018775	-0.01652481	0.1542857	-0.006352589	0.00438243	-1.994304E-05	1.142614E-05	0	0
6.035692	-0.01660374	0.1543402	-0.004665282	0.003218453	0.05039221	-0.0347627	0	0
6.055822	-0.01663005	0.1543583	-0.001306895	0.0009016132	0.09064994	-0.0625364	0	0
6.072391	-0.01665635	0.1543765	-0.001587863	0.00109545	-0.007656141	0.005281891	0	0
6.088957	-0.01668266	0.1543946	-0.001588046	0.001095576	-5.519585E-06	3.808549E-06	0	0
6.105524	-0.01670897	0.1544128	-0.001588112	0.001095544	-2.013277E-06	-9.521783E-07	0	0
6.17179	-0.01673528	0.1544309	-0.0003970028	0.0002738881	0.0143796	-0.009919398	0	0
6.188356	-0.01676159	0.1544491	-0.001588046	0.001095576	-0.01437888	0.009919835	0	0
6.204924	-0.01676159	0.1544491	0	0	0.04792869	-0.0330655	0	0
6.22149	-0.01676159	0.1544491	0	0	0	0	0	0
6.238057	-0.01676159	0.1544491	0	0	0	0	0	0
6.254623	-0.01676159	0.1544491	0	0	0	0	0	0
6.271191	-0.01673528	0.1544309	0.001587954	-0.001095513	0.04792593	-0.03306359	0	0
6.287761	-0.01673528	0.1544309	0	0	-0.04792041	0.03305979	0	0
6.304381	-0.01668266	0.1544309	0.003165815	0	0.09538252	0	0	0
6.320893	-0.01668266	0.1544309	0	0	-0.09554999	0	0	0
6.337457	-0.01668266	0.1544309	0	0	0	0	0	0
6.354025	-0.01668266	0.1544309	0	0	0	0	0	0
6.370929	-0.01665635	0.1544128	0.001556329	-0.001073695	0.04649703	-0.03207782	0	0
6.403952	-0.01663005	0.1543946	0.0007966483	-0.0005495993	-0.01521576	0.0104972	0	0
6.465372	-0.01660374	0.1544128	0.0004283331	0.0002955025	-0.003899873	0.008948289	0	0
6.481939	-0.01660374	0.1544128	0	0	-0.005492352	-0.003789116	0	0
6.498516	-0.01660374	0.1544128	0	0	0	0	0	0
6.515072	-0.01660374	0.1544128	0	0	0	0	0	0
6.53164	-0.01663005	0.1543946	-0.001587954	-0.001095513	-0.04794041	-0.03307359	0	0
6.548206	-0.01660374	0.1543765	0.001588046	-0.001095576	0.09585462	-1.904329E-06	0	0
6.564772	-0.01663005	0.1543946	-0.001588046	0.001095576	-0.09586013	0.0661329	0	0
6.581339	-0.01663005	0.1543946	0	0	0.04792938	-0.03306597	0	0
6.598089	-0.01665635	0.1544128	-0.001570595	0.001083537	-0.04714084	0.03252197	0	0
6.614472	-0.01665635	0.1544128	0	0	0.04740203	-0.03270216	0	0
6.631039	-0.01668266	0.1544309	-0.001588	0.001095544	-0.04819434	0.03324877	0	0
6.652347	-0.01668266	0.1544309	0	0	0.04192772	-0.0289255	0	0
6.668914	-0.01668266	0.1544309	0	0	0	0	0	0
6.685482	-0.01670897	0.1544491	-0.001588021	0.001095481	-0.04792587	0.03306122	0	0
6.702163	-0.01670897	0.1544491	0	0	0.0477616	-0.03294789	0	0
6.718615	-0.01670897	0.1544491	0	0	0	0	0	0
6.735185	-0.01673528	0.1544672	-0.001587726	0.001095355	-0.04808164	0.03317102	0	0
6.768315	-0.0167879	0.1545035	-0.00158816	0.001095655	-8.734701E-06	6.02692E-06	0	0
6.801448	-0.01697205	0.1546306	-0.005558055	0.003834405	-0.05991059	0.0413311	0	0
6.818016	-0.01707729	0.1547032	-0.006351929	0.004382052	-0.01597307	0.01101887	0	0
6.834755	-0.0171036	0.1547213	-0.00157158	0.001084216	0.1435235	-0.09901305	0	0
6.851148	-0.0171299	0.1547395	-0.00160486	0.001106267	-0.001004461	0.0006655295	0	0
6.867715	-0.01715621	0.1547576	-0.001588	0.001095544	0.0005115435	-0.0003253289	0	0
6.884289	-0.01715621	0.1547576	0	0	0.04791627	-0.03305694	0	0
6.900848	-0.0171299	0.1547395	0.001588731	-0.001096049	0.04794939	-0.03307978	0	0
6.917416	-0.0171299	0.1547395	0	0	-0.04795974	0.03308693	0	0
6.933982	-0.0171036	0.1547213	0.001588	-0.001094645	0.04792662	-0.03303693	0	0
6.985283	-0.01705098	0.154685	0.001025643	-0.0007075801	-0.008286132	0.005703263	0	0
7.001873	-0.01705098	0.154685	0	0	-0.01510717	0.01042228	0	0
7.018417	-0.01699836	0.154685	0.003180506	0	0.09598786	0	0	0
7.034984	-0.01699836	0.154685	0	0	-0.09605698	0	0	0
7.051551	-0.01697205	0.1546669	0.001588	-0.001095544	0.04792731	-0.03306455	0	0
7.068118	-0.01697205	0.1546669	0	0	-0.04792731	0.03306455	0	0
7.087537	-0.01694575	0.1546487	0.001354709	-0.0009345995	0.037645	-0.02597089	0	0
7.104105	-0.01694575	0.1546487	0	0	-0.0376445	0.02597055	0	0
7.120672	-0.01694575	0.1546487	0	0	0	0	0	0
7.137473	-0.01694575	0.1546487	0	0	0	0	0	0
7.153981	-0.01694575	0.1546487	0	0	0	0	0	0
7.170496	-0.01694575	0.1546124	0	-0.002197985	0	-0.0665604	0	0
7.186939	-0.01694575	0.1546124	0	0	0	0.06669041	0	0
7.203506	-0.01694575	0.1546124	0	0	0	0	0	0
7.253206	-0.01699836	0.1546487	-0.001058667	0.000730363	-0.01597577	0.01102152	0	0
7.286338	-0.01699836	0.1546487	0	0	0.01278076	-0.008817314	0	0
7.302905	-0.01699836	0.1546487	0	0	0	0	0	0
7.319473	-0.01699836	0.1546487	0	0	0	0	0	0
7.336115	-0.01702467	0.1546669	-0.001580877	0.001090554	-0.04760205	0.03283783	0	0
7.352625	-0.01702467	0.1546669	0	0	0.0476849	-0.03289498	0	0
7.369179	-0.01702467	0.1546669	0	0	0	0	0	0
7.385741	-0.01702467	0.1546669	0	0	0	0	0	0
7.402305	-0.01702467	0.1546669	0	0	0	0	0	0
7.418872	-0.01702467	0.1546669	0	0	0	0	0	0
7.43544	-0.01702467	0.1546669	0	0	0	0	0	0
7.452193	-0.01702467	0.1546669	0	0	0	0	0	0
7.468705	-0.01702467	0.1546669	0	0	0	0	0	0
7.485219	-0.01702467	0.1546669	0	0	0	0	0	0
7.501705	-0.01702467	0.1546669	0	0	0	0	0	0
7.518741	-0.01702467	0.1546669	0	0	0	0	0	0
7.534838	-0.01702467	0.1546669	0	0	0	0	0	0
7.551764	-0.01702467	0.1546669	0	0	0	0	0	0
7.567971	-0.01702467	0.1546669	0	0	0	0	0	0
7.584538	-0.01702467	0.1546669	0	0	0	0	0	0
7.601104	-0.01702467	0.1546669	0	0	0	0	0	0
7.617808	-0.01702467	0.1546669	0	0	0	0	0	0
7.63432	-0.01699836	0.1546487	0.00159334	-0.001099151	0.04796906	-0.03309101	0	0
7.650832	-0.01697205	0.1546306	0.001593319	-0.001099215	-6.310092E-07	-1.924754E-06	0	0
7.667372	-0.01697205	0.1546306	0	0	-0.04820719	0.03325764	0	0
7.700504	-0.01694575	0.1546124	0.0007940228	-0.000547788	0.01598512	-0.01102797	0	0
7.73389	-0.01691944	0.1545943	0.0007880008	-0.0005436335	-9.053132E-05	6.245582E-05	0	0
7.750401	-0.01691944	0.1545943	0	0	-0.01579249	0.01089507	0	0
7.766913	-0.01691944	0.1545943	0	0	0	0	0	0
7.783425	-0.01691944	0.1545943	0	0	0	0	0	0
7.799904	-0.01691944	0.1545943	0	0	0	0	0	0
7.816472	-0.01691944	0.1545943	0	0	0	0	0	0
7.833038	-0.01694575	0.1546124	-0.001588046	0.001095576	-0.04792869	0.0330655	0	0
7.849973	-0.01697205	0.1546306	-0.001553481	0.00107173	0.001031741	-0.0007117876	0	0
7.866171	-0.01697205	0.1546306	0	0	0.0468855	-0.03234582	0	0
7.882738	-0.01699836	0.1546487	-0.001588	0.001095544	-0.04846577	0.03343603	0	0
7.899514	-0.01699836	0.1546487	0	0	0.04762709	-0.03285743	0	0
7.915871	-0.01702467	0.1546669	-0.001608436	0.001109564	-0.04854478	0.03348817	0	0
7.932439	-0.01702467	0.1546669	0	0	0.0488506	-0.03369914	0	0
7.949007	-0.01702467	0.1546669	0	0	0	0	0	0
7.965571	-0.01702467	0.1546669	0	0	0	0	0	0
7.986654	-0.01702467	0.1546669	0	0	0	0	0	0
8.003222	-0.01702467	0.1546669	0	0	0	0	0	0
8.019789	-0.01702467	0.1546669	0	0	0	0	0	0
8.036356	-0.01702467	0.1546669	0	0	0	0	0	0
8.052922	-0.01702467	0.1546669	0	0	0	0	0	0
8.06949	-0.01702467	0.1546669	0	0	0	0	0	0
8.136178	-0.01694575	0.1546124	0.001183517	-0.0008164765	0.01421543	-0.009806845	0	0
8.168889	-0.01691944	0.1545943	0.0008042547	-0.0005548469	-0.003815565	0.002632125	0	0
8.185457	-0.01689313	0.1545761	0.001587863	-0.00109545	0.01590139	-0.0109702	0	0
8.202023	-0.01689313	0.1545761	0	0	-0.04792317	0.03306169	0	0
8.218736	-0.01686682	0.154558	0.001574091	-0.001085949	0.04730058	-0.03263217	0	0
8.235155	-0.01686682	0.154558	0	0	-0.04750888	0.03277588	0	0
8.251721	-0.01686682	0.154558	0	0	0	0	0	0
8.268289	-0.01686682	0.154558	0	0	0	0	0	0
8.284856	-0.01684051	0.1545398	0.001587954	-0.001095513	0.04792455	-0.03306264	0	0
8.301421	-0.01684051	0.1545398	0	0	-0.04792731	0.03306455	0	0
8.317988	-0.01686682	0.154558	-0.001587954	0.001095513	-0.04792731	0.03306455	0	0
8.334554	-0.01686682	0.154558	0	0	0.04792731	-0.03306455	0	0
8.351328	-0.01686682	0.154558	0	0	0	0	0	0
8.367687	-0.01686682	0.154558	0	0	0	0	0	0
8.38435	-0.01689313	0.1545761	-0.001578865	0.001089243	-0.04781264	0.03298544	0	0
8.400849	-0.01691944	0.1545943	-0.001594471	0.001100009	-0.0004705743	0.0003246467	0	0
8.417388	-0.01691944	0.1545943	0	0	0.04826152	-0.03329512	0	0
8.434388	-0.01691944	0.1545943	0	0	0	0	0	0
8.450521	-0.01691944	0.1545943	0	0	0	0	0	0
8.467088	-0.01691944	0.1545943	0	0	0	0	0	0
8.483922	-0.01694575	0.1546124	-0.001562766	0.001078136	-0.04678864	0.03227899	0	0
8.500221	-0.01694575	0.1546124	0	0	0.04716571	-0.03253913	0	0
8.516945	-0.01694575	0.1546124	0	0	0	0	0	0
8.533355	-0.01694575	0.1546124	0	0	0	0	0	0
8.549921	-0.01694575	0.1546124	0	0	0	0	0	0
8.566487	-0.01694575	0.1546124	0	0	0	0	0	0
8.600002	-0.01689313	0.1545761	0.001569925	-0.001083075	0.03134756	-0.02162635	0	0
8.616187	-0.01689313	0.1545761	0	0	-0.03158817	0.02179234	0	0
8.632754	-0.01689313	0.1545761	0	0	0	0	0	0
8.649321	-0.01686682	0.154558	0.001588046	-0.001095576	0.04792869	-0.0330655	0	0
8.665887	-0.01686682	0.154558	0	0	-0.04793007	0.03306645	0	0
8.682453	-0.01684051	0.1545398	0.001588046	-0.001095576	0.04793007	-0.03306645	0	0
8.699019	-0.0168142	0.1545217	0.001588158	-0.001095576	3.390647E-06	0	0	0
8.715586	-0.0167879	0.1545035	0.001588046	-0.001095576	-3.390647E-06	0	0	0
8.732152	-0.01676159	0.1544854	0.001588046	-0.001095576	0	0	0	0
8.748718	-0.01676159	0.1544854	0	0	-0.04793007	0.03306645	0	0
8.765285	-0.01676159	0.1544854	0	0	0	0	0	0
8.781851	-0.01676159	0.1544854	0	0	0	0	0	0
8.848173	-0.01676159	0.1544854	0	0	0	0	0	0
8.864683	-0.01676159	0.1544854	0	0	0	0	0	0
8.881249	-0.01676159	0.1544854	0	0	0	0	0	0
8.897816	-0.01676159	0.1544854	0	0	0	0	0	0
8.91844	-0.01676159	0.1544491	0	-0.001760034	0	-0.04732491	0	0
8.935006	-0.01676159	0.1544491	0	0	0	0.04732491	0	0
8.951748	-0.0168142	0.1544128	-0.003142801	-0.002168186	-0.09435566	-0.06509499	0	0
8.968261	-0.01684051	0.1543946	-0.001593294	-0.001099119	0.04659523	0.0321479	0	0
8.984773	-0.01684051	0.1543946	0	0	0.04824541	0.03328165	0	0
9.001282	-0.01686682	0.1544128	-0.00159355	0.001099373	-0.04825871	0.03329318	0	0
9.017839	-0.01684051	0.1544309	0.001588869	0.001096144	0.09624224	-9.766188E-05	0	0
9.034805	-0.01652481	0.1546487	0.01860804	0.01283727	0.5076781	0.350235	0	0
9.050972	-0.01313082	0.1570257	0.2099371	0.1470309	5.774656	4.050207	0	0
9.06783	-0.001105263	0.1652744	0.7133402	0.4893019	15.24319	10.36406	0	0
9.084338	0.01165737	0.174055	0.7731131	0.5318909	1.791419	1.276409	0	0
9.10085	0.02694085	0.1844856	0.9256032	0.631707	4.61811	3.022898	0	0
9.117238	0.0444444	0.1963615	1.068075	0.7246694	4.330469	2.825617	0	0
9.133873	0.07030499	0.2139063	1.554595	1.0547	14.73281	9.993984	0	0
9.150372	0.08931439	0.2266186	1.152185	0.770504	-12.1451	-8.577286	0	0
9.166938	0.1131722	0.2415563	1.440146	0.9016959	8.708979	3.967716	0	0
9.183504	0.133465	0.2491426	1.224944	0.4579391	-6.495168	-13.39338	0	0
9.20007	0.148195	0.2523514	0.8891543	0.1936921	-10.13475	-7.97545	0	0
9.216931	0.1843054	0.2550934	2.141661	0.1626255	37.46964	-0.9293792	0	0
9.233203	0.1956996	0.2551113	0.7002513	0.001100765	-43.50433	-4.875107	0	0
9.249769	0.2116504	0.2537494	0.962844	-0.08221317	7.996642	-2.53713	0	0
9.266335	0.2186327	0.2524231	0.4214792	-0.080058	-16.33936	0.0650469	0	0
9.282974	0.220187	0.2518137	0.09341326	-0.036627	-9.880008	1.307964	0	0
9.299469	0.2223161	0.2503976	0.1290788	-0.08585258	1.076419	-1.485674	0	0
9.316035	0.222266	0.2503976	-0.003023178	0	-3.995701	2.596791	0	0
9.332603	0.222241	0.2503797	-0.001511052	-0.001081122	0.04563736	-0.03262927	0	0
9.349169	0.2221409	0.2503797	-0.006045457	0	-0.1368525	0.03262927	0	0
9.365735	0.2220908	0.2503797	-0.003023178	0	0.09121779	0	0	0
9.382301	0.2217652	0.2503617	-0.01965021	-0.001082983	-0.5018337	-0.03268638	0	0
9.398868	0.22159	0.2503438	-0.01058157	-0.001081184	0.2737077	5.429603E-05	0	0
9.415434	0.2211642	0.2502183	-0.02570286	-0.007575485	-0.4563876	-0.1960097	0	0
9.432079	0.2208134	0.2501466	-0.02106967	-0.004307752	0.1395048	0.09839099	0	0
9.44859	0.2203875	0.2499135	-0.02579799	-0.01411512	-0.1426067	-0.295791	0	0
9.465134	0.2178552	0.2481386	-0.1530713	-0.1072898	-3.850425	-2.818833	0	0
9.481701	0.2148177	0.2459688	-0.1833428	-0.1309669	-0.9142535	-0.7150894	0	0
9.498267	0.2089069	0.2417178	-0.3567935	-0.2566103	-5.234901	-3.792037	0	0
9.514833	0.2007081	0.2358496	-0.4949098	-0.3542263	-4.168599	-2.946226	0	0
9.531401	0.1904528	0.2285409	-0.6190106	-0.4411499	-3.745478	-2.623435	0	0
9.547967	0.1749304	0.2172885	-0.9369909	-0.6792382	-9.59694	-7.185725	0	0
9.564673	0.1707423	0.2142662	-0.2506895	-0.1809041	20.62654	14.97725	0	0
9.5811	0.1451045	0.194612	-1.560703	-1.196453	-39.53743	-30.65021	0	0
9.597695	0.1370822	0.186978	-0.4834214	-0.4600247	32.62322	22.3012	0	0
9.614233	0.1287315	0.1669953	-0.5049495	-1.208312	-0.6497557	-22.58466	0	0
9.6308	0.1275408	0.1549935	-0.07187482	-0.7244272	13.08189	14.61672	0	0
9.647367	0.1268158	0.1294198	-0.04376277	-1.543721	0.8484477	-24.72706	0	0
9.663935	0.1267381	0.1041412	-0.004688489	-1.525731	1.179264	0.5429426	0	0
9.680756	0.1267122	0.08686399	-0.001539645	-1.027129	0.09430759	14.93308	0	0
9.697066	0.1271265	0.06643248	0.02540125	-1.252645	0.8131479	-6.806655	0	0
9.713777	0.1271783	0.05754983	0.003098783	-0.5315681	-0.675403	21.83693	0	0
9.730289	0.1276702	0.04164049	0.02979255	-0.9635068	0.8034918	-13.00151	0	0
9.746767	0.1282138	0.03174936	0.03298983	-0.6002432	0.09691544	11.01117	0	0
9.767897	0.1276961	0.01806988	-0.0245031	-0.6474079	-1.528736	-1.254111	0	0
9.784829	0.1278773	0.01265449	0.01070209	-0.3198223	0.9249409	8.606612	0	0
9.801035	0.1319396	0.002155469	0.2506666	-0.6478565	7.241311	-9.898952	0	0
9.817855	0.1327928	-0.001627673	0.05073053	-0.2249199	-6.053948	12.80627	0	0
9.834165	0.1346797	-0.006659726	0.1156919	-0.3085306	1.960819	-2.523741	0	0
9.850731	0.133284	-0.01375923	-0.08424961	-0.4285515	-6.081683	-3.650714	0	0
9.867297	0.1322499	-0.01845046	-0.06242714	-0.2831797	0.6586413	4.387582	0	0
9.883863	0.1284727	-0.02185974	-0.2280039	-0.2057959	-4.997405	2.335583	0	0
9.90043	0.1251841	-0.02430532	-0.1985133	-0.1476243	0.8900794	1.755725	0	0
9.916996	0.1212963	-0.0271894	-0.2346763	-0.1740934	-1.091464	-0.7988853	0	0
9.933563	0.1209074	-0.02747416	-0.02347887	-0.01718799	6.374135	4.73555	0	0
9.950446	0.1172233	-0.03017116	-0.2182156	-0.1597479	-5.821702	-4.261865	0	0
9.966697	0.1140814	-0.03247118	-0.1933346	-0.1415344	0.7509301	0.5497016	0	0
9.983263	0.1113532	-0.03443041	-0.164684	-0.118266	0.8730439	0.7090374	0	0
9.99998	0.1078691	-0.03701929	-0.2084176	-0.1548655	-1.313981	-1.099637	0	0
10.0164	0.1078691	-0.0369812	0	0.002320059	6.290236	4.744005	0	0
10.04953	0.1078691	-0.0369812	0	0	0	-0.04682344	0	0
10.0661	0.1078691	-0.0369812	0	0	0	0	0	0
10.08266	0.1078691	-0.0369812	0	0	0	0	0	0
10.09923	0.1078691	-0.0369812	0	0	0	0	0	0
10.11606	0.1078691	-0.0369812	0	0	0	0	0	0
10.13236	0.1078431	-0.03696216	-0.001595955	0.001168173	-0.0481674	0.03525655	0	0
10.14893	0.1078431	-0.03696216	0	0	0.04855592	-0.03554093	0	0
10.1656	0.1078691	-0.0369812	0.00156098	-0.001142573	0.04696988	-0.03438001	0	0
10.18206	0.1078691	-0.0369812	0	0	-0.04711183	0.03448392	0	0
10.19863	0.1078691	-0.0369812	0	0	0	0	0	0
10.21519	0.1078691	-0.0369812	0	0	0	0	0	0
10.23214	0.1078691	-0.0369812	0	0	0	0	0	0
10.24865	0.1078691	-0.0369812	0	0	0	0	0	0
10.28146	0.1078691	-0.0369812	0	0	0	0	0	0
10.29819	0.1078691	-0.0369812	0	0	0	0	0	0
10.3146	0.1078691	-0.0369812	0	0	0	0	0	0
10.33121	0.1078691	-0.0369812	0	0	0	0	0	0
10.34773	0.1078691	-0.0369812	0	0	0	0	0	0
10.3643	0.1078691	-0.0369812	0	0	0	0	0	0
10.38086	0.1078691	-0.0369812	0	0	0	0	0	0
10.39743	0.1078691	-0.0369812	0	0	0	0	0	0
10.41427	0.1078691	-0.0369812	0	0	0	0	0	0
10.43056	0.1078691	-0.0369812	0	0	0	0	0	0
10.44729	0.1078691	-0.0369812	0	0	0	0	0	0
10.4638	0.1078691	-0.0369812	0	0	0	0	0	0
10.48026	0.1078691	-0.0369812	0	0	0	0	0	0
10.49683	0.1078691	-0.0369812	0	0	0	0	0	0
10.51339	0.1078691	-0.0369812	0	0	0	0	0	0
10.52996	0.1078691	-0.0369812	0	0	0	0	0	0
10.54653	0.1078691	-0.0369812	0	0	0	0	0	0
10.56309	0.1078431	-0.03696216	-0.001570415	0.001149479	-0.04739658	0.03469235	0	0
10.57966	0.1078431	-0.03696216	0	0	0.04739522	-0.03469135	0	0
10.61691	0.1078431	-0.03696216	0	0	0	0	0	0
10.68299	0.1078431	-0.03696216	0	0	0	0	0	0
10.69956	0.1078431	-0.03696216	0	0	0	0	0	0
10.71613	0.1078431	-0.03696216	0	0	0	0	0	0
10.73269	0.1078431	-0.03696216	0	0	0	0	0	0
10.74926	0.1078431	-0.03696216	0	0	0	0	0	0
10.76583	0.1078431	-0.03696216	0	0	0	0	0	0
10.78239	0.1078171	-0.03694312	-0.001570056	0.001149545	-0.0473871	0.03469534	0	0
10.79904	0.107557	-0.03667651	-0.0156241	0.01601368	-0.4231291	0.4475185	0	0
10.81555	0.10597	-0.03502033	-0.09610887	0.1002967	-2.427079	2.541617	0	0
10.83209	0.1030547	-0.03243315	-0.1762617	0.1564234	-2.425019	1.698113	0	0
10.84866	0.09482007	-0.02608858	-0.4970704	0.3829813	-9.690393	6.843438	0	0
10.86522	0.08678149	-0.01952967	-0.4852376	0.3959194	0.3571344	0.3904955	0	0
10.88179	0.07745003	-0.01251191	-0.5632803	0.423617	-2.355469	0.8359631	0	0
10.89836	0.06320518	-0.001458186	-0.8598706	0.6672426	-8.951629	7.353061	0	0
10.91492	0.05623014	0.004900746	-0.4210142	0.3838259	13.24509	-8.55378	0	0
10.93163	0.04326246	0.01979205	-0.7760739	0.8911971	-10.66996	15.24711	0	0
10.94815	0.03837589	0.02883843	-0.2959423	0.5478695	14.45255	-10.33458	0	0
10.96466	0.02983325	0.05363888	-0.5173619	1.501973	-6.704842	28.89137	0	0
10.98119	0.02891299	0.0588094	-0.05565905	0.3127233	13.97162	-35.98796	0	0
10.99776	0.0249422	0.08772851	-0.2396916	1.745661	-5.559875	43.29101	0	0
11.01432	0.02381129	0.1016666	-0.0682656	0.8413524	5.173946	-27.29366	0	0
11.03089	0.0215756	0.1151972	-0.1349543	0.8167564	-2.012784	-0.7423525	0	0
11.04746	0.02070757	0.1238013	-0.0523945	0.5193442	2.491731	-8.976177	0	0
11.06402	0.01883988	0.1425489	-0.1127405	1.131673	-1.8213	18.48066	0	0
11.08059	0.01699836	0.1516716	-0.1111604	0.5506771	0.04769263	-17.53551	0	0
11.09716	0.01539352	0.1597826	-0.09687398	0.4896109	0.431189	-1.843088	0	0
11.11376	0.01470947	0.1651114	-0.04119482	0.3209074	1.678516	-5.085772	0	0
11.13029	0.00939446	0.1797694	-0.3215918	0.8869058	-8.462885	17.08285	0	0
11.14686	0.00826297	0.1816672	-0.06830085	0.1145533	7.65381	-23.33853	0	0
11.16379	0.003315777	0.1859306	-0.2920565	0.2516899	-6.678188	4.092963	0	0
11.17999	0.001210526	0.1873752	-0.1299992	0.08920632	4.89104	-4.903905	0	0
11.19656	0.0008157893	0.187646	-0.02382771	0.01634819	3.240826	-2.223954	0	0
11.21312	0.0008421051	0.187628	0.001588425	-0.001089217	0.7670826	-0.5262771	0	0
11.22969	0.0008684208	0.1876099	0.001588421	-0.001090116	-1.054026E-07	-2.714821E-05	0	0
11.24626	0.0008684208	0.1876099	0	0	-0.04794003	0.03290072	0	0
11.26282	0.0008684208	0.1876099	0	0	0	0	0	0
11.27939	0.0008684208	0.1876099	0	0	0	0	0	0
11.29596	0.0008421051	0.1875919	-0.001588513	-0.001090179	-0.04794417	-0.03290356	0	0
11.31252	0.0008684208	0.1875738	0.001588239	-0.001089091	0.09587178	3.282495E-05	0	0
11.32909	0.0009210524	0.1875016	0.003177395	-0.004360319	0.04796221	-0.09872868	0	0
11.34566	0.0009736839	0.1874294	0.003177029	-0.004359817	-1.104044E-05	1.515162E-05	0	0
11.36222	0.0009999997	0.1873752	0.001588425	-0.003269449	-0.04794555	0.0329083	0	0
11.37879	0.001131578	0.1872127	0.007942568	-0.009809813	0.1917739	-0.1973942	0	0
11.41503	0.001131578	0.1871766	0	-0.0009963255	-0.1504133	0.1669065	0	0
11.43159	0.001131578	0.1871405	0	-0.002180358	0	-0.02242276	0	0
11.44816	0.001157894	0.1871224	0.001588516	-0.001090179	0.04794428	0.03290356	0	0
11.46473	0.001157894	0.1870863	0	-0.002179333	-0.0479429	-0.03287168	0	0
11.48129	0.00118421	0.1870321	0.001588509	-0.003269638	0.04794269	-0.03290641	0	0
11.49786	0.001157894	0.1869419	-0.001588509	-0.005449996	-0.09588813	-0.06580713	0	0
11.51443	0.001157894	0.1869057	0	-0.002180358	0.04794407	0.09868354	0	0
11.53105	0.001131578	0.1868877	-0.001582685	-0.001086177	-0.04768045	0.03296363	0	0
11.56413	0.001078947	0.1868516	-0.001591398	-0.001091709	-0.0001753194	-0.0001113048	0	0
11.58069	0.001052631	0.1868335	-0.001588516	-0.001090179	5.806372E-05	3.082129E-05	0	0
11.59726	0.001052631	0.1868335	0	0	0.04794428	0.03290356	0	0
11.61382	0.001026315	0.1868155	-0.001588516	-0.001090179	-0.04794428	-0.03290356	0	0
11.63039	0.001026315	0.1868155	0	0	0.0479429	0.03290262	0	0
11.64713	0.001026315	0.1868155	0	0	0	0	0	0
11.66365	0.001026315	0.1868155	0	0	0	0	0	0
11.68016	0.001026315	0.1868155	0	0	0	0	0	0
11.69667	0.001026315	0.1868155	0	0	0	0	0	0
11.71323	0.001026315	0.1868155	0	0	0	0	0	0
11.72979	0.001052631	0.1867974	0.001588516	-0.001090179	0.04795808	-0.03291304	0	0
11.74636	0.00118421	0.186671	0.00794211	-0.007629915	0.1917574	-0.1973753	0	0
11.76293	0.001236841	0.1865988	0.003177026	-0.004359817	-0.1438147	0.09869459	0	0
11.77973	0.001421052	0.1861834	0.01096308	-0.02471941	0.2333314	-0.6101337	0	0
11.79624	0.001657893	0.1856236	0.01434367	-0.03390591	0.1014745	-0.2757491	0	0
11.81275	0.00228947	0.1843231	0.03824973	-0.07876033	0.7239032	-1.358244	0	0
11.82919	0.008368226	0.178269	0.3697667	-0.368268	10.0608	-8.78591	0	0
11.84577	0.01336762	0.173096	0.301504	-0.3119698	-2.067253	1.704921	0	0
11.86232	0.01918186	0.1690959	0.3512713	-0.241669	1.502023	2.121744	0	0
11.92847	0.01997103	0.1685527	0.01193162	-0.008212621	-4.103603	2.823166	0	0
11.94503	0.01997103	0.1685527	0	0	-0.1442631	0.09929729	0	0
11.96186	0.01997103	0.1685527	0	0	0	0	0	0
11.97837	0.01997103	0.1685527	0	0	0	0	0	0
11.99473	0.01997103	0.1685527	0	0	0	0	0	0
12.0113	0.01997103	0.1685527	0	0	0	0	0	0
12.0279	0.01997103	0.1685527	0	0	0	0	0	0
12.04443	0.01997103	0.1685527	0	0	0	0	0	0
12.061	0.01999733	0.1685346	0.001587933	-0.001093777	0.04798054	-0.03304926	0	0
12.07794	0.01999733	0.1685346	0	0	-0.04739464	0.03264569	0	0
12.14383	0.01999733	0.1685346	0	0	0	0	0	0
12.1604	0.02002364	0.1685165	0.001587821	-0.001092877	0.01925555	-0.01325336	0	0
12.17696	0.02002364	0.1685165	0	0	-0.04792328	0.03298501	0	0
12.19353	0.02002364	0.1685165	0	0	0	0	0	0
12.2101	0.02002364	0.1685165	0	0	0	0	0	0
12.22666	0.02002364	0.1685165	0	0	0	0	0	0
12.24355	0.02002364	0.1685165	0	0	0	0	0	0
12.2598	0.02002364	0.1685165	0	0	0	0	0	0
12.27636	0.02002364	0.1685165	0	0	0	0	0	0
12.29309	0.02002364	0.1685165	0	0	0	0	0	0
12.3096	0.02002364	0.1685165	0	0	0	0	0	0
12.32611	0.02002364	0.1685165	0	0	0	0	0	0
12.3592	0.02002364	0.1684803	0	-0.001094326	0	-0.02206234	0	0
12.37576	0.02002364	0.1684803	0	0	0	0.02203946	0	0
12.39233	0.02002364	0.1684803	0	0	0	0	0	0
12.4089	0.02002364	0.1684803	0	0	0	0	0	0
12.42546	0.02002364	0.1684803	0	0	0	0	0	0
12.46106	0.02002364	0.1684803	0	0	0	0	0	0
12.47763	0.02002364	0.1684803	0	0	0	0	0	0
12.49419	0.02002364	0.1684803	0	0	0	0	0	0
12.51076	0.02002364	0.1684803	0	0	0	0	0	0
12.52733	0.02002364	0.1684803	0	0	0	0	0	0
12.54389	0.02002364	0.1684803	0	0	0	0	0	0
12.56046	0.02002364	0.1684803	0	0	0	0	0	0
12.57703	0.02002364	0.1684441	0	-0.002185881	0	-0.06597192	0	0
12.5938	0.01999733	0.168426	-0.001568498	-0.001080466	-0.04705161	0.0331601	0	0
12.61031	0.02002364	0.1684079	0.001593048	-0.001096475	0.09499185	-0.0004810093	0	0
12.62673	0.01999733	0.1683898	-0.001602209	-0.001102781	-0.0970335	-0.0001914894	0	0
12.64333	0.01999733	0.1683898	0	0	0.04851815	0.03339445	0	0
12.65986	0.01997103	0.1683716	-0.00159169	-0.001095463	-0.04804006	-0.03306304	0	0
12.69299	0.01994472	0.1683535	-0.0007939103	-0.0005464387	0.01606492	0.01105573	0	0
12.70988	0.01997103	0.1683354	0.001557779	-0.001073083	0.04701656	-0.01052902	0	0
12.73002	0.01997103	0.1683354	0	0	-0.04207102	0.0289808	0	0
12.74659	0.01997103	0.1683354	0	0	0	0	0	0
12.76342	0.01994472	0.1683535	-0.001563076	0.001076731	-0.0468046	0.03224155	0	0
12.77972	0.01997103	0.1683354	0.001613267	-0.001111306	0.09586498	-0.066037	0	0
12.79644	0.01997103	0.1683354	0	0	-0.04885302	0.03365261	0	0
12.81295	0.01997103	0.1683354	0	0	0	0	0	0
12.82942	0.01997103	0.1683354	0	0	0	0	0	0
12.84599	0.01997103	0.1683354	0	0	0	0	0	0
12.86255	0.01997103	0.1683354	0	0	0	0	0	0
12.87912	0.01997103	0.1683354	0	0	0	0	0	0
12.89569	0.01997103	0.1683354	0	0	0	0	0	0
12.91252	0.01997103	0.1683354	0	0	0	0	0	0
12.92903	0.01997103	0.1683354	0	0	0	0	0	0
12.94538	0.01997103	0.1683354	0	0	0	0	0	0
12.96195	0.01997103	0.1683354	0	0	0	0	0	0
12.97852	0.01997103	0.1683354	0	0	0	0	0	0
12.99508	0.01997103	0.1683354	0	0	0	0	0	0
13.01165	0.01997103	0.1683354	0	0	0	0	0	0
13.02822	0.01997103	0.1683354	0	0	0	0	0	0
13.04478	0.01997103	0.1683354	0	0	0	0	0	0
13.06136	0.01997103	0.1683354	0	0	0	0	0	0
13.07792	0.01997103	0.1683354	0	0	0	0	0	0
13.09448	0.01997103	0.1683354	0	0	0	0	0	0
13.11105	0.01997103	0.1683354	0	0	0	0	0	0
13.12762	0.01997103	0.1683354	0	0	0	0	0	0
13.14418	0.01997103	0.1683354	0	0	0	0	0	0
13.16075	0.01997103	0.1683354	0	0	0	0	0	0
13.17732	0.01997103	0.1683354	0	0	0	0	0	0
13.19388	0.01997103	0.1683354	0	0	0	0	0	0
13.24358	0.01997103	0.1683354	0	0	0	0	0	0
13.28528	0.01997103	0.1683354	0	0	0	0	0	0
13.30185	0.01997103	0.1683354	0	0	0	0	0	0
13.31842	0.01997103	0.1683354	0	0	0	0	0	0
13.33498	0.01997103	0.1683354	0	0	0	0	0	0
13.35155	0.01997103	0.1683354	0	0	0	0	0	0
13.36812	0.01997103	0.1683354	0	0	0	0	0	0
13.38468	0.01997103	0.1683354	0	0	0	0	0	0
13.40125	0.01997103	0.1683354	0	0	0	0	0	0
13.41782	0.01997103	0.1683354	0	0	0	0	0	0
13.43439	0.01997103	0.1683354	0	0	0	0	0	0
13.45095	0.01997103	0.1683354	0	0	0	0	0	0
13.46752	0.01997103	0.1683354	0	0	0	0	0	0
13.48409	0.01997103	0.1683354	0	0	0	0	0	0
13.50065	0.01994472	0.1683173	-0.001587821	-0.001092877	-0.04792328	-0.03298501	0	0
13.51722	0.01994472	0.1683173	0	0	0.04792328	0.03298501	0	0
13.53396	0.01994472	0.1683173	0	0	0	0	0	0
13.55035	0.01994472	0.1683173	0	0	0	0	0	0
13.56698	0.01994472	0.1683173	0	0	0	0	0	0
13.58399	0.01994472	0.1683173	0	0	0	0	0	0
13.60005	0.01994472	0.1683173	0	0	0	0	0	0
13.61662	0.01994472	0.1683173	0	0	0	0	0	0
13.63318	0.01994472	0.1682811	0	-0.002185755	0	-0.06597001	0	0
13.65004	0.01994472	0.1682811	0	0	0	0.06539963	0	0
13.66632	0.01994472	0.1682811	0	0	0	0	0	0
13.68288	0.01994472	0.1682811	0	0	0	0	0	0
13.69945	0.01994472	0.1682811	0	0	0	0	0	0
13.71608	0.01994472	0.1682811	0	0	0	0	0	0
13.73259	0.01991842	0.168263	-0.001593253	-0.001096539	-0.04806925	-0.03308313	0	0
13.74915	0.01991842	0.168263	0	0	0.04818432	0.03316233	0	0
13.76572	0.01991842	0.168263	0	0	0	0	0	0
13.78228	0.01991842	0.168263	0	0	0	0	0	0
13.79885	0.01991842	0.168263	0	0	0	0	0	0
13.81541	0.01994472	0.1682449	0.001587933	-0.001093777	0.04792667	-0.03301216	0	0
13.83198	0.01994472	0.1682449	0	0	-0.04792529	0.03301121	0	0
13.84867	0.01994472	0.1682449	0	0	0	0	0	0
13.86512	0.01994472	0.1682449	0	0	0	0	0	0
13.8817	0.01991842	0.1682268	-0.001586198	-0.001091683	-0.04803053	-0.03305649	0	0
13.89825	0.01994472	0.1682087	0.00158958	-0.001094011	0.09584794	-7.025289E-05	0	0
13.93139	0.01994472	0.1681724	0	-0.001093075	-0.0319904	1.882961E-05	0	0
13.94795	0.01997103	0.1681543	0.001588461	-0.001093318	0.03196112	-4.881501E-06	0	0
13.96476	0.01999733	0.1681362	0.001564871	-0.001077005	-0.0007069061	0.0004888429	0	0
13.98108	0.02002364	0.1680819	0.001611476	-0.003328392	0.00140659	-0.06794892	0	0
13.99778	0.02007625	0.1680457	0.003150543	-0.002168404	0.04660743	0.03512781	0	0
14.0143	0.02015517	0.1679914	0.004778265	-0.003289569	0.04900627	-0.03375522	0	0
14.13018	0.03976849	0.1544672	0.1692513	-0.1167052	1.242257	-0.8566223	0	0
14.14675	0.0407406	0.1537957	0.05867987	-0.04053811	-0.8348218	0.5750664	0	0
14.16331	0.0407406	0.1537957	0	0	-1.771064	1.223513	0	0
14.17988	0.0407406	0.1537957	0	0	0	0	0	0
14.19644	0.0407406	0.1537957	0	0	0	0	0	0
14.21301	0.0407406	0.1537957	0	0	0	0	0	0
14.22958	0.0407406	0.1537957	0	0	0	0	0	0
14.24614	0.0407406	0.1537957	0	0	0	0	0	0
14.26271	0.0407406	0.1537957	0	0	0	0	0	0
14.28286	0.0407406	0.1537957	0	0	0	0	0	0
14.29942	0.04071433	0.1538138	-0.001585614	0.00109545	-0.04318874	0.02983771	0	0
14.31599	0.04071433	0.1538138	0	0	0.04785393	-0.03306074	0	0
14.33256	0.04071433	0.1538138	0	0	0	0	0	0
14.34912	0.04068806	0.153832	-0.001586022	0.001095576	-0.0478676	0.0330655	0	0
14.36569	0.04068806	0.153832	0	0	0.04786898	-0.03306645	0	0
14.38226	0.04068806	0.153832	0	0	0	0	0	0
14.39906	0.04066179	0.1538501	-0.001563475	0.001081042	-0.04685404	0.03239653	0	0
14.41539	0.04066179	0.1538864	0	0.002222758	0.04718714	0.03445804	0	0
14.43208	0.04063552	0.1539046	-0.001573747	0.001087251	-0.0476549	-0.03438444	0	0
14.4486	0.04060924	0.1539227	-0.001591243	0.001099183	-0.0005268958	0.0003593217	0	0
14.46509	0.04060924	0.1539227	0	0	0.04820974	-0.03330184	0	0
14.48166	0.04060924	0.1539227	0	0	0	0	0	0
14.49822	0.04060924	0.1539227	0	0	0	0	0	0
14.51479	0.04058297	0.1539409	-0.001585797	0.001095576	-0.04786219	0.03306645	0	0
14.53135	0.04058297	0.1539409	0	0	0.04786219	-0.03306645	0	0
14.54792	0.04058297	0.1539409	0	0	0	0	0	0
14.56449	0.04058297	0.1539409	0	0	0	0	0	0
14.58119	0.04058297	0.1539409	0	0	0	0	0	0
14.5977	0.04058297	0.1539409	0	0	0	0	0	0
14.61421	0.04058297	0.1539409	0	0	0	0	0	0
14.63076	0.04058297	0.1539409	0	0	0	0	0	0
14.64732	0.04058297	0.1539409	0	0	0	0	0	0
14.66389	0.04058297	0.1539409	0	0	0	0	0	0
14.68046	0.04058297	0.1539409	0	0	0	0	0	0
14.69702	0.04058297	0.1539409	0	0	0	0	0	0
14.71359	0.04058297	0.1539409	0	0	0	0	0	0
14.73015	0.04058297	0.1539409	0	0	0	0	0	0
14.7468	0.04058297	0.1539409	0	0	0	0	0	0
14.76329	0.04058297	0.1539409	0	0	0	0	0	0
14.87925	0.04060924	0.1539227	0.0002265387	-0.0001565083	0.001710357	-0.001181631	0	0
14.89591	0.04060924	0.1539227	0	0	-0.001708107	0.001180076	0	0
14.91243	0.04060924	0.1539227	0	0	0	0	0	0
14.92895	0.04060924	0.1539227	0	0	0	0	0	0
14.94552	0.04063552	0.1539046	0.001586022	-0.001095576	0.04792416	-0.03310456	0	0
14.96209	0.04063552	0.1539046	0	0	-0.04786898	0.03306645	0	0
14.97866	0.04063552	0.1539046	0	0	0	0	0	0
14.99548	0.04063552	0.1539046	0	0	0	0	0	0
15.01179	0.04063552	0.1539046	0	0	0	0	0	0
15.02851	0.04063552	0.1539046	0	0	0	0	0	0
15.04502	0.04063552	0.1539046	0	0	0	0	0	0
15.06153	0.04063552	0.1539046	0	0	0	0	0	0
15.07805	0.04063552	0.1539046	0	0	0	0	0	0
15.09462	0.04063552	0.1539046	0	0	0	0	0	0
15.11119	0.04063552	0.1539046	0	0	0	0	0	0
15.12775	0.04063552	0.1539046	0	0	0	0	0	0
15.14432	0.04063552	0.1539046	0	0	0	0	0	0
15.16088	0.04063552	0.1539046	0	0	0	0	0	0
15.17761	0.04063552	0.1539046	0	0	0	0	0	0
15.19412	0.04063552	0.1539046	0	0	0	0	0	0
15.21063	0.04063552	0.1539046	0	0	0	0	0	0
15.24727	0.04063552	0.1539046	0	0	0	0	0	0
15.26383	0.04063552	0.1539046	0	0	0	0	0	0
15.29697	0.04066179	0.1538864	0.0007928527	-0.0005477564	0.01595253	-0.01102109	0	0
15.31354	0.04066179	0.1538864	0	0	-0.01595253	0.01102109	0	0
15.3301	0.04063552	0.1539046	-0.001585797	0.001095576	-0.04786219	0.03306645	0	0
15.34667	0.0405567	0.153959	-0.004757566	0.003286539	-0.09572694	0.06612529	0	0
15.36324	0.04039906	0.1541042	-0.009514907	0.008765003	-0.1435768	0.1653404	0	0
15.3798	0.03961085	0.1548665	-0.0475793	0.04601329	-1.148819	1.124188	0	0
15.39676	0.03319832	0.160381	-0.3780725	0.3251239	-9.857414	8.324857	0	0
15.41294	0.02378499	0.1692951	-0.5820614	0.5511917	-6.156575	6.822938	0	0
15.4295	0.01247304	0.1815587	-0.68283	0.7402784	-3.077966	5.775632	0	0
15.4463	-0.0001052632	0.2023823	-0.7488391	1.239715	-1.978494	14.96964	0	0
15.46281	-0.008499796	0.2267264	-0.5084217	1.474418	7.218002	7.046416	0	0
15.4792	-0.01249935	0.2449645	-0.2439837	1.112577	8.036734	-10.99696	0	0
15.49577	-0.01584078	0.2611846	-0.2017008	0.9791022	1.282895	-4.049738	0	0
15.51234	-0.01878726	0.2794422	-0.1778603	1.102094	0.7195483	3.712105	0	0
15.5289	-0.02083909	0.2902082	-0.1238555	0.6498762	1.629962	-13.64874	0	0
15.54547	-0.02281183	0.2995926	-0.1190819	0.566474	0.1440752	-2.517231	0	0
15.56203	-0.0243373	0.3095273	-0.09208269	0.5996938	0.8148859	1.002635	0	0
15.5786	-0.0245477	0.3114924	-0.01270054	0.1186226	2.395896	-14.51959	0	0
15.5954	-0.02820305	0.3166906	-0.2175564	0.30938	-6.13927	5.716755	0	0
15.61173	-0.03553766	0.3217095	-0.4491039	0.307312	-6.988319	-0.06241185	0	0
15.62843	-0.0439979	0.3277102	-0.506839	0.3594902	-1.748285	1.580014	0	0
15.64494	-0.04825199	0.3332461	-0.2576374	0.3352724	7.505149	-0.7293608	0	0
15.66145	-0.04780566	0.344014	0.02703105	0.6521294	8.620091	9.594798	0	0
15.678	-0.0473593	0.3469248	0.02696854	0.1758661	-0.001890592	-14.40475	0	0
15.69457	-0.04536359	0.3579972	0.1204679	0.6683679	2.82328	14.87144	0	0
15.71113	-0.04310486	0.3646773	0.1363374	0.4032135	0.4789549	-8.002606	0	0
15.7277	-0.04029397	0.3719124	0.1696755	0.436739	1.006176	1.011832	0	0
15.74451	-0.03561651	0.3763794	0.278295	0.2657704	3.254631	-5.122835	0	0
15.76102	-0.03314575	0.3780949	0.1496348	0.1038935	-3.861412	-4.858327	0	0
15.7774	-0.03309318	0.3780591	0.003209461	-0.002181333	-4.451542	-3.224828	0	0
15.79404	-0.03298803	0.3778805	0.006317914	-0.01073721	0.09412756	-0.2590818	0	0
15.81056	-0.03277773	0.3775588	0.01273626	-0.01948026	0.1935891	-0.2637065	0	0
15.8271	-0.03254114	0.377255	0.01429868	-0.01836095	0.04726262	0.03385881	0	0
15.84367	-0.03246228	0.3771656	0.004760538	-0.005393328	-0.2880523	0.3916229	0	0
15.86024	-0.03238341	0.3770406	0.004760538	-0.007550299	0	-0.06510126	0	0
15.8768	-0.03233084	0.3768619	0.003173617	-0.01078666	-0.04789612	-0.09767907	0	0
15.89337	-0.03233084	0.3766832	0	-0.01078604	-0.09578272	1.874816E-05	0	0
15.90993	-0.03233084	0.3765402	0	-0.008629684	0	0.06508067	0	0
15.92664	-0.03196279	0.3761471	0.02203631	-0.02353787	0.662388	-0.4481243	0	0
15.94315	-0.0316999	0.3759327	0.01591755	-0.01298324	-0.1842032	0.3177438	0	0
15.95963	-0.03112153	0.3755038	0.03509059	-0.02601906	0.581035	-0.3950479	0	0
15.9762	-0.02954403	0.3744317	0.09522325	-0.06471634	1.81952	-1.170919	0	0
16.0097	-0.02893929	0.3739493	0.01805538	-0.01440289	-1.541499	1.005058	0	0
16.0259	-0.02901817	0.3738957	-0.004867755	-0.003308542	-0.461241	0.2232315	0	0
16.04247	-0.02914964	0.3737706	-0.007935498	-0.007549865	-0.09360848	-0.1294188	0	0
16.06375	-0.02985954	0.3732882	-0.03335681	-0.02266731	-0.6716433	-0.3994102	0	0
16.08032	-0.03025392	0.3730202	-0.02380492	-0.01617725	0.2523656	0.1714705	0	0
16.09688	-0.03051684	0.3728415	-0.01586953	-0.01078424	0.2394904	0.1627616	0	0
16.11345	-0.0309112	0.3725735	-0.02380391	-0.01617725	-0.2394599	-0.1627616	0	0
16.13002	-0.03135814	0.3722698	-0.026977	-0.0183323	-0.09576423	-0.0650395	0	0
16.14659	-0.03138443	0.3722519	-0.00158683	-0.001079323	0.766277	0.520696	0	0
16.16331	-0.03138443	0.3722519	0	0	0.04766836	0.03242286	0	0
16.17982	-0.03138443	0.3722519	0	0	0	0	0	0
16.19633	-0.03138443	0.3722519	0	0	0	0	0	0
16.21285	-0.03138443	0.3722519	0	0	0	0	0	0
16.22942	-0.03138443	0.3722519	0	0	0	0	0	0
16.24599	-0.03138443	0.3722519	0	0	0	0	0	0
16.26255	-0.03138443	0.3722519	0	0	0	0	0	0
16.27912	-0.03138443	0.3722519	0	0	0	0	0	0
16.29569	-0.03135814	0.372234	0.00158683	-0.001077524	0.04789062	-0.03251974	0	0
16.31225	-0.03135814	0.372234	0	0	-0.04789062	0.03251974	0	0
16.32882	-0.03135814	0.372234	0	0	0	0	0	0
16.34544	-0.03138443	0.3722162	-0.001582094	-0.001076102	-0.04767908	-0.03243015	0	0
16.36195	-0.03138443	0.3722162	0	0	0.04774769	0.03247682	0	0
16.37854	-0.03138443	0.3722162	0	0	0	0	0	0
16.39509	-0.03138443	0.3722162	0	0	0	0	0	0
16.41199	-0.03138443	0.3721804	0	-0.002114728	0	-0.06322934	0	0
16.42822	-0.03141072	0.3721626	-0.001619077	-0.001099422	-0.04886384	0.03064201	0	0
16.44501	-0.03141072	0.3721268	0	-0.002128664	0.04902753	-0.03116667	0	0
16.46152	-0.03143701	0.372109	-0.001592555	-0.001083064	-0.04782938	0.03140264	0	0
16.47803	-0.03148959	0.3720732	-0.003184291	-0.002164072	-0.04820239	-0.03273609	0	0
16.49454	-0.03151588	0.3720554	-0.001592145	-0.001081134	0.04821201	0.03279264	0	0
16.51106	-0.03154217	0.3720018	-0.001591962	-0.003246636	5.565955E-06	-0.06557014	0	0
16.52807	-0.03156846	0.3719839	-0.001545375	-0.001049375	0.001389575	0.06554006	0	0
16.54419	-0.03156846	0.3719839	0	0	0.04664221	0.03167202	0	0
16.56076	-0.03159475	0.371966	-0.00158683	-0.001079323	-0.04854451	-0.03301879	0	0
16.57732	-0.03154217	0.3719303	0.003174025	-0.002157096	0.1436912	-0.03252911	0	0
16.59389	-0.03096378	0.3715372	0.03491127	-0.02372532	0.957887	-0.6509678	0	0
16.62702	-0.02386389	0.3667137	0.2142753	-0.1455737	3.608811	-2.451594	0	0
16.64359	-0.008841875	0.3562648	0.9067306	-0.6307006	13.93223	-9.760774	0	0
16.66016	0.01812959	0.337639	1.628001	-1.124252	21.76798	-14.8954	0	0
16.67672	0.03729848	0.3245134	1.15717	-0.7923539	-14.21053	10.01727	0	0
16.69329	0.06404387	0.3063114	1.614355	-1.098679	13.79867	-9.24544	0	0
16.70986	0.08377713	0.2928362	1.191102	-0.8133616	-12.77381	8.610893	0	0
16.72643	0.1095335	0.2751662	1.554659	-1.066567	10.97218	-7.641762	0	0
16.74299	0.122152	0.2664673	0.7616504	-0.5250619	-23.93305	16.34266	0	0
16.75974	0.1471651	0.2490171	1.493975	-1.042256	21.98517	-15.52672	0	0
16.77612	0.1711767	0.2318637	1.465025	-1.046589	-0.8737587	-0.1307963	0	0
16.79276	0.1824992	0.2235995	0.6807617	-0.4968849	-23.74978	16.64666	0	0
16.80926	0.2033095	0.2083985	1.261052	-0.92114	17.51321	-12.80404	0	0
16.82583	0.2161738	0.1977499	0.7764857	-0.6427467	-14.65293	8.4184	0	0
16.8424	0.2227918	0.1849733	0.3994178	-0.7711082	-11.37928	-3.873734	0	0
16.90884	0.230388	0.1236553	0.1143241	-0.9228479	-3.434304	-1.827891	0	0
16.92523	0.2325819	0.1144841	0.1338883	-0.5596955	0.236196	4.384287	0	0
16.94179	0.2337527	0.1062666	0.07067048	-0.496011	-1.918409	1.93257	0	0
16.9616	0.2336531	0.09287538	-0.005030491	-0.6762505	-2.081451	-4.95581	0	0
16.97816	0.2333791	0.08421416	-0.01653703	-0.5227926	-0.3163803	4.219432	0	0
16.99473	0.2328061	0.078412	-0.03458113	-0.3501789	-0.5445407	5.209192	0	0
17.01142	0.2306374	0.0714943	-0.129991	-0.4146413	-2.869236	-1.93856	0	0
17.02786	0.2274676	0.06378824	-0.1927053	-0.4684823	-1.892831	-1.62502	0	0
17.04443	0.224168	0.05945756	-0.1991603	-0.2614006	-0.1955093	6.272124	0	0
17.06145	0.2180559	0.05493679	-0.3590931	-0.265597	-4.761548	-0.1249361	0	0
17.07757	0.2138378	0.0518211	-0.2617752	-0.1933615	2.937061	2.180073	0	0
17.09413	0.2126815	0.05100467	-0.06979442	-0.04927964	5.874472	4.408799	0	0
17.1107	0.2127066	0.05098611	0.001517348	-0.001120022	2.152194	1.45346	0	0
17.12727	0.2126815	0.05100467	-0.001517348	0.001120022	-0.09158733	0.06760469	0	0
17.14384	0.2126563	0.05098611	-0.001518248	-0.001120022	-2.714469E-05	-0.06760469	0	0
17.1604	0.2126563	0.05098611	0	0	0.04582081	0.03380235	0	0
17.17697	0.2126563	0.05098611	0	0	0	0	0	0
17.19354	0.2126563	0.05098611	0	0	0	0	0	0
17.2101	0.2126312	0.05100467	-0.001517348	0.001120022	-0.04579366	0.03380235	0	0
17.22667	0.2126312	0.05100467	0	0	0.04579366	-0.03380235	0	0
17.24324	0.2126312	0.05100467	0	0	0	0	0	0
17.25981	0.2126312	0.05100467	0	0	0	0	0	0
17.27637	0.2126061	0.05098611	-0.001518248	-0.001120022	-0.04582081	-0.03380235	0	0
17.29294	0.2125809	0.05096756	-0.001517348	-0.001120247	2.714469E-05	-6.78793E-06	0	0
17.30964	0.2125055	0.05087477	-0.004517578	-0.005557058	-0.09019405	-0.1333811	0	0
17.38084	0.1930649	0.03655851	-0.273044	-0.2010727	-3.055036	-2.224388	0	0
17.3974	0.1847886	0.03048078	-0.4995593	-0.3668529	-2.580881	-1.888875	0	0
17.41397	0.1811755	0.02783025	-0.2180871	-0.159986	8.494846	6.243255	0	0
17.43054	0.1775321	0.02515909	-0.2199157	-0.1612316	-0.05518579	-0.03759237	0	0
17.44711	0.1728626	0.02173784	-0.2818499	-0.2065071	-1.869179	-1.366416	0	0
17.46375	0.1709211	0.02031602	-0.1166646	-0.08543741	4.974136	3.645706	0	0
17.48026	0.1709211	0.02031602	0	0	3.518919	2.577023	0	0
17.49681	0.1708956	0.02033473	-0.00154431	0.001130768	-0.04671225	0.03420345	0	0
17.51337	0.1708956	0.02033473	0	0	0.04663423	-0.03414632	0	0
17.52994	0.1708956	0.02033473	0	0	0	0	0	0
17.54651	0.1708956	0.02033473	0	0	0	0	0	0
17.56332	0.1708956	0.02037216	0	0.002226128	0	0.06669328	0	0
17.57964	0.1708956	0.02037216	0	0	0	-0.06718469	0	0
17.61791	0.17087	0.02039087	-0.0006677517	0.0004888896	-0.01223122	0.008955	0	0
17.63448	0.17087	0.02039087	0	0	0.01217677	-0.008915132	0	0
17.65105	0.17087	0.02039087	0	0	0	0	0	0
17.66762	0.17087	0.02039087	0	0	0	0	0	0
17.68418	0.17087	0.02039087	0	0	0	0	0	0
17.70077	0.17087	0.02039087	0	0	0	0	0	0
17.73394	0.1708445	0.02040958	-0.0007702465	0.0005639866	-0.01547898	0.01133395	0	0
17.75046	0.1708445	0.02040958	0	0	0.01550096	-0.01135005	0	0
17.76747	0.1708445	0.02040958	0	0	0	0	0	0
17.78358	0.1708445	0.02040958	0	0	0	0	0	0
17.80015	0.1708445	0.02040958	0	0	0	0	0	0
17.81672	0.1708445	0.02040958	0	0	0	0	0	0
17.83352	0.1708445	0.02040958	0	0	0	0	0	0
17.84985	0.1708445	0.02040958	0	0	0	0	0	0
17.87026	0.1708445	0.02040958	0	0	0	0	0	0
17.88682	0.1708445	0.02040958	0	0	0	0	0	0
17.90339	0.1708445	0.02040958	0	0	0	0	0	0
17.91996	0.1708445	0.02040958	0	0	0	0	0	0
17.93659	0.1708445	0.02040958	0	0	0	0	0	0
17.9531	0.17087	0.02042829	0.001548058	0.001133399	0.0467124	0.03420015	0	0
17.96966	0.1708956	0.020447	0.001543243	0.001129987	-0.0001455909	-0.0001031898	0	0
17.98623	0.1710234	0.02057798	0.007712663	0.007905704	0.1862363	0.2045386	0	0
18.00279	0.1712533	0.02078379	0.01388099	0.01242267	0.1861606	0.1363223	0	0
18.01936	0.1719431	0.02132632	0.04163669	0.03274722	0.8376685	0.6133963	0	0
18.03593	0.1721475	0.0215882	0.01233486	0.01580725	-0.8843307	-0.5112495	0	0
18.05249	0.1724796	0.02186877	0.02004303	0.01693503	0.2326329	0.03403645	0	0
18.06918	0.1729137	0.02214931	0.02601339	0.01680982	0.1795246	-0.003764885	0	0
18.0857	0.1739095	0.02284122	0.06030615	0.04190386	1.032876	0.7558169	0	0
18.10219	0.1748794	0.0235517	0.05878613	0.04306268	-0.04604656	0.03510457	0	0
18.11876	0.1756448	0.02407511	0.04620402	0.03159347	-0.3805173	-0.3468602	0	0
18.13533	0.1757469	0.02414988	0.006159337	0.004513032	-1.208551	-0.8172893	0	0
18.1519	0.1757469	0.02414988	0	0	-0.1858892	-0.1362036	0	0
18.16846	0.1757979	0.02414988	0.003080568	0	0.09297172	0	0	0
18.18503	0.1758489	0.02414988	0.003078769	0	-5.428939E-05	0	0	0
18.2016	0.1758999	0.02418726	0.003079668	0.00225646	2.714469E-05	0.06810009	0	0
18.21816	0.176053	0.02429941	0.009239005	0.006769154	0.1858891	0.1361934	0	0
18.23473	0.1763081	0.02444893	0.01539564	0.009025277	0.1858077	0.06808991	0	0
18.2513	0.1763591	0.02448632	0.003079668	0.002256347	-0.3716969	-0.2042867	0	0
18.26787	0.1764101	0.02448632	0.003078769	0	-2.714469E-05	-0.0680967	0	0
18.28443	0.1764101	0.02448632	0	0	-0.09291743	0	0	0
18.301	0.1764356	0.02446763	0.001539834	-0.001128117	0.04647229	-0.03404665	0	0
18.31757	0.1764866	0.02446763	0.003078415	0	0.04643178	0.03404469	0	0
18.3507	0.1766141	0.02444893	0.003848908	-0.0005641474	0.01550235	-0.01135067	0	0
18.3674	0.1766396	0.02443025	0.001526806	-0.001119227	-0.04659917	-0.01113915	0	0
18.38391	0.1766396	0.02443025	0	0	-0.04597325	0.03370073	0	0
18.40043	0.1766396	0.02443025	0	0	0	0	0	0
18.41697	0.1766651	0.02441156	0.00154232	-0.001129939	0.04666012	-0.03418426	0	0
18.43353	0.1766651	0.02441156	0	0	-0.04658754	0.03413109	0	0
18.45046	0.1767416	0.02435548	0.004519876	-0.003312763	0.1349574	-0.09891463	0	0
18.46697	0.1772516	0.02398165	0.03088275	-0.02263746	0.7883719	-0.5778979	0	0
18.48323	0.1784753	0.0230843	0.07524411	-0.05518105	1.353476	-0.9929129	0	0
18.4998	0.1811755	0.02110183	0.1629868	-0.1196616	2.672695	-1.964118	0	0
18.51637	0.1874826	0.01645926	0.3806943	-0.2802262	6.570427	-4.84585	0	0
18.53302	0.1917465	0.01334829	0.2560773	-0.1868325	-3.751448	2.811507	0	0
18.5495	0.1956743	0.01044093	0.2383161	-0.1764022	-0.5360659	0.3148072	0	0
18.56607	0.197016	0.009446238	0.08098251	-0.06003976	-4.760668	3.520945	0	0
18.58264	0.1970666	0.009408697	0.003055384	-0.002266016	-2.351845	1.743615	0	0
18.5992	0.1970666	0.009408697	0	0	-0.09221166	0.06838851	0	0
18.61577	0.1971425	0.009352384	0.004582626	-0.003399024	0.1383039	-0.1025828	0	0
18.63234	0.1971678	0.009333613	0.001527242	-0.001133008	-0.09221166	0.06838851	0	0
18.6986	0.1971678	0.009333613	0	0	-0.01843733	0.01367802	0	0
18.71517	0.1971678	0.009333613	0	0	0	0	0	0
18.73553	0.1971678	0.009333613	0	0	0	0	0	0
18.75209	0.1971678	0.009333613	0	0	0	0	0	0
18.76869	0.1971678	0.009333613	0	0	0	0	0	0
18.78523	0.1971678	0.009333613	0	0	0	0	0	0
18.80179	0.1971678	0.009333613	0	0	0	0	0	0
18.81836	0.1971678	0.009333613	0	0	0	0	0	0
18.83493	0.1971678	0.009333613	0	0	0	0	0	0
18.85175	0.1971678	0.009333613	0	0	0	0	0	0
18.86826	0.1971678	0.009333613	0	0	0	0	0	0
18.88477	0.1971678	0.009333613	0	0	0	0	0	0
18.9012	0.1971425	0.009314843	-0.001540723	-0.001143009	-0.04677916	-0.03470384	0	0
18.91776	0.1971425	0.009314843	0	0	0.04670344	0.03464766	0	0
18.93433	0.1971425	0.009314843	0	0	0	0	0	0
18.9509	0.1971425	0.009314843	0	0	0	0	0	0
18.96746	0.1971425	0.009314843	0	0	0	0	0	0
18.98403	0.1971425	0.009314843	0	0	0	0	0	0
19.00086	0.1971425	0.009314843	0	0	0	0	0	0
19.01717	0.1971425	0.009314843	0	0	0	0	0	0
19.03388	0.1971425	0.009314843	0	0	0	0	0	0
19.0503	0.1971425	0.009314843	0	0	0	0	0	0
19.06692	0.1971425	0.009314843	0	0	0	0	0	0
19.08344	0.1971425	0.009314843	0	0	0	0	0	0
19.1	0.1971425	0.009314843	0	0	0	0	0	0
19.11657	0.1971425	0.009314843	0	0	0	0	0	0
19.13346	0.1971425	0.009314843	0	0	0	0	0	0
19.14997	0.1971425	0.009314843	0	0	0	0	0	0
19.16627	0.1971425	0.009314843	0	0	0	0	0	0
19.18283	0.1971425	0.009314843	0	0	0	0	0	0
19.1994	0.1971425	0.009314843	0	0	0	0	0	0
19.21601	0.1971172	0.009296071	-0.001523209	-0.001130072	-0.04590975	-0.03406055	0	0
19.23253	0.1971172	0.009296071	0	0	0.04597318	0.0341076	0	0
19.2491	0.1971172	0.009296071	0	0	0	0	0	0
19.26567	0.1971172	0.009296071	0	0	0	0	0	0
19.28224	0.1971172	0.009296071	0	0	0	0	0	0
19.29907	0.1970919	0.0092773	-0.001503731	-0.00111491	-0.04501732	-0.03337714	0	0
19.31537	0.1970919	0.0092773	0	0	0.0453827	0.03364804	0	0
19.33194	0.1970919	0.0092773	0	0	0	0	0	0
19.34861	0.1970919	0.0092773	0	0	0	0	0	0
19.36507	0.1970666	0.009258528	-0.001536974	-0.001140285	-0.04638865	-0.03441584	0	0
19.38164	0.1970666	0.009258528	0	0	0.0465333	0.03452316	0	0
19.3982	0.1970666	0.009258528	0	0	0	0	0	0
19.41477	0.1970666	0.009258528	0	0	0	0	0	0
19.43167	0.1970413	0.0092773	-0.001497418	0.001110938	-0.04474655	0.03319757	0	0
19.44818	0.1968388	0.009465009	-0.01226248	0.01136809	-0.3222192	0.3070166	0	0
19.46447	0.1963326	0.009840396	-0.03107529	0.02304309	-0.5735163	0.3559171	0	0
19.4812	0.1948892	0.01091002	-0.08624558	0.06391537	-1.670524	1.237589	0	0
19.4976	0.1865679	0.01705865	-0.5074163	0.3749301	-12.71096	9.386444	0	0
19.51417	0.1785007	0.0230282	-0.4869927	0.3603646	0.6195611	-0.4418522	0	0
19.53074	0.1723008	0.02756882	-0.3742319	0.2740724	3.403323	-2.604455	0	0
19.54775	0.1556517	0.0396867	-0.9785743	0.7122484	-17.99668	13.04842	0	0
19.58404	0.1307757	0.05760541	-0.6853868	0.4936972	5.499828	-4.099744	0	0
19.60061	0.1233962	0.06288178	-0.4454267	0.3184822	4.539354	-3.314564	0	0
19.6173	0.1088054	0.07326631	-0.874457	0.6223695	-12.90211	9.138721	0	0
19.63381	0.09891299	0.08027323	-0.5991092	0.4243549	8.294258	-5.964759	0	0
19.65032	0.08620686	0.08923643	-0.7694238	0.5427698	-5.157028	3.585532	0	0
19.66688	0.07417943	0.09768603	-0.7264788	0.5103714	1.298625	-0.9797032	0	0
19.68344	0.06535416	0.1038663	-0.5326945	0.3730442	5.850442	-4.145976	0	0
19.70001	0.05701708	0.1096907	-0.5032272	0.3515603	0.8893262	-0.6483853	0	0
19.71687	0.04767437	0.1162027	-0.5542283	0.3863033	-1.525866	1.039451	0	0
19.73338	0.04320993	0.1193093	-0.2703771	0.188143	8.506419	-5.938443	0	0
19.74972	0.03921673	0.1220853	-0.2444638	0.1699479	0.7889219	-0.5539449	0	0
19.76628	0.02933369	0.1289822	-0.5966101	0.4163478	-10.70358	7.489391	0	0
19.78285	0.0244951	0.1323362	-0.2920577	0.2024423	9.191937	-6.45605	0	0
19.79943	0.01841897	0.1365438	-0.3663764	0.2537081	-2.24178	1.546404	0	0
19.81598	0.01520935	0.1387646	-0.1939561	0.1342055	5.203953	-3.606803	0	0
19.83255	0.01005229	0.1423306	-0.3113167	0.2152715	-3.544193	2.448125	0	0
19.84911	0.007131458	0.1443492	-0.1763019	0.1218385	4.074988	-2.819976	0	0
19.86568	0.006263076	0.1449491	-0.0524217	0.03621726	3.738927	-2.584202	0	0
19.88249	0.006263076	0.1449491	0	0	1.570787	-1.08523	0	0
19.89882	0.006263076	0.1449491	0	0	0	0	0	0
19.91551	0.006184132	0.1450037	-0.004728596	0.003266737	-0.1431874	0.09892059	0	0
19.93195	0.006131502	0.1450764	-0.003201418	0.004423367	0.04609034	0.03490715	0	0
19.94854	0.006026243	0.1451491	-0.006346168	0.0043842	-0.09522121	-0.001185961	0	0
19.96508	0.006026243	0.1451491	0	0	0.1915498	-0.1323306	0	0
19.98165	0.006052558	0.1451309	0.001588376	-0.001097312	0.04797041	-0.03313982	0	0
20.03135	0.006052558	0.1451309	0	0	-0.02396933	0.01655894	0	0
20.04811	0.006052558	0.1451309	0	0	0	0	0	0
20.06448	0.006052558	0.1451309	0	0	0	0	0	0
20.08113	0.006078872	0.1451127	0.001580704	-0.001092031	0.04786832	-0.03306989	0	0
20.09761	0.006105187	0.1450946	0.001596093	-0.001102643	0.0004644427	-0.000320273	0	0
20.11418	0.006105187	0.1450946	0	0	-0.04828693	0.0333585	0	0
20.13075	0.006105187	0.1450946	0	0	0	0	0	0
20.14732	0.006105187	0.1450582	0	-0.002194623	0	-0.06623387	0	0
20.16388	0.006105187	0.1450582	0	0	0	0.06623768	0	0
20.18045	0.006131502	0.14504	0.001588376	-0.001097312	0.04794003	-0.03311884	0	0
20.19702	0.006157817	0.1450218	0.001588347	-0.001097312	-8.50248E-07	0	0	0
20.21372	0.006184132	0.1450037	0.001575138	-0.001088166	-0.0003970032	0.0002748489	0	0
20.23023	0.006210446	0.1449855	0.001593668	-0.001100988	0.000557843	-0.0003859661	0	0
20.24675	0.006210446	0.1449855	0	0	-0.04825813	0.03333918	0	0
20.26328	0.006236761	0.1449309	0.00159149	-0.003298391	0.0481588	-0.09980992	0	0
20.27985	0.006289391	0.1448946	0.003176723	-0.002194623	0.04788928	0.0333444	0	0
20.29642	0.006368335	0.1448037	0.004765071	-0.005486559	0.04793642	-0.0993508	0	0
20.31298	0.00639465	0.1447491	0.001588376	-0.003291935	-0.09587283	0.06623387	0	0
20.32955	0.006447279	0.1446764	0.003176695	-0.004389247	0.04793557	-0.03311693	0	0
20.34612	0.006499908	0.1446401	0.003177089	-0.002194876	1.18901E-05	0.06623005	0	0
20.36268	0.006473594	0.1446219	-0.001588347	-0.001098211	-0.1438294	0.03309933	0	0
20.37934	0.006473594	0.1446219	0	0	0.04780434	0.03305275	0	0
20.39582	0.006473594	0.1446219	0	0	0	0	0	0
20.51179	0.006473594	0.1446219	0	0	0	0	0	0
20.52845	0.006473594	0.1446219	0	0	0	0	0	0
20.54496	0.006473594	0.1446219	0	0	0	0	0	0
20.56149	0.006473594	0.1446219	0	0	0	0	0	0
20.57805	0.006473594	0.1446219	0	0	0	0	0	0
20.59843	0.006473594	0.1446219	0	0	0	0	0	0
20.61501	0.006473594	0.1446219	0	0	0	0	0	0
20.63156	0.006473594	0.1446219	0	0	0	0	0	0
20.64813	0.006473594	0.1446219	0	0	0	0	0	0
20.6647	0.006473594	0.1446219	0	0	0	0	0	0
20.68126	0.006473594	0.1446219	0	0	0	0	0	0
20.69783	0.006473594	0.1446219	0	0	0	0	0	0
20.71508	0.006473594	0.1446219	0	0	0	0	0	0
20.74753	0.006473594	0.1446219	0	0	0	0	0	0
20.76412	0.006473594	0.1446219	0	0	0	0	0	0
20.78066	0.006473594	0.1446219	0	0	0	0	0	0
20.79723	0.006447279	0.1446037	-0.001588559	-0.001097438	-0.04797317	-0.03314174	0	0
20.81415	0.006473594	0.1445855	0.0015549	-0.001074186	0.09386478	0.0006943262	0	0
20.84693	0.006447279	0.1445673	-0.0008028765	-0.0005546584	-0.04744038	0.01045331	0	0
20.8635	0.006447279	0.1445673	0	0	0.0162713	0.01124085	0	0
20.88006	0.006447279	0.144531	0	-0.002194623	0	-0.06623387	0	0
20.89671	0.006447279	0.144531	0	0	0	0.06607412	0	0
20.91322	0.006447279	0.144531	0	0	0	0	0	0
20.92976	0.006420964	0.1445128	-0.001590728	-0.001098957	-0.0481274	-0.03324888	0	0
20.94633	0.006420964	0.1445128	0	0	0.04804423	0.03319141	0	0
20.9629	0.006447279	0.1444946	0.001588347	-0.001097312	0.04793642	-0.03311693	0	0
20.97947	0.006447279	0.1444946	0	0	-0.04793642	0.03311693	0	0
20.99628	0.006420964	0.1444764	-0.001564748	-0.001081008	-0.04687075	-0.03238072	0	0
21.0128	0.006420964	0.1444764	0	0	0.04694586	0.0324326	0	0
21.02917	0.006447279	0.1444583	0.001607596	-0.001110609	0.04888881	-0.03377489	0	0
21.04573	0.006447279	0.1444219	0	-0.002195523	-0.04880954	-0.03293996	0	0
21.06233	0.006473594	0.1443674	0.001585637	-0.00328626	0.04781334	-0.03289012	0	0
21.07887	0.006499908	0.1443492	0.001591279	-0.001099337	0.0001702667	0.06600527	0	0
21.09543	0.006526223	0.144331	0.001588347	-0.001097312	-8.854599E-05	6.117231E-05	0	0
21.112	0.006526223	0.1442946	0	-0.002195523	-0.04793642	-0.03314408	0	0
21.12888	0.006552538	0.1442764	0.001559294	-0.001077221	0.04662478	0.03343859	0	0
21.14539	0.006578852	0.1442583	0.001593668	-0.001100988	0.001029547	-0.0007118328	0	0
21.1619	0.006552538	0.1442401	-0.001593668	-0.001100988	-0.09651625	0	0	0
21.17827	0.006578852	0.1442219	0.001607783	-0.001110739	0.09737108	-0.0002965789	0	0
21.19483	0.006578852	0.1442219	0	0	-0.04881806	0.03372601	0	0
21.21144	0.006578852	0.1442219	0	0	0	0	0	0
21.29424	0.006605167	0.1441673	0.0003178085	-0.0006588552	0.003197222	-0.006628224	0	0
21.32737	0.006631482	0.1441492	0.0007941878	-0.0005486559	0.004109043	0.000950532	0	0
21.34403	0.006631482	0.1441492	0	0	-0.01594849	0.01101784	0	0
21.3605	0.006631482	0.1441492	0	0	0	0	0	0
21.37707	0.006631482	0.1441492	0	0	0	0	0	0
21.39364	0.006631482	0.1441492	0	0	0	0	0	0
21.41108	0.006631482	0.1441492	0	0	0	0	0	0
21.42677	0.006631482	0.1441492	0	0	0	0	0	0
21.4436	0.006657796	0.144131	0.00156333	-0.001080028	0.0480668	-0.03320701	0	0
21.4599	0.006657796	0.144131	0	0	-0.04718411	0.0325972	0	0
21.47663	0.006657796	0.144131	0	0	0	0	0	0
21.49314	0.006657796	0.144131	0	0	0	0	0	0
21.50965	0.006657796	0.1440946	0	-0.002202623	0	-0.06669413	0	0
21.54768	0.006684111	0.1440764	0.0006920338	-0.0004780924	0.01268885	0.0316203	0	0
21.56406	0.006710425	0.1440583	0.001606099	-0.001109575	0.01679987	-0.01160621	0	0
21.5812	0.00673674	0.1440401	0.00153532	-0.001060678	-0.002111304	0.001458596	0	0
21.59721	0.00673674	0.1440401	0	0	-0.04631206	0.03199474	0	0
21.61376	0.006710425	0.1440219	-0.001590178	-0.001098577	-0.04883787	-0.0337397	0	0
21.63033	0.00673674	0.1440037	0.00158853	-0.001098338	0.09599441	7.214109E-06	0	0
21.64689	0.00673674	0.1440037	0	0	-0.0479447	0.0331498	0	0
21.66346	0.006763055	0.1439855	0.001588376	-0.001097312	0.04793727	-0.03311693	0	0
21.68003	0.00678937	0.1439673	0.001588347	-0.001097312	-8.50248E-07	0	0	0
21.69678	0.006763055	0.1439492	-0.001570627	-0.001085069	-0.09480323	0.0003673988	0	0
21.71316	0.00678937	0.143931	0.001606473	-0.001110743	0.09588505	-0.0007748324	0	0
21.72973	0.006841999	0.1438946	0.003176695	-0.002194623	0.04765826	-0.03289716	0	0
21.7463	0.006894628	0.1438582	0.003176695	-0.002195523	0	-2.714469E-05	0	0
21.77943	0.007420917	0.1434582	0.01588343	-0.01207313	0.2556601	-0.1987378	0	0
21.79985	0.008105085	0.1429854	0.03349845	-0.02315004	0.328894	-0.2068195	0	0
21.81642	0.009631281	0.1419305	0.09212135	-0.06367376	1.584783	-1.095499	0	0
21.83299	0.01021017	0.1414939	0.0349419	-0.02635077	-1.725679	1.12641	0	0
21.84956	0.01021017	0.1414939	0	0	-1.054549	0.7952679	0	0
21.86612	0.01021017	0.1414939	0	0	0	0	0	0
21.88269	0.01018386	0.1414757	-0.001588418	-0.001098338	-0.04794131	-0.0331498	0	0
21.89943	0.01018386	0.1414757	0	0	0.04769421	0.03297894	0	0
21.91594	0.01018386	0.1414757	0	0	0	0	0	0
21.93295	0.01015755	0.1414575	-0.001546452	-0.001069282	-0.04612506	-0.0318928	0	0
21.94896	0.01015755	0.1414575	0	0	0.04683648	0.0323847	0	0
21.96552	0.01015755	0.1414575	0	0	0	0	0	0
21.98209	0.01015755	0.1414575	0	0	0	0	0	0
21.99866	0.01015755	0.1414575	0	0	0	0	0	0
22.01522	0.01015755	0.1414575	0	0	0	0	0	0
22.08149	0.01015755	0.1414575	0	0	0	0	0	0
22.09806	0.01015755	0.1414575	0	0	0	0	0	0
22.11462	0.01015755	0.1414575	0	0	0	0	0	0
22.13119	0.01013123	0.1414394	-0.001588052	-0.001097185	-0.04793303	-0.03311693	0	0
22.14775	0.01013123	0.1414394	0	0	0.04792751	0.03311312	0	0
22.16432	0.01013123	0.1414394	0	0	0	0	0	0
22.18089	0.01013123	0.1414394	0	0	0	0	0	0
22.19765	0.01013123	0.1414394	0	0	0	0	0	0
22.21402	0.01013123	0.1414394	0	0	0	0	0	0
22.23059	0.01013123	0.1414394	0	0	0	0	0	0
22.24716	0.01013123	0.1414394	0	0	0	0	0	0
22.26372	0.01013123	0.1414394	0	0	0	0	0	0
22.28029	0.01013123	0.1414394	0	0	0	0	0	0
22.31343	0.01013123	0.1414394	0	0	0	0	0	0
22.32999	0.01013123	0.1414394	0	0	0	0	0	0
22.34675	0.01013123	0.1414394	0	0	0	0	0	0
22.36312	0.01013123	0.1414394	0	0	0	0	0	0
22.37977	0.01013123	0.1414394	0	0	0	0	0	0
22.39628	0.01013123	0.1414394	0	0	0	0	0	0
22.41282	0.01013123	0.1414394	0	0	0	0	0	0
22.43401	0.01013123	0.1414394	0	0	0	0	0	0
22.45057	0.01013123	0.1414394	0	0	0	0	0	0
22.46714	0.01013123	0.1414394	0	0	0	0	0	0
22.48371	0.01013123	0.1414394	0	0	0	0	0	0
22.50028	0.01013123	0.1414394	0	0	0	0	0	0
22.51684	0.01013123	0.1414394	0	0	0	0	0	0
22.53341	0.01013123	0.1414394	0	0	0	0	0	0
22.54998	0.01013123	0.1414394	0	0	0	0	0	0
22.56655	0.01013123	0.1414394	0	0	0	0	0	0
22.58311	0.01013123	0.1414394	0	0	0	0	0	0
22.59968	0.01013123	0.1414394	0	0	0	0	0	0
22.61625	0.01013123	0.1414394	0	0	0	0	0	0
22.63281	0.01013123	0.1414394	0	0	0	0	0	0
22.64938	0.01013123	0.1414394	0	0	0	0	0	0
22.66595	0.01010492	0.1414575	-0.001588108	0.001097185	-0.04792645	0.03311121	0	0
22.68251	0.01010492	0.1414575	0	0	0.04793197	-0.03311503	0	0
22.69908	0.01010492	0.1414575	0	0	0	0	0	0
22.71565	0.01010492	0.1414575	0	0	0	0	0	0
22.73222	0.01010492	0.1414575	0	0	0	0	0	0
22.74878	0.01010492	0.1414575	0	0	0	0	0	0
22.76535	0.01010492	0.1414575	0	0	0	0	0	0
22.82632	0.01013123	0.1414394	0.0004315669	-0.0002981591	0.005565635	-0.003845162	0	0
22.84289	0.01013123	0.1414394	0	0	-0.005565635	0.003845162	0	0
22.85946	0.01013123	0.1414394	0	0	0	0	0	0
22.87603	0.01013123	0.1414394	0	0	0	0	0	0
22.8926	0.01013123	0.1414394	0	0	0	0	0	0
22.90916	0.01013123	0.1414394	0	0	0	0	0	0
22.92573	0.01013123	0.1414394	0	0	0	0	0	0
22.94269	0.01013123	0.1414394	0	0	0	0	0	0
22.95886	0.01013123	0.1414394	0	0	0	0	0	0
22.9757	0.01013123	0.1414394	0	0	0	0	0	0
22.992	0.01013123	0.1414394	0	0	0	0	0	0
23.00923	0.01013123	0.1414394	0	0	0	0	0	0
23.02513	0.01013123	0.1414394	0	0	0	0	0	0
23.04175	0.01013123	0.1414394	0	0	0	0	0	0
23.0914	0.01013123	0.1414394	0	0	0	0	0	0
23.12453	0.01013123	0.1414394	0	0	0	0	0	0
23.1411	0.01013123	0.1414394	0	0	0	0	0	0
23.15767	0.01013123	0.1414394	0	0	0	0	0	0
23.17423	0.01013123	0.1414394	0	0	0	0	0	0
23.1908	0.01013123	0.1414394	0	0	0	0	0	0
23.20737	0.01010492	0.1414212	-0.001588291	-0.001098211	-0.04793473	-0.03314408	0	0
23.22393	0.01010492	0.1414212	0	0	0.04793749	0.03314599	0	0
23.24089	0.01010492	0.1414212	0	0	0	0	0	0
23.25707	0.01010492	0.1414212	0	0	0	0	0	0
23.27363	0.01010492	0.1414212	0	0	0	0	0	0
23.29043	0.01010492	0.1414212	0	0	0	0	0	0
23.30694	0.01010492	0.1414212	0	0	0	0	0	0
23.32345	0.01010492	0.1414212	0	0	0	0	0	0
23.33996	0.01010492	0.1414212	0	0	0	0	0	0
23.35648	0.01010492	0.1414212	0	0	0	0	0	0
23.3925	0.01010492	0.1414212	0	0	0	0	0	0
23.40901	0.01010492	0.1414212	0	0	0	0	0	0
23.42553	0.01010492	0.1414212	0	0	0	0	0	0
23.44204	0.01010492	0.1414212	0	0	0	0	0	0
23.45859	0.01010492	0.1414212	0	0	0	0	0	0
23.47516	0.01010492	0.1414212	0	0	0	0	0	0
23.49173	0.01010492	0.1414212	0	0	0	0	0	0
23.5083	0.01007861	0.141403	-0.001588235	-0.001098211	-0.04793303	-0.03314408	0	0
23.5251	0.01007861	0.141403	0	0	0.04759059	0.0329073	0	0
23.54143	0.01007861	0.141403	0	0	0	0	0	0
23.558	0.01007861	0.141403	0	0	0	0	0	0
23.57456	0.01007861	0.141403	0	0	0	0	0	0
23.59113	0.01007861	0.141403	0	0	0	0	0	0
23.6077	0.01007861	0.141403	0	0	0	0	0	0
23.62427	0.01007861	0.141403	0	0	0	0	0	0
23.64083	0.01007861	0.141403	0	0	0	0	0	0
23.6574	0.01007861	0.141403	0	0	0	0	0	0
23.67397	0.01007861	0.141403	0	0	0	0	0	0
23.69053	0.01007861	0.141403	0	0	0	0	0	0
23.70723	0.01007861	0.141403	0	0	0	0	0	0
23.72367	0.01007861	0.141403	0	0	0	0	0	0
23.74023	0.01007861	0.141403	0	0	0	0	0	0
23.7568	0.01007861	0.141403	0	0	0	0	0	0
23.77337	0.01007861	0.141403	0	0	0	0	0	0
23.78993	0.01007861	0.141403	0	0	0	0	0	0
23.8065	0.01007861	0.141403	0	0	0	0	0	0
23.82307	0.01007861	0.141403	0	0	0	0	0	0
23.83964	0.01007861	0.141403	0	0	0	0	0	0
23.8562	0.01007861	0.141403	0	0	0	0	0	0
23.87285	0.01007861	0.141403	0	0	0	0	0	0
23.88934	0.01007861	0.141403	0	0	0	0	0	0
23.9059	0.01007861	0.141403	0	0	0	0	0	0
23.92247	0.01007861	0.141403	0	0	0	0	0	0
23.9394	0.01007861	0.141403	0	0	0	0	0	0
23.9556	0.01007861	0.141403	0	0	0	0	0	0
23.97217	0.01007861	0.141403	0	0	0	0	0	0
23.98874	0.01007861	0.141403	0	0	0	0	0	0
24.0053	0.01007861	0.141403	0	0	0	0	0	0
24.02187	0.01007861	0.141403	0	0	0	0	0	0
24.03844	0.01007861	0.141403	0	0	0	0	0	0
24.055	0.01007861	0.141403	0	0	0	0	0	0
24.07157	0.01007861	0.141403	0	0	0	0	0	0
24.08814	0.01007861	0.141403	0	0	0	0	0	0
24.10471	0.01007861	0.141403	0	0	0	0	0	0
24.12127	0.01007861	0.141403	0	0	0	0	0	0
24.13784	0.01007861	0.141403	0	0	0	0	0	0
24.15441	0.01007861	0.141403	0	0	0	0	0	0
24.17107	0.01007861	0.141403	0	0	0	0	0	0
24.18754	0.01007861	0.141403	0	0	0	0	0	0
24.20411	0.01007861	0.141403	0	0	0	0	0	0
24.22067	0.01007861	0.141403	0	0	0	0	0	0
24.23724	0.01007861	0.141403	0	0	0	0	0	0
24.25381	0.01007861	0.141403	0	0	0	0	0	0
24.27279	0.01007861	0.141403	0	0	0	0	0	0
24.28965	0.01007861	0.141403	0	0	0	0	0	0
24.30593	0.01007861	0.141403	0	0	0	0	0	0
24.32249	0.01007861	0.141403	0	0	0	0	0	0
24.33906	0.01005229	0.1413848	-0.001588291	-0.001098211	-0.04793473	-0.03314408	0	0
24.3557	0.01005229	0.1413848	0	0	0.0478301	0.03307174	0	0
24.37219	0.01005229	0.1413848	0	0	0	0	0	0
24.38876	0.01005229	0.1413848	0	0	0	0	0	0
24.40533	0.01005229	0.1413848	0	0	0	0	0	0
24.42189	0.01005229	0.1413848	0	0	0	0	0	0
24.43876	0.01005229	0.1413848	0	0	0	0	0	0
24.45527	0.01005229	0.1413848	0	0	0	0	0	0
24.4716	0.01005229	0.1413848	0	0	0	0	0	0
24.48816	0.01005229	0.1413848	0	0	0	0	0	0
24.50473	0.01005229	0.1413848	0	0	0	0	0	0
24.5213	0.01005229	0.1413848	0	0	0	0	0	0
24.53786	0.01005229	0.1413848	0	0	0	0	0	0
24.55443	0.01005229	0.1413848	0	0	0	0	0	0
24.571	0.01005229	0.1413848	0	0	0	0	0	0
24.58757	0.01005229	0.1413848	0	0	0	0	0	0
24.65392	0.01005229	0.1413848	0	0	0	0	0	0
24.6704	0.01005229	0.1413848	0	0	0	0	0	0
24.68697	0.01005229	0.1413848	0	0	0	0	0	0
24.70354	0.01005229	0.1413848	0	0	0	0	0	0
24.7201	0.01005229	0.1413848	0	0	0	0	0	0
24.73667	0.01005229	0.1413848	0	0	0	0	0	0
24.75324	0.01005229	0.1413848	0	0	0	0	0	0
24.7698	0.01005229	0.1413848	0	0	0	0	0	0
24.78651	0.01005229	0.1413848	0	0	0	0	0	0
24.81954	0.01005229	0.1413848	0	0	0	0	0	0
24.83607	0.01005229	0.1413848	0	0	0	0	0	0
24.85264	0.01005229	0.1413848	0	0	0	0	0	0
24.8692	0.01005229	0.1413848	0	0	0	0	0	0
24.88577	0.01005229	0.1413848	0	0	0	0	0	0
24.90234	0.01005229	0.1413848	0	0	0	0	0	0
24.91891	0.01005229	0.1413848	0	0	0	0	0	0
24.93547	0.01005229	0.1413848	0	0	0	0	0	0
24.95204	0.01005229	0.1413848	0	0	0	0	0	0
24.96861	0.01005229	0.1413848	0	0	0	0	0	0
24.98517	0.01005229	0.1413848	0	0	0	0	0	0
25.00174	0.01005229	0.1413848	0	0	0	0	0	0
25.01831	0.01005229	0.1413848	0	0	0	0	0	0
25.03488	0.01005229	0.1413848	0	0	0	0	0	0
25.05171	0.01005229	0.1413848	0	0	0	0	0	0
25.06822	0.01005229	0.1413848	0	0	0	0	0	0
25.08458	0.01005229	0.1413848	0	0	0	0	0	0
25.10114	0.01005229	0.1413848	0	0	0	0	0	0
25.11771	0.01005229	0.1413848	0	0	0	0	0	0
25.15478	0.009973354	0.1414394	-0.002129385	0.00147238	-0.03969884	0.02745009	0	0
25.17129	0.009683908	0.1416395	-0.01753153	0.01211948	-0.2874541	0.1987095	0	0
25.18779	0.008999757	0.1421124	-0.04145769	0.02865848	-0.7247629	0.5009935	0	0
25.20436	0.005342055	0.1446764	-0.2207794	0.1547659	-5.422552	3.813394	0	0
25.22093	0.001105263	0.1477117	-0.2557333	0.1832115	-1.054911	0.8584886	0	0
25.23749	-0.01315714	0.1575881	-0.8609792	0.5962067	-18.26741	12.46494	0	0
25.25406	-0.03269887	0.1710872	-1.179541	0.8148097	-9.614771	6.597834	0	0
25.27063	-0.04932837	0.1825707	-1.003759	0.6931404	5.305114	-3.671988	0	0
25.2872	-0.06669043	0.1945218	-1.047976	0.7213746	-1.334468	0.8521094	0	0
25.30389	-0.08362034	0.2061835	-1.014301	0.6986701	1.01252	-0.6826665	0	0
25.37003	-0.1448469	0.248551	-0.9256684	0.6405437	1.070001	-0.7017201	0	0
25.3866	-0.1548298	0.2555056	-0.602569	0.4197793	3.9064	-2.669129	0	0
25.40316	-0.1611432	0.2599129	-0.3810793	0.2660261	6.684572	-4.64028	0	0
25.41973	-0.1730669	0.2682576	-0.7197187	0.5036895	-10.22016	7.172693	0	0
25.4363	-0.1810482	0.2738599	-0.4817495	0.3381519	7.181923	-4.995934	0	0
25.45287	-0.1898946	0.2800862	-0.5339699	0.3758221	-1.576013	1.136889	0	0
25.46943	-0.1981293	0.285899	-0.4970454	0.3508591	1.114384	-0.7533837	0	0
25.48602	-0.2040162	0.2900652	-0.3548898	0.2511552	4.287549	-3.007167	0	0
25.50257	-0.2089321	0.2935513	-0.2971344	0.2107123	1.743162	-1.220639	0	0
25.51954	-0.2127318	0.2962504	-0.2238325	0.1590028	2.186827	-1.542658	0	0
25.5357	-0.2171275	0.2993424	-0.2720633	0.191368	-1.455692	0.9768386	0	0
25.55227	-0.2174538	0.2995747	-0.01969045	0.014024	7.712074	-5.419322	0	0
25.56883	-0.2174538	0.2995747	0	0	0.594259	-0.4232453	0	0
25.58559	-0.2174788	0.2995568	-0.001496692	-0.00106716	-0.04491429	-0.03202445	0	0
25.60196	-0.2174788	0.2995568	0	0	0.04517285	0.0322088	0	0
25.61861	-0.2174788	0.2995568	0	0	0	0	0	0
25.63513	-0.2174788	0.2995568	0	0	0	0	0	0
25.65166	-0.2174788	0.2995568	0	0	0	0	0	0
25.68516	-0.2174036	0.2995032	0.00224695	-0.001600579	0.04490714	-0.03198889	0	0
25.70137	-0.2174036	0.2994675	0	-0.002205082	-0.04520873	-0.01216261	0	0
25.71793	-0.2173785	0.2994496	0.00151465	-0.001079323	0.04621772	0.03435117	0	0
25.7345	-0.2173032	0.299396	0.00454395	-0.00323617	0.09142445	-0.06509378	0	0
25.75121	-0.2171526	0.2992887	0.009012159	-0.006418398	0.1342865	-0.09563795	0	0
25.76763	-0.2167762	0.2989849	0.02291679	-0.01849527	0.4196667	-0.3645017	0	0
25.78423	-0.2165252	0.2988062	0.01512314	-0.010768	-0.2360007	0.2339907	0	0
25.80077	-0.2165001	0.2987526	0.001517445	-0.003242142	-0.4106207	0.2271308	0	0
25.81734	-0.2164499	0.2987168	0.0030302	-0.002158646	0.0456971	0.03273013	0	0
25.8339	-0.2163746	0.2986632	0.004545749	-0.00323617	0.04573936	-0.03251974	0	0
25.85047	-0.2163495	0.2986096	0.001515549	-0.00323617	-0.09145159	0	0	0
25.86704	-0.2163244	0.2985918	0.00151465	-0.001077524	-2.714469E-05	0.06514806	0	0
25.8838	-0.2162993	0.2985739	0.001497448	-0.001066432	-0.0005160486	0.000332765	0	0
25.90017	-0.2162993	0.2985739	0	0	-0.04519567	0.03218682	0	0
25.91683	-0.2162993	0.2985739	0	0	0	0	0	0
25.93334	-0.2162993	0.2985739	0	0	0	0	0	0
25.94987	-0.2162993	0.2985739	0	0	0	0	0	0
25.96644	-0.2162993	0.2985739	0	0	0	0	0	0
25.983	-0.2162993	0.2985739	0	0	0	0	0	0
25.99957	-0.2162993	0.2985739	0	0	0	0	0	0
26.0164	-0.2162993	0.2985739	0	0	0	0	0	0
26.03292	-0.2162993	0.2985739	0	0	0	0	0	0
26.04927	-0.2162993	0.2985739	0	0	0	0	0	0
26.06594	-0.2162993	0.2985381	0	-0.002144257	0	-0.06493809	0	0
26.08485	-0.2162491	0.2985024	0.002654328	-0.001890883	0.07460634	0.007121684	0	0
26.10146	-0.2161738	0.2984488	0.00453412	-0.003227253	0.05291274	-0.03761638	0	0
26.11798	-0.2159227	0.29827	0.01519568	-0.01081772	0.3217666	-0.2290809	0	0
26.13455	-0.2158474	0.2982164	0.004546648	-0.00323617	-0.3218331	0.2291283	0	0
26.15112	-0.2155209	0.2979484	0.01970394	-0.01618085	0.457448	-0.3906712	0	0
26.16768	-0.2146418	0.2973228	0.05306222	-0.03775832	1.006755	-0.6512092	0	0
26.18425	-0.2129581	0.2961253	0.1016453	-0.07229239	1.466323	-1.0423	0	0
26.20082	-0.2118768	0.2953567	0.06526666	-0.0463911	-1.097972	0.7817473	0	0
26.21738	-0.2103168	0.2942127	0.09415834	-0.06905329	0.8719527	-0.6839462	0	0
26.23395	-0.2063872	0.2913882	0.2371911	-0.1704863	4.316738	-3.061253	0	0
26.25057	-0.2004807	0.2871328	0.3554961	-0.2561165	3.56532	-2.580613	0	0
26.26709	-0.1959781	0.283592	0.272558	-0.2143445	-2.503076	1.260684	0	0
26.28365	-0.1919241	0.2795853	0.2447341	-0.24187	-0.8409868	-0.8319659	0	0
26.30022	-0.1867204	0.2740209	0.3140938	-0.3358673	2.0934	-2.83701	0	0
26.31679	-0.182092	0.2697255	0.2793729	-0.2592714	-1.04788	2.311671	0	0
26.33335	-0.1736542	0.2637277	0.5093633	-0.3620682	6.941525	-3.102594	0	0
26.34992	-0.1689272	0.2603786	0.28532	-0.2021536	-6.762031	4.826511	0	0
26.36649	-0.1637316	0.2567061	0.3136108	-0.2216732	0.8538192	-0.5891013	0	0
26.39968	-0.1296373	0.2328154	1.027252	-0.7198199	14.34254	-10.01159	0	0
26.41619	-0.1200774	0.2261873	0.5790339	-0.4014601	-9.018522	6.405657	0	0
26.43275	-0.1053194	0.2159754	0.8907977	-0.6163942	9.425327	-6.497945	0	0
26.44932	-0.08586729	0.2025805	1.174131	-0.8085146	8.55101	-5.798204	0	0
26.46622	-0.07273985	0.1935297	0.7767244	-0.5355217	-11.87413	8.156774	0	0
26.48273	-0.05798755	0.1833656	0.8934339	-0.6155586	3.492943	-2.395386	0	0
26.49924	-0.04901335	0.1772202	0.5434985	-0.3721789	-10.59645	7.369817	0	0
26.51559	-0.03984732	0.1709424	0.5608822	-0.3841474	0.5291183	-0.3642915	0	0
26.56529	-0.03035909	0.164586	0.1908889	-0.1278822	-5.601914	3.880004	0	0
26.58185	-0.029991	0.1643685	0.02222543	-0.0131291	-2.545209	1.731677	0	0
26.59882	-0.02985954	0.1643504	0.007750346	-0.001068256	-0.4317883	0.3597723	0	0
26.61499	-0.02980696	0.1643504	0.003251868	0	-0.1357722	0.03224188	0	0
26.63155	-0.0296755	0.1643323	0.007935048	-0.001093714	0.1430515	-0.03340836	0	0
26.64812	-0.02946515	0.1641873	0.01269632	-0.008749712	0.1436956	-0.2310585	0	0
26.66469	-0.02914964	0.1640061	0.01904465	-0.01093714	0.191593	-0.06601671	0	0
26.68137	-0.02893929	0.1639699	0.01260679	-0.002171925	-0.1936042	0.263594	0	0
26.69789	-0.02830823	0.1637162	0.03821848	-0.01536419	0.771497	-0.3973885	0	0
26.71439	-0.02778232	0.1634263	0.03186831	-0.01757	-0.1923462	-0.06681366	0	0
26.73096	-0.02128626	0.1593837	0.3921032	-0.2440116	10.89323	-6.847421	0	0
26.74752	-0.01399909	0.1550843	0.4398546	-0.2595115	1.44114	-0.4677903	0	0
26.76409	-0.01044699	0.1544128	0.214405	-0.04053128	-6.804082	6.608837	0	0
26.78066	-0.006973571	0.1543039	0.2096559	-0.006573077	-0.1433305	1.024861	0	0
26.79722	-0.00678937	0.1542131	0.01111971	-0.005478195	-5.992178	0.0330455	0	0
26.81397	-0.00678937	0.1542131	0	0	-0.3337875	0.1644425	0	0
26.83036	-0.00678937	0.1542131	0	0	0	0	0	0
26.847	-0.00678937	0.1542131	0	0	0	0	0	0
26.86349	-0.006815684	0.154195	-0.001595511	-0.001100454	-0.0481554	-0.03321368	0	0
26.88006	-0.006841999	0.1542131	-0.001588347	0.001095513	0.0002166919	0.06642354	0	0
26.89662	-0.006841999	0.1542131	0	0	0.04793642	-0.03306264	0	0
26.91319	-0.006868313	0.1542313	-0.001588347	0.001095513	-0.04793642	0.03306264	0	0
26.93056	-0.006868313	0.1542313	0	0	0.04681009	-0.03228579	0	0
26.94633	-0.006920942	0.1542313	-0.003337297	0	-0.1007198	0	0	0
26.96289	-0.006920942	0.1542313	0	0	0.1032092	0	0	0
26.98252	-0.006920942	0.1542313	0	0	0	0	0	0
26.99909	-0.006947257	0.1542131	-0.001588165	-0.001095387	-0.04387016	-0.03025807	0	0
27.01567	-0.006947257	0.1542131	0	0	0.04790884	0.03304362	0	0
27.03222	-0.006973571	0.154195	-0.001589812	-0.001096523	-0.04798337	-0.03309503	0	0
27.04879	-0.006973571	0.154195	0	0	0.04800272	0.03310837	0	0
27.06536	-0.006999886	0.1541768	-0.001588347	-0.001095513	-0.04793642	-0.03306264	0	0
27.08193	-0.0070262	0.1541587	-0.001588347	-0.001095513	0	0	0	0
27.09849	-0.007052515	0.1541405	-0.001588347	-0.001095513	0	0	0	0
27.11506	-0.007052515	0.1541405	0	0	0.04793642	0.03306264	0	0
27.13163	-0.007078829	0.1541224	-0.001588347	-0.001095513	-0.04793642	-0.03306264	0	0
27.14821	-0.007105144	0.1541042	-0.001586886	-0.001094505	4.408719E-05	3.040871E-05	0	0
27.16476	-0.007105144	0.1541042	0	0	0.04789231	0.03303222	0	0
27.18133	-0.007131458	0.1541224	-0.001588347	0.001095513	-0.04795851	0.03307788	0	0
27.1979	-0.007157772	0.1541042	-0.001588319	-0.001095513	8.467346E-07	-0.06612529	0	0
27.21446	-0.007184087	0.1541224	-0.001588347	0.001095513	-8.467346E-07	0.06612529	0	0
27.23103	-0.007184087	0.1541224	0	0	0.04793642	-0.03306264	0	0
27.2476	-0.007210401	0.1541042	-0.001588347	-0.001095513	-0.04793642	-0.03306264	0	0
27.26417	-0.007236716	0.1540861	-0.001588347	-0.001095513	0	0	0	0
27.28073	-0.00726303	0.1540679	-0.001588347	-0.001095513	0	0	0	0
27.2973	-0.007289344	0.1540498	-0.001588502	-0.001095639	-4.673119E-06	-3.808768E-06	0	0
27.31387	-0.007315659	0.1540316	-0.001588347	-0.001095513	4.673119E-06	3.808768E-06	0	0
27.33043	-0.007341973	0.1540135	-0.001588347	-0.001096412	0	-2.714469E-05	0	0
27.347	-0.007368288	0.1539953	-0.001588319	-0.001095513	8.467346E-07	2.714469E-05	0	0
27.36357	-0.007368288	0.1539953	0	0	0.04793558	0.03306264	0	0
27.38013	-0.007394602	0.1539772	-0.00158853	-0.001095639	-0.0479447	-0.03306836	0	0
27.3967	-0.007394602	0.1539772	0	0	0.0479447	0.03306836	0	0
27.41327	-0.007394602	0.1539772	0	0	0	0	0	0
27.42992	-0.007420917	0.153959	-0.001580523	-0.001090116	-0.04758251	-0.03281854	0	0
27.4464	-0.007420917	0.153959	0	0	0.04770303	0.03290167	0	0
27.46297	-0.007420917	0.153959	0	0	0	0	0	0
27.47953	-0.007420917	0.1539227	0	-0.002191026	0	-0.06612529	0	0
27.4961	-0.007394602	0.1539046	0.001588347	-0.001095513	0.04793642	0.03306264	0	0
27.51267	-0.007394602	0.1539046	0	0	-0.04793642	0.03306264	0	0
27.52924	-0.007420917	0.1538864	-0.001588347	-0.001095513	-0.04793642	-0.03306264	0	0
27.5458	-0.007447231	0.1538683	-0.001588319	-0.001095513	8.467346E-07	0	0	0
27.56237	-0.007447231	0.1538683	0	0	0.04793558	0.03306264	0	0
27.57902	-0.007447231	0.1538683	0	0	0	0	0	0
27.59553	-0.007473545	0.1538501	-0.001593852	-0.00109931	-0.04806106	-0.03314861	0	0
27.61207	-0.007473545	0.1538501	0	0	0.04823027	0.03326532	0	0
27.62864	-0.007499859	0.153832	-0.001588319	-0.001096412	-0.04797976	-0.03312029	0	0
27.6452	-0.007499859	0.153832	0	0	0.04793558	0.03308979	0	0
27.66177	-0.007499859	0.153832	0	0	0	0	0	0
27.6786	-0.007499859	0.153832	0	0	0	0	0	0
27.69511	-0.007499859	0.153832	0	0	0	0	0	0
27.71162	-0.007499859	0.153832	0	0	0	0	0	0
27.72813	-0.007499859	0.153832	0	0	0	0	0	0
27.7446	-0.007499859	0.153832	0	0	0	0	0	0
27.76117	-0.007499859	0.153832	0	0	0	0	0	0
27.77818	-0.007499859	0.153832	0	0	0	0	0	0
27.79812	-0.007499859	0.1537957	0	-0.001820301	0	-0.04926249	0	0
27.81469	-0.007499859	0.1537957	0	0	0	0.04985958	0	0
27.83126	-0.007499859	0.1537957	0	0	0	0	0	0
27.84782	-0.007499859	0.1537957	0	0	0	0	0	0
27.86439	-0.007499859	0.1537957	0	0	0	0	0	0
27.89775	-0.007499859	0.1537957	0	0	0	0	0	0
27.91426	-0.007499859	0.1537957	0	0	0	0	0	0
27.93078	-0.007499859	0.1537957	0	0	0	0	0	0
27.94723	-0.007499859	0.1537957	0	0	0	0	0	0
27.96379	-0.007473545	0.1537775	0.001588319	-0.001095513	0.04810727	-0.03318107	0	0
27.98036	-0.007473545	0.1537775	0	0	-0.04793558	0.03306264	0	0
27.99693	-0.007473545	0.1537775	0	0	0	0	0	0
28.0135	-0.007473545	0.1537775	0	0	0	0	0	0
28.03006	-0.007473545	0.1537412	0	-0.002191278	0	-0.06614052	0	0
28.04663	-0.007473545	0.1537412	0	0	0	0.0661253	0	0
28.06338	-0.007473545	0.1537412	0	0	0	0	0	0
28.07989	-0.007447231	0.1537231	0.001593668	-0.001099183	0.04792596	-0.03305543	0	0
28.1129	-0.007447231	0.1537231	0	0	-0.032182	0.02219652	0	0
28.12946	-0.007447231	0.1537231	0	0	0	0	0	0
28.1626	-0.007420917	0.1537049	0.0007940683	-0.0005476934	0.01597546	-0.01101877	0	0
28.17916	-0.007394602	0.1536868	0.001588896	-0.001096791	0.01599259	-0.01104829	0	0
28.19573	-0.007394602	0.1536868	0	0	-0.04796403	0.03310885	0	0
28.21248	-0.007420917	0.1536686	-0.001570806	-0.001083414	-0.04714647	-0.0325178	0	0
28.26746	-0.007420917	0.1536686	0	0	0.02189781	0.01510332	0	0
28.28403	-0.007420917	0.1536686	0	0	0	0	0	0
28.3503	-0.007420917	0.1536686	0	0	0	0	0	0
28.38343	-0.007447231	0.1536505	-0.0007942054	-0.000547788	-0.007989876	-0.005510864	0	0
28.4	-0.007447231	0.1536505	0	0	0.01598006	0.01102194	0	0
28.41662	-0.007447231	0.1536505	0	0	0	0	0	0
28.43314	-0.007447231	0.1536505	0	0	0	0	0	0
28.4497	-0.007473545	0.1536323	-0.001588896	-0.001095891	-0.04804148	-0.0331351	0	0
28.46626	-0.007473545	0.1536323	0	0	0.04796127	0.03307978	0	0
28.48283	-0.007473545	0.1536323	0	0	0	0	0	0
28.4994	-0.007473545	0.1536323	0	0	0	0	0	0
28.51597	-0.007499859	0.1536505	-0.001588319	0.001095513	-0.04793558	0.03306264	0	0
28.53253	-0.007499859	0.1536505	0	0	0.04793558	-0.03306264	0	0
28.5491	-0.007499859	0.1536505	0	0	0	0	0	0
28.56567	-0.007499859	0.1536505	0	0	0	0	0	0
28.58224	-0.007499859	0.1536505	0	0	0	0	0	0
28.5988	-0.007499859	0.1536505	0	0	0	0	0	0
28.61537	-0.007499859	0.1536505	0	0	0	0	0	0
28.63193	-0.007499859	0.1536505	0	0	0	0	0	0
28.6485	-0.007499859	0.1536505	0	0	0	0	0	0
28.66507	-0.007499859	0.1536505	0	0	0	0	0	0
28.68181	-0.007499859	0.1536505	0	0	0	0	0	0
28.6982	-0.007499859	0.1536505	0	0	0	0	0	0
28.71477	-0.007499859	0.1536505	0	0	0	0	0	0
28.73375	-0.007499859	0.1536505	0	0	0	0	0	0
28.75032	-0.007499859	0.1536505	0	0	0	0	0	0
28.76688	-0.007499859	0.1536505	0	0	0	0	0	0
28.80347	-0.007499859	0.1536505	0	0	0	0	0	0
28.82003	-0.007499859	0.1536505	0	0	0	0	0	0
28.8366	-0.007499859	0.1536505	0	0	0	0	0	0
28.85344	-0.007499859	0.1536505	0	0	0	0	0	0
28.86995	-0.007499859	0.1536505	0	0	0	0	0	0
28.8863	-0.007499859	0.1536142	0	-0.002219388	0	-0.06752544	0	0
28.90287	-0.007499859	0.1536142	0	0	0	0.0674159	0	0
28.91948	-0.007499859	0.1536142	0	0	0	0	0	0
28.936	-0.007526174	0.153596	-0.001593116	-0.001098802	-0.04808311	-0.03316382	0	0
28.95257	-0.007526174	0.153596	0	0	0.04815241	0.03321161	0	0
28.96914	-0.007526174	0.153596	0	0	0	0	0	0
28.98603	-0.007552488	0.1535779	-0.001557127	-0.001073998	-0.04652815	-0.0320919	0	0
29.00227	-0.007552488	0.1535779	0	0	0.04699688	0.0324152	0	0
29.01905	-0.007552488	0.1535779	0	0	0	0	0	0
29.03556	-0.007552488	0.1535779	0	0	0	0	0	0
29.05197	-0.007578802	0.1535597	-0.001604044	-0.001107248	-0.04872994	-0.03363754	0	0
29.06859	-0.007578802	0.1535597	0	0	0.04857233	0.03352875	0	0
29.0851	-0.007578802	0.1535597	0	0	0	0	0	0
29.10167	-0.007578802	0.1535597	0	0	0	0	0	0
29.11825	-0.007578802	0.1535597	0	0	0	0	0	0
29.1348	-0.007605116	0.1535416	-0.0015896	-0.001096396	-0.04797424	-0.03308931	0	0
29.15137	-0.007605116	0.1535416	0	0	0.04799634	0.03310456	0	0
29.20107	-0.007605116	0.1535416	0	0	0	0	0	0
29.2177	-0.007605116	0.1535416	0	0	0	0	0	0
29.23421	-0.007605116	0.1535416	0	0	0	0	0	0
29.25077	-0.007605116	0.1535416	0	0	0	0	0	0
29.26734	-0.007605116	0.1535416	0	0	0	0	0	0
29.28391	-0.007605116	0.1535416	0	0	0	0	0	0
29.31704	-0.007631431	0.1535234	-0.0007941737	-0.0005477564	-0.01597881	-0.01102088	0	0
29.33361	-0.007631431	0.1535234	0	0	0.01597881	0.01102088	0	0
29.35029	-0.007631431	0.1535234	0	0	0	0	0	0
29.3668	-0.007631431	0.1535234	0	0	0	0	0	0
29.38331	-0.007631431	0.1535234	0	0	0	0	0	0
29.39988	-0.007631431	0.1535234	0	0	0	0	0	0
29.41644	-0.007631431	0.1535234	0	0	0	0	0	0
29.43301	-0.007631431	0.1535234	0	0	0	0	0	0
29.44958	-0.007631431	0.1535234	0	0	0	0	0	0
29.46614	-0.007631431	0.1535234	0	0	0	0	0	0
29.48271	-0.007631431	0.1535234	0	0	0	0	0	0
29.49928	-0.007631431	0.1535234	0	0	0	0	0	0
29.51591	-0.007631431	0.1535234	0	0	0	0	0	0
29.53242	-0.007631431	0.1535234	0	0	0	0	0	0
29.54897	-0.007631431	0.1535234	0	0	0	0	0	0
29.56554	-0.007657745	0.1535053	-0.001588502	-0.001095639	-0.04796871	-0.0330855	0	0
29.58211	-0.007631431	0.1534871	0.001588137	-0.001095387	0.09587115	7.613584E-06	0	0
29.59867	-0.007631431	0.1534871	0	0	-0.04793005	0.03305884	0	0
29.61548	-0.007631431	0.1534871	0	0	0	0	0	0
29.63181	-0.007631431	0.1534871	0	0	0	0	0	0
29.64838	-0.007631431	0.1534508	0	-0.002191925	0	-0.06663574	0	0
29.66502	-0.007631431	0.1534508	0	0	0	0.06599668	0	0
29.68153	-0.007631431	0.1534508	0	0	0	0	0	0
29.70054	-0.007631431	0.1534508	0	0	0	0	0	0
29.71711	-0.007631431	0.1534508	0	0	0	0	0	0
29.73368	-0.007631431	0.1534508	0	0	0	0	0	0
29.75024	-0.007631431	0.1534508	0	0	0	0	0	0
29.76681	-0.007631431	0.1534508	0	0	0	0	0	0
29.78337	-0.007657745	0.1534326	-0.001588319	-0.001095513	-0.04793558	-0.03306264	0	0
29.79994	-0.007657745	0.1534326	0	0	0.04793558	0.03306264	0	0
29.81651	-0.007657745	0.1534326	0	0	0	0	0	0
29.91591	-0.007657745	0.1534326	0	0	0	0	0	0
29.93248	-0.007657745	0.1534326	0	0	0	0	0	0
29.94904	-0.007657745	0.1534326	0	0	0	0	0	0
29.96561	-0.007631431	0.1534145	0.001588319	-0.001095513	0.04793834	-0.03306455	0	0
29.98218	-0.007631431	0.1534145	0	0	-0.04793558	0.03306264	0	0
29.99876	-0.007631431	0.1534145	0	0	0	0	0	0
30.01531	-0.007657745	0.1533963	-0.0015896	-0.001096396	-0.047977	-0.03309122	0	0
30.03188	-0.007657745	0.1533963	0	0	0.04799357	0.03310265	0	0
30.04844	-0.007657745	0.1533963	0	0	0	0	0	0
30.06501	-0.007657745	0.1533963	0	0	0	0	0	0
30.08158	-0.007657745	0.1533963	0	0	0	0	0	0
30.09814	-0.007657745	0.1533963	0	0	0	0	0	0
30.14786	-0.007657745	0.1533963	0	0	0	0	0	0
30.16441	-0.007657745	0.1533963	0	0	0	0	0	0
30.18098	-0.007657745	0.1533963	0	0	0	0	0	0
30.19755	-0.007657745	0.1533963	0	0	0	0	0	0
30.21411	-0.007657745	0.15336	0	-0.002191925	0	-0.06615243	0	0
30.23068	-0.007657745	0.15336	0	0	0	0.06615243	0	0
30.24725	-0.007657745	0.15336	0	0	0	0	0	0
30.26381	-0.007657745	0.15336	0	0	0	0	0	0
30.28046	-0.007657745	0.15336	0	0	0	0	0	0
30.29697	-0.007657745	0.15336	0	0	0	0	0	0
30.31351	-0.007657745	0.15336	0	0	0	0	0	0
30.33008	-0.007657745	0.15336	0	0	0	0	0	0
30.34665	-0.007657745	0.15336	0	0	0	0	0	0
30.36321	-0.007657745	0.15336	0	0	0	0	0	0
30.37978	-0.007657745	0.15336	0	0	0	0	0	0
30.39635	-0.007657745	0.15336	0	0	0	0	0	0
30.41292	-0.007684059	0.1533419	-0.001588347	-0.001095513	-0.04793642	-0.03306264	0	0
30.42957	-0.007657745	0.1533237	0.001580342	-0.001089991	0.09538963	0.0001662171	0	0
30.44608	-0.007657745	0.1533237	0	0	-0.04765367	0.03286763	0	0
30.46262	-0.007657745	0.1533237	0	0	0	0	0	0
30.47918	-0.007657745	0.1533237	0	0	0	0	0	0
30.49575	-0.007657745	0.1533237	0	0	0	0	0	0
30.51232	-0.007684059	0.1533056	-0.001588347	-0.001095513	-0.04793642	-0.03306264	0	0
30.52888	-0.007684059	0.1533056	0	0	0.04793918	0.03306455	0	0
30.54545	-0.007684059	0.1533056	0	0	0	0	0	0
30.56202	-0.007684059	0.1533056	0	0	0	0	0	0
30.57868	-0.007684059	0.1533056	0	0	0	0	0	0
30.59519	-0.007684059	0.1533056	0	0	0	0	0	0
30.61172	-0.007657745	0.1532874	0.001592565	-0.001099323	0.04819965	-0.03327149	0	0
30.66142	-0.007657745	0.1532874	0	0	-0.02404846	0.01660029	0	0
30.67874	-0.007684059	0.1532693	-0.001518757	-0.001047515	-0.02265917	-0.01562845	0	0
30.69455	-0.007684059	0.1532693	0	0	0.04583617	0.03161406	0	0
30.71501	-0.007684059	0.1532693	0	0	0	0	0	0
30.73178	-0.007684059	0.1532693	0	0	0	0	0	0
30.74829	-0.007684059	0.1532693	0	0	0	0	0	0
30.76481	-0.007684059	0.1532693	0	0	0	0	0	0
30.78127	-0.007684059	0.1532693	0	0	0	0	0	0
30.79784	-0.007684059	0.1532693	0	0	0	0	0	0
30.81441	-0.007684059	0.1532693	0	0	0	0	0	0
30.83098	-0.007684059	0.1532693	0	0	0	0	0	0
30.84754	-0.007684059	0.1532693	0	0	0	0	0	0
30.86411	-0.007684059	0.1532693	0	0	0	0	0	0
30.88068	-0.007684059	0.1532693	0	0	0	0	0	0
30.89725	-0.007684059	0.1532693	0	0	0	0	0	0
30.91381	-0.007684059	0.1532693	0	0	0	0	0	0
30.93043	-0.007684059	0.1532693	0	0	0	0	0	0
30.94694	-0.007684059	0.1532693	0	0	0	0	0	0
30.98008	-0.007710373	0.1532511	-0.000794114	-0.0005477249	-0.01599295	-0.01103083	0	0
31.04651	-0.007710373	0.1532511	0	0	0.007975642	0.005501046	0	0
31.06292	-0.007710373	0.1532511	0	0	0	0	0	0
31.07948	-0.007710373	0.1532511	0	0	0	0	0	0
31.09605	-0.007710373	0.1532511	0	0	0	0	0	0
31.11262	-0.007710373	0.1532511	0	0	0	0	0	0
31.12918	-0.007710373	0.1532511	0	0	0	0	0	0
31.14575	-0.007710373	0.1532511	0	0	0	0	0	0
31.16232	-0.007710373	0.1532511	0	0	0	0	0	0
31.17888	-0.007710373	0.1532511	0	0	0	0	0	0
31.19545	-0.007710373	0.1532511	0	0	0	0	0	0
31.21213	-0.007710373	0.1532511	0	0	0	0	0	0
31.22914	-0.007710373	0.1532511	0	0	0	0	0	0
31.24516	-0.007710373	0.1532511	0	0	0	0	0	0
31.26171	-0.007710373	0.1532511	0	0	0	0	0	0
31.27868	-0.007710373	0.1532511	0	0	0	0	0	0
31.29519	-0.007710373	0.1532511	0	0	0	0	0	0
31.31141	-0.007710373	0.1532511	0	0	0	0	0	0
31.32798	-0.007710373	0.1532511	0	0	0	0	0	0
31.34455	-0.007710373	0.1532511	0	0	0	0	0	0
31.36123	-0.007710373	0.1532511	0	0	0	0	0	0
31.37824	-0.007710373	0.1532511	0	0	0	0	0	0
31.39425	-0.007710373	0.1532511	0	0	0	0	0	0
31.41081	-0.007710373	0.1532511	0	0	0	0	0	0
31.42738	-0.007710373	0.1532511	0	0	0	0	0	0
31.46051	-0.007710373	0.1532511	0	0	0	0	0	0
31.47708	-0.007710373	0.1532511	0	0	0	0	0	0
31.49365	-0.007736688	0.153233	-0.001588502	-0.001095639	-0.04794386	-0.03306836	0	0
31.51021	-0.007736688	0.153233	0	0	0.04794386	0.03306836	0	0
31.5297	-0.007736688	0.153233	0	0	0	0	0	0
31.54627	-0.007736688	0.153233	0	0	0	0	0	0
31.56287	-0.007736688	0.153233	0	0	0	0	0	0
31.5794	-0.007736688	0.153233	0	0	0	0	0	0
31.59597	-0.007736688	0.153233	0	0	0	0	0	0
31.61254	-0.007736688	0.153233	0	0	0	0	0	0
31.6291	-0.007736688	0.153233	0	0	0	0	0	0
31.64567	-0.007763002	0.1532148	-0.00158853	-0.001096539	-0.0479447	-0.03309551	0	0
31.66245	-0.007736688	0.1531966	0.001568484	-0.001081813	0.09468479	0.0004416556	0	0
31.67896	-0.007736688	0.1531966	0	0	-0.04711725	0.03249765	0	0
31.69547	-0.007763002	0.1531785	-0.0015933	-0.001098929	-0.04824141	-0.033273	0	0
31.71198	-0.007789316	0.1531603	-0.001594008	-0.001099437	-2.144374E-05	-1.538041E-05	0	0
31.7285	-0.00781563	0.1531422	-0.00159272	-0.00109945	3.899948E-05	-4.053267E-07	0	0
31.7455	-0.00781563	0.1531422	0	0	0.04751318	0.03279821	0	0
31.76202	-0.007841945	0.153124	-0.001593484	-0.001099056	-0.04754679	-0.03279391	0	0
31.7782	-0.007841945	0.1530877	0	-0.002242664	0.04873103	-0.03497319	0	0
31.79504	-0.007868258	0.1530696	-0.00156292	-0.001078899	-0.04732978	0.03524221	0	0
31.81155	-0.007894573	0.1530514	-0.001593852	-0.00109931	-0.0009276031	-0.0006121006	0	0
31.89417	-0.008078772	0.1530333	-0.002229402	-0.0002196691	-0.006411111	0.00887338	0	0
31.91074	-0.008184028	0.1531059	-0.006354009	0.004383455	-0.04158379	0.04640815	0	0
31.92763	-0.009368147	0.1540316	-0.07007781	0.05478803	-1.904333	1.506299	0	0
31.94387	-0.01220992	0.1575881	-0.1750155	0.2190299	-3.167027	4.95683	0	0
31.96044	-0.01376229	0.1596375	-0.09371199	0.1237191	2.478571	-2.90559	0	0
31.977	-0.01368336	0.1757734	0.004764368	0.973964	2.972194	25.66192	0	0
31.99357	-0.006131502	0.2015354	0.4558308	1.554993	13.61321	17.5355	0	0
32.01014	0.007078829	0.2306425	0.797469	1.757113	10.31126	6.100325	0	0
32.0267	0.02149669	0.2510967	0.8704641	1.234902	2.203378	-15.76307	0	0
32.04327	0.04754309	0.2741104	1.572164	1.389109	21.17978	4.654494	0	0
32.05983	0.06291685	0.2842	0.9279619	0.6090134	-19.44206	-23.54332	0	0
32.07673	0.08503132	0.2992351	1.308617	0.8896974	11.37427	8.387053	0	0
32.09296	0.1175866	0.3214951	2.005682	1.371405	21.03989	14.53964	0	0
32.10954	0.1283692	0.3289602	0.6503857	0.450283	-41.30716	-28.07425	0	0
32.12609	0.1425786	0.3387819	0.8584729	0.5933827	6.280809	4.319256	0	0
32.15923	0.1674948	0.3561755	0.7519743	0.5249395	-2.143415	-1.377502	0	0
32.1758	0.1775321	0.3633019	0.605851	0.4301516	-2.940006	-1.907137	0	0
32.19236	0.1819392	0.3664279	0.2660757	0.1887289	-10.25562	-7.286991	0	0
32.20893	0.1907319	0.3726092	0.5307283	0.3731058	7.988151	5.565146	0	0
32.22583	0.1923044	0.3738242	0.09300788	0.07186372	-13.07644	-8.999294	0	0
32.24206	0.1956237	0.3762007	0.2045446	0.1464467	3.366185	2.250919	0	0
32.25886	0.1964085	0.3767904	0.04672773	0.03510746	-4.778878	-3.371482	0	0
32.27537	0.1965604	0.3769333	0.009198822	0.008659095	-1.126787	-0.7940991	0	0
32.29176	0.1965604	0.3769691	0	0.002179937	-0.2795845	-0.1969243	0	0
32.30839	0.1964591	0.3770763	-0.006087837	0.006447104	-0.1843468	0.1292148	0	0
32.32489	0.1964085	0.377112	-0.003067391	0.002165323	0.09115725	-0.1292244	0	0
32.34146	0.1937492	0.3789884	-0.1605178	0.1132588	-4.761182	3.359381	0	0
32.35804	0.1874317	0.3834387	-0.3810589	0.2684365	-6.653645	4.681656	0	0
32.3746	0.1846106	0.3853871	-0.1704016	0.1176861	6.35765	-4.549655	0	0
32.39116	0.182321	0.386996	-0.1382001	0.09711389	0.9721785	-0.6210859	0	0
32.40773	0.1822956	0.3870139	-0.001536236	0.001079323	4.124524	-2.898329	0	0
32.42448	0.1804625	0.3883011	-0.1094604	0.07686325	-3.239629	2.274854	0	0
32.44099	0.1732967	0.3933256	-0.4340243	0.3043319	-9.759402	6.839818	0	0
32.4575	0.1696687	0.3958652	-0.2197473	0.1538203	6.489304	-4.558192	0	0
32.47401	0.1655242	0.3987272	-0.2509727	0.1733079	-0.9455413	0.5901073	0	0
32.49399	0.1650377	0.3990671	-0.02434583	0.01701061	6.209771	-4.282681	0	0
32.51056	0.1650121	0.399085	-0.001544875	0.001079075	0.6237876	-0.4358543	0	0
32.52713	0.1650121	0.399085	0	0	0.04662442	-0.03256654	0	0
32.54369	0.1650377	0.3990671	0.001545231	-0.001079323	0.04664053	-0.03257778	0	0
32.56026	0.1650121	0.399085	-0.001545231	0.001079323	-0.09327032	0.06514806	0	0
32.64314	0.1651401	0.398924	0.001544699	-0.001942606	0.03107284	-0.03038901	0	0
32.65966	0.1653194	0.398763	0.01084338	-0.009739932	0.09354494	-0.07844125	0	0
32.67623	0.165345	0.3987093	0.001545231	-0.003239768	-0.2809422	0.1964014	0	0
32.6928	0.165345	0.3987093	0	0	-0.04663516	0.0977764	0	0
32.70937	0.1653706	0.3986556	0.001545231	-0.003239768	0.04663516	-0.0977764	0	0
32.72593	0.1653706	0.3986199	0	-0.002158646	-0.04663516	0.03262833	0	0
32.7425	0.1653706	0.3985841	0	-0.002160445	0	-5.428939E-05	0	0
32.75907	0.165345	0.3985304	-0.001545231	-0.003239768	-0.04663516	-0.03257404	0	0
32.77573	0.165345	0.3984946	0	-0.0021458	0.04649598	0.03291749	0	0
32.7922	0.1653194	0.3984767	-0.001554537	-0.001085824	-0.04691603	0.03199016	0	0
32.80877	0.1652938	0.3984588	-0.001545231	-0.001081122	0.0002817132	0.000142319	0	0
32.82534	0.1652938	0.3984588	0	0	0.04663516	0.03262833	0	0
32.8419	0.1652682	0.398441	-0.001545231	-0.001079323	-0.04663516	-0.03257403	0	0
32.85847	0.1652682	0.398441	0	0	0.04663516	0.03257403	0	0
32.87504	0.1652682	0.398441	0	0	0	0	0	0
32.89182	0.1652682	0.398441	0	0	0	0	0	0
32.90833	0.1652426	0.3984231	-0.001551489	-0.001083064	-0.04660404	-0.03253336	0	0
32.92484	0.1652426	0.3984231	0	0	0.04698088	0.03279643	0	0
32.9413	0.1652426	0.3983873	0	-0.002174464	0	-0.06594432	0	0
32.95789	0.1652426	0.3983873	0	0	0	0.06579969	0	0
32.97444	0.165217	0.3983694	-0.001547012	-0.001080567	-0.04668891	-0.03261158	0	0
33.00757	0.1651914	0.39828	-0.0007726154	-0.002699207	0.01558687	-0.0325796	0	0
33.02414	0.1651401	0.3982442	-0.003091361	-0.002158646	-0.04665326	0.01087611	0	0
33.04071	0.1650889	0.3981369	-0.003090462	-0.006479536	2.714469E-05	-0.1304047	0	0
33.05727	0.1645512	0.3976539	-0.03245884	-0.02915252	-0.8863395	-0.6842719	0	0
33.07384	0.1635522	0.3969563	-0.06029638	-0.04210619	-0.8401387	-0.3909427	0	0
33.09046	0.1630911	0.3965985	-0.0277463	-0.02152427	0.9807826	0.620164	0	0
33.10697	0.1630654	0.3965091	-0.001552391	-0.005417124	0.7906247	0.4861706	0	0
33.12354	0.1630654	0.3964733	0	-0.002158646	0.04693231	0.09851118	0	0
33.14011	0.1630654	0.3964733	0	0	0	0.06514806	0	0
33.15701	0.1630911	0.3964197	0.001516306	-0.003175426	0.04530321	-0.09487336	0	0
33.17324	0.1631167	0.396366	0.001578107	-0.003304935	0.001865159	-0.003908597	0	0
33.18981	0.1630911	0.3963481	-0.00154613	-0.001079323	-0.09525471	0.06785659	0	0
33.20655	0.1630911	0.3963481	0	0	0.0464218	0.03240614	0	0
33.22294	0.1630911	0.3963481	0	0	0	0	0	0
33.23957	0.1630911	0.3963481	0	0	0	0	0	0
33.25608	0.1630911	0.3963481	0	0	0	0	0	0
33.27264	0.1630911	0.3963481	0	0	0	0	0	0
33.28921	0.1630911	0.3963481	0	0	0	0	0	0
33.30577	0.1630911	0.3963481	0	0	0	0	0	0
33.32234	0.1630654	0.396366	-0.00154703	0.001079323	-0.04668945	0.03257403	0	0
33.39166	0.1630911	0.3963481	0.0003697512	-0.000257966	0.02231823	-0.01557086	0	0
33.40823	0.1630654	0.3963303	-0.00154703	-0.001079323	-0.02231823	-0.009563552	0	0
33.42479	0.1630398	0.3963124	-0.00154613	-0.001081122	2.714469E-05	-5.42929E-05	0	0
33.44136	0.1629886	0.3962766	-0.00309316	-0.002158646	-0.04668945	-0.03251974	0	0
33.45793	0.1629373	0.3962408	-0.00309316	-0.002158646	0	0	0	0
33.47449	0.1629117	0.3962229	-0.00154703	-0.001079323	0.0466623	0.03257403	0	0
33.49106	0.1628092	0.3961514	-0.00618632	-0.004319091	-0.1400141	-0.09777639	0	0
33.50776	0.1627067	0.3960798	-0.006137756	-0.004284562	0.001459791	0.001037899	0	0
33.52427	0.1626042	0.3960083	-0.006208663	-0.004332255	-0.002135067	-0.001436072	0	0
33.54078	0.1625786	0.3959546	-0.001551489	-0.003250996	0.1410409	0.03274555	0	0
33.57389	0.1624505	0.3958652	-0.003870243	-0.002701384	-0.04673234	0.01107693	0	0
33.59046	0.1623736	0.3958116	-0.004641089	-0.003237969	-0.01551778	-0.01080192	0	0
33.60703	0.1619891	0.3955433	-0.02320455	-0.01619344	-0.5602462	-0.390997	0	0
33.62359	0.1606047	0.3946133	-0.08356299	-0.05613559	-1.821622	-1.205456	0	0
33.65673	0.1503052	0.3874787	-0.3108414	-0.2153213	-4.572851	-3.202824	0	0
33.67329	0.1446922	0.3835817	-0.3387968	-0.2352223	-0.5624628	-0.4004073	0	0
33.71996	0.1344988	0.3764866	-0.2184189	-0.1520308	1.903622	1.315566	0	0
33.73693	0.1337235	0.3759505	-0.04570585	-0.0315996	2.714207	1.892592	0	0
33.7531	0.1337235	0.3759505	0	0	1.379405	0.953678	0	0
33.76995	0.1337235	0.3759505	0	0	0	0	0	0
33.78646	0.1337235	0.3759148	0	-0.002165627	0	-0.06490296	0	0
33.80297	0.1335426	0.3757182	-0.0109597	-0.01190468	-0.3318725	-0.2949097	0	0
33.81948	0.1307498	0.373717	-0.1691556	-0.1212129	-4.790909	-3.310362	0	0
33.83593	0.1253654	0.3700008	-0.3274155	-0.2259772	-4.802279	-3.178993	0	0
33.8525	0.1165743	0.3639092	-0.5306308	-0.3676858	-6.155726	-4.29259	0	0
33.86952	0.1089615	0.3587116	-0.4472573	-0.3053634	2.482209	1.855474	0	0
33.88563	0.0983136	0.3514429	-0.6609693	-0.4512084	-6.450584	-4.402119	0	0
33.90254	0.09020193	0.3458891	-0.479681	-0.3284228	5.490255	3.718519	0	0
33.91876	0.0795685	0.3386212	-0.6555716	-0.4480796	-5.309	-3.611663	0	0
33.93533	0.07451965	0.3352104	-0.3047491	-0.2058719	10.69994	7.387237	0	0
33.95189	0.06721438	0.3301924	-0.4409466	-0.3028868	-4.11045	-2.927917	0	0
33.96859	0.05764659	0.3236741	-0.5731583	-0.390484	-3.975053	-2.633681	0	0
33.9851	0.05029964	0.3186375	-0.4448968	-0.3049925	3.862491	2.574506	0	0
34.00159	0.04063552	0.3120641	-0.5858909	-0.3985152	-4.271441	-2.833285	0	0
34.01816	0.03364519	0.3072762	-0.4219366	-0.288996	4.959	3.312543	0	0
34.03473	0.02670418	0.3025233	-0.4189606	-0.2868841	0.08981587	0.06373672	0	0
34.0513	0.0185242	0.2969296	-0.4937446	-0.3376374	-2.256987	-1.531739	0	0
34.06816	0.01255197	0.292872	-0.3542042	-0.2406515	4.174335	2.901321	0	0
34.08443	0.004815752	0.2876514	-0.4754991	-0.3208785	-3.66111	-2.421534	0	0
34.10099	0.0001315789	0.2844683	-0.2827373	-0.1921321	5.87028	3.920783	0	0
34.11756	-0.003289462	0.2821074	-0.2064944	-0.1425012	2.301013	1.497863	0	0
34.1342	-0.006605167	0.2798536	-0.1992189	-0.1354161	0.2190704	0.2133389	0	0
34.15071	-0.01018386	0.2773848	-0.2167589	-0.149535	-0.529053	-0.4258648	0	0
34.16726	-0.01318345	0.2752735	-0.181306	-0.1276156	1.072565	0.6631329	0	0
34.18383	-0.01586709	0.2733767	-0.161985	-0.1144928	0.58351	0.3963201	0	0
34.20039	-0.01931339	0.2709248	-0.2080189	-0.1479968	-1.389306	-1.011153	0	0
34.21696	-0.02275923	0.2684366	-0.2079913	-0.1501842	0.0008346765	-0.06601635	0	0
34.23353	-0.02383759	0.2674162	-0.06509004	-0.06159337	4.312768	2.673676	0	0
34.26978	-0.02381129	0.2673983	0.0007254347	-0.0004932134	1.245983	1.156716	0	0
34.28635	-0.02381129	0.2673983	0	0	-0.01373354	0.009337252	0	0
34.30292	-0.02381129	0.2673983	0	0	0	0	0	0
34.31948	-0.02381129	0.2673983	0	0	0	0	0	0
34.33635	-0.02381129	0.2673983	0	0	0	0	0	0
34.35262	-0.02381129	0.2673983	0	0	0	0	0	0
34.36937	-0.02381129	0.2673983	0	0	0	0	0	0
34.4024	-0.02378499	0.2674162	0.0007963192	0.0005414068	0.01599619	0.0108756	0	0
34.41891	-0.02378499	0.2674162	0	0	-0.01607503	-0.0109292	0	0
34.43546	-0.02375869	0.2673983	0.001589701	-0.001080816	0.04809354	-0.03269815	0	0
34.45202	-0.02375869	0.2673983	0	0	-0.04801042	0.03264165	0	0
34.46859	-0.02373238	0.2673804	0.001587617	-0.001081122	0.04791437	-0.03262833	0	0
34.48546	-0.02373238	0.2673804	0	0	-0.04748251	0.03233424	0	0
34.50172	-0.02370608	0.2673625	0.001617296	-0.00110141	0.0488157	-0.03324446	0	0
34.51829	-0.02367978	0.2673446	0.001587504	-0.001081122	-0.0009074635	0.0006179969	0	0
34.53485	-0.02354828	0.2672551	0.007937746	-0.005402012	0.1916507	-0.1304047	0	0
34.5515	-0.02344307	0.2671835	0.006319572	-0.004301887	-0.0487188	0.03312174	0	0
34.56801	-0.02081278	0.2654288	0.1593148	-0.1062774	4.614219	-3.075504	0	0
34.58455	-0.01220992	0.2597516	0.5202282	-0.3433084	10.92131	-7.172603	0	0
34.60154	-0.004315763	0.2544841	0.4647217	-0.3100929	-1.655746	0.9908113	0	0
34.61805	0.007289344	0.2466144	0.7029134	-0.4766627	7.110867	-4.972699	0	0
34.63425	0.01597233	0.2407669	0.5358266	-0.3608536	-5.107369	3.539954	0	0
34.65082	0.02357458	0.2356162	0.4588729	-0.3108954	-2.348149	1.524415	0	0
34.66739	0.03206795	0.2298881	0.5126609	-0.3457459	1.623324	-1.051789	0	0
34.68395	0.03645752	0.226924	0.2649551	-0.1789149	-7.475776	5.034969	0	0
34.70052	0.0393481	0.2249474	0.1744757	-0.1193084	-2.730674	1.798928	0	0
34.71709	0.04008378	0.2244442	0.0444056	-0.03037305	-3.925524	2.684073	0	0
34.73365	0.04008378	0.2244442	0	0	-1.340164	0.9166605	0	0
34.75022	0.04008378	0.2244442	0	0	0	0	0	0
34.76679	0.04008378	0.2244442	0	0	0	0	0	0
34.78336	0.04008378	0.2244442	0	0	0	0	0	0
34.79992	0.04008378	0.2244802	0	0.002169439	0	0.06547381	0	0
34.81649	0.04008378	0.2244802	0	0	0	-0.06547381	0	0
34.83306	0.04008378	0.2245161	0	0.002169439	0	0.06547381	0	0
34.84962	0.04011006	0.22457	0.00158593	0.003254159	0.04786347	0.0327369	0	0
34.86619	0.04011006	0.2246059	0	0.002169439	-0.04786347	-0.0327369	0	0
34.88276	0.04013633	0.2246599	0.00158593	0.003254159	0.04786347	0.0327369	0	0
34.89933	0.04013633	0.2246599	0	0	-0.04786347	-0.09821071	0	0
34.91589	0.04013633	0.2246958	0	0.002169439	0	0.06547381	0	0
34.93246	0.04013633	0.2246958	0	0	0	-0.06547381	0	0
34.94903	0.04013633	0.2246958	0	0	0	0	0	0
34.9656	0.04011006	0.2247138	-0.00158593	0.001085619	-0.04786347	0.03276405	0	0
34.98216	0.04011006	0.2247138	0	0	0.04786347	-0.03276405	0	0
34.99873	0.04011006	0.2247138	0	0	0	0	0	0
35.0153	0.04011006	0.2247138	0	0	0	0	0	0
35.03186	0.04011006	0.2247138	0	0	0	0	0	0
35.04843	0.04011006	0.2247138	0	0	0	0	0	0
35.065	0.04011006	0.2247138	0	0	0	0	0	0
35.08157	0.04011006	0.2247138	0	0	0	0	0	0
35.09813	0.04011006	0.2247138	0	0	0	0	0	0
35.1147	0.04011006	0.2247138	0	0	0	0	0	0
35.14783	0.04011006	0.2246778	0	-0.001085169	0	-0.02183365	0	0
35.16656	0.04011006	0.2246778	0	0	0	0.02092465	0	0
35.18348	0.04011006	0.2246778	0	0	0	0	0	0
35.19997	0.04011006	0.2246778	0	0	0	0	0	0
35.21626	0.04011006	0.2246778	0	0	0	0	0	0
35.28253	0.04008378	0.2246958	-0.0003964597	0.0002711643	-0.004802215	0.003284544	0	0
35.2991	0.04008378	0.2246958	0	0	0.004786071	-0.003273502	0	0
35.31566	0.04008378	0.2246958	0	0	0	0	0	0
35.33223	0.04008378	0.2246958	0	0	0	0	0	0
35.3488	0.04008378	0.2246958	0	0	0	0	0	0
35.36536	0.04008378	0.2246958	0	0	0	0	0	0
35.38513	0.04008378	0.2246958	0	0	0	0	0	0
35.4017	0.04008378	0.2246958	0	0	0	0	0	0
35.41827	0.04008378	0.2246958	0	0	0	0	0	0
35.43483	0.04008378	0.2246958	0	0	0	0	0	0
35.4514	0.04008378	0.2246958	0	0	0	0	0	0
35.46817	0.04008378	0.2246958	0	0	0	0	0	0
35.48454	0.04008378	0.2246958	0	0	0	0	0	0
