Time	Pos X	Pos Y	Vel X	Vel Y	Acc X	Acc YForce X	Force Y
0.01656713	-0.01426219	0.1938003	0.0002261031	-0.003072378	-3.585428E-06	4.872021E-05	0	0
0.04857436	-0.01426219	0.1938003	0	0	3.586306E-06	-4.873214E-05	0	0
0.06514189	-0.0142885	0.1937822	-0.001588038	-0.001089197	-0.03269266	-0.02242311	0	0
0.08170901	-0.01431481	0.1937642	-0.001588133	-0.001088324	-2.859908E-06	2.634699E-05	0	0
0.09827732	-0.01431481	0.1937642	0	0	0.04792853	0.03284472	0	0
0.1148421	-0.01431481	0.1937642	0	0	0	0	0	0
0.1314092	-0.01431481	0.1937642	0	0	0	0	0	0
0.1479755	-0.01431481	0.1937642	0	0	0	0	0	0
0.1645419	-0.01431481	0.1937642	0	0	0	0	0	0
0.1811086	-0.01434112	0.1937822	-0.00158817	0.00108835	-0.04793306	0.03284783	0	0
0.1978131	-0.01434112	0.1937822	0	0	0.04773401	-0.03271143	0	0
0.2142421	-0.01434112	0.1937822	0	0	0	0	0	0
0.2308088	-0.01431481	0.1938003	0.00158817	0.001089249	0.04813263	0.03301185	0	0
0.2473756	-0.01431481	0.1938003	0	0	-0.04793248	-0.03287458	0	0
0.2643596	-0.01431481	0.1938003	0	0	0	0	0	0
0.2805086	-0.01431481	0.1938003	0	0	0	0	0	0
0.2970754	-0.01431481	0.1938003	0	0	0	0	0	0
0.3136421	-0.0142885	0.1938183	0.001588171	0.00108925	0.04793257	0.03287464	0	0
0.3302088	-0.0142885	0.1938183	0	0	-0.04793257	-0.03287464	0	0
0.3469177	-0.0142885	0.1938183	0	0	0	0	0	0
0.3633419	-0.01426219	0.1938363	0.001601892	0.001097792	0.04834721	0.03313281	0	0
0.3799086	-0.01426219	0.1938363	0	0	-0.04855549	-0.03327555	0	0
0.3964753	-0.01423588	0.1938905	0.001588171	0.003266851	0.04793257	0.09859677	0	0
0.4130421	-0.01423588	0.1938905	0	0	-0.04793257	-0.09859677	0	0
0.4296088	-0.01423588	0.1938905	0	0	0	0	0	0
0.4461751	-0.01423588	0.1938905	0	0	0	0	0	0
0.4627419	-0.01423588	0.1938905	0	0	0	0	0	0
0.4795127	-0.01423588	0.1938905	0	0	0	0	0	0
0.4958753	-0.01423588	0.1938905	0	0	0	0	0	0
0.5130346	-0.01423588	0.1938905	0	0	0	0	0	0
0.5290478	-0.01423588	0.1938905	0	0	0	0	0	0
0.5455747	-0.01420957	0.1938724	0.001592	-0.001090975	0.04892419	-0.03352704	0	0
0.5621423	-0.01420957	0.1938724	0	0	-0.04810482	0.03296553	0	0
0.579082	-0.01420957	0.1938724	0	0	0	0	0	0
0.5952757	-0.01420957	0.1938724	0	0	0	0	0	0
0.611842	-0.01420957	0.1938724	0	0	0	0	0	0
0.6284091	-0.01420957	0.1938724	0	0	0	0	0	0
0.6449751	-0.01420957	0.1938724	0	0	0	0	0	0
0.6616397	-0.01420957	0.1938724	0	0	0	0	0	0
0.6781523	-0.01420957	0.1938724	0	0	0	0	0	0
0.6946753	-0.01418326	0.1938544	0.001592323	-0.001092136	0.04820025	-0.0330594	0	0
0.7316904	-0.01407802	0.1937822	0.002843222	-0.001949643	0.02336465	-0.01601677	0	0
0.7479931	-0.01397278	0.1937101	0.006455532	-0.00442575	0.06775057	-0.04644053	0	0
0.7645594	-0.0130782	0.1930967	0.05399948	-0.03702638	1.446468	-0.9918356	0	0
0.7812276	-0.01247304	0.1926817	0.0363065	-0.02489576	-0.5323672	0.3650002	0	0
0.7977363	-0.005394685	0.1878266	0.4287651	-0.2940941	11.82927	-8.11403	0	0
0.8142596	0.001789472	0.1828959	0.4347894	-0.298411	0.1823786	-0.1306874	0	0
0.8308259	0.01389384	0.1745796	0.7306607	-0.5019987	8.941509	-6.152611	0	0
0.847393	0.01760344	0.1720284	0.2239136	-0.1539935	-15.29413	10.50314	0	0
0.8642839	0.02365348	0.1678646	0.358185	-0.24651	4.01314	-2.765158	0	0
0.8805273	0.02707233	0.16551	0.2104761	-0.1449605	-4.457893	3.064791	0	0
0.8970928	0.02962291	0.1637525	0.1539688	-0.1060937	-1.722315	1.184639	0	0
0.9302259	0.02949145	0.1638431	-0.003967744	0.002734398	-3.177884	2.189761	0	0
0.9468483	0.02949145	0.1638431	0	0	0.07974491	-0.05495675	0	0
0.9633621	0.02946515	0.1638612	-0.001592187	0.001097251	-0.0480498	0.03311338	0	0
0.9799284	0.02946515	0.1638612	0	0	0.04813118	-0.03316946	0	0
0.9964952	0.02943886	0.1638793	-0.0015871	0.001094645	-0.04790077	0.03303782	0	0
1.013061	0.02938627	0.1639155	-0.00317444	0.002187656	-0.04790921	0.03298934	0	0
1.029626	0.02933369	0.1639518	-0.003174429	0.002187648	3.443506E-07	-2.389372E-07	0	0
1.046193	0.02925481	0.1640061	-0.004761198	0.003281166	-0.04789137	0.0330042	0	0
1.062924	0.02920222	0.1640424	-0.003143058	0.002166029	0.0485957	-0.03348958	0	0
1.079326	0.02917593	0.1640605	-0.00160303	0.001104723	0.04648013	-0.03203165	0	0
1.095947	0.02914964	0.1640786	-0.001581932	0.001090184	0.0006388794	-0.0004402793	0	0
1.11246	0.02904446	0.1641511	-0.006369459	0.004389416	-0.1444936	0.09957497	0	0
1.129026	0.02896558	0.1642055	-0.004761413	0.003281236	0.04861224	-0.03350098	0	0
1.145593	0.02896558	0.1642055	0	0	0.1437054	-0.09903183	0	0
1.16216	0.02891299	0.1642417	-0.003174176	0.002187397	-0.09579854	0.06601695	0	0
1.178726	0.02891299	0.1642417	0	0	0.09579992	-0.0660179	0	0
1.228426	0.02880782	0.1643142	-0.002116224	0.001458338	-0.03193538	0.02200739	0	0
1.245052	0.02880782	0.1643142	0	0	0.03190644	-0.02198746	0	0
1.261565	0.02878152	0.1643323	-0.001592268	0.001097306	-0.04804816	0.03311225	0	0
1.278577	0.02878152	0.1643323	0	0	0.04749444	-0.03273065	0	0
1.294693	0.02878152	0.1643323	0	0	0	0	0	0
1.3116	0.02875523	0.1643504	-0.001555229	0.001071706	-0.04709532	0.03245331	0	0
1.327826	0.02872894	0.1643685	-0.001620461	0.001116736	-0.001968771	0.001359063	0	0
1.344622	0.02872894	0.1643685	0	0	0.04907314	-0.03381861	0	0
1.36096	0.02872894	0.1643685	0	0	0	0	0	0
1.377526	0.02872894	0.1643685	0	0	0	0	0	0
1.394158	0.02872894	0.1643685	0	0	0	0	0	0
1.410659	0.02872894	0.1643685	0	0	0	0	0	0
1.460359	0.02872894	0.1643685	0	0	0	0	0	0
1.477216	0.02872894	0.1643685	0	0	0	0	0	0
1.493492	0.02872894	0.1643685	0	0	0	0	0	0
1.510059	0.02872894	0.1643685	0	0	0	0	0	0
1.526626	0.02872894	0.1643685	0	0	0	0	0	0
1.543263	0.02872894	0.1643685	0	0	0	0	0	0
1.559759	0.02872894	0.1643685	0	0	0	0	0	0
1.576326	0.02872894	0.1643685	0	0	0	0	0	0
1.592893	0.02872894	0.1643685	0	0	0	0	0	0
1.613044	0.02872894	0.1643685	0	0	0	0	0	0
1.629612	0.02872894	0.1643685	0	0	0	0	0	0
1.646178	0.02872894	0.1643685	0	0	0	0	0	0
1.662745	0.02872894	0.1643685	0	0	0	0	0	0
1.67936	0.02872894	0.1643685	0	0	0	0	0	0
1.695878	0.02872894	0.1643685	0	0	0	0	0	0
1.712445	0.02872894	0.1643685	0	0	0	0	0	0
1.75005	0.02872894	0.1643685	0	0	0	0	0	0
1.766925	0.02872894	0.1643685	0	0	0	0	0	0
1.783185	0.02872894	0.1643685	0	0	0	0	0	0
1.799751	0.02872894	0.1643685	0	0	0	0	0	0
1.816318	0.02872894	0.1643685	0	0	0	0	0	0
1.832884	0.02872894	0.1643685	0	0	0	0	0	0
1.84945	0.02872894	0.1643685	0	0	0	0	0	0
1.866018	0.02872894	0.1643685	0	0	0	0	0	0
1.882585	0.02872894	0.1643685	0	0	0	0	0	0
1.89952	0.02872894	0.1643685	0	0	0	0	0	0
1.916031	0.02872894	0.1643685	0	0	0	0	0	0
1.932284	0.02872894	0.1643685	0	0	0	0	0	0
1.949054	0.02872894	0.1643685	0	0	0	0	0	0
1.965418	0.02872894	0.1643685	0	0	0	0	0	0
1.982578	0.02872894	0.1643685	0	0	0	0	0	0
1.998589	0.02872894	0.1643685	0	0	0	0	0	0
2.015122	0.02872894	0.1643685	0	0	0	0	0	0
2.031685	0.02872894	0.1643685	0	0	0	0	0	0
2.048253	0.02872894	0.1643685	0	0	0	0	0	0
2.064822	0.02872894	0.1643685	0	0	0	0	0	0
2.081388	0.02872894	0.1643685	0	0	0	0	0	0
2.097959	0.02872894	0.1643685	0	0	0	0	0	0
2.114518	0.02872894	0.1643685	0	0	0	0	0	0
2.131182	0.02872894	0.1643685	0	0	0	0	0	0
2.147653	0.02872894	0.1643685	0	0	0	0	0	0
2.16422	0.02872894	0.1643685	0	0	0	0	0	0
2.180785	0.02872894	0.1643685	0	0	0	0	0	0
2.197353	0.02872894	0.1643685	0	0	0	0	0	0
2.213919	0.02872894	0.1643685	0	0	0	0	0	0
2.230483	0.02872894	0.1643685	0	0	0	0	0	0
2.247053	0.02872894	0.1643685	0	0	0	0	0	0
2.263779	0.02872894	0.1643685	0	0	0	0	0	0
2.280187	0.02872894	0.1643685	0	0	0	0	0	0
2.296753	0.02872894	0.1643685	0	0	0	0	0	0
2.313319	0.02872894	0.1643685	0	0	0	0	0	0
2.329886	0.02872894	0.1643685	0	0	0	0	0	0
2.346453	0.02872894	0.1643685	0	0	0	0	0	0
2.363348	0.02872894	0.1643685	0	0	0	0	0	0
2.462419	0.02875523	0.1643504	0.0002653952	-0.0001828963	0.002288554	-0.00157715	0	0
2.512119	0.02875523	0.1643504	0	0	-0.001783908	0.001229375	0	0
2.528687	0.02875523	0.1643504	0	0	0	0	0	0
2.545477	0.02875523	0.1643504	0	0	0	0	0	0
2.561819	0.02875523	0.1643504	0	0	0	0	0	0
2.578386	0.02875523	0.1643504	0	0	0	0	0	0
2.594953	0.02875523	0.1643504	0	0	0	0	0	0
2.611526	0.02875523	0.1643504	0	0	0	0	0	0
2.628086	0.02875523	0.1643504	0	0	0	0	0	0
2.645048	0.02875523	0.1643504	0	0	0	0	0	0
2.667937	0.02875523	0.1643504	0	0	0	0	0	0
2.684583	0.02875523	0.1643504	0	0	0	0	0	0
2.701073	0.02875523	0.1643504	0	0	0	0	0	0
2.718095	0.02875523	0.1643504	0	0	0	0	0	0
2.734207	0.02875523	0.1643504	0	0	0	0	0	0
2.751127	0.02875523	0.1643504	0	0	0	0	0	0
2.767338	0.02875523	0.1643504	0	0	0	0	0	0
2.783904	0.02875523	0.1643504	0	0	0	0	0	0
2.800471	0.02875523	0.1643504	0	0	0	0	0	0
2.817038	0.02875523	0.1643504	0	0	0	0	0	0
2.833604	0.02875523	0.1643504	0	0	0	0	0	0
2.850171	0.02872894	0.1643323	-0.0015871	-0.001093745	-0.04790085	-0.03301073	0	0
2.866737	0.02872894	0.1643323	0	0	0.04790085	0.03301073	0	0
2.883304	0.02872894	0.1643323	0	0	0	0	0	0
2.900222	0.02872894	0.1643323	0	0	0	0	0	0
2.916747	0.02872894	0.1643323	0	0	0	0	0	0
2.933247	0.02872894	0.1643323	0	0	0	0	0	0
2.94976	0.02872894	0.1643323	0	0	0	0	0	0
2.966272	0.02872894	0.1643323	0	0	0	0	0	0
2.982781	0.02872894	0.1643323	0	0	0	0	0	0
2.999294	0.02872894	0.1643323	0	0	0	0	0	0
3.015838	0.02872894	0.1643323	0	0	0	0	0	0
3.032405	0.02872894	0.1643323	0	0	0	0	0	0
3.048972	0.02872894	0.1643323	0	0	0	0	0	0
3.06585	0.02872894	0.1643323	0	0	0	0	0	0
3.082105	0.02872894	0.1643323	0	0	0	0	0	0
3.098865	0.02872894	0.1643323	0	0	0	0	0	0
3.115242	0.02872894	0.1643323	0	0	0	0	0	0
3.131888	0.02872894	0.1643323	0	0	0	0	0	0
3.1484	0.02872894	0.1643323	0	0	0	0	0	0
3.164938	0.02872894	0.1643323	0	0	0	0	0	0
3.181506	0.02875523	0.1643142	0.001586986	-0.001093667	0.04793673	-0.03303545	0	0
3.198072	0.02875523	0.1643142	0	0	-0.04789602	0.0330074	0	0
3.214947	0.02875523	0.1642779	0	-0.002147469	0	-0.06421561	0	0
3.231206	0.02872894	0.1642236	-0.001617169	-0.003343403	-0.04880662	-0.03609361	0	0
3.247971	0.02862376	0.1640061	-0.006273598	-0.01296984	-0.1410031	-0.2915017	0	0
3.264338	0.02830823	0.1636075	-0.01927872	-0.02435796	-0.3925263	-0.3437213	0	0
3.280993	0.02754566	0.1628644	-0.04578659	-0.04461384	-0.8027412	-0.6134116	0	0
3.297504	0.02404799	0.1600909	-0.211833	-0.1679795	-5.006499	-3.719622	0	0
3.314039	0.02065496	0.1573523	-0.2052058	-0.1656252	0.2005442	0.07124195	0	0
3.347171	0.01163105	0.1499281	-0.2723615	-0.2240773	-1.352124	-1.176883	0	0
3.380304	0.007999829	0.1225783	-0.1095938	-0.8254448	2.456294	-9.075111	0	0
3.396871	0.007341973	0.1111182	-0.03970938	-0.6917472	1.406117	2.690078	0	0
3.413438	0.006868313	0.09942909	-0.02859102	-0.7055792	0.3355624	-0.41746	0	0
3.430097	0.005736779	0.08794922	-0.0679232	-0.6891087	-1.183785	0.4957125	0	0
3.446571	0.003105253	0.07332168	-0.1597357	-0.8879033	-2.771007	-5.999849	0	0
3.463138	0.001105263	0.06645097	-0.1207231	-0.4147288	1.180732	14.32083	0	0
3.479705	-0.003657878	0.05762393	-0.2875121	-0.5328162	-5.033844	-3.563987	0	0
3.496271	-0.0135518	0.04526626	-0.5972414	-0.7459644	-9.348121	-6.433151	0	0
3.512838	-0.02062865	0.03933305	-0.4271595	-0.3581293	5.133268	11.70531	0	0
3.529405	-0.02504739	0.03609278	-0.2667234	-0.1955884	4.842041	4.905564	0	0
3.549022	-0.03572164	0.02848373	-0.5441105	-0.3878649	-7.665901	-5.313773	0	0
3.565591	-0.04000496	0.02543937	-0.2585231	-0.1837444	7.89216	5.640834	0	0
3.582209	-0.04594133	0.02113925	-0.3572303	-0.2587666	-2.974345	-2.260643	0	0
3.598726	-0.04880332	0.01902467	-0.1732711	-0.1280215	5.551781	3.945809	0	0
3.615292	-0.04861955	0.01885619	0.01109332	-0.01016975	5.57271	3.562259	0	0
3.632244	-0.04851453	0.01878131	0.00619506	-0.004417304	-0.1461398	0.1716248	0	0
3.648426	-0.04851453	0.01878131	0	0	-0.1869727	0.1333183	0	0
3.664993	-0.04848828	0.01876259	0.001584783	-0.0011299	0.04839119	-0.03450138	0	0
3.681777	-0.04846203	0.01874387	0.001564165	-0.001115358	-0.0006182264	0.0004360337	0	0
3.698289	-0.04846203	0.01874387	0	0	-0.0469774	0.03349815	0	0
3.714801	-0.04843577	0.01872515	0.001590161	-0.001133847	0.04815157	-0.03433395	0	0
3.731258	-0.04843577	0.01872515	0	0	-0.0482327	0.03439181	0	0
3.747826	-0.04843577	0.01872515	0	0	0	0	0	0
3.764392	-0.04843577	0.01872515	0	0	0	0	0	0
3.780957	-0.04843577	0.01872515	0	0	0	0	0	0
3.797525	-0.04843577	0.01872515	0	0	0	0	0	0
3.814371	-0.04843577	0.01872515	0	0	0	0	0	0
3.830659	-0.04843577	0.01872515	0	0	0	0	0	0
3.847224	-0.04843577	0.01872515	0	0	0	0	0	0
3.86379	-0.04843577	0.01872515	0	0	0	0	0	0
3.880415	-0.04843577	0.01872515	0	0	0	0	0	0
3.89694	-0.04843577	0.01872515	0	0	0	0	0	0
3.913939	-0.04843577	0.01872515	0	0	0	0	0	0
3.930057	-0.04843577	0.01872515	0	0	0	0	0	0
3.946623	-0.04848828	0.01872515	-0.00316957	0	-0.09697592	0	0	0
3.96319	-0.04848828	0.01872515	0	0	0.09566193	0	0	0
3.979985	-0.04848828	0.01872515	0	0	0	0	0	0
3.996496	-0.04848828	0.01872515	0	0	0	0	0	0
4.013009	-0.04851453	0.01870643	-0.00159	-0.00113362	-0.0481467	-0.03432707	0	0
4.029457	-0.04856704	0.01870643	-0.003192358	0	-0.04861355	0.03439262	0	0
4.062592	-0.04875081	0.01857539	-0.005546259	-0.003954988	-0.04747445	-0.07976583	0	0
4.095724	-0.05625637	0.01325454	-0.2265344	-0.1605951	-3.334838	-2.363789	0	0
4.112291	-0.06768592	0.005107492	-0.689869	-0.4917425	-9.322669	-6.662955	0	0
4.128858	-0.07446731	0.0002738452	-0.4093492	-0.2917763	8.466228	6.03508	0	0
4.145423	-0.07962079	-0.003436066	-0.3110918	-0.22395	2.965626	2.047147	0	0
4.162114	-0.08581504	-0.007904794	-0.3711297	-0.2677447	-1.805322	-1.316894	0	0
4.178626	-0.0890011	-0.01016977	-0.1929549	-0.1371723	5.366361	3.932648	0	0
4.195138	-0.09028023	-0.01113287	-0.07746533	-0.05832556	3.497106	2.387536	0	0
4.21169	-0.09030634	-0.01111398	-0.001577219	0.001141053	2.29513	1.798485	0	0
4.228257	-0.09030634	-0.01111398	0	0	0.04762318	-0.03445341	0	0
4.244823	-0.09030634	-0.01111398	0	0	0	0	0	0
4.31109	-0.09028023	-0.01113287	0.0003939643	-0.000285017	0.004756083	-0.003440831	0	0
4.327657	-0.09028023	-0.01113287	0	0	-0.00475611	0.00344085	0	0
4.344243	-0.09028023	-0.01113287	0	0	0	0	0	0
4.36079	-0.09028023	-0.01113287	0	0	0	0	0	0
4.377357	-0.09028023	-0.01113287	0	0	0	0	0	0
4.394278	-0.09028023	-0.01113287	0	0	0	0	0	0
4.410491	-0.09025414	-0.01115175	0.001609835	-0.001164982	0.048587	-0.03516073	0	0
4.427302	-0.09025414	-0.01115175	0	0	-0.04874766	0.03527699	0	0
4.443624	-0.09025414	-0.01115175	0	0	0	0	0	0
4.460324	-0.09025414	-0.01115175	0	0	0	0	0	0
4.480766	-0.09025414	-0.01115175	0	0	0	0	0	0
4.497334	-0.09022804	-0.01117064	0.001575226	-0.001139937	0.04256195	-0.03080061	0	0
4.513902	-0.09022804	-0.01117064	0	0	-0.04753768	0.03440137	0	0
4.530879	-0.09022804	-0.01117064	0	0	0	0	0	0
4.547035	-0.09022804	-0.01117064	0	0	0	0	0	0
4.5636	-0.09022804	-0.01117064	0	0	0	0	0	0
4.580166	-0.09022804	-0.01117064	0	0	0	0	0	0
4.596733	-0.09022804	-0.01117064	0	0	0	0	0	0
4.613299	-0.09022804	-0.01117064	0	0	0	0	0	0
4.629866	-0.09022804	-0.01117064	0	0	0	0	0	0
4.646433	-0.09022804	-0.01117064	0	0	0	0	0	0
4.663	-0.09022804	-0.01117064	0	0	0	0	0	0
4.679985	-0.09022804	-0.01117064	0	0	0	0	0	0
4.696133	-0.09022804	-0.01117064	0	0	0	0	0	0
4.712699	-0.09022804	-0.01117064	0	0	0	0	0	0
4.729266	-0.09022804	-0.01117064	0	0	0	0	0	0
4.745863	-0.09022804	-0.01117064	0	0	0	0	0	0
4.762538	-0.09022804	-0.01117064	0	0	0	0	0	0
4.778966	-0.09022804	-0.01117064	0	0	0	0	0	0
4.795561	-0.09022804	-0.01117064	0	0	0	0	0	0
4.812099	-0.09020193	-0.01118953	0.001578538	-0.001142007	0.04764242	-0.03446733	0	0
4.828666	-0.09020193	-0.01118953	0	0	-0.04768222	0.03449612	0	0
4.845233	-0.09020193	-0.01118953	0	0	0	0	0	0
4.8618	-0.09020193	-0.01118953	0	0	0	0	0	0
4.878366	-0.09025414	-0.01111398	-0.003151446	0.004560533	-0.09511492	0.1376431	0	0
4.894933	-0.09043685	-0.010944	-0.01102875	0.01026016	-0.2377512	0.172025	0	0
4.911499	-0.09163737	-0.009848804	-0.07246767	0.06611004	-1.85431	1.685625	0	0
4.944633	-0.09760987	-0.005000372	-0.1802557	0.1463302	-2.168783	1.614095	0	0
4.9612	-0.1071408	0.003547191	-0.5752868	0.5159319	-7.948193	7.436544	0	0
4.977766	-0.1189879	0.01908082	-0.7151546	0.9376928	-4.221402	12.72932	0	0
4.994333	-0.1232148	0.03180531	-0.255134	0.7680519	13.88405	-5.119992	0	0
5.011215	-0.1243809	0.052322	-0.06907721	1.215304	5.562373	13.37109	0	0
5.027726	-0.123759	0.06343678	0.03766633	0.6731755	3.196594	-16.23483	0	0
5.044236	-0.1221779	0.07973889	0.09576444	0.9873795	1.759405	9.515148	0	0
5.060599	-0.1191436	0.09972259	0.1854369	1.221263	2.727793	7.114622	0	0
5.07726	-0.1149385	0.1168242	0.2523988	1.026492	2.027713	-5.897982	0	0
5.093732	-0.1127565	0.1248233	0.1324606	0.4855962	-3.619899	-16.32497	0	0
5.110301	-0.1082333	0.1401658	0.2730011	0.9259972	4.253456	13.32873	0	0
5.126867	-0.1009712	0.1522163	0.4383622	0.7274085	4.990535	-5.993333	0	0
5.143433	-0.09578493	0.1577876	0.3130825	0.3363261	-3.781275	-11.80391	0	0
5.159999	-0.08233973	0.1728065	0.8115776	0.9065666	15.0457	17.21113	0	0
5.176566	-0.07543553	0.1785221	0.4167619	0.3450129	-11.91608	-16.94846	0	0
5.193132	-0.06341486	0.1868877	0.7255904	0.5049632	9.320866	4.827519	0	0
5.209853	-0.05006339	0.196109	0.7985184	0.5515053	2.190881	1.398203	0	0
5.226266	-0.02717752	0.2119448	1.394357	0.9648207	17.98297	12.47424	0	0
5.242877	-0.01834005	0.2180619	0.5320218	0.3682505	-26.11213	-18.06458	0	0
5.259399	-0.001763156	0.229493	1.003327	0.6918751	14.22462	9.767431	0	0
5.275966	0.009447088	0.2372137	0.6766711	0.4660381	-9.872123	-6.825202	0	0
5.292532	0.0224699	0.2460944	0.7860813	0.5360531	3.302102	2.113117	0	0
5.309423	0.02525778	0.2479952	0.165056	0.1125351	-18.56174	-12.65847	0	0
5.325666	0.03645752	0.2555593	0.6895126	0.4656887	15.82859	10.6585	0	0
5.366467	0.04426055	0.2608085	0.1912457	0.1286522	-8.734776	-5.908358	0	0
5.382977	0.0444444	0.2608264	0.0111358	0.0010849	-3.142699	-2.225894	0	0
5.399519	0.04454945	0.2607547	0.006350753	-0.00433097	-0.1447733	-0.1638592	0	0
5.416087	0.04470703	0.2606114	0.00951126	-0.008648726	0.09545436	-0.1304059	0	0
5.433011	0.04486461	0.2604682	0.009310857	-0.008466696	-0.005983675	0.005435086	0	0
5.449218	0.04510098	0.2602353	0.01458356	-0.0143682	0.1591443	-0.178123	0	0
5.465784	0.04520602	0.2601636	0.006341121	-0.004324861	-0.2514972	0.3064469	0	0
5.482351	0.04520602	0.2601636	0	0	-0.1913837	0.1305302	0	0
5.49906	0.04520602	0.2601636	0	0	0	0	0	0
5.515572	0.04520602	0.2601636	0	0	0	0	0	0
5.532052	0.04523228	0.2601457	0.00159365	-0.001086846	0.04830429	-0.03294284	0	0
5.548618	0.04520602	0.2600562	-0.001585347	-0.005405921	-0.09619842	-0.1306979	0	0
5.565188	0.04523228	0.2600024	0.001584936	-0.003242712	0.09567246	0.06528106	0	0
5.581751	0.04520602	0.2599129	-0.001585666	-0.00540701	-0.09569174	-0.06532051	0	0
5.59832	0.04517976	0.2598591	-0.00158494	-0.003244978	2.19365E-05	0.06525684	0	0
5.614885	0.0451535	0.2598412	-0.001585438	-0.001081246	-1.504842E-05	0.06530342	0	0
5.631451	0.04510098	0.2597337	-0.00317056	-0.006487292	-0.0478439	-0.1631712	0	0
5.648018	0.0449434	0.2595904	-0.00951131	-0.008650774	-0.1913725	-0.06529684	0	0
5.664675	0.04418176	0.2589993	-0.04572413	-0.03548758	-1.089941	-0.8077394	0	0
5.681151	0.04347259	0.2585156	-0.04304314	-0.02935793	0.08091607	0.1850013	0	0
5.741303	0.043315	0.2584081	-0.002619918	-0.001787073	0.5275241	0.3598003	0	0
5.757871	0.043315	0.2584081	0	0	0.03414898	0.02329337	0	0
5.774438	0.043315	0.2584081	0	0	0	0	0	0
5.791005	0.043315	0.2584081	0	0	0	0	0	0
5.807571	0.043315	0.2584081	0	0	0	0	0	0
5.824138	0.043315	0.2584081	0	0	0	0	0	0
5.840704	0.043315	0.2584081	0	0	0	0	0	0
5.857271	0.043315	0.2584081	0	0	0	0	0	0
5.873837	0.043315	0.2584081	0	0	0	0	0	0
5.906971	0	0	-1.307268	-7.798884	-26.30304	-156.9184	0	0
5.940105	0.04334126	0.2583544	1.30808	7.797375	39.46653	235.3531	0	0
5.956671	0.04334126	0.2583544	0	0	-26.31962	-156.8895	0	0
5.973392	0.04334126	0.2583544	0	0	0	0	0	0
5.989804	0.04336753	0.2583365	0.001600271	-0.001091362	0.04829836	-0.0329388	0	0
6.006371	0.04336753	0.2583365	0	0	-0.04852462	0.03309311	0	0
6.039505	0.04336753	0.2583365	0	0	0	0	0	0
6.056071	0.04336753	0.2583365	0	0	0	0	0	0
6.072638	0.04339379	0.2583185	0.001585526	-0.001081153	0.04785334	-0.03263067	0	0
6.089204	0.04336753	0.2583006	-0.001585526	-0.001082952	-0.09570531	-5.429446E-05	0	0
6.105988	0.04339379	0.2582827	0.001565075	-0.001067207	0.09447082	0.0004721018	0	0
6.122338	0.04339379	0.2582827	0	0	-0.04723473	0.03220885	0	0
6.138904	0.04342006	0.2582648	0.001585618	-0.001081215	0.04817083	-0.03284717	0	0
6.15552	0.04342006	0.2582648	0	0	-0.04778526	0.03258425	0	0
6.172038	0.04342006	0.2582648	0	0	0	0	0	0
6.188604	0.04344633	0.2582469	0.001585526	-0.001081153	0.04792438	-0.03267911	0	0
6.205171	0.04349886	0.258211	0.003170919	-0.002162368	0.04784931	-0.03263255	0	0
6.221737	0.04357766	0.2581215	0.004756354	-0.005407564	0.04785059	-0.09794444	0	0
6.238304	0.04370899	0.2580319	0.007927635	-0.00540772	0.09571358	-4.694134E-06	0	0
6.255091	0.04381405	0.2579602	0.006258255	-0.004267739	-0.05005066	0.03417844	0	0
6.271603	0.04381405	0.2579602	0	0	-0.1879387	0.1281625	0	0
6.288004	0.04381405	0.2579602	0	0	0	0	0	0
6.325813	0.04381405	0.2579602	0	0	0	0	0	0
6.34238	0.04384031	0.2579423	0.001585301	-0.001081153	0.02915436	-0.01988286	0	0
6.358947	0.04384031	0.2579423	0	0	-0.04784518	0.03262973	0	0
6.375514	0.04384031	0.2579423	0	0	0	0	0	0
6.392188	0.04384031	0.2579423	0	0	0	0	0	0
6.4087	0.04384031	0.2579423	0	0	0	0	0	0
6.425214	0.04384031	0.2579423	0	0	0	0	0	0
6.441781	0.04384031	0.2579423	0	0	0	0	0	0
6.458347	0.04384031	0.2579423	0	0	0	0	0	0
6.474914	0.04384031	0.2579423	0	0	0	0	0	0
6.49148	0.04384031	0.2579423	0	0	0	0	0	0
6.508047	0.04384031	0.2579423	0	0	0	0	0	0
6.524615	0.04384031	0.2579423	0	0	0	0	0	0
6.54118	0.04384031	0.2579423	0	0	0	0	0	0
6.557806	0.04386658	0.2579244	0.001579933	-0.001077339	0.04760232	-0.0324595	0	0
6.574314	0.04386658	0.2579244	0	0	-0.04768384	0.03251509	0	0
6.59088	0.04384031	0.2579065	-0.001585572	-0.001082983	-0.04793958	-0.03274387	0	0
6.607447	0.04384031	0.2579065	0	0	0.04785472	0.03268591	0	0
6.624359	0.04384031	0.2579065	0	0	0	0	0	0
6.64058	0.04384031	0.2579065	0	0	0	0	0	0
6.657374	0.04384031	0.2579065	0	0	0	0	0	0
6.673713	0.04384031	0.2579065	0	0	0	0	0	0
6.690279	0.04384031	0.2579065	0	0	0	0	0	0
6.706846	0.04384031	0.2579065	0	0	0	0	0	0
6.723421	0.04384031	0.2579065	0	0	0	0	0	0
6.739979	0.04384031	0.2579065	0	0	0	0	0	0
6.756945	0.04386658	0.2578886	0.001548271	-0.001055749	0.04618391	-0.0314923	0	0
6.773113	0.04386658	0.2578886	0	0	-0.04672759	0.03186303	0	0
6.78968	0.04386658	0.2578886	0	0	0	0	0	0
6.806248	0.04386658	0.2578886	0	0	0	0	0	0
6.822814	0.04386658	0.2578886	0	0	0	0	0	0
6.905646	0.04386658	0.2578886	0	0	0	0	0	0
6.922214	0.04384031	0.2578706	-0.001585435	-0.001081091	-0.01595004	-0.01087616	0	0
6.93878	0.04384031	0.2578706	0	0	0.0478499	0.03262832	0	0
6.955346	0.04386658	0.2578527	0.001585572	-0.001081184	0.0478561	-0.03263255	0	0
6.971913	0.04386658	0.2578527	0	0	-0.04785472	0.03263161	0	0
6.988479	0.04386658	0.2578527	0	0	0	0	0	0
7.00512	0.04386658	0.2578527	0	0	0	0	0	0
7.021613	0.04386658	0.2578527	0	0	0	0	0	0
7.038179	0.04386658	0.2578527	0	0	0	0	0	0
7.054746	0.04386658	0.2578527	0	0	0	0	0	0
7.071667	0.04386658	0.2578169	0	-0.002117092	0	-0.0632207	0	0
7.08788	0.04386658	0.2578169	0	0	0	0.0638958	0	0
7.104446	0.04386658	0.2577811	0	-0.002164105	0	-0.06601968	0	0
7.121203	0.04386658	0.2577811	0	0	0	0.06494179	0	0
7.137581	0.04386658	0.2577811	0	0	0	0	0	0
7.154147	0.04389284	0.2577631	0.001585393	-0.001081215	0.04812496	-0.03282055	0	0
7.174433	0.04389284	0.2577631	0	0	-0.04302067	0.02933949	0	0
7.191	0.04389284	0.2577631	0	0	0	0	0	0
7.207567	0.04389284	0.2577631	0	0	0	0	0	0
7.224133	0.04386658	0.2577452	-0.001585301	-0.001081153	-0.04784587	-0.0326302	0	0
7.240786	0.04386658	0.2577452	0	0	0.04772225	0.03254589	0	0
7.257299	0.04389284	0.2577273	0.001590474	-0.001084681	0.04795575	-0.03270514	0	0
7.273833	0.04389284	0.2577273	0	0	-0.04812735	0.03282217	0	0
7.2904	0.04389284	0.2577273	0	0	0	0	0	0
7.306967	0.04389284	0.2577273	0	0	0	0	0	0
7.323848	0.04389284	0.2577273	0	0	0	0	0	0
7.3401	0.04389284	0.2577273	0	0	0	0	0	0
7.364157	0.04389284	0.2577273	0	0	0	0	0	0
7.380725	0.04391911	0.2577094	0.001585389	-0.00108106	0.03902488	-0.02661064	0	0
7.397292	0.04389284	0.2576915	-0.001585572	-0.001081184	-0.0956998	-3.755848E-06	0	0
7.413911	0.04389284	0.2576915	0	0	0.04777908	0.03258003	0	0
7.430426	0.04389284	0.2576915	0	0	0	0	0	0
7.446993	0.04389284	0.2576915	0	0	0	0	0	0
7.463558	0.04389284	0.2576915	0	0	0	0	0	0
7.480126	0.04389284	0.2576915	0	0	0	0	0	0
7.496971	0.04389284	0.2576915	0	0	0	0	0	0
7.513484	0.04389284	0.2576915	0	0	0	0	0	0
7.529825	0.04389284	0.2576915	0	0	0	0	0	0
7.546392	0.04389284	0.2576915	0	0	0	0	0	0
7.562958	0.04389284	0.2576915	0	0	0	0	0	0
7.579525	0.04389284	0.2576915	0	0	0	0	0	0
7.712058	0.04391911	0.2576736	0.0001981936	-0.0001353709	0.001329272	-0.0009079244	0	0
7.728625	0.04391911	0.2576736	0	0	-0.001329272	0.0009079244	0	0
7.745191	0.04391911	0.2576736	0	0	0	0	0	0
7.761757	0.04391911	0.2576736	0	0	0	0	0	0
7.778324	0.04391911	0.2576736	0	0	0	0	0	0
7.794891	0.04391911	0.2576736	0	0	0	0	0	0
7.811458	0.04391911	0.2576736	0	0	0	0	0	0
7.828202	0.04391911	0.2576736	0	0	0	0	0	0
7.844591	0.04391911	0.2576736	0	0	0	0	0	0
7.861226	0.04391911	0.2576736	0	0	0	0	0	0
7.877725	0.04391911	0.2576736	0	0	0	0	0	0
7.89475	0.04391911	0.2576736	0	0	0	0	0	0
7.910858	0.04391911	0.2576736	0	0	0	0	0	0
7.927425	0.04391911	0.2576736	0	0	0	0	0	0
7.943992	0.04391911	0.2576736	0	0	0	0	0	0
7.960558	0.04391911	0.2576736	0	0	0	0	0	0
7.977125	0.04389284	0.2576557	-0.001585526	-0.001081153	-0.04785334	-0.03263067	0	0
7.993692	0.04389284	0.2576557	0	0	0.04785196	0.03262973	0	0
8.010259	0.04389284	0.2576557	0	0	0	0	0	0
8.026825	0.04389284	0.2576557	0	0	0	0	0	0
8.043391	0.04389284	0.2576557	0	0	0	0	0	0
8.059958	0.04389284	0.2576557	0	0	0	0	0	0
8.076524	0.04389284	0.2576557	0	0	0	0	0	0
8.09309	0.04389284	0.2576557	0	0	0	0	0	0
8.109657	0.04389284	0.2576557	0	0	0	0	0	0
8.130409	0.04389284	0.2576557	0	0	0	0	0	0
8.146978	0.04389284	0.2576557	0	0	0	0	0	0
8.163545	0.04389284	0.2576557	0	0	0	0	0	0
8.180453	0.04389284	0.2576557	0	0	0	0	0	0
8.196678	0.04389284	0.2576557	0	0	0	0	0	0
8.21349	0.04389284	0.2576557	0	0	0	0	0	0
8.229812	0.04389284	0.2576557	0	0	0	0	0	0
8.247002	0.04389284	0.2576557	0	0	0	0	0	0
8.263011	0.04389284	0.2576557	0	0	0	0	0	0
8.279525	0.04389284	0.2576557	0	0	0	0	0	0
8.296079	0.04389284	0.2576557	0	0	0	0	0	0
8.312646	0.04391911	0.2576377	0.001585481	-0.001081122	0.04786919	-0.03264148	0	0
8.329211	0.04391911	0.2576377	0	0	-0.04785265	0.03263021	0	0
8.345778	0.04391911	0.2576377	0	0	0	0	0	0
8.461743	0.04391911	0.2576377	0	0	0	0	0	0
8.47831	0.04391911	0.2576377	0	0	0	0	0	0
8.494876	0.04391911	0.2576377	0	0	0	0	0	0
8.511683	0.04391911	0.2576377	0	0	0	0	0	0
8.52801	0.04391911	0.2576377	0	0	0	0	0	0
8.544705	0.04391911	0.2576377	0	0	0	0	0	0
8.561218	0.04391911	0.2576377	0	0	0	0	0	0
8.577709	0.04391911	0.2576377	0	0	0	0	0	0
8.594275	0.04391911	0.2576377	0	0	0	0	0	0
8.610843	0.04391911	0.2576377	0	0	0	0	0	0
8.627765	0.04391911	0.2576377	0	0	0	0	0	0
8.643976	0.04391911	0.2576377	0	0	0	0	0	0
8.660542	0.04391911	0.2576377	0	0	0	0	0	0
8.67711	0.04391911	0.2576377	0	0	0	0	0	0
8.693676	0.04391911	0.2576377	0	0	0	0	0	0
8.710324	0.04391911	0.2576377	0	0	0	0	0	0
8.726836	0.04391911	0.2576377	0	0	0	0	0	0
8.743377	0.04391911	0.2576377	0	0	0	0	0	0
8.759943	0.04391911	0.2576377	0	0	0	0	0	0
8.776871	0.04394537	0.2576198	0.001551496	-0.001058099	0.04632163	-0.0315907	0	0
8.793077	0.04394537	0.2576198	0	0	-0.0468256	0.0319344	0	0
8.809896	0.04391911	0.2576019	-0.001561525	-0.001064938	-0.04728343	-0.03224663	0	0
8.82621	0.04391911	0.2576019	0	0	0.04712829	0.03214082	0	0
8.842776	0.04394537	0.257584	0.001585347	-0.001081184	0.048215	-0.03288195	0	0
8.859343	0.04394537	0.257584	0	0	-0.04784862	0.03263208	0	0
8.87594	0.04394537	0.257584	0	0	0	0	0	0
8.892477	0.04394537	0.257584	0	0	0	0	0	0
8.909042	0.04394537	0.257584	0	0	0	0	0	0
8.925609	0.04394537	0.257584	0	0	0	0	0	0
8.942487	0.04394537	0.257584	0	0	0	0	0	0
8.958741	0.04394537	0.257584	0	0	0	0	0	0
8.975307	0.04394537	0.257584	0	0	0	0	0	0
8.992021	0.04397164	0.2575661	0.001571639	-0.001071683	0.04722555	-0.03220259	0	0
9.008441	0.04397164	0.2575661	0	0	-0.04743352	0.0323444	0	0
9.045598	0.04397164	0.2575661	0	0	0	0	0	0
9.062165	0.04397164	0.2575661	0	0	0	0	0	0
9.079085	0.04397164	0.2575661	0	0	0	0	0	0
9.095299	0.04397164	0.2575661	0	0	0	0	0	0
9.112107	0.0439979	0.2575482	0.0015625	-0.001067376	0.04731705	-0.03232324	0	0
9.128432	0.04397164	0.2575302	-0.001608778	-0.001097164	-0.09571212	-0.0008990261	0	0
9.145132	0.04397164	0.2575302	0	0	0.04871426	0.03322243	0	0
9.161642	0.04402417	0.2574944	0.003181726	-0.002169738	0.09580682	-0.06533426	0	0
9.178133	0.0440767	0.2574586	0.00318518	-0.002172247	0.000104665	-7.604172E-05	0	0
9.194699	0.04412923	0.2573869	0.003170919	-0.004326535	-0.0004313928	-0.06516848	0	0
9.211266	0.04428681	0.2572794	0.009512532	-0.006488904	0.1914013	-0.06526417	0	0
9.227832	0.04483835	0.2569032	0.03329251	-0.02271206	0.7177225	-0.4896441	0	0
9.244398	0.04617767	0.2559894	0.08084662	-0.05516018	1.435269	-0.9793425	0	0
9.260964	0.04680789	0.2555593	0.03804203	-0.02595921	-1.291919	0.8813376	0	0
9.277722	0.04680789	0.2555593	0	0	-1.141572	0.7789889	0	0
9.294098	0.04680789	0.2555593	0	0	0	0	0	0
9.310664	0.04680789	0.2555593	0	0	0	0	0	0
9.32723	0.04680789	0.2555593	0	0	0	0	0	0
9.343797	0.04680789	0.2555593	0	0	0	0	0	0
9.360363	0.04680789	0.2555593	0	0	0	0	0	0
9.376929	0.04680789	0.2555593	0	0	0	0	0	0
9.393496	0.04680789	0.2555593	0	0	0	0	0	0
9.410062	0.04680789	0.2555593	0	0	0	0	0	0
9.426628	0.04680789	0.2555593	0	0	0	0	0	0
9.443194	0.04680789	0.2555593	0	0	0	0	0	0
9.459761	0.04680789	0.2555593	0	0	0	0	0	0
9.492894	0.04680789	0.2555593	0	0	0	0	0	0
9.50946	0.04680789	0.2555593	0	0	0	0	0	0
9.526027	0.04680789	0.2555593	0	0	0	0	0	0
9.542594	0.04680789	0.2555593	0	0	0	0	0	0
9.55916	0.04680789	0.2555593	0	0	0	0	0	0
9.575929	0.04680789	0.2555593	0	0	0	0	0	0
9.592441	0.04680789	0.2555593	0	0	0	0	0	0
9.625427	0.04680789	0.2555593	0	0	0	0	0	0
9.641994	0.04678163	0.2555414	-0.001584897	-0.001081184	-0.03198393	-0.02181878	0	0
9.65856	0.04678163	0.2555414	0	0	0.04783505	0.03263208	0	0
9.675126	0.04678163	0.2555414	0	0	0	0	0	0
9.691692	0.04678163	0.2555414	0	0	0	0	0	0
9.708521	0.04678163	0.2555414	0	0	0	0	0	0
9.724826	0.04678163	0.2555414	0	0	0	0	0	0
9.741547	0.04680789	0.2555593	0.001570253	0.001071194	0.04754635	0.03243513	0	0
9.758058	0.04680789	0.2555593	0	0	-0.04725162	-0.03223408	0	0
9.824974	0.04680789	0.2555593	0	0	0	0	0	0
9.841541	0.04680789	0.2555593	0	0	0	0	0	0
9.858109	0.04680789	0.2555593	0	0	0	0	0	0
9.874675	0.04680789	0.2555593	0	0	0	0	0	0
9.891241	0.04680789	0.2555593	0	0	0	0	0	0
9.908163	0.04680789	0.2555593	0	0	0	0	0	0
9.924375	0.04680789	0.2555593	0	0	0	0	0	0
9.940941	0.04680789	0.2555593	0	0	0	0	0	0
9.957508	0.04680789	0.2555593	0	0	0	0	0	0
9.990723	0.04680789	0.2555593	0	0	0	0	0	0
10.02768	0.04680789	0.2555593	0	0	0	0	0	0
10.04426	0.04680789	0.2555593	0	0	0	0	0	0
10.06081	0.04680789	0.2555593	0	0	0	0	0	0
10.07738	0.04680789	0.2555593	0	0	0	0	0	0
10.09395	0.04678163	0.2555772	-0.001584897	0.001081184	-0.04783367	0.03263114	0	0
10.11051	0.04678163	0.2555772	0	0	0.04783505	-0.03263208	0	0
10.12732	0.04678163	0.2555772	0	0	0	0	0	0
10.14365	0.04678163	0.2555772	0	0	0	0	0	0
10.16034	0.04678163	0.2555772	0	0	0	0	0	0
10.17685	0.04678163	0.2555772	0	0	0	0	0	0
10.19335	0.04678163	0.2555772	0	0	0	0	0	0
10.20991	0.04680789	0.2555593	0.001584897	-0.001081184	0.04793854	-0.03270268	0	0
10.22648	0.04680789	0.2555593	0	0	-0.04783367	0.03263114	0	0
10.24305	0.04680789	0.2555593	0	0	0	0	0	0
10.25991	0.04680789	0.2555593	0	0	0	0	0	0
10.27618	0.04675537	0.2555593	-0.003227997	0	-0.09742676	0	0	0
10.29275	0.0465453	0.2557027	-0.01268053	0.008653071	-0.2878796	0.2635319	0	0
10.30931	0.04636149	0.2558281	-0.01109563	0.007571887	0.04783503	-0.03263206	0	0
10.32588	0.04050415	0.2598233	-0.3535702	0.2411634	-10.3365	7.050212	0	0
10.37558	0.01926078	0.2738957	-0.4274339	0.2831473	-1.114655	0.6335648	0	0
10.39214	0.006315705	0.2819107	-0.7814109	0.4838182	-5.341754	3.028261	0	0
10.40901	-0.007105144	0.290244	-0.7955667	0.4939829	-0.4233724	0.3040047	0	0
10.42553	-0.01544614	0.2929077	-0.5051209	0.1613142	8.700564	-9.965384	0	0
10.44204	-0.04024142	0.2934619	-1.501833	0.03356415	-30.18248	-3.868533	0	0
10.45841	-0.06110803	0.2931223	-1.274403	-0.02074233	6.9162	-1.651474	0	0
10.47506	-0.07475517	0.2929614	-0.819638	-0.009663712	13.77082	0.3354733	0	0
10.49157	-0.1045125	0.2924608	-1.802176	-0.03031326	-29.62831	-0.6226848	0	0
10.50811	-0.1183133	0.2919424	-0.8345503	-0.03135092	29.27883	-0.03139812	0	0
10.52468	-0.1331289	0.2915848	-0.8942248	-0.02158162	-1.802588	0.2951014	0	0
10.54124	-0.1416502	0.2919782	-0.5143738	0.02374288	11.46392	1.367896	0	0
10.55812	-0.1482722	0.2913524	-0.3924318	-0.03708178	3.646529	-1.818887	0	0
10.57463	0	0	8.979191	-17.64396	280.6952	-527.3543	0	0
10.59094	-0.1585783	0.2902976	-9.721215	17.79591	-569.6919	1079.646	0	0
10.60751	-0.1617328	0.2880984	-0.1904179	-0.1327518	289.876	-545.2944	0	0
10.62417	-0.1651914	0.2859347	-0.2076347	-0.129897	-0.5182143	0.08592696	0	0
10.64068	-0.1683646	0.2842894	-0.1921894	-0.09964694	0.4656698	0.9120302	0	0
10.65721	-0.1705634	0.2856486	-0.1329946	0.08220971	1.791402	5.503493	0	0
10.67378	-0.1756959	0.2892427	-0.309815	0.2169546	-5.342141	4.070945	0	0
10.69034	-0.1787301	0.2913703	-0.1831591	0.128427	3.822704	-2.671921	0	0
10.70722	-0.1808954	0.2928899	-0.1282678	0.0900161	1.641128	-1.148403	0	0
10.72348	-0.1809209	0.292872	-0.001566901	-0.001100223	3.823951	-2.749975	0	0
10.74025	-0.1809209	0.292872	0	0	0.0474421	0.03331218	0	0
10.75661	-0.1809209	0.292872	0	0	0	0	0	0
10.77318	-0.1809209	0.292872	0	0	0	0	0	0
10.78974	-0.1809209	0.292872	0	0	0	0	0	0
10.80631	-0.1809209	0.292872	0	0	0	0	0	0
10.82288	-0.1809209	0.292872	0	0	0	0	0	0
10.83944	-0.1809209	0.292872	0	0	0	0	0	0
10.85601	-0.1809209	0.292872	0	0	0	0	0	0
10.87258	-0.1809209	0.292872	0	0	0	0	0	0
10.88914	-0.1809209	0.292872	0	0	0	0	0	0
10.90571	-0.1809209	0.292872	0	0	0	0	0	0
10.92637	-0.1809718	0.2928362	-0.002465663	-0.001731302	-0.06623884	-0.0465106	0	0
10.94293	-0.1809718	0.2928005	0	-0.002156847	0.06623884	-0.01143207	0	0
10.9595	-0.1810737	0.292729	-0.006147998	-0.004317541	-0.1855523	-0.06521174	0	0
10.97607	-0.18115	0.2926753	-0.004610774	-0.003236357	0.04639619	0.03263208	0	0
10.99263	-0.1814556	0.2924608	-0.01844219	-0.01294902	-0.4174572	-0.2931458	0	0
11.0092	-0.1830844	0.2913167	-0.09832479	-0.06906626	-2.411	-1.693719	0	0
11.05897	-0.2039658	0.2765797	-0.4195538	-0.2960995	-4.842407	-3.422442	0	0
11.07548	-0.2089825	0.2730187	-0.3037721	-0.2156208	1.746721	1.214129	0	0
11.09203	-0.2143655	0.2691885	-0.3252921	-0.2314611	-0.6508796	-0.4790933	0	0
11.12517	-0.2179053	0.2666643	-0.1068363	-0.07618351	4.397112	3.12545	0	0
11.14173	-0.2203374	0.2649275	-0.1468054	-0.1048371	-0.8042109	-0.5765331	0	0
11.1583	-0.2219906	0.2637098	-0.09979151	-0.0735001	1.418922	0.9457791	0	0
11.17487	-0.2219906	0.2637098	0	0	3.011801	2.218301	0	0
11.19157	-0.2219906	0.2637098	0	0	0	0	0	0
11.20807	-0.2219906	0.2637098	0	0	0	0	0	0
11.22456	-0.2219656	0.2636919	0.001519035	-0.001084379	0.04603269	-0.03286093	0	0
11.2577	-0.2219656	0.2636919	0	0	-0.03061179	0.02185255	0	0
11.27426	-0.2219405	0.263674	0.001511139	-0.001081184	0.03040593	-0.02175472	0	0
11.29083	-0.2219405	0.263674	0	0	-0.0456089	0.03263208	0	0
11.3074	-0.2219405	0.263674	0	0	0	0	0	0
11.32396	-0.2219405	0.263674	0	0	0	0	0	0
11.34053	-0.2219155	0.2636561	0.001511139	-0.001081184	0.0456089	-0.03263208	0	0
11.35718	-0.2219155	0.2636561	0	0	-0.04549497	0.03255057	0	0
11.37366	-0.2219155	0.2636561	0	0	0	0	0	0
11.39023	-0.2218905	0.2636382	0.001512039	-0.001081184	0.0457493	-0.03271306	0	0
11.40679	-0.2218654	0.2636203	0.001511139	-0.001081184	-2.714977E-05	0	0	0
11.42336	-0.2218654	0.2636203	0	0	-0.0456089	0.03263208	0	0
11.43993	-0.2218654	0.2636203	0	0	0	0	0	0
11.45649	-0.2218654	0.2636203	0	0	0	0	0	0
11.47306	-0.2218404	0.2636024	0.001512039	-0.001081184	0.04563605	-0.03263208	0	0
11.48977	-0.2218153	0.2635845	0.001498202	-0.001071928	-0.0004158164	0.0002781672	0	0
11.50628	-0.2217652	0.2635486	0.003034033	-0.002169487	0.04623038	-0.03303787	0	0
11.52276	-0.2217402	0.2635308	0.001519185	-0.001085132	-0.04591776	0.03286874	0	0
11.53933	-0.2217152	0.2635128	0.001512039	-0.001081184	-0.0002162635	0.0001194774	0	0
11.55589	-0.2216901	0.2634949	0.001511139	-0.001081184	-2.714977E-05	0	0	0
11.57246	-0.2216651	0.263477	0.001512039	-0.001081184	2.714977E-05	0	0	0
11.58902	-0.22159	0.2634233	0.004535217	-0.003243553	0.09124495	-0.06526417	0	0
11.60585	-0.2215399	0.2633875	0.002977624	-0.002129152	-0.04664708	0.03337428	0	0
11.62216	-0.2214898	0.2633517	0.00307091	-0.002194682	0.002815435	-0.001977748	0	0
11.63872	-0.2213896	0.26328	0.006047255	-0.004324737	0.09053507	-0.06479242	0	0
11.65529	-0.2213144	0.2632263	0.004535855	-0.003243366	-0.04561546	0.03263677	0	0
11.6719	-0.2210138	0.2630114	0.01810368	-0.01294261	0.4090185	-0.2923955	0	0
11.68842	-0.2208134	0.2628681	0.01212513	-0.008667633	-0.1804433	0.1290264	0	0
11.70499	-0.2204376	0.2625995	0.02268688	-0.01621596	0.31914	-0.2280848	0	0
11.72193	-0.2202371	0.2624562	0.01183376	-0.008456835	-0.3239118	0.2315716	0	0
11.73812	-0.2196356	0.2620264	0.03714664	-0.0265441	0.7639662	-0.5458903	0	0
11.75495	-0.2187581	0.2613995	0.05214354	-0.03724995	0.4541498	-0.3242043	0	0
11.77437	-0.2185324	0.2612383	0.01162188	-0.008300901	-1.117894	0.7986338	0	0
11.79098	-0.2185073	0.2612204	0.001510273	-0.001078638	-0.2806826	0.2004789	0	0
11.80751	-0.2184823	0.2612025	0.001517244	-0.001083617	0.0002103872	-0.0001502585	0	0
11.82407	-0.2184823	0.2612025	0	0	-0.04584462	0.03274226	0	0
11.84064	-0.2184572	0.2611846	0.001513838	-0.001081184	0.04569034	-0.03263208	0	0
11.85721	-0.2184572	0.2611846	0	0	-0.04569034	0.03263208	0	0
11.87403	-0.2184321	0.2611667	0.001490161	-0.001064274	0.04462126	-0.03186854	0	0
11.89034	-0.218407	0.2611488	0.001539193	-0.00109864	0.001479861	-0.001037215	0	0
11.90706	-0.2183819	0.2611309	0.00149985	-0.001071194	-0.001191335	0.0008310849	0	0
11.92347	-0.2183568	0.261113	0.001528	-0.001091299	0.0008495768	-0.0006067678	0	0
11.94004	-0.2183318	0.2611309	0.001513838	0.001081184	-0.0004294259	0.0658747	0	0
11.9566	-0.2182565	0.261113	0.004542151	-0.001081122	0.0913973	-0.0652604	0	0
11.97317	-0.218106	0.2610413	0.009083926	-0.004324737	0.137075	-0.09789529	0	0
11.98974	-0.2174036	0.2606831	0.04240275	-0.02162368	1.005622	-0.5221133	0	0
12.00631	-0.2111976	0.2563298	0.3745521	-0.2627345	10.024	-7.27653	0	0
12.02314	-0.2020471	0.2498956	0.5435953	-0.3822296	5.060801	-3.577435	0	0
12.03944	-0.1872031	0.239457	0.9107674	-0.6404723	11.08224	-7.794453	0	0
12.056	-0.1749049	0.2308939	0.7423651	-0.5168987	-5.124129	3.760086	0	0
12.07257	-0.1581934	0.2192668	1.008767	-0.7018567	8.040495	-5.582366	0	0
12.08914	-0.1459547	0.2109909	0.7387283	-0.4995341	-8.150026	6.106285	0	0
12.1057	-0.1421144	0.2084165	0.2318124	-0.1554	-15.29919	10.38629	0	0
12.17225	-0.08069283	0.1962713	0.9230412	-0.182517	8.317146	-0.3262833	0	0
12.18854	-0.06802645	0.1985072	0.777478	0.1372408	-1.757283	3.860213	0	0
12.2051	-0.05662362	0.2009046	0.6883163	0.1447159	-2.713555	0.2274976	0	0
12.22167	-0.04144993	0.2036436	0.9159381	0.1653348	6.870037	0.6223168	0	0
12.23824	-0.03143701	0.205391	0.6043811	0.1054733	-9.403081	-1.806678	0	0
12.25481	-0.02328526	0.2066157	0.4920403	0.07392553	-3.39045	-0.952112	0	0
12.27137	-0.01897141	0.2086686	0.2603999	0.123917	-6.991124	1.508789	0	0
12.28794	-0.01528828	0.2110809	0.2223267	0.1456163	-1.149117	0.6549224	0	0
12.30484	-0.01397278	0.2117648	0.07783598	0.04046877	-4.317371	-3.141799	0	0
12.32135	-0.01302558	0.2111169	0.05736108	-0.03923982	-0.6127661	-2.385493	0	0
12.33786	-0.008420854	0.2079303	0.2788728	-0.192986	6.707439	-4.655478	0	0
12.35421	-0.008026144	0.2076602	0.02415288	-0.0165277	-7.75307	5.37097	0	0
12.37077	-0.008105085	0.2077142	-0.004765205	0.003260643	-0.8787438	0.6013153	0	0
12.3874	-0.008105085	0.2077142	0	0	0.1435621	-0.09823392	0	0
12.40391	-0.008105085	0.2077142	0	0	0	0	0	0
12.42047	-0.008105085	0.2077142	0	0	0	0	0	0
12.43704	-0.008105085	0.2077142	0	0	0	0	0	0
12.4536	-0.0081314	0.2077322	-0.001588439	0.001087481	-0.04794056	0.03282117	0	0
12.47017	-0.008157713	0.2077142	-0.001588383	-0.001087481	1.69708E-06	-0.06564423	0	0
12.48674	-0.008184028	0.2077322	-0.001588347	0.001087418	1.064597E-06	0.06564046	0	0
12.54939	-0.008289284	0.2077682	-0.001680151	0.0005746689	-0.001158933	-0.006472952	0	0
12.56595	-0.008315598	0.2077863	-0.001588291	0.001087418	0.001159642	0.006472952	0	0
12.58252	-0.008315598	0.2077863	0	0	0.04793473	-0.03281834	0	0
12.59909	-0.008315598	0.2077863	0	0	0	0	0	0
12.61606	-0.008315598	0.2077863	0	0	0	0	0	0
12.63222	-0.008315598	0.2077863	0	0	0	0	0	0
12.64879	-0.008315598	0.2077863	0	0	0	0	0	0
12.66535	-0.008315598	0.2077863	0	0	0	0	0	0
12.68368	-0.008341912	0.2077682	-0.001435778	-0.0009829652	-0.04114684	-0.02817004	0	0
12.70025	-0.008341912	0.2077682	0	0	0.04114459	0.02816851	0	0
12.71681	-0.008341912	0.2077682	0	0	0	0	0	0
12.73338	-0.008341912	0.2077682	0	0	0	0	0	0
12.74995	-0.008368226	0.2077502	-0.001588383	-0.001086581	-0.04794025	-0.03279497	0	0
12.76651	-0.008368226	0.2077142	0	-0.002173936	0.04793886	-0.0328174	0	0
12.78308	-0.008368226	0.2077142	0	0	0	0.06561142	0	0
12.79969	-0.008394539	0.2076962	-0.00158437	-0.001083836	-0.04775864	-0.03267073	0	0
12.81621	-0.008394539	0.2076962	0	0	0.04781774	0.03271117	0	0
12.83278	-0.008420854	0.2076782	-0.001588347	-0.001087418	-0.04799721	-0.03285995	0	0
12.84935	-0.008420854	0.2076782	0	0	0.0479378	0.03281928	0	0
12.86592	-0.008447167	0.2076602	-0.0015882	-0.001086456	-0.04793197	-0.03278931	0	0
12.88248	-0.008447167	0.2076602	0	0	0.04793335	0.03279025	0	0
12.89905	-0.008473481	0.2076422	-0.001588108	-0.001087293	-0.04792921	-0.03281456	0	0
12.91561	-0.008473481	0.2076422	0	0	0.04793059	0.0328155	0	0
12.93218	-0.008473481	0.2076422	0	0	0	0	0	0
12.94875	-0.008499796	0.2076242	-0.001588439	-0.001086581	-0.04794056	-0.03279402	0	0
12.96532	-0.008499796	0.2076242	0	0	0.04793919	0.03279308	0	0
12.98188	-0.008499796	0.2076242	0	0	0	0	0	0
12.99845	-0.008499796	0.2076242	0	0	0	0	0	0
13.03158	-0.008526109	0.2076062	-0.0007941914	-0.0005437403	-0.01597978	-0.0109405	0	0
13.04815	-0.008526109	0.2076062	0	0	0.01598008	0.01094071	0	0
13.06471	-0.008526109	0.2076062	0	0	0	0	0	0
13.08128	-0.008552423	0.2075882	-0.001588383	-0.001086581	-0.04794025	-0.03279497	0	0
13.09785	-0.008578737	0.2075702	-0.001588439	-0.001087481	-1.69708E-06	-2.714977E-05	0	0
13.11441	-0.008578737	0.2075702	0	0	0.04794194	0.03282212	0	0
13.13098	-0.008657678	0.2075161	-0.004765148	-0.003260643	-0.1438207	-0.09841206	0	0
13.14754	-0.008683993	0.2074981	-0.001588439	-0.001086581	0.09587879	0.06561709	0	0
13.16411	-0.00873662	0.2074261	-0.0031764	-0.004347623	-0.04792475	-0.09841844	0	0
13.18068	-0.008815561	0.2073721	-0.004765479	-0.00326173	-0.04795988	0.03277325	0	0
13.19724	-0.008815561	0.2073721	0	0	0.1438349	0.09844771	0	0
13.21381	-0.008841875	0.2073541	-0.001588383	-0.001086581	-0.04794025	-0.03279497	0	0
13.23049	-0.008841875	0.2073541	0	0	0.04778071	0.03268583	0	0
13.24694	-0.008868189	0.2073361	-0.001598968	-0.001094728	-0.04825835	-0.03303991	0	0
13.26351	-0.008868189	0.2073361	0	0	0.04842001	0.03315059	0	0
13.28008	-0.008894502	0.2073181	-0.001588383	-0.001086581	-0.04794025	-0.03279497	0	0
13.29664	-0.008894502	0.2073181	0	0	0.04794025	0.03279497	0	0
13.31321	-0.008894502	0.2073181	0	0	0	0	0	0
13.32978	-0.008894502	0.2073181	0	0	0	0	0	0
13.36291	-0.008894502	0.2073181	0	0	0	0	0	0
13.37948	-0.008894502	0.2073181	0	0	0	0	0	0
13.39604	-0.008894502	0.2073181	0	0	0	0	0	0
13.41261	-0.008894502	0.2073181	0	0	0	0	0	0
13.42918	-0.008894502	0.2073181	0	0	0	0	0	0
13.44574	-0.008894502	0.2073181	0	0	0	0	0	0
13.46231	-0.008894502	0.2073181	0	0	0	0	0	0
13.47917	-0.008920816	0.2073001	-0.001561152	-0.001068837	-0.04670965	-0.03197959	0	0
13.49544	-0.008920816	0.2073001	0	0	0.04711973	0.03226035	0	0
13.51201	-0.008947129	0.2072821	-0.001588383	-0.001086581	-0.04836344	-0.03308446	0	0
13.52857	-0.008947129	0.2072821	0	0	0.04794025	0.03279497	0	0
13.54521	-0.008973443	0.207264	-0.001581917	-0.001083054	-0.04764773	-0.03262185	0	0
13.56492	-0.008999757	0.207246	-0.001334854	-0.000913115	0.006797263	0.004675408	0	0
13.58149	-0.008999757	0.207246	0	0	0.03679248	0.02516811	0	0
13.59806	-0.009026071	0.207228	-0.001588291	-0.001087418	-0.04793473	-0.03281834	0	0
13.66432	-0.009105012	0.207174	-0.001191253	-0.0008151372	0.00479317	0.003287055	0	0
13.68089	-0.009105012	0.207174	0	0	0.01438116	0.009840582	0	0
13.69782	-0.009131325	0.207156	-0.001554643	-0.001064381	-0.04641688	-0.03177915	0	0
13.71402	-0.009131325	0.207156	0	0	0.04692056	0.03212399	0	0
13.73059	-0.009131325	0.207156	0	0	0	0	0	0
13.74716	-0.009131325	0.207156	0	0	0	0	0	0
13.76372	-0.009131325	0.207156	0	0	0	0	0	0
13.78655	-0.009131325	0.207156	0	0	0	0	0	0
13.80311	-0.009131325	0.207156	0	0	0	0	0	0
13.81968	-0.009131325	0.207156	0	0	0	0	0	0
13.83641	-0.009131325	0.207156	0	0	0	0	0	0
13.85282	-0.009131325	0.207156	0	0	0	0	0	0
13.88595	-0.009157639	0.207138	-0.0007941685	-0.0005432749	-0.01603254	-0.01096754	0	0
13.90252	-0.009183953	0.20712	-0.001588383	-0.001087481	-0.01598024	-0.01094986	0	0
13.91908	-0.009210266	0.207102	-0.001588383	-0.001087481	0	0	0	0
13.93565	-0.009289207	0.2070479	-0.004765148	-0.003260643	-0.09588049	-0.06558993	0	0
13.95222	-0.00939446	0.2069759	-0.006353109	-0.004347873	-0.04792614	-0.03281362	0	0
13.96901	-0.009683908	0.2067778	-0.01723595	-0.01179706	-0.3262195	-0.2232936	0	0
13.98535	-0.01010492	0.2064897	-0.02576676	-0.01763501	-0.2574753	-0.1761999	0	0
14.00203	-0.01013123	0.2064716	-0.001577215	-0.001079835	0.7325086	0.5013244	0	0
14.01854	-0.01013123	0.2064716	0	0	0.04751292	0.03252955	0	0
14.03505	-0.01013123	0.2064716	0	0	0	0	0	0
14.05162	-0.01013123	0.2064716	0	0	0	0	0	0
14.06818	-0.01013123	0.2064716	0	0	0	0	0	0
14.08475	-0.01013123	0.2064716	0	0	0	0	0	0
14.10131	-0.01013123	0.2064716	0	0	0	0	0	0
14.11788	-0.01013123	0.2064716	0	0	0	0	0	0
14.13463	-0.01013123	0.2064716	0	0	0	0	0	0
14.15114	-0.01013123	0.2064716	0	0	0	0	0	0
14.16765	-0.01013123	0.2064716	0	0	0	0	0	0
14.18415	-0.01015755	0.2064536	-0.001594937	-0.001091104	-0.04831748	-0.0330542	0	0
14.20072	-0.01015755	0.2064536	0	0	0.04823665	0.0329989	0	0
14.21768	-0.01015755	0.2064536	0	0	0	0	0	0
14.23385	-0.01015755	0.2064536	0	0	0	0	0	0
14.25042	-0.01015755	0.2064536	0	0	0	0	0	0
14.26722	-0.01015755	0.2064536	0	0	0	0	0	0
14.28355	-0.01015755	0.2064536	0	0	0	0	0	0
14.30011	-0.01015755	0.2064536	0	0	0	0	0	0
14.31676	-0.01015755	0.2064536	0	0	0	0	0	0
14.33327	-0.01015755	0.2064536	0	0	0	0	0	0
14.35028	-0.01015755	0.2064536	0	0	0	0	0	0
14.36638	-0.01015755	0.2064536	0	0	0	0	0	0
14.38295	-0.01015755	0.2064536	0	0	0	0	0	0
14.39952	-0.01015755	0.2064536	0	0	0	0	0	0
14.41859	-0.01018386	0.2064356	-0.001379176	-0.000944248	-0.03869146	-0.02648997	0	0
14.43516	-0.01018386	0.2064356	0	0	0.03869043	0.02648927	0	0
14.45173	-0.01018386	0.2064356	0	0	0	0	0	0
14.46836	-0.01018386	0.2064356	0	0	0	0	0	0
14.48487	-0.01018386	0.2064356	0	0	0	0	0	0
14.50143	-0.01018386	0.2064356	0	0	0	0	0	0
14.518	-0.01018386	0.2064356	0	0	0	0	0	0
14.53456	-0.01018386	0.2064356	0	0	0	0	0	0
14.55113	-0.01018386	0.2064356	0	0	0	0	0	0
14.56793	-0.01018386	0.2064356	0	0	0	0	0	0
14.58426	-0.01018386	0.2064356	0	0	0	0	0	0
14.60083	-0.01018386	0.2064356	0	0	0	0	0	0
14.6174	-0.01018386	0.2064356	0	0	0	0	0	0
14.63396	-0.01018386	0.2064356	0	0	0	0	0	0
14.65053	-0.01018386	0.2064356	0	0	0	0	0	0
14.6671	-0.01018386	0.2064356	0	0	0	0	0	0
14.68366	-0.01018386	0.2064356	0	0	0	0	0	0
14.70023	-0.01018386	0.2064356	0	0	0	0	0	0
14.71679	-0.01018386	0.2064356	0	0	0	0	0	0
14.73355	-0.01018386	0.2064356	0	0	0	0	0	0
14.75006	-0.01018386	0.2064356	0	0	0	0	0	0
14.81619	-0.01018386	0.2064356	0	0	0	0	0	0
14.83276	-0.01018386	0.2064356	0	0	0	0	0	0
14.84963	-0.01018386	0.2064356	0	0	0	0	0	0
14.86589	-0.01018386	0.2064356	0	0	0	0	0	0
14.88246	-0.01018386	0.2064356	0	0	0	0	0	0
14.89916	-0.01018386	0.2064356	0	0	0	0	0	0
14.91568	-0.01018386	0.2064356	0	0	0	0	0	0
14.93216	-0.01018386	0.2064356	0	0	0	0	0	0
14.94873	-0.01018386	0.2064356	0	0	0	0	0	0
14.96571	-0.01018386	0.2064356	0	0	0	0	0	0
14.98186	-0.01018386	0.2064356	0	0	0	0	0	0
14.99843	-0.01018386	0.2064356	0	0	0	0	0	0
15.03176	-0.01018386	0.2064356	0	0	0	0	0	0
15.04827	-0.01015755	0.2064176	0.001593796	-0.001091187	0.03197705	-0.02189297	0	0
15.06469	-0.01015755	0.2064176	0	0	-0.04839336	0.03313234	0	0
15.08126	-0.01015755	0.2064176	0	0	0	0	0	0
15.09783	-0.01015755	0.2064176	0	0	0	0	0	0
15.11439	-0.01015755	0.2064176	0	0	0	0	0	0
15.13096	-0.01018386	0.2063996	-0.001588383	-0.001086581	-0.04794025	-0.03279497	0	0
15.14753	-0.01021017	0.2064176	-0.001588235	0.001086519	4.455147E-06	0.06558616	0	0
15.16409	-0.01021017	0.2064176	0	0	0.04793441	-0.03279214	0	0
15.18086	-0.01018386	0.2063996	0.001569087	-0.001073419	0.04706928	-0.0322003	0	0
15.19737	-0.01018386	0.2063996	0	0	-0.04714616	0.03225289	0	0
15.21389	-0.01018386	0.2063996	0	0	0	0	0	0
15.27239	-0.01021017	0.2064176	-0.0004497721	0.0003076911	-0.005995833	0.004101776	0	0
15.28896	-0.01018386	0.2063996	0.001588144	-0.001086456	0.02714674	-0.0185712	0	0
15.30552	-0.01021017	0.2064176	-0.001588327	0.001086581	-0.09586606	0.06558239	0	0
15.32209	-0.01021017	0.2064176	0	0	0.04793717	-0.03279402	0	0
15.35522	-0.01018386	0.2063996	0.0007941633	-0.0005432905	0.01597921	-0.01093145	0	0
15.372	-0.01018386	0.2063996	0	0	-0.01591264	0.01088591	0	0
15.38836	-0.01018386	0.2063996	0	0	0	0	0	0
15.40494	-0.01018386	0.2063996	0	0	0	0	0	0
15.42571	-0.01018386	0.2063996	0	0	0	0	0	0
15.44228	-0.01018386	0.2063996	0	0	0	0	0	0
15.45884	-0.01018386	0.2063996	0	0	0	0	0	0
15.47541	-0.01021017	0.2064176	-0.001588327	0.001086581	-0.04793855	0.03279497	0	0
15.50854	-0.01018386	0.2063996	0.0007941404	-0.0005432749	0.04793717	-0.03279402	0	0
15.52511	-0.01018386	0.2063996	0	0	-0.01597875	0.01093113	0	0
15.54168	-0.01018386	0.2063996	0	0	0	0	0	0
15.55824	-0.01018386	0.2063996	0	0	0	0	0	0
15.57481	-0.01018386	0.2063996	0	0	0	0	0	0
15.59137	-0.01018386	0.2063996	0	0	0	0	0	0
15.60816	-0.01018386	0.2063996	0	0	0	0	0	0
15.62451	-0.01018386	0.2063996	0	0	0	0	0	0
15.64107	-0.01018386	0.2063996	0	0	0	0	0	0
15.6577	-0.01018386	0.2063996	0	0	0	0	0	0
15.67421	-0.01018386	0.2063996	0	0	0	0	0	0
15.69077	-0.01018386	0.2063996	0	0	0	0	0	0
15.70734	-0.01018386	0.2063996	0	0	0	0	0	0
15.72391	-0.01018386	0.2063996	0	0	0	0	0	0
15.74047	-0.01018386	0.2063996	0	0	0	0	0	0
15.75704	-0.01018386	0.2063996	0	0	0	0	0	0
15.77361	-0.01018386	0.2063996	0	0	0	0	0	0
15.79029	-0.01021017	0.2063816	-0.001577339	-0.001079958	-0.04744171	-0.03248194	0	0
15.873	-0.0104733	0.2061655	-0.003181093	-0.002612844	-0.01613457	-0.0154216	0	0
15.88986	-0.01057855	0.2060934	-0.006245501	-0.00427519	-0.03077663	-0.01669536	0	0
15.90614	-0.0106838	0.2060574	-0.006464578	-0.002212138	-0.006611943	0.0622648	0	0
15.9227	-0.01071012	0.2060394	-0.001588327	-0.001087481	0.1484517	0.03423886	0	0
15.93939	-0.01071012	0.2060394	0	0	0.04776532	0.03270351	0	0
15.9559	-0.01071012	0.2060394	0	0	0	0	0	0
15.97241	-0.01071012	0.2060394	0	0	0	0	0	0
15.98897	-0.01071012	0.2060394	0	0	0	0	0	0
16.00554	-0.01071012	0.2060394	0	0	0	0	0	0
16.02245	-0.01073643	0.2060214	-0.001555815	-0.00106434	-0.04647041	-0.03179061	0	0
16.03867	-0.01073643	0.2060214	0	0	0.04695729	0.03212368	0	0
16.05547	-0.01076274	0.2060034	-0.001565936	-0.001072113	-0.04741837	-0.03246482	0	0
16.0718	-0.01084168	0.2059493	-0.004833711	-0.003308587	-0.09862163	-0.06749694	0	0
16.0885	-0.01089431	0.2058773	-0.003152516	-0.004315978	0.05090853	-0.03050495	0	0
16.10494	-0.01118374	0.2056792	-0.0176043	-0.01205046	-0.4361556	-0.2334272	0	0
16.12151	-0.01144687	0.205499	-0.01588218	-0.01087238	0.05217166	0.03569021	0	0
16.13807	-0.01181524	0.2052469	-0.02223495	-0.01522115	-0.191727	-0.1312462	0	0
16.15464	-0.01228886	0.2049587	-0.0285875	-0.01739599	-0.1917203	-0.0656367	0	0
16.17121	-0.0203393	0.1994446	-0.4859259	-0.3328291	-13.8025	-9.519789	0	0
16.18777	-0.029991	0.192826	-0.582578	-0.399497	-2.916968	-2.012043	0	0
16.20434	-0.03608959	0.188639	-0.3681112	-0.2527289	6.47262	4.429471	0	0
16.22091	-0.04171263	0.1848108	-0.3394077	-0.2310732	0.8662727	0.6535706	0	0
16.23748	-0.04255324	0.1842328	-0.0507392	-0.03489002	8.712034	5.920819	0	0
16.25404	-0.04612515	0.1817756	-0.2156011	-0.1483152	-4.975541	-3.423178	0	0
16.27357	-0.04696544	0.1811973	-0.04304355	-0.02962262	4.781451	3.28889	0	0
16.29015	-0.04696544	0.1811973	0	0	1.192266	0.820519	0	0
16.3067	-0.04696544	0.1811973	0	0	0	0	0	0
16.32367	-0.04696544	0.1811973	0	0	0	0	0	0
16.34018	-0.04696544	0.1811973	0	0	0	0	0	0
16.3564	-0.04696544	0.1811973	0	0	0	0	0	0
16.37321	-0.04696544	0.1811973	0	0	0	0	0	0
16.38953	-0.04696544	0.1811973	0	0	0	0	0	0
16.40623	-0.04696544	0.1811973	0	0	0	0	0	0
16.42274	-0.04696544	0.1811973	0	0	0	0	0	0
16.43925	-0.04696544	0.1811973	0	0	0	0	0	0
16.4558	-0.04696544	0.1811973	0	0	0	0	0	0
16.47237	-0.04696544	0.1811973	0	0	0	0	0	0
16.48893	-0.04696544	0.1811973	0	0	0	0	0	0
16.5058	-0.04696544	0.1811973	0	0	0	0	0	0
16.52207	-0.04696544	0.1811973	0	0	0	0	0	0
16.5552	-0.04696544	0.1811973	0	0	0	0	0	0
16.57184	-0.04696544	0.1811973	0	0	0	0	0	0
16.58833	-0.04696544	0.1811973	0	0	0	0	0	0
16.6049	-0.04696544	0.1812334	0	0.002181132	0	0.06598242	0	0
16.62147	-0.04701795	0.1813057	-0.003169837	0.004364063	-0.09566587	0.06588098	0	0
16.63803	-0.04707047	0.1814142	-0.003169837	0.006544295	0	0.06579954	0	0
16.6549	-0.04762186	0.1821189	-0.03268376	0.04177501	-0.8826535	1.053622	0	0
16.67117	-0.04896084	0.1836185	-0.08233753	0.09221609	-1.49864	1.522402	0	0
16.754	-0.06611403	0.2511146	-0.2070737	0.8148141	-1.258713	7.291737	0	0
16.77057	-0.07033117	0.2845398	-0.2545471	2.017552	-0.4775828	12.09956	0	0
16.7875	-0.07200687	0.2981271	-0.09898005	0.8025715	4.644228	-36.27147	0	0
16.8037	-0.07493835	0.3254243	-0.1809231	1.684706	-2.473187	26.62441	0	0
16.82027	-0.07684836	0.3453712	-0.1152883	1.204001	2.002881	-14.66899	0	0
16.83684	-0.07857473	0.3708047	-0.1042041	1.53517	0.3345218	9.99469	0	0
16.8534	-0.07841781	0.3877111	0.009471959	1.020473	3.430752	-15.53358	0	0
16.86997	-0.07813011	0.3973856	0.01736741	0.584017	0.2382988	-13.17303	0	0
16.88654	-0.07710996	0.4099297	0.06157628	0.7571631	1.334303	5.225862	0	0
16.9031	-0.07462433	0.4218401	0.1500331	0.7189155	2.669632	-1.154314	0	0
16.92009	-0.07059303	0.4282928	0.2372657	0.3797815	2.599465	-10.10594	0	0
16.93624	-0.06800026	0.430068	0.1606238	0.1099732	-2.313189	-8.1433	0	0
16.9528	-0.0649611	0.4321484	0.1834651	0.1255865	0.6983567	0.4773657	0	0
16.96937	-0.0620256	0.4343727	0.1771871	0.1342606	-0.1894829	0.2617999	0	0
16.98594	-0.06207803	0.4348392	-0.003164665	0.02815414	-5.443026	-3.202299	0	0
17.00265	-0.06147507	0.435503	0.03606652	0.03970871	1.17864	0.3471391	0	0
17.01907	-0.05546936	0.4395767	0.365833	0.2481465	9.952372	6.290664	0	0
17.03568	-0.05174325	0.44209	0.2243918	0.1513522	-4.283252	-2.931214	0	0
17.0522	-0.04373525	0.44746	0.484535	0.3249189	7.851592	5.238555	0	0
17.06877	-0.03795545	0.4513413	0.3488696	0.2342797	-4.099347	-2.738807	0	0
17.08572	-0.03275144	0.4546851	0.3070101	0.1972632	-1.248873	-1.104381	0	0
17.1019	-0.02602044	0.458318	0.4159574	0.2245035	3.288226	0.8221601	0	0
17.13504	-0.02504739	0.4574366	0.02936669	-0.02660082	-7.838987	-5.091699	0	0
17.1516	-0.0224699	0.4553863	0.1555955	-0.1237658	2.539825	-1.955039	0	0
17.16827	-0.02031299	0.4537681	0.1294164	-0.09709566	-0.787772	0.8025513	0	0
17.18474	-0.01799806	0.4521502	0.1405715	-0.09824712	0.3366607	-0.03475105	0	0
17.2013	-0.01557769	0.450281	0.1460938	-0.1128252	0.1671636	-0.4412894	0	0
17.21787	-0.015604	0.4502271	-0.001588066	-0.003254159	-4.457047	3.306862	0	0
17.23482	-0.01568292	0.4501731	-0.004657384	-0.003181275	-0.0915831	0.002174743	0	0
17.27235	-0.01591971	0.4500114	-0.00630934	-0.00430966	-0.03032459	-0.02071353	0	0
17.28886	-0.01607756	0.4499036	-0.009561084	-0.006530874	-0.06017402	-0.04110391	0	0
17.30527	-0.01639327	0.449688	-0.0192288	-0.01313277	-0.2935974	-0.200492	0	0
17.32184	-0.01765606	0.4488614	-0.07622224	-0.04989351	-1.727823	-1.114445	0	0
17.33841	-0.01873465	0.4481247	-0.06510387	-0.04446451	0.3355532	0.1638473	0	0
17.35498	-0.01897141	0.447963	-0.01429069	-0.009760678	1.533545	1.047364	0	0
17.37154	-0.0189451	0.4479451	0.001587842	-0.001082921	0.4792149	0.2618952	0	0
17.38811	-0.0189451	0.4479451	0	0	-0.04792115	0.03268262	0	0
17.40468	-0.0189451	0.4479451	0	0	0	0	0	0
17.42125	-0.01897141	0.4479271	-0.001587842	-0.00108472	-0.04792115	-0.0327369	0	0
17.43781	-0.01897141	0.4478911	0	-0.002169439	0.04792115	-0.0327369	0	0
17.45438	-0.01899771	0.4478732	-0.001587842	-0.00108472	-0.04792115	0.0327369	0	0
17.47095	-0.01902402	0.4478552	-0.001587842	-0.00108472	0	0	0	0
17.48751	-0.01902402	0.4478193	0	-0.00216789	0.04792392	-0.03269203	0	0
17.50408	-0.01905033	0.4478013	-0.001587842	-0.00108472	-0.04792392	0.03269203	0	0
17.52065	-0.01905033	0.4478013	0	0	0.04792115	0.0327369	0	0
17.53721	-0.01905033	0.4478013	0	0	0	0	0	0
17.55378	-0.01902402	0.4477834	0.001587842	-0.00108472	0.04792115	-0.0327369	0	0
17.57035	-0.01902402	0.4477834	0	0	-0.04792115	0.0327369	0	0
17.58707	-0.01902402	0.4477834	0	0	0	0	0	0
17.60348	-0.01902402	0.4477834	0	0	0	0	0	0
17.62005	-0.01902402	0.4477834	0	0	0	0	0	0
17.63662	-0.01905033	0.4477654	-0.001587842	-0.00108472	-0.04792115	-0.0327369	0	0
17.65318	-0.01905033	0.4477654	0	0	0.04792115	0.0327369	0	0
17.68632	-0.01905033	0.4477294	0	-0.00108472	0	-0.0218246	0	0
17.70316	-0.01905033	0.4477294	0	0	0	0.02170466	0	0
17.71945	-0.01905033	0.4477294	0	0	0	0	0	0
17.73602	-0.01907663	0.4477115	-0.001587842	-0.001082921	-0.04832451	-0.03295771	0	0
17.75269	-0.01907663	0.4477115	0	0	0.04776444	0.03257573	0	0
17.76921	-0.01910294	0.4476935	-0.001593161	-0.001088353	-0.04800431	-0.03279371	0	0
17.78572	-0.01910294	0.4476935	0	0	0.04824275	0.0329566	0	0
17.80228	-0.01910294	0.4476576	0	-0.002169439	0	-0.06558329	0	0
17.81885	-0.01907663	0.4475678	0.001587842	-0.0054218	0.04792115	-0.09815643	0	0
17.83542	-0.01899771	0.4472983	0.004763525	-0.0162654	0.09584231	-0.3272604	0	0
17.85199	-0.01794544	0.4462564	0.06351524	-0.06289036	1.77313	-1.407144	0	0
17.86878	-0.0130782	0.4427184	0.2898496	-0.210689	6.784699	-4.430479	0	0
17.88512	-0.006973571	0.4353236	0.373551	-0.4524995	2.526112	-7.297853	0	0
17.90169	-0.007578802	0.4259443	-0.03653182	-0.5661337	-12.46096	-3.452943	0	0
17.91825	-0.008420854	0.418848	-0.05082633	-0.4283366	-0.4314091	4.158727	0	0
17.93482	-0.009368147	0.404739	-0.05717871	-0.8516219	-0.1917152	-12.77478	0	0
17.95139	-0.01123637	0.3924493	-0.1127662	-0.7418025	-1.677632	3.314355	0	0
18.00706	-0.01610387	0.3653025	-0.08742627	-0.4875899	0.3507603	3.518867	0	0
18.02363	-0.01665635	0.3574971	-0.03334793	-0.4711371	0.7485643	0.2277436	0	0
18.0402	-0.01594602	0.3474784	0.04287599	-0.6047303	2.300443	-4.031851	0	0
18.05677	-0.01457791	0.3401212	0.08257884	-0.4440821	1.198234	4.848373	0	0
18.07343	-0.01297296	0.3325675	0.09633205	-0.4533808	0.4139053	-0.2798463	0	0
18.08994	-0.01057855	0.3216202	0.1450106	-0.6629985	1.467433	-6.319	0	0
18.10647	-0.008368226	0.3120819	0.133739	-0.5771242	-0.3411612	2.599173	0	0
18.12303	-0.006263076	0.302291	0.1270671	-0.5909815	-0.2016009	-0.4187223	0	0
18.14346	-0.003947348	0.287562	0.1133621	-0.7210317	-0.3704555	-3.515351	0	0
18.16003	-0.002631573	0.2797642	0.07942034	-0.4706766	-0.9174711	6.767281	0	0
18.1766	0.0003157895	0.2725356	0.1779031	-0.4363199	2.972216	1.036886	0	0
18.19316	0.0004473684	0.2689379	0.007942121	-0.2171562	-5.129433	6.614375	0	0
18.20973	0.001105263	0.2672014	0.03971058	-0.1048149	0.9587739	3.390469	0	0
18.2263	0.003315777	0.2657332	0.1334116	-0.08860762	2.827739	0.4891073	0	0
18.24305	0.003421039	0.2656616	0.006284175	-0.004275436	-3.815408	2.531018	0	0
18.25943	0.003421039	0.2656616	0	0	-0.1896895	0.1290552	0	0
18.276	0.003421039	0.2656616	0	0	0	0	0	0
18.29256	0.003447355	0.2656437	0.001588404	-0.001081122	0.04793812	-0.03262833	0	0
18.30913	0.00347367	0.2656258	0.001588404	-0.001081122	0	0	0	0
18.3257	0.003526301	0.26559	0.003176807	-0.002160445	0.04793812	-0.03257403	0	0
18.34226	0.003578932	0.2655184	0.003176807	-0.004324488	0	-0.06531095	0	0
18.35913	0.003868402	0.2653214	0.01716222	-0.0116759	0.4183002	-0.2198789	0	0
18.37539	0.004289447	0.2650349	0.02588825	-0.017615	0.2633826	-0.179263	0	0
18.39196	0.004763122	0.2647126	0.02859104	-0.0194548	0.08232377	-0.05603805	0	0
18.40866	0.008973443	0.2618473	0.2521038	-0.1715699	6.718556	-4.572417	0	0
18.42509	0.01552507	0.2573869	0.398716	-0.271447	4.42502	-3.014471	0	0
18.44166	0.01955014	0.2546454	0.2429539	-0.1654764	-4.720202	3.211323	0	0
18.45823	0.02252251	0.2526203	0.1794124	-0.1222387	-1.917686	1.304916	0	0
18.57428	0.0248107	0.2510967	0.01971716	-0.01312861	-1.204175	0.8227403	0	0
18.59076	0.02517889	0.2508457	0.02233979	-0.01522719	0.0197886	-0.01583451	0	0
18.60733	0.02536298	0.2507203	0.01111186	-0.00757325	-0.3397397	0.2315962	0	0
18.6239	0.02557337	0.2505769	0.01269913	-0.008656171	0.04790418	-0.03268262	0	0
18.64083	0.03559023	0.2437449	0.5916095	-0.4035068	17.28155	-11.78702	0	0
18.65734	0.04935462	0.2343416	0.8336037	-0.5694841	7.235922	-4.962923	0	0
18.67385	0.06003304	0.2270318	0.6467096	-0.4426972	-5.659372	3.839253	0	0
18.69016	0.07004312	0.2201658	0.6136773	-0.420924	-1.006359	0.6633402	0	0
18.70687	0.07854858	0.2143202	0.5089373	-0.3497837	-3.171648	2.154211	0	0
18.72339	0.08706878	0.2084525	0.5160031	-0.3553618	0.2126719	-0.1678941	0	0
18.73986	0.09048904	0.2060934	0.2075947	-0.1431855	-9.349225	6.432005	0	0
18.75643	0.09471574	0.2031751	0.2551241	-0.1761482	1.438414	-0.9975747	0	0
18.773	0.09682783	0.2017156	0.127486	-0.08809885	-3.852124	2.657335	0	0
18.78956	0.09760987	0.2011749	0.04720374	-0.03263333	-2.422925	1.673953	0	0
18.80613	0.09760987	0.2011749	0	0	-1.424612	0.9848759	0	0
18.8227	0.09760987	0.2011749	0	0	0	0	0	0
18.83926	0.09760987	0.2011749	0	0	0	0	0	0
18.85583	0.0975838	0.2011929	-0.001573563	0.001087418	-0.04749023	0.03281834	0	0
18.87249	0.0975838	0.2011929	0	0	0.04735393	-0.03272415	0	0
18.88901	0.0975838	0.2011929	0	0	0	0	0	0
18.90602	0.0975838	0.2011929	0	0	0	0	0	0
18.92253	0.0975838	0.2011929	0	0	0	0	0	0
18.93867	0.0975838	0.2011929	0	0	0	0	0	0
18.95523	0.0975838	0.2011929	0	0	0	0	0	0
18.9718	0.09755774	0.201211	-0.001573113	0.001088317	-0.04747666	0.03284548	0	0
18.98858	0.09753167	0.201229	-0.001553885	0.001073819	0.0005766744	-0.0004348048	0	0
19.00509	0.09753167	0.201229	0	0	0.04667868	-0.03225752	0	0
19.0215	0.09750561	0.201247	-0.00158829	0.001098817	-0.04824575	0.03337756	0	0
19.03811	0.09750561	0.201247	0	0	0.04809805	-0.03327538	0	0
19.05463	0.09750561	0.201247	0	0	0	0	0	0
19.0712	0.09742741	0.2013011	-0.004720239	0.003263153	-0.1426624	0.0986241	0	0
19.08777	0.09740134	0.2013191	-0.001573563	0.001087418	0.09496688	-0.06566382	0	0
19.10433	0.09732313	0.2013732	-0.004720239	0.003264053	-0.09496688	0.06569097	0	0
19.1209	0.097271	0.2014092	-0.003147039	0.002175086	0.04748203	-0.03286696	0	0
19.13768	0.09716673	0.2015173	-0.006212269	0.006442649	-0.09191098	0.1279629	0	0
19.1582	0.09693211	0.2017156	-0.0114362	0.009662485	-0.1400515	0.08632241	0	0
19.17477	0.09672355	0.2018958	-0.01258895	0.01087688	-0.03108595	0.03274827	0	0
19.19133	0.09622819	0.2022382	-0.02989995	0.02066634	-0.5224468	0.2954465	0	0
19.2079	0.09406369	0.2037697	-0.1306644	0.09245376	-3.041252	2.166673	0	0
19.22447	0.09239408	0.2049587	-0.1007777	0.07176689	0.9020327	-0.624367	0	0
19.24103	0.08654642	0.2089926	-0.3529656	0.2434917	-7.611045	5.182664	0	0
19.25777	0.08024835	0.2132946	-0.3763396	0.2570592	-0.701873	0.4074053	0	0
19.39013	0.05560053	0.2301755	-0.1862094	0.1275323	1.275175	-0.868718	0	0
19.4067	0.05350152	0.2315764	-0.1266961	0.08455686	0.3995963	-0.2885545	0	0
19.42327	0.05232063	0.2323845	-0.07127917	0.04877641	1.672487	-1.079856	0	0
19.4399	0.05232063	0.2323845	0	0	2.147131	-1.469284	0	0
19.4564	0.05232063	0.2323845	0	0	0	0	0	0
19.47297	0.05232063	0.2323845	0	0	0	0	0	0
19.48954	0.05232063	0.2323845	0	0	0	0	0	0
19.5061	0.05232063	0.2323845	0	0	0	0	0	0
19.52267	0.05232063	0.2323845	0	0	0	0	0	0
19.53924	0.05232063	0.2323845	0	0	0	0	0	0
19.55598	0.05234687	0.2323665	0.00156735	-0.001072339	0.04705083	-0.03219092	0	0
19.5725	0.05232063	0.2323845	-0.001589254	0.001087325	-0.09491139	0.06493582	0	0
19.58894	0.05232063	0.2323845	0	0	0.04821916	-0.03299025	0	0
19.60552	0.05232063	0.2323845	0	0	0	0	0	0
19.62207	0.05232063	0.2323845	0	0	0	0	0	0
19.63864	0.05234687	0.2323665	0.001584131	-0.00108382	0.04782845	-0.03272295	0	0
19.65521	0.05234687	0.2323665	0	0	-0.04780918	0.03270976	0	0
19.67177	0.05232063	0.2323486	-0.001584131	-0.00108382	-0.04780918	-0.03270976	0	0
19.68858	0.05232063	0.2323486	0	0	0.04746763	0.03247608	0	0
19.70491	0.05229438	0.2323306	-0.001607033	-0.001099645	-0.04850036	-0.03318736	0	0
19.7216	0.05226814	0.2323126	-0.001572006	-0.001075524	0.001060677	0.0007304125	0	0
19.73804	0.05226814	0.2322767	0	-0.002184744	0.04744596	-0.03347826	0	0
19.77117	0.0522419	0.2322947	-0.0007921113	0.0005419413	-0.01597963	0.05500668	0	0
19.78774	0.0522419	0.2322947	0	0	0.01593792	-0.0109043	0	0
19.80466	0.0522419	0.2322947	0	0	0	0	0	0
19.82087	0.0522419	0.2322947	0	0	0	0	0	0
19.83768	0.05226814	0.2322767	0.001561126	-0.001068081	0.04727271	-0.03234272	0	0
19.8542	0.05226814	0.2322767	0	0	-0.0468479	0.03205208	0	0
19.87057	0.05226814	0.2322767	0	0	0	0	0	0
19.88722	0.05229438	0.2322588	0.001576689	-0.001079624	0.04774673	-0.03269414	0	0
19.90373	0.05229438	0.2322588	0	0	-0.04755173	0.03256061	0	0
19.92027	0.05229438	0.2322588	0	0	0	0	0	0
19.93684	0.05232063	0.2322408	0.001583907	-0.00108382	0.0478382	-0.03273426	0	0
19.95341	0.05237311	0.2322049	0.003168263	-0.00216764	0.04781596	-0.03270976	0	0
19.97765	0.05237311	0.2322049	0	0	-0.07763154	0.05311342	0	0
19.99429	0.05239936	0.232151	0.001577051	-0.003236927	0.03857196	-0.07916971	0	0
20.01081	0.05239936	0.232151	0	0	-0.04756536	0.09762882	0	0
20.02736	0.0524256	0.2321331	0.001585732	-0.001085069	0.04796241	-0.03281925	0	0
20.12675	0.05247809	0.2320612	0.0005280843	-0.0007227522	-0.009122065	0.003124936	0	0
20.1434	0.05247809	0.2320612	0	0	-0.004550761	0.006228309	0	0
20.15991	0.05255682	0.2320074	0.004768088	-0.003262353	0.1437936	-0.09838437	0	0
20.17645	0.05255682	0.2320074	0	0	-0.1442666	0.098708	0	0
20.19343	0.05258306	0.2319894	0.001544954	-0.001057166	0.04608561	-0.03153501	0	0
20.21371	0.05260931	0.2319715	0.001294306	-0.0008855293	-0.006726639	0.004606214	0	0
20.23028	0.05260931	0.2319715	0	0	-0.03512911	0.02403439	0	0
20.24697	0.05260931	0.2319715	0	0	0	0	0	0
20.26348	0.05260931	0.2319355	0	-0.002174651	0	-0.06549159	0	0
20.27998	0.05263555	0.2319176	0.001590866	-0.001089486	0.04819555	0.03287523	0	0
20.29655	0.05263555	0.2318817	0	-0.00216764	-0.0481177	-0.0326101	0	0
20.31311	0.05263555	0.2318817	0	0	0	0.06541952	0	0
20.32968	0.05263555	0.2318817	0	0	0	0	0	0
20.34654	0.05263555	0.2318817	0	0	0	0	0	0
20.36281	0.05263555	0.2318817	0	0	0	0	0	0
20.37957	0.05263555	0.2318817	0	0	0	0	0	0
20.39608	0.05263555	0.2318458	0	-0.002175153	0	-0.06539029	0	0
20.41251	0.05263555	0.2318458	0	0	0	0.0660225	0	0
20.4291	0.05263555	0.2318458	0	0	0	0	0	0
20.44565	0.05263555	0.2318458	0	0	0	0	0	0
20.46221	0.05266179	0.2318278	0.001584131	-0.00108382	0.04784223	-0.03273237	0	0
20.47878	0.05266179	0.2317919	0	-0.00216854	-0.04780918	-0.0327369	0	0
20.49535	0.05271428	0.231756	0.003168038	-0.00216764	0.09561158	2.714469E-05	0	0
20.51192	0.05271428	0.231756	0	0	-0.09561158	0.06541952	0	0
20.52868	0.05274052	0.231738	0.001565701	-0.001071363	0.0469798	-0.03214689	0	0
20.54505	0.05271428	0.23172	-0.001602541	-0.001096571	-0.09561772	-0.0007607962	0	0
20.56162	0.05274052	0.2316662	0.001583907	-0.00325236	0.09672955	-0.06544232	0	0
20.57818	0.05274052	0.2316662	0	0	-0.0478024	0.09815642	0	0
20.59475	0.05276676	0.2316482	0.001584131	-0.00108382	0.04780918	-0.03270976	0	0
20.61132	0.05276676	0.2316123	0	-0.00216764	-0.04780918	-0.03270976	0	0
20.62789	0.052793	0.2315943	0.001583907	-0.00108382	0.0478024	0.03270976	0	0
20.64445	0.052793	0.2315943	0	0	-0.0478024	0.03270976	0	0
20.66102	0.052793	0.2315943	0	0	0	0	0	0
20.67759	0.052793	0.2315584	0	-0.00216854	0	-0.06544667	0	0
20.73025	0.05287173	0.2314686	0.001494998	-0.001705173	0.02159552	0.006693419	0	0
20.74681	0.05295046	0.2314148	0.004751944	-0.003251461	0.0470472	-0.02233641	0	0
20.76338	0.05300294	0.2313788	0.003168038	-0.00216764	-0.04780239	0.03270976	0	0
20.78036	0.05302918	0.2313609	0.001545648	-0.001058519	-0.04836525	0.03306415	0	0
20.79651	0.05305542	0.2313429	0.001624299	-0.00111146	0.002373829	-0.001597852	0	0
20.81308	0.05305542	0.231307	0	-0.00216764	-0.04963864	-0.03227693	0	0
20.86278	0.05313415	0.2312531	0.001583982	-0.00108412	0.02390233	0.01635036	0	0
20.87943	0.05313415	0.2312172	0	-0.002157209	-0.02387347	-0.0161734	0	0
20.89594	0.05313415	0.2312172	0	0	0	0.06505603	0	0
20.91248	0.05318663	0.2311813	0.003172927	-0.002172041	0.09599675	-0.06571498	0	0
20.92905	0.05323911	0.2311454	0.003167813	-0.00216764	-0.0001544691	0.0001329074	0	0
20.94562	0.0532916	0.2310735	0.003168403	-0.00433668	1.779299E-05	-0.0654655	0	0
20.96218	0.0532916	0.2310017	0	-0.00433618	-0.09562809	1.508047E-05	0	0
20.97875	0.05326536	0.2309478	-0.001583907	-0.00325236	-0.0478024	0.03270976	0	0
20.99532	0.05321287	0.2309119	-0.003168038	-0.00216764	-0.04780918	0.0327369	0	0
21.01188	0.05321287	0.2309119	0	0	0.09561158	0.06541952	0	0
21.02845	0.05318663	0.2308939	-0.001584089	-0.001084845	-0.04781065	-0.03274256	0	0
21.04505	0.05318663	0.2308939	0	0	0.0477694	0.03271431	0	0
21.06158	0.05318663	0.230858	0	-0.002171641	0	-0.06554402	0	0
21.07815	0.05318663	0.230858	0	0	0	0.06560067	0	0
21.09472	0.05316039	0.2308401	-0.001583907	-0.00108382	-0.0478024	-0.03270976	0	0
21.13066	0.05316039	0.2308401	0	0	0.03016321	0.02063979	0	0
21.14723	0.05313415	0.2308221	-0.001583907	-0.00108472	-0.03016321	-0.02065691	0	0
21.1638	0.05313415	0.2308221	0	0	0.0478024	0.0327369	0	0
21.18036	0.05313415	0.2308221	0	0	0	0	0	0
21.19693	0.05313415	0.2308221	0	0	0	0	0	0
21.21367	0.05313415	0.2308221	0	0	0	0	0	0
21.23018	0.05310791	0.2308041	-0.001589212	-0.001087451	-0.04779744	-0.03270637	0	0
21.24669	0.05310791	0.2308041	0	0	0.0481232	0.03292928	0	0
21.2632	0.05310791	0.2308041	0	0	0	0	0	0
21.27976	0.05308167	0.2307862	-0.001584454	-0.001084195	-0.04790716	-0.03278144	0	0
21.29633	0.05310791	0.2307682	0.001583907	-0.00108382	0.09563782	1.130111E-05	0	0
21.3129	0.05310791	0.2307682	0	0	-0.0478024	0.03270976	0	0
21.32947	0.05308167	0.2307502	-0.001583907	-0.00108472	-0.0478024	-0.0327369	0	0
21.34603	0.05308167	0.2307502	0	0	0.0478024	0.0327369	0	0
21.3626	0.05305542	0.2307323	-0.001584131	-0.00108382	-0.04780918	-0.03270976	0	0
21.37917	0.05305542	0.2307323	0	0	0.04780918	0.03270976	0	0
21.3958	0.05302918	0.2307143	-0.001577731	-0.001079594	-0.047523	-0.03251858	0	0
21.41231	0.05305542	0.2306964	0.001589029	-0.001088228	0.09554	-0.0002604618	0	0
21.42887	0.05300294	0.2306605	-0.003170368	-0.002169389	-0.1439289	-0.03269538	0	0
21.44543	0.0529767	0.2306425	-0.001583907	-0.00108382	0.0478988	0.03277573	0	0
21.462	0.05295046	0.2305886	-0.001584131	-0.00325236	-6.784417E-06	-0.06544667	0	0
21.47857	0.05266179	0.230391	-0.01742387	-0.01192562	-0.4780443	-0.2617595	0	0
21.49514	0.05019464	0.2287026	-0.1489173	-0.1019151	-3.968481	-2.715887	0	0
21.5117	0.04131858	0.2226288	-0.5357605	-0.3666119	-11.67495	-7.988564	0	0
21.52827	0.03645752	0.2193387	-0.2934138	-0.1985936	7.314038	5.0708	0	0
21.54491	0.02943886	0.2145361	-0.4218504	-0.2886559	-3.867987	-2.712307	0	0
21.5614	0.02128626	0.2089566	-0.4942544	-0.3382574	-2.185282	-1.497063	0	0
21.57797	0.01613018	0.205427	-0.3112216	-0.2130494	5.53605	3.78707	0	0
21.59454	0.01063118	0.2016615	-0.3319203	-0.2272847	-0.6246897	-0.4296241	0	0
21.6111	0.009368147	0.2007965	-0.07623675	-0.05221495	7.716546	5.283617	0	0
21.62767	0.009368147	0.2007965	0	0	2.30083	1.57585	0	0
21.64448	0.009368147	0.2007965	0	0	0	0	0	0
21.66099	0.009368147	0.2007965	0	0	0	0	0	0
21.67737	0.009368147	0.2008325	0	0.002200563	0	0.06690223	0	0
21.69394	0.009368147	0.2008325	0	0	0	-0.06678991	0	0
21.71053	0.009368147	0.2008685	0	0.002172983	0	0.06553927	0	0
21.72707	0.00939446	0.2008866	0.001590489	0.001088922	0.0480038	-0.03271891	0	0
21.74364	0.009420774	0.2009406	0.001588291	0.003264053	-6.635815E-05	0.06569094	0	0
21.76021	0.009473401	0.2009767	0.003176583	0.002175735	0.04793473	-0.03284549	0	0
21.77678	0.009578655	0.2010848	0.006353109	0.006527206	0.09586776	0.1313276	0	0
21.79334	0.009604968	0.2011028	0.001588291	0.001087418	-0.1438025	-0.1641731	0	0
21.8101	0.009683908	0.2011569	0.00471005	0.003225646	0.09367026	0.06415882	0	0
21.82661	0.009789161	0.201265	0.006375128	0.006549828	0.05004761	0.09991567	0	0
21.84313	0.009789161	0.2013011	0	0.002182772	-0.1930463	-0.1322395	0	0
21.85964	0.009789161	0.2013011	0	0	0	-0.06609304	0	0
21.87618	0.009815474	0.2013191	0.001590983	0.001089299	0.04813788	0.03295859	0	0
21.90931	0.009815474	0.2013191	0	0	-0.0320303	-0.02193021	0	0
22.01474	0.009815474	0.2013191	0	0	0	0	0	0
22.03109	0.009815474	0.2013191	0	0	0	0	0	0
22.04777	0.009815474	0.2013191	0	0	0	0	0	0
22.06423	0.009815474	0.2013191	0	0	0	0	0	0
22.08079	0.009815474	0.2013191	0	0	0	0	0	0
22.09736	0.009815474	0.2013191	0	0	0	0	0	0
22.11393	0.009815474	0.2013191	0	0	0	0	0	0
22.13083	0.009815474	0.2013191	0	0	0	0	0	0
22.14734	0.009815474	0.2013191	0	0	0	0	0	0
22.16363	0.009815474	0.2013191	0	0	0	0	0	0
22.18019	0.009815474	0.2013191	0	0	0	0	0	0
22.19687	0.009815474	0.2013191	0	0	0	0	0	0
22.21333	0.009815474	0.2013191	0	0	0	0	0	0
22.2299	0.009841788	0.2013011	0.001588108	-0.001087293	0.04808977	-0.03292449	0	0
22.24646	0.009841788	0.2013011	0	0	-0.04793197	0.03281645	0	0
22.26303	0.009815474	0.2012831	-0.001588291	-0.001087418	-0.04794025	-0.03282212	0	0
22.2796	0.009815474	0.2012831	0	0	0.04793473	0.03281834	0	0
22.29645	0.009815474	0.2012831	0	0	0	0	0	0
22.31273	0.009815474	0.2012831	0	0	0	0	0	0
22.32947	0.009841788	0.2013011	0.001572003	0.001076266	0.04760483	0.03259248	0	0
22.34586	0.009841788	0.2013011	0	0	-0.04744587	-0.03248365	0	0
22.36243	0.009841788	0.2013011	0	0	0	0	0	0
22.37901	0.009841788	0.2013011	0	0	0	0	0	0
22.39556	0.009841788	0.2013011	0	0	0	0	0	0
22.41213	0.009841788	0.2013011	0	0	0	0	0	0
22.4287	0.009841788	0.2013011	0	0	0	0	0	0
22.44526	0.009841788	0.2013011	0	0	0	0	0	0
22.46183	0.009841788	0.2013011	0	0	0	0	0	0
22.4784	0.009841788	0.2013011	0	0	0	0	0	0
22.49509	0.009841788	0.2013011	0	0	0	0	0	0
22.51153	0.009841788	0.2013011	0	0	0	0	0	0
22.5281	0.009815474	0.2012831	-0.001588108	-0.001087293	-0.04810644	-0.0329359	0	0
22.54467	0.009815474	0.2012831	0	0	0.04792921	0.03281456	0	0
22.56123	0.009815474	0.2012831	0	0	0	0	0	0
22.5778	0.009815474	0.2012831	0	0	0	0	0	0
22.59437	0.009815474	0.2012831	0	0	0	0	0	0
22.61094	0.009815474	0.2012831	0	0	0	0	0	0
22.6275	0.009815474	0.2012831	0	0	0	0	0	0
22.64407	0.009815474	0.2012831	0	0	0	0	0	0
22.66071	0.009815474	0.2012831	0	0	0	0	0	0
22.69377	0.009815474	0.2012831	0	0	0	0	0	0
22.71034	0.009815474	0.2012831	0	0	0	0	0	0
22.72691	0.009815474	0.2012831	0	0	0	0	0	0
22.74347	0.009815474	0.2012831	0	0	0	0	0	0
22.76004	0.009815474	0.2012831	0	0	0	0	0	0
22.7768	0.009815474	0.2012831	0	0	0	0	0	0
22.79331	0.009815474	0.2012831	0	0	0	0	0	0
22.80982	0.009815474	0.2012831	0	0	0	0	0	0
22.84579	0.009815474	0.2012831	0	0	0	0	0	0
22.86236	0.009815474	0.2012831	0	0	0	0	0	0
22.87893	0.009815474	0.2012831	0	0	0	0	0	0
22.8955	0.009815474	0.2012831	0	0	0	0	0	0
22.91206	0.009815474	0.2012831	0	0	0	0	0	0
22.92863	0.009815474	0.2012831	0	0	0	0	0	0
22.9452	0.009815474	0.2012831	0	0	0	0	0	0
22.96193	0.009815474	0.2012831	0	0	0	0	0	0
22.97833	0.009815474	0.2012831	0	0	0	0	0	0
22.9949	0.009815474	0.2012831	0	0	0	0	0	0
23.01146	0.009815474	0.2012831	0	0	0	0	0	0
23.02803	0.009815474	0.2012831	0	0	0	0	0	0
23.0446	0.009815474	0.2012831	0	0	0	0	0	0
23.06116	0.009815474	0.2012831	0	0	0	0	0	0
23.07773	0.009815474	0.2012831	0	0	0	0	0	0
23.0943	0.009815474	0.2012831	0	0	0	0	0	0
23.11086	0.009841788	0.201265	0.001588291	-0.001088317	0.04793473	-0.03284548	0	0
23.12743	0.009841788	0.201265	0	0	-0.04793473	0.03284548	0	0
23.144	0.009841788	0.201265	0	0	0	0	0	0
23.16057	0.009841788	0.201265	0	0	0	0	0	0
23.17713	0.009841788	0.201265	0	0	0	0	0	0
23.19409	0.009841788	0.201265	0	0	0	0	0	0
23.21027	0.009841788	0.201265	0	0	0	0	0	0
23.22683	0.009841788	0.201265	0	0	0	0	0	0
23.24363	0.009841788	0.201265	0	0	0	0	0	0
23.25996	0.009815474	0.201247	-0.001610918	-0.001102909	-0.04862039	-0.03328777	0	0
23.27653	0.009815474	0.201211	0	-0.002175735	0.04896144	-0.03260696	0	0
23.29317	0.009736534	0.2011209	-0.004745695	-0.005417061	-0.1429374	-0.09762672	0	0
23.30966	0.009578655	0.2010488	-0.009569297	-0.004369581	-0.145585	0.03161483	0	0
23.32623	0.009473401	0.2009406	-0.006353109	-0.006527206	0.09726629	-0.06525247	0	0
23.3428	0.008841875	0.2005081	-0.03811899	-0.02610972	-0.9586962	-0.5910016	0	0
23.35936	0.003842086	0.1970828	-0.3018226	-0.2067735	-7.959048	-5.452758	0	0
23.37593	-0.007315659	0.1893611	-0.6734828	-0.4660832	-11.21737	-7.826431	0	0
23.3925	-0.01765606	0.1820828	-0.624076	-0.4392699	1.491015	0.8091795	0	0
23.44763	-0.05274052	0.1494195	-0.6363509	-0.5924357	-0.1711913	-2.136115	0	0
23.4642	-0.05667608	0.1315525	-0.2375509	-1.078453	5.561983	-6.778389	0	0
23.48077	-0.05811869	0.1173725	-0.08707596	-0.8559117	4.541343	6.716318	0	0
23.49781	-0.06050501	0.09908053	-0.1400559	-1.073574	-1.576522	-6.476974	0	0
23.5139	-0.06165859	0.09026593	-0.07167677	-0.5476879	2.063804	15.87219	0	0
23.53047	-0.0641487	0.07806177	-0.1503036	-0.7366447	-2.407329	-5.78532	0	0
23.54704	-0.0682622	0.06412118	-0.2482911	-0.8414555	-2.957268	-3.163195	0	0
23.5636	-0.07224248	0.05501094	-0.2402506	-0.5498953	0.2426633	8.799305	0	0
23.58017	-0.07873166	0.04517334	-0.3916872	-0.5937988	-4.570368	-1.325011	0	0
23.59674	-0.08281019	0.03896075	-0.2461805	-0.3749926	4.391401	6.603585	0	0
23.6133	-0.08850502	0.03221564	-0.343741	-0.4071357	-2.94438	-0.970082	0	0
23.6299	-0.09252454	0.02908109	-0.2421444	-0.1888319	3.063194	6.581981	0	0
23.64644	-0.0977402	0.02534595	-0.3154352	-0.2258958	-2.21192	-1.118591	0	0
23.66301	-0.09836572	0.02489747	-0.03775697	-0.02707021	8.388555	6.006447	0	0
23.67957	-0.09857421	0.02471059	-0.01258591	-0.01128146	0.7597079	0.4765328	0	0
23.77901	-0.09841785	0.02456107	0.001572405	-0.001503513	0.1220452	0.08428629	0	0
23.79554	-0.09839179	0.02454239	0.001576926	-0.001130739	3.898492E-05	0.003214388	0	0
23.81561	-0.09839179	0.02454239	0	0	-0.0430965	0.03090246	0	0
23.83217	-0.09836572	0.0245237	0.001573113	-0.001128117	0.0429453	-0.03079711	0	0
23.84874	-0.09833966	0.02450501	0.001573113	-0.001128117	0	0	0	0
23.86531	-0.09826148	0.02444893	0.00471934	-0.003384465	0.09495332	-0.0680967	0	0
23.88188	-0.09826148	0.02444893	0	0	-0.1424136	0.1021316	0	0
23.8986	-0.09826148	0.02444893	0	0	0	0	0	0
23.91511	-0.09823541	0.02443025	0.001578383	-0.001131897	0.04749626	-0.03406071	0	0
23.93157	-0.09823541	0.02443025	0	0	-0.04786438	0.0343247	0	0
23.94814	-0.09823541	0.02443025	0	0	0	0	0	0
23.96471	-0.09823541	0.02443025	0	0	0	0	0	0
23.98128	-0.09823541	0.02443025	0	0	0	0	0	0
23.99784	-0.09823541	0.02443025	0	0	0	0	0	0
24.01441	-0.09823541	0.02443025	0	0	0	0	0	0
24.03098	-0.09820934	0.02441156	0.001573563	-0.001128117	0.04749023	-0.03404665	0	0
24.04771	-0.09820934	0.02441156	0	0	-0.04725899	0.03388087	0	0
24.06411	-0.09818328	0.02439287	0.001588844	-0.001139399	0.04795418	-0.0343891	0	0
24.08073	-0.09818328	0.02439287	0	0	-0.04811483	0.03450431	0	0
24.09724	-0.09813116	0.02435548	0.003156402	-0.002263644	0.09526587	-0.06832085	0	0
24.11381	-0.09813116	0.02435548	0	0	-0.09541418	0.06842721	0	0
24.13038	-0.09805297	0.02433679	0.00471934	-0.00112823	0.14243	-0.03405005	0	0
24.14694	-0.0980269	0.0243181	0.001573563	-0.001128117	-0.09493975	3.393965E-06	0	0
24.16351	-0.09800084	0.02429941	0.001573295	-0.00112836	-8.10593E-06	-7.315364E-06	0	0
24.18008	-0.09800084	0.02429941	0	0	-0.04748486	0.03405593	0	0
24.19681	-0.09797478	0.02428072	0.001557336	-0.001116803	0.0467636	-0.0335353	0	0
24.21333	-0.09794872	0.02426203	0.001578019	-0.001131748	0.0006220278	-0.0004494642	0	0
24.22984	-0.09794872	0.02426203	0	0	-0.04778423	0.03427064	0	0
24.24635	0	0	5.932002	-1.469365	179.6486	-44.49921	0	0
24.26291	-0.09792265	0.02424334	-5.912665	1.463836	-358.1324	88.68755	0	0
24.27948	-0.09789658	0.02422465	0.001573113	-0.00112823	178.5229	-44.22035	0	0
24.29604	-0.09787052	0.02420596	0.001573113	-0.001128117	0	3.393965E-06	0	0
24.31261	-0.09784445	0.02418726	0.001573744	-0.00112836	1.904033E-05	-7.315364E-06	0	0
24.32918	-0.09784445	0.02418726	0	0	-0.04749843	0.03405593	0	0
24.34591	-0.09787052	0.02420596	-0.001557426	0.00111666	-0.04676095	0.03352716	0	0
24.36243	-0.09787052	0.02424334	0	0.002263644	0.04683605	0.03449296	0	0
24.37888	-0.09789658	0.02426203	-0.001584607	0.001136473	-0.04807536	-0.03419724	0	0
24.39545	-0.09800084	0.02437417	-0.006290006	0.006765926	-0.1424932	0.1704762	0	0
24.41201	-0.09805297	0.02467321	-0.003148489	0.01806027	0.09481665	0.3408837	0	0
24.42858	-0.09836572	0.02542069	-0.01887781	0.04511795	-0.4748485	0.8168374	0	0
24.462	-0.09956443	0.02840905	-0.03586536	0.08941173	-0.3398211	0.886058	0	0
24.47828	-0.1101055	0.03923998	-0.647518	0.6653221	-12.30648	11.58734	0	0
24.49484	-0.1138736	0.04465291	-0.2274706	0.3267631	12.78896	-10.30792	0	0
24.51153	-0.1178721	0.05997601	-0.2395548	0.9180339	-0.3633623	17.77909	0	0
24.52805	-0.1180019	0.07396753	-0.007857617	0.8472613	6.977772	-2.131383	0	0
24.54456	-0.1168858	0.09434482	0.06759807	1.234239	2.284886	11.71813	0	0
24.56111	-0.1166262	0.09948412	0.01568307	0.3104947	-1.570233	-27.93977	0	0
24.57768	-0.1130423	0.1247686	0.2163247	1.526171	6.058166	36.7061	0	0
24.59424	-0.1090915	0.1429854	0.2384737	1.09957	0.6684598	-12.87485	0	0
24.61277	-0.1029245	0.1580416	0.3329504	0.8128701	2.692449	-8.170543	0	0
24.62933	-0.09846997	0.1645135	0.2688756	0.3906457	-1.82604	-12.03279	0	0
24.64613	-0.09135031	0.1739464	0.4239353	0.5616757	4.647872	5.126579	0	0
24.67903	-0.07213777	0.1895416	0.5838689	0.4739383	3.217995	-1.765349	0	0
24.6956	-0.05783018	0.1993905	0.8636075	0.5944821	5.654391	2.436568	0	0
24.71218	-0.04714924	0.2067238	0.6443319	0.4423811	-6.615846	-4.589097	0	0
24.72873	-0.03711453	0.2135285	0.6061152	0.4110167	-1.153449	-0.9466343	0	0
24.7453	-0.02523149	0.2215502	0.7172618	0.4841942	3.355569	2.209265	0	0
24.76221	-0.01513042	0.2282355	0.597323	0.3953322	-3.582638	-2.654356	0	0
24.77843	-0.007105144	0.2335337	0.4947158	0.3266011	-3.096869	-2.07443	0	0
24.795	-0.003631563	0.2357239	0.2096658	0.1322036	-8.693406	-5.9287	0	0
24.81157	-0.0006578946	0.2377522	0.179491	0.1224258	-0.910677	-0.2950934	0	0
24.82826	0.002263154	0.2397441	0.1750052	0.1193426	-0.1348748	-0.0927045	0	0
24.84477	0.004447339	0.2411616	0.1322946	0.08585536	-1.286418	-1.008615	0	0
24.86127	0.00449997	0.2411257	0.003190001	-0.002174855	-3.911244	-2.666889	0	0
24.87783	0.004578915	0.2410719	0.004765183	-0.003248762	0.04763782	-0.03247788	0	0
24.8944	0.004710491	0.2409463	0.007941934	-0.007581345	0.09587454	-0.1307576	0	0
24.91097	0.004921013	0.2408028	0.01270858	-0.008664364	0.143866	-0.03268747	0	0
24.92753	0.006078872	0.2399415	0.06988852	-0.0519856	1.725793	-1.307513	0	0
24.9441	0.007789316	0.2387751	0.1032545	-0.07041235	1.007044	-0.5561524	0	0
24.96085	0.008105085	0.2384521	0.01884936	-0.01928263	-2.533352	1.534617	0	0
24.97737	0.008105085	0.2384521	0	0	-0.5666243	0.5796487	0	0
24.99388	0.008078772	0.2384341	-0.001593612	-0.001086548	-0.04825363	-0.03290005	0	0
25.01037	0.007999829	0.2383803	-0.004787031	-0.003264696	-0.09676191	-0.06599877	0	0
25.02694	0.007999829	0.2383803	0	0	0.1448063	0.09875611	0	0
25.06042	0.007999829	0.2383803	0	0	0	0	0	0
25.09345	0.007999829	0.2383803	0	0	0	0	0	0
25.10996	0.007999829	0.2383444	0	-0.002174251	0	-0.04389424	0	0
25.12647	0.007973515	0.2383265	-0.001593612	-0.001086548	-0.0482592	0.03293878	0	0
25.1429	0.007947201	0.2383085	-0.001601438	-0.001092752	-0.0002375537	-0.0001883213	0	0
25.15947	0.007920887	0.2382547	-0.001588291	-0.003249662	0.0003983884	-0.0653628	0	0
25.17603	0.007894573	0.2382367	-0.001588347	-0.001082921	-1.693469E-06	0.06539237	0	0
25.1926	0.007841945	0.2382367	-0.003176639	0	-0.04793473	0.03268262	0	0
25.20917	0.007841945	0.2382008	0	-0.002166741	0.09587115	-0.06539237	0	0
25.22604	0.007789316	0.2381649	-0.003118857	-0.00212731	-0.09326296	0.001179103	0	0
25.24255	0.007763002	0.238147	-0.001593824	-0.001086674	0.04568111	0.0311714	0	0
25.292	0.007631431	0.2380932	-0.002660799	-0.001088778	-0.01617657	-3.189515E-05	0	0
25.30857	0.007605116	0.2380752	-0.001588347	-0.00108382	0.01624551	7.509523E-05	0	0
25.32513	0.007552488	0.2380393	-0.003177033	-0.002166091	-0.04794938	-0.03266488	0	0
25.3417	0.007526174	0.2380214	-0.001588319	-0.00108382	0.04795023	0.03266488	0	0
25.35827	0.007447231	0.2379675	-0.004765015	-0.003249662	-0.09587285	-0.06536523	0	0
25.37515	0.007368288	0.2379137	-0.004676714	-0.003189442	0.002640007	0.00180044	0	0
25.3914	0.007289344	0.2378598	-0.004857284	-0.003312588	-0.00544994	-0.003716767	0	0
25.40797	0.006947257	0.2376265	-0.02064846	-0.01408337	-0.4811487	-0.3281798	0	0
25.42468	0.006473594	0.2373035	-0.02833912	-0.01932843	-0.2310802	-0.1575977	0	0
25.44119	0.004999958	0.2362983	-0.08924678	-0.06087379	-1.833132	-1.250387	0	0
25.45771	0.004657861	0.236065	-0.02071583	-0.01413072	2.075077	1.415353	0	0
25.52394	0.004684176	0.236047	0.0003973525	-0.0002711267	0.2551726	0.1675062	0	0
25.5405	0.004684176	0.236047	0	0	-0.00479928	0.003274707	0	0
25.55728	0.004684176	0.236047	0	0	0	0	0	0
25.57756	0.004684176	0.236047	0	0	0	0	0	0
25.59413	0.004684176	0.236047	0	0	0	0	0	0
25.61081	0.004684176	0.236047	0	0	0	0	0	0
25.62732	0.004657861	0.236065	-0.001593725	0.001087451	-0.04801303	0.03276087	0	0
25.64384	0.004657861	0.236065	0	0	0.04825983	-0.03292928	0	0
25.6604	0.004657861	0.236065	0	0	0	0	0	0
25.67696	0.004657861	0.236065	0	0	0	0	0	0
25.69353	0.004657861	0.236065	0	0	0	0	0	0
25.7101	0.004657861	0.236065	0	0	0	0	0	0
25.72666	0.004657861	0.236065	0	0	0	0	0	0
25.74323	0.004657861	0.236065	0	0	0	0	0	0
25.75992	0.004657861	0.236065	0	0	0	0	0	0
25.77636	0.004657861	0.236065	0	0	0	0	0	0
25.79294	0.004657861	0.236065	0	0	0	0	0	0
25.8095	0.004657861	0.236065	0	0	0	0	0	0
25.82607	0.004657861	0.236065	0	0	0	0	0	0
25.84263	0.004657861	0.2360291	0	-0.00216764	0	-0.06541952	0	0
25.8592	0.004657861	0.2360291	0	0	0	0.06541952	0	0
25.87576	0.004657861	0.2360291	0	0	0	0	0	0
25.9089	0.004657861	0.2360291	0	0	0	0	0	0
25.92546	0.004657861	0.2360291	0	0	0	0	0	0
25.94203	0.004657861	0.2360291	0	0	0	0	0	0
25.9586	0.004657861	0.2360291	0	0	0	0	0	0
25.97516	0.004657861	0.2360291	0	0	0	0	0	0
25.99208	0.004657861	0.2360291	0	0	0	0	0	0
26.0083	0.004631546	0.2360111	-0.001622942	-0.001106487	-0.04898331	-0.03339578	0	0
26.02511	0.004631546	0.2360111	0	0	0.04914457	0.03350572	0	0
26.04143	0.004631546	0.2360111	0	0	0	0	0	0
26.05813	0.004631546	0.2360111	0	0	0	0	0	0
26.07456	0.00460523	0.2360291	-0.001601494	0.001091846	-0.04833598	0.03295386	0	0
26.09115	0.004631546	0.236047	0.001586395	0.001082449	0.09654413	-0.0002845581	0	0
26.10816	0.004631546	0.236047	0	0	-0.04721433	-0.0322159	0	0
26.12427	0.004631546	0.236047	0	0	0	0	0	0
26.17723	0.00536837	0.2355444	0.01391298	-0.009490587	0.2014529	-0.1374189	0	0
26.19379	0.005947298	0.2351495	0.03494421	-0.02383865	0.3024914	-0.2063677	0	0
26.21036	0.01328869	0.2301396	0.4431274	-0.3023957	12.31899	-8.40687	0	0
26.22725	0.02149669	0.2245341	0.4859802	-0.3318932	1.28084	-0.8816576	0	0
26.24349	0.03359262	0.2162632	0.7446868	-0.5091968	7.808232	-5.351343	0	0
26.26006	0.04460198	0.2087226	0.6645262	-0.4551523	-2.443162	1.647185	0	0
26.27663	0.05190072	0.2037156	0.4405527	-0.3022195	-6.759533	4.615523	0	0
26.2932	0.05743676	0.1999133	0.3341559	-0.2295108	-3.21106	2.19435	0	0
26.30976	0.0630217	0.196073	0.3371465	-0.2318293	0.09025999	-0.06997519	0	0
26.32633	0.06443699	0.195099	0.08542707	-0.05878623	-7.597344	5.222751	0	0
26.3429	0.06676903	0.1934936	0.1407622	-0.09690432	1.670017	-1.150406	0	0
26.35946	0.06930985	0.1917434	0.1533823	-0.1056518	0.3808975	-0.2640147	0	0
26.37603	0.07020024	0.1911299	0.05374399	-0.03703427	-3.007262	2.071	0	0
26.3926	0.07017406	0.1911479	-0.001580309	0.001089217	-1.669691	1.150569	0	0
26.40916	0.07017406	0.1911479	0	0	0.04769382	-0.03287263	0	0
26.42589	0.07017406	0.1911479	0	0	0	0	0	0
26.4423	0.07014787	0.191166	-0.001596195	0.001099853	-0.04817603	0.03319555	0	0
26.45886	0.07014787	0.191166	0	0	0.04840733	-0.03335492	0	0
26.49494	0.07014787	0.191166	0	0	0	0	0	0
26.51148	0.07014787	0.191166	0	0	0	0	0	0
26.52805	0.07012168	0.191184	-0.001580759	0.001089217	-0.04773762	0.03289346	0	0
26.54462	0.0700955	0.1912021	-0.001580491	0.001089342	8.084848E-06	3.787686E-06	0	0
26.56118	0.07006931	0.1912201	-0.001580759	0.001089217	-8.084848E-06	-3.787686E-06	0	0
26.57775	0.07006931	0.1912201	0	0	0.04770739	-0.03287263	0	0
26.59432	0.07006931	0.1912201	0	0	0	0	0	0
26.61089	0.07006931	0.1912201	0	0	0	0	0	0
26.62753	0.07006931	0.1912201	0	0	0	0	0	0
26.64404	0.07006931	0.1912201	0	0	0	0	0	0
26.66059	0.07006931	0.1912201	0	0	0	0	0	0
26.67715	0.07006931	0.1912201	0	0	0	0	0	0
26.69372	0.07004312	0.1912021	-0.001580759	-0.001089217	-0.04770739	-0.03287263	0	0
26.71029	0.07004312	0.1912021	0	0	0.04770739	0.03287263	0	0
26.7385	0.07004312	0.1912021	0	0	0	0	0	0
26.75513	0.07004312	0.1912021	0	0	0	0	0	0
26.77164	0.07004312	0.1912021	0	0	0	0	0	0
26.7882	0.07004312	0.1912021	0	0	0	0	0	0
26.80477	0.07004312	0.1912021	0	0	0	0	0	0
26.82167	0.07004312	0.1912021	0	0	0	0	0	0
26.8379	0.07004312	0.1912021	0	0	0	0	0	0
26.85447	0.07004312	0.1912021	0	0	0	0	0	0
26.87104	0.07004312	0.1912021	0	0	0	0	0	0
26.88772	0.07004312	0.1912021	0	0	0	0	0	0
26.90417	0.07004312	0.1912021	0	0	0	0	0	0
26.92075	0.07001694	0.191184	-0.001579849	-0.00108859	-0.0478369	-0.03296187	0	0
26.9373	0.07001694	0.191184	0	0	0.04768269	0.03285561	0	0
26.95427	0.07001694	0.191184	0	0	0	0	0	0
26.97044	0.07001694	0.191184	0	0	0	0	0	0
26.987	0.07001694	0.191184	0	0	0	0	0	0
27.00381	0.07001694	0.191184	0	0	0	0	0	0
27.02014	0.07001694	0.191184	0	0	0	0	0	0
27.0367	0.07001694	0.191184	0	0	0	0	0	0
27.05334	0.07001694	0.191184	0	0	0	0	0	0
27.06985	0.07001694	0.191184	0	0	0	0	0	0
27.0864	0.07001694	0.191184	0	0	0	0	0	0
27.10297	0.06999075	0.191166	-0.001580309	-0.001089217	-0.04771304	-0.03288588	0	0
27.11988	0.06999075	0.191166	0	0	0.04719932	0.03253181	0	0
27.1361	0.06999075	0.191166	0	0	0	0	0	0
27.15267	0.06999075	0.191166	0	0	0	0	0	0
27.21894	0.06996457	0.1911479	-0.000395201	-0.0002723121	-0.004770986	-0.003287433	0	0
27.2355	0.06996457	0.1911479	0	0	0.004770986	0.003287433	0	0
27.25207	0.06996457	0.1911479	0	0	0	0	0	0
27.26864	0.06993838	0.1911299	-0.001580759	-0.001089217	-0.04770739	-0.03287263	0	0
27.28521	0.06993838	0.1911299	0	0	0.04770739	0.03287263	0	0
27.30177	0.06993838	0.1911299	0	0	0	0	0	0
27.31853	0.06993838	0.1911299	0	0	0	0	0	0
27.33491	0.06993838	0.1911299	0	0	0	0	0	0
27.35637	0.06993838	0.1911299	0	0	0	0	0	0
27.37307	0.06993838	0.1911299	0	0	0	0	0	0
27.3895	0.06993838	0.1911299	0	0	0	0	0	0
27.40607	0.06993838	0.1911299	0	0	0	0	0	0
27.42264	0.06993838	0.1911299	0	0	0	0	0	0
27.4392	0.06991219	0.1911118	-0.001580941	-0.001089342	-0.04771563	-0.03287831	0	0
27.45577	0.06991219	0.1911118	0	0	0.04771563	0.03287831	0	0
27.47264	0.06991219	0.1911118	0	0	0	0	0	0
27.4889	0.06991219	0.1911118	0	0	0	0	0	0
27.50547	0.06991219	0.1911118	0	0	0	0	0	0
27.52204	0.06991219	0.1911118	0	0	0	0	0	0
27.53861	0.06991219	0.1911118	0	0	0	0	0	0
27.5552	0.069886	0.1910938	-0.001578033	-0.001087339	-0.04758406	-0.03278765	0	0
27.57174	0.069886	0.1910938	0	0	0.04762788	0.03281785	0	0
27.58831	0.069886	0.1910938	0	0	0	0	0	0
27.60524	0.069886	0.1910938	0	0	0	0	0	0
27.62144	0.069886	0.1910938	0	0	0	0	0	0
27.63801	0.069886	0.1910938	0	0	0	0	0	0
27.65457	0.069886	0.1910938	0	0	0	0	0	0
27.67129	0.069886	0.1910938	0	0	0	0	0	0
27.6878	0.069886	0.1910938	0	0	0	0	0	0
27.70431	0.069886	0.1910938	0	0	0	0	0	0
27.72084	0.069886	0.1910938	0	0	0	0	0	0
27.73741	0.069886	0.1910938	0	0	0	0	0	0
27.75397	0.06985982	0.1910757	-0.001580309	-0.001089217	-0.04769382	-0.03287263	0	0
27.77054	0.06985982	0.1910757	0	0	0.04769382	0.03287263	0	0
27.78711	0.06985982	0.1910757	0	0	0	0	0	0
27.80368	0.06985982	0.1910757	0	0	0	0	0	0
27.82024	0.06985982	0.1910757	0	0	0	0	0	0
27.8369	0.06985982	0.1910757	0	0	0	0	0	0
27.85338	0.06985982	0.1910757	0	0	0	0	0	0
27.93621	0.06985982	0.1910757	0	0	0	0	0	0
27.95299	0.06985982	0.1910757	0	0	0	0	0	0
27.9695	0.06985982	0.1910757	0	0	0	0	0	0
27.98601	0.06985982	0.1910757	0	0	0	0	0	0
28.00253	0.06985982	0.1910757	0	0	0	0	0	0
28.01905	0.06985982	0.1910757	0	0	0	0	0	0
28.03561	0.06985982	0.1910757	0	0	0	0	0	0
28.05256	0.06985982	0.1910757	0	0	0	0	0	0
28.06907	0.06985982	0.1910757	0	0	0	0	0	0
28.10188	0.06985982	0.1910757	0	0	0	0	0	0
28.11845	0.06985982	0.1910757	0	0	0	0	0	0
28.13502	0.06985982	0.1910757	0	0	0	0	0	0
28.15158	0.06985982	0.1910757	0	0	0	0	0	0
28.16815	0.06985982	0.1910757	0	0	0	0	0	0
28.18472	0.06985982	0.1910757	0	0	0	0	0	0
28.20128	0.06985982	0.1910757	0	0	0	0	0	0
28.21818	0.06985982	0.1910757	0	0	0	0	0	0
28.23442	0.06985982	0.1910757	0	0	0	0	0	0
28.25469	0.06985982	0.1910757	0	0	0	0	0	0
28.27126	0.06983363	0.1910577	-0.001580759	-0.001089217	-0.04291047	-0.02956732	0	0
28.28823	0.06983363	0.1910577	0	0	0.04712685	0.03247261	0	0
28.30439	0.06983363	0.1910577	0	0	0	0	0	0
28.32126	0.06983363	0.1910577	0	0	0	0	0	0
28.33777	0.06983363	0.1910577	0	0	0	0	0	0
28.35428	0.06983363	0.1910577	0	0	0	0	0	0
28.37066	0.06983363	0.1910577	0	0	0	0	0	0
28.3873	0.06983363	0.1910577	0	0	0	0	0	0
28.40382	0.06983363	0.1910577	0	0	0	0	0	0
28.42036	0.06983363	0.1910577	0	0	0	0	0	0
28.43693	0.06983363	0.1910577	0	0	0	0	0	0
28.4535	0.06980744	0.1910397	-0.001580759	-0.001089217	-0.04770739	-0.03287263	0	0
28.47006	0.06980744	0.1910397	0	0	0.04770739	0.03287263	0	0
28.48663	0.06980744	0.1910397	0	0	0	0	0	0
28.5032	0.06980744	0.1910397	0	0	0	0	0	0
28.5199	0.06980744	0.1910397	0	0	0	0	0	0
28.53633	0.06978125	0.1910216	-0.001594156	-0.001099356	-0.04811173	-0.03317862	0	0
28.5529	0.06978125	0.1910216	0	0	0.04831756	0.03332055	0	0
28.56946	0.06978125	0.1910216	0	0	0	0	0	0
28.58603	0.06978125	0.1910216	0	0	0	0	0	0
28.60296	0.06975506	0.1910035	-0.001546746	-0.001065781	-0.04617324	-0.03181553	0	0
28.61917	0.06975506	0.1910035	0	0	0.0466809	0.03216533	0	0
28.6523	0.06975506	0.1910035	0	0	0	0	0	0
28.66887	0.06975506	0.1910035	0	0	0	0	0	0
28.68543	0.06975506	0.1910035	0	0	0	0	0	0
28.702	0.06975506	0.1910035	0	0	0	0	0	0
28.71857	0.06975506	0.1910035	0	0	0	0	0	0
28.73514	0.06975506	0.1910035	0	0	0	0	0	0
28.7517	0.06975506	0.1910035	0	0	0	0	0	0
28.76859	0.06975506	0.1910035	0	0	0	0	0	0
28.7851	0.06975506	0.1910035	0	0	0	0	0	0
28.8014	0.06975506	0.1910035	0	0	0	0	0	0
28.81812	0.06975506	0.1910035	0	0	0	0	0	0
28.83463	0.06975506	0.1910035	0	0	0	0	0	0
28.85114	0.06975506	0.1910035	0	0	0	0	0	0
28.90071	0.06975506	0.1910035	0	0	0	0	0	0
28.91728	0.06975506	0.1910035	0	0	0	0	0	0
28.93385	0.06975506	0.1910035	0	0	0	0	0	0
28.95042	0.06975506	0.1910035	0	0	0	0	0	0
28.96698	0.06975506	0.1910035	0	0	0	0	0	0
28.98355	0.06975506	0.1910035	0	0	0	0	0	0
29.00012	0.06975506	0.1910035	0	0	0	0	0	0
29.01669	0.06972887	0.1909855	-0.001580759	-0.001089217	-0.04770739	-0.03287263	0	0
29.03325	0.06972887	0.1909855	0	0	0.04770739	0.03287263	0	0
29.04982	0.06972887	0.1909855	0	0	0	0	0	0
29.06639	0.06972887	0.1909855	0	0	0	0	0	0
29.08295	0.06972887	0.1909855	0	0	0	0	0	0
29.09952	0.06972887	0.1909855	0	0	0	0	0	0
29.11609	0.06972887	0.1909855	0	0	0	0	0	0
29.13266	0.06972887	0.1909855	0	0	0	0	0	0
29.14922	0.06972887	0.1909855	0	0	0	0	0	0
29.16579	0.06972887	0.1909855	0	0	0	0	0	0
29.18618	0.06972887	0.1909855	0	0	0	0	0	0
29.20275	0.06972887	0.1909855	0	0	0	0	0	0
29.21931	0.06970268	0.1909675	-0.001580759	-0.001089217	-0.04770739	-0.03287263	0	0
29.23588	0.06970268	0.1909675	0	0	0.04770739	0.03287263	0	0
29.25245	0.06972887	0.1909494	0.001580759	-0.001089217	0.04770739	-0.03287263	0	0
29.26902	0.06970268	0.1909314	-0.001580759	-0.001089217	-0.09541478	0	0	0
29.28558	0.06970268	0.1909314	0	0	0.04770739	0.03287263	0	0
29.30215	0.06970268	0.1909314	0	0	0	0	0	0
29.31872	0.06970268	0.1909314	0	0	0	0	0	0
29.3355	0.06970268	0.1909314	0	0	0	0	0	0
29.35201	0.06970268	0.1909314	0	0	0	0	0	0
29.38498	0.06970268	0.1909314	0	0	0	0	0	0
29.40155	0.0696765	0.1909133	-0.001580759	-0.001089217	-0.03190901	-0.0219868	0	0
29.41812	0.0696765	0.1909133	0	0	0.04770739	0.03287263	0	0
29.43469	0.0696765	0.1909133	0	0	0	0	0	0
29.45125	0.0696765	0.1909133	0	0	0	0	0	0
29.46782	0.0696765	0.1909133	0	0	0	0	0	0
29.48461	0.0696765	0.1909133	0	0	0	0	0	0
29.50095	0.0696765	0.1909133	0	0	0	0	0	0
29.51763	0.0696765	0.1909133	0	0	0	0	0	0
29.53409	0.06962412	0.1908772	-0.00318277	-0.002193078	-0.09605618	-0.06618722	0	0
29.55066	0.06949318	0.190787	-0.007903343	-0.005446984	-0.1429444	-0.09853204	0	0
29.56722	0.0692051	0.1906246	-0.01738879	-0.009803851	-0.2862715	-0.1314905	0	0
29.58379	0.06818362	0.1899207	-0.06165678	-0.04248755	-1.33601	-0.986396	0	0
29.60036	0.05987571	0.1841966	-0.5014661	-0.3455039	-13.27347	-9.145051	0	0
29.61692	0.05360649	0.1798779	-0.3784111	-0.260679	3.713807	2.56002	0	0
29.63372	0.04665034	0.1751223	-0.4141994	-0.2831701	-1.072743	-0.6741637	0	0
29.65006	0.03222568	0.1652926	-0.882768	-0.6015643	-14.14143	-9.609159	0	0
29.66663	0.01292033	0.1520166	-1.165273	-0.8013407	-8.584829	-6.070848	0	0
29.68325	0.001210526	0.1439673	-0.7042918	-0.4841241	13.88766	9.556563	0	0
29.69976	-0.01470947	0.1329557	-0.9644858	-0.6671238	-7.853123	-5.523261	0	0
29.71633	-0.02694085	0.1244766	-0.7382877	-0.5117993	6.83927	4.696354	0	0
29.73289	-0.03953202	0.1157274	-0.7600049	-0.5281015	-0.6554243	-0.4920022	0	0
29.74946	-0.05644	0.1039396	-1.020567	-0.71151	-7.863786	-5.535279	0	0
29.76603	-0.06493489	0.09796129	-0.5127531	-0.3608541	15.32586	10.58282	0	0
29.78283	-0.08605014	0.08316482	-1.256865	-0.8807463	-22.30074	-15.58096	0	0
29.79934	-0.09398545	0.07763778	-0.4806362	-0.3347692	23.30323	16.39082	0	0
29.81573	-0.1051372	0.07003551	-0.6804066	-0.46384	-6.072077	-3.923144	0	0
29.83229	-0.1170935	0.0619381	-0.7216817	-0.4887609	-1.252389	-0.7561609	0	0
29.84886	-0.1242514	0.05723488	-0.4320503	-0.2838869	8.741093	6.183109	0	0
29.86543	-0.1319654	0.05330507	-0.4656754	-0.237231	-1.014865	1.408158	0	0
29.94826	-0.1608099	0.07018325	-0.3482189	0.2037586	1.18166	4.436534	0	0
29.96483	-0.1664201	0.07422584	-0.3386349	0.2440111	0.09641658	0.4049489	0	0
29.98147	-0.1715599	0.07793273	-0.3088902	0.2227736	0.8957388	-0.6395512	0	0
29.99798	-0.1774046	0.08215206	-0.3539675	0.2555325	-1.359733	0.9881538	0	0
30.01453	-0.1806408	0.08449025	-0.1955358	0.14128	4.791961	-3.455705	0	0
30.03151	-0.1805898	0.08445344	0.003000014	-0.002168383	5.921604	-4.278546	0	0
30.04766	-0.1805898	0.08445344	0	0	-0.09054581	0.06544571	0	0
30.06423	-0.1805898	0.08445344	0	0	0	0	0	0
30.08225	-0.1806153	0.08447185	-0.001413163	0.001021628	-0.04085719	0.02953719	0	0
30.09882	-0.1805898	0.08449025	0.001537136	0.001110803	0.08529867	0.002578219	0	0
30.11539	-0.1805898	0.08449025	0	0	-0.04639085	-0.03352411	0	0
30.13207	-0.1805898	0.08449025	0	0	0	0	0	0
30.15241	-0.1805898	0.08449025	0	0	0	0	0	0
30.16898	-0.1805898	0.08449025	0	0	0	0	0	0
30.18555	-0.1805898	0.08449025	0	0	0	0	0	0
30.20212	-0.1805898	0.08449025	0	0	0	0	0	0
30.21868	-0.1806153	0.08450866	-0.001537136	0.001111253	-0.04639085	0.03353768	0	0
30.23525	-0.1806153	0.08450866	0	0	0.04639085	-0.03353768	0	0
30.25182	-0.1806153	0.08450866	0	0	0	0	0	0
30.26838	-0.1806153	0.08450866	0	0	0	0	0	0
30.28495	-0.1808699	0.08469272	-0.01537046	0.01110938	-0.4639081	0.3353011	0	0
30.30152	-0.182601	0.08594409	-0.1044848	0.07553282	-2.689475	1.944303	0	0
30.31821	-0.1876604	0.08960413	-0.3031172	0.2192799	-5.972391	4.322122	0	0
30.33472	-0.1907573	0.09184648	-0.1875587	0.1358019	3.48035	-2.514161	0	0
30.35122	-0.1927354	0.09327953	-0.1199082	0.08686879	2.049482	-1.482435	0	0
30.36778	-0.1941799	0.09432646	-0.08719311	0.06319302	0.9894505	-0.7160612	0	0
30.38435	-0.1941546	0.09430809	0.001529041	-0.001108555	2.67764	-1.940625	0	0
30.40092	-0.1941546	0.09430809	0	0	-0.04614655	0.03345625	0	0
30.41749	-0.1941546	0.09430809	0	0	0	0	0	0
30.43405	-0.1941546	0.09430809	0	0	0	0	0	0
30.45062	-0.1941546	0.09430809	0	0	0	0	0	0
30.46719	-0.1941546	0.09430809	0	0	0	0	0	0
30.48375	-0.1941293	0.09428973	0.001529217	-0.001108682	0.04615452	-0.03346203	0	0
30.50034	-0.1941293	0.09428973	0	0	-0.04612796	0.03344277	0	0
30.51689	-0.1941293	0.09428973	0	0	0	0	0	0
30.53345	-0.1941039	0.09427136	0.001530117	-0.001108682	0.04620827	-0.0334813	0	0
30.55002	-0.1941039	0.09427136	0	0	-0.04618433	0.03346395	0	0
30.56659	-0.1941039	0.09427136	0	0	0	0	0	0
30.58315	-0.1940786	0.094253	0.001529041	-0.001108555	0.04614655	-0.03345625	0	0
30.59972	-0.1940533	0.09423463	0.001529041	-0.001108555	0	0	0	0
30.61629	-0.1940533	0.09423463	0	0	-0.04614655	0.03345625	0	0
30.69912	-0.1939773	0.09417953	0.0009176256	-0.0006651481	0.009231509	-0.006691532	0	0
30.71569	-0.1939773	0.09417953	0	0	-0.009231509	0.006691532	0	0
30.73251	-0.1939773	0.09417953	0	0	0	0	0	0
30.74882	-0.1939773	0.09417953	0	0	0	0	0	0
30.76539	-0.1939773	0.09417953	0	0	0	0	0	0
30.78196	-0.1939773	0.09417953	0	0	0	0	0	0
30.79852	-0.1940026	0.0941979	-0.001529041	0.001108555	-0.04614655	0.03345625	0	0
30.81509	-0.1940026	0.0941979	0	0	0.04614655	-0.03345625	0	0
30.83166	-0.1940279	0.09421626	-0.001529041	0.001108555	-0.04614655	0.03345625	0	0
30.84823	-0.1941293	0.09432646	-0.006117963	0.006651328	-0.1384939	0.1672812	0	0
30.8651	-0.1941799	0.09454683	-0.003001752	0.01305674	0.09317321	0.1915186	0	0
30.88136	-0.1942306	0.09487738	-0.003117849	0.02033569	-0.003504039	0.219692	0	0
30.89793	-0.1947879	0.09590559	-0.0336398	0.06206287	-0.9299333	1.271331	0	0
30.91449	-0.2016429	0.1011715	-0.413816	0.3178873	-11.4744	7.721241	0	0
30.93115	-0.2101406	0.1085191	-0.5101617	0.4411146	-2.900039	3.709185	0	0
30.94762	-0.2160482	0.1138074	-0.3585646	0.32098	4.575472	-3.625879	0	0
30.96419	-0.2210389	0.1219392	-0.3012373	0.4908361	1.734937	5.140471	0	0
30.98076	-0.2198612	0.1296204	0.07108601	0.4636349	11.23674	-0.8209331	0	0
31.01821	-0.2016935	0.1493105	0.4850848	0.525734	7.663816	1.149559	0	0
31.03464	-0.1903006	0.1573704	0.6935834	0.4906753	3.869772	-0.6506965	0	0
31.0512	-0.1753642	0.1679733	0.9015639	0.6399891	6.303717	4.525578	0	0
31.06777	-0.1599892	0.1784859	0.9281403	0.6346179	0.8021217	-0.1621129	0	0
31.08434	-0.1520026	0.1838173	0.4820724	0.3218011	-13.46313	-9.441373	0	0
31.1009	-0.1439449	0.1890723	0.4863673	0.3171933	0.1296177	-0.1390636	0	0
31.11778	-0.1231629	0.2016976	1.231295	0.7480259	22.27298	12.88169	0	0
31.13404	-0.1098975	0.2075522	0.8160135	0.3601432	-12.53323	-11.70632	0	0
31.1508	-0.09228972	0.2130606	1.050235	0.3285561	7.092911	-0.9565491	0	0
31.16717	-0.07894088	0.2158135	0.8155969	0.1681959	-7.081801	-4.839958	0	0
31.18374	-0.06270715	0.2180799	0.9798697	0.1367997	4.987912	-0.9533014	0	0
31.2003	-0.05229438	0.2191769	0.628588	0.0662232	-10.60231	-2.130126	0	0
31.21735	-0.04743807	0.2193387	0.2848634	0.00949335	-10.22588	-1.687725	0	0
31.23344	-0.04097705	0.218979	0.4016878	-0.02236007	3.52597	-0.9613935	0	0
31.25	-0.04003124	0.2186553	0.05708944	-0.01953845	-10.5537	0.08641542	0	0
31.26657	-0.03974222	0.2184575	0.01744501	-0.01194091	-1.196471	0.2292941	0	0
31.28314	-0.03947948	0.2182777	0.0158593	-0.01085529	-0.04785673	0.03276403	0	0
31.29971	-0.0394532	0.2182597	0.00158593	-0.001085619	-0.4307712	0.2948493	0	0
31.31627	-0.0393481	0.2181878	0.006343721	-0.004341577	0.1435904	-0.09826501	0	0
31.33294	-0.03932182	0.2181698	0.001577077	-0.001079406	-0.1434447	0.09816998	0	0
31.34941	-0.03932182	0.2181698	0	0	-0.04759901	0.0325784	0	0
31.36597	-0.03929555	0.2181518	0.00158593	-0.001085619	0.0480044	-0.03286052	0	0
31.38254	-0.03929555	0.2181158	0	-0.002171238	-0.04786347	-0.03276405	0	0
31.39911	-0.03929555	0.2181158	0	0	0	0.06552809	0	0
31.41567	-0.039243	0.2180799	0.003171861	-0.002171238	0.09572694	-0.06552809	0	0
31.43224	-0.03916417	0.2179899	0.004758016	-0.005428095	0.04787025	-0.09829214	0	0
31.44881	-0.03911162	0.217918	0.003172085	-0.004341577	-0.04786347	0.03279118	0	0
31.46538	-0.03908535	0.2179	0.00158593	-0.001085619	-0.04787025	0.09826501	0	0
31.48204	-0.03911162	0.217882	-0.001576312	-0.001079035	-0.09514639	0.0001981007	0	0
31.49851	-0.03911162	0.217882	0	0	0.04757319	0.03256534	0	0
31.51508	-0.03908535	0.217864	0.00158593	-0.001085619	0.04800995	-0.03286431	0	0
31.53164	-0.03905907	0.2178461	0.00158593	-0.001085619	0	0	0	0
31.54821	-0.0390328	0.2177921	0.00158593	-0.003256857	0	-0.0655281	0	0
31.56478	-0.03898025	0.2177561	0.003172085	-0.002171238	0.04787025	0.03276405	0	0
31.58135	-0.03900652	0.2177381	-0.00158593	-0.001085619	-0.1435972	0.03276405	0	0
31.63116	-0.03895397	0.2177022	0.001055094	-0.000722194	0.03978901	0.00547527	0	0
31.64761	-0.03895397	0.2176662	0	-0.002185581	-0.01592186	-0.02208318	0	0
31.66418	-0.03892769	0.2175403	0.00158593	-0.007599334	0.04802104	-0.1639252	0	0
31.68075	-0.03890142	0.2174863	0.00158593	-0.003256857	0	0.1310562	0	0
31.69732	-0.03892769	0.2173964	-0.00158593	-0.005428095	-0.09572694	-0.06552809	0	0
31.71388	-0.03892769	0.2173964	0	0	0.04786347	0.1638202	0	0
31.73073	-0.03895397	0.2173784	-0.00155989	-0.001068679	-0.04668789	-0.0319858	0	0
31.74724	-0.03892769	0.2173604	0.001591243	-0.001089256	0.09447057	-0.0006169025	0	0
31.78026	-0.03895397	0.2173065	-0.0007955756	-0.001633789	-0.0481819	-0.01099232	0	0
31.79678	-0.03898025	0.2172525	-0.001591469	-0.003267767	-0.01606642	-0.03298456	0	0
31.81329	-0.03900652	0.2171986	-0.001591059	-0.00326739	1.239386E-05	1.142801E-05	0	0
31.82985	-0.0390328	0.2171806	-0.001586703	-0.001085994	0.0001317002	0.06595235	0	0
31.84642	-0.03905907	0.2171266	-0.00158593	-0.003256857	2.332963E-05	-0.06552809	0	0
31.86299	-0.03905907	0.2171266	0	0	0.04786347	0.09829215	0	0
31.87955	-0.03905907	0.2170906	0	-0.002172138	0	-0.06555524	0	0
31.89635	-0.03905907	0.2170906	0	0	0	0.06510924	0	0
31.91638	-0.0390328	0.2170367	0.001311692	-0.002693683	0.03561943	-0.07314787	0	0
31.93295	-0.03900652	0.2170187	0.001586155	-0.001085619	0.007499359	0.04393834	0	0
31.94951	-0.03900652	0.2169827	0	-0.002171238	-0.04787026	-0.03276405	0	0
31.96608	-0.03900652	0.2169467	0	-0.002171238	0	0	0	0
31.98291	-0.03900652	0.2169467	0	0	0	0.06501537	0	0
31.99921	-0.03898025	0.2169288	0.001611534	-0.001103145	0.04863899	-0.03329491	0	0
32.01578	-0.03898025	0.2169288	0	0	-0.04902848	0.03356154	0	0
32.03244	-0.03898025	0.2169288	0	0	0	0	0	0
32.04891	-0.03898025	0.2169288	0	0	0	0	0	0
32.06548	-0.03898025	0.2169288	0	0	0	0	0	0
32.08204	-0.03898025	0.2169288	0	0	0	0	0	0
32.09899	-0.03892769	0.2169647	0.003101388	0.002122847	0.09254529	0.06334567	0	0
32.13201	-0.03887514	0.2170007	0.001591356	0.001089256	-0.03021956	-0.02068477	0	0
32.14831	-0.03877003	0.2170007	0.006448101	0	0.09846608	-0.02208367	0	0
32.16488	-0.03855982	0.2168568	0.01268834	-0.008685852	0.1898609	-0.2642693	0	0
32.18145	-0.03827078	0.2166949	0.01744681	-0.009771471	0.1436108	-0.03276403	0	0
32.19801	-0.03813939	0.216605	0.007930551	-0.005428995	-0.2872012	0.1310562	0	0
32.21458	-0.03803428	0.216533	0.006344621	-0.004342476	-0.04786346	0.0327912	0	0
32.23115	-0.03803428	0.216533	0	0	-0.191481	0.1310562	0	0
32.2486	-0.038008	0.216551	0.001505507	0.001030567	0.04425428	0.03029345	0	0
32.26461	-0.03792917	0.216605	0.004923997	0.003370153	0.1021588	0.06991659	0	0
32.28085	-0.03787661	0.2166409	0.003236397	0.002216019	-0.05232956	-0.0357877	0	0
32.29764	-0.03785034	0.2166589	0.001565251	0.001071312	-0.05059839	-0.03465906	0	0
32.31415	-0.03779778	0.2166589	0.003183305	0	0.0485924	-0.03217299	0	0
32.33055	-0.03779778	0.2166589	0	0	-0.09671816	0	0	0
32.34712	-0.0377715	0.2166409	0.001586155	-0.001085619	0.04810842	-0.03292705	0	0
32.36369	-0.03774522	0.2166589	0.001586155	0.001085619	0	0.06552809	0	0
32.38025	-0.03774522	0.2166589	0	0	-0.04787026	-0.03276405	0	0
32.39682	-0.03771894	0.2166769	0.001586155	0.001085619	0.04787026	0.03276405	0	0
32.41339	-0.03769267	0.2166949	0.001586155	0.001085619	0	0	0	0
32.42995	-0.03764011	0.2166949	0.00317231	0	0.04787026	-0.03276405	0	0
32.44675	-0.03761383	0.2167129	0.001564896	0.001071069	-0.04818457	0.03210683	0	0
32.46326	-0.03753499	0.2166949	0.004775183	-0.001089382	0.09639833	-0.06487389	0	0
32.47977	-0.03750871	0.2166769	0.001591653	-0.001089382	-0.09641212	0	0	0
32.49628	-0.03742988	0.216623	0.004774957	-0.003268145	0.0964053	-0.06598311	0	0
32.51279	-0.03724593	0.216533	0.01113945	-0.005446552	0.1927241	-0.0659647	0	0
32.52935	-0.03601074	0.2157235	0.07457299	-0.04887311	1.91774	-1.312883	0	0
32.56249	-0.02559967	0.2087046	0.3142068	-0.2118324	4.821812	-3.279	0	0
32.57906	-0.02225948	0.2064536	0.2016142	-0.1358661	-2.265368	1.528446	0	0
32.59562	-0.01639327	0.2024724	0.3540853	-0.2403068	4.601588	-3.152026	0	0
32.61219	-0.0137886	0.2006883	0.1572181	-0.1076886	-5.941463	4.002426	0	0
32.62876	-0.01168368	0.1992824	0.1270532	-0.08486357	-0.910378	0.6888595	0	0
32.64532	-0.01089431	0.1987416	0.04764666	-0.03264323	-2.396496	1.576013	0	0
32.66189	-0.01086799	0.1987235	0.001588235	-0.001088317	-1.390046	0.952329	0	0
32.67846	-0.01084168	0.1987055	0.001588235	-0.001088317	0	0	0	0
32.69503	-0.01081537	0.1986875	0.001588235	-0.001088317	0	0	0	0
32.71159	-0.01081537	0.1986875	0	0	-0.04793303	0.03284548	0	0
32.72816	-0.01084168	0.1986694	-0.001588235	-0.001088317	-0.04793303	-0.03284548	0	0
32.74497	-0.01084168	0.1986694	0	0	0.04758788	0.03260897	0	0
32.76147	-0.01084168	0.1986694	0	0	0	0	0	0
32.77798	-0.01084168	0.1986694	0	0	0	0	0	0
32.79443	-0.01084168	0.1986694	0	0	0	0	0	0
32.811	-0.01084168	0.1986694	0	0	0	0	0	0
32.82756	-0.01084168	0.1986694	0	0	0	0	0	0
32.84742	-0.01084168	0.1986694	0	0	0	0	0	0
32.86399	-0.01084168	0.1986694	0	0	0	0	0	0
32.88055	-0.01089431	0.1986694	-0.00317647	0	-0.09586606	0	0	0
32.89712	-0.01089431	0.1986694	0	0	0.09586606	0	0	0
32.91369	-0.01089431	0.1986694	0	0	0	0	0	0
32.93026	-0.01089431	0.1986694	0	0	0	0	0	0
32.94682	-0.01089431	0.1986694	0	0	0	0	0	0
32.96362	-0.01089431	0.1986694	0	0	0	0	0	0
32.97995	-0.01089431	0.1986334	0	-0.002206215	0	-0.06659137	0	0
32.99664	-0.01089431	0.1986334	0	0	0	0.06681447	0	0
33.01309	-0.01089431	0.1986334	0	0	0	0	0	0
33.03761	-0.01092062	0.1986154	-0.001073239	-0.0007354228	-0.02619582	-0.01795034	0	0
33.05418	-0.01092062	0.1986154	0	0	0.02612042	0.01789868	0	0
33.07074	-0.01092062	0.1986154	0	0	0	0	0	0
33.08731	-0.01094693	0.1985973	-0.001588235	-0.001088317	-0.04793855	-0.03284926	0	0
33.10387	-0.01094693	0.1985973	0	0	0.04793303	0.03284548	0	0
33.12044	-0.01094693	0.1985973	0	0	0	0	0	0
33.13701	-0.01094693	0.1985973	0	0	0	0	0	0
33.15358	-0.01094693	0.1985973	0	0	0	0	0	0
33.17027	-0.01092062	0.1985793	0.001576618	-0.001080357	0.04740778	-0.03248556	0	0
33.18671	-0.01094693	0.1985613	-0.001600024	-0.001096396	-0.09587126	-0.0004840511	0	0
33.20328	-0.01094693	0.1985613	0	0	0.04846739	0.03321165	0	0
33.21984	-0.01094693	0.1985613	0	0	0	0	0	0
33.23641	-0.01094693	0.1985613	0	0	0	0	0	0
33.25298	-0.01094693	0.1985613	0	0	0	0	0	0
33.31937	-0.01094693	0.1985613	0	0	0	0	0	0
33.33588	-0.01094693	0.1985613	0	0	0	0	0	0
33.35239	-0.01094693	0.1985613	0	0	0	0	0	0
33.36895	-0.01094693	0.1985613	0	0	0	0	0	0
33.38551	-0.01094693	0.1985613	0	0	0	0	0	0
33.40243	-0.01094693	0.1985613	0	0	0	0	0	0
33.41865	-0.01094693	0.1985613	0	0	0	0	0	0
33.43521	-0.01097324	0.1985432	-0.001588235	-0.001088317	-0.04844616	-0.0331971	0	0
33.45197	-0.01097324	0.1985432	0	0	0.0476696	0.03266497	0	0
33.46835	-0.01094693	0.1985252	0.001605985	-0.00110048	0.04846872	-0.03321256	0	0
33.48492	-0.01094693	0.1985252	0	0	-0.04873805	0.03339712	0	0
33.50151	-0.01094693	0.1985252	0	0	0	0	0	0
33.51805	-0.01094693	0.1985252	0	0	0	0	0	0
33.53503	-0.01094693	0.1985252	0	0	0	0	0	0
33.55119	-0.01094693	0.1985252	0	0	0	0	0	0
33.56775	-0.01094693	0.1985252	0	0	0	0	0	0
33.58432	-0.01094693	0.1985252	0	0	0	0	0	0
33.60108	-0.01094693	0.1985252	0	0	0	0	0	0
33.61759	-0.01094693	0.1985252	0	0	0	0	0	0
33.6341	-0.01094693	0.1985252	0	0	0	0	0	0
33.65061	-0.01094693	0.1985252	0	0	0	0	0	0
33.66716	-0.01094693	0.1985252	0	0	0	0	0	0
33.68372	-0.01094693	0.1985252	0	0	0	0	0	0
33.70065	-0.01094693	0.1985252	0	0	0	0	0	0
33.71685	-0.01094693	0.1985252	0	0	0	0	0	0
33.73367	-0.01094693	0.1985252	0	0	0	0	0	0
33.75449	-0.01094693	0.1985252	0	0	0	0	0	0
33.77119	-0.01094693	0.1985252	0	0	0	0	0	0
33.78763	-0.01094693	0.1985252	0	0	0	0	0	0
33.8042	-0.01094693	0.1985252	0	0	0	0	0	0
33.83733	-0.01094693	0.1985252	0	0	0	0	0	0
33.8539	-0.01094693	0.1985252	0	0	0	0	0	0
33.87046	-0.01097324	0.1985072	-0.001588235	-0.001087418	-0.04793303	-0.03281834	0	0
33.88729	-0.01094693	0.1984892	0.001564106	-0.001071783	0.09440959	0.0004682546	0	0
33.9036	-0.01094693	0.1984892	0	0	-0.0472048	0.03234647	0	0
33.92017	-0.01094693	0.1984892	0	0	0	0	0	0
33.93673	-0.01094693	0.1984892	0	0	0	0	0	0
33.95333	-0.01097324	0.1984711	-0.001585315	-0.001086316	-0.04780087	-0.03275493	0	0
33.96986	-0.01097324	0.1984711	0	0	0.04785041	0.03278887	0	0
33.98643	-0.01097324	0.1984711	0	0	0	0	0	0
34.00336	-0.01097324	0.1984711	0	0	0	0	0	0
34.01957	-0.01094693	0.1984531	0.001624136	-0.001112918	0.04901652	-0.03358793	0	0
34.03613	-0.01094693	0.1984531	0	0	-0.04956432	0.0339633	0	0
34.06941	-0.01097324	0.1984351	-0.0007906585	-0.0005417885	-0.01586182	-0.01086911	0	0
34.08583	-0.01097324	0.1984351	0	0	0.0159093	0.01090164	0	0
34.1024	-0.01097324	0.1984351	0	0	0	0	0	0
34.11897	-0.01097324	0.1984351	0	0	0	0	0	0
34.13553	-0.01097324	0.1984351	0	0	0	0	0	0
34.1521	-0.01094693	0.198417	0.001588235	-0.001088317	0.04793303	-0.03284548	0	0
34.16898	-0.01094693	0.198417	0	0	-0.04747934	0.0325346	0	0
34.18523	-0.01094693	0.198381	0	-0.002219043	0	-0.06697086	0	0
34.2018	-0.01094693	0.198381	0	0	0	0.06761698	0	0
34.21837	-0.01094693	0.198381	0	0	0	0	0	0
34.23503	-0.01094693	0.198381	0	0	0	0	0	0
34.2515	-0.01094693	0.198381	0	0	0	0	0	0
34.26807	-0.01094693	0.198381	0	0	0	0	0	0
34.28463	-0.01092062	0.198363	0.001588601	-0.001087668	0.04794959	-0.03282968	0	0
34.3012	-0.01092062	0.198363	0	0	-0.04794959	0.03282968	0	0
34.31776	-0.01092062	0.198363	0	0	0	0	0	0
34.3509	-0.01092062	0.198363	0	0	0	0	0	0
34.36747	-0.01092062	0.198363	0	0	0	0	0	0
34.38403	-0.01092062	0.198363	0	0	0	0	0	0
34.40065	-0.01092062	0.198363	0	0	0	0	0	0
34.41717	-0.01092062	0.198363	0	0	0	0	0	0
34.43373	-0.01092062	0.198363	0	0	0	0	0	0
34.4503	-0.01092062	0.198363	0	0	0	0	0	0
34.46687	-0.01092062	0.198363	0	0	0	0	0	0
34.48371	-0.01089431	0.1983449	0.001562688	-0.001070812	0.04677964	-0.03205514	0	0
34.5	-0.01089431	0.1983449	0	0	-0.04716202	0.03231716	0	0
34.51657	-0.01089431	0.1983449	0	0	0	0	0	0
34.53314	-0.01089431	0.1983449	0	0	0	0	0	0
34.54976	-0.01089431	0.1983449	0	0	0	0	0	0
34.56677	-0.01089431	0.1983449	0	0	0	0	0	0
34.58284	-0.01089431	0.1983449	0	0	0	0	0	0
34.59979	-0.01089431	0.1983449	0	0	0	0	0	0
34.61597	-0.01089431	0.1983449	0	0	0	0	0	0
34.6491	-0.01089431	0.1983449	0	0	0	0	0	0
34.67168	-0.01089431	0.1983449	0	0	0	0	0	0
34.70486	-0.01089431	0.1983449	0	0	0	0	0	0
34.72139	-0.01089431	0.1983449	0	0	0	0	0	0
34.73795	-0.01089431	0.1983449	0	0	0	0	0	0
34.7549	-0.01086799	0.1983269	0.001552488	-0.001063822	0.0463209	-0.0317408	0	0
34.77141	-0.01089431	0.1983449	-0.00159374	0.001092089	-0.09403315	0.06443499	0	0
34.78765	-0.01086799	0.1983269	0.001620321	-0.001110304	0.09814171	-0.06725033	0	0
34.80443	-0.01086799	0.1983269	0	0	-0.04907086	0.03362516	0	0
34.82078	-0.01086799	0.1983269	0	0	0	0	0	0
34.83735	-0.01086799	0.1983269	0	0	0	0	0	0
34.85397	-0.01089431	0.1983089	-0.001583495	-0.001085069	-0.04771856	-0.03269852	0	0
34.87048	-0.01089431	0.1983089	0	0	0.04778998	0.03274746	0	0
34.88749	-0.01089431	0.1983089	0	0	0	0	0	0
34.90362	-0.01089431	0.1983089	0	0	0	0	0	0
34.92018	-0.01089431	0.1983089	0	0	0	0	0	0
34.93675	-0.01089431	0.1983089	0	0	0	0	0	0
34.95354	-0.01089431	0.1983089	0	0	0	0	0	0
34.96988	-0.01086799	0.1982908	0.001609733	-0.001103048	0.04858183	-0.03329007	0	0
34.98656	-0.01084168	0.1982728	0.0015777	-0.001081098	-0.000969988	0.0006646712	0	0
35.00302	-0.01081537	0.1982548	0.001598912	-0.001095633	0.0006401665	-0.0004386647	0	0
35.01958	-0.01078906	0.1982367	0.001588235	-0.001088317	-0.0003232988	0.0002215371	0	0
35.03615	-0.01071012	0.1981827	0.004764761	-0.003264952	0.09586775	-0.06569097	0	0
35.05272	-0.01057855	0.1980565	0.007941175	-0.007617322	0.09586436	-0.1313548	0	0
35.06929	-0.01034174	0.1978942	0.01429428	-0.009794856	0.1917372	-0.06571811	0	0
35.08613	-0.01015755	0.197768	0.01093403	-0.007492287	-0.1005675	0.06891253	0	0
35.10264	-0.01015755	0.197768	0	0	-0.3278008	0.2246178	0	0
35.11898	-0.01013123	0.1977499	0.001610109	-0.001103306	0.04901072	-0.03358396	0	0
35.13555	-0.01013123	0.1977499	0	0	-0.0489255	0.03352556	0	0
35.21839	-0.01013123	0.1977499	0	0	0	0	0	0
35.23495	-0.01013123	0.1977499	0	0	0	0	0	0
35.25152	-0.01013123	0.1977499	0	0	0	0	0	0
35.26809	-0.01013123	0.1977499	0	0	0	0	0	0
35.28466	-0.01013123	0.1977499	0	0	0	0	0	0
35.30129	-0.01013123	0.1977499	0	0	0	0	0	0
35.31779	-0.01013123	0.1977499	0	0	0	0	0	0
35.33436	-0.01013123	0.1977499	0	0	0	0	0	0
35.35093	-0.01013123	0.1977139	0	-0.002176635	0	-0.06569096	0	0
35.36784	-0.01013123	0.1977139	0	0	0	0.06500988	0	0
35.38435	-0.01013123	0.1977139	0	0	0	0	0	0
35.40086	-0.01015755	0.1976959	-0.00159374	-0.001092089	-0.04826586	-0.03307355	0	0
35.41737	-0.01015755	0.1976959	0	0	0.04826028	0.03306973	0	0
35.43376	-0.01013123	0.1976778	0.001605985	-0.00110048	0.04881717	-0.03345133	0	0
35.45033	-0.01013123	0.1976778	0	0	-0.04873805	0.03339712	0	0
35.46691	-0.01013123	0.1976778	0	0	0	0	0	0
35.48346	-0.01015755	0.1976598	-0.001589699	-0.001089321	-0.04797722	-0.03287577	0	0
35.50043	-0.01015755	0.1976598	0	0	0.04742036	0.03249418	0	0
35.51694	-0.01015755	0.1976598	0	0	0	0	0	0
35.53316	-0.01018386	0.1976418	-0.001622665	-0.001111871	-0.04957715	-0.03397089	0	0
35.54973	-0.01015755	0.1976237	0.001588291	-0.001088317	0.09794426	0.0007184521	0	0
35.56648	-0.01015755	0.1975877	0	-0.002152351	-0.04766583	-0.03193246	0	0
35.58299	-0.01015755	0.1975877	0	0	0	0.06470481	0	0
35.62046	-0.01007861	0.1974615	0.002106623	-0.003368211	0.03902471	-0.06239533	0	0
35.63703	-0.01007861	0.1974615	0	0	-0.03898339	0.06232926	0	0
35.65404	-0.01002598	0.1973893	0.00309389	-0.00424002	0.09214322	-0.1262776	0	0
35.67016	-0.009999666	0.1973713	0.001632264	-0.001118448	-0.04411702	0.09422007	0	0
35.68673	-0.009999666	0.1973352	0	-0.002176635	-0.04993445	-0.03237218	0	0
35.7033	-0.009999666	0.1973352	0	0	0	0.06569096	0	0
35.71986	-0.009999666	0.1973352	0	0	0	0	0	0
35.7366	-0.009999666	0.1973352	0	0	0	0	0	0
35.75311	-0.009999666	0.1973352	0	0	0	0	0	0
35.76962	-0.009999666	0.1973352	0	0	0	0	0	0
35.78613	-0.009999666	0.1973352	0	0	0	0	0	0
35.8027	-0.009999666	0.1973352	0	0	0	0	0	0
35.81926	-0.009999666	0.1973352	0	0	0	0	0	0
35.83583	-0.009999666	0.1973352	0	0	0	0	0	0
35.85268	-0.01002598	0.1973533	-0.001561682	0.001070084	-0.04673351	0.03202239	0	0
35.86897	-0.01002598	0.1973533	0	0	0.04713165	-0.03229521	0	0
35.8857	-0.01002598	0.1973533	0	0	0	0	0	0
35.9021	-0.01002598	0.1973533	0	0	0	0	0	0
35.91867	-0.01002598	0.1973533	0	0	0	0	0	0
35.93524	-0.01002598	0.1973533	0	0	0	0	0	0
35.9518	-0.01002598	0.1973533	0	0	0	0	0	0
35.96837	-0.01002598	0.1973533	0	0	0	0	0	0
36.05134	-0.01007861	0.1974254	-0.0006342829	0.0008692529	-0.00637234	0.008732972	0	0
36.06784	-0.01010492	0.1974434	-0.001594845	0.001092847	-0.009656974	0.002247893	0	0
36.08435	-0.01018386	0.1974975	-0.004781332	0.003276268	-0.09653512	0.06614708	0	0
36.1009	-0.01084168	0.1980204	-0.03973366	0.03158302	-1.057054	0.8560736	0	0
36.11747	-0.01255197	0.1992643	-0.1032334	0.07508491	-1.917089	1.313343	0	0
36.13404	-0.01620911	0.2018778	-0.2207451	0.1577458	-3.546508	2.494709	0	0
36.1506	-0.0247581	0.2079483	-0.5160182	0.3664203	-8.91136	6.297809	0	0
36.16717	-0.03028022	0.2118728	-0.3333156	0.2368835	5.513973	-3.909427	0	0
36.18374	-0.04357766	0.2212626	-0.8026351	0.5667669	-14.16409	9.9559	0	0
36.20031	-0.05460356	0.22899	-0.665525	0.4664285	4.137991	-3.028218	0	0
36.21687	-0.06949318	0.2409822	-0.8987393	0.723848	-7.038422	7.768934	0	0
36.23346	-0.07962079	0.251975	-0.6106009	0.6627652	8.691031	-1.842421	0	0
36.25001	-0.08688596	0.2656258	-0.4390317	0.8249139	5.177969	4.893658	0	0
36.26657	-0.09325504	0.2862387	-0.3844387	1.244199	1.648569	12.66133	0	0
36.28314	-0.09755774	0.3026305	-0.2597112	0.9894118	3.764283	-7.689482	0	0
36.30001	-0.1037316	0.3241563	-0.36608	1.276371	-3.181644	8.583366	0	0
