Time	Pos X	Pos Y	Vel X	Vel Y	Acc X	Acc YForce X	Force Y
0.01656713	0.005236794	0.2201479	-8.085723E-05	-0.00339913	1.248772E-06	5.249673E-05	0	0
0.05184531	0.005210479	0.2202737	-0.0007459281	0.003567931	1.027443E-05	-0.0001076316	0	0
0.07575174	0.005026273	0.2203996	-0.007705282	0.005264491	-0.1175872	0.02866556	0	0
0.09235717	0.003578932	0.2213884	-0.08716077	0.05955018	-1.96129	1.339995	0	0
0.1088896	-0.000368421	0.2240847	-0.2387648	0.1630923	-4.574955	3.124591	0	0
0.1254594	-0.004868383	0.2271576	-0.2715746	0.1854465	-0.991165	0.6753074	0	0
0.1420246	-0.008026144	0.2293133	-0.1906267	0.1301386	2.442971	-1.669167	0	0
0.1585898	-0.009131325	0.2300677	-0.06671725	0.04554144	3.740061	-2.553466	0	0
0.1751553	-0.009157639	0.2300857	-0.001588453	0.00108483	1.965814	-1.341855	0	0
0.1917193	-0.009157639	0.2300857	0	0	0.04794676	-0.03274512	0	0
0.208288	-0.009157639	0.2300857	0	0	0	0	0	0
0.2249546	-0.009131325	0.2301037	0.001578821	0.001077358	0.04750432	0.03241606	0	0
0.2414645	-0.009131325	0.2301037	0	0	-0.04758854	-0.03247353	0	0
0.2579882	-0.009131325	0.2301037	0	0	0	0	0	0
0.2745545	-0.009131325	0.2301037	0	0	0	0	0	0
0.2911217	-0.009131325	0.2301037	0	0	0	0	0	0
0.307686	-0.009131325	0.2301037	0	0	0	0	0	0
0.3245212	-0.009131325	0.2301037	0	0	0	0	0	0
0.3408214	-0.009131325	0.2301037	0	0	0	0	0	0
0.357389	-0.009131325	0.2301037	0	0	0	0	0	0
0.3739545	-0.009131325	0.2301037	0	0	0	0	0	0
0.3905659	-0.009131325	0.2301037	0	0	0	0	0	0
0.407086	-0.009131325	0.2301037	0	0	0	0	0	0
0.4236524	-0.009157639	0.2301216	-0.001588377	0.001083879	-0.04800683	0.03275896	0	0
0.4402187	-0.009157639	0.2301216	0	0	0.0479399	-0.03271329	0	0
0.4571107	-0.009157639	0.2301216	0	0	0	0	0	0
0.4733518	-0.009157639	0.2301216	0	0	0	0	0	0
0.4901344	-0.009157639	0.2301216	0	0	0	0	0	0
0.5066451	-0.009157639	0.2301216	0	0	0	0	0	0
0.523052	-0.009157639	0.2301216	0	0	0	0	0	0
0.5396689	-0.009157639	0.2301216	0	0	0	0	0	0
0.5561855	-0.009157639	0.2301216	0	0	0	0	0	0
0.5727518	-0.009157639	0.2301216	0	0	0	0	0	0
0.5893189	-0.009157639	0.2301216	0	0	0	0	0	0
0.6058853	-0.009157639	0.2301216	0	0	0	0	0	0
0.6227283	-0.009157639	0.2301216	0	0	0	0	0	0
0.6392394	-0.009183953	0.2301396	-0.001593692	0.001088408	-0.04778092	0.03263186	0	0
0.6555855	-0.009183953	0.2301396	0	0	0.04850372	-0.0331255	0	0
0.6721518	-0.009157639	0.2301216	0.001588377	-0.001084778	0.04826079	-0.03295959	0	0
0.6887189	-0.009157639	0.2301216	0	0	-0.04793878	0.03273967	0	0
0.7052853	-0.009157639	0.2301216	0	0	0	0	0	0
0.721852	-0.009157639	0.2301216	0	0	0	0	0	0
0.7384191	-0.009157639	0.2301216	0	0	0	0	0	0
0.754985	-0.009157639	0.2301216	0	0	0	0	0	0
0.7715526	-0.009131325	0.2301037	0.001588263	-0.001083801	0.04793533	-0.03271017	0	0
0.7881185	-0.009105012	0.2300857	0.001588417	-0.001083906	4.658939E-06	-3.179744E-06	0	0
0.8046852	-0.009078698	0.2300318	0.001588337	-0.003252454	-2.417364E-06	-0.06545043	0	0
0.8212523	-0.008947129	0.229942	0.00794157	-0.005420939	0.1917444	-0.0654462	0	0
0.8378803	-0.007999829	0.2292954	0.05697051	-0.03888859	1.476997	-1.008213	0	0
0.854385	-0.006947257	0.2285409	0.06377385	-0.04571169	0.2053363	-0.2059328	0	0
0.8709545	-0.006578852	0.2282894	0.02223388	-0.0151786	-1.255961	0.9231678	0	0
0.9423971	0.00410524	0.220957	0.149548	-0.1026346	1.446554	-0.9936817	0	0
0.958965	0.00410524	0.220957	0	0	-1.699207	1.166163	0	0
0.9755254	0.00410524	0.220957	0	0	0	0	0	0
0.9920914	0.00410524	0.220957	0	0	0	0	0	0
1.008659	0.004078925	0.2209749	-0.001588375	0.0010856	-0.04793872	0.03276446	0	0
1.025225	0.004078925	0.2209749	0	0	0.04793803	-0.03276399	0	0
1.041792	0.004078925	0.2209749	0	0	0	0	0	0
1.05836	0.004052609	0.2209929	-0.001588381	0.001085603	-0.04793726	0.03276346	0	0
1.075053	0.004078925	0.2209749	0.001576392	-0.001077409	0.09514982	-0.06503162	0	0
1.091491	0.004078925	0.2209749	0	0	-0.04758039	0.03251955	0	0
1.108058	0.004078925	0.2209749	0	0	0	0	0	0
1.124624	0.004078925	0.2209749	0	0	0	0	0	0
1.141191	0.00410524	0.220957	0.001588449	-0.00108565	0.0479414	-0.03276629	0	0
1.157758	0.00410524	0.220957	0	0	-0.04794088	0.03276593	0	0
1.174324	0.00410524	0.220957	0	0	0	0	0	0
1.190891	0.00410524	0.220957	0	0	0	0	0	0
1.207458	0.00410524	0.220957	0	0	0	0	0	0
1.224025	0.00410524	0.220957	0	0	0	0	0	0
1.240591	0.004131556	0.220939	0.001588449	-0.001084751	0.04794088	-0.03273879	0	0
1.257176	0.004131556	0.220939	0	0	-0.04791468	0.03272089	0	0
1.273725	0.004131556	0.220939	0	0	0	0	0	0
1.290291	0.00410524	0.220957	-0.001588529	0.001084806	-0.04797073	0.03275918	0	0
1.306858	0.00410524	0.220957	0	0	0.0479445	-0.03274126	0	0
1.323425	0.00410524	0.220957	0	0	0	0	0	0
1.339991	0.00410524	0.220957	0	0	0	0	0	0
1.356558	0.00410524	0.220957	0	0	0	0	0	0
1.373125	0.00410524	0.220957	0	0	0	0	0	0
1.389691	0.00410524	0.220957	0	0	0	0	0	0
1.406258	0.00410524	0.220957	0	0	0	0	0	0
1.422825	0.00410524	0.220957	0	0	0	0	0	0
1.439391	0.00410524	0.220957	0	0	0	0	0	0
1.455958	0.004078925	0.220939	-0.001588449	-0.001084751	-0.0479414	-0.03273914	0	0
1.472525	0.00410524	0.220921	0.001588415	-0.001085627	0.09587969	-2.643897E-05	0	0
1.489091	0.00410524	0.220921	0	0	-0.04794054	0.0327657	0	0
1.505658	0.00410524	0.220921	0	0	0	0	0	0
1.584662	0.004131556	0.220903	0.0003330909	-0.0002274675	0.003485275	-0.002380091	0	0
1.601419	0.004131556	0.220903	0	0	-0.00347835	0.002375362	0	0
1.617933	0.004131556	0.220903	0	0	0	0	0	0
1.634361	0.004131556	0.220903	0	0	0	0	0	0
1.650955	0.004131556	0.220903	0	0	0	0	0	0
1.667495	0.004131556	0.220903	0	0	0	0	0	0
1.684062	0.00410524	0.220921	-0.001588415	0.001084727	-0.04797886	0.03276473	0	0
1.700628	0.00410524	0.220921	0	0	0.04793985	-0.03273808	0	0
1.717195	0.00410524	0.220921	0	0	0	0	0	0
1.733761	0.00410524	0.220921	0	0	0	0	0	0
1.750328	0.00410524	0.220921	0	0	0	0	0	0
1.800028	0.00410524	0.220921	0	0	0	0	0	0
1.816595	0.00410524	0.220921	0	0	0	0	0	0
1.833162	0.00410524	0.220921	0	0	0	0	0	0
1.849728	0.00410524	0.220921	0	0	0	0	0	0
1.866295	0.004131556	0.220903	0.001588484	-0.001084774	0.04794243	-0.03273985	0	0
1.882862	0.004131556	0.220903	0	0	-0.04794192	0.03273949	0	0
1.899428	0.00410524	0.220885	-0.001588484	-0.001085674	-0.04794192	-0.03276664	0	0
1.916147	0.00410524	0.220885	0	0	0.047723	0.03261702	0	0
1.952572	0.004131556	0.2208671	0.0007224582	-0.0004933662	0.01359436	-0.009283576	0	0
1.969179	0.004131556	0.2208671	0	0	-0.01362321	0.009303275	0	0
1.985703	0.004131556	0.2208671	0	0	0	0	0	0
2.00227	0.00410524	0.2208491	-0.001588461	-0.001085658	-0.04800323	-0.03280855	0	0
2.018837	0.00410524	0.2208491	0	0	0.0479407	0.03276582	0	0
2.035403	0.00410524	0.2208491	0	0	0	0	0	0
2.052238	0.00410524	0.2208491	0	0	0	0	0	0
2.068751	0.00410524	0.2208491	0	0	0	0	0	0
2.085262	0.00410524	0.2208491	0	0	0	0	0	0
2.101773	0.00410524	0.2208491	0	0	0	0	0	0
2.118285	0.004131556	0.2208671	0.001593725	0.001089256	0.04826053	0.03298441	0	0
2.134803	0.004131556	0.2208671	0	0	-0.04825078	-0.03297774	0	0
2.15137	0.00410524	0.220885	-0.001588449	0.001084751	-0.04801136	0.03278692	0	0
2.167936	0.00410524	0.220885	0	0	0.04794157	-0.03273926	0	0
2.184503	0.00410524	0.220885	0	0	0	0	0	0
2.20107	0.00410524	0.220885	0	0	0	0	0	0
2.217636	0.00410524	0.220885	0	0	0	0	0	0
2.234367	0.00410524	0.220885	0	0	0	0	0	0
2.25088	0.00410524	0.220885	0	0	0	0	0	0
2.267393	0.00410524	0.220885	0	0	0	0	0	0
2.283903	0.00410524	0.220885	0	0	0	0	0	0
2.30047	0.00410524	0.220885	0	0	0	0	0	0
2.317038	0.00410524	0.220885	0	0	0	0	0	0
2.333603	0.00410524	0.220885	0	0	0	0	0	0
2.350449	0.00410524	0.220885	0	0	0	0	0	0
2.366961	0.00410524	0.220885	0	0	0	0	0	0
2.383303	0.00410524	0.220885	0	0	0	0	0	0
2.399985	0.00410524	0.220885	0	0	0	0	0	0
2.416436	0.00410524	0.220885	0	0	0	0	0	0
2.433005	0.00410524	0.220885	0	0	0	0	0	0
2.44957	0.00410524	0.220885	0	0	0	0	0	0
2.466136	0.00410524	0.220885	0	0	0	0	0	0
2.482703	0.00410524	0.220885	0	0	0	0	0	0
2.499556	0.00410524	0.220885	0	0	0	0	0	0
2.515836	0.00410524	0.220885	0	0	0	0	0	0
2.532403	0.00410524	0.220885	0	0	0	0	0	0
2.548969	0.00410524	0.220885	0	0	0	0	0	0
2.565536	0.00410524	0.220885	0	0	0	0	0	0
2.582112	0.00410524	0.220885	0	0	0	0	0	0
2.59867	0.00410524	0.220885	0	0	0	0	0	0
2.615236	0.00410524	0.220885	0	0	0	0	0	0
2.631803	0.00410524	0.220885	0	0	0	0	0	0
2.64837	0.00410524	0.220885	0	0	0	0	0	0
2.698195	0.00410524	0.220885	0	0	0	0	0	0
2.714707	0.00410524	0.220885	0	0	0	0	0	0
2.731203	0.004052609	0.220885	-0.00319049	0	-0.09665779	0	0	0
2.74777	0.004052609	0.220885	0	0	0.0964954	0	0	0
2.766575	0.003973663	0.2208311	-0.004198126	-0.002867707	-0.1186834	-0.08107166	0	0
2.783255	0.00376314	0.2206873	-0.01262183	-0.008623924	-0.2373924	-0.1622186	0	0
2.799711	0.003605247	0.2205794	-0.009594906	-0.006555976	0.09135081	0.06240945	0	0
2.816277	0.003499986	0.2205075	-0.006353981	-0.004340928	0.09814394	0.06707762	0	0
2.832844	0.003315777	0.2203816	-0.01111916	-0.007596854	-0.1438196	-0.0982683	0	0
2.84941	0.001210526	0.219015	-0.1270769	-0.08249054	-3.499712	-2.260361	0	0
2.865977	-0.001131578	0.2174863	-0.1413738	-0.09227398	-0.431493	-0.2952733	0	0
2.882544	-0.01536721	0.2080744	-0.8592892	-0.5681244	-21.66736	-14.36161	0	0
2.89911	-0.02938627	0.1992643	-0.8462411	-0.5318041	0.3938116	1.096195	0	0
2.915849	-0.04911835	0.1866168	-1.1788	-0.7555664	-9.985123	-6.718499	0	0
2.932243	-0.06351969	0.1772022	-0.8784572	-0.574279	9.064744	5.471501	0	0
2.948811	-0.08134641	0.1658904	-1.075976	-0.6827503	-5.992351	-3.290813	0	0
2.965376	-0.09466358	0.1591479	-0.8039304	-0.4070286	8.210711	8.321657	0	0
2.981943	-0.111925	0.1523434	-1.041932	-0.4107347	-7.183471	-0.1118609	0	0
2.99851	-0.1252877	0.1495648	-0.8065955	-0.1677172	7.102674	7.334493	0	0
3.015077	-0.1420113	0.1472211	-1.009438	-0.1414678	-6.121881	0.7922219	0	0
3.031644	-0.1496362	0.1459853	-0.4602564	-0.07459776	16.57457	2.01817	0	0
3.048443	-0.1605534	0.1446583	-0.6498648	-0.07899316	-5.68269	-0.1317331	0	0
3.064776	-0.1729392	0.1424398	-0.758314	-0.1358246	-3.27319	-1.715276	0	0
3.081343	-0.1813028	0.1405843	-0.50484	-0.1120001	7.704353	0.7241482	0	0
3.09791	-0.1879651	0.1369807	-0.4021387	-0.2175133	3.099577	-3.184441	0	0
3.114476	-0.1920255	0.1356333	-0.2450978	-0.08133437	4.73964	4.110006	0	0
3.131502	-0.2014914	0.1339212	-0.5559683	-0.1005573	-9.254242	-0.5722441	0	0
3.14761	-0.2062612	0.1323726	-0.2961123	-0.09613947	7.842585	0.1333332	0	0
3.164177	-0.2084536	0.1307141	-0.1323434	-0.1001103	5.012159	-0.1215269	0	0
3.180743	-0.2087055	0.1305319	-0.01520404	-0.01100253	3.535477	2.689432	0	0
3.19731	-0.2087055	0.1305319	0	0	0.458872	0.3320667	0	0
3.213877	-0.2087307	0.1305501	-0.001520047	0.00110001	-0.0458751	0.03319837	0	0
3.230443	-0.2087307	0.1305501	0	0	0.04587675	-0.03319957	0	0
3.247011	-0.2087558	0.1305683	-0.001520025	0.001099994	-0.04587576	0.03319885	0	0
3.263595	-0.2088062	0.1306048	-0.003037078	0.002198736	-0.0457617	0.0331434	0	0
3.280143	-0.2089825	0.1307324	-0.01065303	0.007710414	-0.2298631	0.1663523	0	0
3.296711	-0.2119019	0.1328463	-0.1762166	0.1275985	-4.999487	3.620234	0	0
3.313278	-0.2156967	0.1355969	-0.2290539	0.1660224	-1.594635	1.159636	0	0
3.329844	-0.224168	0.1417486	-0.5113679	0.3713453	-8.520559	6.196882	0	0
3.346411	-0.2310613	0.1467668	-0.416091	0.3029082	2.875607	-2.065542	0	0
3.362977	-0.2412104	0.1542131	-0.6126366	0.4494884	-5.932012	4.423991	0	0
3.379676	-0.2490612	0.1599639	-0.4701224	0.3443728	4.284132	-3.159888	0	0
3.396189	-0.2584063	0.1668323	-0.5659236	0.4159339	-2.8845	2.154649	0	0
3.412701	-0.2624851	0.1698744	-0.2470254	0.184243	9.656398	-7.015719	0	0
3.429244	-0.2696135	0.1751765	-0.4308958	0.3204976	-5.562588	4.12208	0	0
3.44581	-0.2746917	0.1790102	-0.3065408	0.2314172	3.75588	-2.690484	0	0
3.545295	-0.2943032	0.1963254	-0.1971319	0.17405	0.9427722	-0.4943312	0	0
3.578344	-0.2912878	0.1993365	0.0912402	0.09110719	2.175842	-0.6258248	0	0
3.594911	-0.2877347	0.202058	0.2144731	0.164275	2.483727	1.474679	0	0
3.611477	-0.2860643	0.2037697	0.1008308	0.1033259	-3.429879	-1.839525	0	0
3.628044	-0.2861127	0.2037697	-0.002923124	0	-3.131366	-3.118451	0	0
3.64461	-0.2860643	0.2037697	0.002923377	0	0.1764528	0	0	0
3.661177	-0.28604	0.2037517	0.001462567	-0.001087481	-0.04409019	-0.03282236	0	0
3.677889	-0.2860643	0.2037337	-0.001449777	-0.00107797	-0.08751373	0.0002857709	0	0
3.694313	-0.28604	0.2037156	0.001475285	-0.001096937	0.08827472	-0.0005723819	0	0
3.710911	-0.2860158	0.2036976	0.001459773	-0.001085403	-0.0004697621	0.0003492835	0	0
3.727444	-0.2860158	0.2036976	0	0	-0.04406046	0.03276083	0	0
3.74401	-0.2860158	0.2036976	0	0	0	0	0	0
3.760577	-0.2859916	0.2036796	0.001460726	-0.001087449	0.04408607	-0.03282023	0	0
3.780003	-0.2859674	0.2036616	0.001247269	-0.0009273976	-0.005930568	0.004446791	0	0
3.796571	-0.2859432	0.2036436	0.001462377	-0.00108734	0.005976177	-0.004443542	0	0
3.813138	-0.2859432	0.2036436	0	0	-0.04413464	0.03281598	0	0
3.829704	-0.2859432	0.2036436	0	0	0	0	0	0
3.846506	-0.2859189	0.2036256	0.001442083	-0.00107225	0.04321708	-0.03213373	0	0
3.863019	-0.2859189	0.2036256	0	0	-0.04328636	0.03218525	0	0
3.879404	-0.2859189	0.2036256	0	0	0	0	0	0
3.895971	-0.2858947	0.2036075	0.001460768	-0.00108838	0.04433104	-0.03302991	0	0
3.912537	-0.2858463	0.2035715	0.00292505	-0.002174899	0.04419402	-0.03279261	0	0
3.929105	-0.2857736	0.2035175	0.004385649	-0.003262254	0.04408161	-0.03281692	0	0
3.946078	-0.2857009	0.2034634	0.004282554	-0.00318426	-0.003073786	0.002325374	0	0
3.962589	-0.2856525	0.2034274	0.002934848	-0.002182184	-0.04024868	0.02992659	0	0
3.978804	-0.285604	0.2033913	0.002988443	-0.002222953	0.001637645	-0.001245735	0	0
3.995371	-0.2855071	0.2033193	0.0058483	-0.004349797	0.08723843	-0.06487825	0	0
4.011938	-0.2854829	0.2033013	0.001462546	-0.001087465	-0.1323671	0.09846092	0	0
4.028504	-0.2854829	0.2033013	0	0	-0.04414131	0.03282094	0	0
4.045071	-0.2854102	0.2032472	0.004387701	-0.003262442	0.1324268	-0.09846494	0	0
4.061637	-0.2853617	0.2032112	0.00292505	-0.002175798	-0.04414481	0.03279639	0	0
4.078204	-0.2853617	0.2032112	0	0	-0.08828072	0.0656676	0	0
4.094771	-0.2852648	0.2032472	0.005851898	0.002175798	0.1766157	0.0656676	0	0
4.111337	-0.2848771	0.2035355	0.02340467	0.01740059	0.5297666	0.4595049	0	0
4.128208	-0.2799255	0.207138	0.2935027	0.2135396	8.077873	5.865967	0	0
4.144471	-0.2724473	0.2127007	0.4598275	0.3420467	5.019836	3.878463	0	0
4.161037	-0.2686842	0.2154717	0.2271483	0.1672603	-7.087446	-5.324022	0	0
4.277004	-0.1932677	0.2570823	0.6503315	0.358817	3.193038	1.44535	0	0
4.293571	-0.1719431	0.2636382	1.287189	0.3957236	4.805273	0.2784709	0	0
4.310137	-0.1550867	0.2682576	1.017489	0.2788368	-8.139798	-3.527754	0	0
4.326705	-0.1380376	0.2724461	1.029084	0.2528152	0.3499468	-0.785342	0	0
4.343359	-0.1161589	0.2778321	1.313716	0.323407	8.567762	2.124898	0	0
4.359838	-0.1052153	0.2803187	0.6640962	0.1508977	-19.60641	-5.206564	0	0
4.376403	-0.07700533	0.284665	1.702903	0.2623647	31.43631	3.373206	0	0
4.392971	-0.06606162	0.2856665	0.6605442	0.06044755	-31.45937	-6.094048	0	0
4.409537	-0.04528481	0.2869898	1.254199	0.0798804	17.91706	0.5865016	0	0
4.426167	-0.030622	0.2875977	0.8817241	0.03655914	-11.22066	-1.305034	0	0
4.44267	-0.01791913	0.2874011	0.7697153	-0.01191852	-3.380579	-1.463122	0	0
4.459236	-0.004131556	0.2868646	0.8322678	-0.03238156	1.891541	-0.6187868	0	0
4.475803	0.003289462	0.2868646	0.4479335	0	-11.59957	0.9773055	0	0
4.492371	0.006999886	0.2849154	0.2239552	-0.1176518	-6.759583	-3.550688	0	0
4.508936	0.007657745	0.2844683	0.03971304	-0.02698978	-5.560679	2.736304	0	0
4.525504	0.007631431	0.2844862	-0.001588319	0.001079323	-1.246549	0.847176	0	0
4.54207	0.007605116	0.2844683	-0.001588393	-0.001079354	-2.227541E-06	-0.06514995	0	0
4.558636	0.007578802	0.2844504	-0.001588457	-0.001079416	-1.911411E-06	-1.876275E-06	0	0
4.575203	0.007578802	0.2844504	0	0	0.04794179	0.03257825	0	0
4.59177	0.007552488	0.2844325	-0.001588393	-0.001079354	-0.04793849	-0.03257544	0	0
4.608336	0.007552488	0.2844325	0	0	0.04793987	0.03257638	0	0
4.624905	0.007499859	0.2843968	-0.003176484	-0.002158522	-0.09586648	-0.06514432	0	0
4.641577	0.007420917	0.2843431	-0.004734869	-0.003217503	-0.04688169	-0.03185788	0	0
4.658042	0.00726303	0.2842358	-0.009589369	-0.006518072	-0.1464965	-0.09960277	0	0
4.674603	0.007052515	0.2840927	-0.01271151	-0.008639616	-0.09453652	-0.0642391	0	0
4.69117	0.00673674	0.2838781	-0.0190602	-0.01295368	-0.1916397	-0.1302229	0	0
4.707737	0.00673674	0.2838781	0	0	0.5752379	0.3909427	0	0
4.727909	0.00673674	0.2838781	0	0	0	0	0	0
4.744477	0.006710425	0.2838602	-0.001588256	-0.001079261	-0.04322982	-0.02937578	0	0
4.761044	0.006710425	0.2838602	0	0	0.04793366	0.03257216	0	0
4.77761	0.006657796	0.2838245	-0.003176878	-0.00215877	-0.09588388	-0.06515557	0	0
4.794177	0.006657796	0.2838245	0	0	0.09588113	0.0651537	0	0
4.810744	0.006631482	0.2838066	-0.001588393	-0.001079354	-0.04793849	-0.03257544	0	0
4.82731	0.006578852	0.2837708	-0.003176997	-0.002160632	-0.04794693	-0.0326349	0	0
4.843884	0.006552538	0.2837529	-0.001587708	-0.001078888	0.04795726	0.03264191	0	0
4.860443	0.006473594	0.2836993	-0.004767266	-0.003239461	-0.09596203	-0.06520809	0	0
4.87701	0.006420964	0.2836635	-0.003176723	-0.002158646	0.04801374	0.03262657	0	0
4.893746	0.00639465	0.2836456	-0.001572372	-0.001070248	0.04817468	0.03268189	0	0
4.910144	0.00634202	0.2836098	-0.003209517	-0.00218093	-0.04941054	-0.03352141	0	0
4.92671	0.006236761	0.2835383	-0.006353995	-0.004317665	-0.095392	-0.06482074	0	0
4.943283	0.006131502	0.2834668	-0.006351253	-0.0043176	8.275144E-05	1.967261E-06	0	0
4.959843	0.005999928	0.2833773	-0.007945051	-0.005398791	-0.04810233	-0.03263135	0	0
4.97641	0.005947298	0.2833416	-0.003176815	-0.002160507	0.1439367	0.09775269	0	0
4.992977	0.005920983	0.2833237	-0.001588376	-0.001079323	0.04793987	0.03263067	0	0
5.009543	0.005894668	0.2833058	-0.001588467	-0.001079385	-2.758115E-06	-1.876221E-06	0	0
5.02611	0.005842039	0.28327	-0.003176906	-0.00215877	-0.04794195	-0.03257778	0	0
5.04285	0.005763094	0.2832164	-0.004715856	-0.003204489	-0.04620556	-0.03139675	0	0
5.059243	0.00552626	0.2830554	-0.01444713	-0.009820675	-0.2936988	-0.1996827	0	0
5.075811	0.004921013	0.282644	-0.0365317	-0.02482911	-0.6700236	-0.4553407	0	0
5.092376	0.0031842	0.2814635	-0.1048463	-0.07126331	-2.061829	-1.401448	0	0
5.108943	0.002763151	0.2811773	-0.02541456	-0.01727457	2.397394	1.629477	0	0
5.12551	0.002763151	0.2811773	0	0	0.7670239	0.5213549	0	0
5.142076	0.002763151	0.2811773	0	0	0	0	0	0
5.191776	0.002763151	0.2811773	0	0	0	0	0	0
5.224978	0.002763151	0.2811773	0	0	0	0	0	0
5.241491	0.002763151	0.2811773	0	0	0	0	0	0
5.258043	0.002763151	0.2811773	0	0	0	0	0	0
5.274611	0.002763151	0.2811773	0	0	0	0	0	0
5.291177	0.002763151	0.2811773	0	0	0	0	0	0
5.307745	0.002763151	0.2811773	0	0	0	0	0	0
5.324551	0.002763151	0.2811773	0	0	0	0	0	0
5.340878	0.002763151	0.2811773	0	0	0	0	0	0
5.357445	0.002763151	0.2811773	0	0	0	0	0	0
5.374586	0.002763151	0.2811773	0	0	0	0	0	0
5.390598	0.002763151	0.2811773	0	0	0	0	0	0
5.407144	0.002763151	0.2811773	0	0	0	0	0	0
5.423711	0.002763151	0.2811773	0	0	0	0	0	0
5.440277	0.002763151	0.2811773	0	0	0	0	0	0
5.456844	0.002763151	0.2811773	0	0	0	0	0	0
5.473412	0.002763151	0.2811773	0	0	0	0	0	0
5.506544	0.002763151	0.2811773	0	0	0	0	0	0
5.52311	0.002789466	0.2811595	0.001588541	-0.001079416	0.03196396	-0.02171957	0	0
5.539701	0.002789466	0.2811595	0	0	-0.04790986	0.03255483	0	0
5.560515	0.002789466	0.2811595	0	0	0	0	0	0
5.577083	0.002789466	0.2811595	0	0	0	0	0	0
5.59365	0.002789466	0.2811595	0	0	0	0	0	0
5.610217	0.002789466	0.2811595	0	0	0	0	0	0
5.627265	0.002789466	0.2811595	0	0	0	0	0	0
5.643351	0.002789466	0.2811595	0	0	0	0	0	0
5.659916	0.002789466	0.2811595	0	0	0	0	0	0
5.676484	0.002789466	0.2811595	0	0	0	0	0	0
5.69305	0.002789466	0.2811595	0	0	0	0	0	0
5.709618	0.002789466	0.2811595	0	0	0	0	0	0
5.726183	0.002789466	0.2811595	0	0	0	0	0	0
5.742845	0.002789466	0.2811595	0	0	0	0	0	0
5.759316	0.002789466	0.2811595	0	0	0	0	0	0
5.775883	0.002789466	0.2811595	0	0	0	0	0	0
5.792449	0.002789466	0.2811595	0	0	0	0	0	0
5.809016	0.002789466	0.2811595	0	0	0	0	0	0
5.825584	0.002789466	0.2811595	0	0	0	0	0	0
5.842151	0.002789466	0.2811595	0	0	0	0	0	0
5.858929	0.002789466	0.2811237	0	-0.002133366	0	-0.06398001	0	0
5.875283	0.002789466	0.2811237	0	0	0	0.06438976	0	0
5.891952	0.002789466	0.2811237	0	0	0	0	0	0
5.908464	0.002789466	0.2811237	0	0	0	0	0	0
5.924984	0.002789466	0.2811237	0	0	0	0	0	0
5.941549	0.002815782	0.2811058	0.001588601	-0.001079447	0.04801593	-0.03262662	0	0
5.958116	0.002815782	0.2811058	0	0	-0.04794751	0.03258013	0	0
5.974682	0.002815782	0.2811058	0	0	0	0	0	0
5.99125	0.002789466	0.2810879	-0.001588372	-0.001079292	-0.04793786	-0.03257357	0	0
6.008033	0.002789466	0.2810879	0	0	0.047626	0.03236166	0	0
6.024384	0.002789466	0.2810879	0	0	0	0	0	0
6.057571	0.002789466	0.2810879	0	0	0	0	0	0
6.107216	0.002789466	0.2810879	0	0	0	0	0	0
6.124116	0.002789466	0.2810879	0	0	0	0	0	0
6.140628	0.002789466	0.2810879	0	0	0	0	0	0
6.156918	0.002789466	0.2810879	0	0	0	0	0	0
6.17365	0.002789466	0.2810879	0	0	0	0	0	0
6.190051	0.002789466	0.2810879	0	0	0	0	0	0
6.206616	0.002789466	0.2810879	0	0	0	0	0	0
6.223187	0.002789466	0.2810879	0	0	0	0	0	0
6.23975	0.002789466	0.2810879	0	0	0	0	0	0
6.256315	0.002789466	0.2810879	0	0	0	0	0	0
6.27322	0.002815782	0.28107	0.00155674	-0.001057798	0.04651195	-0.03160467	0	0
6.296493	0.002815782	0.28107	0	0	-0.03874671	0.02632822	0	0
6.313248	0.002789466	0.2810521	-0.001570607	-0.001067221	-0.03923761	-0.02666179	0	0
6.32976	0.002789466	0.2810521	0	0	0.04721213	0.03208044	0	0
6.346194	0.002815782	0.2810342	0.001601276	-0.001089874	0.04860289	-0.0330805	0	0
6.383297	0.002789466	0.2810163	-0.0007092478	-0.0004819308	-0.04315684	0.01135539	0	0
6.399809	0.002789466	0.2810163	0	0	0.01322851	0.008988715	0	0
6.416323	0.002789466	0.2810163	0	0	0	0	0	0
6.432881	0.002789466	0.2810163	0	0	0	0	0	0
6.449448	0.002789466	0.2810163	0	0	0	0	0	0
6.466014	0.002789466	0.2810163	0	0	0	0	0	0
6.482581	0.002789466	0.2810163	0	0	0	0	0	0
6.49938	0.002789466	0.2810163	0	0	0	0	0	0
6.515714	0.002789466	0.2810163	0	0	0	0	0	0
6.532403	0.002789466	0.2810163	0	0	0	0	0	0
6.548914	0.002789466	0.2810163	0	0	0	0	0	0
6.565425	0.002789466	0.2810163	0	0	0	0	0	0
6.582438	0.002789466	0.2810163	0	0	0	0	0	0
6.598547	0.002789466	0.2810163	0	0	0	0	0	0
6.615114	0.002789466	0.2810163	0	0	0	0	0	0
6.631973	0.002789466	0.2810163	0	0	0	0	0	0
6.648248	0.002789466	0.2810163	0	0	0	0	0	0
6.664997	0.002789466	0.2810163	0	0	0	0	0	0
6.681381	0.002789466	0.2810163	0	0	0	0	0	0
6.697948	0.002789466	0.2810163	0	0	0	0	0	0
6.714535	0.002789466	0.2810163	0	0	0	0	0	0
6.731082	0.002789466	0.2810163	0	0	0	0	0	0
6.747649	0.002789466	0.2810163	0	0	0	0	0	0
6.764216	0.002789466	0.2810163	0	0	0	0	0	0
6.847049	0.002789466	0.2810163	0	0	0	0	0	0
6.863637	0.002789466	0.2810163	0	0	0	0	0	0
6.880181	0.002789466	0.2810163	0	0	0	0	0	0
6.896748	0.002789466	0.2810163	0	0	0	0	0	0
6.913315	0.002789466	0.2810163	0	0	0	0	0	0
6.929882	0.002789466	0.2810163	0	0	0	0	0	0
6.946449	0.002763151	0.2809985	-0.001588358	-0.001079292	-0.04793674	-0.0325731	0	0
6.963015	0.002789466	0.2809806	0.001588587	-0.001079447	0.09588452	-4.687106E-06	0	0
7.014287	0.002789466	0.2809806	0	0	-0.02341745	0.0159122	0	0
7.030854	0.002789466	0.2809806	0	0	0	0	0	0
7.047421	0.002789466	0.2809806	0	0	0	0	0	0
7.064279	0.002789466	0.2809806	0	0	0	0	0	0
7.080554	0.002789466	0.2809806	0	0	0	0	0	0
7.097122	0.002789466	0.2809806	0	0	0	0	0	0
7.113814	0.002789466	0.2809806	0	0	0	0	0	0
7.130255	0.002789466	0.2809806	0	0	0	0	0	0
7.146821	0.002789466	0.2809806	0	0	0	0	0	0
7.163388	0.002789466	0.2809806	0	0	0	0	0	0
7.179955	0.002789466	0.2809806	0	0	0	0	0	0
7.196522	0.002789466	0.2809806	0	0	0	0	0	0
7.213088	0.002789466	0.2809806	0	0	0	0	0	0
7.229654	0.002789466	0.2809806	0	0	0	0	0	0
7.246408	0.002763151	0.2809627	-0.001570727	-0.001067312	-0.04714007	-0.03203176	0	0
7.262788	0.002789466	0.2809448	0.001606576	-0.001093491	0.09589396	-0.0007901034	0	0
7.279355	0.002789466	0.2809448	0	0	-0.04876235	0.03318932	0	0
7.295922	0.002789466	0.2809448	0	0	0	0	0	0
7.312489	0.002789466	0.2809448	0	0	0	0	0	0
7.349152	0.002789466	0.2809448	0	0	0	0	0	0
7.365718	0.002815782	0.2809269	0.001588464	-0.001079354	0.02984188	-0.02027743	0	0
7.382504	0.002815782	0.2809269	0	0	-0.0476267	0.03236214	0	0
7.399015	0.002815782	0.2809269	0	0	0	0	0	0
7.415418	0.002815782	0.2809269	0	0	0	0	0	0
7.448552	0.002815782	0.2809269	0	0	0	0	0	0
7.465117	0.002815782	0.2809269	0	0	0	0	0	0
7.481684	0.002815782	0.2809269	0	0	0	0	0	0
7.498586	0.002815782	0.2809269	0	0	0	0	0	0
7.514818	0.002815782	0.2809269	0	0	0	0	0	0
7.53161	0.002815782	0.2809269	0	0	0	0	0	0
7.548121	0.002815782	0.2809269	0	0	0	0	0	0
7.597657	0.002815782	0.2809269	0	0	0	0	0	0
7.614218	0.002815782	0.2809269	0	0	0	0	0	0
7.630784	0.002815782	0.2809269	0	0	0	0	0	0
7.647691	0.002789466	0.280909	-0.001556477	-0.001057619	-0.04649944	-0.03159617	0	0
7.663917	0.002789466	0.280909	0	0	0.04697591	0.03191993	0	0
7.680484	0.002789466	0.280909	0	0	0	0	0	0
7.69705	0.002789466	0.280909	0	0	0	0	0	0
7.713619	0.002789466	0.280909	0	0	0	0	0	0
7.730184	0.002789466	0.280909	0	0	0	0	0	0
7.746762	0.002789466	0.280909	0	0	0	0	0	0
7.763318	0.002789466	0.280909	0	0	0	0	0	0
7.779884	0.002789466	0.280909	0	0	0	0	0	0
7.796796	0.002789466	0.280909	0	0	0	0	0	0
7.813017	0.002815782	0.2808912	0.001622317	-0.001102358	0.04896374	-0.03327065	0	0
7.829584	0.002815782	0.2808912	0	0	-0.04947929	0.03362096	0	0
7.846331	0.002815782	0.2808912	0	0	0	0	0	0
7.862718	0.002815782	0.2808912	0	0	0	0	0	0
7.879283	0.002789466	0.2808732	-0.001588601	-0.001081246	-0.04820909	-0.03281246	0	0
7.962117	0.002815782	0.2808554	0.0003176945	-0.0002158721	0.01917829	0.008706101	0	0
7.99525	0.002815782	0.2808554	0	0	-0.002739541	0.001861506	0	0
8.011947	0.002815782	0.2808554	0	0	0	0	0	0
8.028461	0.002815782	0.2808554	0	0	0	0	0	0
8.04495	0.002815782	0.2808554	0	0	0	0	0	0
8.061516	0.002815782	0.2808554	0	0	0	0	0	0
8.078082	0.002815782	0.2808554	0	0	0	0	0	0
8.094648	0.002815782	0.2808554	0	0	0	0	0	0
8.111215	0.002789466	0.2808375	-0.001588509	-0.001079385	-0.04794407	-0.03257778	0	0
8.144539	0.002815782	0.2808554	0.0007896859	0.0005365881	0.04766828	0.03239039	0	0
8.160914	0.002815782	0.2808554	0	0	-0.01588912	-0.01079659	0	0
8.177481	0.002815782	0.2808554	0	0	0	0	0	0
8.194074	0.002815782	0.2808554	0	0	0	0	0	0
8.210614	0.002815782	0.2808554	0	0	0	0	0	0
8.22718	0.002815782	0.2808554	0	0	0	0	0	0
8.244109	0.002815782	0.2808554	0	0	0	0	0	0
8.260621	0.002815782	0.2808554	0	0	0	0	0	0
8.295893	0.002815782	0.2808554	0	0	0	0	0	0
8.31246	0.002815782	0.2808554	0	0	0	0	0	0
8.329169	0.002815782	0.2808554	0	0	0	0	0	0
8.345593	0.002815782	0.2808554	0	0	0	0	0	0
8.36216	0.002815782	0.2808554	0	0	0	0	0	0
8.378726	0.002815782	0.2808554	0	0	0	0	0	0
8.395293	0.002815782	0.2808554	0	0	0	0	0	0
8.41186	0.002815782	0.2808554	0	0	0	0	0	0
8.428741	0.002815782	0.2808554	0	0	0	0	0	0
8.444994	0.002815782	0.2808554	0	0	0	0	0	0
8.461559	0.002815782	0.2808554	0	0	0	0	0	0
8.478126	0.002815782	0.2808554	0	0	0	0	0	0
8.494692	0.002815782	0.2808554	0	0	0	0	0	0
8.511259	0.002815782	0.2808554	0	0	0	0	0	0
8.527825	0.002815782	0.2808554	0	0	0	0	0	0
8.544392	0.002815782	0.2808554	0	0	0	0	0	0
8.560958	0.002815782	0.2808554	0	0	0	0	0	0
8.577524	0.002815782	0.2808554	0	0	0	0	0	0
8.594355	0.002815782	0.2808554	0	0	0	0	0	0
8.610658	0.002815782	0.2808554	0	0	0	0	0	0
8.627224	0.002815782	0.2808554	0	0	0	0	0	0
8.643889	0.002815782	0.2808554	0	0	0	0	0	0
8.660403	0.002815782	0.2808554	0	0	0	0	0	0
8.676924	0.002815782	0.2808554	0	0	0	0	0	0
8.69349	0.002815782	0.2808554	0	0	0	0	0	0
8.710056	0.002815782	0.2808554	0	0	0	0	0	0
8.726624	0.002815782	0.2808554	0	0	0	0	0	0
8.743191	0.002815782	0.2808554	0	0	0	0	0	0
8.759757	0.002815782	0.2808554	0	0	0	0	0	0
8.859157	0.002815782	0.2808554	0	0	0	0	0	0
8.875723	0.002815782	0.2808554	0	0	0	0	0	0
8.892292	0.002789466	0.2808732	-0.001588235	0.001079199	-0.04793165	0.03256935	0	0
8.908856	0.002789466	0.2808732	0	0	0.04793441	-0.03257122	0	0
8.925423	0.002789466	0.2808732	0	0	0	0	0	0
8.941992	0.002789466	0.2808732	0	0	0	0	0	0
8.958556	0.002789466	0.2808732	0	0	0	0	0	0
8.975122	0.002789466	0.2808732	0	0	0	0	0	0
8.991689	0.002789466	0.2808732	0	0	0	0	0	0
9.008645	0.002789466	0.2808732	0	0	0	0	0	0
9.024822	0.002789466	0.2808732	0	0	0	0	0	0
9.041671	0.002789466	0.2808732	0	0	0	0	0	0
9.057956	0.002789466	0.2808732	0	0	0	0	0	0
9.074523	0.002789466	0.2808732	0	0	0	0	0	0
9.091204	0.002789466	0.2808732	0	0	0	0	0	0
9.108216	0.002789466	0.2808732	0	0	0	0	0	0
9.124228	0.002763151	0.2808912	-0.001643463	0.001118597	-0.04976454	0.03387145	0	0
9.140789	0.002631573	0.2810163	-0.007945277	0.007560106	-0.1934689	0.1977576	0	0
9.157356	0.002526311	0.2811237	-0.006353643	0.006477737	0.04804527	-0.03267255	0	0
9.173922	0.002263154	0.2813741	-0.01588598	0.01511766	-0.287703	0.2607684	0	0
9.190489	-0.004026294	0.2860778	-0.3796319	0.2839159	-10.97851	8.112816	0	0
9.207056	-0.01405171	0.2931401	-0.6051351	0.426284	-6.8057	4.296678	0	0
9.223622	-0.03141072	0.3050071	-1.047852	0.7163303	-13.36162	8.753867	0	0
9.240189	-0.04528481	0.3145114	-0.83749	0.573713	6.349111	-4.304448	0	0
9.25898	-0.06362453	0.3269958	-0.9759741	0.6643781	-3.916684	2.564241	0	0
9.275547	-0.0766914	0.3359426	-0.7887176	0.5400285	5.295951	-3.51683	0	0
9.292114	-0.09255063	0.3467462	-0.9572651	0.652109	-5.086774	3.382597	0	0
9.308681	-0.1036275	0.354336	-0.6685988	0.4581169	8.711965	-5.854695	0	0
9.325248	-0.1143412	0.3616944	-0.6467195	0.4441796	0.6603398	-0.4206396	0	0
9.341814	-0.1281621	0.3712156	-0.8342779	0.5747384	-5.660852	3.940501	0	0
9.35838	-0.1351707	0.3760577	-0.4230659	0.2922867	12.41112	-8.5249	0	0
9.374947	-0.1495333	0.3860128	-0.8669783	0.6009225	-13.39807	9.315184	0	0
9.391513	-0.1623992	0.394971	-0.776632	0.5407468	2.726815	-1.816211	0	0
9.408079	-0.1711511	0.4010887	-0.5282979	0.3692883	7.49517	-5.174927	0	0
9.424645	-0.1789849	0.4065465	-0.4728768	0.3294553	1.672707	-1.202229	0	0
9.441213	-0.1856022	0.4112008	-0.3994161	0.2809298	2.217114	-1.464546	0	0
9.457961	-0.1928875	0.4163402	-0.4349857	0.306861	-1.067654	0.7783499	0	0
9.474473	-0.1944586	0.4174507	-0.09515151	0.06725591	10.2174	-7.203928	0	0
9.573748	-0.2021986	0.4228974	-0.0779653	0.05486469	0.1484301	-0.1070177	0	0
9.590317	-0.2021986	0.4228974	0	0	0.673021	-0.4736094	0	0
9.606879	-0.2021733	0.4228795	0.001524983	-0.001083233	0.04602804	-0.03269485	0	0
9.623446	-0.2021481	0.4228615	0.001523644	-0.001081122	-4.039962E-05	6.37075E-05	0	0
9.640091	-0.2021228	0.4228078	0.001517468	-0.003230104	-0.000185957	-0.06470554	0	0
9.65658	-0.2020976	0.4227899	0.001531774	-0.001086249	0.0004317627	0.06470352	0	0
9.673146	-0.2020471	0.422754	0.003049263	-0.002164167	0.04590757	-0.03260953	0	0
9.689713	-0.2019713	0.4226644	0.004573895	-0.005409519	0.04601612	-0.09795054	0	0
9.706281	-0.2018703	0.4225569	0.006097824	-0.006488157	0.04599229	-0.03255337	0	0
9.722847	-0.2017945	0.4224673	0.004573895	-0.005409519	-0.04599229	0.03255337	0	0
9.739412	-0.2016682	0.4223777	0.007624496	-0.005408031	0.09207529	4.49054E-05	0	0
9.756171	-0.2015166	0.4222343	0.009043526	-0.008555383	0.0425825	-0.09444633	0	0
9.789111	-0.2012387	0.4220014	0.008436324	-0.007071511	-0.01221763	0.02985728	0	0
9.805677	-0.2010871	0.421858	0.009150488	-0.00865487	0.01442576	-0.03198305	0	0
9.822245	-0.2009355	0.4217505	0.009150861	-0.00648853	1.124327E-05	0.06538215	0	0
9.838811	-0.200885	0.4217147	0.003050163	-0.002164167	-0.1841247	0.1305133	0	0
9.855376	-0.200885	0.4217147	0	0	-0.09206204	0.06532034	0	0
9.871943	-0.200885	0.4217147	0	0	0	0	0	0
9.888512	-0.200885	0.4217147	0	0	0	0	0	0
9.905275	-0.200885	0.4217147	0	0	0	0	0	0
9.921642	-0.2009103	0.4216968	-0.001544109	-0.001094351	-0.04660667	-0.03303138	0	0
9.938297	-0.2009103	0.4216968	0	0	0.04676012	0.03314013	0	0
9.954806	-0.2009103	0.4216968	0	0	0	0	0	0
9.971341	-0.2009103	0.4216968	0	0	0	0	0	0
9.987908	-0.2009103	0.4216968	0	0	0	0	0	0
10.00447	-0.2009103	0.4216968	0	0	0	0	0	0
10.02104	-0.200885	0.4216788	0.001525531	-0.001081184	0.04604327	-0.03263208	0	0
10.03761	-0.2008597	0.4216609	0.001525531	-0.001081184	0	0	0	0
10.05438	-0.2007839	0.4216072	0.004520267	-0.00320604	0.08983573	-0.06374116	0	0
10.07089	-0.2006576	0.4215176	0.007651864	-0.005425523	0.09409472	-0.06668854	0	0
10.0874	-0.2001521	0.4211592	0.0306102	-0.02170264	0.695185	-0.4928758	0	0
10.12413	-0.1979016	0.4194929	0.06127795	-0.04536934	0.5760303	-0.44453	0	0
10.14094	-0.1979016	0.4194571	0	-0.002130843	-1.144562	0.8076177	0	0
10.15726	-0.1979269	0.4194392	-0.001550085	-0.001097292	-0.04678165	0.03119263	0	0
10.17383	-0.1979269	0.4194392	0	0	0.04713027	0.03336313	0	0
10.1904	-0.1979522	0.4194213	-0.001527242	-0.001082921	-0.04609359	-0.03268356	0	0
10.20696	-0.1979775	0.4194033	-0.00152733	-0.001081184	-2.65271E-06	5.241473E-05	0	0
10.22353	-0.1979775	0.4194033	0	0	0.04609624	0.03263114	0	0
10.2401	-0.1980028	0.4193854	-0.001526431	-0.001081184	-0.04606909	-0.03263114	0	0
10.25666	-0.1980028	0.4193854	0	0	0.04607042	0.03263208	0	0
10.27323	-0.1980028	0.4193854	0	0	0	0	0	0
10.2898	-0.1980028	0.4193854	0	0	0	0	0	0
10.30657	-0.1980028	0.4193854	0	0	0	0	0	0
10.32293	-0.1980028	0.4193854	0	0	0	0	0	0
10.33949	-0.1980028	0.4193496	0	-0.002162368	0	-0.06567246	0	0
10.3561	-0.1980028	0.4193496	0	0	0	0.0651966	0	0
10.37263	-0.1979775	0.4192958	0.001529512	-0.003251903	0.0461621	-0.09814546	0	0
10.3892	-0.1979269	0.41926	0.003054484	-0.002162244	0.04607148	0.0329201	0	0
10.40613	-0.1973703	0.4188301	0.03286908	-0.02538964	0.8899447	-0.6933213	0	0
10.42233	-0.1963073	0.4180419	0.06562408	-0.04866058	0.9886048	-0.702359	0	0
10.4389	-0.1894885	0.4130808	0.4115345	-0.2994147	10.55657	-7.652574	0	0
10.45546	-0.1821429	0.4077637	0.4434096	-0.3209624	0.9619657	-0.6502905	0	0
10.47203	-0.1732201	0.4011066	0.5386078	-0.4018461	2.873253	-2.441217	0	0
10.4886	-0.1595019	0.3913765	0.8280342	-0.58731	8.735155	-5.597473	0	0
10.50516	-0.1487098	0.3838677	0.6514503	-0.4532554	-5.329464	4.045892	0	0
10.52173	-0.1384248	0.3767368	0.6208023	-0.4304232	-0.9249849	0.6890966	0	0
10.55486	-0.1237072	0.3665708	0.4442178	-0.3068367	-3.553092	2.48671	0	0
10.62113	-0.08497906	0.3399962	0.584442	-0.4010348	1.410753	-0.9476985	0	0
10.63779	-0.07632513	0.3340854	0.5193627	-0.3547319	-0.7847712	0.5583528	0	0
10.65426	-0.06448939	0.3260136	0.718584	-0.4900664	6.012684	-4.084523	0	0
10.67083	-0.05567923	0.3200127	0.5318131	-0.3622327	-5.653354	3.86939	0	0
10.68739	-0.04381405	0.311939	0.7162251	-0.4873604	5.565887	-3.776579	0	0
10.70433	-0.03774522	0.3078122	0.3582315	-0.2435984	-10.68403	7.274883	0	0
10.72085	-0.02299595	0.2977875	0.8931988	-0.6070838	15.99116	-10.86525	0	0
10.73709	-0.02004994	0.2957857	0.1813281	-0.1232133	-21.7301	14.77031	0	0
10.75366	-0.006841999	0.286811	0.797325	-0.5417764	18.77346	-12.75636	0	0
10.77023	0.00155263	0.2811416	0.5067008	-0.3422048	-8.771561	6.023431	0	0
10.78689	0.006420964	0.2778321	0.2921212	-0.1985837	-6.456883	4.321681	0	0
10.80336	0.009420774	0.2757924	0.1821699	-0.1238634	-3.318527	2.255192	0	0
10.81993	0.01247304	0.2737167	0.1842456	-0.1252986	0.06283516	-0.04344691	0	0
10.83649	0.01641958	0.2710322	0.2382273	-0.1620481	1.629264	-1.109165	0	0
10.85306	0.01749821	0.2702625	0.06511042	-0.04645854	-5.224978	3.488701	0	0
10.86962	0.01747191	0.2702804	-0.001588046	0.001079385	-2.01308	1.43478	0	0
10.88646	0.01747191	0.2702804	0	0	0.04754144	-0.03231363	0	0
10.90276	0.01749821	0.2702983	0.001614346	0.00109909	0.04872245	0.03317156	0	0
10.91932	0.01749821	0.2702983	0	0	-0.049124	-0.03344494	0	0
10.936	0.01749821	0.2702983	0	0	0	0	0	0
10.97115	0.01749821	0.2702983	0	0	0	0	0	0
10.98772	0.01749821	0.2702983	0	0	0	0	0	0
11.00429	0.01749821	0.2702983	0	0	0	0	0	0
11.02085	0.01752452	0.2702804	0.001588046	-0.001081184	0.04793007	-0.03263208	0	0
11.03757	0.01755083	0.2702625	0.001574091	-0.0010699	-0.0004193264	0.0003390691	0	0
11.05408	0.01757714	0.2702446	0.001593273	-0.001084744	0.0005773629	-0.0004467537	0	0
11.07055	0.01765606	0.2702267	0.004790498	-0.001087192	0.09692483	-7.423953E-05	0	0
11.08712	0.01768237	0.2702088	0.001588046	-0.001079385	-0.0969236	0.0002362906	0	0
11.10369	0.01786652	0.2701193	0.01111609	-0.005402323	0.2875736	-0.130474	0	0
11.12063	0.01834005	0.2697971	0.02795312	-0.01901952	0.5025018	-0.406406	0	0
11.13714	0.02318006	0.2665389	0.2931222	-0.1973222	7.926844	-5.330101	0	0
11.15339	0.02949145	0.2622413	0.3884242	-0.2644915	2.909041	-2.050305	0	0
11.16995	0.03403948	0.2591426	0.2745355	-0.1870485	-3.470629	2.359991	0	0
11.18652	0.04381405	0.2524769	0.5900282	-0.4023678	9.522135	-6.498725	0	0
11.20308	0.04851453	0.2492681	0.2837382	-0.1936903	-9.244382	6.298263	0	0
11.21965	0.06066232	0.2409642	0.7332419	-0.5012251	13.56644	-9.281685	0	0
11.23622	0.06763352	0.2361906	0.4208069	-0.2881527	-9.429581	6.430723	0	0
11.25278	0.07179743	0.2333362	0.2513483	-0.1723059	-5.114563	3.496465	0	0
11.26935	0.0810327	0.2269959	0.5574741	-0.3827212	9.239427	-6.350714	0	0
11.28592	0.08510969	0.2241926	0.2461016	-0.169217	-9.397782	6.44394	0	0
11.30248	0.08766944	0.2224311	0.1545069	-0.1063232	-2.764414	1.898193	0	0
11.31905	0.09020193	0.2206873	0.1528702	-0.1052643	-0.04939754	0.03195765	0	0
11.33562	0.09025414	0.2206513	0.003151355	-0.002170464	-4.518783	3.111558	0	0
11.35229	0.09025414	0.2206513	0	0	-0.09481608	0.06530362	0	0
11.36875	0.09025414	0.2206513	0	0	0	0	0	0
11.38532	0.09025414	0.2206513	0	0	0	0	0	0
11.40188	0.09025414	0.2206513	0	0	0	0	0	0
11.45158	0.09022804	0.2206333	-0.0005251408	-0.0003618869	-0.00792496	-0.005461277	0	0
11.46815	0.09022804	0.2206333	0	0	0.007924733	0.00546112	0	0
11.48472	0.09022804	0.2206333	0	0	0	0	0	0
11.50128	0.09022804	0.2206333	0	0	0	0	0	0
11.51785	0.09022804	0.2206333	0	0	0	0	0	0
11.53442	0.09025414	0.2206154	0.001575453	-0.001084782	0.04754999	-0.03274067	0	0
11.55098	0.09025414	0.2206154	0	0	-0.04754999	0.03274067	0	0
11.56755	0.09025414	0.2206154	0	0	0	0	0	0
11.58411	0.09025414	0.2206154	0	0	0	0	0	0
11.60068	0.09022804	0.2206333	-0.001575453	0.001084782	-0.04754999	0.03274067	0	0
11.61747	0.09022804	0.2206333	0	0	0.04722917	-0.03251977	0	0
11.63381	0.09020193	0.2206513	-0.001597514	0.00110057	-0.04821446	0.03321624	0	0
11.65049	0.09012362	0.2207053	-0.004694378	0.003233806	-0.09377936	0.06459871	0	0
11.66701	0.09007142	0.2207772	-0.00316173	0.004355218	0.04617436	0.03378497	0	0
11.68352	0.08983649	0.220939	-0.01422801	0.009799693	-0.3350998	0.164865	0	0
11.70008	0.08962765	0.2210828	-0.01260805	0.008683355	0.04897792	-0.03375138	0	0
11.71665	0.0893927	0.2212446	-0.01418104	0.009766412	-0.04747706	0.03268956	0	0
11.73322	0.08847892	0.2219457	-0.05515928	0.04232269	-1.236726	0.9825505	0	0
11.74978	0.08638971	0.2233838	-0.1261122	0.08680595	-2.141487	1.342585	0	0
11.76635	0.08270565	0.2259178	-0.222383	0.1529606	-2.905626	1.996665	0	0
11.78309	0.08011761	0.2276606	-0.1545944	0.1041082	2.035263	-1.466726	0	0
11.79948	0.07640362	0.2302114	-0.2265639	0.1556055	-2.172106	1.554236	0	0
11.83513	0.07192833	0.2332823	-0.1255533	0.08615196	1.941121	-1.334689	0	0
11.85159	0.07038355	0.2343416	-0.09383191	0.06434372	0.6087645	-0.4185215	0	0
11.86816	0.07038355	0.2343416	0	0	2.840847	-1.948065	0	0
11.88472	0.07035736	0.2343236	-0.00158085	-0.001083883	-0.04771288	-0.03271352	0	0
11.90129	0.07038355	0.2343057	0.00158085	-0.001083883	0.09542576	0	0	0
11.91786	0.07038355	0.2343057	0	0	-0.04771288	0.03271352	0	0
11.93442	0.07038355	0.2343057	0	0	0	0	0	0
11.95099	0.07033117	0.2343057	-0.003161699	0	-0.09542576	0	0	0
11.96755	0.07030499	0.2343236	-0.0015804	0.001083883	0.04772645	0.03271352	0	0
11.98412	0.07025262	0.2343595	-0.003161249	0.002167765	-0.04771288	0.03271352	0	0
12.00074	0.07022643	0.2343775	-0.001575679	0.001079441	0.04777697	-0.03279378	0	0
12.01725	0.07012168	0.2344134	-0.006343398	0.002174776	-0.1438942	0.03305823	0	0
12.03382	0.0691789	0.2350597	-0.05690641	0.03901033	-1.528502	1.113526	0	0
12.05039	0.06386042	0.2385956	-0.3210429	0.213443	-7.971885	5.264541	0	0
12.06695	0.05672854	0.2434399	-0.4304808	0.2924012	-3.302938	2.383031	0	0
12.08352	0.04725427	0.2498418	-0.5719012	0.3864424	-4.268199	2.838251	0	0
12.10009	0.03840216	0.2558102	-0.5343449	0.36027	1.133516	-0.78993	0	0
12.11665	0.03448632	0.2584081	-0.2363741	0.1568203	8.993295	-6.140478	0	0
12.13322	0.02985954	0.2614533	-0.2792891	0.1838175	-1.295252	0.8148243	0	0
12.14984	0.02783491	0.2627965	-0.1217862	0.08079789	4.74539	-3.103867	0	0
12.16635	0.02707233	0.2633159	-0.04618917	0.03145759	2.281522	-1.489093	0	0
12.18292	0.02709863	0.2632979	0.001587554	-0.001081309	1.444524	-0.9838098	0	0
12.19949	0.02709863	0.2632979	0	0	-0.0479166	0.03263678	0	0
12.22397	0.02712492	0.26328	0.001074097	-0.000731585	0.02616561	-0.01782182	0	0
12.24054	0.02712492	0.26328	0	0	-0.02616561	0.01782182	0	0
12.2571	0.02715122	0.2632621	0.001587371	-0.001081184	0.04790833	-0.03263114	0	0
12.27367	0.02715122	0.2632621	0	0	-0.04790833	0.03263114	0	0
12.30696	0.02720381	0.2631905	0.001579947	-0.002151437	0.03169131	-0.04315451	0	0
12.32347	0.02717752	0.2631726	-0.001592597	-0.001084744	-0.06370702	0.02141999	0	0
12.33994	0.02691455	0.2629577	-0.01596632	-0.01304828	-0.4358067	-0.3627306	0	0
12.3565	0.0246003	0.2613816	-0.1397047	-0.09514248	-3.745642	-2.485047	0	0
12.37307	0.01812959	0.2569748	-0.3905951	-0.2660091	-7.572542	-5.15721	0	0
12.39002	0.008184028	0.2502004	-0.58687	-0.3997485	-5.856668	-3.990665	0	0
12.40653	0.001763156	0.2458612	-0.3888404	-0.2627734	5.918457	4.093739	0	0
12.46135	-0.009210266	0.2385239	-0.2001821	-0.1338517	2.644864	1.807396	0	0
12.47791	-0.009183953	0.2385059	0.001588291	-0.00108382	2.826532	1.8599	0	0
12.49448	-0.009183953	0.2385059	0	0	-0.04793473	0.03270976	0	0
12.5111	-0.009183953	0.2385059	0	0	0	0	0	0
12.52761	-0.009183953	0.2385059	0	0	0	0	0	0
12.54418	-0.009183953	0.2385059	0	0	0	0	0	0
12.56075	-0.009183953	0.2385059	0	0	0	0	0	0
12.57731	-0.009183953	0.2385059	0	0	0	0	0	0
12.59388	-0.009183953	0.2385059	0	0	0	0	0	0
12.61045	-0.009183953	0.2385059	0	0	0	0	0	0
12.62701	-0.009183953	0.2385059	0	0	0	0	0	0
12.64369	-0.009183953	0.2385059	0	0	0	0	0	0
12.6602	-0.009183953	0.2385059	0	0	0	0	0	0
12.67671	-0.009157639	0.238488	0.001593704	-0.001086611	0.0482606	-0.0329048	0	0
12.69605	-0.009157639	0.238488	0	0	-0.04446359	0.03031594	0	0
12.71261	-0.009157639	0.238488	0	0	0	0	0	0
12.72918	-0.009157639	0.238488	0	0	0	0	0	0
12.74575	-0.009157639	0.238488	0	0	0	0	0	0
12.76231	-0.009157639	0.238488	0	0	0	0	0	0
12.77888	-0.009157639	0.238488	0	0	0	0	0	0
12.79545	-0.009131325	0.23847	0.001588383	-0.001082983	0.04794025	-0.03268638	0	0
12.86184	-0.009131325	0.23847	0	0	-0.01914568	0.01305381	0	0
12.87828	-0.009105012	0.2384521	0.001601009	-0.001092499	0.01932831	-0.01318928	0	0
12.89487	-0.009131325	0.23847	-0.001586374	0.001082512	-0.09652045	0.06586374	0	0
12.91141	-0.009131325	0.23847	0	0	0.04787961	-0.03267214	0	0
12.92798	-0.009131325	0.23847	0	0	0	0	0	0
12.94455	-0.009131325	0.23847	0	0	0	0	0	0
12.96111	-0.009131325	0.23847	0	0	0	0	0	0
12.97768	-0.009105012	0.2384521	0.001588383	-0.001083883	0.04794163	-0.03271447	0	0
12.99424	-0.009105012	0.2384521	0	0	-0.04794025	0.03271352	0	0
13.01081	-0.009105012	0.2384521	0	0	0	0	0	0
13.02738	-0.009105012	0.2384521	0	0	0	0	0	0
13.04397	-0.009105012	0.2384521	0	0	0	0	0	0
13.06051	-0.009105012	0.2384521	0	0	0	0	0	0
13.07708	-0.009105012	0.2384521	0	0	0	0	0	0
13.09364	-0.009105012	0.2384521	0	0	0	0	0	0
13.14334	-0.009078698	0.2384341	0.0005294406	-0.0003609805	0.007989504	-0.005447363	0	0
13.19304	-0.009078698	0.2384341	0	0	-0.005326336	0.003631576	0	0
13.20961	-0.009052385	0.2384162	0.001588383	-0.001083883	0.02396978	-0.01635653	0	0
13.22618	-0.009052385	0.2384162	0	0	-0.04794025	0.03271352	0	0
13.24274	-0.009052385	0.2384162	0	0	0	0	0	0
13.25931	-0.009052385	0.2384162	0	0	0	0	0	0
13.27588	-0.009052385	0.2384162	0	0	0	0	0	0
13.29244	-0.009052385	0.2384162	0	0	0	0	0	0
13.30901	-0.009052385	0.2384162	0	0	0	0	0	0
13.32557	-0.009052385	0.2384162	0	0	0	0	0	0
13.34218	-0.009052385	0.2384162	0	0	0	0	0	0
13.35871	-0.009052385	0.2384162	0	0	0	0	0	0
13.37528	-0.009052385	0.2384162	0	0	0	0	0	0
13.39184	-0.009052385	0.2384162	0	0	0	0	0	0
13.40841	-0.009052385	0.2384162	0	0	0	0	0	0
13.42498	-0.009052385	0.2384162	0	0	0	0	0	0
13.44175	-0.009026071	0.2383982	0.001568696	-0.001069561	0.04704949	-0.03207904	0	0
13.47467	-0.008999757	0.2383803	0.0007992294	-0.0005449266	-0.01548289	0.01055647	0	0
13.49128	-0.008999757	0.2383803	0	0	-0.01613502	0.0110011	0	0
13.50781	-0.008999757	0.2383803	0	0	0	0	0	0
13.52437	-0.008999757	0.2383803	0	0	0	0	0	0
13.54094	-0.008999757	0.2383803	0	0	0	0	0	0
13.55783	-0.008999757	0.2383803	0	0	0	0	0	0
13.57407	-0.008999757	0.2383803	0	0	0	0	0	0
13.59064	-0.008999757	0.2383803	0	0	0	0	0	0
13.60721	-0.008999757	0.2383803	0	0	0	0	0	0
13.62377	-0.008999757	0.2383803	0	0	0	0	0	0
13.64034	-0.008999757	0.2383803	0	0	0	0	0	0
13.65958	-0.008999757	0.2383803	0	0	0	0	0	0
13.67614	-0.008999757	0.2383803	0	0	0	0	0	0
13.69271	-0.008999757	0.2383803	0	0	0	0	0	0
13.70928	-0.008999757	0.2383803	0	0	0	0	0	0
13.72595	-0.008999757	0.2383803	0	0	0	0	0	0
13.74241	-0.008999757	0.2383803	0	0	0	0	0	0
13.75898	-0.008999757	0.2383803	0	0	0	0	0	0
13.77555	-0.008999757	0.2383803	0	0	0	0	0	0
13.79211	-0.008999757	0.2383803	0	0	0	0	0	0
13.80868	-0.008973443	0.2383623	0.001588439	-0.001083883	0.04794194	-0.03271352	0	0
13.82524	-0.008973443	0.2383623	0	0	-0.04794056	0.03271259	0	0
13.84181	-0.008973443	0.2383623	0	0	0	0	0	0
13.85838	-0.008947129	0.2383444	0.001588474	-0.001083045	0.047943	-0.03268826	0	0
13.87505	-0.008947129	0.2383444	0	0	-0.04778483	0.03258041	0	0
13.89151	-0.008947129	0.2383444	0	0	0	0	0	0
13.90808	-0.008947129	0.2383444	0	0	0	0	0	0
13.92464	-0.008947129	0.2383444	0	0	0	0	0	0
13.94121	-0.008947129	0.2383444	0	0	0	0	0	0
13.95778	-0.008947129	0.2383444	0	0	0	0	0	0
14.04067	-0.008894502	0.2383085	0.000634878	-0.0004330491	0.006383272	-0.004354018	0	0
14.09031	-0.008894502	0.2383085	0	0	-0.004790405	0.003267526	0	0
14.10687	-0.008868189	0.2382906	0.001588383	-0.001082983	0.02399222	-0.01635825	0	0
14.12344	-0.008868189	0.2382906	0	0	-0.04794025	0.03268638	0	0
14.14001	-0.008868189	0.2382906	0	0	0	0	0	0
14.15657	-0.008868189	0.2382906	0	0	0	0	0	0
14.17314	-0.008868189	0.2382906	0	0	0	0	0	0
14.18971	-0.008868189	0.2382906	0	0	0	0	0	0
14.20628	-0.008868189	0.2382906	0	0	0	0	0	0
14.2233	-0.008868189	0.2382906	0	0	0	0	0	0
14.23941	-0.008868189	0.2382906	0	0	0	0	0	0
14.25597	-0.008868189	0.2382906	0	0	0	0	0	0
14.27254	-0.008868189	0.2382906	0	0	0	0	0	0
14.28911	-0.008868189	0.2382906	0	0	0	0	0	0
14.30567	-0.008868189	0.2382906	0	0	0	0	0	0
14.32224	-0.008868189	0.2382906	0	0	0	0	0	0
14.33881	-0.008868189	0.2382906	0	0	0	0	0	0
14.35537	-0.008868189	0.2382906	0	0	0	0	0	0
14.37194	-0.008868189	0.2382906	0	0	0	0	0	0
14.38851	-0.008868189	0.2382906	0	0	0	0	0	0
14.40507	-0.008868189	0.2382906	0	0	0	0	0	0
14.42164	-0.008868189	0.2382906	0	0	0	0	0	0
14.43821	-0.008868189	0.2382906	0	0	0	0	0	0
14.45497	-0.008868189	0.2382906	0	0	0	0	0	0
14.47147	-0.008868189	0.2382906	0	0	0	0	0	0
14.48791	-0.008868189	0.2382906	0	0	0	0	0	0
14.50448	-0.008868189	0.2382906	0	0	0	0	0	0
14.52104	-0.008868189	0.2382906	0	0	0	0	0	0
14.53761	-0.008868189	0.2382906	0	0	0	0	0	0
14.55417	-0.008868189	0.2382906	0	0	0	0	0	0
14.57074	-0.008868189	0.2382906	0	0	0	0	0	0
14.59186	-0.008868189	0.2382906	0	0	0	0	0	0
14.60843	-0.008868189	0.2382906	0	0	0	0	0	0
14.625	-0.008868189	0.2382906	0	0	0	0	0	0
14.64156	-0.008868189	0.2382906	0	0	0	0	0	0
14.65813	-0.008868189	0.2382906	0	0	0	0	0	0
14.6747	-0.008868189	0.2382906	0	0	0	0	0	0
14.69126	-0.008868189	0.2382906	0	0	0	0	0	0
14.70814	-0.008868189	0.2382906	0	0	0	0	0	0
14.7244	-0.008868189	0.2382906	0	0	0	0	0	0
14.74096	-0.008868189	0.2382906	0	0	0	0	0	0
14.75753	-0.008868189	0.2382906	0	0	0	0	0	0
14.77419	-0.008868189	0.2382906	0	0	0	0	0	0
14.80723	-0.008868189	0.2382906	0	0	0	0	0	0
14.90663	-0.008894502	0.2383085	-0.0002647254	0.0001804937	-0.001998767	0.001362789	0	0
14.9232	-0.008920816	0.2383623	-0.001588383	0.003249849	-0.0114142	0.02646775	0	0
14.93981	-0.008894502	0.2385956	0.00158437	0.0140477	0.09563825	0.3254862	0	0
14.95633	-0.00873662	0.2393852	0.009554002	0.04778033	0.2405309	1.018082	0	0
14.9729	-0.009131325	0.2398697	-0.02382585	0.02924594	-1.008713	-0.5600943	0	0
14.98946	-0.01399909	0.2432605	-0.2938355	0.204682	-8.149377	5.294976	0	0
15.00603	-0.02120735	0.2483179	-0.4350664	0.3052447	-4.262355	3.034987	0	0
15.0226	-0.02394279	0.2502183	-0.1651214	0.1147153	8.146955	-5.750189	0	0
15.03916	-0.04326246	0.2686873	-1.166205	1.114854	-30.21449	30.18598	0	0
15.05589	-0.05331784	0.2845219	-0.6013018	0.9468973	16.96968	-5.045411	0	0
15.0723	-0.06150129	0.3125107	-0.4986326	1.705405	3.098564	22.89181	0	0
15.08886	-0.06475146	0.3367283	-0.196192	1.461864	9.170966	-7.384952	0	0
15.10543	-0.0670834	0.3627125	-0.1407644	1.568498	1.672904	3.218414	0	0
15.122	-0.06792168	0.3960262	-0.05059822	2.01082	2.721299	13.3497	0	0
15.13856	-0.06724058	0.4098759	0.04111333	0.8360198	2.76794	-35.45657	0	0
15.15513	-0.063808	0.4304625	0.2072028	1.242682	5.012879	12.27379	0	0
15.17197	-0.05801377	0.4399177	0.3441341	0.561569	4.099322	-20.39052	0	0
15.18827	-0.04578377	0.4465258	0.7503853	0.4054473	12.26033	-4.711627	0	0
15.20483	-0.03798173	0.4494543	0.4710138	0.1767949	-8.501184	-6.957817	0	0
15.2214	-0.02670418	0.4504786	0.6805966	0.06181655	6.325222	-3.470053	0	0
15.23802	-0.01736668	0.4507123	0.5619952	0.01406268	-3.573947	-1.439019	0	0
15.25453	-0.01057855	0.4512874	0.4110332	0.03482488	-4.556698	0.6266947	0	0
15.2711	0.00210526	0.4519704	0.7655965	0.04122654	10.71771	0.1935089	0	0
15.28766	0.01399909	0.4518626	0.717954	-0.006510491	-1.437894	-1.440748	0	0
15.30423	0.03156846	0.4517907	1.06055	-0.004339128	10.34017	0.06553564	0	0
15.3208	0.04260578	0.4518985	0.6660608	0.00650682	-11.90469	0.3273031	0	0
15.33759	0.05208443	0.4518805	0.5647208	-0.001070668	-3.03816	-0.2271721	0	0
15.3541	0.06420112	0.451593	0.7337726	-0.01741626	5.077007	-0.4908949	0	0
15.3705	0.07033117	0.4488254	0.3737974	-0.1687565	-10.93742	-4.598296	0	0
15.38712	0.0752262	0.445502	0.2944979	-0.1999487	-2.401488	-0.9446169	0	0
15.40364	0.08129413	0.4414796	0.3674031	-0.2435508	2.200094	-1.3158	0	0
15.4202	0.08356807	0.4399177	0.1372952	-0.09429882	-6.956484	4.512095	0	0
15.43676	0.08772167	0.4371359	0.2507259	-0.1679236	3.423935	-2.222383	0	0
15.45333	0.08774778	0.4371179	0.001575902	-0.001082983	-7.519794	5.035548	0	0
15.4699	0.08777389	0.4371	0.001576352	-0.001084782	1.357664E-05	-5.429603E-05	0	0
15.59026	0.0878	0.437082	0.0002169606	-0.000149056	-0.009927605	0.006833586	0	0
15.6067	0.0878	0.437082	0	0	-0.001585894	0.001089539	0	0
15.62328	0.0878	0.437082	0	0	0	0	0	0
15.63983	0.0878	0.437082	0	0	0	0	0	0
15.6564	0.0878	0.437082	0	0	0	0	0	0
15.67297	0.08782612	0.4370641	0.001576352	-0.001082983	0.04757714	-0.03268638	0	0
15.68953	0.08782612	0.4370641	0	0	-0.04757714	0.03268638	0	0
15.7061	0.08782612	0.4370641	0	0	0	0	0	0
15.72285	0.08782612	0.4370641	0	0	0	0	0	0
15.75588	0.08782612	0.4370641	0	0	0	0	0	0
15.77239	0.0878	0.437082	-0.001581724	0.001086674	-0.03193219	0.02193801	0	0
15.78893	0.08782612	0.4370641	0.00157826	-0.001084294	0.09559414	-0.06567494	0	0
15.8055	0.08782612	0.4370641	0	0	-0.04766354	0.03274573	0	0
15.82207	0.08782612	0.4370641	0	0	0	0	0	0
15.83863	0.08782612	0.4370641	0	0	0	0	0	0
15.85545	0.08782612	0.4370641	0	0	0	0	0	0
15.87177	0.08782612	0.4370641	0	0	0	0	0	0
15.88833	0.0878	0.437082	-0.001576352	0.001082983	-0.04793588	0.03293284	0	0
15.9049	0.0878	0.437082	0	0	0.0475744	-0.03268449	0	0
15.92147	0.08777389	0.4370641	-0.001576352	-0.001082983	-0.0475744	-0.03268449	0	0
15.93803	0.08777389	0.4370641	0	0	0.04757714	0.03268638	0	0
15.9546	0.08777389	0.4370641	0	0	0	0	0	0
15.97117	0.08777389	0.4370641	0	0	0	0	0	0
15.98773	0.08777389	0.4370641	0	0	0	0	0	0
16.0043	0.08774778	0.4370461	-0.001576443	-0.001083045	-0.04757988	-0.03268826	0	0
16.02087	0.08774778	0.4370461	0	0	0.04757988	0.03268826	0	0
16.03743	0.08772167	0.4370282	-0.001575993	-0.001083045	-0.04756631	-0.03268826	0	0
16.054	0.08769555	0.4370103	-0.001576261	-0.001082921	-8.095389E-06	3.763091E-06	0	0
16.07057	0.08764333	0.4369743	-0.003152523	-0.00216764	-0.04757166	-0.0327369	0	0
16.08713	0.08706878	0.4365796	-0.03468354	-0.0238306	-0.9516628	-0.653827	0	0
16.10412	0.08581504	0.4357183	-0.0737816	-0.0506861	-1.165093	-0.8002739	0	0
16.12026	0.0828886	0.4336731	-0.1813166	-0.1267172	-3.245599	-2.294756	0	0
16.13683	0.07781623	0.430086	-0.3061684	-0.2165194	-3.817257	-2.745638	0	0
16.17067	0.06024281	0.4155521	-0.5193359	-0.4295083	-4.229052	-4.225508	0	0
16.18653	0.05617767	0.399246	-0.2562894	-1.028033	5.292708	-12.04281	0	0
16.20319	0.05523324	0.3895884	-0.05667975	-0.5795952	6.137283	13.78787	0	0
16.21971	0.05190072	0.3705189	-0.201825	-1.154894	-4.375204	-17.3416	0	0
16.23623	0.04381405	0.354336	-0.4892953	-0.9791709	-8.700914	5.318657	0	0
16.2528	0.03811311	0.3473891	-0.3441487	-0.4193617	4.386088	16.9165	0	0
16.26974	0.02299595	0.3353712	-0.892238	-0.7093166	-16.35682	-8.653227	0	0
16.35229	-0.03267258	0.2973943	-0.6743298	-0.4600253	2.190102	2.50552	0	0
16.36881	-0.04181771	0.2911736	-0.5537226	-0.3766511	1.217399	0.8415715	0	0
16.38533	-0.04686041	0.2877408	-0.3052562	-0.2078047	7.521243	5.111093	0	0
16.4019	-0.05014215	0.2854698	-0.1980861	-0.1370794	3.239061	2.137571	0	0
16.41846	-0.05163826	0.2844862	-0.09030584	-0.05936996	3.252816	2.345276	0	0
16.43503	-0.0549184	0.2822148	-0.1979897	-0.1371028	-3.249905	-2.345982	0	0
16.4516	-0.0563613	0.281231	-0.08709328	-0.05937896	3.34686	2.345711	0	0
16.46817	-0.05625637	0.2813025	0.006333603	0.004317292	2.819629	1.922357	0	0
16.48473	-0.05625637	0.2813025	0	0	-0.1911485	-0.1302961	0	0
16.5013	-0.0562826	0.2813205	-0.001583457	0.001081122	-0.04778882	0.03262833	0	0
16.53751	-0.05625637	0.2813383	0.0007245762	0.000493889	0.04373551	-0.01112763	0	0
16.55407	-0.05625637	0.2813383	0	0	-0.01373068	-0.009359167	0	0
16.60377	-0.0562039	0.2813741	0.001055678	0.0007195763	0.01593114	0.01085905	0	0
16.62034	-0.0562039	0.2813741	0	0	-0.01593068	-0.01085874	0	0
16.63691	-0.0562039	0.2813741	0	0	0	0	0	0
16.65351	-0.05617767	0.2813562	0.001579456	-0.001076596	0.0476078	-0.03245064	0	0
16.67004	-0.05615144	0.2813383	0.001587252	-0.001082064	0.0002352798	-0.0001650114	0	0
16.68661	-0.0560465	0.281231	0.006333828	-0.006477737	0.1434336	-0.1630482	0	0
16.70317	-0.0559678	0.2811773	0.004750371	-0.003239768	-0.04778883	0.09772211	0	0
16.71974	-0.05594157	0.2811595	0.001583457	-0.001079323	-0.09557764	0.06520236	0	0
16.73634	-0.05594157	0.2811595	0	0	-0.04774485	0.03254406	0	0
16.75309	-0.05591534	0.2811416	0.001566326	-0.001067646	0.04697168	-0.03201705	0	0
16.76944	-0.05591534	0.2811416	0	0	-0.04731811	0.03225318	0	0
16.78612	-0.05586287	0.2811058	0.003146267	-0.00214636	0.09525611	-0.06498301	0	0
16.81914	-0.05567923	0.2809806	0.005561098	-0.003791407	0.04859024	-0.03310095	0	0
16.83571	-0.05546936	0.2808375	0.0126681	-0.008638182	0.1433177	-0.0977386	0	0
16.85266	-0.0544199	0.280122	0.06191973	-0.04221704	1.469499	-1.001878	0	0
16.86884	-0.05295046	0.2791202	0.09079672	-0.06189968	0.8715593	-0.5940573	0	0
16.88541	-0.0466766	0.2748441	0.3786908	-0.2581075	8.79037	-5.990881	0	0
16.90197	-0.0382445	0.269099	0.5089625	-0.3467721	3.931605	-2.675903	0	0
16.91854	-0.02544188	0.2603786	0.7727678	-0.5263643	7.961662	-5.420102	0	0
16.93511	-0.01541983	0.2535522	0.604932	-0.4120406	-5.065297	3.450296	0	0
16.95173	-0.002499995	0.2447852	0.7775155	-0.5276011	5.200797	-3.482413	0	0
16.96824	0.005973613	0.2390084	0.5130628	-0.3497743	-7.981656	5.367134	0	0
16.98481	0.01489364	0.232995	0.5384136	-0.3629701	0.7662781	-0.3988695	0	0
17.00138	0.01665635	0.2317919	0.1063979	-0.07262045	-13.03826	8.762769	0	0
17.01794	0.01905033	0.2301576	0.1445004	-0.09864743	1.149936	-0.7854958	0	0
17.03451	0.02302225	0.227481	0.2397456	-0.1615585	2.874506	-1.898659	0	0
17.05108	0.02336417	0.2272474	0.02063845	-0.01409776	-6.612669	4.450373	0	0
17.06781	0.02349568	0.2271576	0.007858134	-0.005368311	-0.3837668	0.2621274	0	0
17.08421	0.02365348	0.2270498	0.009622741	-0.006573113	0.05325596	-0.03636099	0	0
17.10084	0.02383759	0.2269599	0.01107439	-0.005404034	0.04395772	0.03540107	0	0
17.11735	0.02394279	0.226924	0.006372138	-0.002176056	-0.1419144	0.09742058	0	0
17.13391	0.02394279	0.226924	0	0	-0.1926442	0.0657871	0	0
17.15048	0.02396909	0.226942	0.001587504	0.00108382	0.04791097	0.03270976	0	0
17.16705	0.02396909	0.226942	0	0	-0.04791097	-0.03270976	0	0
17.1839	0.02396909	0.226942	0	0	0	0	0	0
17.20018	0.02396909	0.226942	0	0	0	0	0	0
17.21675	0.02399539	0.2269599	0.001587504	0.00108472	0.04832546	0.03302012	0	0
17.23343	0.02399539	0.2269599	0	0	-0.04774059	-0.03262048	0	0
17.24994	0.02399539	0.2269599	0	0	0	0	0	0
17.26645	0.02399539	0.2269599	0	0	0	0	0	0
17.28302	0.02399539	0.2269599	0	0	0	0	0	0
17.29958	0.02399539	0.2269599	0	0	0	0	0	0
17.31615	0.02399539	0.2269599	0	0	0	0	0	0
17.33272	0.02399539	0.2269599	0	0	0	0	0	0
17.34928	0.02399539	0.2269599	0	0	0	0	0	0
17.36585	0.02399539	0.2269599	0	0	0	0	0	0
17.38242	0.02399539	0.2269599	0	0	0	0	0	0
17.39898	0.02399539	0.2269599	0	0	0	0	0	0
17.41555	0.02399539	0.2269599	0	0	0	0	0	0
17.43212	0.02399539	0.2269599	0	0	0	0	0	0
17.45174	0.02399539	0.2269599	0	0	0	0	0	0
17.46831	0.02399539	0.2269599	0	0	0	0	0	0
17.50144	0.02399539	0.2269599	0	0	0	0	0	0
17.51801	0.02399539	0.2269599	0	0	0	0	0	0
17.53457	0.02399539	0.2269599	0	0	0	0	0	0
17.55114	0.02399539	0.2269599	0	0	0	0	0	0
17.56771	0.02399539	0.2269599	0	0	0	0	0	0
17.58428	0.02399539	0.2269599	0	0	0	0	0	0
17.60084	0.02399539	0.2269599	0	0	0	0	0	0
17.61741	0.02399539	0.2269599	0	0	0	0	0	0
17.63398	0.02399539	0.2269599	0	0	0	0	0	0
17.65055	0.02396909	0.2269779	-0.001587687	0.001084845	-0.04791649	0.03274067	0	0
17.66725	0.02396909	0.2269779	0	0	0.04771871	-0.03260554	0	0
17.68368	0.02396909	0.2269779	0	0	0	0	0	0
17.70024	0.02396909	0.2269779	0	0	0	0	0	0
17.71681	0.02396909	0.2269779	0	0	0	0	0	0
17.73338	0.02396909	0.2269779	0	0	0	0	0	0
17.75031	0.02396909	0.2269779	0	0	0	0	0	0
17.76651	0.02396909	0.2269779	0	0	0	0	0	0
17.78308	0.02396909	0.2269779	0	0	0	0	0	0
17.79984	0.02396909	0.2269779	0	0	0	0	0	0
17.81621	0.02396909	0.2269779	0	0	0	0	0	0
17.83286	0.02396909	0.2269779	0	0	0	0	0	0
17.84934	0.02396909	0.2269779	0	0	0	0	0	0
17.86591	0.02396909	0.2269779	0	0	0	0	0	0
17.91965	0.02396909	0.2269779	0	0	0	0	0	0
17.93621	0.02396909	0.2269779	0	0	0	0	0	0
17.95295	0.02396909	0.2269779	0	0	0	0	0	0
17.96935	0.02396909	0.2269779	0	0	0	0	0	0
17.98592	0.02396909	0.2269779	0	0	0	0	0	0
18.00248	0.02396909	0.2269779	0	0	0	0	0	0
18.01905	0.02396909	0.2269779	0	0	0	0	0	0
18.03562	0.02396909	0.2269779	0	0	0	0	0	0
18.05252	0.02396909	0.2269779	0	0	0	0	0	0
18.06875	0.02396909	0.2269779	0	0	0	0	0	0
18.08532	0.02396909	0.2269779	0	0	0	0	0	0
18.10188	0.02396909	0.2269779	0	0	0	0	0	0
18.11845	0.02396909	0.2269779	0	0	0	0	0	0
18.13502	0.02396909	0.2269779	0	0	0	0	0	0
18.1516	0.02396909	0.2269779	0	0	0	0	0	0
18.16815	0.02396909	0.2269779	0	0	0	0	0	0
18.18472	0.02394279	0.2269959	-0.001587504	0.00108472	-0.04793581	0.03275387	0	0
18.2247	0.02391649	0.2270138	-0.0006579065	0.0004491656	0.01644044	-0.01124012	0	0
18.24126	0.02391649	0.2270138	0	0	0.01163544	-0.007943739	0	0
18.25783	0.02391649	0.2270138	0	0	0	0	0	0
18.27794	0.02391649	0.2270138	0	0	0	0	0	0
18.2947	0.02391649	0.2270138	0	0	0	0	0	0
18.31121	0.02391649	0.2270138	0	0	0	0	0	0
18.32764	0.02391649	0.2270138	0	0	0	0	0	0
18.3442	0.02391649	0.2270138	0	0	0	0	0	0
18.36077	0.02391649	0.2270138	0	0	0	0	0	0
18.37734	0.02391649	0.2270138	0	0	0	0	0	0
18.39391	0.02391649	0.2270138	0	0	0	0	0	0
18.41052	0.02391649	0.2270138	0	0	0	0	0	0
18.4438	0.02391649	0.2270138	0	0	0	0	0	0
18.46017	0.02391649	0.2270138	0	0	0	0	0	0
18.47683	0.02391649	0.2270138	0	0	0	0	0	0
18.49334	0.02391649	0.2270138	0	0	0	0	0	0
18.50987	0.02391649	0.2270138	0	0	0	0	0	0
18.52644	0.02391649	0.2270138	0	0	0	0	0	0
18.54301	0.02391649	0.2270138	0	0	0	0	0	0
18.55989	0.02391649	0.2270138	0	0	0	0	0	0
18.5764	0.02391649	0.2270138	0	0	0	0	0	0
18.59291	0.02394279	0.2269959	0.001592822	-0.001087451	0.04823529	-0.03293118	0	0
18.60927	0.02394279	0.2269959	0	0	-0.04845078	0.03307829	0	0
18.62584	0.02394279	0.2269959	0	0	0	0	0	0
18.64241	0.02394279	0.2269959	0	0	0	0	0	0
18.65897	0.02394279	0.2269959	0	0	0	0	0	0
18.67554	0.02394279	0.2269959	0	0	0	0	0	0
18.69211	0.02394279	0.2269959	0	0	0	0	0	0
18.70868	0.02394279	0.2269959	0	0	0	0	0	0
18.72524	0.02394279	0.2269959	0	0	0	0	0	0
18.74181	0.02396909	0.2269779	0.001587504	-0.00108472	0.04791097	-0.0327369	0	0
18.75838	0.02396909	0.2269779	0	0	-0.04791097	0.0327369	0	0
18.77505	0.02396909	0.2269779	0	0	0	0	0	0
18.79151	0.02396909	0.2269779	0	0	0	0	0	0
18.80808	0.02396909	0.2269779	0	0	0	0	0	0
18.82464	0.02396909	0.2269779	0	0	0	0	0	0
18.87435	0.02396909	0.2269779	0	0	0	0	0	0
18.89091	0.02396909	0.2269779	0	0	0	0	0	0
18.90748	0.02396909	0.2269779	0	0	0	0	0	0
18.92405	0.02396909	0.2269779	0	0	0	0	0	0
18.94061	0.02396909	0.2269779	0	0	0	0	0	0
18.95718	0.02396909	0.2269779	0	0	0	0	0	0
18.97375	0.02396909	0.2269779	0	0	0	0	0	0
18.99031	0.02396909	0.2269779	0	0	0	0	0	0
19.00721	0.02394279	0.2269599	-0.001556503	-0.001063537	-0.04651217	-0.03178112	0	0
19.02345	0.02394279	0.2269599	0	0	0.04697806	0.03209946	0	0
19.04001	0.02394279	0.2269599	0	0	0	0	0	0
19.05658	0.02394279	0.2269599	0	0	0	0	0	0
19.07315	0.02394279	0.2269599	0	0	0	0	0	0
19.08971	0.02394279	0.2269599	0	0	0	0	0	0
19.10628	0.02394279	0.2269599	0	0	0	0	0	0
19.12285	0.02394279	0.2269599	0	0	0	0	0	0
19.13942	0.02394279	0.2269599	0	0	0	0	0	0
19.15598	0.02394279	0.2269599	0	0	0	0	0	0
19.17283	0.02394279	0.2269599	0	0	0	0	0	0
19.18912	0.02394279	0.2269599	0	0	0	0	0	0
19.2439	0.02394279	0.2269599	0	0	0	0	0	0
19.2936	0.02394279	0.2269599	0	0	0	0	0	0
19.31017	0.02394279	0.2269599	0	0	0	0	0	0
19.32674	0.02394279	0.2269599	0	0	0	0	0	0
19.3433	0.02394279	0.2269599	0	0	0	0	0	0
19.35987	0.02394279	0.2269599	0	0	0	0	0	0
19.37644	0.02394279	0.2269599	0	0	0	0	0	0
19.39301	0.02394279	0.2269599	0	0	0	0	0	0
19.40957	0.02394279	0.2269599	0	0	0	0	0	0
19.42614	0.02394279	0.2269599	0	0	0	0	0	0
19.44302	0.02394279	0.2269599	0	0	0	0	0	0
19.45927	0.02394279	0.2269599	0	0	0	0	0	0
19.47584	0.02394279	0.2269599	0	0	0	0	0	0
19.4924	0.02394279	0.2269599	0	0	0	0	0	0
19.50897	0.02394279	0.2269599	0	0	0	0	0	0
19.52558	0.02394279	0.2269599	0	0	0	0	0	0
19.5421	0.02394279	0.2269599	0	0	0	0	0	0
19.55867	0.02394279	0.2269599	0	0	0	0	0	0
19.57524	0.02394279	0.2269599	0	0	0	0	0	0
19.5918	0.02394279	0.2269599	0	0	0	0	0	0
19.60837	0.02394279	0.2269599	0	0	0	0	0	0
19.62494	0.02394279	0.2269599	0	0	0	0	0	0
19.64166	0.02394279	0.2269599	0	0	0	0	0	0
19.65807	0.02394279	0.2269599	0	0	0	0	0	0
19.67464	0.02394279	0.2269599	0	0	0	0	0	0
19.6912	0.02394279	0.2269599	0	0	0	0	0	0
19.70777	0.02394279	0.2269599	0	0	0	0	0	0
19.72434	0.02394279	0.2269599	0	0	0	0	0	0
19.74091	0.02394279	0.2269599	0	0	0	0	0	0
19.75747	0.02394279	0.2269599	0	0	0	0	0	0
19.77426	0.02394279	0.2269599	0	0	0	0	0	0
19.79061	0.02394279	0.2269599	0	0	0	0	0	0
19.80717	0.02394279	0.2269599	0	0	0	0	0	0
19.82379	0.02394279	0.2269599	0	0	0	0	0	0
19.84031	0.02394279	0.2269599	0	0	0	0	0	0
19.85687	0.02394279	0.2269599	0	0	0	0	0	0
19.87344	0.02394279	0.2269599	0	0	0	0	0	0
19.89001	0.02394279	0.2269599	0	0	0	0	0	0
19.90657	0.02394279	0.2269599	0	0	0	0	0	0
19.92338	0.02394279	0.2269599	0	0	0	0	0	0
19.93971	0.02394279	0.2269599	0	0	0	0	0	0
19.95639	0.02394279	0.2269599	0	0	0	0	0	0
19.97284	0.02394279	0.2269599	0	0	0	0	0	0
19.98941	0.02394279	0.2269599	0	0	0	0	0	0
20.00642	0.02394279	0.2269599	0	0	0	0	0	0
20.03911	0.02394279	0.2269599	0	0	0	0	0	0
20.06028	0.02394279	0.2269599	0	0	0	0	0	0
20.07685	0.02394279	0.2269599	0	0	0	0	0	0
20.09342	0.02394279	0.2269599	0	0	0	0	0	0
20.10999	0.02394279	0.2269599	0	0	0	0	0	0
20.12701	0.02394279	0.2269599	0	0	0	0	0	0
20.14312	0.02394279	0.2269599	0	0	0	0	0	0
20.15969	0.02394279	0.2269599	0	0	0	0	0	0
20.17625	0.02394279	0.2269599	0	0	0	0	0	0
20.19282	0.02394279	0.2269599	0	0	0	0	0	0
20.22596	0.02394279	0.2269599	0	0	0	0	0	0
20.24252	0.02394279	0.2269599	0	0	0	0	0	0
20.25909	0.02394279	0.2269599	0	0	0	0	0	0
20.27612	0.02394279	0.2269599	0	0	0	0	0	0
20.29263	0.02394279	0.2269599	0	0	0	0	0	0
20.30879	0.02394279	0.2269599	0	0	0	0	0	0
20.32536	0.02394279	0.2269599	0	0	0	0	0	0
20.34192	0.02394279	0.2269599	0	0	0	0	0	0
20.35849	0.02394279	0.2269599	0	0	0	0	0	0
20.37519	0.02394279	0.2269599	0	0	0	0	0	0
20.39162	0.02394279	0.2269599	0	0	0	0	0	0
20.40821	0.02394279	0.2269599	0	0	0	0	0	0
20.42476	0.02394279	0.2269599	0	0	0	0	0	0
20.44174	0.02396909	0.2269779	0.001548811	0.001058281	0.04620067	0.03156827	0	0
20.45789	0.02404799	0.2271755	0.004885119	0.01223632	0.1006958	0.3373734	0	0
20.47445	0.02523149	0.2280559	0.07143567	0.05313687	2.034024	1.250068	0	0
20.49102	0.02767714	0.2302653	0.14762	0.1333621	2.299248	2.421201	0	0
20.50759	0.03167361	0.2337132	0.2412276	0.2081142	2.825082	2.256023	0	0
20.5243	0.04087196	0.2420048	0.5505862	0.4963118	9.297392	8.661427	0	0
20.54072	0.05901036	0.2564015	1.104115	0.8763497	16.70553	11.46956	0	0
20.55729	0.08228745	0.2724998	1.405008	0.9716948	9.119299	2.889663	0	0
20.57386	0.09899117	0.286346	1.008238	0.8357612	-11.97454	-4.102484	0	0
20.59043	0.1140555	0.3072405	0.9092833	1.261191	-2.986471	12.83949	0	0
20.60736	0.1235258	0.3222274	0.5593282	0.8851509	-10.44681	-11.22548	0	0
20.62356	0.136669	0.3385855	0.8111642	1.009574	7.600426	3.755087	0	0
20.64013	0.1484009	0.3464605	0.7081403	0.4753393	-3.143834	-16.30247	0	0
20.65669	0.1598866	0.3544074	0.6932798	0.4796745	-0.4484893	0.1308391	0	0
20.67341	0.1641158	0.3573185	0.2530574	0.1741897	-13.22807	-9.179393	0	0
20.68983	0.1694897	0.3610335	0.3272738	0.226244	2.239983	1.571092	0	0
20.70639	0.1716877	0.3625696	0.1326677	0.09271745	-5.899372	-4.04778	0	0
20.72296	0.1732712	0.363677	0.09558125	0.06684607	-1.119271	-0.7807996	0	0
20.73953	0.1734755	0.3638199	0.01232947	0.00862559	-2.512544	-1.757098	0	0
20.7561	0.1736031	0.3639449	0.007705467	0.007546267	-0.1395526	-0.03257404	0	0
20.83903	0.1748794	0.364981	0.01538908	0.01249281	0.07722321	0.04971466	0	0
20.8555	0.1748794	0.364981	0	0	-0.1548174	-0.1256804	0	0
20.87206	0.1748794	0.364981	0	0	0	0	0	0
20.88863	0.1748538	0.3649988	-0.001539834	0.001077524	-0.04647229	0.03251974	0	0
20.9052	0.1748538	0.3649988	0	0	0.04647229	-0.03251974	0	0
20.92177	0.1748538	0.3649988	0	0	0	0	0	0
20.93833	0.1748538	0.3649988	0	0	0	0	0	0
20.95511	0.1748028	0.3650346	-0.003042043	0.002129874	-0.09123137	0.06387528	0	0
20.97162	0.1747262	0.3650882	-0.004637318	0.003245581	-0.0479248	0.03351774	0	0
21.0046	0.1698221	0.368518	-0.1487095	0.1040034	-2.911251	2.036002	0	0
21.02638	0.1664457	0.3708762	-0.1549826	0.1082451	-0.1145473	0.0774536	0	0
21.04295	0.1611688	0.3745568	-0.3185127	0.2221607	-4.263821	2.970191	0	0
21.05968	0.1565762	0.3777553	-0.2744929	0.1911729	1.321977	-0.9306054	0	0
21.07608	0.1503309	0.3820982	-0.3807819	0.2647873	-3.207994	2.221815	0	0
21.09265	0.1471651	0.3842967	-0.1910843	0.1327028	5.753903	-4.006384	0	0
21.10922	0.146135	0.3850117	-0.0621807	0.04315853	3.890317	-2.702451	0	0
21.12578	0.1462123	0.3849581	0.004665012	-0.003238342	2.017524	-1.400341	0	0
21.14235	0.1460062	0.3851726	-0.0124383	0.01294828	-0.5162086	0.4885413	0	0
21.15892	0.1437129	0.3871569	-0.1384241	0.1197725	-3.802258	3.223961	0	0
21.17549	0.1374695	0.3916268	-0.3768492	0.2698038	-7.195685	4.527954	0	0
21.19228	0.1300513	0.3968669	-0.4417656	0.312051	-1.945963	1.266421	0	0
21.20862	0.121037	0.4030927	-0.551595	0.3809651	-3.314658	2.079833	0	0
21.2253	0.1176645	0.405419	-0.2021937	0.1394726	10.58089	-7.313098	0	0
21.24181	0.1128864	0.4087124	-0.2893693	0.199452	-2.626432	1.807063	0	0
21.25832	0.112003	0.409321	-0.0535172	0.03686814	7.142701	-4.923798	0	0
21.27489	0.1117431	0.4095	-0.01568797	0.01080707	1.143795	-0.7879762	0	0
21.29145	0.1117171	0.4095179	-0.001568616	0.001081122	0.4261474	-0.2935465	0	0
21.30802	0.1117171	0.4095179	0	0	0.0473382	-0.03262645	0	0
21.32459	0.1117171	0.4095179	0	0	0	0	0	0
21.34115	0.1117431	0.4095	0.001568616	-0.001081122	0.04734365	-0.03263021	0	0
21.35772	0.1117431	0.4095	0	0	-0.04734365	0.03263021	0	0
21.37429	0.1117431	0.4094642	0	-0.002160445	0	-0.06520611	0	0
21.39085	0.1117431	0.4094642	0	0	0	0.06520236	0	0
21.40742	0.1117431	0.4094642	0	0	0	0	0	0
21.42399	0.1117431	0.4094642	0	0	0	0	0	0
21.44056	0.1117431	0.4094642	0	0	0	0	0	0
21.45747	0.1117431	0.4094642	0	0	0	0	0	0
21.47398	0.1117691	0.4094463	0.001573689	-0.001084618	0.04708207	-0.03244992	0	0
21.49025	0.1117691	0.4094463	0	0	-0.04799687	0.03308041	0	0
21.50682	0.1117431	0.4094284	-0.001568616	-0.001081122	-0.04776435	-0.03292016	0	0
21.52339	0.1117431	0.4094284	0	0	0.04734093	0.03262833	0	0
21.54002	0.1117691	0.4094105	0.001562142	-0.001074868	0.04704803	-0.0323725	0	0
21.55652	0.1117431	0.4093926	-0.001575327	-0.001085747	-0.09469444	-0.0003283411	0	0
21.57309	0.1117431	0.4093926	0	0	0.04764493	0.03283785	0	0
21.58965	0.1117691	0.4093747	0.001568616	-0.001081122	0.04734093	-0.03262833	0	0
21.60657	0.1117431	0.4093568	-0.00153625	-0.001057053	-0.09272823	0.0007188415	0	0
21.62308	0.1117431	0.4093568	0	0	0.04595672	0.03162159	0	0
21.63935	0.1117171	0.4093389	-0.001597116	-0.001100765	-0.04871707	-0.03357679	0	0
21.65592	0.1117171	0.4093031	0	-0.002160445	0.04863501	-0.03226912	0	0
21.67262	0.1116651	0.4092315	-0.003113309	-0.004289111	-0.09359349	-0.06399277	0	0
21.68913	0.1116651	0.4092315	0	0	0.09374938	0.1291557	0	0
21.70562	0.1116391	0.4091778	-0.001575873	-0.003256564	-0.04774961	-0.09867522	0	0
21.72219	0.1116391	0.4091778	0	0	0.04766971	0.09851012	0	0
21.75532	0.1115612	0.4090883	-0.002353149	-0.002701006	-0.04734545	-0.05434434	0	0
21.77189	0.1115352	0.4090704	-0.001568616	-0.001081122	0.01578483	0.03259213	0	0
21.78846	0.1115352	0.4090704	0	0	0.04734093	0.03262833	0	0
21.80503	0.1115092	0.4090525	-0.001568616	-0.001081122	-0.04734093	-0.03262833	0	0
21.82173	0.1114572	0.4089809	-0.003112242	-0.004285857	-0.0463971	-0.0963254	0	0
21.85993	0.1111973	0.4086944	-0.006803077	-0.007497348	-0.06721994	-0.05848981	0	0
21.8765	0.1111713	0.4086766	-0.001569066	-0.001079323	0.09556098	0.1171784	0	0
21.89307	0.1110154	0.4085692	-0.009413496	-0.006483134	-0.2367454	-0.1630873	0	0
21.90963	0.1107034	0.4083543	-0.01882789	-0.01296627	-0.284127	-0.1956614	0	0
21.9262	0.1078691	0.4064034	-0.1710781	-0.1177613	-4.594921	-3.162722	0	0
21.94277	0.1053194	0.4046137	-0.1539038	-0.108024	0.5183206	0.2938722	0	0
21.95934	0.09883481	0.4001941	-0.3914093	-0.2667655	-7.16793	-4.790826	0	0
21.9759	0.08834836	0.3930037	-0.6329636	-0.4340138	-7.290123	-5.047564	0	0
21.99247	0.07938544	0.3869424	-0.5410026	-0.3658635	2.775389	2.056779	0	0
22.00904	0.06669043	0.3783451	-0.7662726	-0.5189349	-6.798663	-4.619703	0	0
22.02588	0.06331001	0.3760756	-0.2007376	-0.1347654	16.92853	11.4996	0	0
22.04289	0.0501684	0.3672675	-0.7724206	-0.517713	-16.88696	-11.3119	0	0
22.05874	0.03409205	0.3564791	-1.01452	-0.6808178	-7.367654	-4.963656	0	0
22.0753	0.0249422	0.3504428	-0.5522863	-0.3643507	14.26055	9.76344	0	0
22.09187	0.01586709	0.3444962	-0.5477744	-0.3589379	0.1361692	0.1633591	0	0
22.10844	0.005052588	0.3374069	-0.6527646	-0.4279102	-3.168608	-2.08159	0	0
22.12545	0.002868413	0.3360319	-0.1284074	-0.08083721	15.61658	10.33664	0	0
22.14157	-0.007052515	0.3296924	-0.6153346	-0.393198	-14.69634	-9.427611	0	0
22.15814	-0.01107849	0.3272101	-0.2430086	-0.1498316	11.38958	7.444664	0	0
22.17471	-0.01494626	0.3248349	-0.2334586	-0.1433683	0.2882188	0.1950643	0	0
22.19127	-0.01576185	0.3242813	-0.0492295	-0.03341764	5.560045	3.318317	0	0
22.20801	-0.01644589	0.3238169	-0.04086961	-0.02774395	0.2510159	0.1703597	0	0
22.22441	-0.01647219	0.3237991	-0.001604393	-0.001088679	1.185027	0.8044576	0	0
22.24097	-0.01647219	0.3237991	0	0	0.04867003	0.0330256	0	0
22.25754	-0.01647219	0.3237991	0	0	0	0	0	0
22.27456	-0.01647219	0.3237991	0	0	0	0	0	0
22.29067	-0.01647219	0.3237991	0	0	0	0	0	0
22.30758	-0.01644589	0.3237812	0.001556066	-0.001057649	0.04711948	-0.03202683	0	0
22.32381	-0.01644589	0.3237812	0	0	-0.04696487	0.03192174	0	0
22.34037	-0.01644589	0.3237812	0	0	0	0	0	0
22.35711	-0.01644589	0.3237812	0	0	0	0	0	0
22.37351	-0.01644589	0.3237812	0	0	0	0	0	0
22.39007	-0.01641958	0.3237633	0.001588066	-0.001077524	0.04818311	-0.03269288	0	0
22.40665	-0.01639327	0.3237455	0.00158704	-0.001076904	-3.095487E-05	1.870359E-05	0	0
22.42321	-0.01634065	0.3237098	0.00317785	-0.00215809	0.04801072	-0.03263024	0	0
22.43978	-0.01631434	0.3236919	0.001587954	-0.001077524	-0.04799696	0.03262092	0	0
22.45634	-0.01623541	0.3236383	0.004764087	-0.003234371	0.09585589	-0.06509378	0	0
22.47291	-0.0161828	0.3236026	0.00317602	-0.002155048	-0.04792795	0.03257403	0	0
22.48971	-0.01602494	0.3234954	0.009395021	-0.00637842	0.1863702	-0.1265655	0	0
22.50604	-0.01578816	0.323299	0.01449744	-0.01202849	0.1539914	-0.1705196	0	0
22.52261	-0.01526197	0.3228346	0.03176082	-0.02802822	0.5247251	-0.486316	0	0
22.53918	-0.01520935	0.3227632	0.003176133	-0.004311895	-0.8626877	0.7157601	0	0
22.55575	-0.01518304	0.3227454	0.001588066	-0.001077524	-0.04792794	0.09761352	0	0
22.57231	-0.01499888	0.3225489	0.01111641	-0.01185816	0.2875659	-0.3253603	0	0
22.58888	-0.01434112	0.322031	0.03970205	-0.03126259	0.8627165	-0.5856268	0	0
22.60545	-0.01205205	0.3204057	0.1381688	-0.09810327	2.971733	-2.017256	0	0
22.62231	-0.009578655	0.3185124	0.1466935	-0.1122844	0.2550149	-0.4242255	0	0
22.63858	-0.004947328	0.3152258	0.2846265	-0.2019839	4.163067	-2.707294	0	0
22.65533	0.001578946	0.3105099	0.3896205	-0.2815453	3.179523	-2.409351	0	0
22.67171	0.005631519	0.3077228	0.2473476	-0.1701051	-4.293806	3.363272	0	0
22.68828	0.0098681	0.3048463	0.2557205	-0.1736307	0.2541007	-0.1069932	0	0
22.70901	0.009710222	0.3049535	-0.007616999	0.005171908	-7.061049	4.794357	0	0
22.72558	0.009736534	0.3049356	0.001588235	-0.001079323	0.2468262	-0.1676185	0	0
22.74214	0.009736534	0.3049356	0	0	-0.04793303	0.03257403	0	0
22.75871	0.009762848	0.3049177	0.001588291	-0.001077524	0.04793473	-0.03251974	0	0
22.77528	0.009736534	0.3049356	-0.001588291	0.001077524	-0.09586946	0.06503949	0	0
22.79185	0.009736534	0.3049356	0	0	0.04793473	-0.03251974	0	0
22.80841	0.009736534	0.3049356	0	0	0	0	0	0
22.82498	0.009736534	0.3049356	0	0	0	0	0	0
22.84155	0.009736534	0.3049356	0	0	0	0	0	0
22.85848	0.009736534	0.3049356	0	0	0	0	0	0
22.87468	0.009736534	0.3049356	0	0	0	0	0	0
22.8915	0.009736534	0.3049356	0	0	0	0	0	0
22.92452	0.009736534	0.3049356	0	0	0	0	0	0
22.97408	0.009736534	0.3049356	0	0	0	0	0	0
22.99064	0.009762848	0.3049177	0.001588291	-0.001077524	0.0240206	-0.01629599	0	0
23.00721	0.009736534	0.3048998	-0.001588291	-0.001079323	-0.09586946	-5.428939E-05	0	0
23.02378	0.009736534	0.3048998	0	0	0.04793473	0.03257403	0	0
23.04035	0.009762848	0.304882	0.001588291	-0.001077524	0.04793473	-0.03251974	0	0
23.05712	0.009762848	0.304882	0	0	-0.04763584	0.03231697	0	0
23.07348	0.009762848	0.304882	0	0	0	0	0	0
23.09005	0.009789161	0.3048641	0.001588291	-0.001079323	0.04823739	-0.03277971	0	0
23.10661	0.009762848	0.3048463	-0.001588474	-0.001077648	-0.09588049	5.054699E-05	0	0
23.12318	0.009762848	0.3048105	0	-0.002156847	0.047943	-0.03257216	0	0
23.13975	0.009710222	0.304739	-0.003176526	-0.004315493	-0.09586776	-0.06514806	0	0
23.15631	0.009552341	0.3045604	-0.009529692	-0.01078424	-0.1917389	-0.195227	0	0
23.17288	0.007657745	0.3032381	-0.114358	-0.07981234	-3.163726	-2.083272	0	0
23.18945	-0.001657893	0.2968402	-0.562293	-0.3861764	-13.5187	-9.246085	0	0
23.20602	-0.01013123	0.2910485	-0.5114518	-0.3495891	1.534391	1.104205	0	0
23.22258	-0.02062865	0.2838781	-0.6336255	-0.4328049	-3.68721	-2.511458	0	0
23.23925	-0.02594155	0.280122	-0.3187421	-0.2253476	9.474296	6.242032	0	0
23.25572	-0.03332976	0.2747725	-0.4487431	-0.3249138	-3.923665	-3.005088	0	0
23.27228	-0.04244817	0.2683829	-0.5503884	-0.3856745	-3.077225	-1.839479	0	0
23.3058	-0.05082461	0.2626711	-0.2499242	-0.1704203	5.999306	4.297936	0	0
23.37613	-0.06189452	0.2551472	-0.1574003	-0.1069812	0.8909754	0.6108978	0	0
23.3927	-0.06189452	0.2551472	0	0	1.811346	1.231128	0	0
23.42583	-0.06189452	0.2551472	0	0	0	0	0	0
23.4424	-0.06189452	0.2551472	0	0	0	0	0	0
23.45897	-0.06189452	0.2551472	0	0	0	0	0	0
23.47553	-0.06189452	0.2551472	0	0	0	0	0	0
23.4921	-0.06189452	0.2551472	0	0	0	0	0	0
23.50867	-0.06189452	0.2551472	0	0	0	0	0	0
23.52546	-0.06189452	0.2551472	0	0	0	0	0	0
23.5418	-0.06189452	0.2551472	0	0	0	0	0	0
23.55837	-0.06189452	0.2551472	0	0	0	0	0	0
23.57493	-0.06189452	0.2551472	0	0	0	0	0	0
23.5915	-0.06189452	0.2551472	0	0	0	0	0	0
23.60807	-0.06189452	0.2551472	0	0	0	0	0	0
23.62463	-0.06189452	0.2551472	0	0	0	0	0	0
23.64154	-0.06189452	0.2551472	0	0	0	0	0	0
23.65777	-0.06189452	0.2551472	0	0	0	0	0	0
23.67433	-0.06189452	0.2551472	0	0	0	0	0	0
23.69107	-0.06189452	0.2551472	0	0	0	0	0	0
23.7112	-0.06189452	0.2551472	0	0	0	0	0	0
23.77747	-0.06178967	0.255183	0.001582333	0.000540561	0.01831544	0.006256974	0	0
23.79403	-0.06150129	0.2551292	0.01740633	-0.003245165	0.1910277	-0.04570137	0	0
23.8106	-0.05898413	0.2535881	0.1519361	-0.09302505	4.060116	-2.709562	0	0
23.82718	-0.05250433	0.2493399	0.3909864	-0.2563343	7.213308	-4.927833	0	0
23.84373	-0.04134485	0.2420048	0.6738981	-0.4429486	8.538782	-5.632353	0	0
23.8603	-0.03243599	0.2360291	0.5377399	-0.3606972	-4.11021	2.482924	0	0
23.87687	-0.02389019	0.2302294	0.5158252	-0.3500685	-0.6613858	0.320773	0	0
23.89344	-0.01305189	0.2228985	0.6542011	-0.4424946	4.176194	-2.789423	0	0
23.91	-0.006105187	0.2182237	0.4193039	-0.2821683	-7.089214	4.838655	0	0
23.92657	0.004973643	0.2107569	0.6687195	-0.450701	7.52738	-5.086327	0	0
23.95107	0.005763094	0.2102168	0.03222765	-0.02204569	-15.50026	10.43889	0	0
23.96764	0.00873662	0.2082184	0.1794617	-0.1206113	3.585372	-2.40022	0	0
23.98429	0.01097324	0.2066878	0.1342917	-0.09190334	-1.359555	0.8640688	0	0
24.01734	0.01097324	0.2067238	0	0.001089917	-2.702058	1.8711	0	0
24.0339	0.01097324	0.2067238	0	0	0	-0.0219688	0	0
24.05047	0.01097324	0.2067598	0	0.002173936	0	0.06560953	0	0
24.06704	0.01099956	0.2067778	0.001588235	0.001086519	0.04793303	-0.03281834	0	0
24.08386	0.01099956	0.2067778	0	0	-0.04756613	-0.03254019	0	0
24.10017	0.01099956	0.2068138	0	0.002209171	0	0.06667677	0	0
24.11688	0.01094693	0.2068498	-0.003148559	0.002154834	-0.09534201	-0.00164539	0	0
24.1333	0.01094693	0.2068498	0	0	0.09502369	-0.06503303	0	0
24.14987	0.01097324	0.2068678	0.001588418	0.001086644	0.04815476	0.03294288	0	0
24.16644	0.01094693	0.2068859	-0.001588235	0.001087418	-0.0958771	2.336911E-05	0	0
24.183	0.01094693	0.2068859	0	0	0.04793303	-0.03281834	0	0
24.19957	0.01094693	0.2068859	0	0	0	0	0	0
24.21614	0.01094693	0.2068859	0	0	0	0	0	0
24.23271	0.01094693	0.2068859	0	0	0	0	0	0
24.24948	0.01094693	0.2068859	0	0	0	0	0	0
24.26599	0.01092062	0.2069039	-0.001593556	0.001090158	-0.04787588	0.0327521	0	0
24.2824	0.01092062	0.2069039	0	0	0.04840007	-0.0331107	0	0
24.29897	0.01092062	0.2069039	0	0	0	0	0	0
24.31554	0.01092062	0.2069039	0	0	0	0	0	0
24.34867	0.01092062	0.2069039	0	0	0	0	0	0
24.36524	0.01092062	0.2069039	0	0	0	0	0	0
24.38181	0.01092062	0.2069039	0	0	0	0	0	0
24.39858	0.01092062	0.2069039	0	0	0	0	0	0
24.41494	0.01092062	0.2069039	0	0	0	0	0	0
24.43161	0.01089431	0.2069219	-0.001578422	0.001080699	-0.04779646	0.03272483	0	0
24.44812	0.01089431	0.2069219	0	0	0.04756842	-0.0325687	0	0
24.46464	0.01086799	0.2069399	-0.001593004	0.001090683	-0.04822964	0.03302142	0	0
24.4812	0.01086799	0.2069399	0	0	0.048149	-0.03296621	0	0
24.49777	0.01084168	0.2069579	-0.001588235	0.001086519	-0.04793303	0.03279119	0	0
24.51434	0.01084168	0.2069579	0	0	0.04793303	-0.03279119	0	0
24.55039	0.01078906	0.2069939	-0.001459677	0.0009989849	-0.02774001	0.01898491	0	0
24.56696	0.01078906	0.2069939	0	0	0.02774001	-0.01898491	0	0
24.58353	0.01078906	0.2069939	0	0	0	0	0	0
24.60009	0.01078906	0.2069939	0	0	0	0	0	0
24.61674	0.01081537	0.2069759	0.00158023	-0.001081042	0.04757369	-0.03254537	0	0
24.63322	0.01081537	0.2069759	0	0	-0.04769419	0.0326278	0	0
24.64979	0.01081537	0.2069759	0	0	0	0	0	0
24.68293	0.01081537	0.2069759	0	0	0	0	0	0
24.6998	0.01081537	0.2069759	0	0	0	0	0	0
24.71606	0.01081537	0.2069759	0	0	0	0	0	0
24.73282	0.01081537	0.2069759	0	0	0	0	0	0
24.74919	0.01081537	0.2069759	0	0	0	0	0	0
24.76584	0.01081537	0.2069759	0	0	0	0	0	0
24.78235	0.01081537	0.2069759	0	0	0	0	0	0
24.79889	0.01081537	0.2069759	0	0	0	0	0	0
24.81546	0.01081537	0.2069759	0	0	0	0	0	0
24.83203	0.01081537	0.2069759	0	0	0	0	0	0
24.84859	0.01081537	0.2069759	0	0	0	0	0	0
24.86516	0.01081537	0.2069759	0	0	0	0	0	0
24.88173	0.01081537	0.2069759	0	0	0	0	0	0
24.89829	0.01081537	0.2069759	0	0	0	0	0	0
24.91486	0.01081537	0.2069759	0	0	0	0	0	0
24.93143	0.01081537	0.2069759	0	0	0	0	0	0
24.948	0.01081537	0.2069759	0	0	0	0	0	0
24.96456	0.01081537	0.2069759	0	0	0	0	0	0
24.98113	0.01081537	0.2069759	0	0	0	0	0	0
24.99801	0.01081537	0.2069759	0	0	0	0	0	0
25.01452	0.01081537	0.2069759	0	0	0	0	0	0
25.03083	0.01081537	0.2069759	0	0	0	0	0	0
25.04755	0.01081537	0.2069759	0	0	0	0	0	0
25.06396	0.01081537	0.2069759	0	0	0	0	0	0
25.08053	0.01081537	0.2069759	0	0	0	0	0	0
25.0971	0.01081537	0.2069759	0	0	0	0	0	0
25.11367	0.01078906	0.2069939	-0.001588235	0.001086519	-0.04793303	0.03279119	0	0
25.13023	0.01078906	0.2069939	0	0	0.04793303	-0.03279119	0	0
25.1468	0.01078906	0.2069939	0	0	0	0	0	0
25.16337	0.01078906	0.2069939	0	0	0	0	0	0
25.17994	0.01078906	0.2069939	0	0	0	0	0	0
25.1965	0.01078906	0.2069939	0	0	0	0	0	0
25.21307	0.01078906	0.2069939	0	0	0	0	0	0
25.22964	0.01078906	0.2069939	0	0	0	0	0	0
25.2462	0.01078906	0.2069939	0	0	0	0	0	0
25.26277	0.01078906	0.2069939	0	0	0	0	0	0
25.27934	0.01078906	0.2069939	0	0	0	0	0	0
25.29591	0.01078906	0.2069939	0	0	0	0	0	0
25.36217	0.01078906	0.2069939	0	0	0	0	0	0
25.37874	0.01078906	0.2069939	0	0	0	0	0	0
25.39531	0.01078906	0.2069939	0	0	0	0	0	0
25.41613	0.01078906	0.2069939	0	0	0	0	0	0
25.4327	0.01078906	0.2069939	0	0	0	0	0	0
25.44934	0.01078906	0.2069939	0	0	0	0	0	0
25.46585	0.01078906	0.2069939	0	0	0	0	0	0
25.4824	0.01078906	0.2069939	0	0	0	0	0	0
25.49897	0.01078906	0.2069939	0	0	0	0	0	0
25.5321	0.01078906	0.2069939	0	0	0	0	0	0
25.54867	0.01078906	0.2069939	0	0	0	0	0	0
25.56524	0.01078906	0.2069939	0	0	0	0	0	0
25.5818	0.01078906	0.2069939	0	0	0	0	0	0
25.59837	0.01078906	0.2069939	0	0	0	0	0	0
25.61496	0.01078906	0.2069939	0	0	0	0	0	0
25.63151	0.01078906	0.2069939	0	0	0	0	0	0
25.64807	0.01078906	0.2069939	0	0	0	0	0	0
25.66464	0.01078906	0.2069939	0	0	0	0	0	0
25.68121	0.01078906	0.2069939	0	0	0	0	0	0
25.69777	0.01078906	0.2069939	0	0	0	0	0	0
25.71434	0.01078906	0.2069939	0	0	0	0	0	0
25.73105	0.01078906	0.2069939	0	0	0	0	0	0
25.74756	0.01078906	0.2069939	0	0	0	0	0	0
25.76404	0.01078906	0.2069939	0	0	0	0	0	0
25.78061	0.01078906	0.2069939	0	0	0	0	0	0
25.79718	0.01078906	0.2069939	0	0	0	0	0	0
25.81374	0.01078906	0.2069939	0	0	0	0	0	0
25.83031	0.01078906	0.2069939	0	0	0	0	0	0
25.84688	0.01078906	0.2069939	0	0	0	0	0	0
25.86345	0.01078906	0.2069939	0	0	0	0	0	0
25.89667	0.01078906	0.2069939	0	0	0	0	0	0
25.91315	0.01078906	0.2069939	0	0	0	0	0	0
25.92971	0.01078906	0.2069939	0	0	0	0	0	0
25.9467	0.01078906	0.2069939	0	0	0	0	0	0
25.96284	0.01078906	0.2069939	0	0	0	0	0	0
25.97972	0.01078906	0.2069939	0	0	0	0	0	0
25.99624	0.01078906	0.2069939	0	0	0	0	0	0
26.01254	0.01078906	0.2069939	0	0	0	0	0	0
26.02926	0.01078906	0.2069939	0	0	0	0	0	0
26.04577	0.01078906	0.2069939	0	0	0	0	0	0
26.06228	0.01078906	0.2069939	0	0	0	0	0	0
26.07881	0.01078906	0.2069939	0	0	0	0	0	0
26.09538	0.01078906	0.2069939	0	0	0	0	0	0
26.11195	0.01078906	0.2069939	0	0	0	0	0	0
26.12851	0.01078906	0.2069939	0	0	0	0	0	0
26.14508	0.01078906	0.2069939	0	0	0	0	0	0
26.16186	0.01078906	0.2069939	0	0	0	0	0	0
26.17837	0.01078906	0.2069939	0	0	0	0	0	0
26.19488	0.01078906	0.2069939	0	0	0	0	0	0
26.21135	0.01078906	0.2069939	0	0	0	0	0	0
26.22791	0.01078906	0.2069939	0	0	0	0	0	0
26.24448	0.01078906	0.2069939	0	0	0	0	0	0
26.26143	0.01078906	0.2069939	0	0	0	0	0	0
26.27762	0.01078906	0.2069939	0	0	0	0	0	0
26.29445	0.01078906	0.2069939	0	0	0	0	0	0
26.31385	0.01078906	0.2069939	0	0	0	0	0	0
26.33042	0.01078906	0.2069939	0	0	0	0	0	0
26.34699	0.01078906	0.2069939	0	0	0	0	0	0
26.39669	0.01078906	0.2069939	0	0	0	0	0	0
26.41326	0.01078906	0.2069939	0	0	0	0	0	0
26.42982	0.01078906	0.2069939	0	0	0	0	0	0
26.44639	0.01078906	0.2069939	0	0	0	0	0	0
26.46307	0.01078906	0.2069939	0	0	0	0	0	0
26.47958	0.01078906	0.2069939	0	0	0	0	0	0
26.49609	0.01078906	0.2069939	0	0	0	0	0	0
26.51265	0.01078906	0.2069939	0	0	0	0	0	0
26.52922	0.01078906	0.2069939	0	0	0	0	0	0
26.54579	0.01078906	0.2069939	0	0	0	0	0	0
26.56236	0.01078906	0.2069939	0	0	0	0	0	0
26.57915	0.01078906	0.2069939	0	0	0	0	0	0
26.59549	0.01078906	0.2069939	0	0	0	0	0	0
26.61205	0.01078906	0.2069939	0	0	0	0	0	0
26.62869	0.01078906	0.2069939	0	0	0	0	0	0
26.6452	0.01078906	0.2069939	0	0	0	0	0	0
26.66175	0.01081537	0.2070119	0.001589333	0.00108817	0.048063	0.03290733	0	0
26.67832	0.01115743	0.207174	0.020647	0.009783164	0.5753602	0.2625061	0	0
26.69489	0.01270984	0.2081644	0.09370368	0.05978011	2.204855	1.508911	0	0
26.71175	0.02026039	0.2130786	0.4478628	0.2914878	10.59523	6.931902	0	0
26.72802	0.02870264	0.2185295	0.5187732	0.3349532	2.140202	1.311861	0	0
26.74459	0.04276339	0.2246599	0.8487083	0.3700315	10.04652	1.068135	0	0
26.76116	0.05937749	0.2253248	1.002829	0.04013553	4.651379	-9.95628	0	0
26.77772	0.08406457	0.2230063	1.490115	-0.1399432	14.70633	-5.434787	0	0
26.79431	0.1015182	0.22004	1.052535	-0.1788841	-13.20012	-1.174698	0	0
26.81086	0.1149645	0.2141583	0.8124604	-0.3553891	-7.245893	-5.327235	0	0
26.82742	0.1271265	0.2062195	0.7340997	-0.4791853	-2.366154	-3.738113	0	0
26.87737	0.1674692	0.1777989	0.8077609	-0.5690507	1.107501	-1.351134	0	0
26.89388	0.1785007	0.1699468	0.6680157	-0.4754833	-2.102768	1.407924	0	0
26.91026	0.1881937	0.1629732	0.591813	-0.4257826	-2.316737	1.511016	0	0
26.9269	0.2018703	0.1531059	0.821641	-0.592793	6.959456	-5.05727	0	0
26.94342	0.2061351	0.1500008	0.2582284	-0.1880089	-16.99013	12.20657	0	0
26.95996	0.2097379	0.1473665	0.21784	-0.1592809	-1.221879	0.8691115	0	0
26.97653	0.2173785	0.1418032	0.4611884	-0.3358026	7.350617	-5.332038	0	0
26.99309	0.2192596	0.1404024	0.113543	-0.08455327	-10.49196	7.582719	0	0
27.00966	0.2212643	0.1388374	0.1210222	-0.09447143	0.2257372	-0.2993479	0	0
27.02647	0.2250434	0.1360157	0.2247405	-0.1678066	3.107152	-2.196945	0	0
27.04299	0.2255685	0.1355969	0.03179869	-0.02536603	-5.789338	4.274015	0	0
27.0595	0.2255185	0.1355969	-0.003027716	0	-1.054584	0.7681129	0	0
27.07601	0.2255185	0.1355969	0	0	0.09168804	0	0	0
27.09249	0.2255435	0.1355787	0.001516034	-0.001104707	0.04594972	-0.03348274	0	0
27.10906	0.2255185	0.1355605	-0.001508354	-0.001099111	-0.09150797	0.000169319	0	0
27.12563	0.2255185	0.135524	0	-0.002198221	0.04552221	-0.03317122	0	0
27.14256	0.2254435	0.135433	-0.004430839	-0.005378795	-0.1322763	-0.09495142	0	0
27.15876	0.2253184	0.1353055	-0.007715016	-0.00786768	-0.09912238	-0.07511901	0	0
27.17558	0.2251434	0.1351416	-0.01040574	-0.009745691	-0.08148294	-0.05687164	0	0
27.19189	0.2251684	0.1350505	0.001532722	-0.005581923	0.3603242	0.12567	0	0
27.23038	0.2300387	0.1309147	0.1265327	-0.1074521	2.280861	-1.858814	0	0
27.28008	0.2304129	0.09592395	0.007528867	-0.7040415	-1.349401	-6.764813	0	0
27.29665	0.2288908	0.07536961	-0.09187288	-1.240662	-1.500018	-8.097854	0	0
27.31322	0.2283666	0.06999857	-0.03164305	-0.3241967	1.81774	27.65898	0	0
27.32978	0.2255935	0.0425519	-0.1674052	-1.656875	-4.097546	-40.22262	0	0
27.34635	0.2236927	0.02618669	-0.1147302	-0.9878061	1.589825	20.19369	0	0
27.36292	0.2212894	0.01049723	-0.1450637	-0.9470181	-0.9154661	1.230984	0	0
27.37948	0.2152447	-0.01219071	-0.3648598	-1.369447	-6.633458	-12.74892	0	0
27.39623	0.2095616	-0.0225989	-0.3392411	-0.6213011	0.768879	22.4537	0	0
27.41274	0.2025521	-0.03079827	-0.4245601	-0.4966304	-2.565039	3.748111	0	0
27.46183	0.1843054	-0.04447471	-0.371732	-0.2786242	0.8053597	3.323487	0	0
27.4784	0.1815319	-0.0465564	-0.1674093	-0.125651	3.112169	2.330032	0	0
27.49496	0.1812773	-0.04678567	-0.01536776	-0.0138385	4.588623	3.374507	0	0
27.51182	0.1812519	-0.04676656	-0.001510157	0.001133502	0.414643	0.4479876	0	0
27.52833	0.1812264	-0.04674746	-0.001542285	0.001157165	-0.0009629131	0.0007092088	0	0
27.54467	0.181201	-0.04672835	-0.001558851	0.001169595	-0.000504325	0.0003783917	0	0
27.56123	0.1811246	-0.04667103	-0.00461157	0.003460477	-0.0927882	0.06963198	0	0
27.5778	0.1810991	-0.04665193	-0.001536236	0.001153077	0.09282443	-0.06964549	0	0
27.59437	0.1810227	-0.04659461	-0.004608755	0.00345769	-0.09270209	0.06953334	0	0
27.61093	0.1809973	-0.04657551	-0.001537121	0.001153741	0.09270208	-0.06953331	0	0
27.6275	0.1809209	-0.04651819	-0.004611408	0.00345968	-0.09280887	0.06961342	0	0
27.64441	0.1806662	-0.04632716	-0.01505671	0.01129561	-0.3119891	0.2340503	0	0
27.66063	0.1805644	-0.04625074	-0.006280133	0.004711018	0.2648928	-0.1987349	0	0
27.6772	0.180437	-0.04619344	-0.007686579	0.003459006	-0.04289603	-0.03818588	0	0
27.69377	0.1803351	-0.04611703	-0.006148544	0.004612082	0.046418	0.03479992	0	0
27.71033	0.1803097	-0.04609792	-0.001538035	0.001153077	0.1391454	-0.104393	0	0
27.7269	0.1802842	-0.04607882	-0.001537136	0.001152852	2.714469E-05	-6.784417E-06	0	0
27.74347	0.1802842	-0.04607882	0	0	0.04639085	-0.03479314	0	0
27.76003	0.1802842	-0.04607882	0	0	0	0	0	0
27.7766	0.1802842	-0.04607882	0	0	0	0	0	0
27.79317	0.1803097	-0.04609792	0.001537136	-0.001152852	0.04639352	-0.03479514	0	0
27.80973	0.1803097	-0.04609792	0	0	-0.04639085	0.03479314	0	0
27.8263	0.1803351	-0.04611703	0.001537858	-0.001152944	0.04640998	-0.03479392	0	0
27.84305	0.1803351	-0.04611703	0	0	-0.04615494	0.03460271	0	0
27.85944	0.1803351	-0.04611703	0	0	0	0	0	0
27.876	0.1803351	-0.04611703	0	0	0	0	0	0
27.89259	0.1803351	-0.04611703	0	0	0	0	0	0
27.90914	0.1803351	-0.04611703	0	0	0	0	0	0
27.9257	0.1803351	-0.04611703	0	0	0	0	0	0
27.94227	0.1803351	-0.04611703	0	0	0	0	0	0
27.95884	0.1803351	-0.04611703	0	0	0	0	0	0
27.9754	0.1803351	-0.04611703	0	0	0	0	0	0
27.99197	0.1803351	-0.04611703	0	0	0	0	0	0
28.00867	0.1803351	-0.04611703	0	0	0	0	0	0
28.02511	0.1803351	-0.04611703	0	0	0	0	0	0
28.0417	0.1803351	-0.04611703	0	0	0	0	0	0
28.05824	0.1803351	-0.04611703	0	0	0	0	0	0
28.07481	0.1803351	-0.04611703	0	0	0	0	0	0
28.11085	0.1803351	-0.04611703	0	0	0	0	0	0
28.14398	0.1802333	-0.04600241	-0.003074721	0.003459006	-0.04444921	0.05000455	0	0
28.16055	0.1799276	-0.04565861	-0.01845013	0.02075178	-0.3093538	0.3479314	0	0
28.17711	0.1787046	-0.04432199	-0.0738185	0.08067895	-1.671021	1.808605	0	0
28.19368	0.1723518	-0.03880995	-0.3834997	0.3327455	-9.346736	7.607821	0	0
28.21032	0.1621173	-0.03070325	-0.6151383	0.4872461	-6.976408	4.653195	0	0
28.22683	0.145053	-0.0176555	-1.033454	0.7902021	-12.61898	9.13902	0	0
28.24338	0.1312671	-0.007414256	-0.8329789	0.6188037	6.063609	-5.184154	0	0
28.25995	0.1218668	-0.0003096735	-0.5674064	0.4288334	8.019148	-5.736286	0	0
28.27687	0.09818328	0.02128891	-1.399726	1.276505	-24.85478	25.31321	0	0
28.29308	0.08973207	0.03208508	-0.5212785	0.6659184	26.51314	-18.4286	0	0
28.30965	0.07674371	0.05764246	-0.7839789	1.542646	-8.014119	26.74607	0	0
28.3264	0.06996457	0.07817237	-0.4046251	1.225363	11.3847	-9.521923	0	0
28.34291	0.0612129	0.1124722	-0.5300209	2.077276	-3.769482	25.60909	0	0
28.35942	0.05678101	0.1328646	-0.2684061	1.23501	7.921999	-25.5048	0	0
28.37594	0.05405256	0.145749	-0.1652409	0.7803097	3.123964	-13.76885	0	0
28.39248	0.04714924	0.1734398	-0.4172617	1.673734	-7.623998	27.02739	0	0
28.40905	0.04457572	0.1833837	-0.1553382	0.6002142	7.910332	-32.42128	0	0
28.42597	0.04013633	0.2028508	-0.2622851	1.150144	-3.193107	16.41921	0	0
28.44218	0.03771894	0.2162092	-0.1491593	0.8242505	3.41434	-9.836041	0	0
28.45875	0.03569536	0.2316123	-0.1221438	0.9297315	0.8242952	3.218441	0	0
28.47532	0.03451261	0.2413231	-0.07139115	0.5861435	1.531719	-10.36951	0	0
28.49188	0.03369777	0.2471883	-0.04918385	0.3540243	0.6702176	-7.005373	0	0
28.50853	0.0303328	0.2585514	-0.2020861	0.6824241	-4.602942	9.886088	0	0
28.52504	0.02775603	0.2618831	-0.1560732	0.2017982	1.387555	-14.49364	0	0
28.54158	0.02325896	0.2689916	-0.2719129	0.4298109	-3.505128	6.899309	0	0
28.55815	0.0224436	0.2713722	-0.04921544	0.1436957	6.726831	-8.642439	0	0
28.57472	0.02175972	0.2723745	-0.04127894	0.06049606	0.2395243	-2.510969	0	0
28.59128	0.02026039	0.2733946	-0.09050012	0.06157358	-1.485498	0.03251966	0	0
28.6081	0.02015517	0.2734661	-0.006255359	0.004253955	2.523194	-1.716766	0	0
28.62442	0.02015517	0.2734661	0	0	0.1887871	-0.1283846	0	0
28.64099	0.02015517	0.2734661	0	0	0	0	0	0
28.65764	0.02018147	0.2734483	0.001579365	-0.001073637	0.04753945	-0.03231686	0	0
28.67412	0.02020778	0.2734304	0.001596295	-0.001085069	0.0005109604	-0.0003450285	0	0
28.69069	0.02023408	0.2733767	0.001587729	-0.003241567	-0.0002592145	-0.06525601	0	0
28.72382	0.02036561	0.2732514	0.003969436	-0.003780329	0.04792003	-0.01083991	0	0
28.74039	0.02039191	0.2732335	0.001587729	-0.001081122	-0.04792003	0.05430815	0	0
28.75696	0.02039191	0.2732335	0	0	-0.04791776	0.03262833	0	0
28.77352	0.02036561	0.2732156	-0.001587729	-0.001079323	-0.04791776	-0.03257403	0	0
28.79009	0.02039191	0.2731977	0.001587729	-0.001081122	0.09583552	-5.42929E-05	0	0
28.80666	0.02036561	0.2731798	-0.001587729	-0.001079323	-0.09583552	5.42929E-05	0	0
28.87292	0.0203393	0.2730545	-0.0003969437	-0.001890669	0.01437552	-0.00979481	0	0
28.88981	0.02031299	0.2730367	-0.001557889	-0.001058963	-0.01396159	0.01000214	0	0
28.90606	0.02031299	0.2730367	0	0	0.04701989	0.03196141	0	0
28.92283	0.02026039	0.2730009	-0.003135747	-0.002133427	-0.09495406	-0.06460265	0	0
28.93919	0.02015517	0.2728935	-0.006431854	-0.006563702	-0.09947099	-0.1336983	0	0
28.95586	0.02002364	0.2727682	-0.007892641	-0.007518313	-0.04423432	-0.02890672	0	0
28.97233	0.01991842	0.2726966	-0.006389393	-0.004346913	0.04537075	0.09571854	0	0
28.98889	0.01841897	0.2716765	-0.09050686	-0.06157538	-2.546292	-1.732344	0	0
29.00546	0.01836636	0.2716049	-0.003175796	-0.00432089	2.635657	1.727944	0	0
29.02624	0.01839266	0.271587	0.001265874	-0.0008618415	0.1189212	0.09261248	0	0
29.04292	0.01841897	0.2715691	0.001577309	-0.001072164	0.008313722	-0.005614535	0	0
29.05943	0.01847158	0.2714975	0.003186434	-0.004335364	0.04848256	-0.09831946	0	0
29.07594	0.0185242	0.2714259	0.003186321	-0.004337169	-3.419435E-06	-5.465456E-05	0	0
29.09251	0.0185505	0.2713364	0.00158832	-0.005401457	-0.048314	-0.03217768	0	0
29.10947	0.01860312	0.2712648	0.003102461	-0.00422302	0.04516906	0.03515448	0	0
29.12564	0.01860312	0.2711932	0	-0.004425855	-0.09363786	-0.006121913	0	0
29.14221	0.01860312	0.2711217	0	-0.00432089	0	0.003205871	0	0
29.15878	0.01865573	0.2709785	0.003175796	-0.008643579	0.0958457	-0.130459	0	0
29.17551	0.01876096	0.2709069	0.006286343	-0.004276578	0.09339267	0.131117	0	0
29.19191	0.01889249	0.2708174	0.008022445	-0.005458571	0.05239567	-0.03567261	0	0
29.20848	0.0189188	0.2707637	0.001587842	-0.003241567	-0.195208	0.06725776	0	0
29.22504	0.01912924	0.2706205	0.01270273	-0.008641779	0.3354481	-0.1629787	0	0
29.24161	0.02036561	0.2697434	0.07462687	-0.0529408	1.868874	-1.336947	0	0
29.27475	0.02673047	0.265411	0.1920921	-0.1307537	2.363405	-1.565599	0	0
29.30788	0.04231683	0.2547888	0.47037	-0.3205594	4.199101	-2.864091	0	0
29.32445	0.04436561	0.2533909	0.1236788	-0.08438399	-6.975441	4.751858	0	0
29.34101	0.04638775	0.2520109	0.1220709	-0.08331174	-0.04853307	0.03236431	0	0
29.35758	0.04657156	0.2518854	0.01109499	-0.00757325	-3.349451	2.285924	0	0
29.37415	0.04657156	0.2518854	0	0	-0.3348475	0.2285611	0	0
29.39071	0.04659782	0.2518675	0.001585031	-0.001081122	0.04783633	-0.03262833	0	0
29.40728	0.04662408	0.2518495	0.001584848	-0.001082796	-5.505215E-06	-5.052361E-05	0	0
29.42385	0.04662408	0.2518495	0	0	-0.04783357	0.03268073	0	0
29.44041	0.04662408	0.2518495	0	0	0	0	0	0
29.45698	0.04662408	0.2518495	0	0	0	0	0	0
29.47355	0.04665034	0.2518316	0.001585171	-0.001081371	0.04784331	-0.03263772	0	0
29.49011	0.04665034	0.2518316	0	0	-0.04784606	0.0326396	0	0
29.50668	0.04665034	0.2518316	0	0	0	0	0	0
29.52325	0.04665034	0.2518316	0	0	0	0	0	0
29.53982	0.04665034	0.2518316	0	0	0	0	0	0
29.55638	0.04665034	0.2518316	0	0	0	0	0	0
29.60633	0.04665034	0.2518316	0	0	0	0	0	0
29.62265	0.04665034	0.2518316	0	0	0	0	0	0
29.63922	0.04665034	0.2518316	0	0	0	0	0	0
29.65578	0.04665034	0.2518316	0	0	0	0	0	0
29.67237	0.04665034	0.2518316	0	0	0	0	0	0
29.68892	0.04665034	0.2518316	0	0	0	0	0	0
29.7059	0.04665034	0.2518316	0	0	0	0	0	0
29.72205	0.04665034	0.2518316	0	0	0	0	0	0
29.73862	0.04665034	0.2518316	0	0	0	0	0	0
29.75518	0.04665034	0.2518316	0	0	0	0	0	0
29.77194	0.04665034	0.2518316	0	0	0	0	0	0
29.78845	0.04665034	0.2518316	0	0	0	0	0	0
29.80488	0.04665034	0.2518316	0	0	0	0	0	0
29.82145	0.04665034	0.2518316	0	0	0	0	0	0
29.83802	0.04665034	0.2518316	0	0	0	0	0	0
29.85458	0.04662408	0.2518495	-0.001584806	0.001081122	-0.04782954	0.03262833	0	0
29.87115	0.04662408	0.2518495	0	0	0.04782954	-0.03262833	0	0
29.88772	0.04662408	0.2518495	0	0	0	0	0	0
29.90454	0.04662408	0.2518495	0	0	0	0	0	0
29.92388	0.04662408	0.2518495	0	0	0	0	0	0
29.94056	0.04662408	0.2518495	0	0	0	0	0	0
29.95702	0.04662408	0.2518495	0	0	0	0	0	0
29.97359	0.04662408	0.2518495	0	0	0	0	0	0
29.99015	0.04665034	0.2518316	0.001584806	-0.001081122	0.04782954	-0.03262833	0	0
30.00672	0.04665034	0.2518316	0	0	-0.04782954	0.03262833	0	0
30.02328	0.04665034	0.2518316	0	0	0	0	0	0
30.03985	0.04665034	0.2518316	0	0	0	0	0	0
30.05665	0.04665034	0.2518316	0	0	0	0	0	0
30.07299	0.04665034	0.2518316	0	0	0	0	0	0
30.08955	0.04665034	0.2518316	0	0	0	0	0	0
30.10618	0.04665034	0.2518316	0	0	0	0	0	0
30.1227	0.04665034	0.2518316	0	0	0	0	0	0
30.13925	0.04665034	0.2518316	0	0	0	0	0	0
30.15582	0.04665034	0.2518316	0	0	0	0	0	0
30.17239	0.04665034	0.2518316	0	0	0	0	0	0
30.19639	0.04665034	0.2518316	0	0	0	0	0	0
30.21296	0.04665034	0.2518316	0	0	0	0	0	0
30.22977	0.04665034	0.2518316	0	0	0	0	0	0
30.24609	0.04665034	0.2518316	0	0	0	0	0	0
30.26279	0.04662408	0.2518495	-0.001571777	0.001072234	-0.04759799	0.03247036	0	0
30.27922	0.04662408	0.2518495	0	0	0.04743906	-0.03236195	0	0
30.32892	0.04662408	0.2518495	0	0	0	0	0	0
30.34549	0.04662408	0.2518495	0	0	0	0	0	0
30.36206	0.04662408	0.2518495	0	0	0	0	0	0
30.37862	0.04665034	0.2518316	0.001584806	-0.001081122	0.0478323	-0.03263021	0	0
30.39519	0.04665034	0.2518316	0	0	-0.04782954	0.03262833	0	0
30.41176	0.04665034	0.2518316	0	0	0	0	0	0
30.42832	0.04665034	0.2518316	0	0	0	0	0	0
30.44493	0.04665034	0.2518316	0	0	0	0	0	0
30.46146	0.04662408	0.2518495	-0.001588097	0.001083367	-0.04792887	0.03269608	0	0
30.47803	0.04665034	0.2518316	0.001584806	-0.001081122	0.09585772	-0.06539217	0	0
30.49459	0.04665034	0.2518316	0	0	-0.04782954	0.03262833	0	0
30.51116	0.04665034	0.2518316	0	0	0	0	0	0
30.52773	0.04665034	0.2518316	0	0	0	0	0	0
30.5445	0.04662408	0.2518495	-0.001565521	0.001067966	-0.04695828	0.03203397	0	0
30.56101	0.04665034	0.2518316	0.001590115	-0.001084744	0.09481157	-0.0646785	0	0
30.57752	0.04662408	0.2518495	-0.001590115	0.001084744	-0.09630105	0.06569459	0	0
30.59403	0.04662408	0.2518495	0	0	0.04815052	-0.03284729	0	0
30.61056	0.04662408	0.2518495	0	0	0	0	0	0
30.62713	0.04662408	0.2518495	0	0	0	0	0	0
30.67683	0.04662408	0.2518495	0	0	0	0	0	0
30.72663	0.04665034	0.2518316	0.0005271762	-0.0003596287	0.005297914	-0.003614127	0	0
30.7431	0.04665034	0.2518316	0	0	-0.007955104	0.005426808	0	0
30.75967	0.04665034	0.2518316	0	0	0	0	0	0
30.77623	0.04662408	0.2518495	-0.001584806	0.001081122	-0.04782954	0.03262833	0	0
30.79318	0.04662408	0.2518495	0	0	0.04729054	-0.03226063	0	0
30.80969	0.04665034	0.2518316	0.001590115	-0.001084744	0.0475274	-0.03242221	0	0
30.82965	0.04662408	0.2518495	-0.001315522	0.0008974221	-0.07967108	0.05434997	0	0
30.84622	0.04662408	0.2518495	0	0	0.03601632	-0.02456959	0	0
30.86278	0.04662408	0.2518495	0	0	0	0	0	0
30.87935	0.04662408	0.2518495	0	0	0	0	0	0
30.89592	0.04662408	0.2518495	0	0	0	0	0	0
30.91249	0.04662408	0.2518495	0	0	0	0	0	0
30.92905	0.04662408	0.2518495	0	0	0	0	0	0
30.96219	0.04662408	0.2518495	0	0	0	0	0	0
30.97875	0.04662408	0.2518495	0	0	0	0	0	0
30.99532	0.04662408	0.2518495	0	0	0	0	0	0
31.01189	0.04662408	0.2518495	0	0	0	0	0	0
31.02846	0.04662408	0.2518495	0	0	0	0	0	0
31.04502	0.04662408	0.2518495	0	0	0	0	0	0
31.06159	0.04662408	0.2518495	0	0	0	0	0	0
31.07816	0.04662408	0.2518495	0	0	0	0	0	0
31.0949	0.04662408	0.2518495	0	0	0	0	0	0
31.11141	0.04662408	0.2518495	0	0	0	0	0	0
31.12792	0.04662408	0.2518495	0	0	0	0	0	0
31.14442	0.04662408	0.2518495	0	0	0	0	0	0
31.16099	0.04662408	0.2518495	0	0	0	0	0	0
31.17756	0.04662408	0.2518495	0	0	0	0	0	0
31.19413	0.04662408	0.2518495	0	0	0	0	0	0
31.21069	0.04662408	0.2518495	0	0	0	0	0	0
31.22726	0.04662408	0.2518495	0	0	0	0	0	0
31.24383	0.04662408	0.2518495	0	0	0	0	0	0
31.2604	0.04662408	0.2518495	0	0	0	0	0	0
31.27703	0.04662408	0.2518495	0	0	0	0	0	0
31.29354	0.04662408	0.2518495	0	0	0	0	0	0
31.3101	0.04662408	0.2518495	0	0	0	0	0	0
31.32666	0.04662408	0.2518495	0	0	0	0	0	0
31.34323	0.04662408	0.2518495	0	0	0	0	0	0
31.3598	0.04662408	0.2518495	0	0	0	0	0	0
31.3766	0.04662408	0.2518495	0	0	0	0	0	0
31.39293	0.04662408	0.2518495	0	0	0	0	0	0
31.40963	0.04662408	0.2518495	0	0	0	0	0	0
31.42614	0.04662408	0.2518495	0	0	0	0	0	0
31.44265	0.04665034	0.2518316	0.001590115	-0.001084744	0.04815052	-0.03284729	0	0
31.4592	0.04665034	0.2518316	0	0	-0.04810052	0.03281318	0	0
31.47577	0.04665034	0.2518316	0	0	0	0	0	0
31.49233	0.04665034	0.2518316	0	0	0	0	0	0
31.58976	0.04665034	0.2518316	0	0	0	0	0	0
31.60627	0.04665034	0.2518316	0	0	0	0	0	0
31.6227	0.04665034	0.2518316	0	0	0	0	0	0
31.63927	0.04665034	0.2518316	0	0	0	0	0	0
31.65583	0.04665034	0.2518316	0	0	0	0	0	0
31.6724	0.04665034	0.2518316	0	0	0	0	0	0
31.68897	0.04665034	0.2518316	0	0	0	0	0	0
31.70553	0.04665034	0.2518316	0	0	0	0	0	0
31.7221	0.04665034	0.2518316	0	0	0	0	0	0
31.73886	0.04665034	0.2518316	0	0	0	0	0	0
31.75523	0.04665034	0.2518316	0	0	0	0	0	0
31.7718	0.04665034	0.2518316	0	0	0	0	0	0
31.78837	0.04665034	0.2518316	0	0	0	0	0	0
31.80494	0.04665034	0.2518316	0	0	0	0	0	0
31.84155	0.04665034	0.2518316	0	0	0	0	0	0
31.85845	0.04665034	0.2518316	0	0	0	0	0	0
31.87496	0.04665034	0.2518316	0	0	0	0	0	0
31.89125	0.04665034	0.2518316	0	0	0	0	0	0
31.90782	0.04665034	0.2518316	0	0	0	0	0	0
31.9245	0.04665034	0.2518316	0	0	0	0	0	0
31.94095	0.04665034	0.2518316	0	0	0	0	0	0
31.95752	0.04665034	0.2518316	0	0	0	0	0	0
31.97408	0.04665034	0.2518316	0	0	0	0	0	0
31.99065	0.04665034	0.2518316	0	0	0	0	0	0
32.00722	0.04665034	0.2518316	0	0	0	0	0	0
32.02378	0.04665034	0.2518316	0	0	0	0	0	0
32.04058	0.04665034	0.2518316	0	0	0	0	0	0
32.05692	0.04665034	0.2518316	0	0	0	0	0	0
32.0736	0.04665034	0.2518316	0	0	0	0	0	0
32.09005	0.04665034	0.2518316	0	0	0	0	0	0
32.10662	0.04665034	0.2518316	0	0	0	0	0	0
32.12319	0.04665034	0.2518316	0	0	0	0	0	0
32.13976	0.04665034	0.2518316	0	0	0	0	0	0
32.15632	0.04665034	0.2518316	0	0	0	0	0	0
32.17318	0.04665034	0.2518316	0	0	0	0	0	0
32.18946	0.04665034	0.2518316	0	0	0	0	0	0
32.27229	0.04665034	0.2518316	0	0	0	0	0	0
32.28886	0.04665034	0.2518316	0	0	0	0	0	0
32.30543	0.04665034	0.2518316	0	0	0	0	0	0
32.32199	0.04665034	0.2518316	0	0	0	0	0	0
32.33856	0.04665034	0.2518316	0	0	0	0	0	0
32.35513	0.04665034	0.2518316	0	0	0	0	0	0
32.3717	0.04665034	0.2518316	0	0	0	0	0	0
32.38826	0.04665034	0.2518316	0	0	0	0	0	0
32.40483	0.04665034	0.2518316	0	0	0	0	0	0
32.4214	0.04665034	0.2518316	0	0	0	0	0	0
32.43797	0.04665034	0.2518316	0	0	0	0	0	0
32.4711	0.04665034	0.2518316	0	0	0	0	0	0
32.48767	0.04665034	0.2518316	0	0	0	0	0	0
32.50423	0.04665034	0.2518316	0	0	0	0	0	0
32.52094	0.04665034	0.2518316	0	0	0	0	0	0
32.53736	0.04665034	0.2518316	0	0	0	0	0	0
32.55396	0.04665034	0.2518316	0	0	0	0	0	0
32.5705	0.04665034	0.2518316	0	0	0	0	0	0
32.58707	0.04662408	0.2518495	-0.001584806	0.001081122	-0.04786812	0.03265464	0	0
32.60363	0.04662408	0.2518495	0	0	0.04782954	-0.03262833	0	0
32.6202	0.04662408	0.2518495	0	0	0	0	0	0
32.63677	0.04662408	0.2518495	0	0	0	0	0	0
32.65334	0.04662408	0.2518495	0	0	0	0	0	0
32.6699	0.04662408	0.2518495	0	0	0	0	0	0
32.68647	0.04662408	0.2518495	0	0	0	0	0	0
32.70304	0.04662408	0.2518495	0	0	0	0	0	0
32.7196	0.04662408	0.2518495	0	0	0	0	0	0
32.74179	0.04662408	0.2518495	0	0	0	0	0	0
32.75835	0.04662408	0.2518495	0	0	0	0	0	0
32.77492	0.04662408	0.2518495	0	0	0	0	0	0
32.79149	0.04662408	0.2518495	0	0	0	0	0	0
32.80814	0.04662408	0.2518495	0	0	0	0	0	0
32.82465	0.04662408	0.2518495	0	0	0	0	0	0
32.84119	0.04659782	0.2518316	-0.001588322	-0.001083367	-0.04806848	-0.03278667	0	0
32.85775	0.04625645	0.2516344	-0.02060518	-0.01190134	-0.5745251	-0.3268256	0	0
32.87432	0.04565247	0.2512222	-0.03645661	-0.02488559	-0.4783973	-0.3918656	0	0
32.89089	0.04470703	0.2506486	-0.05706651	-0.03462289	-0.6220079	-0.2938721	0	0
32.90746	0.0348543	0.2445699	-0.5947122	-0.366906	-16.22618	-10.02832	0	0
32.92422	0.01791913	0.2368189	-1.009884	-0.4622162	-12.45393	-2.859023	0	0
32.94074	0.0007631577	0.2337671	-1.038646	-0.1847593	-0.8640414	8.33528	0	0
32.99029	-0.07496452	0.2365855	-1.528454	0.05688635	-7.414262	3.65781	0	0
33.00686	-0.09043685	0.2375547	-0.9339113	0.05850201	8.992887	0.02443807	0	0
33.02342	-0.1251581	0.2404798	-2.095782	0.1765575	-35.06532	3.562921	0	0
33.03999	-0.1425786	0.2425609	-1.051499	0.1256179	31.51652	-1.537359	0	0
33.05682	-0.1566019	0.2454129	-0.8332106	0.1694517	6.536036	1.312482	0	0
33.07312	-0.1693108	0.2507203	-0.7796776	0.3256019	1.615814	4.713163	0	0
33.08969	-0.1740116	0.254054	-0.2837406	0.2012272	15.08901	-3.784132	0	0
33.10625	-0.1824737	0.2600024	-0.5107762	0.3590458	-6.851948	4.762975	0	0
33.12286	-0.1881937	0.2639963	-0.3443861	0.2404632	5.015311	-3.574305	0	0
33.13939	-0.194484	0.2684366	-0.3807327	0.2687601	-1.097067	0.8541024	0	0
33.15595	-0.1977498	0.2707458	-0.1971258	0.1393802	5.548933	-3.910096	0	0
33.17252	-0.1998488	0.2722313	-0.1266972	0.08966656	2.125537	-1.50036	0	0
33.18909	-0.2020471	0.2737883	-0.1326875	0.09397846	-0.1807857	0.1301333	0	0
33.20565	-0.2020471	0.2737883	0	0	4.004516	-2.836276	0	0
33.22222	-0.2020471	0.2737883	0	0	0	0	0	0
33.28849	-0.2020218	0.2738062	0.000381136	0.0002698308	0.004601082	0.003257403	0	0
33.30506	-0.2020218	0.2738062	0	0	-0.004601082	-0.003257403	0	0
33.32162	-0.2020218	0.2738062	0	0	0	0	0	0
33.33819	-0.2019965	0.2737883	0.001524544	-0.001079323	0.04601083	-0.03257403	0	0
33.35476	-0.2019965	0.2737883	0	0	-0.04601083	0.03257403	0	0
33.37154	-0.2019713	0.2737704	0.001504794	-0.001065341	0.04511869	-0.03194244	0	0
33.38789	-0.201946	0.2737525	0.001545179	-0.001095755	0.001218974	-0.0009180186	0	0
33.40446	-0.201946	0.2737525	0	0	-0.04694709	0.03329227	0	0
33.42108	-0.2018955	0.2737167	0.00303929	-0.002153503	0.09157836	-0.06488826	0	0
33.43759	-0.2018955	0.2737167	0	0	-0.09173652	0.06500033	0	0
33.45415	-0.2018703	0.273663	0.001524544	-0.003239768	0.04609042	-0.09794554	0	0
33.47072	-0.201845	0.2736451	0.001524544	-0.001081122	0	0.06514806	0	0
33.48729	-0.2018197	0.2736272	0.001524544	-0.001079323	0	5.42929E-05	0	0
33.50386	-0.2018197	0.2735914	0	-0.002160445	-0.04601083	-0.03262832	0	0
33.52042	-0.2018197	0.2735914	0	0	0	0.06520236	0	0
33.53716	-0.2018197	0.2735914	0	0	0	0	0	0
33.55356	-0.2018703	0.2735198	-0.003081012	-0.00436613	-0.09298512	-0.1317701	0	0
33.57013	-0.2025521	0.2729293	-0.04115818	-0.03564644	-1.155156	-0.948958	0	0
33.58669	-0.2052777	0.2709606	-0.164514	-0.1188317	-3.722887	-2.510535	0	0
33.60326	-0.215772	0.2633159	-0.6334412	-0.4614358	-14.15225	-10.33981	0	0
33.61983	-0.2200617	0.2601815	-0.2589242	-0.1891873	11.30295	8.216475	0	0
33.63639	-0.228017	0.2541974	-0.4801836	-0.3612027	-6.677622	-5.191432	0	0
33.65665	-0.234649	0.2481027	-0.3274085	-0.300882	4.148875	1.638111	0	0
33.67326	-0.2385536	0.2424533	-0.2350847	-0.3401389	2.504361	-1.064875	0	0
33.68979	-0.2434177	0.2353828	-0.294343	-0.4278588	-1.788419	-2.647392	0	0
33.70635	-0.2445576	0.228523	-0.06880324	-0.4140625	6.815433	0.4169011	0	0
33.72292	-0.2457216	0.2211727	-0.07025944	-0.443662	-0.04394801	-0.8933161	0	0
33.73949	-0.247627	0.2128807	-0.1150154	-0.5005091	-1.350737	-1.715647	0	0
33.75605	-0.2490612	0.2082364	-0.08656261	-0.2803263	0.8587058	6.64513	0	0
33.77283	-0.2497284	0.2061294	-0.03977127	-0.1255871	1.40328	4.640653	0	0
33.7892	-0.2512844	0.2040219	-0.09508213	-0.1287833	-1.668901	-0.09644049	0	0
33.80585	-0.2525678	0.203085	-0.07703909	-0.05623855	0.5463644	2.19674	0	0
33.82232	-0.2525678	0.203085	0	0	2.325848	1.697869	0	0
33.83889	-0.2525678	0.203085	0	0	0	0	0	0
33.85589	-0.2525678	0.203085	0	0	0	0	0	0
33.87202	-0.2525678	0.203085	0	0	0	0	0	0
33.88858	-0.2525678	0.203085	0	0	0	0	0	0
33.90515	-0.2525678	0.203085	0	0	0	0	0	0
33.92172	-0.2525678	0.203085	0	0	0	0	0	0
33.93829	-0.2525925	0.2031031	-0.001489466	0.001088317	-0.04495217	0.03284548	0	0
33.95496	-0.2525925	0.2031031	0	0	0.04480772	-0.03273994	0	0
33.97142	-0.2525925	0.2031031	0	0	0	0	0	0
33.98799	-0.2526172	0.2031211	-0.001489466	0.001087418	-0.04509754	0.03292447	0	0
34.00455	-0.2526172	0.2031211	0	0	0.04495217	-0.03281834	0	0
34.02112	-0.2526418	0.2031391	-0.001489466	0.001087418	-0.04495217	0.03281834	0	0
34.03769	-0.2526418	0.2031391	0	0	0.04495217	-0.03281834	0	0
34.05426	-0.2526418	0.2031391	0	0	0	0	0	0
34.1371	-0.2526418	0.2031751	0	0.0004349472	0	0.004375409	0	0
34.15366	-0.2526418	0.2031751	0	0	0	-0.004375577	0	0
34.17023	-0.2526665	0.2031571	-0.001489466	-0.001087418	-0.04495734	-0.03282212	0	0
34.18679	-0.2526665	0.2031571	0	0	0.04495217	0.03281834	0	0
34.20336	-0.2526418	0.2031391	0.001489466	-0.001087418	0.04495217	-0.03281834	0	0
34.21993	-0.2526172	0.2031211	0.001489466	-0.001087418	0	0	0	0
34.2365	-0.2526172	0.2031211	0	0	-0.04495217	0.03281834	0	0
34.25306	-0.2526172	0.2031211	0	0	0	0	0	0
34.26969	-0.2526172	0.2031211	0	0	0	0	0	0
34.2862	-0.2525925	0.2031391	0.001494973	0.001091439	0.04511839	0.03293969	0	0
34.30276	-0.2525925	0.2031391	0	0	-0.04520165	-0.03300048	0	0
34.31933	-0.2525925	0.2031391	0	0	0	0	0	0
34.3359	-0.2525925	0.2031391	0	0	0	0	0	0
34.35247	-0.2525431	0.2031391	0.002978932	0	0.08990434	0	0	0
34.36903	-0.2525185	0.2031571	0.001487667	0.001087418	-0.04500646	0.03281834	0	0
34.3856	-0.2524938	0.2031751	0.001489466	0.001087418	5.428939E-05	0	0	0
34.40217	-0.2524444	0.2032112	0.002978932	0.002174836	0.04495217	0.03281834	0	0
34.41874	-0.2523457	0.2032832	0.005957863	0.004350571	0.08990434	0.06566383	0	0
34.4353	-0.2519756	0.2035535	0.02234379	0.01631217	0.4945282	0.3610017	0	0
34.45187	-0.25163	0.2038057	0.02085612	0.01522475	-0.04489787	-0.03281834	0	0
34.46844	-0.2504448	0.2046704	0.07154113	0.05219516	1.529677	1.115769	0	0
34.48535	-0.2480475	0.2063816	0.1417315	0.1011652	2.096386	1.462595	0	0
34.50157	-0.2412104	0.2109189	0.4216177	0.2797982	8.447955	5.391775	0	0
34.51814	-0.2323825	0.2159034	0.5328546	0.3008676	3.393075	0.642684	0	0
34.53737	-0.2058073	0.2235276	1.381426	0.3963175	23.69997	2.665844	0	0
34.5544	-0.1897169	0.225181	0.9451025	0.09711885	-12.03236	-8.250907	0	0
34.57051	-0.1618353	0.2272474	1.730758	0.1282717	23.71114	0.940195	0	0
34.60364	-0.08432587	0.231307	2.339241	0.1225185	12.35649	-0.1168315	0	0
34.62021	-0.06726678	0.2319535	1.029689	0.03902293	-26.34823	-1.679933	0	0
34.63678	-0.04512724	0.2325281	1.336345	0.03468405	9.254908	-0.1309476	0	0
34.65334	-0.02152299	0.232564	1.424755	0.00216854	2.668205	-0.98132	0	0
34.66991	-0.008683993	0.2314866	0.7749635	-0.06503551	-19.61075	-2.028222	0	0
34.68648	0.002026313	0.2276966	0.6464753	-0.2287661	-3.877781	-4.9414	0	0
34.70304	0.007552488	0.223923	0.3335606	-0.2277731	-9.443786	0.02996785	0	0
34.71961	0.01299927	0.2202018	0.3287683	-0.2246116	-0.1446329	0.09541485	0	0
34.73618	0.01552507	0.2184755	0.1524576	-0.1041996	-5.321065	3.634041	0	0
34.75275	0.01555138	0.2184575	0.001588066	-0.001085619	-4.553253	3.111988	0	0
34.76931	0.01552507	0.2184755	-0.001588066	0.001085619	-0.09585588	0.06552809	0	0
34.78588	0.01552507	0.2184755	0	0	0.04792794	-0.03276405	0	0
34.80245	0.01555138	0.2184575	0.001588066	-0.001085619	0.04792794	-0.03276405	0	0
34.81902	0.01552507	0.2184395	-0.001588066	-0.00108472	-0.09585588	2.714469E-05	0	0
34.83561	0.01552507	0.2184395	0	0	0.04789486	0.03271431	0	0
34.85215	0.01549876	0.2184575	-0.001590207	0.00108622	-0.04799255	0.03278219	0	0
34.86872	0.01544614	0.2184575	-0.003176133	0	-0.04789642	-0.03280485	0	0
34.88564	0.01539352	0.2184216	-0.00310879	-0.002124359	0.002010657	-0.06342688	0	0
34.90185	0.01539352	0.2184216	0	0	0.09382346	0.06411329	0	0
34.91842	0.0153409	0.2184216	-0.003176077	0	-0.09690287	0	0	0
34.93518	0.01528828	0.2184575	-0.003139268	0.002145148	0.001104396	0.06436279	0	0
35.00126	0.01520935	0.2184395	-0.001194543	-0.0002719784	0.02347677	-0.02917961	0	0
35.01782	0.01515673	0.2184395	-0.003176133	0	-0.02397812	0.003291059	0	0
35.03439	0.01510411	0.2183676	-0.003176133	-0.004342476	0	-0.1310562	0	0
35.05096	0.0150778	0.2183496	-0.001588066	-0.001085619	0.04792794	0.09829215	0	0
35.06752	0.0150515	0.2183316	-0.00158801	-0.001085619	1.696983E-06	0	0	0
35.08409	0.0150515	0.2183316	0	0	0.04792624	0.03276405	0	0
35.1008	0.0150515	0.2183316	0	0	0	0	0	0
35.13383	0.01502519	0.2183136	-0.0007965091	-0.0005445021	-0.01601228	-0.01094616	0	0
35.15036	0.01502519	0.2183136	0	0	0.01607267	0.01098745	0	0
35.16693	0.01502519	0.2183136	0	0	0	0	0	0
35.18349	0.01502519	0.2183136	0	0	0	0	0	0
35.20006	0.01502519	0.2183136	0	0	0	0	0	0
35.21663	0.01502519	0.2183136	0	0	0	0	0	0
35.2332	0.01502519	0.2183136	0	0	0	0	0	0
35.24976	0.01499888	0.2183316	-0.001588432	0.001085869	-0.0479445	0.03277537	0	0
35.26633	0.01499888	0.2183316	0	0	0.0479445	-0.03277537	0	0
35.28289	0.01497257	0.2183496	-0.001588066	0.001085619	-0.04792794	0.03276405	0	0
35.29946	0.01494626	0.2183676	-0.001588066	0.001085619	0	0	0	0
35.31646	0.01489364	0.2184036	-0.003095644	0.002116178	-0.04491447	0.03070289	0	0
35.3326	0.01486733	0.2184216	-0.00163049	0.00111462	0.04421844	-0.03022706	0	0
35.34916	0.01484102	0.2184395	-0.001588066	0.001085619	0.00129722	-0.0008867932	0	0
35.36573	0.0147884	0.2184755	-0.003176133	0.002170339	-0.04792794	0.0327369	0	0
35.3823	0.01473578	0.2185115	-0.003176189	0.002171238	-1.700496E-06	2.714469E-05	0	0
35.39886	0.01470947	0.2185295	-0.001588066	0.001085619	0.04792964	-0.03276405	0	0
35.41553	0.01470947	0.2185295	0	0	0.04777942	-0.03266252	0	0
35.432	0.01470947	0.2185295	0	0	0	0	0	0
35.44857	0.01470947	0.2185295	0	0	0	0	0	0
35.46513	0.01473578	0.2185115	0.001588066	-0.001085619	0.04792794	-0.03276405	0	0
35.50135	0.01473578	0.2185115	0	0	-0.03008833	0.0205687	0	0
35.51791	0.01473578	0.2185115	0	0	0	0	0	0
35.53448	0.01473578	0.2185115	0	0	0	0	0	0
35.55105	0.01473578	0.2185115	0	0	0	0	0	0
35.56762	0.01473578	0.2185115	0	0	0	0	0	0
35.58418	0.01473578	0.2185115	0	0	0	0	0	0
35.60075	0.01473578	0.2185115	0	0	0	0	0	0
35.61732	0.01470947	0.2184935	-0.001588066	-0.001085619	-0.04792794	-0.03276405	0	0
35.63388	0.01470947	0.2184935	0	0	0.04792794	0.03276405	0	0
35.6507	0.01470947	0.2184935	0	0	0	0	0	0
35.66721	0.01470947	0.2184935	0	0	0	0	0	0
35.73328	0.01470947	0.2184935	0	0	0	0	0	0
35.74985	0.01470947	0.2184935	0	0	0	0	0	0
35.76642	0.01470947	0.2184935	0	0	0	0	0	0
35.78299	0.01470947	0.2184935	0	0	0	0	0	0
35.79981	0.01470947	0.2184935	0	0	0	0	0	0
35.81612	0.01470947	0.2184935	0	0	0	0	0	0
35.83269	0.01468316	0.2185115	-0.001588066	0.001085619	-0.04830051	0.03301874	0	0
35.84935	0.01468316	0.2185115	0	0	0.04779588	-0.03267377	0	0
35.86582	0.01468316	0.2185115	0	0	0	0	0	0
35.88239	0.01470947	0.2184935	0.001588432	-0.001085869	0.04807736	-0.03286619	0	0
35.89895	0.01470947	0.2184935	0	0	-0.0479445	0.03277537	0	0
35.91552	0.01470947	0.2184935	0	0	0	0	0	0
35.93209	0.01470947	0.2184935	0	0	0	0	0	0
35.94865	0.01468316	0.2185115	-0.001588066	0.001085619	-0.04792794	0.03276405	0	0
35.96522	0.01468316	0.2185115	0	0	0.04792794	-0.03276405	0	0
35.98179	0.01468316	0.2185115	0	0	0	0	0	0
35.99835	0.01468316	0.2185115	0	0	0	0	0	0
36.01492	0.01468316	0.2185115	0	0	0	0	0	0
36.03149	0.01468316	0.2185115	0	0	0	0	0	0
36.04805	0.01468316	0.2185115	0	0	0	0	0	0
36.06462	0.01468316	0.2185115	0	0	0	0	0	0
36.08119	0.01468316	0.2185115	0	0	0	0	0	0
36.09776	0.01468316	0.2185115	0	0	0	0	0	0
36.11432	0.01465685	0.2184935	-0.001588066	-0.001085619	-0.04792794	-0.03276405	0	0
36.13089	0.01465685	0.2184935	0	0	0.04792794	0.03276405	0	0
36.14746	0.01468316	0.2184755	0.001588066	-0.001085619	0.04792794	-0.03276405	0	0
36.16402	0.01465685	0.2184935	-0.001588066	0.001085619	-0.09585588	0.06552809	0	0
36.18059	0.01465685	0.2184935	0	0	0.04792794	-0.03276405	0	0
36.19715	0.01468316	0.2184755	0.001588432	-0.001085869	0.0479445	-0.03277537	0	0
36.21372	0.01468316	0.2184755	0	0	-0.0479445	0.03277537	0	0
36.23062	0.01465685	0.2184575	-0.001556879	-0.001064299	-0.04652074	-0.03180207	0	0
36.24685	0.01463053	0.2184395	-0.001620968	-0.001107153	-0.001934428	-0.001293503	0	0
36.26342	0.01463053	0.2184395	0	0	0.0494216	0.03375594	0	0
36.28016	0.01460422	0.2184216	-0.001572139	-0.001074731	-0.0472081	-0.03227196	0	0
36.29667	0.01460422	0.2184216	0	0	0.04728936	0.03232751	0	0
36.31318	0.01460422	0.2184216	0	0	0	0	0	0
36.34671	0.01460422	0.2184216	0	0	0	0	0	0
36.36282	0.01460422	0.2184216	0	0	0	0	0	0
36.37939	0.01460422	0.2184216	0	0	0	0	0	0
36.39624	0.01460422	0.2184216	0	0	0	0	0	0
36.41674	0.01460422	0.2184216	0	0	0	0	0	0
36.43331	0.01460422	0.2184216	0	0	0	0	0	0
36.44988	0.01460422	0.2184216	0	0	0	0	0	0
36.46645	0.01457791	0.2184036	-0.001588066	-0.001085619	-0.04792794	-0.03276405	0	0
36.4833	0.0145516	0.2183856	-0.001561163	-0.00106719	0.0008050078	0.0005514412	0	0
36.50736	0.0145516	0.2183856	0	0	0.03815845	0.0260846	0	0
36.52393	0.0145516	0.2183856	0	0	0	0	0	0
36.54049	0.0145516	0.2183856	0	0	0	0	0	0
36.55706	0.0145516	0.2183856	0	0	0	0	0	0
36.57363	0.0145516	0.2183856	0	0	0	0	0	0
36.59019	0.0145516	0.2183856	0	0	0	0	0	0
36.60689	0.01452529	0.2184036	-0.001576091	0.001077432	-0.04738648	0.0323939	0	0
36.62333	0.01452529	0.2184036	0	0	0.04756651	-0.03251697	0	0
36.63991	0.01452529	0.2184036	0	0	0	0	0	0
36.65646	0.01452529	0.2184036	0	0	0	0	0	0
36.67303	0.01452529	0.2184036	0	0	0	0	0	0
36.6896	0.01452529	0.2184036	0	0	0	0	0	0
36.70617	0.01452529	0.2184036	0	0	0	0	0	0
36.72297	0.01452529	0.2184036	0	0	0	0	0	0
36.7393	0.01452529	0.2184036	0	0	0	0	0	0
36.75586	0.01452529	0.2184036	0	0	0	0	0	0
36.8387	0.01449898	0.2184216	-0.0003176245	0.0002171238	-0.003195309	0.00218427	0	0
36.87208	0.01449898	0.2184216	0	0	0.002733083	-0.001868298	0	0
36.8884	0.01449898	0.2184216	0	0	0	0	0	0
36.90496	0.01449898	0.2184216	0	0	0	0	0	0
36.92162	0.01449898	0.2184216	0	0	0	0	0	0
36.93813	0.01449898	0.2184216	0	0	0	0	0	0
36.95467	0.01449898	0.2184216	0	0	0	0	0	0
37.00428	0.01449898	0.2184216	0	0	0	0	0	0
37.02119	0.01449898	0.2184216	0	0	0	0	0	0
37.03741	0.01447267	0.2184395	-0.001621291	0.001108332	-0.04893066	0.03344952	0	0
37.05398	0.01447267	0.2184395	0	0	0.04943722	-0.03379581	0	0
37.07055	0.01449898	0.2184216	0.001588066	-0.001085619	0.04792794	-0.03276405	0	0
37.08712	0.01449898	0.2184216	0	0	-0.04792794	0.03276405	0	0
37.10368	0.01449898	0.2184216	0	0	0	0	0	0
37.12026	0.01449898	0.2184216	0	0	0	0	0	0
37.13681	0.01449898	0.2184216	0	0	0	0	0	0
37.15378	0.01447267	0.2184395	-0.001550578	0.001059992	-0.04625339	0.03161931	0	0
37.16995	0.01447267	0.2184395	0	0	0.04679655	-0.03199062	0	0
37.18652	0.01449898	0.2184216	0.001588066	-0.001085619	0.0485144	-0.03316496	0	0
37.20332	0.01449898	0.2184216	0	0	-0.04758826	0.03253184	0	0
37.21983	0.01449898	0.2184216	0	0	0	0	0	0
37.23622	0.01449898	0.2184216	0	0	0	0	0	0
37.25278	0.01449898	0.2184216	0	0	0	0	0	0
37.26935	0.01449898	0.2184216	0	0	0	0	0	0
37.28592	0.01449898	0.2184216	0	0	0	0	0	0
37.30249	0.01449898	0.2184216	0	0	0	0	0	0
37.31905	0.01449898	0.2184216	0	0	0	0	0	0
37.33896	0.01447267	0.2184036	-0.001321512	-0.0009033998	-0.0362295	-0.02476687	0	0
37.35553	0.01447267	0.2184036	0	0	0.0362295	0.02476687	0	0
37.3721	0.01447267	0.2184036	0	0	0	0	0	0
37.38866	0.01447267	0.2184036	0	0	0	0	0	0
37.40523	0.01447267	0.2184036	0	0	0	0	0	0
37.42179	0.01447267	0.2184036	0	0	0	0	0	0
37.43848	0.01447267	0.2184036	0	0	0	0	0	0
37.45493	0.01447267	0.2184036	0	0	0	0	0	0
37.47149	0.01447267	0.2184036	0	0	0	0	0	0
37.48806	0.01447267	0.2184036	0	0	0	0	0	0
37.50503	0.01447267	0.2184036	0	0	0	0	0	0
37.52119	0.01447267	0.2184036	0	0	0	0	0	0
37.53776	0.01447267	0.2184036	0	0	0	0	0	0
37.55433	0.01447267	0.2184036	0	0	0	0	0	0
37.5709	0.01447267	0.2184036	0	0	0	0	0	0
37.58746	0.01447267	0.2184036	0	0	0	0	0	0
37.60403	0.01447267	0.2184036	0	0	0	0	0	0
37.6206	0.01447267	0.2184036	0	0	0	0	0	0
37.72	0.01444636	0.2183856	-0.0002646777	-0.0001809365	-0.002282283	-0.001560193	0	0
37.73657	0.01444636	0.2183856	0	0	0.002282283	0.001560193	0	0
37.75322	0.01444636	0.2183856	0	0	0	0	0	0
37.7697	0.01444636	0.2183856	0	0	0	0	0	0
