Time	Pos X	Pos Y	Vel X	Vel Y	Acc X	Acc YForce X	Force Y
0.01689399	0.05153328	0.259465	-0.0007976695	-0.004016188	1.235007E-05	6.218141E-05	0	0
0.07493697	0.02938627	0.2496267	-0.3815622	-0.1695007	0.005899049	0.002563793	0	0
0.0915045	0.02252251	0.2496088	-0.4142904	-0.001082002	-0.4386539	2.257305	0	0
0.1080732	0.00873662	0.2494654	-0.8320437	-0.0086563	-12.60715	-0.2285805	0	0
0.1412067	-0.01115743	0.2473496	-0.6004215	-0.0638542	4.660202	-1.110573	0	0
0.1577762	-0.01223623	0.2467579	-0.06510755	-0.03571352	10.77026	0.566177	0	0
0.1743401	-0.0130782	0.2474034	-0.05083146	0.03897304	0.4308665	2.254113	0	0
0.1909077	-0.01468316	0.2484972	-0.09687346	0.06601831	-1.389675	0.8163009	0	0
0.2074708	-0.01470947	0.248551	-0.001588455	0.003246858	2.876033	-1.894661	0	0
0.2240396	-0.01470947	0.248551	0	0	0.0479434	-0.09799801	0	0
0.2410516	-0.01470947	0.2485868	0	0.002108339	0	0.06278421	0	0
0.2571715	-0.01468316	0.2486048	0.001632137	0.001112049	0.04926181	-0.03007042	0	0
0.2737374	-0.01465685	0.2485868	0.001588189	-0.001082105	-0.00134456	-0.0671286	0	0
0.2903041	-0.01465685	0.2485868	0	0	-0.04793423	0.03265976	0	0
0.307099	-0.01465685	0.2485868	0	0	0	0	0	0
0.3234384	-0.01465685	0.2485868	0	0	0	0	0	0
0.3400047	-0.01465685	0.2485868	0	0	0	0	0	0
0.3565714	-0.01465685	0.2485868	0	0	0	0	0	0
0.3731492	-0.01465685	0.2485868	0	0	0	0	0	0
0.3897069	-0.01465685	0.2485868	0	0	0	0	0	0
0.4062712	-0.01465685	0.2485868	0	0	0	0	0	0
0.422838	-0.01465685	0.2485868	0	0	0	0	0	0
0.4394059	-0.01465685	0.2485868	0	0	0	0	0	0
0.4559714	-0.01465685	0.2485868	0	0	0	0	0	0
0.4727142	-0.01463053	0.2486048	0.00157147	0.001070675	0.04717944	0.03214434	0	0
0.4891045	-0.01463053	0.2486048	0	0	-0.04742905	-0.03231441	0	0
0.5057392	-0.01463053	0.2486048	0	0	0	0	0	0
0.5388044	-0.01460422	0.2486227	0.0007956965	0.0005421439	0.01601004	0.01090836	0	0
0.5553723	-0.01460422	0.2486227	0	0	-0.01603155	-0.01092302	0	0
0.5719379	-0.01460422	0.2486227	0	0	0	0	0	0
0.5887967	-0.01460422	0.2486227	0	0	0	0	0	0
0.6050709	-0.01460422	0.2486227	0	0	0	0	0	0
0.6218197	-0.01460422	0.2486227	0	0	0	0	0	0
0.6382045	-0.01460422	0.2486227	0	0	0	0	0	0
0.6548438	-0.01457791	0.2486048	0.001581183	-0.001077331	0.04787963	-0.03262255	0	0
0.6713383	-0.01457791	0.2486048	0	0	-0.04772106	0.03251451	0	0
0.6879051	-0.0145516	0.2485868	0.001588168	-0.001082052	0.04803713	-0.03272871	0	0
0.7044718	-0.0145516	0.2485868	0	0	-0.0479324	0.03265735	0	0
0.7210382	-0.0145516	0.2485868	0	0	0	0	0	0
0.7376045	-0.0145516	0.2485868	0	0	0	0	0	0
0.7541713	-0.0145516	0.2485868	0	0	0	0	0	0
0.7707384	-0.0145516	0.2485868	0	0	0	0	0	0
0.7873043	-0.0145516	0.2485868	0	0	0	0	0	0
0.8039496	-0.01452529	0.2485689	0.001580617	-0.001076946	0.04759284	-0.03242715	0	0
0.8204381	-0.01452529	0.2485689	0	0	-0.04770397	0.03250287	0	0
0.8370045	-0.01449898	0.248551	0.001588208	-0.001082979	0.04804761	-0.03276306	0	0
0.8535712	-0.01447267	0.2485331	0.001588112	-0.001082052	-2.902206E-06	2.79715E-05	0	0
0.8704968	-0.01423588	0.2483358	0.01399027	-0.011652	0.3702986	-0.3155932	0	0
0.8867051	-0.01405171	0.2482103	0.01136293	-0.007743721	-0.07929482	0.1179544	0	0
0.9032726	-0.01315714	0.247529	0.05399542	-0.04112687	1.30073	-1.01853	0	0
0.9198385	-0.01276246	0.2472241	0.02382429	-0.01840122	-0.9105945	0.6858824	0	0
0.9365442	-0.01073643	0.2457716	0.1212782	-0.08694942	2.929039	-2.060261	0	0
0.9559292	-0.0002105263	0.2385239	0.5429944	-0.3738835	11.68493	-7.950378	0	0
0.9725693	0.002078944	0.2369265	0.1375868	-0.09599231	-11.25347	7.713819	0	0
1.071897	0.01699836	0.2267803	0.1502044	-0.1021498	0.1088022	-0.05309628	0	0
1.088464	0.01702467	0.2267264	0.001588112	-0.003253353	-1.282344	0.8533335	0	0
1.105161	0.01805067	0.2260256	0.06144529	-0.04196711	1.79943	-1.163815	0	0
1.121673	0.0203393	0.2244622	0.1386048	-0.09468494	2.323403	-1.587423	0	0
1.138164	0.02270662	0.2228446	0.143556	-0.09809391	0.1500262	-0.1032945	0	0
1.154731	0.02283813	0.2227187	0.007938312	-0.007595055	-4.102499	2.737633	0	0
1.171297	0.02281183	0.2227007	-0.001587697	-0.001085674	-0.2875069	0.1964613	0	0
1.18822	0.02278553	0.2226468	-0.001554223	-0.003186592	0.0009995225	-0.06273349	0	0
1.204431	0.02275923	0.2225929	-0.001622536	-0.003326654	-0.002061737	-0.004227144	0	0
1.221243	0.0215756	0.221748	-0.07040246	-0.05025455	-2.082788	-1.421067	0	0
1.237564	0.01578816	0.2177921	-0.3546044	-0.2423836	-8.57757	-5.798697	0	0
1.254131	0.006263076	0.2112789	-0.5749519	-0.3931502	-6.700024	-4.584302	0	0
1.270697	0.003631563	0.2094787	-0.1588464	-0.1086618	12.55859	8.586217	0	0
1.287264	-0.00781563	0.2016435	-0.6909738	-0.4729496	-16.06027	-10.99466	0	0
1.303831	-0.01468316	0.1969746	-0.4145276	-0.2818169	8.343313	5.768501	0	0
1.320397	-0.02344307	0.1909314	-0.5287763	-0.3647891	-3.448131	-2.504179	0	0
1.336964	-0.02909705	0.1870502	-0.3412845	-0.2342747	5.658739	3.939088	0	0
1.353531	-0.03682545	0.1817394	-0.4665006	-0.3205664	-3.779138	-2.604363	0	0
1.370098	-0.04263205	0.1777808	-0.3504971	-0.2389528	3.501092	2.463173	0	0
1.386664	-0.04746433	0.1745253	-0.2916916	-0.1965097	1.774823	1.280988	0	0
1.403232	-0.04987964	0.1728246	-0.1457826	-0.1026518	4.403559	2.832647	0	0
1.419884	-0.05024714	0.1726075	-0.02206943	-0.01303987	3.724064	2.697535	0	0
1.436364	-0.0510346	0.1721008	-0.04778133	-0.03074569	-0.7760368	-0.5343975	0	0
1.452931	-0.05195321	0.1715759	-0.05544912	-0.03168084	-0.2320264	-0.0282974	0	0
1.469498	-0.05192696	0.171594	0.001584177	0.001092846	1.721318	0.9891403	0	0
1.486064	-0.05195321	0.1716121	-0.001584211	0.00109287	-0.09562593	7.132527E-07	0	0
1.502631	-0.05197945	0.1716302	-0.001584177	0.001091947	1.032987E-06	-2.785902E-05	0	0
1.519198	-0.0520057	0.1716483	-0.001584143	0.001092822	1.032965E-06	2.643194E-05	0	0
1.535764	-0.0520057	0.1716483	0	0	0.0478109	-0.03298239	0	0
1.552331	-0.0520057	0.1716483	0	0	0	0	0	0
1.56899	-0.0520057	0.1716483	0	0	0	0	0	0
1.585501	-0.0520057	0.1716483	0	0	0	0	0	0
1.602031	-0.05203194	0.1716664	-0.00158773	0.001094396	-0.04805368	0.03312259	0	0
1.618598	-0.05213692	0.171775	-0.006336708	0.006555277	-0.1434891	0.1649991	0	0
1.635164	-0.05221565	0.1718655	-0.004752409	0.00546165	0.04781614	-0.03300706	0	0
1.651731	-0.05226814	0.1719017	-0.003168354	0.002184793	0.04780876	-0.09889965	0	0
1.668298	-0.05229438	0.1719198	-0.001584109	0.001092799	0.04781296	-0.03295667	0	0
1.685072	-0.05229438	0.1719198	0	0	0.04751226	-0.03277638	0	0
1.701431	-0.05229438	0.1719198	0	0	0	0	0	0
1.718095	-0.05229438	0.1719198	0	0	0	0	0	0
1.734564	-0.05234687	0.171956	-0.003186957	0.002197776	-0.09618635	0.06633165	0	0
1.751131	-0.0524256	0.1720465	-0.004752306	0.005461532	-0.04738367	0.09879499	0	0
1.833965	-0.05276676	0.1725351	-0.004118641	0.005898679	0.006374873	0.004397839	0	0
1.850533	-0.05281925	0.1725713	-0.003167901	0.002184635	0.009564637	-0.03736402	0	0
1.867098	-0.05316039	0.1730598	-0.02059354	0.02949367	-0.5259218	0.8242122	0	0
1.883665	-0.0560465	0.1753755	-0.1742074	0.1397751	-4.636324	3.328481	0	0
1.951364	-0.07088105	0.1860028	-0.2191248	0.1569787	-0.5330427	0.2041576	0	0
1.967931	-0.07072395	0.1862195	0.009483025	0.01308087	2.712937	-1.707666	0	0
1.984498	-0.06763352	0.1883863	0.1865398	0.1307861	5.343681	3.552415	0	0
2.001064	-0.06372937	0.1911118	0.2356723	0.1645268	1.48288	1.018335	0	0
2.017632	-0.05392136	0.1985072	0.5920123	0.4463846	10.75475	8.506794	0	0
2.034198	-0.05134956	0.2013551	0.1552435	0.1719128	-13.18209	-8.283816	0	0
2.050765	-0.05040464	0.205427	0.05703712	0.2457842	-2.964002	2.229541	0	0
2.067331	-0.04877707	0.2086686	0.09824304	0.1956671	1.243633	-1.512581	0	0
2.083899	-0.04875081	0.2086505	0.001584806	-0.001087418	-2.917193	-5.938149	0	0
2.100465	-0.04877707	0.2087046	-0.001584897	0.003260643	-0.09566459	0.1312285	0	0
2.117379	-0.04885583	0.2087586	-0.004656467	0.003193585	-0.09174231	-0.002002897	0	0
2.133598	-0.04901335	0.2088666	-0.009711906	0.006660958	-0.15258	0.1046501	0	0
2.150402	-0.04901335	0.2088666	0	0	0.2940963	-0.2017074	0	0
2.166913	-0.0490396	0.2088846	-0.001589981	0.001090221	-0.04772576	0.03272469	0	0
2.183298	-0.04906585	0.2089026	-0.00160215	0.001098565	-0.0003699179	0.0002536459	0	0
2.199937	-0.04906585	0.2089026	0	0	0.04851497	-0.03326583	0	0
2.216447	-0.04911835	0.2089386	-0.0031801	0.002181439	-0.09593488	0.06580804	0	0
2.232998	-0.04911835	0.2089386	0	0	0.0961874	-0.06598125	0	0
2.249565	-0.04917086	0.2089746	-0.003169162	0.002173037	-0.09569164	0.06561402	0	0
2.266132	-0.04917086	0.2090106	0	0.002174062	0.09564826	3.092602E-05	0	0
2.282996	-0.04917086	0.2090106	0	0	0	-0.06503213	0	0
2.299265	-0.04919711	0.2090286	-0.001613655	0.001106454	-0.04870231	0.03339429	0	0
2.315831	-0.04927587	0.2091907	-0.004754017	0.009781029	-0.09564067	0.2641868	0	0
2.33253	-0.04977464	0.2122328	-0.0298693	0.1821771	-0.7550089	5.182525	0	0
2.348965	-0.05029964	0.2169467	-0.03194313	0.2868173	-0.0625895	3.158093	0	0
2.365553	-0.05019464	0.228523	0.006329816	0.6978784	1.158974	12.44768	0	0
2.382098	-0.04948588	0.2359393	0.04283647	0.4482325	1.101805	-7.534545	0	0
2.398665	-0.04756935	0.2412334	0.1156887	0.3195682	2.200174	-3.885724	0	0
2.415588	-0.04160755	0.2448031	0.3522758	0.2109317	7.064422	-3.243855	0	0
2.431798	-0.04087196	0.2453412	0.04538046	0.03319385	-9.262521	-5.36437	0	0
2.448365	-0.04087196	0.2453412	0	0	-1.384539	-1.01273	0	0
2.464932	-0.04081942	0.2453412	0.003171727	0	0.09572429	0	0	0
2.481635	-0.04081942	0.2453412	0	0	-0.0953326	0	0	0
2.498065	-0.04076688	0.2452694	0.003197965	-0.004366139	0.09651896	-0.131776	0	0
2.514632	-0.04066179	0.2451977	0.006343454	-0.004330009	0.09532819	0.001094973	0	0
2.531198	-0.04066179	0.2451977	0	0	-0.1914513	0.1306837	0	0
2.663732	-0.03637868	0.2481207	0.03231702	0.02205458	0.2167461	0.1479173	0	0
2.680298	-0.03637868	0.2481207	0	0	-0.2167472	-0.147918	0	0
2.696866	-0.03637868	0.2481207	0	0	0	0	0	0
2.713432	-0.03637868	0.2481207	0	0	0	0	0	0
2.729998	-0.03629984	0.2480669	0.004759414	-0.003246251	0.1436477	-0.09797769	0	0
2.746565	-0.03629984	0.2480669	0	0	-0.1436435	0.09797487	0	0
2.763133	-0.03624728	0.248031	0.003172398	-0.002164849	0.0957411	-0.06533385	0	0
2.779851	-0.03624728	0.248031	0	0	-0.0953077	0.06503809	0	0
2.796265	-0.03624728	0.248031	0	0	0	0	0	0
2.81287	-0.03624728	0.248031	0	0	0	0	0	0
2.829398	-0.03622099	0.2480131	0.00159011	-0.001084565	0.04799169	-0.03273366	0	0
2.845965	-0.03624728	0.2479952	-0.00158638	-0.001082921	-0.09597923	4.969239E-05	0	0
2.862906	-0.03624728	0.2479952	0	0	0.04734425	0.0323189	0	0
2.879098	-0.03624728	0.2479952	0	0	0	0	0	0
2.895665	-0.03624728	0.2479952	0	0	0	0	0	0
2.914645	-0.03624728	0.2479952	0	0	0	0	0	0
2.931453	-0.03622099	0.2479772	0.00156363	-0.001066505	0.0436914	-0.02980057	0	0
2.947779	-0.03622099	0.2479772	0	0	-0.0471908	0.0321874	0	0
2.964478	-0.03616843	0.2479414	0.00314789	-0.002147079	0.09532106	-0.06501558	0	0
2.980912	-0.03611587	0.2479055	0.003198078	-0.002182373	0.001514758	-0.001065203	0	0
2.99748	-0.03611587	0.2479055	0	0	-0.09690448	0.06612775	0	0
3.014046	-0.03611587	0.2479055	0	0	0	0	0	0
3.030613	-0.03611587	0.2479055	0	0	0	0	0	0
3.047179	-0.03608959	0.2478876	0.001586426	-0.001082052	0.0478798	-0.03265735	0	0
3.063746	-0.03608959	0.2478876	0	0	-0.0478798	0.03265735	0	0
3.080312	-0.03608959	0.2478876	0	0	0	0	0	0
3.09688	-0.03608959	0.2478876	0	0	0	0	0	0
3.113446	-0.03608959	0.2478876	0	0	0	0	0	0
3.130095	-0.03608959	0.2478876	0	0	0	0	0	0
3.14658	-0.03608959	0.2478876	0	0	0	0	0	0
3.163146	-0.03608959	0.2478876	0	0	0	0	0	0
3.179713	-0.03606331	0.2478696	0.00158638	-0.001082921	0.04787773	-0.03268309	0	0
3.19628	-0.03606331	0.2478696	0	0	-0.04787773	0.03268309	0	0
3.212846	-0.03603702	0.2478517	0.001586494	-0.001082099	0.0478829	-0.03265947	0	0
3.246176	-0.03601074	0.2479055	0.0007885543	0.001613994	-0.01599229	0.05403502	0	0
3.262687	-0.03480173	0.2486944	0.07322253	0.04777973	1.45331	0.9262661	0	0
3.279199	-0.03403948	0.2492144	0.04616387	0.03148915	-0.8193794	-0.4933048	0	0
3.312246	-0.03372405	0.2491426	0.009544766	-0.002170208	-0.7388974	-0.6791759	0	0
3.328813	-0.03343491	0.2489454	0.01745288	-0.01190403	0.1593914	-0.1961894	0	0
3.345747	-0.03309318	0.2486765	0.02018068	-0.01588196	0.0814252	-0.1187416	0	0
3.361947	-0.03285659	0.2485151	0.014604	-0.009960742	-0.1683094	0.1787077	0	0
3.395082	-0.03067459	0.2470269	0.06585257	-0.04491526	1.038792	-0.7085169	0	0
3.411793	-0.02938627	0.2461482	0.07709034	-0.05257939	0.2254479	-0.153755	0	0
3.428305	-0.02812416	0.2452515	0.07643652	-0.05430667	-0.01967932	-0.05198937	0	0
3.44478	-0.02328526	0.2419151	0.2937079	-0.2025086	6.586553	-4.492722	0	0
3.461347	-0.01844528	0.2385777	0.2921507	-0.2014516	-0.0471289	0.03199141	0	0
3.51474	0.006605167	0.2210828	0.4691698	-0.3276621	2.530295	-1.804042	0	0
3.531378	0.0117363	0.2175763	0.3084112	-0.2107635	-2.295554	1.669253	0	0
3.581008	0.03422347	0.2020399	0.4530926	-0.3130404	2.183287	-1.54339	0	0
3.597575	0.04152874	0.1966681	0.4409595	-0.3242569	-0.1832872	-0.1694398	0	0
3.614437	0.04612515	0.1928982	0.2725914	-0.2235716	-5.036641	3.011945	0	0
3.630708	0.05213692	0.1877905	0.3694747	-0.3139131	2.924072	-2.72663	0	0
3.647274	0.05567923	0.1835102	0.2138205	-0.2583695	-4.740083	1.691449	0	0
3.663841	0.06042635	0.1784317	0.2865529	-0.3065553	2.195164	-1.454313	0	0
3.680483	0.06273337	0.1768405	0.1386216	-0.09560967	-4.454575	6.352091	0	0
3.696996	0.06669043	0.1741092	0.2396385	-0.1654045	3.046789	-2.105094	0	0
3.713541	0.06975506	0.1719922	0.1852348	-0.1279605	-1.645744	1.132703	0	0
3.730108	0.07611582	0.167593	0.3839363	-0.2655368	6.000926	-4.154903	0	0
3.746675	0.07860089	0.165836	0.1500032	-0.106051	-7.060217	4.81336	0	0
3.763542	0.08351582	0.1623932	0.2913819	-0.2041082	4.228541	-2.932824	0	0
3.779809	0.08701655	0.1599277	0.2152067	-0.151569	-2.298972	1.585637	0	0
3.796375	0.08999311	0.1578602	0.1796762	-0.1248003	-1.082154	0.8152959	0	0
3.813081	0.08999311	0.1578602	0	0	-5.400297	3.750962	0	0
3.82959	0.089967	0.1578421	-0.001581364	-0.001098471	-0.04761091	-0.03307219	0	0
3.8461	0.089967	0.1578421	0	0	0.04789143	0.03326705	0	0
3.862641	0.0899148	0.1577695	-0.00315617	-0.004386297	-0.09549182	-0.1327101	0	0
3.879208	0.08981039	0.1577332	-0.00630271	-0.002190253	-0.09504074	0.06633116	0	0
3.895775	0.08978428	0.1576788	-0.001575812	-0.00328474	0.1426622	-0.03303264	0	0
3.914176	0.08970597	0.1576244	-0.004255879	-0.002957372	-0.0766426	0.009361811	0	0
3.930743	0.08960155	0.1575518	-0.006302706	-0.00437929	-0.05853325	-0.04066268	0	0
3.947311	0.0893927	0.1574067	-0.01260604	-0.008759606	-0.1902337	-0.1321972	0	0
3.964184	0.08926217	0.157316	-0.007735669	-0.005375537	0.1456426	0.1011964	0	0
3.980444	0.0884528	0.1567173	-0.04977712	-0.03681872	-1.268859	-0.9489912	0	0
3.997208	0.08359421	0.1533782	-0.28982	-0.1991842	-7.268726	-4.916579	0	0
4.013577	0.07684836	0.1484749	-0.4121268	-0.2995601	-3.691439	-3.029525	0	0
4.030231	0.06648083	0.1406571	-0.6225242	-0.4694228	-6.371352	-5.143864	0	0
4.04671	0.06171102	0.135779	-0.2894477	-0.2960191	10.0527	5.23356	0	0
4.063276	0.05890546	0.1298939	-0.1693486	-0.355237	3.634326	-1.791996	0	0
4.112976	0.05371145	0.08734225	-0.1045077	-0.8561727	0.9784863	-7.559406	0	0
4.129543	0.0532916	0.08119433	-0.02534205	-0.3710897	1.194647	7.320128	0	0
4.146111	0.05253058	0.07095885	-0.04593554	-0.6178144	-0.6215125	-7.446167	0	0
4.162824	0.0513758	0.06530473	-0.06909174	-0.3382941	-0.6957815	8.398833	0	0
4.179244	0.0514283	0.06371425	0.003197013	-0.09686602	2.181773	7.286629	0	0
4.19581	0.0513758	0.06393622	-0.00316867	0.01339877	-0.1929832	3.342807	0	0
4.212377	0.0514283	0.06393622	0.003168579	0	0.1912668	-0.4043931	0	0
4.228943	0.0514283	0.06393622	0	0	-0.09563203	0	0	0
4.24551	0.0514283	0.06393622	0	0	0	0	0	0
4.262077	0.0514283	0.06393622	0	0	0	0	0	0
4.278906	0.05145454	0.06391772	0.00155949	-0.00109928	0.04669722	-0.03291674	0	0
4.29521	0.05145454	0.06391772	0	0	-0.04706684	0.03317728	0	0
4.31193	0.05145454	0.06391772	0	0	0	0	0	0
4.328343	0.05145454	0.06391772	0	0	0	0	0	0
4.344955	0.05145454	0.06391772	0	0	0	0	0	0
4.361477	0.05145454	0.06391772	0	0	0	0	0	0
4.378044	0.05145454	0.06391772	0	0	0	0	0	0
4.39461	0.05145454	0.06391772	0	0	0	0	0	0
4.4115	0.05145454	0.06391772	0	0	0	0	0	0
4.428012	0.05145454	0.06391772	0	0	0	0	0	0
4.44431	0.05145454	0.06391772	0	0	0	0	0	0
4.46104	0.05145454	0.06391772	0	0	0	0	0	0
4.477444	0.05145454	0.06391772	0	0	0	0	0	0
4.49406	0.05148079	0.06389923	0.001579719	-0.001112933	0.04784193	-0.03370527	0	0
4.510577	0.05150703	0.06388073	0.001588933	-0.001120034	0.0002781134	-0.0002143455	0	0
4.527143	0.05150703	0.06388073	0	0	-0.04802737	0.03385435	0	0
4.560277	0.05155953	0.06384373	0.001584289	-0.001116457	0.03187688	-0.0224638	0	0
4.577117	0.05158577	0.06382523	0.00155843	-0.001098533	-0.0005174655	0.0003586738	0	0
4.59341	0.05163826	0.06378824	0.003221996	-0.002270557	0.05020942	-0.03537381	0	0
4.610139	0.05166451	0.06373275	0.001568735	-0.003316944	-0.05006555	-0.03168765	0	0
4.626544	0.05169075	0.06371425	0.00159988	-0.001127751	0.0009399662	0.06607095	0	0
4.643164	0.05184823	0.06360327	0.009474472	-0.006677473	0.2384449	-0.1680472	0	0
4.659677	0.05195321	0.06352928	0.006357611	-0.004480851	-0.09406977	0.06629608	0	0
4.676244	0.05221565	0.06334428	0.01584155	-0.01116637	0.2867002	-0.2021038	0	0
4.69281	0.05274052	0.06297428	0.03168288	-0.02233473	0.478113	-0.3370763	0	0
4.709376	0.05300294	0.06278927	0.01584088	-0.01116804	-0.4781401	0.3370308	0	0
4.725944	0.05300294	0.06278927	0	0	-0.4780924	0.3370618	0	0
4.742734	0.05302918	0.06277077	0.001562811	-0.001101777	0.04684952	-0.03302877	0	0
4.759245	0.05302918	0.06277077	0	0	-0.04692934	0.03308506	0	0
4.775644	0.05305542	0.06275226	0.001600118	-0.001128533	0.04862121	-0.03429162	0	0
4.79221	0.05305542	0.06275226	0	0	-0.04854033	0.03423458	0	0
4.808778	0.05305542	0.06275226	0	0	0	0	0	0
4.825344	0.05302918	0.06273376	-0.001584043	-0.001116746	-0.04780721	-0.03370395	0	0
4.859982	0.05302918	0.06273376	0	0	0.03093581	0.02180966	0	0
4.876548	0.05300294	0.06271526	-0.001583998	-0.001116714	-0.03093463	-0.02180883	0	0
4.893116	0.05300294	0.06271526	0	0	0.04780652	0.03370347	0	0
4.909852	0.05300294	0.06271526	0	0	0	0	0	0
4.926249	0.05300294	0.06271526	0	0	0	0	0	0
4.942881	0.05300294	0.06271526	0	0	0	0	0	0
4.959387	0.05300294	0.06271526	0	0	0	0	0	0
4.975948	0.05300294	0.06271526	0	0	0	0	0	0
4.992909	0.05300294	0.06271526	0	0	0	0	0	0
5.009081	0.05300294	0.06271526	0	0	0	0	0	0
5.025935	0.05300294	0.06271526	0	0	0	0	0	0
5.042214	0.05300294	0.06271526	0	0	0	0	0	0
5.058957	0.05300294	0.06271526	0	0	0	0	0	0
5.075348	0.0529767	0.06269675	-0.001600956	-0.001129124	-0.04831833	-0.034078	0	0
5.09198	0.0529767	0.06269675	0	0	0.04848089	0.03419266	0	0
5.108481	0.0529767	0.06269675	0	0	0	0	0	0
5.125048	0.0529767	0.06269675	0	0	0	0	0	0
5.141616	0.0529767	0.06269675	0	0	0	0	0	0
5.158181	0.0529767	0.06269675	0	0	0	0	0	0
5.17504	0.0529767	0.06269675	0	0	0	0	0	0
5.191315	0.05295046	0.06267826	-0.001612536	-0.001136672	-0.04866712	-0.03430531	0	0
5.208062	0.05295046	0.06267826	0	0	0.04883156	0.03442123	0	0
5.224575	0.05295046	0.06267826	0	0	0	0	0	0
5.241014	0.05295046	0.06267826	0	0	0	0	0	0
5.257596	0.05295046	0.06267826	0	0	0	0	0	0
5.274148	0.05295046	0.06267826	0	0	0	0	0	0
5.390114	0.05284549	0.06260425	-0.0009051514	-0.0006381707	-0.006830388	-0.004815718	0	0
5.42325	0.05281925	0.06254873	-0.0007919191	-0.001675352	0.0007594249	-0.006956153	0	0
5.439815	0.05276676	0.06251173	-0.003168585	-0.002233685	-0.04782	-0.01123401	0	0
5.45638	0.05268803	0.06245622	-0.004752717	-0.003351234	-0.04781606	-0.03373256	0	0
5.473251	0.0522419	0.06214165	-0.02644331	-0.01864494	-0.6487047	-0.4573918	0	0
5.489513	0.04825199	0.05932794	-0.2453506	-0.1730234	-6.606825	-4.659284	0	0
5.50608	0.04355139	0.0559748	-0.2837368	-0.2024018	-1.169283	-0.8948988	0	0
5.522648	0.02901817	0.04571227	-0.8771768	-0.6194116	-17.9098	-12.5852	0	0
5.539214	0.02315376	0.04156607	-0.3540173	-0.2502937	15.78944	11.14032	0	0
5.555781	0.009368147	0.03180531	-0.832101	-0.5891606	-14.42942	-10.22761	0	0
5.572347	0.004289447	0.02820368	-0.3065774	-0.2174138	15.86102	11.21983	0	0
5.588913	-0.004973643	0.02166302	-0.5591534	-0.3948177	-7.623309	-5.354448	0	0
5.605842	-0.01155212	0.01694627	-0.3885886	-0.2786171	5.092183	3.46915	0	0
5.622046	-0.01762975	0.01261699	-0.3750728	-0.2671757	0.4079262	0.3453155	0	0
5.638613	-0.02623083	0.006479209	-0.5191767	-0.3704877	-4.39735	-3.152577	0	0
5.65518	-0.02878152	0.004656394	-0.1539649	-0.1100285	11.02243	7.8609	0	0
5.671746	-0.03398691	0.0009325339	-0.3142066	-0.2247791	-4.836244	-3.463281	0	0
5.688313	-0.03427605	0.0007255315	-0.01745293	-0.01249505	8.956303	6.40693	0	0
5.704911	-0.03427605	0.0007255315	0	0	0.5262534	0.3767598	0	0
5.721447	-0.03427605	0.0007255315	0	0	0	0	0	0
5.738013	-0.03427605	0.0007255315	0	0	0	0	0	0
5.75458	-0.03424976	0.0007067124	0.00158665	-0.001135953	0.04788658	-0.03428413	0	0
5.771148	-0.03424976	0.0007067124	0	0	-0.04788521	0.03428314	0	0
5.78797	-0.03424976	0.0007067124	0	0	0	0	0	0
5.804481	-0.03424976	0.0007067124	0	0	0	0	0	0
5.821	-0.03424976	0.0007067124	0	0	0	0	0	0
5.837506	-0.03427605	0.0007255315	-0.001592472	0.001140121	-0.0482205	0.03452319	0	0
5.854017	-0.03427605	0.0007255315	0	0	0.04823095	-0.03453067	0	0
5.870546	-0.03427605	0.0007255315	0	0	0	0	0	0
5.890649	-0.03427605	0.0007255315	0	0	0	0	0	0
5.907217	-0.03427605	0.0007255315	0	0	0	0	0	0
5.923785	-0.03427605	0.0007255315	0	0	0	0	0	0
5.940352	-0.03427605	0.0007255315	0	0	0	0	0	0
5.956918	-0.03427605	0.0007255315	0	0	0	0	0	0
5.973603	-0.03427605	0.0007255315	0	0	0	0	0	0
5.99005	-0.03424976	0.0007443504	0.00159815	0.00114418	0.04823505	0.0345334	0	0
6.006625	-0.03424976	0.0007443504	0	0	-0.04839594	-0.03464859	0	0
6.023185	-0.03424976	0.0007443504	0	0	0	0	0	0
6.039751	-0.03424976	0.0007443504	0	0	0	0	0	0
6.155717	-0.03422347	0.0007255315	0.0002266662	-0.0001622794	0.001710274	-0.001224453	0	0
6.172284	-0.03419719	0.0007067124	0.00158665	-0.001135953	0.01026147	-0.00734665	0	0
6.188849	-0.0341709	0.0006878933	0.001586742	-0.001136022	2.758195E-06	-2.080065E-06	0	0
6.25486	-0.03414462	0.000669074	0.0003982013	-0.0002850935	-0.01439316	0.0103047	0	0
6.271428	-0.03414462	0.000669074	0	0	-0.004822113	0.003452407	0	0
6.287994	-0.03414462	0.000669074	0	0	0	0	0	0
6.304834	-0.03414462	0.000669074	0	0	0	0	0	0
6.321128	-0.03414462	0.000669074	0	0	0	0	0	0
6.337857	-0.03414462	0.000669074	0	0	0	0	0	0
6.354261	-0.03414462	0.000669074	0	0	0	0	0	0
6.387394	-0.0341709	0.0006878933	-0.0007933367	0.0005679919	-0.01601482	0.01146586	0	0
6.403961	-0.03411834	0.0007631693	0.003173076	0.004543796	0.07980745	0.07999641	0	0
6.420528	-0.03398691	0.0008572618	0.007933252	0.005679602	0.1436665	0.03427968	0	0
6.437428	-0.03364519	0.001214789	0.02021908	0.0211548	0.3670996	0.4623976	0	0
6.453661	-0.03364519	0.001327685	0	0.00695491	-0.6102395	-0.428572	0	0
6.470228	-0.03356634	0.001497021	0.004759951	0.01022144	0.1451238	0.09959167	0	0
6.486795	-0.03319832	0.001910918	0.02221337	0.02498285	0.5267528	0.4455066	0	0
6.503362	-0.03306689	0.002117847	0.007933478	0.01249064	-0.4309741	-0.3770212	0	0
6.519928	-0.03296174	0.002682134	0.006347235	0.0340624	-0.04787498	0.6510653	0	0
6.536495	-0.0330406	0.003152301	-0.00476004	0.02837934	-0.3352278	-0.1715202	0	0
6.55351	-0.03382919	0.004881951	-0.04634821	0.1016574	-1.238416	2.18208	0	0
6.569628	-0.03477545	0.006798571	-0.05870596	0.1189079	-0.3729737	0.5206454	0	0
6.586195	-0.03653637	0.01233568	-0.1062923	0.3342301	-1.455896	6.587741	0	0
6.604376	-0.03737732	0.01982948	-0.04625497	0.4121811	1.727813	2.243349	0	0
6.620944	-0.03735104	0.03284968	0.00158611	0.7858782	1.376779	10.75432	0	0
6.637571	-0.03735104	0.04297964	0	0.6092361	-0.04778155	-5.321346	0	0
6.654078	-0.03716709	0.0526559	0.01114427	0.5862032	0.3363397	-0.6951444	0	0
6.670643	-0.03585305	0.06506435	0.07932226	0.74904	2.061472	4.923637	0	0
6.687604	-0.03511713	0.07101425	0.04338848	0.3507968	-1.07179	-11.87832	0	0
6.703776	-0.03467031	0.08290705	0.02762951	0.7353978	-0.4756273	11.60778	0	0
6.720343	-0.03393434	0.09577707	0.04442487	0.7768584	0.5130126	1.266411	0	0
6.753651	0	0	1.018818	-2.875536	19.53698	-73.23199	0	0
6.770163	-0.03332976	0.1211358	-2.018528	7.336265	-60.96704	204.9761	0	0
6.786674	-0.03359262	0.1332107	-0.01591965	0.7312863	60.64129	-200.0064	0	0
6.803176	-0.03385548	0.1453672	-0.01592932	0.7366949	-0.0002928813	0.1638285	0	0
6.836709	-0.03477545	0.1637887	-0.02743423	0.5493432	-0.2299373	-3.744412	0	0
6.852876	-0.03427605	0.1706166	0.03089076	0.4223451	1.173535	-2.555281	0	0
6.869443	-0.03301432	0.1764064	0.07616035	0.349485	1.382977	-2.225861	0	0
6.88601	-0.03101637	0.1829139	0.1205965	0.3927935	1.341104	1.307074	0	0
6.902576	-0.02673047	0.1864724	0.2587119	0.2147986	4.168451	-5.372054	0	0
6.923079	-0.0177876	0.1938724	0.4361731	0.3609259	4.78728	3.942003	0	0
6.939647	-0.01644589	0.1960188	0.08098588	0.1295574	-9.581456	-6.241348	0	0
6.956214	-0.01360442	0.2026526	0.1715061	0.4004029	2.731866	8.174015	0	0
6.972781	-0.005842039	0.2162812	0.468552	0.8226459	8.964863	12.74332	0	0
6.989348	-0.0004736842	0.223258	0.3240439	0.4211325	-4.361389	-12.11805	0	0
7.005916	0.006999886	0.2283254	0.4510926	0.3058588	3.834338	-3.478968	0	0
7.022481	0.01431481	0.2333182	0.4415807	0.3014033	-0.2870835	-0.1344724	0	0
7.039356	0.0242847	0.2401209	0.5907987	0.4031188	4.462184	3.041679	0	0
7.055614	0.02941257	0.2436193	0.3154013	0.2151746	-8.31175	-5.67233	0	0
7.07218	0.03932182	0.2503797	0.5981756	0.4080913	8.614854	5.877299	0	0
7.088748	0.0460989	0.2550038	0.409053	0.2791067	-5.707895	-3.892875	0	0
7.105405	0.05381641	0.2602711	0.4633229	0.3162233	1.633427	1.117142	0	0
7.155014	0.06820981	0.270173	0.2901359	0.1995983	-2.613511	-1.75995	0	0
7.17158	0.07198069	0.2727145	0.2276239	0.1534148	-0.9446401	-0.6978951	0	0
7.188148	0.07376067	0.2739314	0.1074399	0.07345333	-3.627266	-2.413312	0	0
7.204714	0.0738392	0.2738062	0.004739714	-0.007562675	-3.099541	-2.445103	0	0
7.221482	0.0738392	0.2738062	0	0	-0.1421875	0.226874	0	0
7.237993	0.0738392	0.2738062	0	0	0	0	0	0
7.254505	0.07381302	0.2737883	-0.001585106	-0.001082907	-0.04799953	-0.03279217	0	0
7.271016	0.0738392	0.2737704	0.001585243	-0.001083001	0.09600322	-2.841345E-06	0	0
7.287547	0.07381302	0.2737525	-0.001583323	-0.001083492	-0.09589523	-1.485053E-05	0	0
7.304114	0.07381302	0.2736451	0	-0.006481521	0.04783778	-0.1630936	0	0
7.32068	0.07381302	0.2735019	0	-0.008642526	0	-0.06522302	0	0
7.337247	0.07373451	0.2733767	-0.004739128	-0.007560658	-0.1430333	0.03265227	0	0
7.353814	0.07370833	0.2733588	-0.001579905	-0.001079354	0.09534691	0.195609	0	0
7.370587	0.07365599	0.273323	-0.003120825	-0.002133852	-0.04621773	-0.03162817	0	0
7.386947	0.07357746	0.2732693	-0.00479967	-0.003282666	-0.05066911	-0.0346723	0	0
7.403515	0.07357746	0.2732335	0	-0.002160383	0.1457647	0.03408347	0	0
7.42008	0.07355129	0.2731798	-0.001580041	-0.003240141	-0.04768779	-0.03258858	0	0
7.436647	0.07357746	0.2730903	0.001579905	-0.005402167	0.09537421	-0.06525478	0	0
7.453214	0.07362981	0.2729472	0.003159809	-0.008642029	0.04768299	-0.09778203	0	0
7.46978	0.07362981	0.2729472	0	0	-0.09536597	0.2608245	0	0
7.486348	0.07357746	0.2729114	-0.003159718	-0.002160445	-0.09536185	-0.06520329	0	0
7.502914	0.07357746	0.2728398	0	-0.004321139	0.09536323	-0.06521175	0	0
7.51948	0.07355129	0.2727503	-0.00157995	-0.005400524	-0.04768573	-0.03257778	0	0
7.536047	0.07349894	0.2726429	-0.003159718	-0.006481335	-0.04767887	-0.03261988	0	0
7.552614	0.07336807	0.2725177	-0.007899523	-0.007562675	-0.1430496	-0.03263536	0	0
7.569181	0.07297544	0.2722134	-0.02369992	-0.01836521	-0.4768706	-0.3260306	0	0
7.585747	0.07208541	0.2716049	-0.0537255	-0.03673148	-0.9062129	-0.554319	0	0
7.602314	0.07111671	0.2709427	-0.05847266	-0.03997388	-0.1432758	-0.09786015	0	0
7.618881	0.07114289	0.2709606	0.001580354	0.001081153	1.812456	1.239079	0	0
7.635447	0.07114289	0.2709606	0	0	-0.04769725	-0.03263067	0	0
7.652014	0.07114289	0.2709606	0	0	0	0	0	0
7.668581	0.07114289	0.2709606	0	0	0	0	0	0
7.685309	0.07114289	0.2709606	0	0	0	0	0	0
7.701714	0.07114289	0.2709606	0	0	0	0	0	0
7.71828	0.07114289	0.2709606	0	0	0	0	0	0
7.734848	0.07114289	0.2709606	0	0	0	0	0	0
7.751414	0.07114289	0.2709606	0	0	0	0	0	0
7.785232	0.07114289	0.2709248	0	-0.001058396	0	-0.02100637	0	0
7.8018	0.07114289	0.2709248	0	0	0	0.02100597	0	0
7.818367	0.07114289	0.2709248	0	0	0	0	0	0
7.834935	0.07116907	0.2709069	0.001580263	-0.001081091	0.04769107	-0.03262645	0	0
7.8515	0.07116907	0.2708711	0	-0.002160818	-0.04769588	-0.03258858	0	0
7.868066	0.07122143	0.2708353	0.0031608	-0.002160569	0.0954041	7.505532E-06	0	0
7.884633	0.07122143	0.2707995	0	-0.002162306	-0.09539724	-5.241548E-05	0	0
7.901199	0.07124762	0.2707816	0.00158085	-0.001079385	0.04771219	0.03268403	0	0
7.917766	0.07129999	0.2707458	0.003160618	-0.002160445	0.04767887	-0.03262739	0	0
7.950899	0.07129999	0.27071	0	-0.001080269	-0.06359358	0.02173381	0	0
7.96751	0.07129999	0.27071	0	0	0	0.02171651	0	0
7.984032	0.07132617	0.2706921	0.001584642	-0.001084086	0.04782664	-0.0327192	0	0
8.001033	0.07132617	0.2706921	0	0	-0.04727084	0.03233896	0	0
8.017165	0.07132617	0.2706921	0	0	0	0	0	0
8.033733	0.07132617	0.2706921	0	0	0	0	0	0
8.05057	0.07132617	0.2706921	0	0	0	0	0	0
8.083591	0.07135235	0.2706742	0.0007928701	-0.0005424188	0.01590253	-0.01087925	0	0
8.100102	0.07135235	0.2706742	0	0	-0.01600725	0.01095089	0	0
8.116614	0.07135235	0.2706742	0	0	0	0	0	0
8.133132	0.07135235	0.2706742	0	0	0	0	0	0
8.149701	0.07135235	0.2706742	0	0	0	0	0	0
8.166265	0.07132617	0.2706921	-0.001580582	0.001081309	-0.04770343	0.0326349	0	0
8.182833	0.07135235	0.2706742	0.001580309	-0.001081122	0.0954041	-0.06526792	0	0
8.1994	0.07135235	0.2706742	0	0	-0.04769382	0.03262833	0	0
8.215966	0.07135235	0.2706742	0	0	0	0	0	0
8.232533	0.07135235	0.2706742	0	0	0	0	0	0
8.249099	0.07135235	0.2706742	0	0	0	0	0	0
8.265665	0.07135235	0.2706742	0	0	0	0	0	0
8.282231	0.07135235	0.2706742	0	0	0	0	0	0
8.298798	0.07135235	0.2706742	0	0	0	0	0	0
8.315365	0.07135235	0.2706742	0	0	0	0	0	0
8.33193	0.07135235	0.2706742	0	0	0	0	0	0
8.348777	0.07135235	0.2706742	0	0	0	0	0	0
8.365289	0.07135235	0.2706742	0	0	0	0	0	0
8.381631	0.07135235	0.2706742	0	0	0	0	0	0
8.398198	0.07135235	0.2706742	0	0	0	0	0	0
8.414764	0.07135235	0.2706742	0	0	0	0	0	0
8.431332	0.07135235	0.2706384	0	-0.002160445	0	-0.06520423	0	0
8.447897	0.07137853	0.2706205	0.001580491	-0.001079447	0.04770205	0.03262645	0	0
8.464463	0.07137853	0.2706205	0	0	-0.04770342	0.0325806	0	0
8.48103	0.07137853	0.2706205	0	0	0	0	0	0
8.497597	0.07137853	0.2706205	0	0	0	0	0	0
8.514163	0.07137853	0.2706205	0	0	0	0	0	0
8.530729	0.07137853	0.2706205	0	0	0	0	0	0
8.547296	0.07137853	0.2706205	0	0	0	0	0	0
8.563862	0.07137853	0.2706205	0	0	0	0	0	0
8.580428	0.07137853	0.2706205	0	0	0	0	0	0
8.596995	0.07137853	0.2706205	0	0	0	0	0	0
8.613562	0.07137853	0.2706205	0	0	0	0	0	0
8.630128	0.07137853	0.2706205	0	0	0	0	0	0
8.663496	0.07137853	0.2706205	0	0	0	0	0	0
8.680008	0.07137853	0.2706205	0	0	0	0	0	0
8.696521	0.07137853	0.2706205	0	0	0	0	0	0
8.71303	0.07137853	0.2706205	0	0	0	0	0	0
8.729527	0.07137853	0.2706205	0	0	0	0	0	0
8.746094	0.07140471	0.2706026	0.0015804	-0.001081184	0.04779837	-0.03269985	0	0
8.76266	0.07140471	0.2705668	0	-0.002160569	-0.04769931	-0.03257779	0	0
8.779229	0.07143089	0.2705131	0.001580127	-0.003241194	0.04768695	-0.03261237	0	0
8.795794	0.07158798	0.2702267	0.009482944	-0.01728915	0.2385075	-0.4239681	0	0
8.812361	0.07242573	0.2695465	0.05056965	-0.04105802	1.240106	-0.7174078	0	0
8.828927	0.0740224	0.2682039	0.09638055	-0.08104384	1.382656	-1.206844	0	0
8.845495	0.0812157	0.2624204	0.4341637	-0.3490725	10.19432	-8.089123	0	0
8.86214	0.08712102	0.2566165	0.3547913	-0.348699	-2.389826	0.01124698	0	0
8.895197	0.08675537	0.2369624	-0.01106097	-0.594547	-7.360961	-4.946471	0	0
8.911763	0.08450877	0.2171626	-0.1356131	-1.195191	-2.509942	-12.10402	0	0
8.928328	0.0826011	0.1969746	-0.115167	-1.218759	0.6171335	-0.7113738	0	0
8.944894	0.08155555	0.1870502	-0.06311345	-0.5990732	1.571161	18.70431	0	0
8.96146	0.0794116	0.1631725	-0.1294165	-1.441341	-2.001145	-25.42115	0	0
8.994594	0.07457199	0.1339759	-0.1460638	-0.8811824	-0.334958	11.27084	0	0
9.027727	0.0678169	0.1149595	-0.2038749	-0.5739317	-0.8723965	4.636556	0	0
9.044293	0.05958727	0.1080064	-0.4967699	-0.419714	-5.893286	3.102986	0	0
9.060861	0.05384265	0.1039946	-0.3467462	-0.242152	4.527854	5.358986	0	0
9.077427	0.04825199	0.1000894	-0.337472	-0.2357305	0.2799044	0.1938052	0	0
9.093993	0.0447333	0.09763098	-0.212401	-0.148402	3.774869	2.635733	0	0
9.11056	0.04155501	0.09540987	-0.1918418	-0.1340663	0.620495	0.4326636	0	0
9.127324	0.03798173	0.09287538	-0.2131562	-0.1511891	-0.6394778	-0.51372	0	0
9.143834	0.03566908	0.09125844	-0.1400756	-0.0979374	2.196348	1.600414	0	0
9.160347	0.03127927	0.08815151	-0.2658416	-0.1881515	-3.808451	-2.731867	0	0
9.176858	0.03109524	0.087986	-0.01114611	-0.01002453	7.712474	5.393892	0	0
9.193394	0.03109524	0.087986	0	0	0.3372835	0.3033442	0	0
9.20996	0.03109524	0.087986	0	0	0	0	0	0
9.226526	0.03109524	0.087986	0	0	0	0	0	0
9.243093	0.03109524	0.087986	0	0	0	0	0	0
9.25966	0.03109524	0.087986	0	0	0	0	0	0
9.276227	0.03109524	0.087986	0	0	0	0	0	0
9.292941	0.03109524	0.087986	0	0	0	0	0	0
9.309452	0.03109524	0.087986	0	0	0	0	0	0
9.325963	0.03109524	0.087986	0	0	0	0	0	0
9.342493	0.03109524	0.087986	0	0	0	0	0	0
9.359059	0.03109524	0.087986	0	0	0	0	0	0
9.375626	0.03109524	0.087986	0	0	0	0	0	0
9.392192	0.03109524	0.087986	0	0	0	0	0	0
9.409023	0.03109524	0.087986	0	0	0	0	0	0
9.425325	0.03109524	0.087986	0	0	0	0	0	0
9.441892	0.03112153	0.0879676	0.001587034	-0.001110418	0.0482845	-0.03378376	0	0
9.458458	0.03117411	0.08793082	0.003173955	-0.002220385	0.04789613	-0.03350082	0	0
9.475068	0.03125298	0.08787565	0.004748414	-0.003321557	0.04745717	-0.03319141	0	0
9.491591	0.03143701	0.0877469	0.01113752	-0.007791758	0.1928293	-0.1349148	0	0
9.508158	0.03154217	0.08767334	0.006347684	-0.00444077	-0.1447535	0.10127	0	0
9.524724	0.03167361	0.08758137	0.007934606	-0.005551638	0.04789614	-0.03352797	0	0
9.54129	0.03196279	0.08734225	0.01745591	-0.01443363	0.28737	-0.2680745	0	0
9.574636	0.03693057	0.08379077	0.1489759	-0.1065035	2.635013	-1.844626	0	0
9.591149	0.04142366	0.08064169	0.2720963	-0.1907049	2.46937	-1.688789	0	0
9.607661	0.05460356	0.0713466	0.7982054	-0.5629323	15.93073	-11.27115	0	0
9.624125	0.05969216	0.0677632	0.3090877	-0.2176598	-14.8329	10.47067	0	0
9.640691	0.06896938	0.06121631	0.5600066	-0.3951942	7.596799	-5.375016	0	0
9.657257	0.07504302	0.05691989	0.3666267	-0.259347	-5.836554	4.100111	0	0
9.673824	0.07996073	0.05343489	0.2968332	-0.2103551	-2.106432	1.478621	0	0
9.690391	0.08443038	0.05026232	0.2698045	-0.1915079	-0.8157516	0.5688268	0	0
9.706958	0.08722548	0.04827582	0.1687126	-0.1199054	-3.051047	2.161031	0	0
9.723524	0.08918385	0.0468828	0.1182143	-0.08408771	-1.524086	1.08101	0	0
9.740092	0.08915775	0.04690138	-0.001575721	0.001121307	-3.615269	2.571613	0	0
9.756767	0.08915775	0.04690138	0	0	0.04739983	-0.03373044	0	0
9.77323	0.08915775	0.04690138	0	0	0	0	0	0
9.789792	0.08915775	0.04690138	0	0	0	0	0	0
9.806806	0.08915775	0.04690138	0	0	0	0	0	0
9.839497	0.08915775	0.04690138	0	0	0	0	0	0
9.856058	0.08915775	0.04690138	0	0	0	0	0	0
9.872624	0.08915775	0.04690138	0	0	0	0	0	0
9.889362	0.08915775	0.04690138	0	0	0	0	0	0
9.905872	0.08915775	0.04690138	0	0	0	0	0	0
9.922384	0.08915775	0.04690138	0	0	0	0	0	0
9.938895	0.08915775	0.04690138	0	0	0	0	0	0
9.955459	0.08913163	0.04691995	-0.001576624	0.00112163	-0.04766905	0.03391235	0	0
9.972025	0.08913163	0.04691995	0	0	0.04758947	-0.03385573	0	0
9.988931	0.08913163	0.04691995	0	0	0	0	0	0
10.00516	0.08913163	0.04691995	0	0	0	0	0	0
10.02173	0.08913163	0.04691995	0	0	0	0	0	0
10.03847	0.08913163	0.04691995	0	0	0	0	0	0
10.05486	0.08910552	0.04693853	-0.001592588	0.001133083	-0.04806579	0.03419749	0	0
10.07149	0.08907942	0.04695711	-0.001569847	0.001117127	0.0006886377	-0.0004831625	0	0
10.088	0.08907942	0.04695711	0	0	0.04736582	-0.03370624	0	0
10.10456	0.08905331	0.04697568	-0.00157681	0.001121857	-0.04768154	0.03392411	0	0
10.12152	0.08905331	0.04697568	0	0	0.04703722	-0.03346569	0	0
10.13769	0.0890272	0.04699426	-0.001614568	0.001148951	-0.04872635	0.03467442	0	0
10.15426	0.0890011	0.04701284	-0.001575902	0.001121436	0.00118114	-0.0008405163	0	0
10.17106	0.08897499	0.04699426	-0.001553809	-0.001105714	0.0006621222	-0.06674487	0	0
10.18739	0.08897499	0.04699426	0	0	0.04689674	0.03337244	0	0
10.20409	0.08897499	0.04699426	0	0	0	0	0	0
10.22053	0.08887056	0.04699426	-0.00635233	0	-0.1917247	0	0	0
10.23711	0.08853114	0.04678991	-0.0204685	-0.01232306	-0.4274663	-0.3731674	0	0
10.25366	0.08333288	0.04320278	-0.3140565	-0.216719	-8.860505	-6.168682	0	0
10.27023	0.07875781	0.03994726	-0.2761679	-0.1965149	1.144041	0.6100598	0	0
10.28679	0.07061921	0.03430384	-0.491275	-0.3406573	-6.492318	-4.350478	0	0
10.30365	0.05908903	0.0264669	-0.683839	-0.464798	-5.760693	-3.713758	0	0
10.31993	0.05289797	0.02239243	-0.38046	-0.2503891	9.15626	6.471061	0	0
10.33649	0.04439187	0.01647799	-0.513459	-0.3570167	-4.050055	-3.246998	0	0
10.35306	0.03398691	0.00916467	-0.628081	-0.4414586	-3.459496	-2.548609	0	0
10.36963	0.0242584	0.002249522	-0.5872478	-0.4174232	1.232417	0.7254323	0	0
10.38621	0.01628803	-0.003379539	-0.4805666	-0.3393996	3.21798	2.353535	0	0
10.41932	0.008341912	-0.009074835	-0.2399594	-0.1719883	4.841211	3.368452	0	0
10.43589	0.001342105	-0.01409949	-0.4225335	-0.3033063	-3.67495	-2.643238	0	0
10.45362	0.001394736	-0.01409949	0.002968692	0	12.40709	8.844017	0	0
10.47027	0.001394736	-0.01409949	0	0	-0.0863471	0	0	0
10.48678	0.001421052	-0.01411839	0.00159393	-0.001145002	0.04806478	-0.03452739	0	0
10.50332	0.001421052	-0.01411839	0	0	-0.04822984	0.03464596	0	0
10.53645	0.001421052	-0.01411839	0	0	0	0	0	0
10.55302	0.001421052	-0.01411839	0	0	0	0	0	0
10.56959	0.001421052	-0.01411839	0	0	0	0	0	0
10.58615	0.001421052	-0.01411839	0	0	0	0	0	0
10.60272	0.001394736	-0.01409949	-0.001588425	0.001141047	-0.04794014	0.03443785	0	0
10.61929	0.001394736	-0.01409949	0	0	0.04794014	-0.03443785	0	0
10.63589	0.001394736	-0.01409949	0	0	0	0	0	0
10.65242	0.001421052	-0.01408059	0.001591632	0.001143407	0.04803692	0.03450908	0	0
10.66899	0.001421052	-0.01408059	0	0	-0.04808398	-0.03454288	0	0
10.68555	0.001421052	-0.01408059	0	0	0	0	0	0
10.70212	0.001421052	-0.01408059	0	0	0	0	0	0
10.75182	0.001394736	-0.01406168	-0.0005295054	0.0003803709	-0.007990712	0.005740138	0	0
10.76839	0.001394736	-0.01406168	0	0	0.007990023	-0.005739642	0	0
10.78499	0.001394736	-0.01406168	0	0	0	0	0	0
10.80152	0.001394736	-0.01406168	0	0	0	0	0	0
10.81808	0.001421052	-0.01408059	0.001588516	-0.001141113	0.04799816	-0.03447953	0	0
10.83465	0.001421052	-0.01408059	0	0	-0.04794428	0.03444083	0	0
10.85122	0.001421052	-0.01408059	0	0	0	0	0	0
10.86778	0.001421052	-0.01408059	0	0	0	0	0	0
10.88435	0.001421052	-0.01408059	0	0	0	0	0	0
10.90092	0.001421052	-0.01408059	0	0	0	0	0	0
10.91758	0.001421052	-0.01408059	0	0	0	0	0	0
10.93409	0.001421052	-0.01408059	0	0	0	0	0	0
10.95062	0.001421052	-0.01408059	0	0	0	0	0	0
10.96718	0.001421052	-0.01408059	0	0	0	0	0	0
10.98414	0.001421052	-0.01408059	0	0	0	0	0	0
11.00032	0.001421052	-0.01408059	0	0	0	0	0	0
11.01688	0.001421052	-0.01408059	0	0	0	0	0	0
11.03366	0.001421052	-0.01408059	0	0	0	0	0	0
11.05002	0.001421052	-0.01408059	0	0	0	0	0	0
11.06669	0.001421052	-0.01408059	0	0	0	0	0	0
11.08315	0.001421052	-0.01408059	0	0	0	0	0	0
11.09972	0.001421052	-0.01408059	0	0	0	0	0	0
11.13285	0.001421052	-0.01408059	0	0	0	0	0	0
11.14942	0.001421052	-0.01408059	0	0	0	0	0	0
11.16598	0.001447367	-0.01409949	0.001588509	-0.001141169	0.04794407	-0.03444253	0	0
11.18277	0.001447367	-0.01409949	0	0	-0.04762739	0.03421503	0	0
11.19928	0.001447367	-0.01409949	0	0	0	0	0	0
11.21568	0.001447367	-0.01409949	0	0	0	0	0	0
11.23225	0.001447367	-0.01409949	0	0	0	0	0	0
11.24881	0.001447367	-0.01409949	0	0	0	0	0	0
11.26538	0.001447367	-0.01409949	0	0	0	0	0	0
11.29885	0.001447367	-0.01409949	0	0	0	0	0	0
11.31536	0.001447367	-0.01409949	0	0	0	0	0	0
11.33182	0.001447367	-0.01409949	0	0	0	0	0	0
11.34838	0.001473683	-0.01411839	0.001588516	-0.001141113	0.04810489	-0.03455621	0	0
11.36495	0.001473683	-0.01411839	0	0	-0.0479429	0.03443984	0	0
11.38152	0.001473683	-0.01411839	0	0	0	0	0	0
11.39808	0.001473683	-0.01411839	0	0	0	0	0	0
11.41465	0.001473683	-0.01411839	0	0	0	0	0	0
11.43122	0.001473683	-0.01411839	0	0	0	0	0	0
11.44778	0.001473683	-0.01411839	0	0	0	0	0	0
11.46447	0.001473683	-0.01411839	0	0	0	0	0	0
11.48092	0.001473683	-0.01411839	0	0	0	0	0	0
11.49749	0.001473683	-0.01411839	0	0	0	0	0	0
11.51405	0.001473683	-0.01411839	0	0	0	0	0	0
11.53062	0.001473683	-0.01411839	0	0	0	0	0	0
11.54718	0.001473683	-0.01411839	0	0	0	0	0	0
11.56375	0.001473683	-0.01411839	0	0	0	0	0	0
11.58032	0.001473683	-0.01411839	0	0	0	0	0	0
11.59688	0.001473683	-0.01411839	0	0	0	0	0	0
11.63008	0.001473683	-0.01411839	0	0	0	0	0	0
11.64659	0.001473683	-0.01411839	0	0	0	0	0	0
11.66315	0.001499999	-0.0141373	0.001589607	-0.001141958	0.04807268	-0.03453492	0	0
11.67972	0.001499999	-0.0141373	0	0	-0.04799378	0.03447824	0	0
11.69628	0.001499999	-0.0141373	0	0	0	0	0	0
11.71314	0.001499999	-0.0141373	0	0	0	0	0	0
11.72941	0.001499999	-0.0141373	0	0	0	0	0	0
11.74598	0.001499999	-0.0141373	0	0	0	0	0	0
11.76255	0.001499999	-0.0141373	0	0	0	0	0	0
11.77919	0.001499999	-0.0141373	0	0	0	0	0	0
11.7957	0.001499999	-0.0141373	0	0	0	0	0	0
11.81225	0.001499999	-0.0141373	0	0	0	0	0	0
11.82881	0.001499999	-0.0141373	0	0	0	0	0	0
11.84538	0.001499999	-0.0141373	0	0	0	0	0	0
11.86195	0.001499999	-0.0141373	0	0	0	0	0	0
11.87851	0.001499999	-0.0141373	0	0	0	0	0	0
11.89527	0.001499999	-0.0141373	0	0	0	0	0	0
11.91178	0.001499999	-0.0141373	0	0	0	0	0	0
11.92821	0.001499999	-0.0141373	0	0	0	0	0	0
11.94478	0.001499999	-0.0141373	0	0	0	0	0	0
11.96134	0.001499999	-0.0141373	0	0	0	0	0	0
11.97791	0.001499999	-0.0141373	0	0	0	0	0	0
11.99448	0.001499999	-0.0141373	0	0	0	0	0	0
12.01104	0.001499999	-0.0141373	0	0	0	0	0	0
12.02761	0.001499999	-0.0141373	0	0	0	0	0	0
12.04418	0.001499999	-0.0141373	0	0	0	0	0	0
12.06074	0.001499999	-0.0141373	0	0	0	0	0	0
12.11233	0.001499999	-0.0141373	0	0	0	0	0	0
12.12889	0.001499999	-0.0141373	0	0	0	0	0	0
12.16246	0.001499999	-0.0141373	0	0	0	0	0	0
12.17903	0.001499999	-0.0141373	0	0	0	0	0	0
12.19559	0.001499999	-0.0141373	0	0	0	0	0	0
12.21216	0.001499999	-0.0141373	0	0	0	0	0	0
12.229	0.001499999	-0.0141373	0	0	0	0	0	0
12.24551	0.001499999	-0.0141373	0	0	0	0	0	0
12.26186	0.001499999	-0.0141373	0	0	0	0	0	0
12.29504	0.001499999	-0.0141373	0	0	0	0	0	0
12.31156	0.001499999	-0.0141373	0	0	0	0	0	0
12.32813	0.001499999	-0.0141373	0	0	0	0	0	0
12.34469	0.001499999	-0.0141373	0	0	0	0	0	0
12.36159	0.001499999	-0.0141373	0	0	0	0	0	0
12.37783	0.001499999	-0.0141373	0	0	0	0	0	0
12.39439	0.001499999	-0.0141373	0	0	0	0	0	0
12.41113	0.001499999	-0.0141373	0	0	0	0	0	0
12.42753	0.001499999	-0.0141373	0	0	0	0	0	0
12.47723	0.001499999	-0.0141373	0	0	0	0	0	0
12.49379	0.001499999	-0.0141373	0	0	0	0	0	0
12.51036	0.001499999	-0.0141373	0	0	0	0	0	0
12.52692	0.001499999	-0.0141373	0	0	0	0	0	0
12.54349	0.001499999	-0.0141373	0	0	0	0	0	0
12.56006	0.001499999	-0.0141373	0	0	0	0	0	0
12.57662	0.001499999	-0.0141373	0	0	0	0	0	0
12.59319	0.001499999	-0.0141373	0	0	0	0	0	0
12.60976	0.001499999	-0.0141373	0	0	0	0	0	0
12.62632	0.001499999	-0.0141373	0	0	0	0	0	0
12.64289	0.001499999	-0.0141373	0	0	0	0	0	0
12.65946	0.001499999	-0.0141373	0	0	0	0	0	0
12.67602	0.001499999	-0.0141373	0	0	0	0	0	0
12.69259	0.001499999	-0.0141373	0	0	0	0	0	0
12.70916	0.001499999	-0.0141373	0	0	0	0	0	0
12.72572	0.001499999	-0.0141373	0	0	0	0	0	0
12.74286	0.001499999	-0.0141373	0	0	0	0	0	0
12.75886	0.001499999	-0.0141373	0	0	0	0	0	0
12.77542	0.001499999	-0.0141373	0	0	0	0	0	0
12.79199	0.001499999	-0.0141373	0	0	0	0	0	0
12.80856	0.001499999	-0.0141373	0	0	0	0	0	0
12.82512	0.001499999	-0.0141373	0	0	0	0	0	0
12.84169	0.001499999	-0.0141373	0	0	0	0	0	0
12.85826	0.001499999	-0.0141373	0	0	0	0	0	0
12.89146	0.001499999	-0.0141373	0	0	0	0	0	0
12.90798	0.001499999	-0.0141373	0	0	0	0	0	0
12.92452	0.001499999	-0.0141373	0	0	0	0	0	0
12.94109	0.001499999	-0.0141373	0	0	0	0	0	0
12.95766	0.001499999	-0.0141373	0	0	0	0	0	0
12.97422	0.001499999	-0.0141373	0	0	0	0	0	0
12.99103	0.001499999	-0.0141373	0	0	0	0	0	0
13.00736	0.001499999	-0.0141373	0	0	0	0	0	0
13.02392	0.001499999	-0.0141373	0	0	0	0	0	0
13.04049	0.001499999	-0.0141373	0	0	0	0	0	0
13.05708	0.001499999	-0.0141373	0	0	0	0	0	0
13.09019	0.001499999	-0.0141373	0	0	0	0	0	0
13.10676	0.001499999	-0.0141373	0	0	0	0	0	0
13.12332	0.001499999	-0.0141373	0	0	0	0	0	0
13.13989	0.001499999	-0.0141373	0	0	0	0	0	0
13.15646	0.001499999	-0.0141373	0	0	0	0	0	0
13.17302	0.001499999	-0.0141373	0	0	0	0	0	0
13.18959	0.001499999	-0.0141373	0	0	0	0	0	0
13.20616	0.001499999	-0.0141373	0	0	0	0	0	0
13.22272	0.001499999	-0.0141373	0	0	0	0	0	0
13.23929	0.001499999	-0.0141373	0	0	0	0	0	0
13.25585	0.001499999	-0.0141373	0	0	0	0	0	0
13.27242	0.001499999	-0.0141373	0	0	0	0	0	0
13.28899	0.001499999	-0.0141373	0	0	0	0	0	0
13.30556	0.001499999	-0.0141373	0	0	0	0	0	0
13.32212	0.001499999	-0.0141373	0	0	0	0	0	0
13.33869	0.001499999	-0.0141373	0	0	0	0	0	0
13.35529	0.001499999	-0.0141373	0	0	0	0	0	0
13.37182	0.001499999	-0.0141373	0	0	0	0	0	0
13.38839	0.001499999	-0.0141373	0	0	0	0	0	0
13.40496	0.001499999	-0.0141373	0	0	0	0	0	0
13.42184	0.001499999	-0.0141373	0	0	0	0	0	0
13.43835	0.001499999	-0.0141373	0	0	0	0	0	0
13.45466	0.001499999	-0.0141373	0	0	0	0	0	0
13.47122	0.001499999	-0.0141373	0	0	0	0	0	0
13.48788	0.001499999	-0.0141373	0	0	0	0	0	0
13.50439	0.001499999	-0.0141373	0	0	0	0	0	0
13.52092	0.001499999	-0.0141373	0	0	0	0	0	0
13.53749	0.001499999	-0.0141373	0	0	0	0	0	0
13.55406	0.001499999	-0.0141373	0	0	0	0	0	0
13.57062	0.001499999	-0.0141373	0	0	0	0	0	0
13.58745	0.001499999	-0.0141373	0	0	0	0	0	0
13.60375	0.001499999	-0.0141373	0	0	0	0	0	0
13.62032	0.001499999	-0.0141373	0	0	0	0	0	0
13.63689	0.001499999	-0.0141373	0	0	0	0	0	0
13.6535	0.001499999	-0.0141373	0	0	0	0	0	0
13.67002	0.001499999	-0.0141373	0	0	0	0	0	0
13.70354	0.001499999	-0.0141373	0	0	0	0	0	0
13.71972	0.001499999	-0.0141373	0	0	0	0	0	0
13.73656	0.001499999	-0.0141373	0	0	0	0	0	0
13.75285	0.001499999	-0.0141373	0	0	0	0	0	0
13.76958	0.001499999	-0.0141373	0	0	0	0	0	0
13.78599	0.001499999	-0.0141373	0	0	0	0	0	0
13.80261	0.001499999	-0.0141373	0	0	0	0	0	0
13.81912	0.001499999	-0.0141373	0	0	0	0	0	0
13.83569	0.001499999	-0.0141373	0	0	0	0	0	0
13.85225	0.001499999	-0.0141373	0	0	0	0	0	0
13.86915	0.001499999	-0.0141373	0	0	0	0	0	0
13.88539	0.001499999	-0.0141373	0	0	0	0	0	0
13.91869	0.001499999	-0.0141373	0	0	0	0	0	0
13.93509	0.001499999	-0.0141373	0	0	0	0	0	0
13.96822	0.001499999	-0.0141373	0	0	0	0	0	0
13.98479	0.001499999	-0.0141373	0	0	0	0	0	0
14.00175	0.001499999	-0.0141373	0	0	0	0	0	0
14.01792	0.001499999	-0.0141373	0	0	0	0	0	0
14.03449	0.001499999	-0.0141373	0	0	0	0	0	0
14.05105	0.001499999	-0.0141373	0	0	0	0	0	0
14.06762	0.001499999	-0.0141373	0	0	0	0	0	0
14.08419	0.001499999	-0.0141373	0	0	0	0	0	0
14.10081	0.001499999	-0.0141373	0	0	0	0	0	0
14.11733	0.001499999	-0.0141373	0	0	0	0	0	0
14.13389	0.001499999	-0.0141373	0	0	0	0	0	0
14.15045	0.001499999	-0.0141373	0	0	0	0	0	0
14.16736	0.001499999	-0.0141373	0	0	0	0	0	0
14.18359	0.001499999	-0.0141373	0	0	0	0	0	0
14.20038	0.001499999	-0.0141373	0	0	0	0	0	0
14.21672	0.001499999	-0.0141373	0	0	0	0	0	0
14.23328	0.001499999	-0.0141373	0	0	0	0	0	0
14.24992	0.001499999	-0.0141373	0	0	0	0	0	0
14.26642	0.001499999	-0.0141373	0	0	0	0	0	0
14.29955	0.001499999	-0.0141373	0	0	0	0	0	0
14.31612	0.001499999	-0.0141373	0	0	0	0	0	0
14.33298	0.001499999	-0.0141373	0	0	0	0	0	0
14.34925	0.001499999	-0.0141373	0	0	0	0	0	0
14.38238	0.001499999	-0.0141373	0	0	0	0	0	0
14.39895	0.001499999	-0.0141373	0	0	0	0	0	0
14.41554	0.001499999	-0.0141373	0	0	0	0	0	0
14.43209	0.001499999	-0.0141373	0	0	0	0	0	0
14.44906	0.001499999	-0.0141373	0	0	0	0	0	0
14.46522	0.001499999	-0.0141373	0	0	0	0	0	0
14.48178	0.001499999	-0.0141373	0	0	0	0	0	0
14.49835	0.001499999	-0.0141373	0	0	0	0	0	0
14.51511	0.001499999	-0.0141373	0	0	0	0	0	0
14.53162	0.001499999	-0.0141373	0	0	0	0	0	0
14.54813	0.001499999	-0.0141373	0	0	0	0	0	0
14.56464	0.001499999	-0.0141373	0	0	0	0	0	0
14.58118	0.001499999	-0.0141373	0	0	0	0	0	0
14.59775	0.001499999	-0.0141373	0	0	0	0	0	0
14.61432	0.001499999	-0.0141373	0	0	0	0	0	0
14.63088	0.001499999	-0.0141373	0	0	0	0	0	0
14.6477	0.001499999	-0.0141373	0	0	0	0	0	0
14.66421	0.001499999	-0.0141373	0	0	0	0	0	0
14.68058	0.001499999	-0.0141373	0	0	0	0	0	0
14.69715	0.001499999	-0.0141373	0	0	0	0	0	0
14.71375	0.001499999	-0.0141373	0	0	0	0	0	0
14.73028	0.001499999	-0.0141373	0	0	0	0	0	0
14.74685	0.001499999	-0.0141373	0	0	0	0	0	0
14.76342	0.001499999	-0.0141373	0	0	0	0	0	0
14.77998	0.001499999	-0.0141373	0	0	0	0	0	0
14.79655	0.001499999	-0.0141373	0	0	0	0	0	0
14.81312	0.001499999	-0.0141373	0	0	0	0	0	0
14.82968	0.001499999	-0.0141373	0	0	0	0	0	0
14.86304	0.001499999	-0.0141373	0	0	0	0	0	0
14.8796	0.001499999	-0.0141373	0	0	0	0	0	0
14.89617	0.001499999	-0.0141373	0	0	0	0	0	0
14.91289	0.001499999	-0.0141373	0	0	0	0	0	0
14.9294	0.001499999	-0.0141373	0	0	0	0	0	0
14.94591	0.001499999	-0.0141373	0	0	0	0	0	0
14.96244	0.001499999	-0.0141373	0	0	0	0	0	0
14.979	0.001499999	-0.0141373	0	0	0	0	0	0
14.99557	0.001499999	-0.0141373	0	0	0	0	0	0
15.01214	0.001499999	-0.0141373	0	0	0	0	0	0
15.0287	0.001499999	-0.0141373	0	0	0	0	0	0
15.04527	0.001499999	-0.0141373	0	0	0	0	0	0
15.06183	0.001499999	-0.0141373	0	0	0	0	0	0
15.0784	0.001499999	-0.0141373	0	0	0	0	0	0
15.09497	0.001499999	-0.0141373	0	0	0	0	0	0
15.11153	0.001499999	-0.0141373	0	0	0	0	0	0
15.1281	0.001499999	-0.0141373	0	0	0	0	0	0
15.14467	0.001499999	-0.0141373	0	0	0	0	0	0
15.16123	0.001499999	-0.0141373	0	0	0	0	0	0
15.1778	0.001499999	-0.0141373	0	0	0	0	0	0
15.19437	0.001499999	-0.0141373	0	0	0	0	0	0
15.21093	0.001499999	-0.0141373	0	0	0	0	0	0
15.2772	0.001499999	-0.0141373	0	0	0	0	0	0
15.29376	0.001499999	-0.0141373	0	0	0	0	0	0
15.31033	0.001499999	-0.0141373	0	0	0	0	0	0
15.32717	0.001499999	-0.0141373	0	0	0	0	0	0
15.34346	0.001499999	-0.0141373	0	0	0	0	0	0
15.36003	0.001499999	-0.0141373	0	0	0	0	0	0
15.3766	0.001499999	-0.0141373	0	0	0	0	0	0
15.39316	0.001499999	-0.0141373	0	0	0	0	0	0
15.40973	0.001499999	-0.0141373	0	0	0	0	0	0
15.4263	0.001499999	-0.0141373	0	0	0	0	0	0
15.44286	0.001499999	-0.0141373	0	0	0	0	0	0
15.45943	0.001499999	-0.0141373	0	0	0	0	0	0
15.476	0.001499999	-0.0141373	0	0	0	0	0	0
15.49256	0.001499999	-0.0141373	0	0	0	0	0	0
15.50913	0.001499999	-0.0141373	0	0	0	0	0	0
15.5257	0.001499999	-0.0141373	0	0	0	0	0	0
15.54232	0.001499999	-0.0141373	0	0	0	0	0	0
15.55883	0.001499999	-0.0141373	0	0	0	0	0	0
15.5754	0.001499999	-0.0141373	0	0	0	0	0	0
15.59196	0.001499999	-0.0141373	0	0	0	0	0	0
15.60853	0.001499999	-0.0141373	0	0	0	0	0	0
15.6251	0.001499999	-0.0141373	0	0	0	0	0	0
15.64166	0.001499999	-0.0141373	0	0	0	0	0	0
15.65823	0.001499999	-0.0141373	0	0	0	0	0	0
15.6748	0.001499999	-0.0141373	0	0	0	0	0	0
15.69143	0.001499999	-0.0141373	0	0	0	0	0	0
15.70794	0.001499999	-0.0141373	0	0	0	0	0	0
15.7245	0.001499999	-0.0141373	0	0	0	0	0	0
15.74106	0.001499999	-0.0141373	0	0	0	0	0	0
15.75798	0.001499999	-0.0141373	0	0	0	0	0	0
15.79101	0.001499999	-0.0141373	0	0	0	0	0	0
15.80758	0.001499999	-0.0141373	0	0	0	0	0	0
15.82415	0.001473683	-0.01411839	-0.001588418	0.001141103	-0.04793992	0.03443955	0	0
15.84071	0.001473683	-0.01411839	0	0	0.04793992	-0.03443955	0	0
15.85728	0.001684209	-0.01374033	0.0127059	0.02281758	0.3834538	0.688616	0	0
15.87385	0.001289473	-0.01323001	-0.02382769	0.03080487	-1.102554	0.2410499	0	0
15.89057	-0.001131578	-0.01130285	-0.1448096	0.1152681	-3.634711	2.537565	0	0
15.90708	-0.006315705	-0.00671631	-0.3139446	0.2777557	-5.089565	4.889532	0	0
15.92355	-0.01299927	-0.001627673	-0.4058973	0.3090364	-2.788217	0.948504	0	0
15.94011	-0.02268032	0.005746443	-0.5843832	0.4451281	-5.403358	4.119943	0	0
15.95668	-0.02980696	0.01091002	-0.4301647	0.3116744	4.65446	-4.027757	0	0
15.97325	-0.03451261	0.01445431	-0.2840498	0.213946	4.409883	-2.949536	0	0
15.98981	-0.04454945	0.02186877	-0.6058254	0.4475374	-9.711486	7.050005	0	0
16.00638	-0.0546298	0.03031284	-0.6084508	0.5096853	-0.0792367	1.87563	0	0
16.02295	-0.06365074	0.04044973	-0.5445052	0.6118636	1.929882	3.083746	0	0
16.03952	-0.06810503	0.04587951	-0.2688616	0.3277423	8.318941	-8.574799	0	0
16.05619	-0.07116907	0.0522849	-0.1837819	0.3841974	2.559608	1.698442	0	0
16.15576	-0.07216395	0.1146304	-0.009991601	0.6261394	1.495056	2.08134	0	0
16.17205	-0.06915271	0.1226878	0.1848225	0.4945458	1.681406	-1.135761	0	0
16.18862	-0.067031	0.1295657	0.1280666	0.4151504	-1.727213	-2.416187	0	0
16.20518	-0.06558999	0.1374176	0.08698951	0.4739997	-1.239781	1.776179	0	0
16.22175	-0.06409629	0.1447855	0.09016035	0.4447252	0.09570166	-0.8835586	0	0
16.23832	-0.06126534	0.1533963	0.1708764	0.5197507	2.436015	2.264276	0	0
16.25489	-0.05793509	0.1621213	0.201014	0.5266413	0.9095554	0.2079586	0	0
16.27145	-0.05615144	0.1660715	0.107674	0.2384625	-2.817171	-8.697754	0	0
16.28802	-0.05402632	0.1718836	0.1282724	0.350816	0.6216967	3.39103	0	0
16.30459	-0.0510346	0.1795525	0.1805809	0.4628983	1.578674	3.382651	0	0
16.32115	-0.04636149	0.1838534	0.2820691	0.2596015	3.062922	-6.13551	0	0
16.33772	-0.04131858	0.1898846	0.304426	0.3640832	0.6747686	3.153446	0	0
16.35429	-0.03614215	0.1935838	0.3124498	0.2232859	0.2421754	-4.249517	0	0
16.37092	-0.02838711	0.1988317	0.466163	0.3154568	4.62948	2.775971	0	0
16.38743	-0.02218057	0.2029049	0.376056	0.2467948	-2.718966	-2.071864	0	0
16.40399	-0.01442005	0.2080744	0.4686417	0.3121752	2.800205	1.977394	0	0
16.42055	-0.01013123	0.2109009	0.2588737	0.1706086	-6.332267	-4.273471	0	0
16.43712	-0.003631563	0.2151658	0.3923208	0.257432	4.027442	2.620337	0	0
16.45369	0.004973643	0.2208671	0.5194113	0.3441287	3.835597	2.616509	0	0
16.47049	0.01089431	0.2248755	0.352462	0.2386268	-5.003688	-3.16203	0	0
16.48682	0.01820851	0.2298342	0.4477757	0.3035727	2.87674	1.960186	0	0
16.50339	0.02202275	0.2323665	0.230228	0.1528483	-6.612036	-4.581043	0	0
16.51995	0.0248896	0.2340005	0.1730429	0.09862494	-1.72585	-1.636465	0	0
16.53652	0.02604674	0.2343236	0.06984536	0.01950696	-3.114509	-2.387785	0	0
16.55309	0.02617823	0.2342339	0.007937648	-0.005418825	-1.868486	-0.7523052	0	0
16.56965	0.02617823	0.2342339	0	0	-0.2395725	0.1635499	0	0
16.58622	0.02615193	0.2342518	-0.001587392	0.00108382	-0.04790758	0.03270976	0	0
16.60279	0.02615193	0.2342518	0	0	0.04790758	-0.03270976	0	0
16.61959	0.02615193	0.2342518	0	0	0	0	0	0
16.63592	0.02615193	0.2342518	0	0	0	0	0	0
16.65261	0.02615193	0.2342518	0	0	0	0	0	0
16.66905	0.02615193	0.2342518	0	0	0	0	0	0
16.68562	0.02612563	0.2342698	-0.001587279	0.001082921	-0.04808688	0.03280726	0	0
16.70219	0.02612563	0.2342698	0	0	0.04790419	-0.03268262	0	0
16.71876	0.02612563	0.2342698	0	0	0	0	0	0
16.75189	0.02607304	0.2342339	-0.001587483	-0.001083433	-0.03194145	-0.02179955	0	0
16.76846	0.02607304	0.2342339	0	0	0.03194023	0.02179871	0	0
16.88444	0.02599414	0.2341441	-0.0006801892	-0.0007740555	-0.005131373	-0.005839504	0	0
16.90099	0.02596785	0.2341262	-0.001589222	-0.001084169	-0.00685886	-0.002339879	0	0
16.91756	0.02594155	0.2341082	-0.001587392	-0.00108382	5.525225E-05	1.053227E-05	0	0
16.93413	0.02594155	0.2341082	0	0	0.04790758	0.03270976	0	0
16.95069	0.02594155	0.2341082	0	0	0	0	0	0
16.96734	0.02591525	0.2340902	-0.00157946	-0.001078481	-0.04755051	-0.03246826	0	0
16.98385	0.02591525	0.2340902	0	0	0.04762982	0.03252242	0	0
17.00039	0.02591525	0.2340902	0	0	0	0	0	0
17.01696	0.02591525	0.2340902	0	0	0	0	0	0
17.03353	0.02591525	0.2340902	0	0	0	0	0	0
17.05009	0.02591525	0.2340902	0	0	0	0	0	0
17.06691	0.02591525	0.2340902	0	0	0	0	0	0
17.08343	0.02591525	0.2340902	0	0	0	0	0	0
17.0998	0.02591525	0.2340902	0	0	0	0	0	0
17.11636	0.02588895	0.2340723	-0.001587392	-0.00108382	-0.04819332	-0.03290486	0	0
17.15598	0.02588895	0.2340723	0	0	0.02825498	0.0192916	0	0
17.17249	0.02588895	0.2340723	0	0	0	0	0	0
17.18884	0.02588895	0.2340723	0	0	0	0	0	0
17.20551	0.02586265	0.2340543	-0.001577404	-0.001077001	-0.04776562	-0.03261283	0	0
17.22198	0.02586265	0.2340543	0	0	0.04760888	0.03250581	0	0
17.23854	0.02586265	0.2340543	0	0	0	0	0	0
17.25511	0.02583635	0.2340364	-0.001587392	-0.00108382	-0.04790758	-0.03270976	0	0
17.27168	0.02583635	0.2340364	0	0	0.04790758	0.03270976	0	0
17.28824	0.02583635	0.2340364	0	0	0	0	0	0
17.30481	0.02583635	0.2340364	0	0	0	0	0	0
17.32138	0.02583635	0.2340364	0	0	0	0	0	0
17.33795	0.02583635	0.2340364	0	0	0	0	0	0
17.35451	0.02583635	0.2340364	0	0	0	0	0	0
17.37108	0.02583635	0.2340364	0	0	0	0	0	0
17.40421	0.02583635	0.2340364	0	0	0	0	0	0
17.43768	0.02581006	0.2340184	-0.0007857246	-0.0005365055	-0.01179719	-0.008055312	0	0
17.45391	0.02581006	0.2340184	0	0	0.01580942	0.01079493	0	0
17.47048	0.02581006	0.2340184	0	0	0	0	0	0
17.48705	0.02581006	0.2340184	0	0	0	0	0	0
17.50373	0.02578376	0.2340005	-0.001576141	-0.001076139	-0.0474016	-0.03236429	0	0
17.52018	0.02575746	0.2339825	-0.001598804	-0.001090706	-0.0006839578	-0.000439645	0	0
17.55332	0.02573116	0.2339646	-0.0007936959	-0.0005419101	0.01623744	0.01106813	0	0
17.56988	0.02573116	0.2339646	0	0	0.01596919	0.01090325	0	0
17.58645	0.02573116	0.2339646	0	0	0	0	0	0
17.60302	0.02573116	0.2339646	0	0	0	0	0	0
17.63633	0.02570486	0.2339466	-0.0007894696	-0.0005390245	-0.01582767	-0.01080663	0	0
17.65284	0.02570486	0.2339466	0	0	0.01584585	0.01081904	0	0
17.66935	0.02570486	0.2339466	0	0	0	0	0	0
17.68585	0.02567857	0.2339287	-0.001593701	-0.001088205	-0.04827585	-0.03296354	0	0
17.70242	0.02567857	0.2339287	0	0	0.0481951	0.0329084	0	0
17.71939	0.02567857	0.2339287	0	0	0	0	0	0
17.73555	0.02567857	0.2339287	0	0	0	0	0	0
17.75241	0.02567857	0.2339287	0	0	0	0	0	0
17.76869	0.02567857	0.2339287	0	0	0	0	0	0
17.78525	0.02567857	0.2339287	0	0	0	0	0	0
17.80195	0.02567857	0.2339287	0	0	0	0	0	0
17.81846	0.02567857	0.2339287	0	0	0	0	0	0
17.83497	0.02567857	0.2339287	0	0	0	0	0	0
17.85152	0.02567857	0.2339287	0	0	0	0	0	0
17.8685	0.02565227	0.2339107	-0.001549223	-0.00105776	-0.04621296	-0.03155273	0	0
17.88465	0.02565227	0.2339107	0	0	0.04675565	0.03192326	0	0
17.90122	0.02565227	0.2339107	0	0	0	0	0	0
17.91803	0.02565227	0.2339107	0	0	0	0	0	0
17.93435	0.02565227	0.2339107	0	0	0	0	0	0
17.95105	0.02565227	0.2339107	0	0	0	0	0	0
17.96749	0.02565227	0.2339107	0	0	0	0	0	0
18.00062	0.02594155	0.2337491	0.008730989	-0.004877022	0.176141	-0.09839018	0	0
18.01718	0.02799269	0.2323486	0.1238213	-0.08454681	2.315799	-1.603082	0	0
18.03375	0.03264629	0.2292415	0.2808921	-0.1875432	4.740681	-3.108615	0	0
18.05032	0.04628271	0.2199141	0.823096	-0.563001	16.36375	-11.33134	0	0
18.06713	0.0641487	0.2076602	1.062491	-0.7287407	7.171302	-4.964881	0	0
18.08345	0.07977769	0.1969025	0.957701	-0.6592039	-3.16258	2.098625	0	0
18.10016	0.1025079	0.1811431	1.360717	-0.9434196	12.20378	-8.60638	0	0
18.11659	0.1139256	0.1732046	0.6949366	-0.4831733	-20.09328	13.89026	0	0
18.13318	0.1248473	0.1655824	0.658097	-0.4592818	-1.115481	0.7234199	0	0
18.14972	0.1495848	0.148166	1.495741	-1.053076	25.28016	-17.92073	0	0
18.16629	0.1669831	0.1357244	1.050166	-0.7509795	-13.45912	9.12516	0	0
18.18322	0.1792397	0.1265384	0.7239757	-0.5425982	-9.737939	6.220921	0	0
18.19942	0.1949906	0.1147401	0.9719822	-0.7280715	7.484853	-5.597596	0	0
18.21624	0.2025016	0.1092697	0.4465821	-0.3252509	-15.90973	12.19788	0	0
18.23256	0.2129581	0.1015932	0.6409657	-0.4705567	5.866846	-4.385592	0	0
18.24927	0.2254685	0.09236096	0.7486651	-0.5524911	3.261263	-2.481068	0	0
18.26569	0.2334787	0.08645926	0.4877677	-0.3593718	-7.874353	5.828688	0	0
18.28226	0.24059	0.08119433	0.4292369	-0.3177918	-1.774224	1.260401	0	0
18.29882	0.2493577	0.07463174	0.5292227	-0.3961188	3.017577	-2.363912	0	0
18.31539	0.2568314	0.06903806	0.4511138	-0.3376347	-2.357329	1.765051	0	0
18.33196	0.2599061	0.06672823	0.1855896	-0.1394216	-8.013538	5.982086	0	0
18.34852	0.2636628	0.06389923	0.2267514	-0.1707592	1.242265	-0.9457735	0	0
18.36509	0.268146	0.0605129	0.2706079	-0.204399	1.323592	-1.015251	0	0
18.38166	0.2703713	0.05882793	0.1343182	-0.1017053	-4.113232	3.099304	0	0
18.39837	0.27086	0.0584575	0.0292387	-0.02216216	-3.15731	2.390023	0	0
18.41488	0.2709333	0.05840194	0.004438244	-0.003365232	-0.7464169	0.5657293	0	0
18.43136	0.2709333	0.05840194	0	0	-0.1345506	0.102021	0	0
18.44793	0.2709333	0.05840194	0	0	0	0	0	0
18.46449	0.2709088	0.05842046	-0.001475075	0.001117999	-0.04451784	0.03374127	0	0
18.48106	0.2708844	0.05843898	-0.001473276	0.001117999	5.428939E-05	0	0	0
18.49794	0.27086	0.0584575	-0.001447413	0.001097033	0.0007731572	-0.0006267536	0	0
18.53148	0.27086	0.0584575	0	0	0.02870994	-0.02176004	0	0
18.54804	0.2708355	0.05847603	-0.001475075	0.001117999	-0.02944354	0.02231605	0	0
18.56461	0.2708355	0.05847603	0	0	0.04451784	-0.03374127	0	0
18.58118	0.2708355	0.05847603	0	0	0	0	0	0
18.59774	0.2708111	0.05849455	-0.001475075	0.001117999	-0.04451784	0.03374127	0	0
18.61431	0.2707867	0.05851307	-0.001475245	0.001118127	-5.126377E-06	3.886068E-06	0	0
18.63104	0.2707867	0.05851307	0	0	0.04430872	-0.03358277	0	0
18.64744	0.2707623	0.05853159	-0.001487836	0.001129047	-0.04490297	0.03407472	0	0
18.66401	0.2707623	0.05853159	0	0	0.04512376	-0.03424226	0	0
18.68058	0.2707378	0.05855011	-0.001475075	0.001117774	-0.04451784	0.03373449	0	0
18.69715	0.2707378	0.05855011	0	0	0.04451784	-0.03373449	0	0
18.71371	0.2707378	0.05855011	0	0	0	0	0	0
18.73028	0.2707378	0.05855011	0	0	0	0	0	0
18.74685	0.2707378	0.05855011	0	0	0	0	0	0
18.76364	0.2707378	0.05855011	0	0	0	0	0	0
18.78015	0.2707378	0.05855011	0	0	0	0	0	0
18.79666	0.2707378	0.05855011	0	0	0	0	0	0
18.82968	0.2707378	0.05855011	0	0	0	0	0	0
18.84625	0.2707134	0.05856863	-0.001475245	0.001118127	-0.02975048	0.02254869	0	0
18.87972	0.2707134	0.05856863	0	0	0.02948285	-0.02234584	0	0
18.89623	0.270689	0.05858716	-0.001479845	0.001121614	-0.02960526	0.02243862	0	0
18.91251	0.270689	0.05858716	0	0	0.0451268	-0.03420281	0	0
18.92925	0.2706645	0.05860568	-0.001459781	0.001106407	-0.04420897	0.03350717	0	0
18.94576	0.2706645	0.05860568	0	0	0.04389961	-0.03327269	0	0
18.96221	0.2706645	0.05860568	0	0	0	0	0	0
18.97879	0.2706645	0.05860568	0	0	0	0	0	0
18.99535	0.2706645	0.05860568	0	0	0	0	0	0
19.01191	0.2706401	0.0586242	-0.001475075	0.001117774	-0.04453066	0.0337442	0	0
19.02848	0.2706156	0.05864272	-0.001475075	0.001117999	0	6.784417E-06	0	0
19.04505	0.2705179	0.0587168	-0.0058985	0.00447177	-0.1334992	0.101217	0	0
19.06161	0.270469	0.05875384	-0.00295015	0.002235773	0.0889814	-0.06748255	0	0
19.07818	0.270469	0.05875384	0	0	0.08903569	-0.06747576	0	0
19.09475	0.2704446	0.05877236	-0.001475075	0.001117774	-0.04451784	0.03373449	0	0
19.11132	0.2704446	0.05877236	0	0	0.04451784	-0.03373449	0	0
19.12788	0.2704446	0.05877236	0	0	0	0	0	0
19.14445	0.2704202	0.05879088	-0.001475075	0.001117999	-0.04451784	0.03374127	0	0
19.16102	0.2699069	0.05917979	-0.0309784	0.0234719	-0.8903609	0.6746032	0	0
19.17759	0.2684885	0.06029075	-0.08562176	0.06706494	-1.64914	1.315641	0	0
19.19415	0.2658935	0.0623637	-0.156635	0.1251239	-2.143306	1.752324	0	0
19.21072	0.2559942	0.06996163	-0.5975223	0.4586118	-13.30601	10.06468	0	0
19.22729	0.2494072	0.07496379	-0.3975965	0.3019312	6.03377	-4.72863	0	0
19.24385	0.2347486	0.08588888	-0.884793	0.6594399	-14.70362	10.78963	0	0
19.2605	0.223017	0.09452847	-0.7049525	0.5191556	5.41544	-4.224303	0	0
19.27701	0.2074206	0.1059551	-0.9446636	0.6921057	-7.230748	5.216941	0	0
19.29355	0.19271	0.1166048	-0.8889573	0.6435574	1.685098	-1.468573	0	0
19.31012	0.1858055	0.1215741	-0.4167572	0.2999425	14.25924	-10.37629	0	0
19.32669	0.1719176	0.131589	-0.838276	0.6045032	-12.72146	9.19166	0	0
19.34326	0.1610406	0.1394016	-0.6565351	0.4715679	5.484951	-4.011995	0	0
19.35982	0.1498421	0.1473665	-0.6759468	0.4807638	-0.585844	0.2775308	0	0
19.37639	0.1351707	0.1576969	-0.8855657	0.6235465	-6.326312	4.309193	0	0
19.40974	0.1212963	0.1674119	-0.4159989	0.2912857	9.406551	-6.655982	0	0
19.50917	0.0309112	0.2319715	-0.9090321	0.6492964	-3.713103	2.69623	0	0
19.52571	0.0241006	0.2366214	-0.4118477	0.2811896	4.2873	-3.174243	0	0
19.54228	0.01268353	0.2444085	-0.6891354	0.4700308	-8.376275	5.704492	0	0
19.55884	0.004184186	0.2502362	-0.5130215	0.3517622	5.31513	-3.569354	0	0
19.57541	-0.0007894735	0.2535881	-0.3002107	0.2023173	6.422642	-4.510255	0	0
19.59198	-0.004447339	0.256079	-0.2207892	0.1503497	2.396945	-1.568385	0	0
19.60855	-0.005394685	0.2567598	-0.05718189	0.04109702	4.937679	-3.297253	0	0
19.62511	-0.006973571	0.257799	-0.09530178	0.06272486	-1.150461	0.6527294	0	0
19.64168	-0.006973571	0.257799	0	0	2.876213	-1.89304	0	0
19.65828	-0.006920942	0.2577631	0.003170126	-0.002159568	0.09557555	-0.06510842	0	0
19.67481	-0.006947257	0.2577811	-0.001591646	0.001083367	-0.1437105	0.09787196	0	0
19.70795	-0.006973571	0.257799	-0.0007942195	0.0005414916	0.01605596	-0.01091051	0	0
19.72451	-0.006973571	0.257799	0	0	0.01598034	-0.01089525	0	0
19.74108	-0.006947257	0.2577811	0.001588347	-0.001082921	0.04793642	-0.03268262	0	0
19.75765	-0.006947257	0.2577811	0	0	-0.04793642	0.03268262	0	0
19.77437	-0.006920942	0.2577631	0.001574032	-0.001071378	0.04728932	-0.03218786	0	0
19.79088	-0.006920942	0.2577631	0	0	-0.04737075	0.0322433	0	0
19.80739	-0.006947257	0.2577452	-0.001593668	-0.001084744	-0.04826091	-0.03284919	0	0
19.82392	-0.006920942	0.2577273	0.001592197	-0.001083742	0.09642715	3.031321E-05	0	0
19.84048	-0.006920942	0.2577273	0	0	-0.04811076	0.03274699	0	0
19.85705	-0.006920942	0.2577273	0	0	0	0	0	0
19.87362	-0.006920942	0.2577273	0	0	0	0	0	0
19.89018	-0.006920942	0.2577273	0	0	0	0	0	0
19.90675	-0.006920942	0.2577273	0	0	0	0	0	0
19.92332	-0.006894628	0.2576736	0.001588347	-0.003245165	0.04793642	-0.09793926	0	0
19.93999	-0.006868313	0.2576198	0.001578895	-0.003224064	-0.0002844174	0.0006349072	0	0
19.9565	-0.006868313	0.2576198	0	0	-0.04758815	0.0971738	0	0
19.97302	-0.006841999	0.2576019	0.001592565	-0.001083992	0.04820799	-0.03281317	0	0
19.98959	-0.006868313	0.257584	-0.001588347	-0.001081122	-0.09612738	8.674176E-05	0	0
20.00616	-0.006868313	0.2575482	0	-0.002164043	0.04793642	-0.03268262	0	0
20.02272	-0.006868313	0.2575123	0	-0.002162244	0	5.428939E-05	0	0
20.03929	-0.006894628	0.2574586	-0.001588347	-0.003243366	-0.04793642	-0.03262832	0	0
20.05586	-0.006894628	0.2574586	0	0	0.04793642	0.09788498	0	0
20.07258	-0.006894628	0.2574227	0	-0.002143315	0	-0.06437411	0	0
20.0891	-0.006947257	0.2573511	-0.003187337	-0.004340779	-0.09589043	-0.06611028	0	0
20.10556	-0.006947257	0.2573152	0	-0.002176022	0.0966614	0.06564993	0	0
20.12213	-0.006973571	0.2572973	-0.001588347	-0.001081122	-0.04808867	0.03314911	0	0
20.13869	-0.006973571	0.2572615	0	-0.002162244	0.04793642	-0.03262833	0	0
20.15526	-0.006973571	0.2572615	0	0	0	0.06525666	0	0
20.17183	-0.006973571	0.2571898	0	-0.004326287	0	-0.1305676	0	0
20.18839	-0.006973571	0.257154	0	-0.002162244	0	0.06531094	0	0
20.20496	-0.006973571	0.2571182	0	-0.002164043	0	-5.428939E-05	0	0
20.22153	-0.006973571	0.2570823	0	-0.002162244	0	5.428939E-05	0	0
20.25472	-0.006947257	0.2569928	0.0007928502	-0.002699198	0.01593444	-0.01079154	0	0
20.27123	-0.006947257	0.2569211	0	-0.004341281	-0.01595279	-0.03304002	0	0
20.2878	-0.006999886	0.2568853	-0.003176695	-0.002162244	-0.09603869	0.06587722	0	0
20.30436	-0.006999886	0.2568494	0	-0.002164043	0.09587284	-5.428939E-05	0	0
20.32093	-0.006999886	0.2568136	0	-0.002162244	0	5.428939E-05	0	0
20.3375	-0.006999886	0.2568136	0	0	0	0.06525666	0	0
20.35429	-0.0070262	0.2567957	-0.001567059	-0.001066632	-0.04697486	-0.03197382	0	0
20.3708	-0.0070262	0.2567598	0	-0.002171292	0.04705287	-0.03316879	0	0
20.38732	-0.0070262	0.256724	0	-0.002169237	0	6.223717E-05	0	0
20.40383	-0.007052515	0.2567061	-0.001593852	-0.001084869	-0.0482637	0.03283591	0	0
20.42033	-0.007052515	0.2566702	0	-0.002172045	0.04827485	-0.03292855	0	0
20.4369	-0.007078829	0.2566165	-0.001588347	-0.003243366	-0.04802489	-0.0323922	0	0
20.45347	-0.007078829	0.2566165	0	0	0.04793642	0.09788498	0	0
20.47003	-0.007105144	0.2565986	-0.001588347	-0.001082921	-0.04793642	-0.03268262	0	0
20.4866	-0.007105144	0.2565986	0	0	0.04793642	0.03268262	0	0
20.50317	-0.007105144	0.2565627	0	-0.002162244	0	-0.06525666	0	0
20.586	-0.007131458	0.2564015	-0.0003176695	-0.001946739	-0.003195761	0.002167984	0	0
20.60257	-0.007131458	0.2563298	0	-0.004326287	0.003195761	-0.0239383	0	0
20.61914	-0.007157772	0.2562044	-0.001588502	-0.007570524	-0.04794386	-0.0979169	0	0
20.636	-0.007157772	0.2561327	0	-0.0042514	0.04752526	0.09930249	0	0
20.65227	-0.007184087	0.2560073	-0.001616827	-0.00770721	-0.04879594	-0.1042966	0	0
20.66902	-0.007184087	0.2558639	0	-0.008557988	0.04895658	-0.02576106	0	0
20.68541	-0.007131458	0.2558281	0.003212169	-0.002186408	0.09694345	0.1922947	0	0
20.70197	-0.006973571	0.2556848	0.009530085	-0.008652573	0.1917346	-0.1962337	0	0
20.71856	-0.006710425	0.2555056	0.01586706	-0.01080542	0.1911513	-0.06493939	0	0
20.73511	-0.006236761	0.255183	0.02862008	-0.01948938	0.3848868	-0.2620825	0	0
20.75167	-0.005973613	0.2550038	0.01588364	-0.01081662	-0.3845856	0.2618803	0	0
20.76824	-0.005131534	0.2543945	0.05083387	-0.03678037	1.054861	-0.7836328	0	0
20.78511	-0.004815752	0.2541795	0.01872222	-0.0127502	-0.9605065	0.7187774	0	0
20.80137	-0.004736807	0.2541257	0.004852871	-0.003304901	-0.4185777	0.2850596	0	0
20.81813	-0.004736807	0.2541257	0	0	-0.1469675	0.1000878	0	0
20.83451	-0.004736807	0.2541257	0	0	0	0	0	0
20.85107	-0.004710491	0.2541078	0.001588587	-0.001081246	0.04821843	-0.03281911	0	0
20.86764	-0.004684176	0.2540899	0.001588193	-0.001080998	-1.18859E-05	7.511695E-06	0	0
20.88421	-0.004710491	0.254072	-0.001588559	-0.001083045	-0.09587455	-6.180811E-05	0	0
20.90078	-0.004684176	0.254054	0.001588193	-0.001080998	0.09587455	6.180811E-05	0	0
20.91734	-0.004684176	0.254054	0	0	-0.04793175	0.03262457	0	0
20.93391	-0.004684176	0.254054	0	0	0	0	0	0
20.95047	-0.004684176	0.254054	0	0	0	0	0	0
20.96704	-0.004684176	0.254054	0	0	0	0	0	0
20.98375	-0.004684176	0.254054	0	0	0	0	0	0
21.00017	-0.004684176	0.254054	0	0	0	0	0	0
21.01674	-0.004657861	0.2540361	0.001588404	-0.001081122	0.0481432	-0.03276791	0	0
21.03332	-0.004657861	0.2540361	0	0	-0.0479133	0.03261143	0	0
21.04987	-0.004657861	0.2540361	0	0	0	0	0	0
21.06644	-0.004657861	0.2540361	0	0	0	0	0	0
21.08301	-0.004684176	0.254054	-0.001588404	0.001081122	-0.04793812	0.03262833	0	0
21.09957	-0.004684176	0.254054	0	0	0.04793812	-0.03262833	0	0
21.11614	-0.004684176	0.254054	0	0	0	0	0	0
21.13271	-0.004684176	0.254054	0	0	0	0	0	0
21.14936	-0.004657861	0.2540361	0.001580217	-0.00107555	0.04756783	-0.03237629	0	0
21.18241	-0.004684176	0.254054	-0.0007963105	0.0005419962	-0.04781766	0.03254634	0	0
21.19897	-0.004684176	0.254054	0	0	0.01605013	-0.01092427	0	0
21.21554	-0.004684176	0.254054	0	0	0	0	0	0
21.23211	-0.004684176	0.254054	0	0	0	0	0	0
21.24893	-0.004657861	0.2540361	0.001564094	-0.001064576	0.04684046	-0.03188121	0	0
21.26524	-0.004657861	0.2540361	0	0	-0.04720717	0.03213082	0	0
21.28181	-0.004657861	0.2540361	0	0	0	0	0	0
21.29847	-0.004657861	0.2540361	0	0	0	0	0	0
21.31494	-0.004657861	0.2540361	0	0	0	0	0	0
21.33151	-0.004657861	0.2540361	0	0	0	0	0	0
21.34808	-0.004657861	0.2540361	0	0	0	0	0	0
21.36465	-0.004657861	0.2540361	0	0	0	0	0	0
21.38121	-0.004657861	0.2540361	0	0	0	0	0	0
21.39778	-0.004657861	0.2540361	0	0	0	0	0	0
21.41434	-0.004657861	0.2540361	0	0	0	0	0	0
21.43091	-0.004657861	0.2540361	0	0	0	0	0	0
21.44748	-0.004657861	0.2540361	0	0	0	0	0	0
21.46404	-0.004657861	0.2540361	0	0	0	0	0	0
21.48061	-0.004657861	0.2540361	0	0	0	0	0	0
21.49718	-0.004657861	0.2540361	0	0	0	0	0	0
21.51375	-0.004657861	0.2540361	0	0	0	0	0	0
21.53064	-0.004657861	0.2540361	0	0	0	0	0	0
21.54688	-0.004657861	0.2540361	0	0	0	0	0	0
21.56366	-0.004657861	0.2540361	0	0	0	0	0	0
21.58001	-0.004657861	0.2540361	0	0	0	0	0	0
21.59668	-0.004657861	0.2540361	0	0	0	0	0	0
21.6132	-0.004657861	0.2540361	0	0	0	0	0	0
21.62971	-0.004657861	0.2540361	0	0	0	0	0	0
21.64628	-0.004657861	0.2540361	0	0	0	0	0	0
21.66323	-0.004631546	0.2539824	0.001552451	-0.003171768	0.04631715	-0.09462925	0	0
21.67941	-0.0045526	0.2538927	0.00487864	-0.005537998	0.1003904	-0.07141708	0	0
21.69625	-0.004315763	0.2535164	0.01406398	-0.02234823	0.2781589	-0.5090626	0	0
21.71255	-0.004236817	0.2532476	0.004845514	-0.01650118	-0.27823	0.1764742	0	0
21.72927	-0.0005	0.2501287	0.2233689	-0.1864311	6.617522	-5.145973	0	0
21.74568	0.004289447	0.2467579	0.2919825	-0.205496	2.070884	-0.5754117	0	0
21.7623	0.013315	0.2400312	0.5430331	-0.4047178	7.602101	-6.032667	0	0
21.77881	0.0198395	0.2348981	0.3951388	-0.3108729	-4.463716	2.832408	0	0
21.79538	0.02838711	0.2103249	0.5159346	-1.483245	3.651723	-35.44143	0	0
21.81194	0.0288867	0.1945579	0.03015539	-0.9516949	-14.66085	16.04222	0	0
21.82851	0.02880782	0.1729332	-0.004761389	-1.305272	-1.05379	-10.67098	0	0
21.84508	0.02836081	0.1621213	-0.02698117	-0.6526037	-0.6705942	19.69757	0	0
21.86187	0.02796639	0.1466396	-0.02348563	-0.921851	0.1047776	-8.070617	0	0
21.87838	0.0272827	0.127195	-0.04141061	-1.177742	-0.5382193	-7.68343	0	0
21.8949	0.02657269	0.1138074	-0.04299989	-0.810784	-0.04812801	11.11255	0	0
21.91141	0.02554707	0.09781449	-0.06209952	-0.9683471	-0.5782921	-4.770644	0	0
21.92792	0.024837	0.08728707	-0.04301874	-0.6377858	0.5778214	10.01036	0	0
21.94448	0.02396909	0.07831983	-0.05240484	-0.5414504	-0.283845	2.913276	0	0
21.96105	0.02262772	0.06811429	-0.08096565	-0.6160079	-0.8621156	-2.250536	0	0
21.97761	0.02202275	0.06351078	-0.03651563	-0.2778686	1.341504	10.20506	0	0
21.99418	0.01857681	0.05578946	-0.2079976	-0.4660596	-5.175335	-5.679615	0	0
22.02766	0.01405171	0.04977971	-0.135152	-0.1794941	1.455491	5.725717	0	0
22.04423	0.01442005	0.04918565	0.02223344	-0.03585758	3.144637	2.869928	0	0
22.06101	0.01439374	0.04920422	-0.001567672	0.001106305	-0.7136766	1.108363	0	0
22.07753	0.01442005	0.04918565	0.001593202	-0.001124321	0.09493088	-0.06699264	0	0
22.09404	0.01442005	0.04918565	0	0	-0.04824122	0.03404379	0	0
22.1105	0.01442005	0.04918565	0	0	0	0	0	0
22.17676	0.01444636	0.04924135	0.0003970421	0.0008404908	0.004799511	0.01015999	0	0
22.19333	0.01442005	0.04925991	-0.001588123	0.001120697	-0.02396551	0.003382735	0	0
22.2099	0.01439374	0.04927848	-0.001588249	0.001120601	-3.822823E-06	-2.895226E-06	0	0
22.22663	0.01439374	0.04927848	0	0	0.0476946	-0.03365128	0	0
22.24314	0.01439374	0.04927848	0	0	0	0	0	0
22.25965	0.01439374	0.04927848	0	0	0	0	0	0
22.27617	0.01439374	0.04927848	0	0	0	0	0	0
22.29273	0.01436743	0.04929704	-0.001588306	0.001120826	-0.04801808	0.03388512	0	0
22.34243	0.01436743	0.04929704	0	0	0.02396896	-0.01691427	0	0
22.359	0.01439374	0.04927848	0.001588123	-0.001120697	0.02396551	-0.01691184	0	0
22.37574	0.01439374	0.04927848	0	0	-0.04768261	0.03364838	0	0
22.39213	0.01442005	0.04925991	0.00160488	-0.001132335	0.04843817	-0.03417591	0	0
22.40876	0.01444636	0.04924135	0.001582112	-0.001116455	-0.0006894498	0.0004808607	0	0
22.42526	0.01444636	0.04924135	0	0	-0.04775098	0.03369663	0	0
22.44183	0.01447267	0.04922278	0.001588066	-0.001120472	0.04802193	-0.03388223	0	0
22.4584	0.01449898	0.04920422	0.001588066	-0.001120697	0	-6.78793E-06	0	0
22.47497	0.01452529	0.04918565	0.001588123	-0.001120697	1.696983E-06	0	0	0
22.49153	0.0145516	0.04916708	0.001588066	-0.001120697	-1.696983E-06	0	0	0
22.5081	0.01457791	0.04914852	0.001588306	-0.001120601	7.216983E-06	2.895226E-06	0	0
22.52467	0.01463053	0.04911138	0.003176133	-0.002241394	0.04792348	-0.03382755	0	0
22.54123	0.01465685	0.04909282	0.001588123	-0.001120697	-0.04792624	0.03382271	0	0
22.5578	0.01470947	0.04905569	0.003176133	-0.002241169	0.04792624	-0.03381592	0	0
22.57437	0.01489364	0.04892572	0.01111652	-0.007844879	0.2396414	-0.1691203	0	0
22.59093	0.01494626	0.04888859	0.003176189	-0.002241394	-0.2396397	0.1691135	0	0
22.6075	0.01502519	0.04883288	0.004764748	-0.003362703	0.04794555	-0.03384313	0	0
22.62407	0.01502519	0.04883288	0	0	-0.1438086	0.1014924	0	0
22.64063	0.0150515	0.04881432	0.001588066	-0.001120697	0.04792794	-0.03382271	0	0
22.6572	0.0150515	0.04881432	0	0	-0.04792794	0.03382271	0	0
22.67377	0.0150515	0.04881432	0	0	0	0	0	0
22.69046	0.0150515	0.04881432	0	0	0	0	0	0
22.70698	0.0150515	0.04881432	0	0	0	0	0	0
22.72349	0.0150515	0.04881432	0	0	0	0	0	0
22.74004	0.0150515	0.04881432	0	0	0	0	0	0
22.7566	0.0150515	0.04881432	0	0	0	0	0	0
22.77317	0.0150515	0.04881432	0	0	0	0	0	0
22.78974	0.0150515	0.04881432	0	0	0	0	0	0
22.8063	0.0150515	0.04881432	0	0	0	0	0	0
22.82287	0.0150515	0.04881432	0	0	0	0	0	0
22.83944	0.0150515	0.04881432	0	0	0	0	0	0
22.856	0.0150515	0.04881432	0	0	0	0	0	0
22.9057	0.0150515	0.04881432	0	0	0	0	0	0
22.92227	0.0150515	0.04881432	0	0	0	0	0	0
22.93884	0.0150515	0.04881432	0	0	0	0	0	0
22.95541	0.0150515	0.04881432	0	0	0	0	0	0
22.97197	0.01502519	0.04887002	-0.001588066	0.003362091	-0.04792794	0.1014681	0	0
23.00511	0.0150515	0.04944556	0.0007940332	0.01737002	0.04792794	0.28184	0	0
23.02168	0.01444636	0.050949	-0.03652581	0.09074768	-0.7508767	1.476362	0	0
23.03824	0.01384122	0.05174688	-0.03652648	0.04816029	-2.034974E-05	-1.28529	0	0
23.05481	0.009341833	0.05525193	-0.2715836	0.2115649	-7.094038	4.931559	0	0
23.07138	0.003605247	0.06006858	-0.346261	0.2907339	-2.253769	2.389326	0	0
23.08794	-0.001999997	0.06604428	-0.3383332	0.3606938	0.2392598	2.111395	0	0
23.10451	-0.004894698	0.07095885	-0.1747245	0.2966443	4.937723	-1.933018	0	0
23.12108	-0.007894573	0.08224414	-0.1810728	0.6811815	-0.1915942	11.60536	0	0
23.13765	-0.008473481	0.09320605	-0.03494297	0.6616619	4.410208	-0.5891017	0	0
23.17078	-0.0070262	0.1103496	0.04367903	0.5173942	1.581878	-2.902673	0	0
23.18735	-0.00557889	0.1205331	0.08735985	0.6146767	0.8788599	1.957328	0	0
23.20391	-0.004684176	0.1281252	0.054005	0.4582585	-1.006651	-4.72071	0	0
23.22048	-0.003105253	0.1373812	0.09530399	0.5586954	1.246406	3.03119	0	0
23.23705	-0.001763156	0.1437673	0.08100915	0.3854658	-0.4314191	-5.228078	0	0
23.25388	-0.0002631579	0.1508362	0.0891342	0.4200554	0.2432959	1.035746	0	0
23.27039	0.001789472	0.1582411	0.1242976	0.448403	1.054618	0.8501999	0	0
23.2869	0.002999991	0.1634625	0.07332032	0.3162573	-1.543653	-4.001525	0	0
23.30341	0.007473545	0.1741816	0.2709288	0.649173	5.984159	10.08166	0	0
23.31993	0.01086799	0.1793356	0.2055519	0.3121021	-1.979574	-10.20631	0	0
23.33645	0.01405171	0.1819924	0.1926795	0.1607925	-0.3896336	-4.579978	0	0
23.35302	0.01699836	0.1841244	0.1778605	0.1286841	-0.4478325	-0.970318	0	0
23.36959	0.01912924	0.1859125	0.1286203	0.1079332	-1.48607	-0.626263	0	0
23.38647	0.02328526	0.1894153	0.2461257	0.2074376	3.512553	2.974456	0	0
23.40298	0.03041167	0.1957123	0.431542	0.3813164	5.551455	5.206017	0	0
23.43585	0.03277773	0.2064536	0.07199205	0.3268283	-7.281384	-1.10346	0	0
23.45252	0.03288288	0.2143742	0.006309099	0.4752392	-1.326073	2.996268	0	0
23.46903	0.03364519	0.2187093	0.04616748	0.2625459	1.201338	-6.410612	0	0
23.48555	0.03380291	0.2210469	0.009544903	0.1414691	-1.10859	-3.665074	0	0
23.50212	0.03385548	0.2211907	0.00317321	0.008681355	-0.192553	-4.012855	0	0
23.51868	0.03385548	0.2211907	0	0	-0.09577318	-0.2620189	0	0
23.53525	0.03390805	0.2211547	0.00317321	-0.002170339	0.09577318	-0.06550472	0	0
23.55182	0.03393434	0.2211367	0.001586788	-0.001084845	-0.04788107	0.03276217	0	0
23.5686	0.03398691	0.2210648	0.003132458	-0.004284933	0.04634961	-0.09596018	0	0
23.58495	0.03398691	0.2210648	0	0	-0.09453778	0.1293195	0	0
23.60152	0.03398691	0.2210648	0	0	0	0	0	0
23.61813	0.03396062	0.2210469	-0.001582051	-0.001082503	-0.04767779	-0.03262307	0	0
23.63465	0.03396062	0.2210469	0	0	0.04774915	0.0326719	0	0
23.65122	0.03396062	0.2210469	0	0	0	0	0	0
23.66817	0.03396062	0.2210469	0	0	0	0	0	0
23.68468	0.03396062	0.2210469	0	0	0	0	0	0
23.70092	0.03393434	0.2210289	-0.001618848	-0.001106763	-0.04943458	-0.03379711	0	0
23.71771	0.03393434	0.2210289	0	0	0.04901209	0.03350827	0	0
23.73422	0.03398691	0.2209929	0.003184207	-0.002177861	0.09561522	-0.0653967	0	0
23.75062	0.03398691	0.220957	0	-0.002193716	-0.0967624	-0.0004818073	0	0
23.76724	0.03409205	0.2208491	0.00632385	-0.006487861	0.1914935	-0.1300317	0	0
23.78375	0.0341709	0.2207951	0.004776638	-0.00326762	-0.04669496	0.09718708	0	0
23.80032	0.0341709	0.2207951	0	0	-0.1444169	0.09879325	0	0
23.81689	0.0341709	0.2207592	0	-0.002170339	0	-0.06550095	0	0
23.85002	0.0341709	0.2207592	0	0	0	0.0436673	0	0
23.86681	0.0341709	0.2207592	0	0	0	0	0	0
23.88315	0.03414462	0.2207412	-0.001608456	-0.001099659	-0.04854609	-0.03318968	0	0
23.91629	0.0341709	0.2207232	0.0007932568	-0.0005427783	0.0485405	0.01125499	0	0
23.93286	0.0341709	0.2207232	0	0	-0.01595913	0.01091988	0	0
23.94942	0.0341709	0.2207232	0	0	0	0	0	0
23.96599	0.03414462	0.2207053	-0.001586605	-0.00108472	-0.04789486	-0.03274444	0	0
23.9829	0.03414462	0.2207053	0	0	0.04739007	0.03239933	0	0
23.99912	0.03414462	0.2207053	0	0	0	0	0	0
24.01569	0.03414462	0.2207053	0	0	0	0	0	0
24.03243	0.03414462	0.2207053	0	0	0	0	0	0
24.04882	0.03411834	0.2206873	-0.001603549	-0.001097369	-0.04839799	-0.03312055	0	0
24.06545	0.03411834	0.2206873	0	0	0.04855732	0.03322959	0	0
24.11509	0.03411834	0.2206873	0	0	0	0	0	0
24.13166	0.03411834	0.2206873	0	0	0	0	0	0
24.14822	0.03411834	0.2206873	0	0	0	0	0	0
24.16479	0.03411834	0.2206873	0	0	0	0	0	0
24.18154	0.03411834	0.2206873	0	0	0	0	0	0
24.19792	0.03411834	0.2206873	0	0	0	0	0	0
24.21456	0.03411834	0.2206873	0	0	0	0	0	0
24.23107	0.03411834	0.2206873	0	0	0	0	0	0
24.26419	0.03414462	0.2206693	0.0007936012	-0.0005430909	0.01599061	-0.01094297	0	0
24.28076	0.03414462	0.2206693	0	0	-0.0159728	0.01093079	0	0
24.29733	0.03414462	0.2206693	0	0	0	0	0	0
24.31389	0.03414462	0.2206693	0	0	0	0	0	0
24.33064	0.03414462	0.2206693	0	0	0	0	0	0
24.34716	0.03414462	0.2206693	0	0	0	0	0	0
24.36359	0.03414462	0.2206693	0	0	0	0	0	0
24.38018	0.03414462	0.2206693	0	0	0	0	0	0
24.39673	0.03414462	0.2206693	0	0	0	0	0	0
24.4137	0.03411834	0.2206513	-0.001548062	-0.001058519	-0.04618094	-0.03157716	0	0
24.42986	0.03411834	0.2206513	0	0	0.04672328	0.031948	0	0
24.44643	0.03411834	0.2206513	0	0	0	0	0	0
24.46299	0.03411834	0.2206513	0	0	0	0	0	0
24.47976	0.03409205	0.2206693	-0.001568011	0.001072008	-0.04704374	0.03216256	0	0
24.49613	0.03409205	0.2206693	0	0	0.04732267	-0.03235325	0	0
24.5127	0.03411834	0.2206873	0.001586605	0.001085619	0.04816943	0.03295947	0	0
24.52929	0.03411834	0.2206873	0	0	-0.04784527	-0.03273766	0	0
24.54583	0.03411834	0.2206873	0	0	0	0	0	0
24.5624	0.03411834	0.2206513	0	-0.002170339	0	-0.06555756	0	0
24.57896	0.03411834	0.2206513	0	0	0	0.06550095	0	0
24.59553	0.03411834	0.2206513	0	0	0	0	0	0
24.61235	0.03414462	0.2206333	0.001562633	-0.001069368	0.04680471	-0.03203021	0	0
24.62866	0.03414462	0.2206333	0	0	-0.04716307	0.03227545	0	0
24.64523	0.03414462	0.2206333	0	0	0	0	0	0
24.66188	0.03414462	0.2206333	0	0	0	0	0	0
24.67839	0.03411834	0.2206513	-0.001591694	0.001089256	-0.04799322	0.03284356	0	0
24.69493	0.03411834	0.2206513	0	0	0.04816496	-0.03296109	0	0
24.7115	0.03411834	0.2206513	0	0	0	0	0	0
24.72806	0.03411834	0.2206513	0	0	0	0	0	0
24.74494	0.03409205	0.2206693	-0.001557379	0.001064739	-0.04656754	0.03183699	0	0
24.7612	0.03406576	0.2206873	-0.001617138	0.001106511	-0.001803624	0.001260758	0	0
24.77797	0.03403948	0.2207412	-0.001567298	0.003216337	0.001509132	0.06388428	0	0
24.79433	0.03343491	0.2212266	-0.03695159	0.02966892	-1.067961	0.7983865	0	0
24.81099	0.03206795	0.2222334	-0.08205608	0.06043283	-1.365974	0.9316745	0	0
24.82751	0.02630972	0.226385	-0.34841	0.2511992	-8.026103	5.748405	0	0
24.84403	0.01292033	0.2363522	-0.8107985	0.6035657	-13.99438	10.66452	0	0
24.87753	-0.009368147	0.2555951	-0.6652008	0.5743079	2.910776	-0.584919	0	0
24.92707	-0.03104266	0.3057575	-0.437536	1.01261	2.741494	5.27795	0	0
24.99313	-0.04525855	0.3629268	-0.215212	0.8654767	1.923336	-1.27286	0	0
25.0097	-0.0540788	0.3707154	-0.5323914	0.4701207	-3.838897	-4.785087	0	0
25.02626	-0.06034769	0.3749856	-0.3783909	0.2577513	4.647744	-6.409321	0	0
25.04283	-0.06427974	0.377666	-0.2373393	0.1617869	4.256945	-2.896212	0	0
25.0594	-0.06640223	0.3791493	-0.1281139	0.08952985	3.296431	-2.180723	0	0
25.07618	-0.07101198	0.382259	-0.2747024	0.1853173	-4.395712	2.872354	0	0
25.09253	-0.0742056	0.3844755	-0.1952856	0.1355315	2.396804	-1.50254	0	0
25.1092	-0.08014376	0.3885335	-0.3562134	0.2434318	-4.873079	3.267346	0	0
25.12571	-0.08330674	0.390697	-0.19158	0.1310381	4.96179	-3.387369	0	0
25.14223	-0.08777389	0.3937548	-0.2704469	0.1851256	-2.387906	1.637643	0	0
25.1588	-0.09440278	0.3982978	-0.4001203	0.2742182	-3.919418	2.692851	0	0
25.17536	-0.09854815	0.4011066	-0.2502154	0.1695347	4.52414	-3.159355	0	0
25.19226	-0.1005545	0.4024843	-0.118749	0.08154352	3.928765	-2.629543	0	0
25.2085	-0.1005545	0.4025201	0	0.00220409	3.583853	-2.394469	0	0
25.22507	-0.100815	0.4027348	-0.01572394	0.01296087	-0.4792949	0.3278867	0	0
25.2418	-0.1041481	0.4051327	-0.1992174	0.1433182	-5.510564	3.914813	0	0
25.2582	-0.1077651	0.407692	-0.2205046	0.1560283	-0.6424495	0.3835919	0	0
25.27482	-0.1158993	0.4134031	-0.4894042	0.3436137	-8.142591	5.680303	0	0
25.29133	-0.1182614	0.4150686	-0.1430517	0.1008631	10.45354	-7.32665	0	0
25.3079	-0.1202849	0.416573	-0.1221429	0.09081064	0.6320823	-0.3038911	0	0
25.32447	-0.1203109	0.4168059	-0.001565468	0.01405459	3.639035	-2.316503	0	0
25.34137	-0.1199996	0.4171283	0.01841593	0.01907587	0.5970256	0.1500312	0	0
25.3576	-0.1198959	0.4171999	0.006391545	0.004413406	-0.3628968	-0.4425139	0	0
25.37417	-0.1198959	0.4171999	0	0	-0.1948602	-0.1345523	0	0
25.39074	-0.1198699	0.417182	0.001565918	-0.001081122	0.04725949	-0.03262833	0	0
25.40742	-0.1198699	0.417182	0	0	-0.04709143	0.03251229	0	0
25.42387	-0.119844	0.4171283	0.001576905	-0.003267062	0.04759384	-0.0986058	0	0
25.44044	-0.119844	0.4171283	0	0	-0.04775604	0.09894186	0	0
25.457	-0.119818	0.4171104	0.001566459	-0.001081495	0.04727582	-0.0326396	0	0
25.47396	-0.119818	0.4171104	0	0	-0.0467271	0.03226076	0	0
25.49014	-0.1197921	0.4170925	0.001603686	-0.001107516	0.04839935	-0.03342489	0	0
25.50699	-0.1197662	0.4170387	0.001539509	-0.003188667	-0.001943364	-0.06301969	0	0
25.52327	-0.1197402	0.4170208	0.001593435	-0.00110012	0.001627588	0.0630361	0	0
25.53984	-0.1197143	0.4170029	0.001565468	-0.001081122	-0.0008513983	0.0005783596	0	0
25.55652	-0.1196883	0.416985	0.00155482	-0.00107346	-0.0003202298	0.0002304275	0	0
25.57303	-0.1196883	0.4169492	0	-0.002169487	-0.04683558	-0.03301546	0	0
25.58955	-0.1196365	0.4169134	0.003141876	-0.002169487	0.09513965	0	0	0
25.68894	-0.1194289	0.4166984	0.002088096	-0.002162534	-0.009091995	5.998854E-05	0	0
25.7055	-0.119403	0.4166805	0.001565918	-0.001081122	-0.004503195	0.009325956	0	0
25.72207	-0.1193511	0.4166089	0.003131836	-0.004324488	0.04725949	-0.09788498	0	0
25.73865	-0.1192473	0.4165372	0.006257908	-0.004320508	0.09430162	0.0001200475	0	0
25.7552	-0.1190138	0.4163402	0.01410833	-0.01190468	0.2369398	-0.2289038	0	0
25.77177	-0.1186246	0.4160715	0.02348876	-0.01621496	0.2832325	-0.1301446	0	0
25.78834	-0.1177683	0.4154447	0.05169518	-0.03784183	0.8512715	-0.6527001	0	0
25.8049	-0.1162887	0.4143164	0.08931617	-0.06810953	1.135534	-0.9135862	0	0
25.8381	-0.1166262	0.4140478	-0.01016554	-0.00809078	-1.999044	1.206052	0	0
25.85467	-0.1167041	0.4138866	-0.004699911	-0.009727178	0.1098212	-0.03288023	0	0
25.87124	-0.1165224	0.4134389	0.01096438	-0.02701332	0.4726405	-0.5215768	0	0
25.8878	-0.1132502	0.4104309	0.1976249	-0.1816701	5.634076	-4.668088	0	0
25.90437	-0.1077911	0.4046674	0.3295106	-0.3478874	3.981462	-5.017892	0	0
25.92094	-0.1059179	0.4019833	0.1130654	-0.1620136	-6.532329	5.609683	0	0
25.93779	-0.0928898	0.3796318	0.772942	-1.326085	19.7435	-34.82899	0	0
25.95407	-0.08897499	0.3643022	0.2405072	-0.9417752	-16.06984	11.59915	0	0
25.97082	-0.08654642	0.3432105	0.1450193	-1.259471	-2.891484	-9.620199	0	0
25.9872	-0.08578892	0.3341211	0.04622305	-0.5546347	-2.981677	21.272	0	0
26.00377	-0.08490068	0.3227275	0.05361402	-0.6877213	0.2242736	-4.038411	0	0
26.02034	-0.08385552	0.3106528	0.06308598	-0.7288309	0.2858642	-1.240691	0	0
26.03691	-0.08359421	0.3035061	0.01577114	-0.4313252	-1.427882	8.978222	0	0
26.05347	-0.08294087	0.295303	0.03944031	-0.4951947	0.7143369	-1.927585	0	0
26.07004	-0.08024835	0.2901725	0.1625209	-0.309683	3.714793	5.599077	0	0
26.08661	-0.07776392	0.2827514	0.1499602	-0.4479389	-0.3790803	-4.172571	0	0
26.10317	-0.07300162	0.2794243	0.287453	-0.2008206	4.149539	7.458043	0	0
26.11992	-0.07001694	0.2774206	0.1781867	-0.1196215	-3.279538	2.437128	0	0
26.13644	-0.06446319	0.2736272	0.3363477	-0.2297364	4.754967	-3.310508	0	0
26.15287	-0.0626023	0.2723566	0.1132096	-0.07730187	-6.772133	4.626316	0	0
26.16946	-0.0622091	0.2720881	0.02370385	-0.01618195	-2.710183	1.850675	0	0
26.18601	-0.06218288	0.2720702	0.001584522	-0.001082618	-0.6676009	0.4557249	0	0
26.20257	-0.06218288	0.2720702	0	0	-0.04785401	0.03269605	0	0
26.21914	-0.06218288	0.2720702	0	0	0	0	0	0
26.23601	-0.06215667	0.2720523	0.001554019	-0.001060161	0.04648031	-0.03170914	0	0
26.25253	-0.06213046	0.2720344	0.001587083	-0.001084368	0.0009904203	-0.0007251059	0	0
26.26903	-0.06199938	0.2719449	0.007940918	-0.005421987	0.1924015	-0.1313481	0	0
26.28541	-0.06129156	0.2714617	0.04322216	-0.02950661	1.072943	-0.7324407	0	0
26.30206	-0.05927259	0.2700835	0.1212645	-0.08277903	2.363075	-1.613057	0	0
26.31856	-0.05384265	0.2663778	0.3289644	-0.2245042	6.264428	-4.274568	0	0
26.33511	-0.04772689	0.2622055	0.3697011	-0.2522177	1.232632	-0.8385684	0	0
26.35167	-0.04273712	0.2588022	0.3011831	-0.2054222	-2.069428	1.413351	0	0
26.36824	-0.04071433	0.2574227	0.1220957	-0.08326618	-5.404867	3.686675	0	0
26.38481	-0.04084569	0.2575123	-0.007928977	0.005407408	-3.924153	2.676174	0	0
26.40137	-0.04084569	0.2575123	0	0	0.239297	-0.1631959	0	0
26.41794	-0.04084569	0.2575123	0	0	0	0	0	0
26.43465	-0.04084569	0.2575123	0	0	0	0	0	0
26.46764	-0.04079315	0.2574765	0.00159251	-0.001085684	0.03204136	-0.02184401	0	0
26.48421	-0.04076688	0.2574586	0.001585888	-0.001081246	-0.0001336131	8.954203E-05	0	0
26.50077	-0.04071433	0.2574227	0.003171636	-0.002164043	0.04786072	-0.03268074	0	0
26.51734	-0.04063552	0.257369	0.004757341	-0.003243366	0.04785668	-0.03257403	0	0
26.53391	-0.04053042	0.2572973	0.006343272	-0.004326287	0.04786348	-0.03268262	0	0
26.55073	-0.04011006	0.2570107	0.02499088	-0.01704239	0.5585098	-0.3808571	0	0
26.56725	-0.03477545	0.253373	0.3230016	-0.2202531	8.939435	-6.095717	0	0
26.58376	-0.02778232	0.2486048	0.4234709	-0.2887431	3.0418	-2.073596	0	0
26.60018	-0.0168142	0.2411257	0.6681135	-0.4555803	7.429087	-5.066362	0	0
26.64988	0.009157639	0.2234018	0.5225745	-0.3566202	-2.201256	1.496757	0	0
26.66644	0.01094693	0.2221794	0.1080143	-0.07378832	-6.256086	4.268188	0	0
26.68332	0.01776129	0.2175583	0.4036478	-0.2737341	8.838793	-5.97794	0	0
26.69983	0.01776129	0.2175583	0	0	-12.08818	8.197606	0	0
26.71614	0.01770867	0.2175943	-0.003226425	0.002205775	-0.09831316	0.06721268	0	0
26.75187	0.01770867	0.2175943	0	0	0.06199883	-0.04238606	0	0
26.76843	0.01770867	0.2175943	0	0	0	0	0	0
26.785	0.01770867	0.2175943	0	0	0	0	0	0
26.80157	0.01762975	0.2176482	-0.00476375	0.003256857	-0.1437868	0.09830347	0	0
26.81813	0.01755083	0.2177022	-0.00476375	0.003256857	0	0	0	0
26.83493	0.01755083	0.2177381	0	0.002141164	0.1427676	-0.03343686	0	0
26.85144	0.01747191	0.2177921	-0.00477982	0.003267767	-0.1434871	0.03381989	0	0
26.86796	0.01741929	0.217864	-0.003186547	0.004357023	0.04824616	0.03298393	0	0
26.88452	0.01739298	0.217882	-0.001588573	0.001086119	0.04831873	-0.09890396	0	0
26.90098	0.01736668	0.2179	-0.001597703	0.001092284	-0.0002764401	0.0001866657	0	0
26.91753	0.01736668	0.2179	0	0	0.04838868	-0.03308136	0	0
26.9341	0.01734037	0.217918	-0.001587588	0.001085369	-0.04793007	0.03276782	0	0
26.95067	0.01728775	0.217954	-0.00317664	0.002171738	-0.04795766	0.03278669	0	0
26.96724	0.01718252	0.2180259	-0.006351816	0.004341577	-0.09583805	0.0654934	0	0
26.9838	0.01715621	0.2180799	-0.001588137	0.003257232	0.1437764	-0.03272748	0	0
27.00037	0.0171299	0.2180978	-0.001587954	0.001085619	5.519903E-06	-0.06554319	0	0
27.01706	0.0171299	0.2180978	0	0	0.04774316	-0.03264004	0	0
27.03408	0.0171299	0.2180978	0	0	0	0	0	0
27.05007	0.0171299	0.2180978	0	0	0	0	0	0
27.06664	0.0171299	0.2180978	0	0	0	0	0	0
27.0832	0.0171036	0.2181158	-0.001588137	0.001085744	-0.04793007	0.03276782	0	0
27.09977	0.0171036	0.2181158	0	0	0.04793559	-0.03277159	0	0
27.11664	0.0171036	0.2181158	0	0	0	0	0	0
27.1826	0.0171299	0.2180978	0.0003988021	-0.0002726446	0.004814348	-0.003291372	0	0
27.19919	0.0171299	0.2180978	0	0	-0.004830587	0.003302475	0	0
27.21574	0.0171299	0.2180978	0	0	0	0	0	0
27.2323	0.0171299	0.2180978	0	0	0	0	0	0
27.26544	0.0171299	0.2180978	0	0	0	0	0	0
27.28225	0.0171299	0.2180978	0	0	0	0	0	0
27.29857	0.0171299	0.2180978	0	0	0	0	0	0
27.31528	0.0171299	0.2180978	0	0	0	0	0	0
27.3317	0.0171036	0.2181158	-0.001601413	0.00109482	-0.04833352	0.03304365	0	0
27.34827	0.0171036	0.2181158	0	0	0.04853469	-0.03318118	0	0
27.36484	0.0171299	0.2180978	0.001587954	-0.001085619	0.04792455	-0.03276405	0	0
27.3814	0.0171036	0.2181158	-0.001587954	0.001085619	-0.0958491	0.06552809	0	0
27.39797	0.0171036	0.2181158	0	0	0.04792455	-0.03276405	0	0
27.41454	0.0171036	0.2181158	0	0	0	0	0	0
27.4311	0.0171036	0.2181158	0	0	0	0	0	0
27.44787	0.0171036	0.2181158	0	0	0	0	0	0
27.46424	0.0171036	0.2181158	0	0	0	0	0	0
27.48081	0.0171036	0.2181158	0	0	0	0	0	0
27.49737	0.0171036	0.2181158	0	0	0	0	0	0
27.53051	0.0171036	0.2181158	0	0	0	0	0	0
27.54708	0.0171036	0.2181158	0	0	0	0	0	0
27.56364	0.0171036	0.2181158	0	0	0	0	0	0
27.58021	0.0171036	0.2181158	0	0	0	0	0	0
27.59678	0.0171036	0.2181158	0	0	0	0	0	0
27.61334	0.0171036	0.2181158	0	0	0	0	0	0
27.62991	0.0171036	0.2181158	0	0	0	0	0	0
27.64648	0.0171036	0.2181158	0	0	0	0	0	0
27.67961	0.0171036	0.2181158	0	0	0	0	0	0
27.69618	0.0171036	0.2181158	0	0	0	0	0	0
27.71307	0.0171036	0.2181158	0	0	0	0	0	0
27.72957	0.0171036	0.2181158	0	0	0	0	0	0
27.74588	0.0171036	0.2181158	0	0	0	0	0	0
27.76244	0.0171036	0.2181158	0	0	0	0	0	0
27.77901	0.0171036	0.2181158	0	0	0	0	0	0
27.79558	0.0171036	0.2181158	0	0	0	0	0	0
27.81215	0.0171036	0.2181158	0	0	0	0	0	0
27.82871	0.0171036	0.2181158	0	0	0	0	0	0
27.84528	0.0171036	0.2181158	0	0	0	0	0	0
27.86185	0.0171036	0.2181158	0	0	0	0	0	0
27.87841	0.0171036	0.2181158	0	0	0	0	0	0
27.89498	0.0171036	0.2181158	0	0	0	0	0	0
27.91155	0.0171299	0.2180978	0.001588137	-0.001085744	0.04793283	-0.03276971	0	0
27.92822	0.0171299	0.2180978	0	0	-0.04778154	0.03266628	0	0
27.94468	0.0171036	0.2181158	-0.001598073	0.001092537	-0.04822994	0.03297284	0	0
27.96125	0.0171036	0.2181158	0	0	0.04838591	-0.03307947	0	0
27.97825	0.0171036	0.2181158	0	0	0	0	0	0
27.99438	0.0171036	0.2181158	0	0	0	0	0	0
28.01095	0.0171036	0.2181158	0	0	0	0	0	0
28.02751	0.0171036	0.2181158	0	0	0	0	0	0
28.0443	0.0171036	0.2181158	0	0	0	0	0	0
28.06065	0.0171036	0.2181158	0	0	0	0	0	0
28.07721	0.0171036	0.2181158	0	0	0	0	0	0
28.09378	0.0171036	0.2181158	0	0	0	0	0	0
28.11035	0.0171036	0.2181158	0	0	0	0	0	0
28.12691	0.0171036	0.2181158	0	0	0	0	0	0
28.14387	0.0171036	0.2181158	0	0	0	0	0	0
28.16005	0.0171036	0.2181158	0	0	0	0	0	0
28.17662	0.0171299	0.2180978	0.001587954	-0.001085619	0.04849684	-0.0331553	0	0
28.19318	0.0171299	0.2180978	0	0	-0.04792455	0.03276405	0	0
28.20975	0.0171299	0.2180978	0	0	0	0	0	0
28.22632	0.0171299	0.2180978	0	0	0	0	0	0
28.24289	0.01715621	0.2180799	0.001587954	-0.001085619	0.04792455	-0.03276405	0	0
28.25945	0.01715621	0.2180799	0	0	-0.04792179	0.03276216	0	0
28.27602	0.01715621	0.2180799	0	0	0	0	0	0
28.29259	0.0171299	0.2180619	-0.001587954	-0.001085619	-0.04793007	-0.03276782	0	0
28.30915	0.01715621	0.2180439	0.001587954	-0.001085619	0.0958491	0	0	0
28.32572	0.01715621	0.2180439	0	0	-0.04792455	0.03276405	0	0
28.34229	0.01718252	0.2180259	0.001587954	-0.001085619	0.04792455	-0.03276405	0	0
28.35885	0.01720883	0.2180079	0.001587954	-0.001085619	0	0	0	0
28.37554	0.01728775	0.217918	0.004729558	-0.005388116	0.09447121	-0.1293804	0	0
28.39205	0.0174456	0.2178101	0.009560633	-0.00653629	0.1455257	-0.03458626	0	0
28.40856	0.01768237	0.2175763	0.01433935	-0.01416033	0.1447134	-0.230878	0	0
28.42512	0.01839266	0.2170187	0.04290316	-0.03367925	0.8637978	-0.5902717	0	0
28.44169	0.02520519	0.2123228	0.4111574	-0.2834138	11.11714	-7.539174	0	0
28.4586	0.03288288	0.2069219	0.4539666	-0.3193433	1.278589	-1.073113	0	0
28.47482	0.04420802	0.1987596	0.6982988	-0.503281	7.374808	-5.551889	0	0
28.49138	0.04683415	0.1965599	0.1585317	-0.13279	-16.46459	11.30114	0	0
28.50795	0.0510346	0.1809985	0.2535395	-0.9392854	2.867507	-24.34148	0	0
28.54121	0.04722801	0.1612512	-0.1144547	-0.5937532	-7.385635	6.934824	0	0
28.55778	0.04239563	0.1547213	-0.291683	-0.3941436	-3.556969	4.00616	0	0
28.59091	0.03025392	0.1470576	-0.3664586	-0.2313064	-1.504545	3.276416	0	0
28.60748	0.02778232	0.1457126	-0.1491862	-0.08118128	4.371697	3.020639	0	0
28.62404	0.02678307	0.1450582	-0.0603221	-0.03950507	2.682077	1.257863	0	0
28.64061	0.02667788	0.1449855	-0.006349118	-0.004389247	1.629002	1.059859	0	0
28.65724	0.02662528	0.1450218	-0.003163018	0.002186568	0.09597988	0.1980936	0	0
28.67374	0.02641491	0.1451673	-0.01274542	0.008810954	-0.2891973	0.1999244	0	0
28.69031	0.02625712	0.1452764	-0.009524998	0.006584628	0.09737737	-0.06731852	0	0
28.70688	0.02596785	0.1454763	-0.01746075	0.01206953	-0.2395152	0.1655442	0	0
28.72344	0.02504739	0.1461488	-0.05556511	0.04059891	-1.150058	0.8610681	0	0
28.74001	0.02357458	0.1471666	-0.08889912	0.06143147	-1.00608	0.628764	0	0
28.75658	0.02197015	0.148275	-0.09684361	0.06690364	-0.2397651	0.1651503	0	0
28.77314	0.02189124	0.1483295	-0.004762962	0.003290136	2.778999	-1.919859	0	0
28.78984	0.02189124	0.1483659	0	0.002177181	0.1432024	-0.03346193	0	0
28.80634	0.02189124	0.1483659	0	0	0	-0.06558287	0	0
28.82284	0.02189124	0.1483659	0	0	0	0	0	0
28.83941	0.02189124	0.1483659	0	0	0	0	0	0
28.85598	0.02186494	0.148384	-0.001587546	0.001096286	-0.04790949	0.03308408	0	0
28.87254	0.02178603	0.1484385	-0.004763511	0.003290515	-0.0958508	0.06622197	0	0
28.88911	0.0215756	0.1485839	-0.0127015	0.008773098	-0.2395827	0.1654742	0	0
28.90568	0.01947122	0.1500734	-0.127035	0.08992066	-3.45079	2.449179	0	0
28.92224	0.01481471	0.1532874	-0.2810679	0.1939957	-4.648991	3.141173	0	0
28.93881	0.01055224	0.1561912	-0.2572533	0.1752511	0.7186834	-0.5656816	0	0
28.95545	0.006552538	0.1589484	-0.2403984	0.1657221	0.507572	-0.2869584	0	0
28.97196	0.005394685	0.1597463	-0.07013038	0.04832901	5.136631	-3.541503	0	0
28.98851	0.002868413	0.1614869	-0.1526266	0.1051564	-2.495199	1.718812	0	0
29.00508	0.002421048	0.161795	-0.02700302	0.01860123	3.793074	-2.613442	0	0
29.02164	0.002394732	0.1618132	-0.001588601	0.00109384	0.7670528	-0.5284046	0	0
29.03821	0.002394732	0.1618132	0	0	0.04794407	-0.03301216	0	0
29.05478	0.002394732	0.1618132	0	0	0	0	0	0
29.07153	0.002394732	0.1618132	0	0	0	0	0	0
29.08805	0.002421048	0.161795	0.001593555	-0.001097251	0.04790606	-0.03298599	0	0
29.10456	0.002421048	0.161795	0	0	-0.04825469	0.03322604	0	0
29.12107	0.002421048	0.161795	0	0	0	0	0	0
29.13761	0.002421048	0.161795	0	0	0	0	0	0
29.15418	0.002447363	0.1617769	0.001588404	-0.001094613	0.04796849	-0.03305643	0	0
29.17075	0.002447363	0.1617769	0	0	-0.04793812	0.0330355	0	0
29.18731	0.002447363	0.1617769	0	0	0	0	0	0
29.20388	0.002447363	0.1617769	0	0	0	0	0	0
29.22064	0.002447363	0.1617769	0	0	0	0	0	0
29.23715	0.002447363	0.1617769	0	0	0	0	0	0
29.25358	0.002447363	0.1617769	0	0	0	0	0	0
29.27018	0.002473679	0.1617588	0.001585862	-0.001091954	0.04802173	-0.03306564	0	0
29.28672	0.002473679	0.1617588	0	0	-0.04786416	0.03295714	0	0
29.30328	0.002526311	0.1616863	0.003176836	-0.004376655	0.09595995	-0.1322019	0	0
29.31985	0.002684204	0.1615413	0.009530479	-0.00875421	0.1917533	-0.1321149	0	0
29.33642	0.003105253	0.1611787	0.02541457	-0.02188418	0.4793829	-0.3962632	0	0
29.35299	0.004157871	0.1597645	0.06353614	-0.08536276	1.150511	-1.915788	0	0
29.36955	0.004710491	0.1576062	0.03335623	-0.1302707	-0.9108315	-1.355324	0	0
29.40272	0.01844528	0.1478026	0.4140637	-0.2955516	7.654269	-3.323035	0	0
29.41929	0.02907076	0.1403114	0.6414291	-0.4522219	4.571442	-3.150037	0	0
29.43586	0.03729848	0.1344677	0.4966266	-0.3527264	-4.3704	3.002953	0	0
29.45242	0.04512724	0.1288181	0.4725445	-0.3410076	-0.7267982	0.3536726	0	0
29.46899	0.0532916	0.1212454	0.4928021	-0.4570938	0.6113744	-3.503487	0	0
29.48556	0.05339656	0.1128015	0.006335626	-0.5096752	-14.68159	-1.586911	0	0
29.50212	0.05124457	0.1037564	-0.1298945	-0.5459621	-4.111434	-1.095141	0	0
29.51869	0.04678163	0.09256306	-0.2693835	-0.6756297	-4.209787	-3.913375	0	0
29.53526	0.04294726	0.08480315	-0.2314433	-0.4683893	1.145038	6.254526	0	0
29.55188	0.03698313	0.07951777	-0.3587977	-0.3179643	-3.837158	4.532272	0	0
29.56839	0.02875523	0.07389373	-0.4983007	-0.3406054	-4.210209	-0.6833113	0	0
29.58496	0.02344307	0.07016479	-0.3206424	-0.2250789	5.370704	3.492428	0	0
29.60153	0.01949753	0.0673936	-0.2381535	-0.1672694	2.489518	1.744692	0	0
29.63466	0.004710491	0.05699401	-0.4462737	-0.3138603	-4.187385	-2.949414	0	0
29.65123	-0.0003157895	0.05345343	-0.3033869	-0.2137096	2.874887	2.015037	0	0
29.66797	-0.005157849	0.05000246	-0.289303	-0.2061886	0.422888	0.2258269	0	0
29.68448	-0.01207836	0.04511758	-0.4191222	-0.2958397	-3.904466	-2.696362	0	0
29.70093	-0.01720883	0.04152887	-0.3118658	-0.2181472	3.25386	2.356975	0	0
29.7175	-0.01920816	0.04007754	-0.1206246	-0.08756203	5.790673	3.954042	0	0
29.73406	-0.0247055	0.0362232	-0.3319727	-0.2327557	-6.3785	-4.381955	0	0
29.75063	-0.02822934	0.03372597	-0.2126995	-0.1507326	3.600503	2.476032	0	0
29.7672	-0.03193651	0.03109647	-0.2237393	-0.1586991	-0.333162	-0.2404148	0	0
29.78376	-0.03335604	0.03008892	-0.08570314	-0.0608297	4.166179	2.953875	0	0
29.80033	-0.03632612	0.02797963	-0.179274	-0.1273171	-2.824299	-2.006824	0	0
29.8169	-0.03761383	0.0270646	-0.07772655	-0.05523143	3.064708	2.175548	0	0
29.83347	-0.03761383	0.0270646	0	0	2.345792	1.666888	0	0
29.85003	-0.03761383	0.0270646	0	0	0	0	0	0
29.86661	-0.03764011	0.02704592	-0.001584878	-0.001126423	-0.04781245	-0.03398181	0	0
29.88362	-0.03764011	0.02704592	0	0	0.04718259	0.03353415	0	0
29.89973	-0.03764011	0.02704592	0	0	0	0	0	0
29.9163	-0.03764011	0.02704592	0	0	0	0	0	0
29.93287	-0.03764011	0.02704592	0	0	0	0	0	0
29.94944	-0.03764011	0.02704592	0	0	0	0	0	0
29.96601	-0.03764011	0.02704592	0	0	0	0	0	0
29.98269	-0.03764011	0.02704592	0	0	0	0	0	0
29.99921	-0.03764011	0.02704592	0	0	0	0	0	0
30.0157	-0.03764011	0.02704592	0	0	0	0	0	0
30.03226	-0.03764011	0.02704592	0	0	0	0	0	0
30.04883	-0.03764011	0.02704592	0	0	0	0	0	0
30.0654	-0.03764011	0.02704592	0	0	0	0	0	0
30.08197	-0.03764011	0.02704592	0	0	0	0	0	0
30.09853	-0.03764011	0.02704592	0	0	0	0	0	0
30.1151	-0.03761383	0.02702724	0.001585973	-0.001127201	0.04786475	-0.03401898	0	0
30.1318	-0.03761383	0.02702724	0	0	-0.04766992	0.03388051	0	0
30.14831	-0.03761383	0.02702724	0	0	0	0	0	0
30.16482	-0.03761383	0.02702724	0	0	0	0	0	0
30.18137	-0.03761383	0.02702724	0	0	0	0	0	0
30.2145	-0.03758755	0.02700857	0.0007930776	-0.0005636652	0.01596349	-0.01134576	0	0
30.23137	-0.03742988	0.0268965	0.009346073	-0.006642502	0.1710429	-0.1215647	0	0
30.24763	-0.03690429	0.02652294	0.03232003	-0.02297167	0.6933953	-0.4928436	0	0
30.2642	-0.02938627	0.02117666	0.4537883	-0.3227016	12.83818	-9.129957	0	0
30.28077	-0.02286444	0.01653419	0.3936589	-0.2802203	-1.81471	1.28209	0	0
30.3139	-0.008605051	0.006366486	0.4303739	-0.3068796	0.7387356	-0.5364076	0	0
30.33047	-0.001473683	0.001271238	0.4304502	-0.3075498	0.001535696	-0.01348486	0	0
30.34704	0.009526027	-0.006603144	0.6639438	-0.4752986	7.046851	-5.062667	0	0
30.3636	0.01342025	-0.009395727	0.2350555	-0.1685607	-12.94387	9.257368	0	0
30.38017	0.02076017	-0.01466667	0.4430389	-0.3181549	6.276952	-4.514764	0	0
30.39699	0.02210166	-0.01563111	0.07975124	-0.05733581	-10.88074	7.81173	0	0
30.4133	0.0244688	-0.01733378	0.1451194	-0.1043834	1.97293	-1.41998	0	0
30.42987	0.02541558	-0.0180151	0.05714768	-0.04112468	-2.675632	1.923992	0	0
30.44644	0.02541558	-0.0180151	0	0	-1.72472	1.241145	0	0
30.463	0.02541558	-0.0180151	0	0	0	0	0	0
30.48005	0.02544188	-0.01799617	0.001542809	0.001110421	0.04590151	0.03303712	0	0
30.49656	0.02544188	-0.01799617	0	0	-0.04597456	-0.0330897	0	0
30.5127	0.02544188	-0.01799617	0	0	0	0	0	0
30.52927	0.02544188	-0.01799617	0	0	0	0	0	0
30.54584	0.02544188	-0.01799617	0	0	0	0	0	0
30.56241	0.02544188	-0.01799617	0	0	0	0	0	0
30.57897	0.02544188	-0.01799617	0	0	0	0	0	0
30.59554	0.02544188	-0.01799617	0	0	0	0	0	0
30.61211	0.02544188	-0.01799617	0	0	0	0	0	0
30.62868	0.02544188	-0.01799617	0	0	0	0	0	0
30.64524	0.02541558	-0.0180151	-0.001587392	-0.001142508	-0.04790758	-0.03448097	0	0
30.66181	0.02541558	-0.0180151	0	0	0.04791034	0.03448296	0	0
30.67838	0.02538928	-0.01799617	-0.001587392	0.001142508	-0.04791034	0.03448296	0	0
30.69494	0.02538928	-0.01799617	0	0	0.04790758	-0.03448097	0	0
30.71172	0.02538928	-0.01799617	0	0	0	0	0	0
30.72808	0.02538928	-0.01799617	0	0	0	0	0	0
30.74464	0.02538928	-0.01799617	0	0	0	0	0	0
30.76125	0.02538928	-0.01799617	0	0	0	0	0	0
30.77778	0.02538928	-0.01799617	0	0	0	0	0	0
30.79434	0.02538928	-0.01799617	0	0	0	0	0	0
30.81091	0.02538928	-0.01799617	0	0	0	0	0	0
30.82748	0.02538928	-0.01799617	0	0	0	0	0	0
30.84405	0.02538928	-0.01799617	0	0	0	0	0	0
30.97658	0.02541558	-0.0180151	0.000198424	-0.0001428136	0.001330766	-0.0009578048	0	0
30.99315	0.02541558	-0.0180151	0	0	-0.001330766	0.0009578048	0	0
31.00972	0.02541558	-0.0180151	0	0	0	0	0	0
31.02629	0.02541558	-0.0180151	0	0	0	0	0	0
31.04296	0.02538928	-0.01799617	-0.001577223	0.00113519	-0.04744774	0.03415001	0	0
31.05942	0.02538928	-0.01799617	0	0	0.04760343	-0.03426206	0	0
31.07598	0.02538928	-0.01799617	0	0	0	0	0	0
31.09255	0.02538928	-0.01799617	0	0	0	0	0	0
31.10912	0.02538928	-0.01799617	0	0	0	0	0	0
31.12602	0.02538928	-0.01799617	0	0	0	0	0	0
31.14225	0.02538928	-0.01799617	0	0	0	0	0	0
31.15904	0.02538928	-0.01799617	0	0	0	0	0	0
31.17556	0.02538928	-0.01799617	0	0	0	0	0	0
31.19207	0.02538928	-0.01799617	0	0	0	0	0	0
31.20858	0.02538928	-0.01799617	0	0	0	0	0	0
31.22509	0.02541558	-0.0180151	0.001593078	-0.001146601	0.04824581	-0.03472441	0	0
31.24165	0.02541558	-0.0180151	0	0	-0.0481679	0.03466833	0	0
31.25862	0.02541558	-0.0180151	0	0	0	0	0	0
31.27513	0.02541558	-0.0180151	0	0	0	0	0	0
31.29135	0.02541558	-0.0180151	0	0	0	0	0	0
31.30792	0.02541558	-0.0180151	0	0	0	0	0	0
31.34167	0.02541558	-0.0180151	0	0	0	0	0	0
31.3747	0.02541558	-0.0180151	0	0	0	0	0	0
31.39121	0.02541558	-0.0180151	0	0	0	0	0	0
31.40755	0.02541558	-0.0180151	0	0	0	0	0	0
31.42423	0.02541558	-0.0180151	0	0	0	0	0	0
31.44068	0.02541558	-0.0180151	0	0	0	0	0	0
31.45724	0.02538928	-0.01799617	-0.001587392	0.001142508	-0.04808473	0.03460848	0	0
31.47381	0.02520519	-0.01782583	-0.01111186	0.0102819	-0.2874489	0.2758274	0	0
31.49038	0.024574	-0.01729593	-0.03809853	0.03198473	-0.8144594	0.6549926	0	0
31.50695	0.02286444	-0.01599049	-0.1031895	0.07879654	-1.964448	1.412783	0	0
31.52351	0.02062865	-0.01419401	-0.1349678	0.108448	-0.9591268	0.8949333	0	0
31.54008	0.01570923	-0.01047189	-0.2969366	0.224668	-4.88851	3.50773	0	0
31.55665	0.009447088	-0.005565967	-0.3779839	0.296122	-2.446013	2.156485	0	0
31.57321	-0.0001578947	0.002136658	-0.5797579	0.4649314	-6.08955	5.094677	0	0
31.58978	-0.004631546	0.007211817	-0.2700301	0.3063372	9.347601	-4.78638	0	0
31.60637	-0.01163105	0.01973591	-0.4220539	0.755173	-4.58571	13.53888	0	0
31.62291	-0.01423588	0.03566426	-0.1574088	0.9625458	7.987465	6.258882	0	0
31.63948	-0.01439374	0.04846152	-0.009528624	0.7724437	4.465603	-5.740597	0	0
31.65605	-0.01431481	0.06079058	0.004764312	0.7441836	0.4313616	-0.8528901	0	0
31.67262	-0.01247304	0.0767159	0.1111697	0.9612545	3.211321	6.551214	0	0
31.68918	-0.01184155	0.08423256	0.03811657	0.4537065	-2.204748	-15.31783	0	0
31.73888	-0.006684111	0.1129661	0.1037719	0.5781419	0.9907691	1.877789	0	0
31.75545	-0.003868402	0.1226695	0.1699566	0.5857014	0.9987573	0.114076	0	0
31.77202	-0.002894729	0.1308235	0.05877102	0.4921754	-3.355586	-2.822621	0	0
31.78858	-0.002473679	0.1390194	0.0254146	0.4947041	-1.006699	0.07631803	0	0
31.80515	-0.00210526	0.1502914	0.02223782	0.6803792	-0.09587542	5.603683	0	0
31.82202	-0.001315789	0.1595106	0.04680126	0.5465305	0.7346444	-4.003152	0	0
31.83853	-0.0008157893	0.1719198	0.03028113	0.7515287	-0.4949035	6.141256	0	0
31.85504	0.000368421	0.1807274	0.07171852	0.5334105	1.254772	-6.604874	0	0
31.87156	0.003210515	0.1898665	0.1721238	0.5534855	3.040389	0.6078932	0	0
31.88798	0.005184164	0.1942152	0.1201394	0.2647107	-1.57816	-8.766713	0	0
31.90458	0.005342055	0.195081	0.009513852	0.05217073	-3.349869	-6.435957	0	0
31.92112	0.01181524	0.2004901	0.3914433	0.3270941	11.52732	8.297683	0	0
31.93768	0.01531459	0.202995	0.2112213	0.1511961	-5.444124	-5.313509	0	0
31.95462	0.02310115	0.2085425	0.4597816	0.3275733	7.419137	5.264587	0	0
31.97082	0.02886041	0.2124847	0.3555289	0.2433594	-3.146352	-2.54158	0	0
31.98764	0.03398691	0.2159934	0.3047697	0.2085873	-1.537226	-1.053062	0	0
32.00415	0.0390328	0.2194466	0.3055908	0.2091362	0.02463557	0.01646812	0	0
32.07021	0.04557369	0.2238871	0.09900995	0.06721556	-2.501741	-1.718691	0	0
32.08678	0.04554743	0.223905	-0.001585031	0.00108472	-1.217412	-0.8003233	0	0
32.10335	0.04554743	0.223905	0	0	0.04783633	-0.0327369	0	0
32.11992	0.04554743	0.223905	0	0	0	0	0	0
32.13648	0.04559994	0.2238691	0.003170062	-0.002169439	0.09567265	-0.06547381	0	0
32.15325	0.04559994	0.2238691	0	0	-0.09509242	0.06507672	0	0
32.16961	0.04562621	0.2238511	0.001605215	-0.001098377	0.04845105	-0.03315289	0	0
32.18628	0.04562621	0.2238511	0	0	-0.04860776	0.03326012	0	0
32.20279	0.04559994	0.2238331	-0.00159075	-0.001089382	-0.04795372	-0.03283979	0	0
32.2361	0.04562621	0.2238152	0.0007882718	-0.0005393791	0.04774508	0.01103812	0	0
32.25282	0.04562621	0.2238152	0	0	-0.01575366	0.01077952	0	0
32.26933	0.04562621	0.2238152	0	0	0	0	0	0
32.2858	0.04562621	0.2238152	0	0	0	0	0	0
32.30237	0.04562621	0.2238152	0	0	0	0	0	0
32.31894	0.04562621	0.2238152	0	0	0	0	0	0
32.33551	0.04562621	0.2237792	0	-0.002169439	0	-0.06547381	0	0
32.35207	0.04562621	0.2237792	0	0	0	0.06547381	0	0
32.36864	0.04565247	0.2237612	0.001585031	-0.00108472	0.04783633	-0.0327369	0	0
32.38521	0.04565247	0.2237612	0	0	-0.04783633	0.0327369	0	0
32.40193	0.04567873	0.2237433	0.00157043	-0.001074575	0.04717301	-0.03227838	0	0
32.41844	0.04567873	0.2237073	0	-0.002177861	-0.04725423	-0.03319786	0	0
32.43491	0.04570499	0.2236893	0.001594946	-0.001091505	0.04836946	0.03294558	0	0
32.45147	0.04567873	0.2236714	-0.001585031	-0.00108472	-0.09627116	0.0002054324	0	0
32.46804	0.04573125	0.2236354	0.003170062	-0.002170339	0.143509	-0.03276405	0	0
32.48461	0.04570499	0.2236174	-0.001585031	-0.00108472	-0.143509	0.03276405	0	0
32.5015	0.04573125	0.2235995	0.001554254	-0.001063657	0.09381493	0.0006294372	0	0
32.51774	0.04573125	0.2235995	0	0	-0.04690747	0.03210124	0	0
32.53431	0.04573125	0.2235995	0	0	0	0	0	0
32.55088	0.04575751	0.2235815	0.001585256	-0.00108472	0.04784311	-0.0327369	0	0
32.56744	0.04573125	0.2235635	-0.001585256	-0.00108472	-0.09568623	0	0	0
32.58406	0.04573125	0.2235635	0	0	0.04777161	0.03268798	0	0
32.60057	0.04575751	0.2235456	0.001590382	-0.00108913	0.04800336	-0.03287379	0	0
32.61714	0.04575751	0.2235456	0	0	-0.04807533	0.03292307	0	0
32.63371	0.04575751	0.2235456	0	0	0	0	0	0
32.65028	0.04575751	0.2235456	0	0	0	0	0	0
32.66684	0.04573125	0.2235635	-0.001585256	0.001085619	-0.04784311	0.03276405	0	0
32.68341	0.04575751	0.2235456	0.001585256	-0.001085619	0.09568623	-0.06552809	0	0
32.70014	0.04575751	0.2235456	0	0	-0.04760743	0.03260265	0	0
32.71666	0.04575751	0.2235456	0	0	0	0	0	0
32.73311	0.04575751	0.2235456	0	0	0	0	0	0
32.74968	0.04575751	0.2235456	0	0	0	0	0	0
32.76624	0.04575751	0.2235456	0	0	0	0	0	0
32.78281	0.04575751	0.2235456	0	0	0	0	0	0
32.79971	0.04575751	0.2235456	0	0	0	0	0	0
32.81594	0.04575751	0.2235096	0	-0.002214827	0	-0.06685131	0	0
32.83251	0.04575751	0.2235096	0	0	0	0.06753561	0	0
32.84908	0.04578377	0.2234916	0.001585031	-0.00108472	0.04783633	-0.0327369	0	0
32.86564	0.04575751	0.2234737	-0.001585031	-0.00108472	-0.09567265	0	0	0
32.88227	0.04575751	0.2234737	0	0	0.04774837	0.03267671	0	0
32.89878	0.04575751	0.2234737	0	0	0	0	0	0
32.91534	0.04575751	0.2234737	0	0	0	0	0	0
32.94882	0.04575751	0.2234737	0	0	0	0	0	0
32.96533	0.04575751	0.2234737	0	0	0	0	0	0
32.98161	0.04575751	0.2234737	0	0	0	0	0	0
32.99836	0.04575751	0.2234737	0	0	0	0	0	0
33.01487	0.04575751	0.2234737	0	0	0	0	0	0
33.03138	0.04575751	0.2234737	0	0	0	0	0	0
33.04787	0.04575751	0.2234737	0	0	0	0	0	0
33.06444	0.04575751	0.2234377	0	-0.002170339	0	-0.06564455	0	0
33.08101	0.04575751	0.2234377	0	0	0	0.06549341	0	0
33.11443	0.04575751	0.2234377	0	0	0	0	0	0
33.13073	0.04575751	0.2234377	0	0	0	0	0	0
33.14746	0.04575751	0.2234018	0	-0.00214866	0	-0.06506392	0	0
33.16386	0.04575751	0.2234018	0	0	0	0.06484669	0	0
33.18048	0.04575751	0.2234018	0	0	0	0	0	0
33.19699	0.04575751	0.2234018	0	0	0	0	0	0
33.21356	0.04575751	0.2234018	0	0	0	0	0	0
33.23013	0.04575751	0.2234018	0	0	0	0	0	0
33.24703	0.04575751	0.2234018	0	0	0	0	0	0
33.26326	0.04575751	0.2234018	0	0	0	0	0	0
33.28005	0.04575751	0.2234018	0	0	0	0	0	0
33.29656	0.04575751	0.2234018	0	0	0	0	0	0
33.32958	0.04573125	0.2234197	-0.000795375	0.0005442395	-0.01605844	0.01098807	0	0
33.34609	0.04573125	0.2234197	0	0	0.01605844	-0.01098807	0	0
33.36266	0.04575751	0.2234377	0.001585256	0.00108472	0.04792588	0.03279354	0	0
33.37923	0.04575751	0.2234377	0	0	-0.04784311	-0.0327369	0	0
33.39613	0.04575751	0.2234377	0	0	0	0	0	0
33.41236	0.04588882	0.2233838	0.008089288	-0.00332146	0.2441352	-0.1002419	0	0
33.42893	0.04686041	0.2228266	0.05864547	-0.03363441	1.541405	-0.92421	0	0
33.44567	0.04922336	0.2212446	0.1411656	-0.09450757	2.477626	-1.827687	0	0
33.46218	0.05405256	0.217936	0.2925012	-0.200402	4.551599	-3.1849	0	0
33.47863	0.06420112	0.2110089	0.6168293	-0.4210291	9.839214	-6.693215	0	0
33.4952	0.07336807	0.2047065	0.5533181	-0.3804146	-1.923415	1.229996	0	0
33.51176	0.08824392	0.1944858	0.8979077	-0.6169231	10.39974	-7.13784	0	0
33.52873	0.09226362	0.1917073	0.2369557	-0.1637832	-19.71156	13.51398	0	0
33.5449	0.1046947	0.1830946	0.7687531	-0.5326194	16.04967	-11.1315	0	0
33.56147	0.1252877	0.1687519	1.242992	-0.8657286	14.48601	-10.17509	0	0
33.57803	0.1370306	0.160526	0.7088013	-0.4965147	-16.12191	11.1429	0	0
33.59478	0.1474484	0.1531966	0.6222303	-0.4377652	-2.598955	1.763722	0	0
33.61117	0.1617072	0.1431491	0.8698765	-0.6129658	7.473978	-5.287565	0	0
33.62774	0.1663177	0.1398747	0.2782927	-0.1976411	-17.94909	12.60126	0	0
33.6443	0.1722241	0.1356697	0.3565121	-0.2538127	2.360667	-1.695261	0	0
33.66087	0.1772006	0.1321539	0.3003828	-0.2122138	-1.693986	1.255457	0	0
33.67784	0.1842292	0.127341	0.4142267	-0.2836536	3.394779	-2.130307	0	0
33.694	0.1875079	0.1251335	0.2028116	-0.1365427	-6.38052	4.439817	0	0
33.71086	0.1893108	0.1238743	0.1069503	-0.07469919	-2.902792	1.872694	0	0
33.72738	0.1901737	0.1232537	0.05224181	-0.03757172	-1.639215	1.112441	0	0
33.7437	0.1938759	0.120661	0.2268053	-0.1588385	5.315458	-3.692573	0	0
33.76027	0.1943066	0.1203505	0.02599819	-0.0187411	-6.105357	4.259533	0	0
33.77691	0.1943066	0.1203505	0	0	-0.7828246	0.564308	0	0
33.79342	0.1943826	0.1202957	0.004604988	-0.003319906	0.1389148	-0.1001488	0	0
33.80997	0.1950159	0.119839	0.03825947	-0.02758817	1.018038	-0.734108	0	0
33.82694	0.1957756	0.119291	0.04476339	-0.03229044	0.1940107	-0.1402675	0	0
33.8431	0.196611	0.1186881	0.05169972	-0.03730994	0.2093627	-0.1515065	0	0
33.85997	0.2023501	0.1145389	0.3403014	-0.2460266	8.739194	-6.320182	0	0
33.87624	0.2067149	0.1113744	0.2682783	-0.1945042	-2.173661	1.554948	0	0
33.8928	0.2088314	0.1098371	0.1277505	-0.09279031	-4.27957	3.097548	0	0
33.90937	0.2089069	0.1097822	0.00456014	-0.003314421	-3.717891	2.700387	0	0
33.95481	0.2089321	0.1097639	0.0005542408	-0.0004027265	-0.06460702	0.04695972	0	0
33.97138	0.2089321	0.1097639	0	0	-0.008938229	0.00649476	0	0
34.00479	0.2090832	0.1096541	0.004522651	-0.003287396	0.09048891	-0.06577402	0	0
34.02135	0.2118768	0.1076219	0.168657	-0.1226947	3.284491	-2.389458	0	0
34.03792	0.2163495	0.1043611	0.2699738	-0.1968177	3.0581	-2.237296	0	0
34.05449	0.2209637	0.1009881	0.2785175	-0.2035963	0.2578503	-0.2045785	0	0
34.07111	0.2245432	0.09836499	0.2152658	-0.157751	-1.90543	1.381069	0	0
34.08763	0.2277673	0.09599738	0.1952331	-0.1433713	-0.6044499	0.4338815	0	0
34.10418	0.2320834	0.09282026	0.2607035	-0.1919035	1.979775	-1.467578	0	0
34.12075	0.2359182	0.08995343	0.2314653	-0.1730425	-0.882714	0.5694249	0	0
34.13732	0.2398204	0.08706634	0.2355362	-0.1742653	0.1228584	-0.03690385	0	0
34.15388	0.2418555	0.08552087	0.1228405	-0.09328454	-3.401164	2.444003	0	0
34.17045	0.245053	0.08310959	0.193	-0.1455454	2.117421	-1.577235	0	0
34.18702	0.2462662	0.08220731	0.07322937	-0.05446174	-3.614686	2.748909	0	0
34.20359	0.2508647	0.07863317	0.277565	-0.2157351	6.166862	-4.867239	0	0
34.22022	0.2520249	0.07776682	0.0697464	-0.05207736	-6.259007	4.928986	0	0
34.23674	0.2541215	0.07608892	0.1269599	-0.1016058	1.725912	-1.494084	0	0
34.25329	0.2548856	0.07551717	0.04616199	-0.03454272	-2.443549	2.028171	0	0
34.26986	0.2549596	0.07538806	0.004463001	-0.007793162	-1.259058	0.8076752	0	0
34.28642	0.2549349	0.07536961	-0.001487667	-0.001113502	-0.1795915	0.2015926	0	0
34.30332	0.2549349	0.07536961	0	0	0.04445263	0.03327229	0	0
34.31956	0.2549349	0.07536961	0	0	0	0	0	0
34.33631	0.2549349	0.07536961	0	0	0	0	0	0
34.35269	0.2549349	0.07536961	0	0	0	0	0	0
34.36926	0.2549349	0.07536961	0	0	0	0	0	0
34.38583	0.2549349	0.07536961	0	0	0	0	0	0
34.40239	0.2549349	0.07536961	0	0	0	0	0	0
34.41896	0.2549349	0.07536961	0	0	0	0	0	0
34.43553	0.2549349	0.07536961	0	0	0	0	0	0
34.4521	0.2549349	0.07536961	0	0	0	0	0	0
34.46866	0.2549349	0.07536961	0	0	0	0	0	0
34.48523	0.2549349	0.07536961	0	0	0	0	0	0
34.5018	0.2549349	0.07536961	0	0	0	0	0	0
34.51836	0.2549349	0.07536961	0	0	0	0	0	0
34.53496	0.2549349	0.07536961	0	0	0	0	0	0
34.5515	0.2549349	0.07536961	0	0	0	0	0	0
34.56807	0.2549349	0.07536961	0	0	0	0	0	0
34.58463	0.2549349	0.07536961	0	0	0	0	0	0
34.6012	0.2549349	0.07536961	0	0	0	0	0	0
34.61802	0.2549349	0.07536961	0	0	0	0	0	0
34.71717	0.2549103	0.07538806	-0.0002485741	0.0001860549	-0.002143423	0.001604328	0	0
34.7341	0.2548364	0.0754065	-0.004364722	0.00108898	-0.03545804	0.007778138	0	0
34.7503	0.2547378	0.07544339	-0.006086611	0.002277879	-0.05197269	0.03588517	0	0
34.76687	0.2546885	0.07548028	-0.002975334	0.002226553	0.09495896	-0.001566512	0	0
34.78344	0.254442	0.07562783	-0.01487667	0.008906214	-0.359183	0.2015925	0	0
34.80015	0.2535791	0.07627334	-0.05163276	0.03862471	-1.104469	0.8929992	0	0
34.81666	0.2507659	0.07837513	-0.1703555	0.1272748	-3.573185	2.668093	0	0
34.83313	0.245053	0.08263085	-0.3468294	0.258363	-5.350016	3.974092	0	0
34.8497	0.2332545	0.09140545	-0.7121544	0.529636	-11.05736	8.210667	0	0
34.86669	0.2193348	0.1016299	-0.8192583	0.6017694	-3.191615	2.149524	0	0
34.88283	0.215772	0.1042329	-0.2207405	0.1612734	18.06538	-13.29573	0	0
34.8994	0.1976486	0.1174273	-1.093934	0.7964172	-26.69729	19.41907	0	0
34.91597	0.1897931	0.1231259	-0.4741601	0.3439699	18.70483	-13.65489	0	0
34.93253	0.1676228	0.1390194	-1.338202	0.9593325	-26.07684	18.57168	0	0
34.96613	0.1382441	0.1598914	-0.8744677	0.6212636	9.244503	-6.73937	0	0
34.99926	0.1007107	0.1861473	-1.132759	0.7924048	-3.870662	2.564662	0	0
35.01583	0.084352	0.1974975	-0.987416	0.6851003	2.924307	-2.158971	0	0
35.0324	0.06234017	0.2126467	-1.328637	0.914407	-10.29806	6.920488	0	0
35.04897	0.04675537	0.2233299	-0.9407002	0.6448371	11.70795	-8.135635	0	0
35.06553	0.03719337	0.2298702	-0.5771639	0.3947732	10.97155	-7.546943	0	0
35.0821	0.01960275	0.2418792	-1.061772	0.7248679	-14.62549	9.962279	0	0
35.09867	0.00781563	0.2499135	-0.711472	0.4849524	10.57206	-7.240664	0	0
35.11537	-0.0070262	0.2600203	-0.8884898	0.6050326	-5.320355	3.609067	0	0
35.13189	-0.01728775	0.2670044	-0.6213916	0.4229235	8.040674	-5.482176	0	0
35.1484	-0.02367978	0.2713185	-0.387161	0.2613018	7.092774	-4.894095	0	0
35.16494	-0.03724593	0.2805513	-0.8201759	0.5581902	-13.1016	8.982862	0	0
35.1815	-0.04360392	0.2848796	-0.3837695	0.2612591	13.18139	-8.968624	0	0
35.19807	-0.0502209	0.2893858	-0.3994012	0.2719912	-0.4717667	0.3238941	0	0
35.21464	-0.05344905	0.2915491	-0.1948515	0.1305783	6.173323	-4.26785	0	0
35.2312	-0.055653	0.2930507	-0.1330308	0.09063975	1.865752	-1.205348	0	0
35.24777	-0.055653	0.2930507	0	0	4.014878	-2.735513	0	0
35.26448	-0.055653	0.2930507	0	0	0	0	0	0
35.28099	-0.05567923	0.2930329	-0.001588945	-0.001081259	-0.0478278	-0.03254627	0	0
35.2975	-0.05567923	0.2930329	0	0	0.04812065	0.03274555	0	0
