Time	Pos X	Pos Y	Vel X	Vel Y	Acc X	Acc YForce X	Force Y
0.09410791	0.03926928	0.1346316	-0.0006412692	-0.002198541	1.047478E-05	3.591196E-05	0	0
0.1106758	0.03926928	0.1346316	0	0	-1.047479E-05	-3.591199E-05	0	0
0.1272422	0.03926928	0.1346316	0	0	0	0	0	0
0.1438089	0.03926928	0.1346316	0	0	0	0	0	0
0.1603756	0.039243	0.1346134	-0.001585977	-0.001099143	-0.04786631	-0.0331732	0	0
0.1771232	0.039243	0.1346134	0	0	0.04760654	0.03299316	0	0
0.1935087	0.039243	0.1346134	0	0	0	0	0	0
0.2101465	0.03926928	0.1345952	0.001579205	-0.001095345	0.04782088	-0.03316883	0	0
0.2266651	0.03926928	0.1345952	0	0	-0.04762901	0.03303574	0	0
0.2432093	0.03926928	0.1345952	0	0	0	0	0	0
0.2693023	0.03926928	0.1345952	0	0	0	0	0	0
0.2858698	0.03926928	0.1345952	0	0	0	0	0	0
0.3027129	0.03926928	0.1345952	0	0	0	0	0	0
0.3190037	0.03926928	0.1345952	0	0	0	0	0	0
0.3357461	0.03926928	0.1345952	0	0	0	0	0	0
0.3522469	0.03926928	0.1345952	0	0	0	0	0	0
0.3687031	0.03929555	0.134577	0.001596629	-0.001106525	0.0484458	-0.0335748	0	0
0.3852722	0.03929555	0.134577	0	0	-0.0483456	0.03350535	0	0
0.4018366	0.03929555	0.134577	0	0	0	0	0	0
0.4184033	0.03926928	0.1345588	-0.001585979	-0.001099144	-0.0478698	-0.03317561	0	0
0.4349697	0.03929555	0.1345405	0.001586016	-0.001100069	0.09573504	-2.792585E-05	0	0
0.4515364	0.03929555	0.1345405	0	0	-0.04786808	0.03320157	0	0
0.4681027	0.03932182	0.1345223	0.001586016	-0.00109917	0.04786808	-0.03317442	0	0
0.4848416	0.0393481	0.1345041	0.001569892	-0.001087841	-0.0004841388	0.0003401593	0	0
0.5053488	0.03937438	0.1344495	0.001281231	-0.002664553	-0.007750104	-0.04233229	0	0
0.5219167	0.03947948	0.1343766	0.006343447	-0.004398052	0.1365393	-0.04675634	0	0
0.5384839	0.0396634	0.1342491	0.01110159	-0.007696528	0.1435985	-0.09954643	0	0
0.5550502	0.03992614	0.1340305	0.01585993	-0.01319454	0.1436114	-0.1659353	0	0
0.5719031	0.0409245	0.1333383	0.05923999	-0.04107588	1.298056	-0.8342899	0	0
0.5881844	0.04213295	0.1325002	0.07422274	-0.05147718	0.4521835	-0.3139141	0	0
0.6049264	0.04239563	0.1323179	0.0156902	-0.01088439	-1.772462	1.229217	0	0
0.6214387	0.04239563	0.1323179	0	0	-0.4718251	0.327308	0	0
0.6379493	0.04239563	0.1323179	0	0	0	0	0	0
0.6544498	0.04239563	0.1323179	0	0	0	0	0	0
0.6710193	0.04239563	0.1323179	0	0	0	0	0	0
0.6875856	0.04239563	0.1323179	0	0	0	0	0	0
0.7041507	0.04239563	0.1323179	0	0	0	0	0	0
0.7210112	0.04239563	0.1323179	0	0	0	0	0	0
0.7375195	0.04239563	0.1323179	0	0	0	0	0	0
0.7538502	0.04239563	0.1323179	0	0	0	0	0	0
0.7704173	0.04239563	0.1323179	0	0	0	0	0	0
0.7870547	0.04239563	0.1323179	0	0	0	0	0	0
0.8035669	0.04239563	0.1323179	0	0	0	0	0	0
0.8201171	0.04239563	0.1323179	0	0	0	0	0	0
0.8366839	0.04239563	0.1323179	0	0	0	0	0	0
0.8532502	0.04239563	0.1323179	0	0	0	0	0	0
0.8863841	0.04239563	0.1323179	0	0	0	0	0	0
0.9029496	0.04239563	0.1323179	0	0	0	0	0	0
0.9195176	0.04239563	0.1323179	0	0	0	0	0	0
0.9361601	0.04239563	0.1323179	0	0	0	0	0	0
0.9526502	0.04239563	0.1323179	0	0	0	0	0	0
0.969217	0.04239563	0.1323179	0	0	0	0	0	0
0.9857838	0.04239563	0.1323179	0	0	0	0	0	0
1.00235	0.04239563	0.1323179	0	0	0	0	0	0
1.018917	0.04239563	0.1323179	0	0	0	0	0	0
1.035484	0.04239563	0.1323179	0	0	0	0	0	0
1.05205	0.04239563	0.1323179	0	0	0	0	0	0
1.068756	0.04239563	0.1323179	0	0	0	0	0	0
1.085184	0.04239563	0.1323179	0	0	0	0	0	0
1.101779	0.04239563	0.1323179	0	0	0	0	0	0
1.118789	0.04239563	0.1323179	0	0	0	0	0	0
1.134884	0.04239563	0.1323179	0	0	0	0	0	0
1.15145	0.04239563	0.1323179	0	0	0	0	0	0
1.168018	0.04239563	0.1323179	0	0	0	0	0	0
1.184583	0.04239563	0.1323179	0	0	0	0	0	0
1.201349	0.04239563	0.1323179	0	0	0	0	0	0
1.217717	0.04239563	0.1323179	0	0	0	0	0	0
1.234372	0.04239563	0.1323179	0	0	0	0	0	0
1.25085	0.04239563	0.1323179	0	0	0	0	0	0
1.267417	0.04239563	0.1323179	0	0	0	0	0	0
1.283983	0.04239563	0.1323179	0	0	0	0	0	0
1.30055	0.04239563	0.1323179	0	0	0	0	0	0
1.317117	0.04239563	0.1323179	0	0	0	0	0	0
1.333683	0.04239563	0.1323179	0	0	0	0	0	0
1.35025	0.04239563	0.1323179	0	0	0	0	0	0
1.369885	0.04239563	0.1323179	0	0	0	0	0	0
1.386452	0.04239563	0.1323179	0	0	0	0	0	0
1.403019	0.04239563	0.1323179	0	0	0	0	0	0
1.420002	0.04239563	0.1323179	0	0	0	0	0	0
1.436153	0.04239563	0.1323179	0	0	0	0	0	0
1.452719	0.04239563	0.1323179	0	0	0	0	0	0
1.469286	0.04239563	0.1323179	0	0	0	0	0	0
1.485853	0.04239563	0.1323179	0	0	0	0	0	0
1.502562	0.04239563	0.1323179	0	0	0	0	0	0
1.519074	0.04239563	0.1323179	0	0	0	0	0	0
1.535583	0.04239563	0.1323179	0	0	0	0	0	0
1.55212	0.04239563	0.1323179	0	0	0	0	0	0
1.568686	0.04239563	0.1323179	0	0	0	0	0	0
1.585253	0.04239563	0.1323179	0	0	0	0	0	0
1.60182	0.04239563	0.1323179	0	0	0	0	0	0
1.618647	0.04239563	0.1323179	0	0	0	0	0	0
1.634954	0.04239563	0.1323179	0	0	0	0	0	0
1.65152	0.04239563	0.1323179	0	0	0	0	0	0
1.668087	0.04239563	0.1323179	0	0	0	0	0	0
1.684691	0.04239563	0.1323179	0	0	0	0	0	0
1.70122	0.04239563	0.1323179	0	0	0	0	0	0
1.717786	0.04239563	0.1323179	0	0	0	0	0	0
1.734355	0.04239563	0.1323179	0	0	0	0	0	0
1.750922	0.04239563	0.1323179	0	0	0	0	0	0
1.767487	0.04239563	0.1323179	0	0	0	0	0	0
1.784263	0.04239563	0.1323179	0	0	0	0	0	0
1.800622	0.04239563	0.1323179	0	0	0	0	0	0
1.817187	0.04239563	0.1323179	0	0	0	0	0	0
1.850321	0.04239563	0.1323179	0	0	0	0	0	0
1.966287	0.04239563	0.1323179	0	0	0	0	0	0
1.982902	0.04239563	0.1323179	0	0	0	0	0	0
1.99942	0.04239563	0.1323179	0	0	0	0	0	0
2.016427	0.04239563	0.1323179	0	0	0	0	0	0
2.032554	0.04239563	0.1323179	0	0	0	0	0	0
2.049121	0.04239563	0.1323179	0	0	0	0	0	0
2.065687	0.04239563	0.1323179	0	0	0	0	0	0
2.08226	0.04239563	0.1323179	0	0	0	0	0	0
2.09882	0.04239563	0.1323179	0	0	0	0	0	0
2.115388	0.04239563	0.1323179	0	0	0	0	0	0
2.131954	0.04239563	0.1323179	0	0	0	0	0	0
2.148522	0.04239563	0.1323179	0	0	0	0	0	0
2.165087	0.04239563	0.1323179	0	0	0	0	0	0
2.181653	0.04239563	0.1323179	0	0	0	0	0	0
2.198221	0.04239563	0.1323179	0	0	0	0	0	0
2.214788	0.04239563	0.1323179	0	0	0	0	0	0
2.250996	0.04239563	0.1323179	0	0	0	0	0	0
2.267614	0.04239563	0.1323179	0	0	0	0	0	0
2.284131	0.04239563	0.1323179	0	0	0	0	0	0
2.301128	0.04239563	0.1323179	0	0	0	0	0	0
2.317264	0.04239563	0.1323179	0	0	0	0	0	0
2.33383	0.04239563	0.1323179	0	0	0	0	0	0
2.350397	0.04239563	0.1323179	0	0	0	0	0	0
2.366963	0.04239563	0.1323179	0	0	0	0	0	0
2.38353	0.04239563	0.1323179	0	0	0	0	0	0
2.400202	0.04239563	0.1323179	0	0	0	0	0	0
2.416666	0.04239563	0.1323179	0	0	0	0	0	0
2.433232	0.04239563	0.1323179	0	0	0	0	0	0
2.449798	0.04239563	0.1323179	0	0	0	0	0	0
2.466366	0.04239563	0.1323179	0	0	0	0	0	0
2.482932	0.04239563	0.1323179	0	0	0	0	0	0
2.499499	0.04239563	0.1323179	0	0	0	0	0	0
2.516282	0.04239563	0.1323179	0	0	0	0	0	0
2.532793	0.04239563	0.1323179	0	0	0	0	0	0
2.549198	0.04239563	0.1323179	0	0	0	0	0	0
2.565814	0.04239563	0.1323179	0	0	0	0	0	0
2.582359	0.04239563	0.1323179	0	0	0	0	0	0
2.598903	0.04239563	0.1323179	0	0	0	0	0	0
2.665401	0.04239563	0.1323179	0	0	0	0	0	0
2.681905	0.04239563	0.1323179	0	0	0	0	0	0
2.698303	0.04239563	0.1323179	0	0	0	0	0	0
2.714872	0.04239563	0.1323179	0	0	0	0	0	0
2.731433	0.04239563	0.1323179	0	0	0	0	0	0
2.748005	0.04239563	0.1323179	0	0	0	0	0	0
2.764961	0.04239563	0.1323179	0	0	0	0	0	0
2.781135	0.04239563	0.1323179	0	0	0	0	0	0
2.797701	0.04239563	0.1323179	0	0	0	0	0	0
2.830834	0.04239563	0.1323179	0	0	0	0	0	0
2.847521	0.04239563	0.1323179	0	0	0	0	0	0
2.863968	0.04239563	0.1323179	0	0	0	0	0	0
2.880538	0.04239563	0.1323179	0	0	0	0	0	0
2.89711	0.04239563	0.1323179	0	0	0	0	0	0
2.91367	0.04239563	0.1323179	0	0	0	0	0	0
2.930237	0.04239563	0.1323179	0	0	0	0	0	0
2.947094	0.04239563	0.1323179	0	0	0	0	0	0
2.9636	0.04239563	0.1323179	0	0	0	0	0	0
2.980113	0.04239563	0.1323179	0	0	0	0	0	0
2.996499	0.04239563	0.1323179	0	0	0	0	0	0
3.029652	0.04192279	0.1327552	-0.01426233	0.01319092	-0.2879006	0.2662729	0	0
3.046673	0.04039906	0.1341398	-0.08951858	0.08134288	-1.499891	1.358299	0	0
3.063169	0.03254114	0.1426762	-0.4763477	0.5174772	-11.54108	13.0121	0	0
3.079331	0.02549447	0.1576062	-0.4359979	0.9237643	1.235515	12.44053	0	0
3.095898	0.01915555	0.1868335	-0.3826292	1.764212	1.630626	25.67907	0	0
3.112464	0.0171036	0.2036796	-0.1238687	1.016935	7.809914	-22.55435	0	0
3.12903	0.01336762	0.240426	-0.2255166	2.218143	-3.067982	36.25541	0	0
3.145597	0.01165737	0.2689379	-0.1032314	1.720982	3.690681	-15.00476	0	0
3.162164	0.01089431	0.2952137	-0.04605975	1.586057	1.725469	-4.072118	0	0
3.178731	0.01131531	0.3261565	0.02541165	1.867709	2.157042	8.500403	0	0
3.195299	0.01357811	0.3460141	0.1365774	1.198556	3.354916	-20.19464	0	0
3.215691	0.0216019	0.3729309	0.3934876	1.320002	6.951146	3.28592	0	0
3.232258	0.02988584	0.3854944	0.500012	0.758325	2.882237	-15.19732	0	0
3.248825	0.0396634	0.3958294	0.5901747	0.6238253	2.721096	-4.059181	0	0
3.265393	0.05092961	0.4036832	0.6800297	0.4740513	2.71183	-4.52019	0	0
3.281959	0.06425353	0.4137434	0.80428	0.6072711	3.749989	4.020698	0	0
3.298525	0.06682142	0.4166089	0.1550069	0.1729715	-19.59623	-13.10794	0	0
3.364879	0.08346355	0.4450889	0.2508099	0.4292162	1.155369	3.090271	0	0
3.381391	0.08429974	0.4456636	0.05064182	0.03480745	-2.415579	-4.759627	0	0
3.397926	0.08429974	0.4456636	0	0	-1.53242	-1.053272	0	0
3.414492	0.08429974	0.4456636	0	0	0	0	0	0
3.431058	0.08429974	0.4456636	0	0	0	0	0	0
3.447625	0.08432587	0.4456457	0.001577206	-0.001084751	0.04760223	-0.03273926	0	0
3.4642	0.08432587	0.4456457	0	0	-0.04758922	0.03273031	0	0
3.480759	0.08432587	0.4456457	0	0	0	0	0	0
3.497326	0.084352	0.4456277	0.001577161	-0.001082921	0.04761148	-0.03269132	0	0
3.513985	0.08437813	0.4456097	0.001568493	-0.001078758	-0.000260871	0.0001252797	0	0
3.530494	0.08448264	0.4455379	0.006330239	-0.004352237	0.1435631	-0.09869295	0	0
3.547026	0.08448264	0.4455379	0	0	-0.191586	0.1317214	0	0
3.563594	0.08448264	0.445502	0	-0.002167484	0	-0.06548266	0	0
3.580159	0.0845349	0.4454301	0.00315473	-0.004337641	0.09521268	-0.06549735	0	0
3.596726	0.08463941	0.4453044	0.006308375	-0.007589658	0.09518472	-0.09815383	0	0
3.613555	0.08469167	0.4452865	0.003105211	-0.00106606	-0.09591459	0.1953407	0	0
3.62986	0.08477005	0.4451607	0.00480713	-0.007711514	0.0513644	-0.2005616	0	0
3.679601	0.08474392	0.4451068	-0.000525312	-0.001083278	-0.08073918	0.100359	0	0
3.696616	0.08477005	0.4450889	0.001535615	-0.001054394	0.03087264	0.0004326823	0	0
3.712693	0.0848223	0.445053	0.003250448	-0.002235552	0.05181904	-0.03569237	0	0
3.72926	0.08487456	0.445017	0.003154053	-0.002167765	-0.002952961	0.002076582	0	0
3.745826	0.08490068	0.4449991	0.001577252	-0.001084782	-0.04759071	0.03268638	0	0
3.762391	0.08492681	0.4449811	0.001576915	-0.001083061	-1.014771E-05	5.194377E-05	0	0
3.779175	0.08490068	0.4449632	-0.001556396	-0.001070744	-0.09395642	0.0003693545	0	0
3.795525	0.08484843	0.4449272	-0.003196131	-0.002196372	-0.04948803	-0.03397202	0	0
3.812091	0.0848223	0.4449093	-0.001576802	-0.001084782	0.04919465	0.0337697	0	0
3.828658	0.08479618	0.4448913	-0.001577252	-0.001084782	-1.357313E-05	0	0	0
3.845225	0.08479618	0.4448554	0	-0.00216764	0.04760292	-0.03268167	0	0
3.862229	0.08479618	0.4448195	0	-0.00211196	0	0.001658571	0	0
3.878358	0.08477005	0.4448015	-0.001619987	-0.001114174	-0.04889307	0.03011432	0	0
3.894924	0.08477005	0.4447656	0	-0.002167765	0.04954766	-0.03222431	0	0
3.911491	0.08477005	0.4447297	0	-0.002167703	0	1.883275E-06	0	0
3.928057	0.08477005	0.4447297	0	0	0	0.06542423	0	0
3.944623	0.08477005	0.4446937	0	-0.002169595	0	-0.06548276	0	0
3.961191	0.08477005	0.4446578	0	-0.002167547	0	6.182306E-05	0	0
3.977758	0.08487456	0.4445501	0.006308375	-0.006503108	0.1903858	-0.1308466	0	0
3.994324	0.08505744	0.4443166	0.01103957	-0.01409338	0.142795	-0.2290863	0	0
4.010891	0.08508357	0.4441909	0.001577161	-0.00758944	-0.2855864	0.1962962	0	0
4.027458	0.08510969	0.4441011	0.001576802	-0.005418513	-1.083219E-05	0.06552058	0	0
4.044025	0.08495294	0.4439215	-0.009461615	-0.01084	-0.3331497	-0.1636255	0	0
4.060592	0.08450877	0.4435803	-0.02681071	-0.02059587	-0.5236041	-0.2944371	0	0
4.07738	0.08275792	0.4423773	-0.1042917	-0.07166188	-2.322936	-1.530996	0	0
4.099792	0.07959464	0.4402049	-0.1411373	-0.09692334	-0.9399201	-0.644412	0	0
4.11636	0.07527854	0.4372076	-0.2605132	-0.1809127	-3.062454	-2.154652	0	0
4.132928	0.06611403	0.4288128	-0.5531547	-0.5066988	-8.831683	-9.83196	0	0
4.149494	0.06042635	0.4183285	-0.343329	-0.6328723	6.332642	-3.80798	0	0
4.166444	0.05717446	0.3983873	-0.1918501	-1.176462	4.519546	-16.21861	0	0
4.182627	0.0562039	0.3864955	-0.05997625	-0.7348598	3.98019	13.32834	0	0
4.199193	0.05365897	0.360962	-0.1536171	-1.541246	-2.859333	-24.62309	0	0
4.215761	0.051717	0.341389	-0.1172172	-1.181429	1.098566	10.85945	0	0
4.232327	0.04959089	0.3222989	-0.12834	-1.152352	-0.3356976	0.8775761	0	0
4.248893	0.04662408	0.3000215	-0.1790869	-1.344743	-1.531631	-5.806718	0	0
4.265513	0.04475956	0.2908161	-0.1121876	-0.5538855	2.01589	23.83109	0	0
4.282027	0.03987359	0.2773311	-0.2958714	-0.816584	-5.543746	-7.928484	0	0
4.298594	0.03498572	0.2698866	-0.2950327	-0.4493528	0.02535099	11.10095	0	0
4.31516	0.02691455	0.2625637	-0.4872186	-0.4420515	-5.800431	0.2203614	0	0
4.332061	0.02086539	0.2584439	-0.3579169	-0.2437578	3.863578	5.925086	0	0
4.348294	0.01365705	0.2533193	-0.444056	-0.3156945	-2.59972	-2.171086	0	0
4.364861	0.008526109	0.2495371	-0.3097129	-0.2283005	4.095862	2.664474	0	0
4.381428	0.00294736	0.2455205	-0.336734	-0.2424402	-0.8155105	-0.4267448	0	0
4.397995	-0.004447339	0.2401927	-0.4463449	-0.3215861	-3.308065	-2.388627	0	0
4.41456	-0.009999666	0.2362265	-0.3351777	-0.2394277	3.355226	2.479688	0	0
4.431135	-0.01494626	0.2328154	-0.2984479	-0.2058046	1.108333	1.014587	0	0
4.447696	-0.01870834	0.2302114	-0.2271585	-0.1572316	2.151426	1.465872	0	0
4.464668	-0.02357458	0.2268881	-0.2867284	-0.1958191	-1.776453	-1.150728	0	0
4.480832	-0.02399539	0.2265647	-0.02603356	-0.02000796	7.867448	5.305762	0	0
4.4974	-0.02399539	0.2265647	0	0	0.7953432	0.6112571	0	0
4.514702	-0.02399539	0.2265647	0	0	0	0	0	0
4.530533	-0.02396909	0.2265467	0.001661283	-0.001135131	0.05013978	-0.03425981	0	0
4.547224	-0.02394279	0.2265287	0.001575758	-0.001076693	-0.002629745	0.001796866	0	0
4.563665	-0.02394279	0.2265287	0	0	-0.04755989	0.03249701	0	0
4.613365	-0.02391649	0.2265107	0.0005291884	-0.0003615871	0.008000898	-0.005466903	0	0
4.63029	-0.02391649	0.2265107	0	0	-0.007942891	0.005427266	0	0
4.646802	-0.02394279	0.2265287	-0.00159273	0.00108829	-0.04763341	0.03254725	0	0
4.663304	-0.02394279	0.2265287	0	0	0.04824296	-0.03296374	0	0
4.679827	-0.02394279	0.2265287	0	0	0	0	0	0
4.696199	-0.02394279	0.2265287	0	0	0	0	0	0
4.712767	-0.02394279	0.2265287	0	0	0	0	0	0
4.729334	-0.02394279	0.2265287	0	0	0	0	0	0
4.745898	-0.02394279	0.2265287	0	0	0	0	0	0
4.762467	-0.02394279	0.2265287	0	0	0	0	0	0
4.779033	-0.02394279	0.2265287	0	0	0	0	0	0
4.795601	-0.02394279	0.2265287	0	0	0	0	0	0
4.812162	-0.02391649	0.2265107	0.001588098	-0.001085126	0.04793718	-0.03275482	0	0
4.828731	-0.02391649	0.2265107	0	0	-0.04793581	0.03275387	0	0
4.845443	-0.02391649	0.2265107	0	0	0	0	0	0
4.861864	-0.02391649	0.2265107	0	0	0	0	0	0
4.878429	-0.02391649	0.2265107	0	0	0	0	0	0
4.894995	-0.02391649	0.2265107	0	0	0	0	0	0
4.911561	-0.02391649	0.2265107	0	0	0	0	0	0
4.92849	-0.02391649	0.2265107	0	0	0	0	0	0
4.944695	-0.02391649	0.2265107	0	0	0	0	0	0
4.961262	-0.02391649	0.2265107	0	0	0	0	0	0
4.97802	-0.02391649	0.2265107	0	0	0	0	0	0
5.001132	-0.02391649	0.2265107	0	0	0	0	0	0
5.017702	-0.02391649	0.2265107	0	0	0	0	0	0
5.034269	-0.02391649	0.2265107	0	0	0	0	0	0
5.050836	-0.02391649	0.2265107	0	0	0	0	0	0
5.067582	-0.02391649	0.2265107	0	0	0	0	0	0
5.084097	-0.02391649	0.2265107	0	0	0	0	0	0
5.100606	-0.02391649	0.2265107	0	0	0	0	0	0
5.117119	-0.02391649	0.2265107	0	0	0	0	0	0
5.134129	-0.02391649	0.2265107	0	0	0	0	0	0
5.150234	-0.02391649	0.2265107	0	0	0	0	0	0
5.1668	-0.02391649	0.2265107	0	0	0	0	0	0
5.183367	-0.02391649	0.2265107	0	0	0	0	0	0
5.199933	-0.02391649	0.2265107	0	0	0	0	0	0
5.2165	-0.02391649	0.2265107	0	0	0	0	0	0
5.233067	-0.02391649	0.2265107	0	0	0	0	0	0
5.249709	-0.02391649	0.2265107	0	0	0	0	0	0
5.266221	-0.02389019	0.2264928	0.001592822	-0.001087451	0.04804243	-0.03279951	0	0
5.282767	-0.02389019	0.2264928	0	0	-0.04818241	0.03289508	0	0
5.299334	-0.02389019	0.2264928	0	0	0	0	0	0
5.316257	-0.02386389	0.2264748	0.001554245	-0.001061919	0.0464103	-0.03170926	0	0
5.332467	-0.02386389	0.2264748	0	0	-0.04690856	0.0320497	0	0
5.349034	-0.02386389	0.2264748	0	0	0	0	0	0
5.365608	-0.02386389	0.2264748	0	0	0	0	0	0
5.382167	-0.02386389	0.2264748	0	0	0	0	0	0
5.398733	-0.02386389	0.2264748	0	0	0	0	0	0
5.4153	-0.02386389	0.2264748	0	0	0	0	0	0
5.431867	-0.02386389	0.2264748	0	0	0	0	0	0
5.481874	-0.02386389	0.2264748	0	0	0	0	0	0
5.498384	-0.02383759	0.2264569	0.00159296	-0.001088448	0.02394787	-0.01636325	0	0
5.514896	-0.02383759	0.2264569	0	0	-0.04823947	0.03296136	0	0
5.531267	-0.02383759	0.2264569	0	0	0	0	0	0
5.547834	-0.02378499	0.226385	0.0031751	-0.004338104	0.09639625	-0.1317051	0	0
5.564434	-0.02370608	0.2263311	0.004753186	-0.003247709	0.04758016	0.03287601	0	0
5.580968	-0.02346937	0.2261334	0.01431672	-0.0119542	0.2886322	-0.2627663	0	0
5.597954	-0.02218057	0.225217	0.07587481	-0.05395367	1.836473	-1.252977	0	0
5.614466	-0.01423588	0.2197523	0.481149	-0.3309542	12.09853	-8.269212	0	0
5.630669	-0.006105187	0.2141223	0.501804	-0.3474682	0.6313659	-0.5047863	0	0
5.647234	0.002499995	0.2081284	0.5194696	-0.3618343	0.539108	-0.4384177	0	0
5.664004	0.01313082	0.200454	0.6339058	-0.4576148	3.432842	-2.873211	0	0
5.68052	0.01718252	0.1963795	0.2453305	-0.2467103	-11.67397	6.336205	0	0
5.697026	0.01899771	0.1863279	0.1099673	-0.6089439	-4.099191	-10.96949	0	0
5.739419	0.01118374	0.1752127	-0.1843254	-0.2621983	-4.996572	5.88713	0	0
5.755986	0.009815474	0.1741997	-0.08258896	-0.06114635	1.725532	3.410002	0	0
5.78912	0.009815474	0.1741997	0	0	1.661709	1.230279	0	0
5.805686	0.009815474	0.1741997	0	0	0	0	0	0
5.822612	0.009841788	0.1742178	0.001554643	0.001068782	0.04641754	0.03191103	0	0
5.838819	0.009841788	0.174254	0	0.002232471	-0.04692258	0.03512273	0	0
5.859873	0.009841788	0.1742901	0	0.001718417	0	-0.0137962	0	0
5.876441	0.0098681	0.1743082	0.001588189	0.001091884	0.04221441	-0.0166534	0	0
5.893007	0.009841788	0.1743625	-0.001588327	0.003275934	-0.09586882	0.06591572	0	0
5.909676	0.009815474	0.1744891	-0.001578614	0.007597727	0.0002922514	0.1300371	0	0
5.926186	0.009815474	0.1745615	0	0.004382671	0.04757829	-0.0968995	0	0
5.942707	0.009815474	0.1745615	0	0	0	-0.1326817	0	0
5.959273	0.009815474	0.1745615	0	0	0	0	0	0
5.97584	0.009841788	0.1745796	0.001588337	0.001091947	0.04793886	0.03295691	0	0
5.992406	0.009841788	0.1745796	0	0	-0.04793749	-0.03295596	0	0
6.008974	0.009841788	0.1745796	0	0	0	0	0	0
6.02554	0.009841788	0.1745796	0	0	0	0	0	0
6.042107	0.009841788	0.1745796	0	0	0	0	0	0
6.058779	0.009841788	0.1745796	0	0	0	0	0	0
6.07529	0.009841788	0.1745796	0	0	0	0	0	0
6.091807	0.0098681	0.1745615	0.001593049	-0.001095225	0.04823312	-0.03316037	0	0
6.108816	0.0098681	0.1745615	0	0	-0.04751759	0.03266845	0	0
6.12494	0.0098681	0.1745615	0	0	0	0	0	0
6.141507	0.0098681	0.1745253	0	-0.002183893	0	-0.06680411	0	0
6.158073	0.0098681	0.1745253	0	0	0	0.06591287	0	0
6.174861	0.0098681	0.1745253	0	0	0	0	0	0
6.191206	0.0098681	0.1745253	0	0	0	0	0	0
6.207884	0.0098681	0.1745253	0	0	0	0	0	0
6.224398	0.0098681	0.1745253	0	0	0	0	0	0
6.240907	0.0098681	0.1745253	0	0	0	0	0	0
6.257473	0.0098681	0.1745253	0	0	0	0	0	0
6.274431	0.0098681	0.1745253	0	0	0	0	0	0
6.290607	0.0098681	0.1745253	0	0	0	0	0	0
6.323967	0.009920727	0.1744891	0.001577576	-0.001084548	0.03184752	-0.02189446	0	0
6.340477	0.009920727	0.1744891	0	0	-0.03163375	0.0217475	0	0
6.356873	0.009920727	0.1744891	0	0	0	0	0	0
6.373439	0.009920727	0.1744891	0	0	0	0	0	0
6.390012	0.009920727	0.1744891	0	0	0	0	0	0
6.406573	0.009920727	0.1744891	0	0	0	0	0	0
6.423139	0.009920727	0.1744891	0	0	0	0	0	0
6.440047	0.009920727	0.1744891	0	0	0	0	0	0
6.456272	0.009894414	0.1745072	-0.001621807	0.001114956	-0.04894834	0.0336509	0	0
6.472839	0.009894414	0.1745072	0	0	0.04945797	-0.03400126	0	0
6.489583	0.009894414	0.1745072	0	0	0	0	0	0
6.514646	0.009894414	0.1745072	0	0	0	0	0	0
6.531214	0.009894414	0.1745072	0	0	0	0	0	0
6.564347	0.009894414	0.1745072	0	0	0	0	0	0
6.580914	0.009894414	0.1745072	0	0	0	0	0	0
6.597659	0.009894414	0.1745072	0	0	0	0	0	0
6.614172	0.009920727	0.1744891	0.001593566	-0.001095541	0.0479167	-0.03294167	0	0
6.630684	0.009920727	0.1744891	0	0	-0.04825363	0.0331733	0	0
6.647198	0.009973354	0.174453	0.003186707	-0.002190829	0.09648883	-0.06633511	0	0
6.667308	0.01007861	0.1743806	0.005233929	-0.003599015	0.05589842	-0.03844984	0	0
6.683876	0.01023648	0.174272	0.009529305	-0.006551303	0.1171125	-0.08049346	0	0
6.700737	0.01073643	0.1739283	0.02965015	-0.02038616	0.6018954	-0.4138561	0	0
6.717009	0.01118374	0.1736207	0.02748976	-0.01890201	-0.06520277	0.04479286	0	0
6.733575	0.01249935	0.172716	0.07941464	-0.05461149	1.581227	-1.087432	0	0
6.750267	0.01349918	0.1720284	0.05989993	-0.04119769	-0.5867683	0.4033262	0	0
6.766709	0.01347287	0.1720465	-0.001600236	0.001100244	-1.856132	1.276591	0	0
6.783291	0.01347287	0.1720465	0	0	0.048457	-0.03331665	0	0
6.799841	0.01347287	0.1720465	0	0	0	0	0	0
6.816409	0.01347287	0.1720465	0	0	0	0	0	0
6.833326	0.01347287	0.1720465	0	0	0	0	0	0
6.849542	0.01347287	0.1720465	0	0	0	0	0	0
6.86635	0.01347287	0.1720465	0	0	0	0	0	0
6.882862	0.01347287	0.1720465	0	0	0	0	0	0
6.899373	0.01347287	0.1720465	0	0	0	0	0	0
6.915808	0.01347287	0.1720465	0	0	0	0	0	0
6.932375	0.01347287	0.1720465	0	0	0	0	0	0
6.948942	0.01347287	0.1720465	0	0	0	0	0	0
6.965508	0.01347287	0.1720465	0	0	0	0	0	0
6.982075	0.01347287	0.1720465	0	0	0	0	0	0
6.998943	0.01347287	0.1720465	0	0	0	0	0	0
7.015456	0.01347287	0.1720465	0	0	0	0	0	0
7.031776	0.01347287	0.1720465	0	0	0	0	0	0
7.048481	0.01347287	0.1720465	0	0	0	0	0	0
7.064909	0.01347287	0.1720465	0	0	0	0	0	0
7.147742	0.01347287	0.1720465	0	0	0	0	0	0
7.164309	0.01344656	0.1720284	-0.001588214	-0.001091978	-0.01597808	-0.01098574	0	0
7.180875	0.01344656	0.1720284	0	0	0.04793447	0.03295739	0	0
7.197443	0.01344656	0.1720284	0	0	0	0	0	0
7.214095	0.01344656	0.1720284	0	0	0	0	0	0
7.243665	0.01347287	0.1720103	0.0008897769	-0.0006122708	0.01925038	-0.01324652	0	0
7.260232	0.01344656	0.1719922	-0.001588077	-0.001091884	-0.05370549	-0.01039523	0	0
7.276799	0.01347287	0.1719741	0.001588168	-0.001092846	0.09585927	-2.904194E-05	0	0
7.293652	0.01349918	0.171956	0.001561251	-0.001073439	-0.0008054498	0.0005807018	0	0
7.309933	0.0135518	0.1718836	0.003232118	-0.004446242	0.0504283	-0.1017943	0	0
7.326675	0.01357811	0.1718655	0.001571523	-0.001081392	-0.05028546	0.1018931	0	0
7.343066	0.01365705	0.171775	0.004815652	-0.005520161	0.09791224	-0.1339681	0	0
7.359698	0.01376229	0.1717026	0.006327722	-0.004353318	0.04578856	0.03533436	0	0
7.376199	0.01381491	0.1716302	0.003189004	-0.00438701	-0.09473079	-0.00101687	0	0
7.392766	0.01397278	0.1715216	0.009528736	-0.006554189	0.191717	-0.06553668	0	0
7.409333	0.0145516	0.1711234	0.0349392	-0.02403542	0.7669004	-0.5275921	0	0
7.4259	0.01660374	0.1697115	0.123867	-0.08522604	2.683887	-1.846763	0	0
7.442466	0.02352198	0.1649483	0.4176218	-0.2875286	8.865917	-6.105767	0	0
7.459033	0.02891299	0.1612331	0.3254118	-0.2242592	-2.783063	1.909584	0	0
7.475599	0.0343549	0.1574793	0.3284836	-0.2265879	0.09270933	-0.07028259	0	0
7.492292	0.03543253	0.1567355	0.06455556	-0.04455678	-7.935329	5.472996	0	0
7.508733	0.03530112	0.1568262	-0.007993322	0.005518011	-2.189593	1.511304	0	0
7.5253	0.03527484	0.1568443	-0.001586426	0.001094645	0.1941063	-0.1340124	0	0
7.541866	0.03527484	0.1568443	0	0	0.04788049	-0.03303788	0	0
7.558433	0.03527484	0.1568443	0	0	0	0	0	0
7.575	0.03527484	0.1568443	0	0	0	0	0	0
7.591566	0.03527484	0.1568443	0	0	0	0	0	0
7.611015	0.03530112	0.1568625	0.001351342	0.0009332018	0.03752211	0.02591179	0	0
7.627583	0.03527484	0.1568806	-0.001586334	0.001094582	-0.08156482	0.004480733	0	0
7.64415	0.03527484	0.1568806	0	0	0.04787498	-0.03303407	0	0
7.660716	0.03522227	0.1569169	-0.003173168	0.002190253	-0.09576914	0.06610385	0	0
7.677424	0.03519599	0.156935	-0.001572979	0.001086259	0.04809032	-0.03317823	0	0
7.693936	0.0351697	0.1569532	-0.001591966	0.001098312	-0.0005715457	0.0003628379	0	0
7.710416	0.03514342	0.1569713	-0.00159478	0.001101314	-8.529819E-05	9.098286E-05	0	0
7.726983	0.03511713	0.1569895	-0.00158665	0.001094645	0.0002459971	-0.0002017936	0	0
7.743972	0.03509085	0.1570076	-0.001546975	0.001068301	0.001182354	-0.0007850718	0	0
7.760117	0.03511713	0.1570257	0.001627893	0.001123257	0.09581909	0.001658608	0	0
7.776683	0.03509085	0.1570439	-0.001586471	0.001095576	-0.09826545	-0.0008462426	0	0
7.793505	0.03506457	0.157062	-0.001562323	0.001078014	0.0007232554	-0.0005259932	0	0
7.810016	0.03506457	0.157062	0	0	0.0468704	-0.03234091	0	0
7.826528	0.03506457	0.157062	0	0	0	0	0	0
7.842949	0.03506457	0.157062	0	0	0	0	0	0
7.859551	0.03506457	0.157062	0	0	0	0	0	0
7.876082	0.03506457	0.157062	0	0	0	0	0	0
7.892649	0.03506457	0.157062	0	0	0	0	0	0
7.909215	0.03506457	0.157062	0	0	0	0	0	0
7.925783	0.03509085	0.1570439	0.00158638	-0.001094613	0.04787842	-0.03303645	0	0
7.942349	0.03509085	0.1570439	0	0	-0.04787842	0.03303645	0	0
7.959121	0.03506457	0.1570257	-0.001566987	-0.00108212	-0.04700225	-0.03245853	0	0
7.975482	0.03506457	0.1570257	0	0	0.04729311	0.0326594	0	0
7.992145	0.03506457	0.1570257	0	0	0	0	0	0
8.008615	0.03506457	0.1570257	0	0	0	0	0	0
8.025182	0.03506457	0.1570257	0	0	0	0	0	0
8.041749	0.03506457	0.1570257	0	0	0	0	0	0
8.058315	0.03506457	0.1570257	0	0	0	0	0	0
8.074882	0.03506457	0.1570257	0	0	0	0	0	0
8.091449	0.03506457	0.1570257	0	0	0	0	0	0
8.108016	0.03506457	0.1570257	0	0	0	0	0	0
8.124581	0.03509085	0.1570076	0.001586563	-0.00109474	0.04788531	-0.03304121	0	0
8.141148	0.03509085	0.1570076	0	0	-0.04788669	0.03304216	0	0
8.157714	0.03509085	0.1570076	0	0	0	0	0	0
8.17428	0.03509085	0.1570076	0	0	0	0	0	0
8.190846	0.03509085	0.1570076	0	0	0	0	0	0
8.207413	0.03509085	0.1570076	0	0	0	0	0	0
8.224307	0.03509085	0.1570076	0	0	0	0	0	0
8.240546	0.03509085	0.1570076	0	0	0	0	0	0
8.25733	0.03509085	0.1570076	0	0	0	0	0	0
8.273681	0.03511713	0.1569895	0.001607384	-0.001110018	0.04851094	-0.0335004	0	0
8.290247	0.03511713	0.1569895	0	0	-0.04883138	0.03372169	0	0
8.306813	0.03511713	0.1569895	0	0	0	0	0	0
8.32338	0.03511713	0.1569895	0	0	0	0	0	0
8.339946	0.03511713	0.1569895	0	0	0	0	0	0
8.356513	0.03511713	0.1569895	0	0	0	0	0	0
8.37308	0.03511713	0.1569895	0	0	0	0	0	0
8.389647	0.03511713	0.1569895	0	0	0	0	0	0
8.406437	0.03511713	0.1569895	0	0	0	0	0	0
8.426636	0.03511713	0.1569895	0	0	0	0	0	0
8.443203	0.03511713	0.1569895	0	0	0	0	0	0
8.459769	0.03511713	0.1569895	0	0	0	0	0	0
8.476336	0.03511713	0.1569895	0	0	0	0	0	0
8.492996	0.03511713	0.1569895	0	0	0	0	0	0
8.509507	0.03511713	0.1569895	0	0	0	0	0	0
8.526036	0.03511713	0.1569895	0	0	0	0	0	0
8.543032	0.03511713	0.1569895	0	0	0	0	0	0
8.559171	0.03511713	0.1569895	0	0	0	0	0	0
8.575736	0.03511713	0.1569895	0	0	0	0	0	0
8.592566	0.03511713	0.1569895	0	0	0	0	0	0
8.609078	0.03511713	0.1569895	0	0	0	0	0	0
8.625439	0.03511713	0.1569895	0	0	0	0	0	0
8.642102	0.03511713	0.1569895	0	0	0	0	0	0
8.658614	0.03514342	0.1569713	0.00159192	-0.00109828	0.04798485	-0.03310519	0	0
8.675138	0.03514342	0.1569713	0	0	-0.04818848	0.03324568	0	0
8.691705	0.03514342	0.1569713	0	0	0	0	0	0
8.708271	0.03514342	0.1569713	0	0	0	0	0	0
8.724837	0.03514342	0.1569713	0	0	0	0	0	0
8.741404	0.03514342	0.1569713	0	0	0	0	0	0
8.75797	0.03514342	0.1569713	0	0	0	0	0	0
8.774697	0.03514342	0.1569713	0	0	0	0	0	0
8.791103	0.03514342	0.1569713	0	0	0	0	0	0
8.807718	0.03514342	0.1569713	0	0	0	0	0	0
8.824236	0.03514342	0.1569713	0	0	0	0	0	0
8.840803	0.03514342	0.1569713	0	0	0	0	0	0
8.857369	0.03514342	0.1569713	0	0	0	0	0	0
8.873936	0.03514342	0.1569713	0	0	0	0	0	0
8.890778	0.03514342	0.1569713	0	0	0	0	0	0
8.907069	0.03514342	0.1569713	0	0	0	0	0	0
8.923801	0.03514342	0.1569713	0	0	0	0	0	0
8.940203	0.03514342	0.1569713	0	0	0	0	0	0
8.956824	0.03514342	0.1569713	0	0	0	0	0	0
8.973336	0.03514342	0.1569713	0	0	0	0	0	0
9.006469	0.03514342	0.1569713	0	0	0	0	0	0
9.023035	0.03514342	0.1569713	0	0	0	0	0	0
9.056169	0.0351697	0.1569532	0.0007932129	-0.0005477722	0.01596009	-0.01102162	0	0
9.072735	0.0351697	0.1569532	0	0	-0.01596009	0.01102162	0	0
9.089417	0.0351697	0.1569532	0	0	0	0	0	0
9.105868	0.0351697	0.1569532	0	0	0	0	0	0
9.122437	0.0351697	0.1569532	0	0	0	0	0	0
9.139002	0.0351697	0.1569532	0	0	0	0	0	0
9.155568	0.0351697	0.1569532	0	0	0	0	0	0
9.172135	0.0351697	0.1569532	0	0	0	0	0	0
9.188704	0.0351697	0.1569532	0	0	0	0	0	0
9.205268	0.0351697	0.1569532	0	0	0	0	0	0
9.22201	0.0351697	0.1569532	0	0	0	0	0	0
9.238402	0.03514342	0.1569713	-0.001603269	0.001107176	-0.04838676	0.03341464	0	0
9.254969	0.03514342	0.1569713	0	0	0.04864437	-0.03359254	0	0
9.271535	0.03514342	0.1569713	0	0	0	0	0	0
9.288101	0.03514342	0.1569713	0	0	0	0	0	0
9.304667	0.03514342	0.1569713	0	0	0	0	0	0
9.323569	0.03514342	0.1569713	0	0	0	0	0	0
9.340137	0.03514342	0.1569713	0	0	0	0	0	0
9.356703	0.03514342	0.1569713	0	0	0	0	0	0
9.373269	0.0351697	0.1569532	0.001586471	-0.001095576	0.04788256	-0.03306645	0	0
9.389835	0.0351697	0.1569532	0	0	-0.04788256	0.03306645	0	0
9.406638	0.0351697	0.1569532	0	0	0	0	0	0
9.423149	0	0	-2.130082	-9.505997	-63.94001	-285.3475	0	0
9.439536	0.03514342	0.156935	2.144593	9.576809	129.9374	580.0607	0	0
9.456102	0.03514342	0.156935	0	0	-65.07985	-290.6179	0	0
9.472685	0.03514342	0.156935	0	0	0	0	0	0
9.489236	0.03514342	0.156935	0	0	0	0	0	0
9.505803	0.03514342	0.156935	0	0	0	0	0	0
9.522368	0.03514342	0.1569713	0	0.002190378	0	0.06610956	0	0
9.538935	0.03514342	0.1569713	0	0	0	-0.06611146	0	0
9.555501	0.03514342	0.1569713	0	0	0	0	0	0
9.572069	0.03514342	0.1569713	0	0	0	0	0	0
9.588635	0.03514342	0.1569713	0	0	0	0	0	0
9.605202	0.03514342	0.1569713	0	0	0	0	0	0
9.621768	0.03514342	0.1569713	0	0	0	0	0	0
9.638334	0.03514342	0.1569713	0	0	0	0	0	0
9.655312	0.03514342	0.1569713	0	0	0	0	0	0
9.704601	0.03514342	0.156935	0	-0.0007361441	0	-0.01110876	0	0
9.721168	0.03514342	0.156935	0	0	0	0.01117809	0	0
9.737869	0.03514342	0.156935	0	0	0	0	0	0
9.754301	0.03514342	0.156935	0	0	0	0	0	0
9.771398	0.03514342	0.156935	0	0	0	0	0	0
9.787435	0.03514342	0.156935	0	0	0	0	0	0
9.804001	0.03514342	0.156935	0	0	0	0	0	0
9.820567	0.03514342	0.156935	0	0	0	0	0	0
9.83744	0.03514342	0.156935	0	0	0	0	0	0
9.8537	0.03514342	0.156935	0	0	0	0	0	0
9.870266	0.03514342	0.156935	0	0	0	0	0	0
9.886973	0.03514342	0.156935	0	0	0	0	0	0
9.903485	0.03514342	0.156935	0	0	0	0	0	0
9.919966	0.03514342	0.156935	0	0	0	0	0	0
9.986234	0.03514342	0.156935	0	0	0	0	0	0
10.0028	0.03514342	0.156935	0	0	0	0	0	0
10.01937	0.03514342	0.156935	0	0	0	0	0	0
10.03608	0.03514342	0.156935	0	0	0	0	0	0
10.05259	0.03514342	0.156935	0	0	0	0	0	0
10.0691	0.03514342	0.156935	0	0	0	0	0	0
10.1022	0.03514342	0.156935	0	0	0	0	0	0
10.11877	0.03514342	0.156935	0	0	0	0	0	0
10.13533	0.03514342	0.156935	0	0	0	0	0	0
10.15216	0.03514342	0.156935	0	0	0	0	0	0
10.16867	0.03514342	0.156935	0	0	0	0	0	0
10.18518	0.03514342	0.156935	0	0	0	0	0	0
10.2017	0.03514342	0.156935	0	0	0	0	0	0
10.21817	0.03514342	0.156935	0	0	0	0	0	0
10.23473	0.03514342	0.156935	0	0	0	0	0	0
10.2513	0.03514342	0.156935	0	0	0	0	0	0
10.26787	0.0351697	0.1569169	0.001586471	-0.001095576	0.04788256	-0.03306645	0	0
10.30377	0.0351697	0.1569169	0	0	-0.03023676	0.02088072	0	0
10.32028	0.0351697	0.1568806	0	-0.002197463	0	-0.04192517	0	0
10.33671	0.03519599	0.1568625	0.001599774	-0.001103699	0.04856221	0.03320195	0	0
10.35328	0.03519599	0.1568262	0	-0.002190253	-0.0484822	-0.03292874	0	0
10.36984	0.0351697	0.1567717	-0.001586696	-0.003285828	-0.04788934	-0.03306644	0	0
10.38641	0.0351697	0.1567717	0	0	0.04788934	0.0991722	0	0
10.40298	0.0351697	0.1567717	0	0	0	0	0	0
10.41954	0.0351697	0.1567717	0	0	0	0	0	0
10.43611	0.03514342	0.1567899	-0.001586471	0.001095576	-0.04788256	0.03306645	0	0
10.45267	0.03514342	0.1567899	0	0	0.04788256	-0.03306645	0	0
10.46924	0.03514342	0.1567899	0	0	0	0	0	0
10.48581	0.03514342	0.1567899	0	0	0	0	0	0
10.50237	0.03514342	0.1567899	0	0	0	0	0	0
10.51894	0.03511713	0.156808	-0.001586605	0.001094613	-0.04788521	0.03303645	0	0
10.53551	0.03511713	0.156808	0	0	0.04788521	-0.03303645	0	0
10.55207	0.03514342	0.1568262	0.001586696	0.001095576	0.04788934	0.03306645	0	0
10.56864	0.03514342	0.1568262	0	0	-0.04788797	-0.0330655	0	0
10.58521	0.03514342	0.1568262	0	0	0	0	0	0
10.60177	0.03514342	0.1568262	0	0	0	0	0	0
10.61834	0.03514342	0.1568262	0	0	0	0	0	0
10.6349	0.03514342	0.1568262	0	0	0	0	0	0
10.65147	0.03514342	0.1568262	0	0	0	0	0	0
10.66804	0.03514342	0.1568262	0	0	0	0	0	0
10.6846	0.03514342	0.1568262	0	0	0	0	0	0
10.70117	0.03514342	0.1568262	0	0	0	0	0	0
10.71774	0.03514342	0.1568262	0	0	0	0	0	0
10.73431	0.03511713	0.156808	-0.001586605	-0.001095513	-0.04788521	-0.03306359	0	0
10.75087	0.03511713	0.156808	0	0	0.04788521	0.03306359	0	0
10.76744	0.03511713	0.156808	0	0	0	0	0	0
10.78401	0.03511713	0.156808	0	0	0	0	0	0
10.8834	0.03511713	0.156808	0	0	0	0	0	0
10.89997	0.03511713	0.156808	0	0	0	0	0	0
10.91654	0.03511713	0.156808	0	0	0	0	0	0
10.93321	0.03511713	0.156808	0	0	0	0	0	0
10.94972	0.03511713	0.156808	0	0	0	0	0	0
10.96624	0.03511713	0.156808	0	0	0	0	0	0
10.9828	0.03511713	0.156808	0	0	0	0	0	0
10.99937	0.03511713	0.156808	0	0	0	0	0	0
11.01594	0.03511713	0.156808	0	0	0	0	0	0
11.0325	0.03511713	0.156808	0	0	0	0	0	0
11.04907	0.03511713	0.156808	0	0	0	0	0	0
11.06564	0.03511713	0.156808	0	0	0	0	0	0
11.08231	0.03511713	0.156808	0	0	0	0	0	0
11.09882	0.03511713	0.156808	0	0	0	0	0	0
11.11534	0.03511713	0.156808	0	0	0	0	0	0
11.13191	0.03511713	0.156808	0	0	0	0	0	0
11.14847	0.03511713	0.156808	0	0	0	0	0	0
11.19666	0.03511713	0.156808	0	0	0	0	0	0
11.21323	0.03511713	0.156808	0	0	0	0	0	0
11.22979	0.03511713	0.156808	0	0	0	0	0	0
11.24643	0.03511713	0.156808	0	0	0	0	0	0
11.26566	0.03511713	0.156808	0	0	0	0	0	0
11.28222	0.03511713	0.156808	0	0	0	0	0	0
11.29896	0.03511713	0.1568443	0	0.002167419	0	0.06507197	0	0
11.31548	0.03503828	0.1568988	-0.004775308	0.003296646	-0.1436066	0.03395893	0	0
11.33192	0.0348543	0.157062	-0.01118647	0.009927121	-0.1945194	0.2011735	0	0
11.34849	0.03361891	0.1579872	-0.0745727	0.05584469	-1.920018	1.390879	0	0
11.36506	0.02970179	0.1608342	-0.2364514	0.1718597	-4.885789	3.501542	0	0
11.38162	0.01794544	0.1691502	-0.7096145	0.5019545	-14.2805	9.962567	0	0
11.39819	0.009920727	0.1747786	-0.4844006	0.3397473	6.797164	-4.895565	0	0
11.41476	-0.003552617	0.184034	-0.8132058	0.558629	-9.923361	6.605865	0	0
11.43132	-0.02367978	0.1978762	-1.215018	0.8356073	-12.12706	8.359463	0	0
11.44789	-0.04018888	0.2093347	-0.9965481	0.6916799	6.594005	-4.344114	0	0
11.46446	-0.05785641	0.2215502	-1.066476	0.737373	-2.110549	1.3791	0	0
11.48109	-0.08628523	0.2410181	-1.708688	1.170095	-19.34136	13.03221	0	0
11.49761	-0.09638463	0.2479593	-0.6116433	0.4203779	33.09364	-22.61611	0	0
11.51416	-0.1101835	0.2574586	-0.8337182	0.5739403	-6.716733	4.644551	0	0
11.53072	-0.1257021	0.2681681	-0.9367602	0.6464654	-3.111424	2.189944	0	0
11.54729	-0.1352224	0.2747546	-0.5746424	0.3975596	10.92905	-7.512206	0	0
11.56386	-0.1439191	0.2807838	-0.5249351	0.3639244	1.500169	-1.015115	0	0
11.58042	-0.1521055	0.2864354	-0.4941881	0.3411719	0.9279996	-0.6867093	0	0
11.59717	-0.1595788	0.2916385	-0.4461367	0.3106053	1.442265	-0.9174601	0	0
11.64669	-0.182321	0.3075442	-0.4592918	0.3212254	-0.1985171	0.1602629	0	0
11.71296	-0.1927354	0.3146543	-0.1571578	0.1072945	2.609491	-1.847692	0	0
11.72952	-0.1927861	0.3146185	-0.003060057	-0.002156971	1.860336	-1.321347	0	0
11.74628	-0.1928368	0.3145828	-0.003025398	-0.002132541	0.001040104	0.0007331485	0	0
11.76266	-0.1928875	0.3145471	-0.003096429	-0.002181968	-0.002143823	-0.001491779	0	0
11.77922	-0.1929128	0.3145292	-0.001530029	-0.001077586	0.04754913	0.03352425	0	0
11.79581	-0.1929635	0.3144935	-0.003055308	-0.002153624	-0.04599993	-0.03245154	0	0
11.81236	-0.1929635	0.3144577	0	-0.002160205	0.09221204	-0.0001986054	0	0
11.82892	-0.1929889	0.3144399	-0.001530029	-0.001077586	-0.0462136	0.03269984	0	0
11.84549	-0.1929635	0.3143863	0.001530029	-0.003234558	0.09235802	-0.06510127	0	0
11.86205	-0.1929382	0.3143327	0.001530029	-0.003234558	0	0	0	0
11.87862	-0.1928875	0.3142613	0.003059881	-0.004313694	0.04617236	-0.03256935	0	0
11.89519	-0.1928621	0.3142077	0.001530029	-0.003234558	-0.04617236	0.03256935	0	0
11.91175	-0.1928621	0.3142077	0	0	-0.04617768	0.09762195	0	0
11.92841	-0.1928621	0.3142077	0	0	0	0	0	0
11.94492	-0.1928621	0.3141719	0	-0.002164322	0	-0.0652649	0	0
11.96145	-0.1928114	0.3140648	0.003066429	-0.00648068	0.09279071	-0.1306138	0	0
11.97802	-0.1928368	0.3140469	-0.001530029	-0.001077586	-0.1388532	0.1632207	0	0
11.99459	-0.1928368	0.3140469	0	0	0.04617768	0.03252255	0	0
12.01115	-0.1928621	0.314029	-0.001530928	-0.001079385	-0.04620483	-0.03257685	0	0
12.02798	-0.1928621	0.314029	0	0	0.04584983	0.03232656	0	0
12.04449	-0.1928621	0.314029	0	0	0	0	0	0
12.06085	-0.1928621	0.3139933	0	-0.002181927	0	-0.06636642	0	0
12.07742	-0.1928621	0.3139576	0	-0.002156971	0	0.0007578407	0	0
12.09399	-0.1928621	0.3139576	0	0	0	0.0650994	0	0
12.11055	-0.1928621	0.3139219	0	-0.002157096	0	-0.06510502	0	0
12.13108	-0.1928621	0.3139219	0	0	0	0.05816093	0	0
12.14764	-0.1928621	0.3139219	0	0	0	0	0	0
12.16421	-0.1928621	0.3139219	0	0	0	0	0	0
12.18078	-0.1928621	0.3139219	0	0	0	0	0	0
12.19734	-0.1928621	0.3139219	0	0	0	0	0	0
12.21391	-0.1928621	0.3139219	0	0	0	0	0	0
12.23047	-0.1928368	0.313904	0.001530928	-0.001077586	0.04620616	-0.03252349	0	0
12.24713	-0.1928114	0.3138861	0.001521968	-0.001073699	-0.0002697188	0.0001170241	0	0
12.26361	-0.1927861	0.3138683	0.001538175	-0.001083324	0.0004891597	-0.0002905029	0	0
12.28017	-0.1927607	0.3138147	0.00152994	-0.003234371	-0.0002491853	-0.06509298	0	0
12.29674	-0.1926086	0.3136361	0.00918197	-0.01078306	0.2309453	-0.2278264	0	0
12.31331	-0.1925833	0.3135825	0.001530029	-0.003234558	-0.2309493	0.2278273	0	0
12.32987	-0.1927354	0.3132609	-0.00918197	-0.01941094	-0.3233074	-0.4882324	0	0
12.34644	-0.1933944	0.3126178	-0.03977845	-0.03881605	-0.9234303	-0.5856642	0	0
12.42927	-0.2188333	0.2898327	-0.3071171	-0.2750781	-2.689561	-2.376915	0	0
12.44584	-0.2218654	0.2873116	-0.1830172	-0.1521738	1.248507	1.236479	0	0
12.46241	-0.2239179	0.2858453	-0.1238927	-0.08851318	1.784432	1.921335	0	0
12.47897	-0.2255435	0.2846471	-0.09812601	-0.072326	0.777686	0.4885581	0	0
12.49554	-0.228766	0.2822327	-0.1945259	-0.1457458	-2.909522	-2.215941	0	0
12.51231	-0.2291654	0.2810163	-0.02380749	-0.07251158	5.120458	2.196557	0	0
12.52882	-0.228741	0.2807123	0.02569813	-0.01841537	1.487277	1.625189	0	0
12.56181	-0.2159227	0.2717302	0.3885697	-0.2722791	7.330671	-5.128512	0	0
12.57838	-0.2026784	0.2625279	0.7995206	-0.555516	8.293012	-5.715737	0	0
12.59494	-0.1968135	0.2585156	0.354086	-0.2422379	-13.44556	9.456386	0	0
12.61151	-0.1840765	0.2497343	0.768893	-0.5301031	12.52106	-8.68929	0	0
12.62807	-0.1706911	0.2407848	0.8079444	-0.5401895	1.17864	-0.3044262	0	0
12.64464	-0.1605278	0.2343416	0.6134964	-0.3889367	-5.868619	4.564951	0	0
12.66121	-0.150691	0.2282176	0.5937824	-0.3696687	-0.5950057	0.5815412	0	0
12.67777	-0.1442541	0.2243004	0.3885311	-0.2364383	-6.194673	4.021018	0	0
12.69444	-0.1289386	0.2153997	0.9187909	-0.5339604	15.95414	-8.951667	0	0
12.72747	-0.1108594	0.2044723	0.5473475	-0.3308282	-7.473742	4.087185	0	0
12.74404	-0.1043043	0.1999313	0.3956896	-0.2741099	-3.057818	1.143589	0	0
12.76061	-0.100346	0.197191	0.2389345	-0.1654149	-4.73115	3.28061	0	0
12.7775	-0.09395936	0.1927719	0.3779728	-0.261526	4.154926	-2.872121	0	0
12.79374	0	0	5.786992	-11.87289	163.2492	-350.4418	0	0
12.81031	-0.08589341	0.1871946	-5.184835	11.29974	-334.4806	706.4271	0	0
12.82687	-0.08291473	0.1851359	0.1798035	-0.1242732	161.9144	-344.7973	0	0
12.84355	-0.08267951	0.1849733	0.01410467	-0.00974742	-4.984447	3.445091	0	0
12.86006	-0.08267951	0.1849733	0	0	-0.4250194	0.2937212	0	0
12.87657	-0.08267951	0.1849733	0	0	0	0	0	0
12.89314	-0.08267951	0.1849733	0	0	0	0	0	0
12.90971	-0.08267951	0.1849733	0	0	0	0	0	0
12.92627	-0.08270565	0.1849553	-0.001577701	-0.001090179	-0.04761786	-0.03290356	0	0
12.94284	-0.08270565	0.1849553	0	0	0.04761649	0.03290262	0	0
12.9594	-0.08273178	0.1849733	-0.001577701	0.001090179	-0.04761649	0.03290262	0	0
12.99254	-0.08275792	0.1849914	-0.0007888507	0.0005450895	0.01587262	-0.01096785	0	0
13.00916	-0.08278405	0.1850095	-0.001571732	0.001086364	-0.0157341	0.01087836	0	0
13.02567	-0.08283632	0.1850456	-0.003166156	0.002188691	-0.04811981	0.0332683	0	0
13.04528	-0.08291473	0.1850998	-0.003997994	0.002762582	-0.02302836	0.01588743	0	0
13.06185	-0.08294087	0.1851178	-0.00157761	0.001090116	0.06689923	-0.04622684	0	0
13.07842	-0.082967	0.1851359	-0.001577161	0.001090116	1.357235E-05	0	0	0
13.09499	-0.08304541	0.1851901	-0.004732559	0.00327106	-0.09522737	0.06581911	0	0
13.11155	-0.08312381	0.1852443	-0.004732654	0.003270537	-2.881005E-06	-1.578229E-05	0	0
13.12812	-0.08320221	0.1852985	-0.004732654	0.003270537	0	0	0	0
13.14476	-0.08322834	0.1853526	-0.001570111	0.003255731	0.09523468	-0.0004458699	0	0
13.16127	-0.08322834	0.1853526	0	0	0.04736696	-0.09821857	0	0
13.17782	-0.08322834	0.1853526	0	0	0	0	0	0
13.1948	-0.08307154	0.185461	0.009233034	0.006381437	0.2753175	0.1902864	0	0
13.21095	-0.08011761	0.1874655	0.1829109	0.1241197	5.241912	3.553554	0	0
13.22752	-0.07187597	0.1931508	0.4974954	0.343186	9.615674	6.69604	0	0
13.24409	-0.0573843	0.2029769	0.8747693	0.5931401	11.3868	7.544064	0	0
13.26065	-0.05006339	0.2079663	0.4418906	0.3011608	-13.06468	-8.812207	0	0
13.27722	-0.03785034	0.2161912	0.7371393	0.4964277	8.910367	5.892995	0	0
13.29379	-0.02941257	0.221748	0.5093633	0.3354455	-6.874491	-4.858592	0	0
13.31038	-0.0247318	0.2244802	0.2821582	0.1646953	-6.852921	-5.150137	0	0
13.32692	-0.02194384	0.2234018	0.168514	-0.06518132	-3.429888	-6.937891	0	0
13.34348	-0.01702467	0.22004	0.2969561	-0.2029415	3.879292	-4.160724	0	0
13.36041	-0.01223623	0.2167669	0.2829235	-0.193391	-0.4190047	0.2851739	0	0
13.37662	-0.008578737	0.2142302	0.2256375	-0.1564899	-1.728896	1.113675	0	0
13.39318	-0.005815724	0.2123408	0.166795	-0.1140616	-1.79535	1.294536	0	0
13.40995	-0.005236794	0.2119448	0.03453868	-0.02362152	-3.968432	2.71371	0	0
13.42632	-0.005236794	0.2119448	0	0	-1.042409	0.7129195	0	0
13.44288	-0.005236794	0.2119448	0	0	0	0	0	0
13.45948	-0.005236794	0.2119448	0	0	0	0	0	0
13.49301	-0.005289424	0.2119448	-0.001569895	0	-0.03132131	0	0	0
13.50915	-0.005289424	0.2119448	0	0	0.03160636	0	0	0
13.52572	-0.005289424	0.2119448	0	0	0	0	0	0
13.54254	-0.005289424	0.2119448	0	0	0	0	0	0
13.55885	-0.005342055	0.2119808	-0.003226367	0.002206044	-0.09737196	0.06657853	0	0
13.57542	-0.005342055	0.2119808	0	0	0.09813173	-0.06709802	0	0
13.59207	-0.005342055	0.2119808	0	0	0	0	0	0
13.60859	-0.005342055	0.2119808	0	0	0	0	0	0
13.62512	-0.005394685	0.2119448	-0.003183348	-0.002176648	-0.09633149	-0.06586768	0	0
13.64168	-0.005447315	0.2118728	-0.003176934	-0.004345425	0.0001937818	-0.06552359	0	0
13.67514	-0.005499945	0.2118368	-0.001573341	-0.001076235	0.03206072	0.06536112	0	0
13.69138	-0.005552575	0.2117648	-0.003239026	-0.004430354	-0.03351492	-0.06748761	0	0
13.70816	-0.005657834	0.2116928	-0.006275831	-0.004292944	-0.09196596	0.004161313	0	0
13.72452	-0.005763094	0.2116209	-0.006433842	-0.004400138	-0.004769041	-0.003235331	0	0
13.74108	-0.005789409	0.2116029	-0.001588467	-0.001086581	0.147157	0.1006348	0	0
13.75769	-0.005789409	0.2116029	0	0	0.0478849	0.03275537	0	0
13.77422	-0.005815724	0.2115849	-0.001592225	-0.001089152	-0.04805483	-0.03287161	0	0
13.79078	-0.005815724	0.2115849	0	0	0.048113	0.0329114	0	0
13.80735	-0.005815724	0.2115849	0	0	0	0	0	0
13.82392	-0.005842039	0.2115669	-0.001588467	-0.001086581	-0.04794279	-0.03279497	0	0
13.84048	-0.005868354	0.2115488	-0.001588467	-0.001086581	0	0	0	0
13.85705	-0.005894668	0.2115308	-0.001588347	-0.001086519	3.608388E-06	1.886762E-06	0	0
13.87377	-0.005894668	0.2115308	0	0	0.04771531	0.03263994	0	0
13.89028	-0.005920983	0.2115129	-0.001593789	-0.001089319	-0.04795984	-0.03277947	0	0
13.90675	-0.005920983	0.2115129	0	0	0.04832736	0.03303067	0	0
13.92585	-0.005947298	0.2114949	-0.001377872	-0.0009425247	-0.03874091	-0.02650048	0	0
13.94241	-0.005947298	0.2114949	0	0	0.03863317	0.02642678	0	0
13.95898	-0.005947298	0.2114949	0	0	0	0	0	0
13.97584	-0.005973613	0.2114769	-0.00156044	-0.001067409	-0.04667903	-0.0319305	0	0
13.99211	-0.005973613	0.2114769	0	0	0.04709553	0.03221541	0	0
14.00868	-0.005973613	0.2114769	0	0	0	0	0	0
14.02538	-0.005973613	0.2114769	0	0	0	0	0	0
14.04181	-0.005999928	0.2114589	-0.001601066	-0.001095219	-0.04832305	-0.03305567	0	0
14.05838	-0.005999928	0.2114229	0	-0.002173162	0.04851436	-0.03266307	0	0
14.07494	-0.005999928	0.2114229	0	0	0	0.06558993	0	0
14.09151	-0.006131502	0.2113329	-0.007942308	-0.005432006	-0.2397131	-0.1639477	0	0
14.10849	-0.006157817	0.2113149	-0.001549807	-0.001060155	0.1905621	0.130326	0	0
14.12464	-0.006184132	0.2112969	-0.001628978	-0.001114292	-0.002389445	-0.001633918	0	0
14.14121	-0.006184132	0.2112969	0	0	0.04978164	0.03405282	0	0
14.15778	-0.006184132	0.2112969	0	0	0	0	0	0
14.17448	-0.006184132	0.2112969	0	0	0	0	0	0
14.19091	-0.006157817	0.2112789	0.001601559	-0.001095537	0.04833654	-0.03306431	0	0
14.2075	-0.006184132	0.2112609	-0.001586002	-0.001084895	-0.09652583	0.0003222541	0	0
14.22404	-0.006184132	0.2112609	0	0	0.04786839	0.03274408	0	0
14.24061	-0.006210446	0.2112429	-0.001588439	-0.001086581	-0.04797923	-0.03282047	0	0
14.30689	-0.006236761	0.2111889	-0.0003970253	-0.0008147482	0.01438095	0.003281157	0	0
14.37314	-0.006263076	0.2111349	-0.000397184	-0.0008148634	-1.197461E-06	-8.691639E-07	0	0
14.39013	-0.006289391	0.2111169	-0.001549052	-0.001059619	-0.01383783	-0.002940346	0	0
14.40628	-0.006263076	0.2110989	0.001629844	-0.001114885	0.09594204	-0.001667964	0	0
14.42284	-0.006263076	0.2110989	0	0	-0.04982407	0.03408185	0	0
14.43941	-0.006236761	0.2110809	0.001588439	-0.001086581	0.04794194	-0.03279497	0	0
14.45598	-0.006184132	0.2110449	0.003176906	-0.002173162	0.04794279	-0.03279497	0	0
14.47254	-0.006078872	0.2109369	0.006353475	-0.006519111	0.09587179	-0.1311648	0	0
14.48911	-0.005710464	0.2106849	0.02223843	-0.01521214	0.4794226	-0.2623636	0	0
14.50568	-0.005657834	0.2106489	0.003176934	-0.002173162	-0.5753101	0.3935396	0	0
14.52224	-0.005631519	0.2106309	0.001588467	-0.001086581	-0.04794279	0.03279497	0	0
14.53881	-0.005657834	0.2106129	-0.001588467	-0.001086581	-0.09588558	0	0	0
14.55538	-0.005657834	0.2106129	0	0	0.04794141	0.03279402	0	0
14.57194	-0.005657834	0.2106129	0	0	0	0	0	0
14.58851	-0.005657834	0.2106129	0	0	0	0	0	0
14.60507	-0.005657834	0.2106129	0	0	0	0	0	0
14.62164	-0.005657834	0.2106129	0	0	0	0	0	0
14.6383	-0.005657834	0.2106129	0	0	0	0	0	0
14.65482	-0.005657834	0.2106129	0	0	0	0	0	0
14.67134	-0.005657834	0.2106129	0	0	0	0	0	0
14.68791	-0.005657834	0.2106129	0	0	0	0	0	0
14.70447	-0.005657834	0.2106129	0	0	0	0	0	0
14.72136	-0.005657834	0.2106129	0	0	0	0	0	0
14.73787	-0.005657834	0.2106129	0	0	0	0	0	0
14.75418	-0.005657834	0.2106129	0	0	0	0	0	0
14.77074	-0.005657834	0.2106129	0	0	0	0	0	0
14.78741	-0.005631519	0.2105949	0.001578833	-0.001079991	0.04750707	-0.03249691	0	0
14.80387	-0.005631519	0.2105949	0	0	-0.04765201	0.03259607	0	0
14.82044	-0.005631519	0.2105949	0	0	0	0	0	0
14.85746	-0.005631519	0.2105949	0	0	0	0	0	0
14.8739	-0.005631519	0.2105949	0	0	0	0	0	0
14.89046	-0.005631519	0.2105949	0	0	0	0	0	0
14.90703	-0.005631519	0.2105949	0	0	0	0	0	0
14.92401	-0.005631519	0.2105949	0	0	0	0	0	0
14.94016	-0.005631519	0.2105949	0	0	0	0	0	0
14.95673	-0.005631519	0.2105949	0	0	0	0	0	0
14.97354	-0.005631519	0.2105949	0	0	0	0	0	0
15.05613	-0.005631519	0.2105949	0	0	0	0	0	0
15.07269	-0.005631519	0.2105949	0	0	0	0	0	0
15.08926	-0.005631519	0.2105949	0	0	0	0	0	0
15.10613	-0.005631519	0.2105949	0	0	0	0	0	0
15.12239	-0.005631519	0.2105949	0	0	0	0	0	0
15.13896	-0.005631519	0.2105949	0	0	0	0	0	0
15.15617	-0.005631519	0.2105949	0	0	0	0	0	0
15.17209	-0.005631519	0.2105949	0	0	0	0	0	0
15.18869	-0.005631519	0.2105949	0	0	0	0	0	0
15.22179	-0.005631519	0.2105949	0	0	0	0	0	0
15.23836	-0.005631519	0.2105949	0	0	0	0	0	0
15.25493	-0.005631519	0.2105949	0	0	0	0	0	0
15.27149	-0.005657834	0.2105769	-0.001588467	-0.001086581	-0.04794279	-0.03279497	0	0
15.28826	-0.005657834	0.2105769	0	0	0.04765337	0.03259699	0	0
15.30463	-0.005657834	0.2105769	0	0	0	0	0	0
15.32128	-0.005657834	0.2105769	0	0	0	0	0	0
15.33776	-0.005657834	0.2105769	0	0	0	0	0	0
15.35433	-0.005657834	0.2105769	0	0	0	0	0	0
15.38035	-0.005657834	0.2105769	0	0	0	0	0	0
15.39691	-0.005657834	0.2105769	0	0	0	0	0	0
15.41348	-0.005657834	0.2105769	0	0	0	0	0	0
15.43005	-0.005631519	0.2105589	0.001588467	-0.001086581	0.04794141	-0.03279402	0	0
15.44687	-0.005631519	0.2105589	0	0	-0.04757171	0.03254114	0	0
15.46318	-0.005657834	0.2105409	-0.001613547	-0.001103737	-0.04869834	-0.0333118	0	0
15.47975	-0.005657834	0.2105409	0	0	0.04908118	0.03357367	0	0
15.49641	-0.005657834	0.2105409	0	0	0	0	0	0
15.51292	-0.005657834	0.2105409	0	0	0	0	0	0
15.52945	-0.005657834	0.2105409	0	0	0	0	0	0
15.54601	-0.005657834	0.2105409	0	0	0	0	0	0
15.56295	-0.005657834	0.2105409	0	0	0	0	0	0
15.57915	-0.005657834	0.2105409	0	0	0	0	0	0
15.59571	-0.005657834	0.2105409	0	0	0	0	0	0
15.61249	-0.005657834	0.2105409	0	0	0	0	0	0
15.629	-0.005657834	0.2105409	0	0	0	0	0	0
15.64551	-0.005657834	0.2105409	0	0	0	0	0	0
15.66202	-0.005657834	0.2105409	0	0	0	0	0	0
15.67855	-0.005657834	0.2105409	0	0	0	0	0	0
15.69512	-0.005657834	0.2105409	0	0	0	0	0	0
15.71168	-0.005657834	0.2105409	0	0	0	0	0	0
15.72825	-0.005657834	0.2105409	0	0	0	0	0	0
15.74508	-0.005657834	0.2105409	0	0	0	0	0	0
15.76138	-0.005657834	0.2105409	0	0	0	0	0	0
15.7812	-0.005657834	0.2105409	0	0	0	0	0	0
15.79812	-0.005657834	0.2105409	0	0	0	0	0	0
15.81434	-0.005657834	0.2105409	0	0	0	0	0	0
15.8309	-0.005657834	0.2105409	0	0	0	0	0	0
15.84765	-0.005657834	0.2105409	0	0	0	0	0	0
15.86404	-0.005657834	0.2105409	0	0	0	0	0	0
15.88068	-0.005657834	0.2105409	0	0	0	0	0	0
15.89719	-0.005657834	0.2105409	0	0	0	0	0	0
15.91373	-0.005657834	0.2105409	0	0	0	0	0	0
15.9303	-0.005657834	0.2105409	0	0	0	0	0	0
15.94687	-0.005657834	0.2105409	0	0	0	0	0	0
15.96374	-0.005657834	0.2105409	0	0	0	0	0	0
15.98025	-0.005657834	0.2105409	0	0	0	0	0	0
15.99657	-0.005657834	0.2105409	0	0	0	0	0	0
16.01327	-0.005657834	0.2105409	0	0	0	0	0	0
16.02978	-0.005657834	0.2105409	0	0	0	0	0	0
16.04627	-0.005657834	0.2105409	0	0	0	0	0	0
16.06284	-0.005657834	0.2105409	0	0	0	0	0	0
16.11284	-0.005684149	0.2105229	-0.0005262074	-0.0003599489	-0.00790386	-0.005406586	0	0
16.1291	-0.005684149	0.2105229	0	0	0.007940713	0.005431796	0	0
16.14567	-0.005684149	0.2105229	0	0	0	0	0	0
16.16224	-0.005684149	0.2105229	0	0	0	0	0	0
16.1788	-0.005657834	0.2105049	0.001588376	-0.001086519	0.04793727	-0.03279119	0	0
16.19541	-0.005657834	0.2105049	0	0	-0.04788765	0.03275725	0	0
16.21194	-0.005657834	0.2105049	0	0	0	0	0	0
16.2285	-0.005657834	0.2105049	0	0	0	0	0	0
16.24507	-0.005657834	0.2105049	0	0	0	0	0	0
16.26164	-0.005657834	0.2105049	0	0	0	0	0	0
16.27821	-0.005657834	0.2105049	0	0	0	0	0	0
16.29477	-0.005657834	0.2105049	0	0	0	0	0	0
16.31134	-0.005657834	0.2105049	0	0	0	0	0	0
16.328	-0.005657834	0.2105049	0	0	0	0	0	0
16.34447	-0.005657834	0.2105049	0	0	0	0	0	0
16.36104	-0.005657834	0.2104689	0	-0.002173037	0	-0.06576789	0	0
16.37761	-0.005657834	0.2104689	0	0	0	0.06558616	0	0
16.39417	-0.005657834	0.2104689	0	0	0	0	0	0
16.42731	-0.005657834	0.2104689	0	0	0	0	0	0
16.44387	-0.005657834	0.2104689	0	0	0	0	0	0
16.46059	-0.005657834	0.2104689	0	0	0	0	0	0
16.47701	-0.005657834	0.2104689	0	0	0	0	0	0
16.49357	-0.005684149	0.2104509	-0.001588376	-0.001086519	-0.04815905	-0.0329429	0	0
16.51014	-0.005684149	0.2104509	0	0	0.04793727	0.03279119	0	0
16.52671	-0.005684149	0.2104509	0	0	0	0	0	0
16.54328	-0.005684149	0.2104509	0	0	0	0	0	0
16.56017	-0.005684149	0.2104509	0	0	0	0	0	0
16.57641	-0.005684149	0.2104509	0	0	0	0	0	0
16.59319	-0.005684149	0.2104509	0	0	0	0	0	0
16.65423	-0.005684149	0.2104509	0	0	0	0	0	0
16.6708	-0.005684149	0.2104509	0	0	0	0	0	0
16.68775	-0.005684149	0.2104509	0	0	0	0	0	0
16.70393	-0.005684149	0.2104509	0	0	0	0	0	0
16.7205	-0.005684149	0.2104509	0	0	0	0	0	0
16.73706	-0.005684149	0.2104509	0	0	0	0	0	0
16.7538	-0.005657834	0.2104329	0.001572266	-0.001075499	0.04720921	-0.03229317	0	0
16.77406	-0.005657834	0.2104329	0	0	-0.04249949	0.02907151	0	0
16.79083	-0.005657834	0.2104329	0	0	0	0	0	0
16.80734	-0.005657834	0.2104329	0	0	0	0	0	0
16.82376	-0.005657834	0.2104329	0	0	0	0	0	0
16.84033	-0.005657834	0.2104329	0	0	0	0	0	0
16.95645	-0.005657834	0.2104329	0	0	0	0	0	0
16.97296	-0.005657834	0.2104329	0	0	0	0	0	0
16.98947	-0.005657834	0.2104329	0	0	0	0	0	0
17.006	-0.005657834	0.2104329	0	0	0	0	0	0
17.02256	-0.005657834	0.2104329	0	0	0	0	0	0
17.03913	-0.005657834	0.2104329	0	0	0	0	0	0
17.0557	-0.005657834	0.2104329	0	0	0	0	0	0
17.07253	-0.005657834	0.2104329	0	0	0	0	0	0
17.08883	-0.005684149	0.2104149	-0.001614396	-0.001104318	-0.04872538	-0.0333303	0	0
17.1054	-0.005684149	0.2104149	0	0	0.04911842	0.03359915	0	0
17.12197	-0.005657834	0.2104329	0.001588376	0.001086519	0.04793727	0.03279119	0	0
17.13853	-0.005657834	0.2104329	0	0	-0.04793727	-0.03279119	0	0
17.1551	-0.005657834	0.2104329	0	0	0	0	0	0
17.17167	-0.005657834	0.2104329	0	0	0	0	0	0
17.18861	-0.005657834	0.2104329	0	0	0	0	0	0
17.2048	-0.005657834	0.2104329	0	0	0	0	0	0
17.22136	-0.005657834	0.2104329	0	0	0	0	0	0
17.23793	-0.005657834	0.2104329	0	0	0	0	0	0
17.2545	-0.005657834	0.2104329	0	0	0	0	0	0
17.27107	-0.005657834	0.2104329	0	0	0	0	0	0
17.28763	-0.005657834	0.2104329	0	0	0	0	0	0
17.3042	-0.005657834	0.2104329	0	0	0	0	0	0
17.32077	-0.005684149	0.2104149	-0.001588376	-0.001086519	-0.04794003	-0.03279308	0	0
17.33733	-0.005684149	0.2104149	0	0	0.04793727	0.03279119	0	0
17.35423	-0.005684149	0.2104149	0	0	0	0	0	0
17.37047	-0.005657834	0.2103969	0.001621226	-0.001108989	0.04893151	-0.03347129	0	0
17.38703	-0.005657834	0.2103969	0	0	-0.04942947	0.03381193	0	0
17.4036	-0.005657834	0.2103969	0	0	0	0	0	0
17.42017	-0.005657834	0.2103969	0	0	0	0	0	0
17.43674	-0.005657834	0.2103969	0	0	0	0	0	0
17.4533	-0.005657834	0.2103969	0	0	0	0	0	0
17.46987	-0.005657834	0.2103969	0	0	0	0	0	0
17.48643	-0.005657834	0.2103969	0	0	0	0	0	0
17.503	-0.005657834	0.2103969	0	0	0	0	0	0
17.51985	-0.005657834	0.2103969	0	0	0	0	0	0
17.53636	-0.005657834	0.2103969	0	0	0	0	0	0
17.5527	-0.005657834	0.2103969	0	0	0	0	0	0
17.56927	-0.005657834	0.2103969	0	0	0	0	0	0
17.58584	-0.005657834	0.2103969	0	0	0	0	0	0
17.60241	-0.005657834	0.2103969	0	0	0	0	0	0
17.71837	-0.005657834	0.2103609	0	-0.0003104696	0	-0.002342599	0	0
17.735	-0.005657834	0.2103609	0	0	0	0.002341555	0	0
17.75573	-0.005657834	0.2103609	0	0	0	0	0	0
17.7723	-0.005657834	0.2103609	0	0	0	0	0	0
17.78904	-0.005657834	0.2103609	0	0	0	0	0	0
17.80543	-0.005657834	0.2103609	0	0	0	0	0	0
17.822	-0.005657834	0.2103609	0	0	0	0	0	0
17.83857	-0.005684149	0.2103429	-0.001588741	-0.001086769	-0.04795107	-0.03280064	0	0
17.85513	-0.005657834	0.2103249	0.001588376	-0.001086519	0.09589662	7.554726E-06	0	0
17.8717	-0.005657834	0.2103249	0	0	-0.04793727	0.03279119	0	0
17.88827	-0.005684149	0.2103069	-0.001588376	-0.001086519	-0.04793727	-0.03279119	0	0
17.90483	-0.005684149	0.2103069	0	0	0.04793727	0.03279119	0	0
17.9214	-0.005684149	0.2103069	0	0	0	0	0	0
17.93797	-0.005684149	0.2103069	0	0	0	0	0	0
17.95454	-0.005684149	0.2103069	0	0	0	0	0	0
17.97117	-0.005684149	0.2103069	0	0	0	0	0	0
17.98767	-0.005684149	0.2103069	0	0	0	0	0	0
18.00424	-0.005684149	0.2103069	0	0	0	0	0	0
18.0208	-0.005684149	0.2103069	0	0	0	0	0	0
18.03737	-0.005684149	0.2103069	0	0	0	0	0	0
18.05423	-0.005710464	0.2102889	-0.001560528	-0.00106747	-0.04668033	-0.0319314	0	0
18.0705	-0.005710464	0.2102889	0	0	0.04709955	0.03221815	0	0
18.08707	-0.005710464	0.2102889	0	0	0	0	0	0
18.10364	-0.005710464	0.2102889	0	0	0	0	0	0
18.1202	-0.005710464	0.2102889	0	0	0	0	0	0
18.13679	-0.005710464	0.2102889	0	0	0	0	0	0
18.15334	-0.005710464	0.2102889	0	0	0	0	0	0
18.1699	-0.005710464	0.2102889	0	0	0	0	0	0
18.18647	-0.005710464	0.2102889	0	0	0	0	0	0
18.20304	-0.005710464	0.2102889	0	0	0	0	0	0
18.21961	-0.005710464	0.2102889	0	0	0	0	0	0
18.23617	-0.005710464	0.2102889	0	0	0	0	0	0
18.25274	-0.005710464	0.2102889	0	0	0	0	0	0
18.26931	-0.005710464	0.2102889	0	0	0	0	0	0
18.28588	-0.005710464	0.2102889	0	0	0	0	0	0
18.30244	-0.005710464	0.2102889	0	0	0	0	0	0
18.31901	-0.005710464	0.2102889	0	0	0	0	0	0
18.33558	-0.005710464	0.2102889	0	0	0	0	0	0
18.35214	-0.005710464	0.2102889	0	0	0	0	0	0
18.36871	-0.005710464	0.2102529	0	-0.002173037	0	-0.06558616	0	0
18.45155	-0.005736779	0.2102349	-0.0003176695	-0.0002173037	-0.003195761	0.01967472	0	0
18.46811	-0.005763094	0.2102168	-0.001588376	-0.001087418	-0.01278333	-0.008753367	0	0
18.48505	-0.005763094	0.2101808	0	-0.002125563	0.04740785	-0.03098526	0	0
18.50125	-0.005789409	0.2101628	-0.001624662	-0.00111134	-0.0490324	0.03060931	0	0
18.51807	-0.005842039	0.2101268	-0.003128133	-0.00213978	-0.04552947	-0.03114415	0	0
18.53438	-0.005894668	0.2100548	-0.003227253	-0.004415205	-0.002991633	-0.06867641	0	0
18.5511	-0.005947298	0.2099828	-0.003148478	-0.004308285	0.002385412	0.003237648	0	0
18.56761	-0.006026243	0.2098928	-0.004781614	-0.005451421	-0.04915232	-0.03440484	0	0
18.58412	-0.006026243	0.2097488	0	-0.008722168	0.1448012	-0.09904775	0	0
18.60113	-0.005947298	0.2094067	0.004640616	-0.02010718	0.1384285	-0.3396122	0	0
18.61721	-0.00726303	0.2079663	-0.08181007	-0.08956209	-2.612245	-2.09869	0	0
18.63378	-0.008605051	0.2070479	-0.08100452	-0.05543403	0.02467249	1.04527	0	0
18.66691	-0.008605051	0.2069039	0	-0.004348323	1.629814	1.027847	0	0
18.68348	-0.008605051	0.2069039	0	0	0	0.08748843	0	0
18.72021	-0.008605051	0.2069399	0	0.0009808725	0	0.01840257	0	0
18.73653	-0.008578737	0.2069939	0.001612989	0.003311155	0.03040669	0.04392849	0	0
18.7531	-0.008552423	0.2070119	0.001588347	0.001087418	-0.0007494341	-0.06763031	0	0
18.76975	-0.008499796	0.207084	0.00316021	0.004325464	0.04731635	0.09747194	0	0
18.78623	-0.008473481	0.207138	0.001596804	0.003278718	-0.04718641	-0.03159267	0	0
18.8028	-0.008394539	0.207228	0.00476493	0.005434392	0.0958681	0.06523108	0	0
18.81936	-0.008394539	0.207264	0	0.002173936	-0.1438059	-0.09840073	0	0
18.83593	-0.008368226	0.2072821	0.001588291	0.001087418	0.04793473	-0.03279119	0	0
18.8525	-0.008315598	0.2073181	0.003176639	0.002173936	0.04793642	0.03279119	0	0
18.86906	-0.00826297	0.2073541	0.003176639	0.002173936	0	0	0	0
18.88584	-0.008210341	0.2073541	0.003137983	0	-0.00115949	-0.0652079	0	0
18.9022	-0.008052457	0.2073901	0.009648777	0.002201051	0.1964961	0.06642783	0	0
18.91877	-0.007631431	0.2074261	0.02541319	0.002173936	0.4787197	-0.0008233754	0	0
18.93533	-0.005842039	0.2066697	0.1080079	-0.04565446	2.492714	-1.443464	0	0
18.9519	0.006315705	0.2005441	0.7338428	-0.3697428	18.88774	-9.781005	0	0
18.96847	0.02062865	0.1931869	0.8639311	-0.4440839	3.926072	-2.243618	0	0
18.98503	0.03735104	0.1839799	1.009365	-0.555738	4.389216	-3.369729	0	0
19.0016	0.06524935	0.1735122	1.684139	-0.6319031	20.36588	-2.298797	0	0
19.01817	0.08803502	0.1682811	1.375346	-0.3157479	-9.319916	9.542132	0	0
19.03473	0.1203368	0.1650752	1.94974	-0.1935118	17.33522	3.689091	0	0
19.05145	0.1431973	0.1638793	1.367272	-0.07152279	-17.49833	3.66476	0	0
19.06797	0.1639365	0.163245	1.25601	-0.03841274	-3.348046	0.9963382	0	0
19.08443	0.182041	0.1631182	1.099375	-0.007703918	-4.749393	0.9311357	0	0
19.101	0.2025774	0.1636618	1.239576	0.03281592	4.243948	1.226563	0	0
19.11757	0.2145413	0.164586	0.7221463	0.05578122	-15.61604	0.693094	0	0
19.13414	0.2254185	0.1688605	0.6565441	0.2580131	-1.979878	6.103369	0	0
19.1507	0.2295397	0.171956	0.2487588	0.1868407	-12.30698	-2.147986	0	0
19.16727	0.2380566	0.1781424	0.5140215	0.3733704	8.005184	5.629153	0	0
19.18405	0.2445823	0.182932	0.3889685	0.2854858	-3.750145	-2.635524	0	0
19.2004	0.2526911	0.1888556	0.4958422	0.3622225	3.225827	2.316185	0	0
19.21697	0.2573483	0.1922667	0.2811079	0.2058926	-6.522748	-4.748661	0	0
19.23359	0.2611838	0.1951171	0.2308167	0.1715342	-1.515524	-1.035387	0	0
19.2501	0.2645946	0.1976598	0.206521	0.1539574	-0.7332866	-0.5305003	0	0
19.26667	0.2670201	0.1997691	0.146403	0.127316	-1.817191	-0.8052897	0	0
19.28324	0.2692468	0.2019498	0.1344009	0.1316315	-0.3622231	0.1302419	0	0
19.2998	0.2704446	0.2029049	0.07230205	0.05764575	-1.874147	-2.232896	0	0
19.31637	0.2706156	0.2031031	0.01032372	0.0119634	-1.87051	-1.378696	0	0
19.33316	0.2705424	0.2031571	-0.004366122	0.003219993	-0.4404501	-0.2621561	0	0
19.3495	0.2705424	0.2031571	0	0	0.1317774	-0.09718517	0	0
19.36607	0.2705424	0.2031571	0	0	0	0	0	0
19.38264	0.2704446	0.2032292	-0.005900299	0.004349672	-0.1780714	0.1312734	0	0
19.39921	0.2701269	0.2034634	-0.01917777	0.01413823	-0.4007149	0.2954194	0	0
19.41577	0.2699558	0.2035895	-0.01032732	0.007611926	0.2671071	-0.1969643	0	0
19.43234	0.2699313	0.2036075	-0.001475075	0.001087418	0.2671613	-0.19691	0	0
19.44891	0.2699313	0.2036075	0	0	0.04451784	-0.03281834	0	0
19.46575	0.2699313	0.2036075	0	0	0	0	0	0
19.48204	0.2699313	0.2036075	0	0	0	0	0	0
19.49861	0.2699313	0.2036075	0	0	0	0	0	0
19.56488	0.269858	0.2036616	-0.001106756	0.0008157883	-0.01336078	0.009848217	0	0
19.58144	0.269858	0.2036616	0	0	0.01336078	-0.009848217	0	0
19.59801	0.2698336	0.2036436	-0.001475075	-0.001087418	-0.04451784	-0.03281834	0	0
19.61669	0.2698091	0.2036256	-0.001309928	-0.0009644963	0.004685561	0.003487544	0	0
19.63326	0.2698091	0.2036256	0	0	0.03716541	0.02736478	0	0
19.64982	0.2698091	0.2036256	0	0	0	0	0	0
19.6664	0.2697847	0.2036075	-0.001474396	-0.001087816	-0.04448711	-0.03282281	0	0
19.68296	0.2697847	0.2036075	0	0	0.04449992	0.03283225	0	0
19.69952	0.2697602	0.2035895	-0.001475075	-0.001087418	-0.04453066	-0.03282779	0	0
19.71643	0.2697358	0.2035715	-0.00144689	-0.001065341	0.0008419005	0.0006594523	0	0
19.73266	0.2697113	0.2035535	-0.001506467	-0.00111056	-0.001798139	-0.00136479	0	0
19.74946	0.2696869	0.2035355	-0.001454644	-0.001072356	0.001569358	0.001156922	0	0
19.76597	0.269638	0.2034994	-0.002961837	-0.002182121	-0.04524498	-0.03331444	0	0
19.78248	0.2695891	0.2034634	-0.002961837	-0.002182121	0	0	0	0
19.79892	0.2692712	0.2032292	-0.01932962	-0.01424483	-0.496668	-0.3660339	0	0
19.8155	0.2686353	0.2027607	-0.03835342	-0.02825369	-0.5760627	-0.4242046	0	0
19.83206	0.2684152	0.2025985	-0.01329898	-0.009796456	0.7561443	0.5570406	0	0
19.84862	0.2684152	0.2025985	0	0	0.401549	0.2957938	0	0
19.86519	0.2683662	0.2025625	-0.002953748	-0.002174836	-0.08914941	-0.06564046	0	0
19.88205	0.2682928	0.2025084	-0.004353436	-0.003206307	-0.0418715	-0.03085631	0	0
19.89832	0.2682683	0.2024904	-0.001503531	-0.001107046	0.08601031	0.06335583	0	0
19.91489	0	0	-16.19457	-12.22375	-493.1076	-372.2011	0	0
19.9481	0.2682194	0.2024544	8.077209	6.096749	487.6568	368.0866	0	0
19.96459	0.2681949	0.2024724	-0.001483535	0.001093226	-162.5499	-122.6495	0	0
19.98116	0.2677789	0.2027067	-0.02511045	0.01413913	-0.7146662	0.3946121	0	0
19.99772	0.265967	0.2039318	-0.1093678	0.07395072	-2.542892	1.805117	0	0
20.01429	0.2626814	0.2062375	-0.1983431	0.1391875	-2.685433	1.968964	0	0
20.03086	0.2596358	0.2083985	-0.1838339	0.1304362	0.4379124	-0.2641309	0	0
20.04742	0.2500249	0.2149859	-0.5801145	0.3976181	-11.95977	8.063567	0	0
20.06399	0.2479486	0.2163172	-0.1253256	0.0803547	13.72556	-9.575029	0	0
20.08069	0.2385536	0.2223053	-0.5624858	0.3585132	-13.13982	8.360669	0	0
20.09713	0.2216901	0.2266186	-1.026269	0.2624955	-13.997	-2.89782	0	0
20.11369	0.2046723	0.2265647	-1.0272	-0.003253259	-0.0282173	-8.053226	0	0
20.13026	0.1915436	0.2266186	-0.7924462	0.003253259	7.08488	0.1963671	0	0
20.14683	0.1640646	0.2276966	-1.658641	0.06506879	-26.1418	1.865596	0	0
20.16339	0.1434036	0.2292774	-1.247099	0.09542025	12.42035	0.9160089	0	0
20.17996	0.1232407	0.2313968	-1.217035	0.1279259	0.9073365	0.9810212	0	0
20.19678	0.1041221	0.2338389	-1.136854	0.1452149	2.401752	0.5178778	0	0
20.21329	0.07389154	0.2373214	-1.830832	0.2109095	-20.82203	1.971096	0	0
20.2298	0.06249745	0.2384521	-0.6900528	0.06847601	34.54411	-4.313052	0	0
20.24631	0.04123976	0.2411078	-1.287563	0.1608539	-18.09436	2.797472	0	0
20.26283	0.0316999	0.2423815	-0.5777561	0.07714223	21.49503	-2.535033	0	0
20.27936	0.0150515	0.2445161	-1.006638	0.1290671	-12.97656	1.571074	0	0
20.29593	0.0005789473	0.2456998	-0.8735647	0.07144849	4.019639	-1.740435	0	0
20.3125	-0.008526109	0.2454846	-0.5495823	-0.01298965	9.777809	-2.548348	0	0
20.32937	-0.01636696	0.2452336	-0.4646093	-0.01487801	2.540796	-0.05646415	0	0
20.34563	-0.01933969	0.2444265	-0.1828663	-0.04964783	8.503511	-1.049416	0	0
20.3622	-0.01986581	0.244283	-0.03175627	-0.008661567	4.603706	1.248684	0	0
20.37877	-0.01986581	0.244283	0	0	0.9584062	0.2614066	0	0
20.41193	-0.01986581	0.244283	0	0	0	0	0	0
20.42846	-0.01986581	0.244283	0	0	0	0	0	0
20.44503	-0.0198395	0.244265	0.001587842	-0.001082921	0.04797363	-0.0327184	0	0
20.46389	-0.0198395	0.244265	0	0	-0.04482722	0.03057253	0	0
20.48045	-0.0198132	0.2442471	0.001587729	-0.001082021	0.04482405	-0.03054713	0	0
20.49702	-0.0198132	0.2442471	0	0	-0.04791776	0.03265547	0	0
20.51359	-0.01978689	0.2442292	0.001587842	-0.001082921	0.04792115	-0.03268262	0	0
20.53052	-0.01978689	0.2442292	0	0	-0.04740271	0.03232903	0	0
20.54672	-0.01976059	0.2442112	0.001623236	-0.001107139	0.04898937	-0.03341351	0	0
20.56329	-0.01973428	0.2441933	0.001587842	-0.001082021	-0.001080026	0.0007664242	0	0
20.58005	-0.01970797	0.2441753	0.001569233	-0.00107023	-0.0005582892	0.0003537734	0	0
20.59642	-0.01968167	0.2441574	0.001607084	-0.001096044	0.001142391	-0.0007791215	0	0
20.61308	-0.01968167	0.2441574	0	0	-0.04866717	0.0331914	0	0
20.62959	-0.01968167	0.2441574	0	0	0	0	0	0
20.64612	-0.01965536	0.2441395	0.001590659	-0.001084018	0.04813365	-0.03280259	0	0
20.66269	-0.01962906	0.2441215	0.001587842	-0.001082921	-8.511373E-05	3.314804E-05	0	0
20.67926	-0.01960275	0.2441036	0.001587842	-0.001082921	0	0	0	0
20.69582	-0.01960275	0.2441036	0	0	-0.04792115	0.03268262	0	0
20.71239	-0.01960275	0.2441036	0	0	0	0	0	0
20.72896	-0.01962906	0.2441215	-0.001587842	0.001082921	-0.04792115	0.03268262	0	0
20.74553	-0.01960275	0.2441395	0.001587842	0.001082921	0.09584231	0	0	0
20.76218	-0.01962906	0.2441574	-0.001579115	0.001076075	-0.09531558	-0.0002060445	0	0
20.77866	-0.01955014	0.2442112	0.004790436	0.003266289	0.1922445	0.0661046	0	0
20.79523	-0.01952383	0.2442292	0.001587842	0.001082921	-0.0969279	-0.06608056	0	0
20.81179	-0.01947122	0.244265	0.003175683	0.002164942	0.04792115	0.03265547	0	0
20.82836	-0.01944492	0.244283	0.001587842	0.001082921	-0.04792115	-0.03265547	0	0
20.84493	-0.01941861	0.2443368	0.001587729	0.003247863	-3.393965E-06	0.06533808	0	0
20.86176	-0.01939231	0.2443188	0.001563009	-0.001065099	-0.0007401741	-0.1291396	0	0
20.87827	-0.01939231	0.2443188	0	0	-0.04688026	0.03194616	0	0
20.89478	-0.01939231	0.2443188	0	0	0	0	0	0
20.91119	-0.01939231	0.2443188	0	0	0	0	0	0
20.9278	-0.019366	0.2443009	0.001583648	-0.001080061	0.04795193	-0.0327036	0	0
20.94433	-0.019366	0.2443009	0	0	-0.0477946	0.0325963	0	0
20.9609	-0.01931339	0.244265	0.003175683	-0.002165842	0.09596937	-0.06545189	0	0
20.97746	-0.01928708	0.2442471	0.001587842	-0.001082021	-0.04792115	0.03270976	0	0
21.0106	-0.01910294	0.2440857	0.005557446	-0.004871794	0.07986859	-0.07625039	0	0
21.02716	-0.0181559	0.2434399	0.05716342	-0.03897705	1.038314	-0.6861992	0	0
21.04373	-0.01526197	0.2414307	0.1746777	-0.1212763	3.546588	-2.483797	0	0
21.0603	-0.01218361	0.2392596	0.1858105	-0.1310469	0.3359892	-0.2948765	0	0
21.07691	-0.002842098	0.2328154	0.5622364	-0.3878564	11.34423	-7.739389	0	0
21.09343	0.007394602	0.2258279	0.6196719	-0.4229827	1.733407	-1.060113	0	0
21.11	0.009841788	0.2241566	0.1477294	-0.1008914	-14.2646	9.735304	0	0
21.12657	0.01841897	0.2182957	0.5177197	-0.3537697	11.16697	-7.632321	0	0
21.14313	0.02236469	0.2155976	0.2381642	-0.1628564	-8.437002	5.761777	0	0
21.17649	0.02602044	0.2130966	0.1095989	-0.07497909	-2.575274	1.760258	0	0
21.19283	0.02604674	0.2130786	0.001608878	-0.001101225	-2.172764	1.486426	0	0
21.20951	0.02604674	0.2130786	0	0	-0.04872432	0.03335023	0	0
21.22597	0.02609934	0.2130426	0.003195642	-0.002186486	0.09645022	-0.06599208	0	0
21.2591	0.02633601	0.2128807	0.007143394	-0.004888266	0.07960611	-0.05448118	0	0
21.27567	0.02665158	0.2126287	0.01904769	-0.01520766	0.2395241	-0.2076346	0	0
21.29223	0.02707233	0.2123048	0.02539647	-0.01955284	0.1916066	-0.1311376	0	0
21.31208	0.02712492	0.2122688	0.002650093	-0.001814032	-0.6246741	0.4871532	0	0
21.32865	0.02720381	0.2121788	0.004761726	-0.005431693	0.05799088	-0.09935029	0	0
21.34521	0.02723011	0.2121608	0.001587279	-0.001086519	-0.09580499	0.1311376	0	0
21.36212	0.02725641	0.2121428	0.001555756	-0.001064059	-0.0009418398	0.0006710424	0	0
21.37863	0.02725641	0.2121428	0	0	-0.04655883	0.03184389	0	0
21.39492	0.0272827	0.2121248	0.00161449	-0.001105223	0.04922412	-0.03369709	0	0
21.41148	0.0272827	0.2121248	0	0	-0.04914124	0.03364036	0	0
21.42805	0.027309	0.2120708	0.001587279	-0.003258656	0.04790419	-0.09834644	0	0
21.44462	0.02736159	0.2120348	0.003174447	-0.002173037	0.0479008	0.03276405	0	0
21.46119	0.02744048	0.2119808	0.004761178	-0.00325918	0.04788488	-0.03277798	0	0
21.47775	0.02746678	0.2119628	0.001587462	-0.001085744	-0.09578292	0.06559444	0	0
21.49432	0.02772973	0.2117828	0.01587212	-0.01086429	0.4311367	-0.2951339	0	0
21.51089	0.02799269	0.2116029	0.01587372	-0.01086464	4.834746E-05	-1.059709E-05	0	0
21.52745	0.02807157	0.2115488	0.004761501	-0.003259556	-0.3353868	0.229535	0	0
21.54402	0.02809787	0.2115308	0.001587167	-0.001086519	-0.0958016	0.06558239	0	0
21.56059	0.02809787	0.2115308	0	0	-0.0479008	0.03279119	0	0
21.57727	0.02809787	0.2115308	0	0	0	0	0	0
21.59372	0.02809787	0.2115308	0	0	0	0	0	0
21.6103	0.02812416	0.2115129	0.001586254	-0.001084995	0.04803361	-0.03285489	0	0
21.62685	0.02817675	0.2114769	0.003176528	-0.002174539	0.04799734	-0.03288442	0	0
21.64342	0.02833452	0.2113689	0.009523002	-0.006519111	0.1916032	-0.1311648	0	0
21.65999	0.02878152	0.2110629	0.02698117	-0.01846902	0.5268884	-0.3606489	0	0
21.67656	0.03306689	0.2081284	0.2586653	-0.1771268	6.99224	-4.788301	0	0
21.69312	0.04079315	0.2028328	0.4663577	-0.3196424	6.268171	-4.30113	0	0
21.70969	0.04452319	0.2002738	0.2251457	-0.1544628	-7.279795	4.98513	0	0
21.72626	0.05003715	0.1964877	0.3328232	-0.228526	3.249715	-2.23523	0	0
21.74282	0.05688593	0.1917795	0.4133933	-0.2841876	2.431611	-1.67987	0	0
21.75942	0.05772527	0.1912021	0.05058704	-0.03480375	-10.94133	7.52079	0	0
21.77596	0.05824982	0.1908411	0.03171306	-0.02182131	-0.5696507	0.3918334	0	0
21.79252	0.06391283	0.1869419	0.34182	-0.2353599	9.366595	-6.449805	0	0
21.80909	0.06404387	0.1868516	0.00791055	-0.005450309	-10.07799	6.939084	0	0
21.82566	0.06404387	0.1868516	0	0	-0.2387546	0.1645001	0	0
21.84222	0.06404387	0.1868516	0	0	0	0	0	0
21.85879	0.06401767	0.1868696	-0.001581658	0.001089217	-0.04773453	0.03287263	0	0
21.87552	0.06399146	0.1868877	-0.001567133	0.001079798	0.0004362886	-0.0002829017	0	0
21.892	0.06396525	0.1869057	-0.001590163	0.001095667	-0.0006934927	0.0004778347	0	0
21.90851	0.06396525	0.1869057	0	0	0.04819094	-0.0332049	0	0
21.92506	0.06393904	0.1869238	-0.001583846	0.001091624	-0.04791089	0.03302132	0	0
21.94163	0.063808	0.1870141	-0.007909639	0.005449682	-0.1910448	0.1316174	0	0
21.95819	0.06378179	0.1870321	-0.00158229	0.001090242	0.1909708	-0.1315757	0	0
21.97476	0.06375558	0.1870502	-0.001582108	0.001089217	5.495308E-06	-3.093746E-05	0	0
21.99157	0.06372937	0.1870683	-0.001558778	0.001074041	0.0006988599	-0.0004545902	0	0
22.00789	0.06372937	0.1870683	0	0	0.04704402	-0.03241464	0	0
22.02446	0.06372937	0.1870683	0	0	0	0	0	0
22.04103	0.06372937	0.1870683	0	0	0	0	0	0
22.1339	0.06378179	0.1870321	0.0005644652	-0.0003887718	0.005157856	-0.003552441	0	0
22.15046	0.06378179	0.1870321	0	0	-0.005157856	0.003552441	0	0
22.1672	0.06378179	0.1870321	0	0	0	0	0	0
22.1836	0.06378179	0.1870321	0	0	0	0	0	0
22.20022	0.06378179	0.1870321	0	0	0	0	0	0
22.23624	0.063808	0.1870141	0.0007275618	-0.0005013103	0.01381972	-0.009522172	0	0
22.25259	0.063808	0.1870141	0	0	-0.01389169	0.009571761	0	0
22.26927	0.063808	0.1870141	0	0	0	0	0	0
22.28578	0.063808	0.1870141	0	0	0	0	0	0
22.30229	0.063808	0.1870141	0	0	0	0	0	0
22.31886	0.063808	0.1870141	0	0	0	0	0	0
22.33543	0	0	-3.851459	-11.28819	-116.2373	-340.6783	0	0
22.35199	0.06383421	0.186996	3.85304	11.2871	232.5222	681.3237	0	0
22.36856	0.06383421	0.186996	0	0	-116.285	-340.6454	0	0
22.38513	0.06383421	0.186996	0	0	0	0	0	0
22.4017	0.06383421	0.186996	0	0	0	0	0	0
22.41826	0.06383421	0.186996	0	0	0	0	0	0
22.43483	0.063808	0.186978	-0.00158184	-0.001090242	-0.04774278	-0.03290546	0	0
22.4514	0.063808	0.186978	0	0	0.04774278	0.03290546	0	0
22.48453	0.063808	0.186978	0	0	0	0	0	0
22.50109	0.063808	0.186978	0	0	0	0	0	0
22.51766	0.063808	0.186978	0	0	0	0	0	0
22.53423	0	0	-3.851459	-11.28601	-116.2373	-340.6125	0	0
22.5508	0.063808	0.186978	3.851459	11.28601	232.4745	681.2251	0	0
22.56736	0.063808	0.186978	0	0	-116.2373	-340.6125	0	0
22.58393	0.06383421	0.1869599	0.00158184	-0.001090242	0.04774278	-0.03290546	0	0
22.60051	0.06383421	0.1869599	0	0	-0.04772629	0.0328941	0	0
22.61706	0.06383421	0.1869599	0	0	0	0	0	0
22.63363	0.06383421	0.1869599	0	0	0	0	0	0
22.65019	0.06383421	0.1869599	0	0	0	0	0	0
22.66676	0.06383421	0.1869599	0	0	0	0	0	0
22.68356	0.06383421	0.1869599	0	0	0	0	0	0
22.71124	0.06383421	0.1869599	0	0	0	0	0	0
22.72781	0.06383421	0.1869599	0	0	0	0	0	0
22.7446	0.06383421	0.1869599	0	0	0	0	0	0
22.76094	0.06383421	0.1869599	0	0	0	0	0	0
22.77763	0.06383421	0.1869599	0	0	0	0	0	0
22.79408	0.063808	0.186978	-0.001592844	0.001097826	-0.0480749	0.03313436	0	0
22.81065	0.063808	0.186978	0	0	0.04823596	-0.03324537	0	0
22.82721	0.063808	0.186978	0	0	0	0	0	0
22.84378	0.063808	0.186978	0	0	0	0	0	0
22.86034	0.063808	0.186978	0	0	0	0	0	0
22.87691	0.063808	0.186978	0	0	0	0	0	0
22.89348	0.063808	0.186978	0	0	0	0	0	0
22.95975	0.063808	0.1869419	0	-0.0005447549	0	-0.006575537	0	0
23.02601	0.063808	0.1869419	0	0	0	0.004110302	0	0
23.04258	0.063808	0.1869419	0	0	0	0	0	0
23.05914	0.063808	0.1869419	0	0	0	0	0	0
23.07571	0.063808	0.1869419	0	0	0	0	0	0
23.09235	0.063808	0.1869419	0	0	0	0	0	0
23.10885	0.063808	0.1869419	0	0	0	0	0	0
23.12914	0.063808	0.1869419	0	0	0	0	0	0
23.14589	0.063808	0.1869419	0	0	0	0	0	0
23.1624	0.063808	0.1869419	0	0	0	0	0	0
23.17884	0.063808	0.1869419	0	0	0	0	0	0
23.19541	0.063808	0.1869419	0	0	0	0	0	0
23.21198	0.063808	0.1869419	0	0	0	0	0	0
23.22854	0.063808	0.1869419	0	0	0	0	0	0
23.24511	0.063808	0.1869419	0	0	0	0	0	0
23.26168	0.063808	0.1869419	0	0	0	0	0	0
23.27848	0.063808	0.1869419	0	0	0	0	0	0
23.29481	0.063808	0.1869419	0	0	0	0	0	0
23.31138	0.063808	0.1869419	0	0	0	0	0	0
23.32802	0.063808	0.1869419	0	0	0	0	0	0
23.34451	0.063808	0.1869419	0	0	0	0	0	0
23.36108	0.06378179	0.1869238	-0.001582108	-0.001090116	-0.0478583	-0.0329757	0	0
23.37764	0.06378179	0.1869238	0	0	0.04774811	0.03289977	0	0
23.39421	0.06378179	0.1869238	0	0	0	0	0	0
23.42735	0.06378179	0.1869238	0	0	0	0	0	0
23.44391	0.06378179	0.1869238	0	0	0	0	0	0
23.46062	0.06378179	0.1869238	0	0	0	0	0	0
23.47705	0.06378179	0.1869238	0	0	0	0	0	0
23.49361	0.06378179	0.1869238	0	0	0	0	0	0
23.51018	0.06378179	0.1869238	0	0	0	0	0	0
23.52675	0.06378179	0.1869238	0	0	0	0	0	0
23.54332	0.06378179	0.1869238	0	0	0	0	0	0
23.55988	0.06378179	0.1869238	0	0	0	0	0	0
23.57645	0.06378179	0.1869238	0	0	0	0	0	0
23.59302	0.06378179	0.1869238	0	0	0	0	0	0
23.60973	0.06378179	0.1869238	0	0	0	0	0	0
23.62624	0.06378179	0.1869238	0	0	0	0	0	0
23.64275	0.06378179	0.1869238	0	0	0	0	0	0
23.65928	0.06378179	0.1869238	0	0	0	0	0	0
23.67585	0.06378179	0.1869238	0	0	0	0	0	0
23.69242	0.06378179	0.1869238	0	0	0	0	0	0
23.70899	0.06378179	0.1869238	0	0	0	0	0	0
23.72581	0.06378179	0.1869238	0	0	0	0	0	0
23.74232	0.06378179	0.1869238	0	0	0	0	0	0
23.82495	0.06378179	0.1869238	0	0	0	0	0	0
23.84152	0.06378179	0.1869238	0	0	0	0	0	0
23.85809	0.06378179	0.1869238	0	0	0	0	0	0
23.87466	0.06378179	0.1869238	0	0	0	0	0	0
23.89122	0.06378179	0.1869238	0	0	0	0	0	0
23.90794	0.06378179	0.1869238	0	0	0	0	0	0
23.92446	0.06378179	0.1869238	0	0	0	0	0	0
23.94096	0.06378179	0.1869238	0	0	0	0	0	0
23.95749	0.06378179	0.1869238	0	0	0	0	0	0
23.97406	0.06378179	0.1869238	0	0	0	0	0	0
23.991	0.06378179	0.1869238	0	0	0	0	0	0
24.00719	0.06378179	0.1869238	0	0	0	0	0	0
24.02376	0.06378179	0.1869238	0	0	0	0	0	0
24.04054	0.06378179	0.1869238	0	0	0	0	0	0
24.06042	0.06378179	0.1869238	0	0	0	0	0	0
24.07706	0.06378179	0.1869238	0	0	0	0	0	0
24.09357	0.06378179	0.1869238	0	0	0	0	0	0
24.11012	0.06378179	0.1869238	0	0	0	0	0	0
24.12668	0.06378179	0.1869238	0	0	0	0	0	0
24.14325	0.06378179	0.1869238	0	0	0	0	0	0
24.16012	0.06378179	0.1869238	0	0	0	0	0	0
24.17638	0.06378179	0.1869238	0	0	0	0	0	0
24.19295	0.06378179	0.1869238	0	0	0	0	0	0
24.20965	0.06378179	0.1869238	0	0	0	0	0	0
24.22608	0.06378179	0.1869238	0	0	0	0	0	0
24.24265	0.06378179	0.1869238	0	0	0	0	0	0
24.25922	0.06378179	0.1869238	0	0	0	0	0	0
24.27578	0.06378179	0.1869238	0	0	0	0	0	0
24.30923	0.06378179	0.1869238	0	0	0	0	0	0
24.32549	0.06378179	0.1869238	0	0	0	0	0	0
24.34205	0.06378179	0.1869238	0	0	0	0	0	0
24.35862	0.06378179	0.1869238	0	0	0	0	0	0
24.37519	0.06378179	0.1869238	0	0	0	0	0	0
24.39175	0.06378179	0.1869238	0	0	0	0	0	0
24.40832	0.06378179	0.1869238	0	0	0	0	0	0
24.42489	0.06378179	0.1869238	0	0	0	0	0	0
24.44146	0.06378179	0.1869238	0	0	0	0	0	0
24.45802	0.06378179	0.1869238	0	0	0	0	0	0
24.47459	0.06378179	0.1869238	0	0	0	0	0	0
24.49116	0.06378179	0.1869238	0	0	0	0	0	0
24.50787	0.06378179	0.1869238	0	0	0	0	0	0
24.52429	0.06378179	0.1869238	0	0	0	0	0	0
24.55742	0.06378179	0.1869238	0	0	0	0	0	0
24.57399	0.06378179	0.1869238	0	0	0	0	0	0
24.59056	0.06378179	0.1869238	0	0	0	0	0	0
24.60712	0.06378179	0.1869238	0	0	0	0	0	0
24.62369	0.06378179	0.1869238	0	0	0	0	0	0
24.64047	0.06378179	0.1869238	0	0	0	0	0	0
24.65683	0.06378179	0.1869238	0	0	0	0	0	0
24.67339	0.06378179	0.1869238	0	0	0	0	0	0
24.69	0.06378179	0.1869238	0	0	0	0	0	0
24.70655	0.06375558	0.1869057	-0.001583931	-0.001091373	-0.04776465	-0.03291117	0	0
24.72309	0.06375558	0.1869057	0	0	0.04786927	0.03298327	0	0
24.73966	0.06375558	0.1869057	0	0	0	0	0	0
24.78936	0.06375558	0.1869057	0	0	0	0	0	0
24.80608	0.06375558	0.1869057	0	0	0	0	0	0
24.8226	0.06375558	0.1869057	0	0	0	0	0	0
24.83911	0.06375558	0.1869057	0	0	0	0	0	0
24.85562	0.06375558	0.1869057	0	0	0	0	0	0
24.87263	0.06375558	0.1869057	0	0	0	0	0	0
24.88876	0.06375558	0.1869057	0	0	0	0	0	0
24.90895	0.06375558	0.1869057	0	0	0	0	0	0
24.92552	0.06375558	0.1869057	0	0	0	0	0	0
24.94209	0.06375558	0.1869057	0	0	0	0	0	0
24.95919	0.06375558	0.1869057	0	0	0	0	0	0
24.97522	0.06375558	0.1869057	0	0	0	0	0	0
24.99179	0.06375558	0.1869057	0	0	0	0	0	0
25.00835	0.06375558	0.1869057	0	0	0	0	0	0
25.02492	0.06375558	0.1869057	0	0	0	0	0	0
25.04149	0.06375558	0.1869057	0	0	0	0	0	0
25.05806	0.06375558	0.1869057	0	0	0	0	0	0
25.07462	0.06375558	0.1869057	0	0	0	0	0	0
25.09119	0.06375558	0.1869057	0	0	0	0	0	0
25.1083	0.06375558	0.1869057	0	0	0	0	0	0
25.12432	0.06375558	0.1869057	0	0	0	0	0	0
25.14089	0.06375558	0.1869057	0	0	0	0	0	0
25.15746	0.06375558	0.1869057	0	0	0	0	0	0
25.17402	0.06375558	0.1869057	0	0	0	0	0	0
25.1906	0.06375558	0.1869057	0	0	0	0	0	0
25.20716	0.06375558	0.1869057	0	0	0	0	0	0
25.22372	0.06375558	0.1869057	0	0	0	0	0	0
25.24039	0.06375558	0.1869057	0	0	0	0	0	0
25.25686	0.06375558	0.1869057	0	0	0	0	0	0
25.27342	0.06375558	0.1869057	0	0	0	0	0	0
25.28999	0.06375558	0.1869057	0	0	0	0	0	0
25.30656	0.06375558	0.1869057	0	0	0	0	0	0
25.32312	0.06375558	0.1869057	0	0	0	0	0	0
25.33969	0.06375558	0.1869057	0	0	0	0	0	0
25.35626	0.06375558	0.1869057	0	0	0	0	0	0
25.37299	0.06375558	0.1869057	0	0	0	0	0	0
25.3895	0.06375558	0.1869057	0	0	0	0	0	0
25.40596	0.06378179	0.1868877	0.001592928	-0.001097572	0.04831663	-0.0332915	0	0
25.42253	0.06378179	0.1868877	0	0	-0.04823849	0.03323766	0	0
25.43909	0.06375558	0.1869057	-0.001582108	0.001090116	-0.04774811	0.03289977	0	0
25.45566	0.06375558	0.1869057	0	0	0.04774811	-0.03289977	0	0
25.47256	0.06375558	0.1869057	0	0	0	0	0	0
25.48879	0.06375558	0.1869057	0	0	0	0	0	0
25.50558	0.06375558	0.1869057	0	0	0	0	0	0
25.52193	0.06375558	0.1869057	0	0	0	0	0	0
25.53861	0.06375558	0.1869057	0	0	0	0	0	0
25.55506	0.06375558	0.1869057	0	0	0	0	0	0
25.57163	0.06375558	0.1869057	0	0	0	0	0	0
25.58819	0.06378179	0.1868877	0.001582472	-0.001090367	0.04776185	-0.03290924	0	0
25.68771	0.06378179	0.1868877	0	0	-0.01363223	0.009392986	0	0
25.70416	0.06378179	0.1868877	0	0	0	0	0	0
25.72073	0.06378179	0.1868877	0	0	0	0	0	0
25.73729	0.06378179	0.1868877	0	0	0	0	0	0
25.75386	0.06378179	0.1868877	0	0	0	0	0	0
25.77077	0.06378179	0.1868877	0	0	0	0	0	0
25.79062	0.06378179	0.1868877	0	0	0	0	0	0
25.80718	0.06378179	0.1868516	0	-0.002179333	0	-0.05985637	0	0
25.82381	0.06378179	0.1868516	0	0	0	0.0656477	0	0
25.84032	0.06378179	0.1868516	0	0	0	0	0	0
25.85688	0.06378179	0.1868516	0	0	0	0	0	0
25.87385	0.06378179	0.1868516	0	0	0	0	0	0
25.89036	0.06378179	0.1868516	0	0	0	0	0	0
25.90658	0.06378179	0.1868516	0	0	0	0	0	0
25.92338	0.06378179	0.1868516	0	0	0	0	0	0
25.93972	0.06378179	0.1868516	0	0	0	0	0	0
25.95628	0.06378179	0.1868516	0	0	0	0	0	0
25.97292	0.06378179	0.1868516	0	0	0	0	0	0
25.98943	0.06378179	0.1868516	0	0	0	0	0	0
26.00598	0.06378179	0.1868516	0	0	0	0	0	0
26.02255	0.06378179	0.1868516	0	0	0	0	0	0
26.03911	0.06378179	0.1868516	0	0	0	0	0	0
26.05597	0.06378179	0.1868516	0	0	0	0	0	0
26.07225	0.06378179	0.1868516	0	0	0	0	0	0
26.08899	0.06378179	0.1868516	0	0	0	0	0	0
26.10551	0.06372937	0.1868516	-0.003174815	0	-0.09545893	0	0	0
26.13853	0.06375558	0.1868335	0.0007937038	-0.000546884	0.08011423	-0.01104019	0	0
26.17305	0.06372937	0.1867793	-0.0007592369	-0.001569406	-0.02299057	-0.01513797	0	0
26.18958	0.06370316	0.1867974	-0.001585491	0.001092758	-0.01618514	0.05214798	0	0
26.20615	0.06370316	0.1867613	0	-0.002179982	0.04790537	-0.09888534	0	0
26.22272	0.06370316	0.1867613	0	0	0	0.06579198	0	0
26.23928	0.06367695	0.1867432	-0.001582108	-0.001089217	-0.04775086	-0.03287452	0	0
26.25611	0.06367695	0.1867432	0	0	0.04737179	0.03261355	0	0
26.27242	0.06365074	0.1867252	-0.001607838	-0.001107845	-0.04852743	-0.03343675	0	0
26.28914	0.06365074	0.1867252	0	0	0.04868719	0.03354683	0	0
26.30565	0.06365074	0.1867252	0	0	0	0	0	0
26.32216	0.06365074	0.1867252	0	0	0	0	0	0
26.33868	0.06365074	0.1867252	0	0	0	0	0	0
26.35525	0.06365074	0.1867252	0	0	0	0	0	0
26.37182	0.06365074	0.1867252	0	0	0	0	0	0
26.38871	0.06365074	0.1867252	0	0	0	0	0	0
26.40522	0.06365074	0.1867252	0	0	0	0	0	0
26.42151	0.06365074	0.1867252	0	0	0	0	0	0
26.47126	0.06351969	0.1866349	-0.00263427	-0.001814889	-0.03988668	-0.02748006	0	0
26.50435	0.0618421	0.1854791	-0.05070592	-0.03493466	-0.5803488	-0.399841	0	0
26.52091	0.05827605	0.1830585	-0.2152472	-0.1461071	-3.313883	-2.239027	0	0
26.53748	0.04893459	0.1766235	-0.5638517	-0.3884187	-10.5209	-7.312979	0	0
26.55405	0.03995241	0.1704356	-0.5421651	-0.3735006	0.6545015	0.450227	0	0
26.57062	0.03356634	0.1660353	-0.3854643	-0.2656016	4.729241	3.256399	0	0
26.58718	0.02573116	0.1606348	-0.4729322	-0.3259754	-2.639787	-1.822083	0	0
26.60386	0.02070757	0.1572072	-0.3012479	-0.2055439	5.164495	3.622742	0	0
26.62032	0.0181559	0.1554472	-0.1550543	-0.1069438	4.412386	2.975929	0	0
26.63688	0.0158934	0.1538864	-0.1365648	-0.09420961	0.5598829	0.3856054	0	0
26.65345	0.01399909	0.1525794	-0.1143409	-0.07889222	0.6707197	0.4622799	0	0
26.67002	0.01392015	0.1525249	-0.004764368	-0.003288337	3.307026	2.28173	0	0
26.68658	0.01392015	0.1525249	0	0	0.1437889	0.09924223	0	0
26.72321	0.01392015	0.1525612	0	0.0009914113	0	0.01863697	0	0
26.75635	0.01386753	0.1526339	-0.001588031	0.002191799	-0.02276255	0.01720614	0	0
26.77291	0.01386753	0.1526339	0	0	0.03195125	-0.04409909	0	0
26.78949	0.01386753	0.1526702	0	0.002189513	0	0.06606063	0	0
26.80605	0.01389384	0.1526883	0.00158922	0.00109717	0.04796277	-0.03296698	0	0
26.82262	0.01386753	0.1528154	-0.001588123	0.007670389	-0.09592554	0.1984487	0	0
26.83918	0.01384122	0.1529788	-0.001588123	0.009862314	0	0.06615242	0	0
26.85575	0.01392015	0.1535053	0.004764368	0.03177617	0.1917185	0.6613615	0	0
26.87232	0.01352549	0.1546124	-0.02382464	0.06683758	-0.8628676	1.058216	0	0
26.88908	0.01163105	0.1571164	-0.1129826	0.1493369	-2.674779	2.475016	0	0
26.90545	0.008947129	0.1620126	-0.1640035	0.2991814	-1.539902	4.522579	0	0
26.92209	0.005736779	0.1657092	-0.1929331	0.2221592	-0.8765278	-2.333669	0	0
26.9386	0.004973643	0.1709786	-0.04621195	0.3190898	4.425505	2.923688	0	0
26.95515	0.006105187	0.1722636	0.06838676	0.0776612	3.466378	-7.302725	0	0
26.97171	0.006578852	0.1723722	0.02859377	0.006554944	-1.201785	-2.147475	0	0
26.98863	0.006605167	0.1723179	0.001555223	-0.003209193	-0.8074725	-0.2915937	0	0
27.00485	0.006684111	0.1722274	0.004869342	-0.005580883	0.100026	-0.07158186	0	0
27.02141	0.006657796	0.1722093	-0.001588347	-0.001091915	-0.1970027	0.1369435	0	0
27.03817	0.006657796	0.1722093	0	0	0.04766479	0.03276733	0	0
27.05468	0.006631482	0.1721912	-0.001593668	-0.001096475	-0.04790398	-0.03295889	0	0
27.0712	0.006605167	0.1721731	-0.001593512	-0.001095446	4.719958E-06	3.115736E-05	0	0
27.08768	0.006605167	0.1721731	0	0	0.04828966	0.03319631	0	0
27.15395	0.006578852	0.172155	-0.0003970869	-0.0002732037	-0.004798393	-0.00330139	0	0
27.17052	0.006578852	0.172155	0	0	0.004793642	0.003298121	0	0
27.18728	0.006605167	0.1721369	0.001569912	-0.001079242	0.04710347	-0.03238145	0	0
27.20365	0.006973571	0.1718836	0.02250115	-0.01547483	0.6317061	-0.4344597	0	0
27.2203	0.007868258	0.171232	0.05374355	-0.03913859	0.9461654	-0.7166488	0	0
27.23678	0.01470947	0.1664882	0.4149905	-0.2877654	10.90308	-7.504004	0	0
27.25335	0.0241006	0.1599095	0.5668498	-0.3970866	4.594495	-3.307507	0	0
27.26992	0.03979477	0.148602	0.9473022	-0.6825216	11.48208	-8.614448	0	0
27.28649	0.052793	0.1390558	0.784575	-0.5762119	-4.911116	3.208433	0	0
27.30336	0.06131777	0.1321539	0.505192	-0.4090166	-8.354369	4.999629	0	0
27.31962	0.07666524	0.1175552	0.9439808	-0.897927	13.24343	-14.75619	0	0
27.35289	0.1046167	0.09724557	0.8399974	-0.6103463	-2.09924	5.805741	0	0
27.36932	0.1135359	0.08539206	0.5430586	-0.7217113	-5.974649	-2.240755	0	0
27.38592	0.11538	0.07568317	0.1110896	-0.584885	-13.08052	4.14326	0	0
27.40245	0.1152502	0.0667652	-0.007853509	-0.5394073	-3.589916	1.3726	0	0
27.41902	0.1143931	0.05930942	-0.05172971	-0.4500321	-1.32556	2.700147	0	0
27.43559	0.1108074	0.05193241	-0.2164349	-0.445277	-4.970811	0.1435086	0	0
27.45215	0.1070367	0.04686422	-0.2275995	-0.3059168	-0.3369512	4.205898	0	0
27.46872	0.1053454	0.04435549	-0.1020878	-0.151427	3.787953	4.662512	0	0
27.48529	0.101362	0.04080327	-0.2404417	-0.2144125	-4.175529	-1.900905	0	0
27.50185	0.08341128	0.02775556	-1.083505	-0.7875616	-25.44369	-17.29768	0	0
27.54818	0.08192151	0.0267284	-0.03216002	-0.0221734	16.71693	12.17007	0	0
27.56505	0.07671756	0.02285992	-0.3084648	-0.2293045	-4.372307	-3.277688	0	0
27.58131	0.07164034	0.019268	-0.3121757	-0.2208516	-0.1119942	0.2551101	0	0
27.59807	0.06514453	0.01451054	-0.3876253	-0.2838924	-2.284834	-1.909059	0	0
27.61444	0.06331001	0.01316079	-0.1120345	-0.08242984	8.317824	6.080501	0	0
27.63101	0.05961349	0.01051599	-0.2231224	-0.1596403	-3.372244	-2.343844	0	0
27.64758	0.05575794	0.007794035	-0.2327486	-0.1643164	-0.2905372	-0.1411341	0	0
27.6843	0.04749058	0.001910918	-0.2251207	-0.1601978	0.1431408	0.07728892	0	0
27.70087	0.04460198	-0.000234375	-0.1743563	-0.1294901	0.9525834	0.5762222	0	0
27.71744	0.0440767	-0.0006108844	-0.03170624	-0.02272615	4.305188	3.222143	0	0
27.73417	0.04405043	-0.0005920579	-0.001569714	0.00112523	0.9050418	0.7162901	0	0
27.75057	0.0440767	-0.0006108844	0.001601108	-0.001147734	0.09569561	-0.06859819	0	0
27.76714	0.0440767	-0.0006108844	0	0	-0.04856195	0.03481102	0	0
27.7837	0.04410296	-0.000629711	0.001585481	-0.001136374	0.0478499	-0.03429583	0	0
27.80027	0.04410296	-0.000629711	0	0	-0.0478499	0.03429583	0	0
27.81684	0.04418176	-0.0006861914	0.004755992	-0.003409164	0.1435361	-0.1028888	0	0
27.83374	0.04428681	-0.0007615001	0.006216713	-0.004456372	0.04364748	-0.0312914	0	0
27.84997	0.04483835	-0.001156899	0.03397111	-0.02435417	0.8376294	-0.6005169	0	0
27.86654	0.04707047	-0.002757803	0.1347467	-0.09664191	3.072364	-2.203849	0	0
27.88327	0.05071962	-0.005377424	0.2180541	-0.1565348	2.501694	-1.798563	0	0
27.91624	0.06745016	-0.0174284	0.5074994	-0.3655508	5.82365	-4.205412	0	0
27.93281	0.07135235	-0.02024934	0.2355366	-0.1702725	-5.490443	3.942321	0	0
27.94937	0.07797317	-0.02504506	0.3996798	-0.2895034	4.954134	-3.598601	0	0
27.96594	0.08262724	-0.02842354	0.2809522	-0.2039489	-3.583616	2.582338	0	0
27.98251	0.08542319	-0.0304562	0.1687638	-0.1226915	-3.386048	2.452494	0	0
27.99907	0.08680761	-0.03146353	0.08356389	-0.06080254	-2.57134	1.867812	0	0
28.01564	0.08683372	-0.03148253	0.001576261	-0.001147231	-2.474391	1.800401	0	0
28.03238	0.08683372	-0.03148253	0	0	-0.04732648	0.03444503	0	0
28.04889	0.08683372	-0.03148253	0	0	0	0	0	0
28.06534	0.08683372	-0.03148253	0	0	0	0	0	0
28.08191	0.08688596	-0.03152055	0.003152973	-0.002294911	0.09549773	-0.06950861	0	0
28.09847	0.08691208	-0.03153956	0.001576711	-0.001147455	-0.04757167	0.03463027	0	0
28.11504	0.08693819	-0.03155857	0.001576261	-0.001147455	-1.357235E-05	0	0	0
28.13161	0.08693819	-0.03155857	0	0	-0.04757166	0.03463027	0	0
28.18131	0.08693819	-0.03155857	0	0	0	0	0	0
28.198	0.08693819	-0.03155857	0	0	0	0	0	0
28.21445	0.08693819	-0.03155857	0	0	0	0	0	0
28.23103	0.08693819	-0.03155857	0	0	0	0	0	0
28.24758	0.08693819	-0.03155857	0	0	0	0	0	0
28.26414	0.08693819	-0.03155857	0	0	0	0	0	0
28.28071	0.08693819	-0.03155857	0	0	0	0	0	0
28.29728	0.08693819	-0.03155857	0	0	0	0	0	0
28.31384	0.08693819	-0.03155857	0	0	0	0	0	0
28.33041	0.08693819	-0.03155857	0	0	0	0	0	0
28.34698	0.08693819	-0.03155857	0	0	0	0	0	0
28.36362	0.08693819	-0.03155857	0	0	0	0	0	0
28.38013	0.08693819	-0.03155857	0	0	0	0	0	0
28.39668	0.08693819	-0.03155857	0	0	0	0	0	0
28.41325	0.08693819	-0.03155857	0	0	0	0	0	0
28.42981	0.08693819	-0.03155857	0	0	0	0	0	0
28.44638	0.08693819	-0.03155857	0	0	0	0	0	0
28.46295	0.08693819	-0.03155857	0	0	0	0	0	0
28.4797	0.08693819	-0.03155857	0	0	0	0	0	0
28.49608	0.08693819	-0.03155857	0	0	0	0	0	0
28.51265	0.08693819	-0.03155857	0	0	0	0	0	0
28.52924	0.08693819	-0.03155857	0	0	0	0	0	0
28.56621	0.08693819	-0.03155857	0	0	0	0	0	0
28.58278	0.08693819	-0.03155857	0	0	0	0	0	0
28.59934	0.08693819	-0.03155857	0	0	0	0	0	0
28.61591	0.08693819	-0.03155857	0	0	0	0	0	0
28.63247	0.08693819	-0.03155857	0	0	0	0	0	0
28.64904	0.08693819	-0.03155857	0	0	0	0	0	0
28.66584	0.08693819	-0.03155857	0	0	0	0	0	0
28.68218	0.08693819	-0.03155857	0	0	0	0	0	0
28.69874	0.08693819	-0.03155857	0	0	0	0	0	0
28.71531	0.08693819	-0.03155857	0	0	0	0	0	0
28.73188	0.08693819	-0.03155857	0	0	0	0	0	0
28.74845	0.08693819	-0.03155857	0	0	0	0	0	0
28.76501	0.08693819	-0.03155857	0	0	0	0	0	0
28.78158	0.08693819	-0.03155857	0	0	0	0	0	0
28.79815	0.08693819	-0.03155857	0	0	0	0	0	0
28.81495	0.08693819	-0.03155857	0	0	0	0	0	0
28.83128	0.08693819	-0.03155857	0	0	0	0	0	0
28.84785	0.08693819	-0.03155857	0	0	0	0	0	0
28.86441	0.08693819	-0.03155857	0	0	0	0	0	0
28.881	0.08693819	-0.03155857	0	0	0	0	0	0
28.89755	0.08693819	-0.03155857	0	0	0	0	0	0
28.91411	0.08693819	-0.03155857	0	0	0	0	0	0
28.93103	0.08693819	-0.03155857	0	0	0	0	0	0
28.94725	0.08693819	-0.03155857	0	0	0	0	0	0
28.98057	0.08693819	-0.03155857	0	0	0	0	0	0
28.99695	0.08693819	-0.03155857	0	0	0	0	0	0
29.01359	0.08693819	-0.03155857	0	0	0	0	0	0
29.03008	0.08693819	-0.03155857	0	0	0	0	0	0
29.04665	0.08693819	-0.03155857	0	0	0	0	0	0
29.06321	0.08693819	-0.03155857	0	0	0	0	0	0
29.07978	0.08693819	-0.03155857	0	0	0	0	0	0
29.09635	0.08693819	-0.03155857	0	0	0	0	0	0
29.14605	0.08691208	-0.03153956	-0.0005254608	0.0003825145	-0.007929676	0.005772487	0	0
29.16261	0.08691208	-0.03153956	0	0	0.007929676	-0.005772487	0	0
29.17921	0.08683372	-0.03144452	-0.004722073	0.00572782	-0.1423977	0.1727267	0	0
29.19575	0.08675537	-0.03131145	-0.004736322	0.008043776	-0.0004300321	0.06989168	0	0
29.21232	0.08638971	-0.03077926	-0.02207171	0.0321229	-0.5235747	0.7272537	0	0
29.22924	0.08466554	-0.02933522	-0.1018548	0.08530656	-2.381943	1.587811	0	0
29.24545	0.08377713	-0.02861345	-0.05482359	0.04454038	1.419485	-1.230397	0	0
29.26202	0.07841781	-0.02430532	-0.3234893	0.2600393	-8.19801	6.575689	0	0
29.27858	0.07305397	-0.01977585	-0.3237619	0.2733991	-0.008225341	0.4031991	0	0
29.29515	0.06731918	-0.01377813	-0.3461528	0.3620233	-0.6757615	2.674684	0	0
29.31172	0.06144886	-0.007018106	-0.354374	0.4080829	-0.24813	1.390164	0	0
29.32828	0.05237311	0.0005185162	-0.5478129	0.4549114	-5.838332	1.413368	0	0
29.34485	0.04581003	0.005220256	-0.3961484	0.2837976	4.577242	-5.164225	0	0
29.36142	0.03953202	0.00978409	-0.3789413	0.2754736	0.5193118	-0.2512196	0	0
29.37799	0.0316999	0.01567241	-0.4727478	0.3554197	-2.831084	2.412778	0	0
29.39455	0.02662528	0.02160691	-0.3063398	0.3582481	5.022491	0.08536767	0	0
29.41112	0.02807157	0.02783025	0.08729801	0.3756419	11.8807	0.5249743	0	0
29.42768	0.03080604	0.03439704	0.1650529	0.3963719	2.346647	0.625635	0	0
29.44425	0.0343549	0.04052416	0.2142095	0.3698339	1.483551	-0.8009207	0	0
29.46082	0.04126604	0.04571227	0.417157	0.313155	6.124966	-1.710571	0	0
29.47739	0.04475956	0.04818296	0.2108696	0.1491314	-6.225766	-4.950243	0	0
29.49821	0.05108709	0.0526559	0.3039347	0.2148518	2.489307	1.75789	0	0
29.51495	0.05281925	0.05387995	0.1034576	0.07310957	-5.337316	-3.773612	0	0
29.53134	0.05649246	0.05647517	0.2240889	0.1583245	3.640662	2.571791	0	0
29.54791	0.05848585	0.05792034	0.1203216	0.08723044	-3.148378	-2.157046	0	0
29.56449	0.0584334	0.05795738	-0.003163829	0.002234679	-3.725511	-2.564291	0	0
29.58104	0.05840718	0.05797591	-0.001584101	0.001118772	0.04767627	-0.03367814	0	0
29.59761	0.05840718	0.05797591	0	0	0.04782755	-0.03377821	0	0
29.61452	0.05838095	0.05799443	-0.001550694	0.001095398	-0.04632008	0.03272014	0	0
29.63074	0.05809246	0.05834637	-0.01778412	0.02169519	-0.4899257	0.621703	0	0
29.64731	0.05670231	0.05980937	-0.08391894	0.08831701	-2.017085	2.031938	0	0
29.66406	0.05281925	0.06746753	-0.2318201	0.4571941	-4.439387	11.07218	0	0
29.68044	0.05008965	0.07381992	-0.1666004	0.3877165	1.968333	-2.096838	0	0
29.69701	0.04672911	0.07643931	-0.2028655	0.1581246	-1.100627	-6.968002	0	0
29.71357	0.04076688	0.08062327	-0.3598814	0.2525445	-4.739022	2.849761	0	0
29.73014	0.03674661	0.08344099	-0.2426638	0.1700779	3.537635	-2.488846	0	0
29.76363	0.02962291	0.08842736	-0.2127161	0.1488949	0.5982766	-0.4231824	0	0
29.77984	0.02765085	0.08980636	-0.1216388	0.08505744	1.83248	-1.284412	0	0
29.79641	0.02512629	0.09157085	-0.1523825	0.1065049	-0.9378901	0.654291	0	0
29.81298	0.02228578	0.09355506	-0.1714533	0.1197671	-0.5755562	0.4002535	0	0
29.82954	0.02175972	0.09395915	-0.03175312	0.0243909	4.216159	-2.878459	0	0
29.84619	0.02162821	0.09416117	-0.007901014	0.01213681	0.7181631	-0.3689584	0	0
29.8627	0.02139147	0.09458356	-0.01433875	0.02558422	-0.1941683	0.4055868	0	0
29.87924	0.02028669	0.1027666	-0.0667771	0.4946117	-1.586428	14.18958	0	0
29.89581	0.02004994	0.1080247	-0.01429001	0.3173817	1.585158	-5.352509	0	0
29.91238	0.01952383	0.118816	-0.03175604	0.6513638	-0.5271258	10.0796	0	0
29.92895	0.01962906	0.1257174	0.006351254	0.4165683	1.150081	-7.086141	0	0
29.94551	0.02028669	0.133903	0.0396948	0.4940844	1.00631	2.33944	0	0
29.96227	0.02144408	0.1391832	0.06906506	0.3150849	0.881323	-5.371297	0	0
29.97878	0.02144408	0.1444946	0	0.3216725	-2.075903	0.1980048	0	0
30.01181	0.02078648	0.1495648	-0.01991178	0.1535234	-0.4019524	-3.394369	0	0
30.06148	0.01799806	0.1567899	-0.05613333	0.1454465	-0.4379835	-0.09766481	0	0
30.07805	0.01799806	0.1567899	0	0	0.8473951	-2.195676	0	0
30.09462	0.01802436	0.1567717	0.001587954	-0.001095513	0.04792455	-0.03306264	0	0
30.11138	0.01805067	0.1567536	0.001569055	-0.001081662	-0.0005669816	0.0004155217	0	0
30.12775	0.01802436	0.1567355	-0.001607271	-0.001108918	-0.09586722	-0.0008226236	0	0
30.14432	0.01802436	0.1567355	0	0	0.04880251	0.03367072	0	0
30.16088	0.01799806	0.1567536	-0.001587954	0.001095513	-0.04792455	0.03306264	0	0
30.17745	0.01799806	0.1567536	0	0	0.04792455	-0.03306264	0	0
30.19402	0.01797175	0.1567717	-0.001587954	0.001094613	-0.04792455	0.0330355	0	0
30.21059	0.01797175	0.156808	0	0.002190126	0.04792455	0.03306264	0	0
30.22715	0.01794544	0.1568262	-0.001587842	0.001095513	-0.04792115	-0.0330355	0	0
30.24398	0.01797175	0.156808	0.001563009	-0.00107838	0.09434342	-0.06509115	0	0
30.26029	0.01797175	0.156808	0	0	-0.04717171	0.03254557	0	0
30.27685	0.01799806	0.1567899	0.001588137	-0.00109474	0.04831666	-0.0333058	0	0
30.29342	0.01797175	0.1567717	-0.001587954	-0.001095513	-0.09586013	-2.3341E-05	0	0
30.31003	0.01799806	0.1567536	0.001584306	-0.001092099	0.09562891	0.0001029161	0	0
30.32655	0.01802436	0.1567355	0.001591802	-0.001098168	0.0002262528	-0.0001831757	0	0
30.34312	0.01810328	0.156681	0.004763637	-0.00328474	0.09584202	-0.06607074	0	0
30.36329	0.01818221	0.1565903	0.003913917	-0.004498912	-0.02313314	-0.03305514	0	0
30.38007	0.01820851	0.1565722	0.001566916	-0.001080188	-0.0635132	0.09251554	0	0
30.39642	0.01820851	0.1565359	0	-0.002219771	-0.04728961	-0.03439269	0	0
30.4131	0.01826113	0.1564996	0.00315473	-0.002176492	0.09552889	0.001310525	0	0
30.44612	0.01831374	0.1563908	0.001593217	-0.003296195	-0.03141771	-0.02252845	0	0
30.46269	0.01834005	0.1563363	0.001587954	-0.003285639	-0.0001061307	0.0002128484	0	0
30.47926	0.01839266	0.1561186	0.003175796	-0.01314166	0.04792115	-0.2974552	0	0
30.49582	0.01836636	0.1560642	-0.001588137	-0.003286018	-0.143784	0.2974609	0	0
30.51239	0.01831374	0.1559916	-0.003175796	-0.004381152	-0.04791839	-0.03305313	0	0
30.52896	0.01820851	0.155919	-0.006351591	-0.004380253	-0.0958457	2.715172E-05	0	0
30.54569	0.01818221	0.1559009	-0.001571558	-0.001084278	0.1435181	0.09896002	0	0
30.56221	0.01818221	0.1558646	0	-0.002197209	0.04726104	-0.03346888	0	0
30.57866	0.0181559	0.1558464	-0.00159937	-0.001103389	-0.04852046	0.03318348	0	0
30.59523	0.0181559	0.1558464	0	0	0.04843358	0.03341382	0	0
30.61179	0.01807698	0.1558283	-0.004765283	-0.001095891	-0.1438165	-0.03307407	0	0
30.62836	0.01805067	0.1558101	-0.001587954	-0.001095513	0.09590855	1.142411E-05	0	0
30.64493	0.01802436	0.155792	-0.001587842	-0.001094613	3.390452E-06	2.714469E-05	0	0
30.66149	0.01799806	0.1557738	-0.001587954	-0.001095513	-3.390452E-06	-2.714469E-05	0	0
30.67829	0.01794544	0.1557376	-0.003131808	-0.002159791	-0.04626866	-0.03189597	0	0
30.69463	0.01791913	0.1557194	-0.001610764	-0.001111249	0.04590784	0.03164688	0	0
30.71131	0.01789283	0.1557013	-0.001576519	-0.001087624	0.001037072	0.0007154638	0	0
30.72776	0.01786652	0.1556831	-0.001599628	-0.001103645	-0.0006974543	-0.0004835238	0	0
30.74433	0.01784021	0.155665	-0.001587954	-0.001094613	0.0003536216	0.0002735721	0	0
30.76089	0.01784021	0.155665	0	0	0.04792455	0.0330355	0	0
30.77786	0.01784021	0.155665	0	0	0	0	0	0
30.79403	0.01784021	0.155665	0	0	0	0	0	0
30.87693	0.0178139	0.1556468	-0.0003173205	-0.0002189161	-0.003202944	-0.002209678	0	0
30.89343	0.0177876	0.1556287	-0.001594819	-0.001100327	-0.0128519	-0.008867178	0	0
30.91	0.01776129	0.1556105	-0.001587954	-0.001094613	0.0002076301	0.0001728027	0	0
30.92656	0.01776129	0.1555742	0	-0.002191026	0.04792455	-0.03308979	0	0
30.94313	0.01768237	0.1555198	-0.00476375	-0.003285639	-0.1437703	-0.0330355	0	0
30.9597	0.01765606	0.1555017	-0.001588137	-0.001095639	0.09584571	0.06609814	0	0
30.97626	0.01760344	0.1554654	-0.003175908	-0.002191026	-0.04792178	-0.03306074	0	0
30.99283	0.01757714	0.1554109	-0.001587842	-0.003285639	0.04792794	-0.0330355	0	0
31.0094	0.01752452	0.1553746	-0.003175908	-0.002190126	-0.04792794	0.03306264	0	0
31.02604	0.01747191	0.155302	-0.003160988	-0.004361465	0.0004492409	-0.06537683	0	0
31.04255	0.0174456	0.1552839	-0.001593273	-0.00109828	0.04728104	0.09841511	0	0
31.1088	0.0174456	0.1552476	0	-0.0005479614	0.01925265	0.006649893	0	0
31.12537	0.0174456	0.1552476	0	0	0	0.006616984	0	0
31.14193	0.01741929	0.1552295	-0.001587954	-0.001095513	-0.04792455	-0.03306264	0	0
31.15864	0.0174456	0.1552113	0.001574899	-0.001086507	0.09506112	0.0002706869	0	0
31.17515	0.0174456	0.1552113	0	0	-0.0474132	0.03270987	0	0
31.19164	0.0174456	0.1552113	0	0	0	0	0	0
31.2082	0.01747191	0.1551932	0.001588137	-0.001095639	0.04805177	-0.03315042	0	0
31.22477	0.0174456	0.155175	-0.001587771	-0.001094487	-0.0958491	3.475476E-05	0	0
31.24133	0.0174456	0.155175	0	0	0.04791903	0.0330317	0	0
31.2579	0.0174456	0.155175	0	0	0	0	0	0
31.27447	0.0174456	0.155175	0	0	0	0	0	0
31.29124	0.01741929	0.1551569	-0.001568452	-0.001082059	-0.04704352	-0.03245483	0	0
31.30774	0.01741929	0.1551569	0	0	0.0471352	0.03251808	0	0
31.327	0.0174456	0.1551387	0.001365911	-0.0009423277	0.03819364	-0.02634939	0	0
31.34357	0.01741929	0.1551206	-0.001587954	-0.001095513	-0.08244655	-0.004275616	0	0
31.36028	0.01739298	0.1551387	-0.001574428	0.001086259	0.0004064754	0.0655667	0	0
31.3767	0.01739298	0.1551387	0	0	0.04751908	-0.03278524	0	0
31.39327	0.01739298	0.1551387	0	0	0	0	0	0
31.40984	0.01739298	0.1551387	0	0	0	0	0	0
31.4264	0.01739298	0.1551387	0	0	0	0	0	0
31.44297	0.01739298	0.1551387	0	0	0	0	0	0
31.45985	0.01739298	0.1551387	0	0	0	0	0	0
31.47636	0.01741929	0.1551206	0.001593345	-0.00109931	0.04771915	-0.03292328	0	0
31.49287	0.01741929	0.1551206	0	0	-0.04825111	0.0332903	0	0
31.50924	0.01741929	0.1551206	0	0	0	0	0	0
31.5259	0.0174456	0.1551024	0.001579046	-0.001089367	0.04781535	-0.03298731	0	0
31.54237	0.01747191	0.155048	0.001597148	-0.003304662	0.0005463369	-0.06686157	0	0
31.5693	0.01747191	0.155048	0	0	-0.03680242	0.07614797	0	0
31.58586	0.01747191	0.1550117	0	-0.002191026	0	-0.0503762	0	0
31.60243	0.01747191	0.1549754	0	-0.002191026	0	0	0	0
31.619	0.0174456	0.154921	-0.001587954	-0.003285639	-0.04792455	-0.0330355	0	0
31.63556	0.01739298	0.1548847	-0.003175796	-0.002191026	-0.04792115	0.0330355	0	0
31.7184	0.01420957	0.1526157	-0.03843114	-0.02739151	-0.3546762	-0.2535222	0	0
31.73497	0.01420957	0.1526157	0	0	0.3866254	0.2755644	0	0
31.75156	0.01420957	0.1526157	0	0	0	0	0	0
31.7681	0.01418326	0.1526339	-0.001590447	0.001098056	-0.04799978	0.03313939	0	0
31.78467	0.01418326	0.1526339	0	0	0.04803573	-0.03316421	0	0
31.80123	0.01418326	0.1526339	0	0	0	0	0	0
31.8178	0.01418326	0.1526339	0	0	0	0	0	0
31.83437	0.01418326	0.1526339	0	0	0	0	0	0
31.85093	0.01418326	0.1526339	0	0	0	0	0	0
31.86764	0.01418326	0.1526339	0	0	0	0	0	0
31.88415	0.01418326	0.1526339	0	0	0	0	0	0
31.90067	0.01418326	0.1526339	0	0	0	0	0	0
31.9172	0.01418326	0.1526339	0	0	0	0	0	0
31.93377	0.01418326	0.1526339	0	0	0	0	0	0
31.95034	0.01418326	0.1526339	0	0	0	0	0	0
31.9669	0.01418326	0.1526339	0	0	0	0	0	0
31.98347	0.01418326	0.1526339	0	0	0	0	0	0
32.00004	0.01418326	0.1526339	0	0	0	0	0	0
32.01675	0.01418326	0.1526339	0	0	0	0	0	0
32.03326	0.01418326	0.1526339	0	0	0	0	0	0
32.04977	0.01418326	0.1526339	0	0	0	0	0	0
32.06631	0.01418326	0.1526339	0	0	0	0	0	0
32.0833	0.01420957	0.152652	0.001548142	0.001067971	0.04617546	0.03185371	0	0
32.09944	0.01420957	0.152652	0	0	-0.04672302	-0.03223144	0	0
32.11601	0.01420957	0.152652	0	0	0	0	0	0
32.13284	0.01420957	0.152652	0	0	0	0	0	0
32.14914	0.01420957	0.152652	0	0	0	0	0	0
32.16571	0.01420957	0.152652	0	0	0	0	0	0
32.18227	0.01420957	0.152652	0	0	0	0	0	0
32.19884	0.01420957	0.152652	0	0	0	0	0	0
32.21959	0.01418326	0.1526702	-0.001268292	0.0008749195	-0.03399194	0.02344902	0	0
32.23641	0.01418326	0.1526702	0	0	0.03376068	-0.02328949	0	0
32.25272	0.01418326	0.1526702	0	0	0	0	0	0
32.26929	0.01418326	0.1526702	0	0	0	0	0	0
32.28585	0.01418326	0.1526702	0	0	0	0	0	0
32.30242	0.01418326	0.1526702	0	0	0	0	0	0
32.31899	0.01418326	0.1526702	0	0	0	0	0	0
32.33556	0.01418326	0.1526702	0	0	0	0	0	0
32.35212	0.01418326	0.1526702	0	0	0	0	0	0
32.36869	0.01418326	0.1526702	0	0	0	0	0	0
32.38526	0.01418326	0.1526702	0	0	0	0	0	0
32.40203	0.01418326	0.1526702	0	0	0	0	0	0
32.41839	0.01418326	0.1526702	0	0	0	0	0	0
32.43496	0.01418326	0.1526702	0	0	0	0	0	0
32.45157	0.01418326	0.1526702	0	0	0	0	0	0
32.5178	0.01418326	0.1526702	0	0	0	0	0	0
32.53436	0.01418326	0.1526702	0	0	0	0	0	0
32.55114	0.01418326	0.1526702	0	0	0	0	0	0
32.56765	0.01418326	0.1526702	0	0	0	0	0	0
32.58406	0.01418326	0.1526702	0	0	0	0	0	0
32.60063	0.01418326	0.1526702	0	0	0	0	0	0
32.6172	0.01418326	0.1526702	0	0	0	0	0	0
32.63376	0.01418326	0.1526702	0	0	0	0	0	0
32.65033	0.01418326	0.1526702	0	0	0	0	0	0
32.6669	0.01420957	0.152652	0.001588066	-0.001095513	0.04792794	-0.03306264	0	0
32.68346	0.01420957	0.152652	0	0	-0.04792794	0.03306264	0	0
32.70003	0.01420957	0.152652	0	0	0	0	0	0
32.7166	0.01420957	0.152652	0	0	0	0	0	0
32.73317	0.01420957	0.152652	0	0	0	0	0	0
32.74978	0.01420957	0.152652	0	0	0	0	0	0
32.7663	0.01420957	0.152652	0	0	0	0	0	0
32.78286	0.01420957	0.152652	0	0	0	0	0	0
32.79943	0.01420957	0.152652	0	0	0	0	0	0
32.816	0.01420957	0.152652	0	0	0	0	0	0
32.83257	0.01420957	0.152652	0	0	0	0	0	0
32.84935	0.01420957	0.152652	0	0	0	0	0	0
32.86586	0.01420957	0.152652	0	0	0	0	0	0
32.88226	0.01418326	0.1526702	-0.00160432	0.001106725	-0.04874961	0.03362947	0	0
32.9154	0.01418326	0.1526702	0	0	0.03238837	-0.02234281	0	0
32.93196	0.01418326	0.1526702	0	0	0	0	0	0
32.94853	0.01418326	0.1526702	0	0	0	0	0	0
33.00484	0.01420957	0.152652	0.0004672429	-0.0003223232	0.006411481	-0.0044229	0	0
33.0214	0.01420957	0.152652	0	0	-0.006411481	0.0044229	0	0
33.03798	0.01420957	0.152652	0	0	0	0	0	0
33.05454	0.01420957	0.152652	0	0	0	0	0	0
33.07111	0.01420957	0.152652	0	0	0	0	0	0
33.08852	0.01420957	0.152652	0	0	0	0	0	0
33.10736	0.01420957	0.152652	0	0	0	0	0	0
33.12392	0.01420957	0.152652	0	0	0	0	0	0
33.14056	0.01420957	0.152652	0	0	0	0	0	0
33.15707	0.01420957	0.152652	0	0	0	0	0	0
33.23989	0.01420957	0.152652	0	0	0	0	0	0
33.25645	0.01420957	0.152652	0	0	0	0	0	0
33.27302	0.01420957	0.152652	0	0	0	0	0	0
33.28959	0.01420957	0.152652	0	0	0	0	0	0
33.30615	0.01420957	0.152652	0	0	0	0	0	0
33.32272	0.01420957	0.152652	0	0	0	0	0	0
33.33929	0.01420957	0.152652	0	0	0	0	0	0
33.35585	0.01420957	0.152652	0	0	0	0	0	0
33.37242	0.01420957	0.152652	0	0	0	0	0	0
33.38899	0.01420957	0.152652	0	0	0	0	0	0
33.40556	0.01420957	0.152652	0	0	0	0	0	0
33.42212	0.01420957	0.152652	0	0	0	0	0	0
33.45528	0.01420957	0.152652	0	0	0	0	0	0
33.47182	0.01420957	0.152652	0	0	0	0	0	0
33.4888	0.01420957	0.152652	0	0	0	0	0	0
33.50496	0.01420957	0.152652	0	0	0	0	0	0
33.52153	0.01420957	0.152652	0	0	0	0	0	0
33.53809	0.01420957	0.152652	0	0	0	0	0	0
33.55466	0.01420957	0.152652	0	0	0	0	0	0
33.57123	0.01420957	0.152652	0	0	0	0	0	0
33.58837	0.01420957	0.152652	0	0	0	0	0	0
33.60438	0.01420957	0.152652	0	0	0	0	0	0
33.62092	0.01420957	0.152652	0	0	0	0	0	0
33.63749	0.01420957	0.152652	0	0	0	0	0	0
33.65406	0.01420957	0.152652	0	0	0	0	0	0
33.67062	0.01420957	0.152652	0	0	0	0	0	0
33.68719	0.01420957	0.152652	0	0	0	0	0	0
33.70376	0.01420957	0.152652	0	0	0	0	0	0
33.72046	0.01420957	0.152652	0	0	0	0	0	0
33.73697	0.01420957	0.152652	0	0	0	0	0	0
33.75346	0.01420957	0.152652	0	0	0	0	0	0
33.77002	0.01420957	0.152652	0	0	0	0	0	0
33.78659	0.01420957	0.152652	0	0	0	0	0	0
33.80315	0.01420957	0.152652	0	0	0	0	0	0
33.81972	0.01420957	0.152652	0	0	0	0	0	0
33.83654	0.01420957	0.152652	0	0	0	0	0	0
33.85305	0.01420957	0.152652	0	0	0	0	0	0
33.86942	0.01420957	0.152652	0	0	0	0	0	0
33.88599	0.01420957	0.152652	0	0	0	0	0	0
33.90255	0.01420957	0.152652	0	0	0	0	0	0
33.91961	0.01420957	0.152652	0	0	0	0	0	0
33.93569	0.01420957	0.152652	0	0	0	0	0	0
34.00216	0.01420957	0.152652	0	0	0	0	0	0
34.01852	0.01420957	0.152652	0	0	0	0	0	0
34.03519	0.01420957	0.152652	0	0	0	0	0	0
34.0517	0.01420957	0.152652	0	0	0	0	0	0
34.06823	0.01420957	0.152652	0	0	0	0	0	0
34.08803	0.01420957	0.152652	0	0	0	0	0	0
34.1046	0.01420957	0.152652	0	0	0	0	0	0
34.12125	0.01420957	0.152652	0	0	0	0	0	0
34.13776	0.01420957	0.152652	0	0	0	0	0	0
34.1543	0.01420957	0.152652	0	0	0	0	0	0
34.17086	0.01420957	0.152652	0	0	0	0	0	0
34.18743	0.01420957	0.152652	0	0	0	0	0	0
34.204	0.01420957	0.152652	0	0	0	0	0	0
34.22083	0.01420957	0.152652	0	0	0	0	0	0
34.23735	0.01420957	0.152652	0	0	0	0	0	0
34.2537	0.01420957	0.152652	0	0	0	0	0	0
34.3034	0.01420957	0.152652	0	0	0	0	0	0
34.31997	0.01420957	0.152652	0	0	0	0	0	0
34.33653	0.01420957	0.152652	0	0	0	0	0	0
34.3531	0.01423588	0.1526339	0.001588123	-0.001095513	0.04792964	-0.03306264	0	0
34.36967	0.01423588	0.1526339	0	0	-0.04792964	0.03306264	0	0
34.38623	0.01423588	0.1526339	0	0	0	0	0	0
34.4028	0.01423588	0.1526339	0	0	0	0	0	0
34.41997	0.01423588	0.1526339	0	0	0	0	0	0
34.43598	0.01423588	0.1526339	0	0	0	0	0	0
34.4525	0.01423588	0.1526339	0	0	0	0	0	0
34.46907	0.01423588	0.1526339	0	0	0	0	0	0
34.48563	0.01423588	0.1526339	0	0	0	0	0	0
34.5022	0.01423588	0.1526339	0	0	0	0	0	0
34.51877	0.01423588	0.1526339	0	0	0	0	0	0
34.53534	0.01423588	0.1526339	0	0	0	0	0	0
34.56847	0.01423588	0.1526339	0	0	0	0	0	0
34.58509	0.01423588	0.1526339	0	0	0	0	0	0
34.6016	0.01423588	0.1526339	0	0	0	0	0	0
34.63474	0.01423588	0.1526339	0	0	0	0	0	0
34.65163	0.01423588	0.1526339	0	0	0	0	0	0
34.66814	0.01423588	0.1526339	0	0	0	0	0	0
34.68466	0.01423588	0.1526339	0	0	0	0	0	0
34.701	0.01423588	0.1526339	0	0	0	0	0	0
34.71757	0.01423588	0.1526339	0	0	0	0	0	0
34.73414	0.01423588	0.1526339	0	0	0	0	0	0
34.75071	0.01423588	0.1526339	0	0	0	0	0	0
34.76727	0.01423588	0.1526339	0	0	0	0	0	0
34.78384	0.01423588	0.1526339	0	0	0	0	0	0
34.80074	0.01423588	0.1526339	0	0	0	0	0	0
34.81697	0.01423588	0.1526339	0	0	0	0	0	0
34.83354	0.01423588	0.1526339	0	0	0	0	0	0
34.85011	0.01423588	0.1526339	0	0	0	0	0	0
34.86679	0.01423588	0.1526339	0	0	0	0	0	0
34.8833	0.01423588	0.1526339	0	0	0	0	0	0
34.8998	0.01423588	0.1526339	0	0	0	0	0	0
34.91637	0.01423588	0.1526339	0	0	0	0	0	0
34.93294	0.01423588	0.1526339	0	0	0	0	0	0
34.9495	0.01423588	0.1526339	0	0	0	0	0	0
34.96607	0.01423588	0.1526339	0	0	0	0	0	0
34.98264	0.01423588	0.1526339	0	0	0	0	0	0
34.99921	0.01423588	0.1526339	0	0	0	0	0	0
35.01864	0.01420957	0.1526157	-0.001353988	-0.0009347701	-0.03761152	-0.02596634	0	0
35.03521	0.01420957	0.1526157	0	0	0.03761152	0.02596634	0	0
35.05177	0.01423588	0.1525976	0.001588123	-0.001095513	0.04792964	-0.03306264	0	0
35.06834	0.01423588	0.1525976	0	0	-0.04792964	0.03306264	0	0
35.08494	0.01423588	0.1525976	0	0	0	0	0	0
35.18431	0.01513042	0.1519439	0.009002237	-0.006577748	0.07762516	-0.05671909	0	0
35.21745	0.02186494	0.1472938	0.203248	-0.1403412	1.465967	-1.009509	0	0
35.23405	0.02623083	0.1442764	0.2629202	-0.1817102	1.199688	-0.8317065	0	0
35.25058	0.0296755	0.1418941	0.2084007	-0.1441292	-1.645404	1.134197	0	0
35.26715	0.03246228	0.1399657	0.1682104	-0.1164005	-1.214344	0.8378177	0	0
35.28371	0.03587933	0.1374905	0.2062539	-0.1494044	1.148157	-0.9960596	0	0
35.3006	0.03974222	0.1347045	0.2287402	-0.1649722	0.6721369	-0.4653377	0	0
35.31685	0.04704421	0.1290917	0.4494419	-0.3454725	6.660789	-5.447508	0	0
35.33363	0.05276676	0.1245313	0.3410943	-0.2718197	-3.280889	2.230292	0	0
35.35014	0.0558891	0.1184871	0.1890744	-0.3660072	-4.566417	-2.829232	0	0
35.36655	0.05289797	0.105717	-0.1822656	-0.7781537	-11.27848	-12.51787	0	0
35.38312	0.04951213	0.09462029	-0.2043698	-0.6697982	-0.6702714	3.285685	0	0
35.39968	0.04649279	0.086772	-0.182248	-0.4737239	0.6676387	5.917534	0	0
35.41625	0.03813939	0.06796647	-0.5042121	-1.135104	-9.716896	-19.9605	0	0
35.43282	0.03277773	0.05690137	-0.3236305	-0.667891	5.449963	14.10053	0	0
35.44939	0.02815046	0.04576802	-0.2793028	-0.6720101	1.337812	-0.1243164	0	0
35.46622	0.02373238	0.03449023	-0.2623858	-0.6697792	0.5064181	0.06678408	0	0
35.48252	0.01986581	0.02416857	-0.2372659	-0.6333708	0.7581183	1.098808	0	0
35.49909	0.01444636	0.01143533	-0.3271182	-0.7685798	-2.734097	-4.114248	0	0
35.51566	0.01207836	0.002117847	-0.142933	-0.5624046	5.558722	6.22238	0	0
35.53227	0.01063118	-0.01079292	-0.08709134	-0.7769696	1.682786	-6.465905	0	0
35.54879	0.01018386	-0.01958648	-0.02708134	-0.532374	1.811105	7.381907	0	0
35.56536	0.01081537	-0.02717041	0.03811798	-0.4577672	1.970669	2.255013	0	0
35.58192	0.01294664	-0.03623858	0.1286441	-0.5473559	2.732085	-2.703791	0	0
35.59849	0.01494626	-0.04248987	0.1206968	-0.3773284	-0.2398519	5.131439	0	0
35.61533	0.02047082	-0.04684299	0.3280255	-0.2584697	6.205752	3.557674	0	0
35.63162	0.02357458	-0.04909843	0.1905459	-0.1384663	-4.14962	3.622127	0	0
35.64819	0.02575746	-0.05068593	0.1317589	-0.0958214	-1.789231	1.297933	0	0
35.66487	0.029991	-0.05376774	0.2538423	-0.1847847	3.672222	-2.675985	0	0
35.68132	0.03185764	-0.05512784	0.1134277	-0.08264743	-4.23772	3.08251	0	0
35.69789	0.0357742	-0.05802257	0.2364044	-0.1747264	3.723876	-2.788259	0	0
35.7149	0.03700941	-0.05892417	0.07261758	-0.05300507	-4.877951	3.625145	0	0
35.73102	0.03695685	-0.0588858	-0.003260369	0.0023804	-2.290265	1.671729	0	0
35.74792	0.03695685	-0.0588858	0	0	0.09872776	-0.07208128	0	0
35.76415	0.03695685	-0.0588858	0	0	0	0	0	0
35.78072	0.03693057	-0.05886661	-0.00158638	0.001158024	-0.04837269	0.03531104	0	0
35.79729	0.03687801	-0.05882824	-0.003172535	0.002316047	-0.04787026	0.03494922	0	0
35.83048	0.03677289	-0.0587515	-0.003166702	0.002311789	0.0001172231	-8.557555E-05	0	0
35.847	0.03669405	-0.05869395	-0.00477408	0.003485081	-0.03233555	0.02360305	0	0
35.86356	0.03666777	-0.05867476	-0.001587111	0.001158557	0.09636042	-0.07034419	0	0
35.88273	0.03656265	-0.05859803	-0.005482818	0.00400243	-0.1090249	0.07958835	0	0
35.8993	0.03653637	-0.05857884	-0.00158638	0.001158024	0.1090221	-0.07958629	0	0
35.91604	0.03651008	-0.05855966	-0.001569396	0.001145403	0.0005098214	-0.0003788366	0	0
35.93243	0.03651008	-0.05855966	0	0	0.04736447	-0.03456834	0	0
35.94907	0.03645752	-0.05852129	-0.003159441	0.002306264	-0.09567153	0.06983635	0	0
35.96556	0.03643124	-0.05850211	-0.001592982	0.001162843	0.0472758	-0.0345085	0	0
35.98213	0.03637868	-0.05846374	-0.003172535	0.002315823	-0.04776999	0.03486925	0	0
35.9987	0.03632612	-0.05842538	-0.00317276	0.002315598	-6.78793E-06	-6.78793E-06	0	0
36.01527	0.03624728	-0.05836783	-0.004758915	0.003473621	-0.04787026	0.03494922	0	0
36.03183	0.03611587	-0.05831028	-0.007931675	0.003473621	-0.09575407	0	0	0
36.0484	0.03598446	-0.0582911	-0.0079319	0.001157799	-6.801984E-06	-0.06989166	0	0
36.06497	0.03572164	-0.05836783	-0.0158638	-0.00463142	-0.2393852	-0.174719	0	0
36.08154	0.03551138	-0.05848293	-0.01269126	-0.006947243	0.09574731	-0.06989166	0	0
36.0981	0.02951774	-0.0622837	-0.3617769	-0.2294151	-10.53543	-6.714092	0	0
36.11469	0.02612563	-0.0643782	-0.2045125	-0.1262791	4.743521	3.110859	0	0
36.13124	0.01794544	-0.06955387	-0.4943265	-0.3127638	-8.746604	-5.62812	0	0
36.1478	0.009578655	-0.07325387	-0.5050203	-0.2233326	-0.3229269	2.700594	0	0
36.16473	0.003894717	-0.07433396	-0.3358904	-0.06382747	5.050277	4.76288	0	0
36.18093	-0.001157894	-0.07151888	-0.3117232	0.1736774	0.7294536	7.168735	0	0
36.19775	-0.005999928	-0.06797515	-0.2880214	0.2107939	0.7178014	1.124062	0	0
36.21426	-0.01144687	-0.06399377	-0.3299174	0.2411491	-1.257333	0.9109827	0	0
36.23077	-0.01818221	-0.05907766	-0.4078606	0.2976968	-2.360211	1.71233	0	0
36.2472	-0.02018147	-0.05761982	-0.1216844	0.08873115	8.686821	-6.34311	0	0
36.26377	-0.02320636	-0.05541527	-0.1825827	0.133067	-1.845563	1.343629	0	0
36.28033	-0.02404799	-0.05480212	-0.05080126	0.03700931	3.977171	-2.899028	0	0
36.2969	-0.0241269	-0.05474465	-0.004762513	0.003469349	1.389452	-1.012238	0	0
36.31383	-0.0241269	-0.05474465	0	0	0.1421779	-0.1035724	0	0
36.33034	-0.0241532	-0.05472549	-0.001593006	0.001160232	-0.04763827	0.03469631	0	0
36.36337	-0.0241532	-0.05472549	0	0	0.03215996	-0.02342302	0	0
36.37988	-0.0241532	-0.05472549	0	0	0	0	0	0
36.3964	-0.0241532	-0.05472549	0	0	0	0	0	0
36.41287	-0.0241532	-0.05472549	0	0	0	0	0	0
36.42944	-0.0241532	-0.05472549	0	0	0	0	0	0
36.446	-0.0241532	-0.05472549	0	0	0	0	0	0
36.46257	-0.0241532	-0.05472549	0	0	0	0	0	0
36.47914	-0.0241532	-0.05472549	0	0	0	0	0	0
36.4957	-0.0241532	-0.05472549	0	0	0	0	0	0
36.51227	-0.0241532	-0.05472549	0	0	0	0	0	0
36.52898	-0.0241532	-0.05472549	0	0	0	0	0	0
36.5455	-0.0241532	-0.05472549	0	0	0	0	0	0
36.56197	-0.0241532	-0.05472549	0	0	0	0	0	0
36.57854	-0.0241532	-0.05472549	0	0	0	0	0	0
36.59511	-0.0241532	-0.05472549	0	0	0	0	0	0
36.61168	-0.0241532	-0.05472549	0	0	0	0	0	0
36.62824	-0.0241532	-0.05472549	0	0	0	0	0	0
36.64507	-0.0241532	-0.05472549	0	0	0	0	0	0
36.66158	-0.0241532	-0.05472549	0	0	0	0	0	0
36.67794	-0.0241532	-0.05472549	0	0	0	0	0	0
36.69451	-0.0241532	-0.05472549	0	0	0	0	0	0
36.71112	-0.0241532	-0.05472549	0	0	0	0	0	0
36.73008	-0.0241532	-0.05472549	0	0	0	0	0	0
36.74664	-0.0241532	-0.05472549	0	0	0	0	0	0
36.76366	-0.0241269	-0.05474465	0.001545859	-0.001125893	0.04603404	-0.03352791	0	0
36.77978	-0.0241269	-0.05474465	0	0	-0.04665412	0.03397953	0	0
36.79634	-0.0241269	-0.05474465	0	0	0	0	0	0
36.81291	-0.0241269	-0.05474465	0	0	0	0	0	0
36.82948	-0.0241006	-0.05476381	0.001587504	-0.00115645	0.04791097	-0.03490172	0	0
36.84605	-0.0241006	-0.05476381	0	0	-0.04791097	0.03490172	0	0
36.86273	-0.0241006	-0.05476381	0	0	0	0	0	0
36.87918	-0.0241006	-0.05476381	0	0	0	0	0	0
36.89575	-0.0241006	-0.05476381	0	0	0	0	0	0
36.91277	-0.0241006	-0.05476381	0	0	0	0	0	0
36.92888	-0.0241006	-0.05476381	0	0	0	0	0	0
36.94545	-0.0241006	-0.05476381	0	0	0	0	0	0
36.96201	-0.0241006	-0.05476381	0	0	0	0	0	0
36.97858	-0.0240743	-0.05478296	0.001587504	-0.00115645	0.04791097	-0.03490172	0	0
36.99532	-0.0240743	-0.05478296	0	0	-0.04765858	0.03471786	0	0
37.01183	-0.0241269	-0.05474465	-0.003186013	0.002320915	-0.0958121	0.06979626	0	0
37.02835	-0.0242321	-0.05466802	-0.006370553	0.004640307	-0.09643158	0.07023387	0	0
37.04486	-0.02557337	-0.05361453	-0.08123994	0.06380893	-2.267132	1.791694	0	0
37.06141	-0.03083233	-0.04928965	-0.3176509	0.2612307	-7.149714	5.970574	0	0
37.07798	-0.04095078	-0.04018224	-0.6107507	0.5497242	-8.848825	8.709758	0	0
37.09455	-0.05691216	-0.02318656	-0.9634308	1.025862	-10.64391	14.36985	0	0
37.11111	-0.06946699	-0.002343377	-0.7578114	1.258097	6.205606	7.008883	0	0
37.12768	-0.07344659	0.01475419	-0.2402092	1.032011	15.62127	-6.823279	0	0
37.14425	-0.0731325	0.035981	0.01895876	1.281253	7.821704	7.522119	0	0
37.16082	-0.07095961	0.04916708	0.1311562	0.7959135	3.386125	-14.64757	0	0
37.17745	-0.06959794	0.05280429	0.08185121	0.2186362	-1.48495	-17.38623	0	0
37.19397	-0.05987571	0.06656188	0.5887325	0.8330951	15.29067	18.53587	0	0
37.21051	-0.05150703	0.07230657	0.5057166	0.3471497	-2.510918	-14.69801	0	0
37.22708	-0.04428681	0.07741655	0.4358133	0.308439	-2.1109	-1.168964	0	0
37.24365	-0.03595818	0.08325688	0.5027174	0.3525231	2.01917	1.330459	0	0
37.26022	-0.0303328	0.0871951	0.3395486	0.2377115	-4.924445	-3.465022	0	0
37.27678	-0.02389019	0.09173623	0.3889661	0.2741662	1.491593	1.100333	0	0
37.29353	-0.02081278	0.09392241	0.1836804	0.1304858	-6.161486	-4.312451	0	0
37.31004	-0.01528828	0.09774108	0.3346153	0.2312946	4.537463	3.030552	0	0
37.32655	-0.007710373	0.1030232	0.4589888	0.3199357	3.766609	2.684465	0	0
37.34306	-0.0009999997	0.1076951	0.4064428	0.2829734	-1.591337	-1.119389	0	0
37.36007	0.003447355	0.1108255	0.2614594	0.1840322	-4.325314	-2.95173	0	0
37.37617	0.009262893	0.1150144	0.3611724	0.2601506	3.011425	2.298846	0	0
37.39274	0.01420957	0.1184871	0.298582	0.2096176	-1.915892	-1.546816	0	0
37.40931	0.01999733	0.1225417	0.3493502	0.2447365	1.532187	1.059891	0	0
37.42588	0.02278553	0.1245131	0.1682958	0.1189895	-5.464231	-3.795052	0	0
37.44244	0.02828193	0.1282893	0.3317634	0.227935	4.933463	3.287982	0	0
37.45901	0.02943886	0.1290917	0.06983243	0.04842833	-7.905093	-5.417523	0	0
37.47558	0.02946515	0.1290734	0.001587055	-0.00110091	-2.059649	-1.494795	0	0
37.49217	0.02949145	0.1290552	0.001584501	-0.00109824	-7.701186E-05	8.05049E-05	0	0
37.50871	0.02946515	0.1290369	-0.001589617	-0.001102687	-0.09579506	-0.0001342092	0	0
37.52528	0.02946515	0.1290369	0	0	0.04801342	0.033306	0	0
37.54185	0.02949145	0.1290187	0.001587055	-0.00110091	0.0478974	-0.03322552	0	0
37.55841	0.02951774	0.1290005	0.001587055	-0.00110001	0	2.714469E-05	0	0
37.57852	0.02951774	0.128964	0	-0.001814172	-0.04327406	-0.01947298	0	0
37.59509	0.02951774	0.128964	0	0	0	0.04946685	0	0
37.61166	0.02951774	0.128964	0	0	0	0	0	0
37.62822	0.02949145	0.1289822	-0.001587055	0.00110091	-0.0478974	0.03322552	0	0
37.64479	0.02949145	0.1289822	0	0	0.0478974	-0.03322552	0	0
37.66136	0.02949145	0.1289822	0	0	0	0	0	0
37.67793	0.02949145	0.1289822	0	0	0	0	0	0
37.69449	0.02949145	0.1289822	0	0	0	0	0	0
37.71106	0.02951774	0.128964	0.001587055	-0.00110091	0.0478974	-0.03322552	0	0
37.72784	0.02949145	0.1289458	-0.001566851	-0.001086007	-0.09457532	0.000446886	0	0
37.74419	0.02949145	0.1289458	0	0	0.04729311	0.03277952	0	0
37.76086	0.02949145	0.1289458	0	0	0	0	0	0
