Time	Pos X	Pos Y	Vel X	Vel Y	Acc X	Acc YForce X	Force Y
0.01656397	0.002184207	0.2393314	-3.362876E-05	-0.003684823	5.178906E-07	5.674713E-05	0	0
0.06213463	0.002184207	0.2393314	0	0	-5.181227E-07	-5.677256E-05	0	0
0.07870215	0.002184207	0.2393314	0	0	0	0	0	0
0.09559496	0.002184207	0.2393314	0	0	0	0	0	0
0.1118356	0.002184207	0.2393314	0	0	0	0	0	0
0.1286167	0.002184207	0.2393314	0	0	0	0	0	0
0.1449691	0.002184207	0.2393314	0	0	0	0	0	0
0.1615354	0.002184207	0.2393314	0	0	0	0	0	0
0.1818717	0.002184207	0.2393314	0	0	0	0	0	0
0.1984392	0.002184207	0.2393314	0	0	0	0	0	0
0.2150063	0.002184207	0.2393314	0	0	0	0	0	0
0.2316891	0.002184207	0.2393314	0	0	0	0	0	0
0.2481398	0.002184207	0.2393314	0	0	0	0	0	0
0.2647121	0.002210523	0.2393135	0.001587935	-0.001083491	0.04808582	-0.03281024	0	0
0.2812725	0.002210523	0.2393135	0	0	-0.04792656	0.03270158	0	0
0.2978392	0.002210523	0.2393135	0	0	0	0	0	0
0.3144059	0.002210523	0.2393135	0	0	0	0	0	0
0.3309731	0.002210523	0.2393135	0	0	0	0	0	0
0.3475394	0.002210523	0.2393135	0	0	0	0	0	0
0.3641061	0.002184207	0.2392955	-0.001588466	-0.001082954	-0.04794203	-0.03268499	0	0
0.3806725	0.002184207	0.2392955	0	0	0.04794203	0.03268499	0	0
0.3973055	0.002210523	0.2392776	0.001582131	-0.001078635	0.04765541	-0.03248958	0	0
0.4138178	0.002210523	0.2392776	0	0	-0.04773318	0.0325426	0	0
0.430373	0.002210523	0.2392776	0	0	0	0	0	0
0.4635061	0.002210523	0.2392776	0	0	0	0	0	0
0.4803642	0.002210523	0.2392776	0	0	0	0	0	0
0.4966392	0.002210523	0.2392776	0	0	0	0	0	0
0.5133887	0.002210523	0.2392776	0	0	0	0	0	0
0.5297726	0.002210523	0.2392776	0	0	0	0	0	0
0.546412	0.002210523	0.2392776	0	0	0	0	0	0
0.5629231	0.002210523	0.2392776	0	0	0	0	0	0
0.5794744	0.002236838	0.2392596	0.001589945	-0.001083962	0.04808922	-0.03278534	0	0
0.5964469	0.002236838	0.2392596	0	0	-0.04742727	0.03233405	0	0
0.6126059	0.002263154	0.2392417	0.001628553	-0.001111205	0.04915424	-0.03353926	0	0
0.6291742	0.00228947	0.2391879	0.001588301	-0.003248552	-0.00122992	-0.06530788	0	0
0.6457393	0.002447363	0.2390802	0.009531693	-0.006500142	0.2397394	-0.09813619	0	0
0.6623061	0.00294736	0.2386315	0.03018071	-0.02708009	0.6232367	-0.6211523	0	0
0.6788724	0.004421024	0.2374471	0.08895533	-0.07150002	1.773895	-1.340651	0	0
0.6955161	0.009920727	0.2332284	0.3304375	-0.2534675	7.271361	-5.479291	0	0
0.7120284	0.0137886	0.2288283	0.2342422	-0.2664729	-2.901295	-0.3922501	0	0
0.7285726	0.01552507	0.2135825	0.1049592	-0.9215232	-3.910971	-19.81608	0	0
0.7451394	0.01494626	0.1998231	-0.03493819	-0.8305378	-4.225107	2.747891	0	0
0.7617065	0.01465685	0.1817575	-0.01746897	-1.090451	0.5272315	-7.844352	0	0
0.7785752	0.01420957	0.1692227	-0.02651513	-0.7430833	-0.270553	10.3891	0	0
0.7948396	0.01281509	0.158622	-0.08573838	-0.6517723	-1.787435	2.755887	0	0
0.8115978	0.0098681	0.1480206	-0.1758534	-0.6326061	-2.728892	0.5803959	0	0
0.8279731	0.007552488	0.1432582	-0.1414088	-0.2908325	1.03957	10.31504	0	0
0.8445394	0.002815782	0.1398383	-0.2859235	-0.2064344	-4.386992	2.562051	0	0
0.8611334	0.002421048	0.1394926	-0.02378777	-0.02083595	7.905102	5.597002	0	0
0.8776725	0.002447363	0.139438	0.001591106	-0.003300238	0.7659677	0.5292508	0	0
0.8942392	0.002526311	0.1393834	0.00476539	-0.003295628	0.09588289	0.0001392517	0	0
0.9108064	0.002631573	0.1393106	0.006353689	-0.004393776	0.04793581	-0.03314277	0	0
0.9273727	0.002789466	0.1392014	0.009530993	-0.006591422	0.09589417	-0.06632712	0	0
0.9439398	0.004315763	0.1381458	0.0921281	-0.0637174	2.492862	-1.724118	0	0
0.9605061	0.007236716	0.1360886	0.1763186	-0.124181	2.540952	-1.824852	0	0
0.9770725	0.01557769	0.1302767	0.5034892	-0.3508241	9.874561	-6.840471	0	0
0.9936392	0.02523149	0.1235458	0.5827212	-0.4062909	2.391327	-1.674061	0	0
1.01024	0.03298803	0.1180852	0.4672412	-0.3289372	-3.481725	2.332215	0	0
1.026773	0.04024142	0.1129295	0.4387278	-0.3118443	-0.860561	0.5158809	0	0
1.043339	0.04846203	0.1065779	0.496211	-0.383392	1.736678	-2.161592	0	0
1.062618	0.05184823	0.09724557	0.1756483	-0.4840873	-8.943013	-2.809183	0	0
1.079185	0.05153328	0.08978797	-0.01900975	-0.4501351	-5.430437	0.9471743	0	0
1.095752	0.04993214	0.08307276	-0.09664761	-0.4053429	-2.343132	1.35184	0	0
1.112319	0.04431308	0.07632866	-0.3391774	-0.4070865	-7.319773	-0.05262301	0	0
1.128886	0.03992614	0.0733955	-0.2647981	-0.1770471	2.244812	6.942727	0	0
1.145837	0.03246228	0.06811429	-0.4403238	-0.3115603	-5.236768	-4.013166	0	0
1.16235	0.02562597	0.06330729	-0.4139958	-0.2911043	0.7867615	0.6112854	0	0
1.178586	0.02052343	0.05967976	-0.3142739	-0.2234254	3.045043	2.066597	0	0
1.195152	0.01731406	0.05742015	-0.193728	-0.1363976	3.674916	2.6531	0	0
1.211883	0.009789161	0.05208083	-0.4497476	-0.3191197	-7.688789	-5.487517	0	0
1.228286	0.005289424	0.04890715	-0.2743387	-0.193492	5.294004	3.791562	0	0
1.244852	0.002552626	0.04693853	-0.1651982	-0.1188299	3.310408	2.264621	0	0
1.261419	-0.002526311	0.04338873	-0.306574	-0.2142725	-4.266854	-2.880545	0	0
1.277986	-0.007920887	0.03957502	-0.3256197	-0.2301974	-0.5748083	-0.4806245	0	0
1.294552	-0.01052593	0.03769465	-0.157253	-0.1135086	5.081537	3.521829	0	0
1.311452	-0.01055224	0.03771327	-0.001556967	0.00110194	4.652382	3.424699	0	0
1.327686	-0.01055224	0.03771327	0	0	0.04699021	-0.03325722	0	0
1.344476	-0.01055224	0.03771327	0	0	0	0	0	0
1.360819	-0.01055224	0.03771327	0	0	0	0	0	0
1.377386	-0.01055224	0.03771327	0	0	0	0	0	0
1.393952	-0.01057855	0.03773189	-0.001588371	0.001123902	-0.04793852	0.0339204	0	0
1.41052	-0.01057855	0.03773189	0	0	0.04793731	-0.03391954	0	0
1.427086	-0.01055224	0.03775051	0.001588417	0.001124159	0.04793939	0.03392779	0	0
1.443652	-0.01057855	0.03776914	-0.001588371	0.001124127	-0.09588187	-9.767944E-07	0	0
1.460559	-0.01055224	0.03778776	0.00155644	0.001101528	0.09395166	-0.0006751274	0	0
1.476786	-0.01057855	0.03780638	-0.001621604	0.001147646	-0.09591737	0.001391897	0	0
1.493353	-0.01057855	0.03784362	0	0.002247931	0.0494482	0.03355141	0	0
1.509919	-0.01057855	0.03784362	0	0	0	-0.06784465	0	0
1.526604	-0.01060487	0.03786224	-0.001577046	0.001116151	-0.0474283	0.03356728	0	0
1.543053	-0.01060487	0.03786224	0	0	0.04759621	-0.03368612	0	0
1.559619	-0.01060487	0.03786224	0	0	0	0	0	0
1.576186	-0.01060487	0.03786224	0	0	0	0	0	0
1.592752	-0.01060487	0.03786224	0	0	0	0	0	0
1.609664	-0.01057855	0.03784362	0.001555914	-0.001101194	0.04647551	-0.03289294	0	0
1.625887	-0.01057855	0.03784362	0	0	-0.04695672	0.03323352	0	0
1.642689	-0.01057855	0.03784362	0	0	0	0	0	0
1.675586	-0.01057855	0.03784362	0	0	0	0	0	0
1.692153	-0.01057855	0.03784362	0	0	0	0	0	0
1.708736	-0.01057855	0.03784362	0	0	0	0	0	0
1.725287	-0.01057855	0.03784362	0	0	0	0	0	0
1.742257	-0.01057855	0.03784362	0	0	0	0	0	0
1.758419	-0.01057855	0.03784362	0	0	0	0	0	0
1.774986	-0.01057855	0.03784362	0	0	0	0	0	0
1.791553	-0.01057855	0.03784362	0	0	0	0	0	0
1.808122	-0.01057855	0.03784362	0	0	0	0	0	0
1.824687	-0.01057855	0.03784362	0	0	0	0	0	0
1.841331	-0.01057855	0.03784362	0	0	0	0	0	0
1.857821	-0.01057855	0.03784362	0	0	0	0	0	0
1.874388	-0.01057855	0.03784362	0	0	0	0	0	0
1.890954	-0.01057855	0.03784362	0	0	0	0	0	0
1.907521	-0.01057855	0.03784362	0	0	0	0	0	0
1.9444	-0.01057855	0.03784362	0	0	0	0	0	0
1.960956	-0.01057855	0.03784362	0	0	0	0	0	0
1.977521	-0.01057855	0.03784362	0	0	0	0	0	0
1.994436	-0.01057855	0.03784362	0	0	0	0	0	0
2.010655	-0.01057855	0.03784362	0	0	0	0	0	0
2.027221	-0.01057855	0.03784362	0	0	0	0	0	0
2.04397	-0.01057855	0.03784362	0	0	0	0	0	0
2.060354	-0.01057855	0.03784362	0	0	0	0	0	0
2.076993	-0.01057855	0.03784362	0	0	0	0	0	0
2.093504	-0.01057855	0.03784362	0	0	0	0	0	0
2.110054	-0.01057855	0.03784362	0	0	0	0	0	0
2.126621	-0.01057855	0.03784362	0	0	0	0	0	0
2.143187	-0.01057855	0.03784362	0	0	0	0	0	0
2.159755	-0.01060487	0.03797397	-0.001588212	0.007867702	-0.04793337	0.2374528	0	0
2.176321	-0.01055224	0.03842084	0.003176755	0.02697535	0.1438111	0.5766866	0	0
2.192888	-0.01039436	0.0386815	0.009529741	0.01573339	0.1917432	-0.3393002	0	0
2.209454	-0.01042068	0.03877458	-0.001588281	0.005618938	-0.3355522	-0.3052634	0	0
2.226099	-0.01063118	0.03929582	-0.01264702	0.0313158	-0.3329821	0.7737402	0	0
2.242611	-0.01086799	0.03994726	-0.01434143	0.03945133	-0.05110247	0.2453629	0	0
2.259156	-0.01189418	0.04145445	-0.06202351	0.09109604	-1.44239	1.56226	0	0
2.275721	-0.01389384	0.04383496	-0.1207175	0.1437083	-1.772702	1.589018	0	0
2.292288	-0.01715621	0.04866577	-0.1969283	0.2916051	-2.300279	4.463985	0	0
2.308855	-0.01889249	0.05152423	-0.1048004	0.1725347	2.780485	-3.593629	0	0
2.325421	0	0	1.140468	-3.110322	37.58389	-99.08109	0	0
2.341988	-0.01989211	0.06837296	-1.20069	4.127	-70.65985	218.4338	0	0
2.358554	-0.0185242	0.07590449	0.0825724	0.4546298	38.73006	-110.8355	0	0
2.375121	-0.01749821	0.08141536	0.06192841	0.332637	-0.6230548	-3.681857	0	0
2.408254	-0.01323607	0.09462029	0.1286373	0.3985429	1.342225	1.326066	0	0
2.424821	-0.003157884	0.1076219	0.6083554	0.7848214	9.652411	7.772313	0	0
2.441388	0.002552626	0.1136063	0.3446871	0.3612193	-7.957754	-12.78471	0	0
2.457954	0.003815771	0.1149961	0.07624797	0.08389387	-8.101743	-8.369939	0	0
2.474521	0.009552341	0.1197477	0.34626	0.2868094	8.149216	6.12418	0	0
2.491088	0.01360442	0.122633	0.2445983	0.1741678	-3.068246	-3.399629	0	0
2.507654	0.01862942	0.1261918	0.3033184	0.2148113	1.772251	1.226675	0	0
2.524221	0.01941861	0.1272133	0.04763822	0.06166347	-7.716775	-4.622209	0	0
2.540822	0.02236469	0.1294381	0.1774579	0.1340108	3.914024	2.181248	0	0
2.557355	0.0265201	0.1327188	0.2513489	0.1984421	2.230067	1.944571	0	0
2.573921	0.03014876	0.1369807	0.2190327	0.2572569	-0.9763471	1.776924	0	0
2.607054	0.0246266	0.1523979	-0.1666663	0.4653104	-7.760575	4.186206	0	0
2.623621	0.01723514	0.1600365	-0.4461625	0.4610803	-5.623692	-0.08511329	0	0
2.640188	0.01399909	0.1648396	-0.1953284	0.2899197	7.570298	-5.165712	0	0
2.656903	0.01131531	0.1667961	-0.1605629	0.1170488	1.04457	-5.194119	0	0
2.673415	0.006131502	0.1703632	-0.3139432	0.2160327	-4.616171	2.979046	0	0
2.689888	0.003499986	0.1721731	-0.159749	0.1098752	4.674713	-3.218383	0	0
2.706455	0.001999997	0.1732046	-0.09054209	0.06225985	2.094669	-1.441163	0	0
2.723022	0.0009210524	0.1739464	-0.06512712	0.04477701	0.7670473	-0.5276483	0	0
2.739588	0.0009210524	0.1739464	0	0	1.965625	-1.351431	0	0
2.756155	0.0008684208	0.1740188	-0.003176846	0.00436856	-0.09588017	0.1318472	0	0
2.772722	0.0005	0.174453	-0.02223793	0.02620776	-0.5752646	0.6591084	0	0
2.789289	0.0003157895	0.1752308	-0.01111961	0.04695326	0.3355612	0.6261183	0	0
2.806009	-2.631579E-05	0.1762979	-0.02046048	0.06382255	-0.2806198	0.5067896	0	0
2.842534	-0.01528828	0.1888015	-0.4178443	0.3423244	-7.463198	5.230496	0	0
2.859031	-0.01976059	0.1918698	-0.2711076	0.1859951	2.767474	-2.94839	0	0
2.875598	-0.02554707	0.1958385	-0.349273	0.239554	-2.36409	1.619871	0	0
2.892164	-0.02943886	0.1985072	-0.2349223	0.1610919	3.451209	-2.368057	0	0
2.908731	-0.03077975	0.1994266	-0.08093619	0.05549429	4.647445	-3.187035	0	0
2.925297	-0.03077975	0.1994266	0	0	2.442747	-1.674881	0	0
2.941864	-0.03080604	0.1994446	-0.001586988	0.001088349	-0.0478978	0.03284808	0	0
2.958616	-0.03080604	0.1994446	0	0	0.04763114	-0.03266521	0	0
2.975129	-0.03077975	0.1994266	0.001592143	-0.001091884	0.04786294	-0.03282418	0	0
2.991565	-0.03075346	0.1994085	0.001599443	-0.001096968	0.0002215516	-0.0001542986	0	0
3.008132	-0.03075346	0.1994085	0	0	-0.04846414	0.03323883	0	0
3.024698	-0.03075346	0.1994085	0	0	0	0	0	0
3.041265	-0.03075346	0.1994085	0	0	0	0	0	0
3.057832	-0.03075346	0.1994085	0	0	0	0	0	0
3.074399	-0.03075346	0.1994085	0	0	0	0	0	0
3.090965	-0.03075346	0.1994085	0	0	0	0	0	0
3.107532	-0.03072717	0.1993905	0.001586942	-0.001087418	0.04789573	-0.03281952	0	0
3.124099	-0.03072717	0.1993905	0	0	-0.0478947	0.03281881	0	0
3.140747	-0.03072717	0.1993905	0	0	0	0	0	0
3.157233	-0.03072717	0.1993545	0	-0.002187401	0	-0.06601731	0	0
3.173799	-0.03067459	0.1993184	0.003174113	-0.002175892	0.09603469	0.0003481992	0	0
3.190366	-0.03067459	0.1992824	0	-0.002176697	-0.09579974	-2.430707E-05	0	0
3.206932	-0.030622	0.1992463	0.003174067	-0.002175861	0.09579767	2.525556E-05	0	0
3.223499	-0.03059571	0.1992283	0.001586988	-0.001088349	-0.04790021	0.03282259	0	0
3.240065	-0.03056942	0.1992103	0.001587034	-0.00108838	1.377321E-06	-9.486647E-07	0	0
3.256632	-0.03051684	0.1991381	0.003173884	-0.00435237	0.04789263	-0.09851025	0	0
3.273199	-0.03049055	0.1991201	0.001586988	-0.001088349	-0.04789332	0.09850978	0	0
3.356399	-0.03030651	0.1989579	0.00221202	-0.001950041	0.006264917	-0.008637052	0	0
3.372913	-0.03030651	0.1989579	0	0	-0.02218353	0.01955624	0	0
3.389165	-0.03030651	0.1989579	0	0	0	0	0	0
3.405733	-0.03030651	0.1989579	0	0	0	0	0	0
3.422299	-0.03028022	0.1989399	0.001586988	-0.001087449	0.04789608	-0.03281976	0	0
3.438957	-0.03028022	0.1989399	0	0	-0.04776547	0.03273026	0	0
3.455432	-0.03028022	0.1989399	0	0	0	0	0	0
3.471999	-0.03022763	0.1989038	0.003173884	-0.002176635	0.09605619	-0.06587488	0	0
3.488565	-0.03020134	0.1988858	0.001587146	-0.00108838	-0.04788923	0.03284454	0	0
3.505132	-0.03017505	0.1988677	0.001587034	-0.00108838	-3.39416E-06	0	0	0
3.521699	-0.03014876	0.1988497	0.001586942	-0.001087418	-2.758115E-06	2.903926E-05	0	0
3.538265	-0.03014876	0.1988497	0	0	-0.04789539	0.03281928	0	0
3.554832	-0.03017505	0.1988317	-0.001586942	-0.001088317	-0.04789539	-0.03284643	0	0
3.571399	-0.03017505	0.1988317	0	0	0.0478947	0.03284596	0	0
3.588063	-0.03017505	0.1988317	0	0	0	0	0	0
3.604532	-0.03017505	0.1988317	0	0	0	0	0	0
3.621099	-0.03017505	0.1988317	0	0	0	0	0	0
3.637666	-0.03017505	0.1988317	0	0	0	0	0	0
3.654233	-0.03017505	0.1988317	0	0	0	0	0	0
3.670799	-0.03014876	0.1988497	0.001587034	0.00108838	0.04789987	0.03284951	0	0
3.687366	-0.03017505	0.1988677	-0.001586919	0.001087402	-0.09579216	-2.950986E-05	0	0
3.703932	-0.03017505	0.1988677	0	0	0.04789539	-0.03281929	0	0
3.720656	-0.03014876	0.1988497	0.001572078	-0.001077233	0.04722454	-0.0323596	0	0
3.737169	-0.03014876	0.1988497	0	0	-0.04729907	0.03241067	0	0
3.772505	-0.03014876	0.1988497	0	0	0	0	0	0
3.789072	-0.03012246	0.1988677	0.0015871	0.001087449	0.03057819	0.02095157	0	0
3.805718	-0.03012246	0.1988677	0	0	-0.04778532	-0.03274154	0	0
3.822206	-0.03012246	0.1989038	0	0.002187084	0	0.06600633	0	0
3.838772	-0.03006988	0.1989399	0.003174225	0.002176791	0.09603117	-0.0003113907	0	0
3.855339	-0.0300173	0.1989759	0.003174067	0.002175861	-4.771535E-06	-2.809514E-05	0	0
3.872263	-0.02991213	0.1990841	0.006213858	0.006391045	0.09076405	0.1258597	0	0
3.938739	-0.01752452	0.2075702	0.1863474	0.1276567	2.159856	1.454012	0	0
3.955307	-0.01457791	0.2096228	0.1778575	0.1238955	-0.1022346	-0.04529253	0	0
3.971873	-0.01073643	0.2122148	0.2318792	0.1564587	1.630401	0.9827728	0	0
3.988441	-0.008105085	0.2140503	0.1588282	0.1107916	-2.204715	-1.378255	0	0
4.005007	-0.008052457	0.2140503	0.00317673	0	-4.697639	-3.343745	0	0
4.021574	-0.008052457	0.2140503	0	0	-0.09587667	0	0	0
4.03814	-0.008078772	0.2140323	-0.001588439	-0.001085682	-0.04794125	-0.03276735	0	0
4.054708	-0.008078772	0.2140323	0	0	0.04794056	0.03276688	0	0
4.071274	-0.008078772	0.2139963	0	-0.002172263	0	-0.06556091	0	0
4.087841	-0.008105085	0.2139783	-0.001588337	-0.00108655	-0.04793818	0.03276829	0	0
4.10443	-0.008078772	0.2139243	0.001586146	-0.003253356	0.0957427	-0.06535108	0	0
4.120974	-0.008105085	0.2138704	-0.001590534	-0.003263258	-0.09587515	-0.0002988673	0	0
4.13754	-0.0081314	0.2138524	-0.001588439	-0.001085682	6.328803E-05	0.06576767	0	0
4.154107	-0.0081314	0.2138164	0	-0.0021722	0.04794125	-0.03279261	0	0
4.170674	-0.008157713	0.2137984	-0.001588337	-0.00108655	-0.04793749	0.03276594	0	0
4.203998	-0.008210341	0.2136904	-0.001579297	-0.003239697	0.0001812061	-0.04315745	0	0
4.220375	-0.00826297	0.2136544	-0.003213543	-0.002197372	-0.03288174	0.02097202	0	0
4.23694	-0.00826297	0.2136544	0	0	0.09755068	0.06670368	0	0
4.253508	-0.008289284	0.2136364	-0.001588302	-0.001086487	-0.04793711	-0.03279167	0	0
4.270074	-0.008315598	0.2136184	-0.001588383	-0.001086581	-2.441863E-06	-2.828345E-06	0	0
4.28664	-0.008315598	0.2136184	0	0	0.04794025	0.03279497	0	0
4.303207	-0.008315598	0.2136184	0	0	0	0	0	0
4.319773	-0.008315598	0.2135825	0	-0.002172263	0	-0.06556185	0	0
4.33634	-0.008315598	0.2135465	0	-0.002172138	0	3.773523E-06	0	0
4.352906	-0.008289284	0.2134925	0.001588429	-0.003258938	0.04794094	-0.0328011	0	0
4.386126	-0.008289284	0.2134565	0	-0.001083294	-0.03190568	0.04370067	0	0
4.402606	-0.008210341	0.2134025	0.00478994	-0.003275721	0.09637655	-0.044113	0	0
4.419174	-0.008184028	0.2133485	0.001588291	-0.003257757	-0.09687828	0.000543579	0	0
4.43574	-0.008105085	0.2132585	0.004765398	-0.005432162	0.0958894	-0.06562652	0	0
4.452307	-0.008078772	0.2132406	0.001588291	-0.001085619	-0.0958894	0.1311846	0	0
4.468874	-0.008078772	0.2132406	0	0	-0.04793542	0.03276452	0	0
4.48544	-0.008078772	0.2132406	0	0	0	0	0	0
4.502008	-0.008078772	0.2132406	0	0	0	0	0	0
4.518574	-0.008078772	0.2132406	0	0	0	0	0	0
4.535233	-0.008078772	0.2132406	0	0	0	0	0	0
4.551708	-0.008078772	0.2132406	0	0	0	0	0	0
4.568274	-0.008078772	0.2132406	0	0	0	0	0	0
4.584842	-0.008052457	0.2132226	0.001588302	-0.001086487	0.04793505	-0.03279025	0	0
4.60141	-0.008026144	0.2131686	0.0015882	-0.003258469	-3.077624E-06	-0.06554769	0	0
4.617973	-0.007973515	0.2130966	0.003177462	-0.004345401	0.04796886	-0.03280698	0	0
4.634542	-0.007841945	0.2129706	0.007940711	-0.007602956	0.1437655	-0.09832028	0	0
4.651316	-0.007763002	0.2128807	0.004706467	-0.005364098	-0.09700106	0.06714755	0	0
4.667675	-0.007736688	0.2128267	0.001608486	-0.003299972	-0.09350128	0.06229812	0	0
4.684241	-0.007736688	0.2127907	0	-0.002173287	-0.04885284	0.03421961	0	0
4.700808	-0.007736688	0.2127547	0	-0.002172138	0	3.470055E-05	0	0
4.717865	-0.007736688	0.2127547	0	0	0	0.06460139	0	0
4.734375	-0.007736688	0.2127547	0	0	0	0	0	0
4.753839	-0.007736688	0.2127547	0	0	0	0	0	0
4.770407	-0.007736688	0.2127547	0	0	0	0	0	0
4.786974	-0.007710373	0.2127367	0.001588274	-0.001086487	0.04793281	-0.03278931	0	0
4.820107	-0.007736688	0.2127187	-0.0007942054	-0.0005428408	-0.04793695	0.0109385	0	0
4.836673	-0.007736688	0.2127187	0	0	0.01598036	0.01092261	0	0
4.85324	-0.007736688	0.2127187	0	0	0	0	0	0
4.86997	-0.007736688	0.2127187	0	0	0	0	0	0
4.886374	-0.007736688	0.2127187	0	0	0	0	0	0
4.902941	-0.007736688	0.2127187	0	0	0	0	0	0
4.919507	-0.007736688	0.2127187	0	0	0	0	0	0
4.936075	-0.007736688	0.2127187	0	0	0	0	0	0
4.95264	-0.007736688	0.2127187	0	0	0	0	0	0
4.969206	-0.007736688	0.2127187	0	0	0	0	0	0
4.985774	-0.007763002	0.2127007	-0.001588347	-0.001086519	-0.0479378	-0.03279214	0	0
5.00234	-0.007763002	0.2127007	0	0	0.04793711	0.03279167	0	0
5.018907	-0.007763002	0.2127007	0	0	0	0	0	0
5.035473	-0.007763002	0.2127007	0	0	0	0	0	0
5.05204	-0.007763002	0.2127007	0	0	0	0	0	0
5.06861	-0.007763002	0.2127007	0	0	0	0	0	0
5.085174	-0.007763002	0.2127007	0	0	0	0	0	0
5.10174	-0.007736688	0.2126827	0.001588439	-0.001086581	0.0479447	-0.03279686	0	0
5.118645	-0.007789316	0.2126467	-0.003113227	-0.002128759	-0.1404694	-0.03113664	0	0
5.201141	-0.02057604	0.2034634	-0.1549987	-0.1113186	-1.528015	-1.098483	0	0
5.217709	-0.02767714	0.1985973	-0.4286108	-0.2937086	-2.76199	-1.841145	0	0
5.234274	-0.03117411	0.1961992	-0.2111017	-0.1447692	6.564722	4.495195	0	0
5.250843	-0.03587933	0.1929343	-0.2839834	-0.1970512	-2.199606	-1.577897	0	0
5.267408	-0.04244817	0.1883863	-0.3965415	-0.2745511	-3.39706	-2.338987	0	0
5.284264	-0.04827825	0.1843773	-0.3458714	-0.2378359	1.516092	1.09855	0	0
5.300541	-0.04956464	0.1834198	-0.07903201	-0.05882251	8.053577	5.402869	0	0
5.317108	-0.05111334	0.1823538	-0.09347972	-0.06434384	-0.439888	-0.1681075	0	0
5.333674	-0.05552182	0.1792091	-0.2661121	-0.1898297	-5.210204	-3.787279	0	0
5.350311	-0.05591534	0.1786486	-0.02365313	-0.03368533	7.302292	4.702701	0	0
5.367323	-0.0610556	0.1731141	-0.3021528	-0.3253286	-8.276619	-8.66723	0	0
5.383375	-0.06087207	0.1685346	0.01143375	-0.2853041	9.484398	1.210539	0	0
5.39994	-0.06034769	0.1629551	0.03165456	-0.3368112	0.6199452	-1.579143	0	0
5.433075	-0.0575679	0.1350505	0.08389421	-0.8421607	1.051094	-10.16794	0	0
5.449881	-0.05701708	0.1223409	0.03277482	-0.7562482	-1.023604	1.720294	0	0
5.466209	-0.05722692	0.1093246	-0.01285139	-0.7971606	-1.377002	-1.234738	0	0
5.482903	-0.05751544	0.09180973	-0.01728279	-1.049168	-0.1341935	-7.631395	0	0
5.499341	-0.05866943	0.07892806	-0.07020259	-0.7836518	-1.597238	8.013862	0	0
5.515908	-0.06045257	0.06297428	-0.1076363	-0.9630275	-1.134207	-5.434922	0	0
5.532475	-0.06157994	0.05183965	-0.06805035	-0.672107	1.194757	8.780375	0	0
5.549041	-0.06254987	0.04509899	-0.05854877	-0.4068902	0.2867706	8.004605	0	0
5.565608	-0.06543277	0.03411744	-0.1740171	-0.6628669	-3.48499	-7.725725	0	0
5.582175	-0.0702788	0.02543937	-0.2925069	-0.5238092	-3.576082	4.19683	0	0
5.598742	-0.07491218	0.02115796	-0.2796715	-0.2584269	0.3873735	8.009253	0	0
5.615496	-0.07410092	0.01874387	0.04842167	-0.1440886	9.846326	3.431382	0	0
5.632009	-0.0742056	0.01447306	-0.006339337	-0.2586358	-1.646105	-3.443266	0	0
5.668075	-0.07470284	0.01321704	-0.01378702	-0.03482595	-0.141649	4.256683	0	0
5.701209	-0.07470284	0.01321704	0	0	0.1992356	0.5032683	0	0
5.717776	-0.07470284	0.01321704	0	0	0	0	0	0
5.734342	-0.07470284	0.01321704	0	0	0	0	0	0
5.750909	-0.07470284	0.01321704	0	0	0	0	0	0
5.767476	-0.07470284	0.01321704	0	0	0	0	0	0
5.784122	-0.07470284	0.01321704	0	0	0	0	0	0
5.800609	-0.07470284	0.01321704	0	0	0	0	0	0
5.817176	-0.07470284	0.01321704	0	0	0	0	0	0
5.833743	-0.07470284	0.01321704	0	0	0	0	0	0
5.850309	-0.07470284	0.01321704	0	0	0	0	0	0
5.866877	-0.07470284	0.01321704	0	0	0	0	0	0
5.883688	-0.074729	0.01323579	-0.001556473	0.001115335	-0.04662952	0.03341373	0	0
5.9002	-0.07478134	0.01327329	-0.003169852	0.002271069	-0.04841596	0.03468246	0	0
5.916713	-0.07483368	0.01331079	-0.003169217	0.002270882	1.920469E-05	-5.675393E-06	0	0
5.933223	-0.07488602	0.01334829	-0.00317031	0.002271341	-3.307478E-05	1.390396E-05	0	0
5.949708	-0.07491218	0.01336703	-0.001587221	0.001137313	0.04797932	-0.03436946	0	0
5.966275	-0.07493835	0.01338578	-0.0015795	0.001131724	0.0002336022	-0.0001690863	0	0
5.982842	-0.07493835	0.01338578	0	0	0.0476701	-0.03415599	0	0
5.999771	-0.07496452	0.01336703	-0.001546128	-0.001107497	-0.04615805	-0.03306318	0	0
6.015975	-0.07499069	0.01338578	-0.001614825	0.001157035	-0.002073421	0.06834764	0	0
6.032543	-0.07499069	0.01338578	0	0	0.04927517	-0.03530604	0	0
6.049108	-0.07501686	0.01336703	-0.001579591	-0.001131789	-0.04767422	-0.03415895	0	0
6.065815	-0.07501686	0.01336703	0	0	0.04747471	0.034016	0	0
6.082326	-0.0750692	0.01332954	-0.003169943	-0.002271078	-0.09542738	-0.06836811	0	0
6.098808	-0.07512153	0.01329204	-0.003175177	-0.002275152	-0.0001586321	-0.0001234676	0	0
6.115375	-0.07520003	0.01327329	-0.004738364	-0.001131748	-0.04729961	0.03459763	0	0
6.131942	-0.07525236	0.01327329	-0.00315891	0	0.04766941	0.0341572	0	0
6.148508	-0.07535703	0.01331079	-0.006318451	0.002263561	-0.09535926	0.06831735	0	0
6.165075	-0.0754617	0.01334829	-0.006317819	0.002263495	1.905762E-05	-1.967601E-06	0	0
6.181642	-0.07561869	0.01342328	-0.009476007	0.004526748	-0.09531566	0.06830609	0	0
6.198409	-0.07569719	0.01347953	-0.004681768	0.003354578	0.1438232	-0.03516414	0	0
6.21492	-0.07580185	0.01355452	-0.006338716	0.004542006	-0.04979111	0.03568207	0	0
6.231431	-0.07632513	0.01389197	-0.03169176	0.02043734	-0.7677528	0.4813499	0	0
6.247944	-0.07697916	0.0143606	-0.03960869	0.02838024	-0.2397339	0.2405203	0	0
6.264476	-0.07852243	0.0154663	-0.0933507	0.0668829	-1.626361	1.165182	0	0
6.281042	-0.08043137	0.01683389	-0.1152307	0.08255267	-0.6610616	0.4734324	0	0
6.297608	-0.08176467	0.01778901	-0.08048256	0.05765457	1.04876	-0.7514694	0	0
6.314176	-0.08573667	0.02063411	-0.2397505	0.1717304	-4.806854	3.442915	0	0
6.330742	-0.09432452	0.02674708	-0.5183936	0.369001	-8.409709	5.953809	0	0
6.347308	-0.09755774	0.02902509	-0.1951686	0.1375089	9.755513	-6.986845	0	0
6.363875	-0.103289	0.03309208	-0.3459496	0.245491	-4.550777	3.259046	0	0
6.380538	-0.1071408	0.03581332	-0.2311565	0.1633095	3.454519	-2.473124	0	0
6.397049	-0.1102355	0.03802983	-0.1874292	0.1342411	1.318102	-0.8762271	0	0
6.413576	-0.1151982	0.04151027	-0.3002937	0.2106005	-3.416238	2.311283	0	0
6.430141	-0.1190398	0.04422537	-0.2318964	0.1638981	2.066882	-1.411288	0	0
6.446709	-0.1251063	0.04842437	-0.3661783	0.2534525	-4.052812	2.702873	0	0
6.463596	-0.1293785	0.05141291	-0.2529834	0.1769704	3.383558	-2.286158	0	0
6.479842	-0.1312413	0.05271155	-0.1146601	0.07993676	4.174785	-2.928607	0	0
6.496619	-0.1316292	0.05287848	-0.02312331	0.009950086	2.771879	-2.119308	0	0
6.512975	-0.1317585	0.05278574	-0.007906111	-0.005670161	0.4592693	-0.4714336	0	0
6.533805	-0.132224	0.05245185	-0.02234657	-0.01602918	-0.388329	-0.278572	0	0
6.550373	-0.1332324	0.05172833	-0.06086393	-0.04367188	-1.029948	-0.7391614	0	0
6.567171	-0.1401282	0.04677133	-0.4105151	-0.2950942	-10.4795	-7.535454	0	0
6.583509	-0.1457744	0.04270069	-0.3455777	-0.2491468	1.9597	1.386616	0	0
6.600074	-0.1505367	0.03925859	-0.2874957	-0.2077951	1.76524	1.256768	0	0
6.616708	-0.1522855	0.03799259	-0.1051294	-0.07610699	5.493075	3.966592	0	0
6.633721	-0.1522855	0.03799259	0	0	3.124429	2.261889	0	0
6.649775	-0.1522855	0.03799259	0	0	0	0	0	0
6.66634	-0.1522855	0.03799259	0	0	0	0	0	0
6.682907	-0.1522855	0.03799259	0	0	0	0	0	0
6.716043	-0.1523112	0.03797397	-0.0007757188	-0.0005620026	-0.01560689	-0.01130708	0	0
6.732609	-0.1523112	0.03797397	0	0	0.01560734	0.01130741	0	0
6.749175	-0.1523369	0.03795535	-0.001551661	-0.001123942	-0.04683326	-0.03392357	0	0
6.765741	-0.1523626	0.03793673	-0.001552516	-0.001124135	-2.580091E-05	-5.808104E-06	0	0
6.782325	-0.1523626	0.03793673	0	0	0.04683277	0.03391035	0	0
6.798873	-0.1523883	0.03795535	-0.00155336	0.001125398	-0.04688454	0.03396751	0	0
6.815439	-0.1523883	0.03795535	0	0	0.04690952	-0.03398561	0	0
6.832006	-0.152414	0.03793673	-0.001551616	-0.001124135	-0.04683057	-0.03392841	0	0
6.848573	-0.152414	0.03793673	0	0	0.04682922	0.03392743	0	0
6.865139	-0.1523883	0.03791811	0.001551616	-0.001124135	0.04682922	-0.03392743	0	0
6.881706	-0.1523883	0.03791811	0	0	-0.04682989	0.03392791	0	0
6.898273	-0.1523883	0.03791811	0	0	0	0	0	0
6.96495	-0.1523883	0.03791811	0	0	0	0	0	0
6.981106	-0.1523883	0.03791811	0	0	0	0	0	0
6.997673	-0.1523883	0.03791811	0	0	0	0	0	0
7.014488	-0.1523883	0.03791811	0	0	0	0	0	0
7.030997	-0.1523626	0.03789949	0.001556949	-0.001127773	0.04672055	-0.03384193	0	0
7.04751	-0.1523626	0.03789949	0	0	-0.04714827	0.03415174	0	0
7.064021	-0.1523626	0.03789949	0	0	0	0	0	0
7.080533	-0.1523626	0.03789949	0	0	0	0	0	0
7.097073	-0.1523112	0.03789949	0.003109054	0	0.09406561	0	0	0
7.113639	-0.1523112	0.03789949	0	0	-0.09391116	0	0	0
7.130205	-0.1523112	0.03789949	0	0	0	0	0	0
7.146772	-0.1523112	0.03789949	0	0	0	0	0	0
7.163339	-0.1523112	0.03789949	0	0	0	0	0	0
7.179905	-0.1522855	0.03788086	0.001551616	-0.001124135	0.04682989	-0.03392791	0	0
7.196614	-0.152234	0.03784362	0.003077733	-0.002228926	0.04586424	-0.03320219	0	0
7.213125	-0.1521569	0.03778776	0.004672113	-0.003383378	0.04799486	-0.03475193	0	0
7.229605	-0.1519255	0.03769465	0.0140413	-0.005649884	0.2839886	-0.06869986	0	0
7.246172	-0.1517455	0.03767603	0.0108646	-0.001124102	-0.09612746	0.136951	0	0
7.262739	-0.1514626	0.03776914	0.01707538	0.005620287	0.1874472	0.2035519	0	0
7.279306	-0.1512312	0.03793673	0.01397094	0.01011596	-0.09369367	0.1356815	0	0
7.295872	-0.1508454	0.03821604	0.02328841	0.01686048	0.2812139	0.203559	0	0
7.312439	-0.1500994	0.0387932	0.04502806	0.03483662	0.6561229	0.5425367	0	0
7.345572	-0.1468046	0.04117539	0.09944061	0.07189886	1.094814	0.745715	0	0
7.362233	-0.1382957	0.0473472	0.5107166	0.3704411	8.259674	5.995637	0	0
7.378706	-0.1268158	0.05562264	0.696884	0.5023555	5.618625	3.981243	0	0
7.395273	-0.1166522	0.06291878	0.6134923	0.4404084	-2.523957	-1.87491	0	0
7.412266	-0.1023777	0.07317404	0.8399987	0.6034806	6.749242	4.859085	0	0
7.449123	-0.0826011	0.08769172	0.5365734	0.3938907	-5.634572	-3.892059	0	0
7.482319	-0.07362981	0.1042329	0.2702562	0.4982947	-3.801672	1.490364	0	0
7.498825	-0.07106434	0.1192728	0.1554249	0.9111664	-2.310411	8.306996	0	0
7.51539	-0.06742396	0.1309329	0.2197588	0.7038878	1.945298	-6.267587	0	0
7.531956	-0.06095073	0.1419487	0.3907703	0.6649917	5.16173	-1.174021	0	0
7.548522	-0.05003715	0.1506002	0.658764	0.5222185	8.088649	-4.309214	0	0
7.56509	-0.03411834	0.1615956	0.9608613	0.6636893	9.117445	4.269657	0	0
7.581656	-0.0185242	0.172336	0.9413183	0.6483273	-0.5898238	-0.4636384	0	0
7.598223	-0.0147884	0.1749414	0.2254998	0.1572646	-21.60438	-14.82094	0	0
7.614914	0.001684209	0.1862556	0.9868749	0.6778389	22.89269	15.6524	0	0
7.631356	0.007157772	0.1900109	0.3329049	0.2283966	-19.73742	-13.56458	0	0
7.647933	0.01452529	0.1950269	0.4444487	0.3025903	3.378211	2.247028	0	0
7.664489	0.0161828	0.1960549	0.1001133	0.06209319	-10.39251	-7.258531	0	0
7.681457	0.01623541	0.1960188	0.003101134	-0.002125313	-2.893852	-1.915623	0	0
7.697968	0.01623541	0.1960188	0	0	-0.09262864	0.06348155	0	0
7.71448	0.01623541	0.1960188	0	0	0	0	0	0
7.73099	0.01623541	0.1960188	0	0	0	0	0	0
7.747502	0.01623541	0.1960188	0	0	0	0	0	0
7.763889	0.01620911	0.1960008	-0.001605467	-0.00110032	-0.04880073	-0.03344598	0	0
7.780527	0.01623541	0.1959828	0.001581173	-0.001084566	0.09649238	0.0004770503	0	0
7.797038	0.01631434	0.1959287	0.00478046	-0.003277076	0.096513	-0.06614153	0	0
7.81405	0.01639327	0.1958746	0.00463939	-0.003179569	-0.004208198	0.002908671	0	0
7.830156	0.01641958	0.1958565	0.001633415	-0.0011204	-0.09076492	0.06217628	0	0
7.863585	0.01652481	0.1957483	0.003148023	-0.003237062	0.03057635	-0.04273041	0	0
7.879856	0.01657743	0.1956762	0.003233706	-0.00443341	0.001723992	-0.02407126	0	0
7.89661	0.01665635	0.1956221	0.004710959	-0.003229508	0.04473163	0.03645451	0	0
7.91299	0.01668266	0.195604	0.001606121	-0.001100769	-0.09370688	0.06424733	0	0
7.929631	0.01676159	0.1955499	0.004742816	-0.003251347	0.09499099	-0.06512764	0	0
7.946146	0.01686682	0.1954417	0.006372103	-0.006552448	0.04914014	-0.09956297	0	0
7.96269	0.01699836	0.1953515	0.007950755	-0.005450916	0.0477524	0.03332007	0	0
7.979257	0.01707729	0.1952974	0.004764112	-0.003265946	-0.09624095	0.06598908	0	0
7.995823	0.0171299	0.1952253	0.003176	-0.004355194	-0.0479307	-0.03287452	0	0
8.01239	0.01718252	0.1951892	0.003176	-0.002177597	0	0.0657219	0	0
8.028956	0.01718252	0.1951892	0	0	-0.095856	0.06572285	0	0
8.045523	0.01720883	0.1951712	0.001588046	-0.00108838	0.04793007	-0.03284927	0	0
8.062089	0.01720883	0.1951712	0	0	-0.04793007	0.03284927	0	0
8.078655	0.01720883	0.1951712	0	0	0	0	0	0
8.095222	0.01720883	0.1951712	0	0	0	0	0	0
8.111789	0.01718252	0.1951531	-0.001588046	-0.00108928	-0.04792869	-0.03287547	0	0
8.128355	0.01718252	0.1951531	0	0	0.04793007	0.03287641	0	0
8.144921	0.01718252	0.1951531	0	0	0	0	0	0
8.161794	0.01718252	0.1951531	0	0	0	0	0	0
8.178055	0.01718252	0.1951531	0	0	0	0	0	0
8.194818	0.01718252	0.1951531	0	0	0	0	0	0
8.21133	0.01718252	0.1951531	0	0	0	0	0	0
8.227841	0.01715621	0.1951351	-0.001593366	-0.001092026	-0.04825035	-0.03306878	0	0
8.244322	0.01715621	0.1951351	0	0	0.04829638	0.03310032	0	0
8.260891	0.0171299	0.1951171	-0.001587771	-0.001088192	-0.0480421	-0.03292605	0	0
8.277456	0.0171299	0.1951171	0	0	0.04791903	0.0328417	0	0
8.300594	0.0171299	0.1951171	0	0	0	0	0	0
8.317162	0.0171036	0.195099	-0.001587954	-0.001089217	-0.03999352	-0.02743255	0	0
8.333729	0.0171299	0.195081	0.001587954	-0.001088317	0.0958491	2.714469E-05	0	0
8.35043	0.0171036	0.195063	-0.001575169	-0.001080447	-0.0950774	0.0002365578	0	0
8.366944	0.0171299	0.1950449	0.001593089	-0.001091837	0.09538488	-0.0003429037	0	0
8.38343	0.0171299	0.1950449	0	0	-0.04827685	0.03308694	0	0
8.399996	0.01715621	0.1950269	0.001588046	-0.00108928	0.04804762	-0.03295705	0	0
8.416563	0.01715621	0.1950269	0	0	-0.04792869	0.03287547	0	0
8.433129	0.0171299	0.1950088	-0.001588046	-0.00108838	-0.04792869	-0.03284832	0	0
8.449696	0.01715621	0.1949908	0.001588046	-0.00108838	0.09586013	0	0	0
8.466263	0.01718252	0.1949728	0.001587954	-0.001089217	-2.761629E-06	-2.525169E-05	0	0
8.483024	0.01723514	0.1949367	0.003139225	-0.002152383	0.04654549	-0.03190003	0	0
8.499534	0.01723514	0.1949367	0	0	-0.09435365	0.06469277	0	0
8.516548	0.01723514	0.1949367	0	0	0	0	0	0
8.532529	0.01723514	0.1949367	0	0	0	0	0	0
8.549095	0.01723514	0.1949367	0	0	0	0	0	0
8.565661	0.01720883	0.1949187	-0.001588046	-0.00108838	-0.04793007	-0.03284927	0	0
8.582228	0.01720883	0.1949187	0	0	0.04793007	0.03284927	0	0
8.599103	0.01720883	0.1949187	0	0	0	0	0	0
8.681627	0.01718252	0.1949006	-0.000318791	-0.0002186666	-0.003207166	-0.002199874	0	0
8.698194	0.01715621	0.1948826	-0.001588046	-0.00108838	-0.01280903	-0.008776955	0	0
8.71476	0.01715621	0.1948826	0	0	0.04793007	0.03284927	0	0
8.731326	0.01718252	0.1948645	0.001588046	-0.00108928	0.04793007	-0.03287641	0	0
8.748207	0.01715621	0.1948465	-0.001558439	-0.001068089	-0.09407301	0.000633539	0	0
8.76446	0.01715621	0.1948465	0	0	0.04703515	0.03223593	0	0
8.781026	0.01715621	0.1948104	0	-0.00217766	0	-0.06635404	0	0
8.797742	0.01720883	0.1947744	0.003147642	-0.002158154	0.09457412	0.0005860662	0	0
8.814159	0.01720883	0.1947383	0	-0.002197393	-0.09499877	-0.001184275	0	0
8.830766	0.01718252	0.1946842	-0.001584215	-0.003258162	-0.04797187	-0.03212131	0	0
8.847293	0.01718252	0.1946481	0	-0.002182811	0.04781308	0.03245508	0	0
8.863859	0.01715621	0.1946301	-0.001588046	-0.00108928	-0.0479867	0.03304376	0	0
8.880425	0.0171299	0.194612	-0.001588046	-0.00108838	0	2.714626E-05	0	0
8.896992	0.0171299	0.194612	0	0	0.04793007	0.03284927	0	0
8.913559	0.0171299	0.194612	0	0	0	0	0	0
8.930125	0.0171036	0.194594	-0.001588046	-0.00108928	-0.04792869	-0.03287547	0	0
8.946692	0.0171036	0.194594	0	0	0.04793007	0.03287641	0	0
8.963258	0.0171036	0.194594	0	0	0	0	0	0
8.979824	0.0171036	0.194594	0	0	0	0	0	0
8.99639	0.01707729	0.194612	-0.001588046	0.00108928	-0.04793007	0.03287641	0	0
9.012957	0.01707729	0.194612	0	0	0.04793007	-0.03287641	0	0
9.029524	0.01707729	0.194612	0	0	0	0	0	0
9.04609	0.01707729	0.194612	0	0	0	0	0	0
9.062656	0.01707729	0.194612	0	0	0	0	0	0
9.079223	0.01707729	0.194612	0	0	0	0	0	0
9.095949	0.01707729	0.194612	0	0	0	0	0	0
9.112356	0.01707729	0.194612	0	0	0	0	0	0
9.128922	0.01707729	0.194612	0	0	0	0	0	0
9.145489	0.01707729	0.194612	0	0	0	0	0	0
9.162055	0.0171036	0.194594	0.001588046	-0.00108928	0.04793007	-0.03287641	0	0
9.195188	0.0171036	0.194594	0	0	-0.03195338	0.02191761	0	0
9.212034	0.0171036	0.194594	0	0	0	0	0	0
9.228321	0.01707729	0.194576	-0.001615291	-0.001107053	-0.04875098	-0.03341188	0	0
9.244887	0.01707729	0.194576	0	0	0.04916704	0.03369704	0	0
9.261564	0.01707729	0.194576	0	0	0	0	0	0
9.373199	0.01707729	0.194576	0	0	0	0	0	0
9.389766	0.01707729	0.194576	0	0	0	0	0	0
9.406333	0.01705098	0.1945579	-0.001587954	-0.001089217	-0.04792593	-0.03287357	0	0
9.422899	0.01705098	0.1945579	0	0	0.04792593	0.03287357	0	0
9.439466	0.01705098	0.1945579	0	0	0	0	0	0
9.456032	0.01705098	0.1945579	0	0	0	0	0	0
9.472713	0.01705098	0.1945579	0	0	0	0	0	0
9.489224	0.01705098	0.1945579	0	0	0	0	0	0
9.505736	0.01705098	0.1945579	0	0	0	0	0	0
9.522299	0.01705098	0.1945579	0	0	0	0	0	0
9.555431	0.01705098	0.1945579	0	0	0	0	0	0
9.571998	0.01705098	0.1945579	0	0	0	0	0	0
9.588795	0.01705098	0.1945579	0	0	0	0	0	0
9.605131	0.01705098	0.1945579	0	0	0	0	0	0
9.6217	0.01705098	0.1945579	0	0	0	0	0	0
9.638267	0.01705098	0.1945579	0	0	0	0	0	0
9.654842	0.01702467	0.1945399	-0.001587132	-0.001087754	-0.0478887	-0.03282092	0	0
9.671853	0.01702467	0.1945399	0	0	0.04725505	0.03238664	0	0
9.687963	0.01702467	0.1945399	0	0	0	0	0	0
9.704531	0.01702467	0.1945399	0	0	0	0	0	0
9.721097	0.01702467	0.1945399	0	0	0	0	0	0
9.737663	0.01702467	0.1945399	0	0	0	0	0	0
9.754231	0.01702467	0.1945399	0	0	0	0	0	0
9.770798	0.01702467	0.1945399	0	0	0	0	0	0
9.787434	0.01702467	0.1945399	0	0	0	0	0	0
9.80393	0.01699836	0.1945218	-0.00159486	-0.001093876	-0.04813574	-0.03301516	0	0
9.820498	0.01702467	0.1945038	0.001588066	-0.001088317	0.09626595	0.000168131	0	0
9.837064	0.01702467	0.1945038	0	0	-0.04792932	0.03284643	0	0
9.85363	0.01702467	0.1945038	0	0	0	0	0	0
9.870196	0.01699836	0.1944858	-0.001588158	-0.00108928	-0.04793346	-0.03287641	0	0
9.887004	0.01699836	0.1944858	0	0	0.04758692	0.03263873	0	0
9.903517	0.01699836	0.1944858	0	0	0	0	0	0
9.919896	0.01697205	0.1944677	-0.001606168	-0.001100801	-0.04883124	-0.03346689	0	0
9.936539	0.01697205	0.1944677	0	0	0.04863944	0.03333544	0	0
9.95303	0.01694575	0.1944497	-0.001595301	-0.001094256	-0.04814765	-0.03302566	0	0
9.969596	0.01694575	0.1944497	0	0	0.04825877	0.03310189	0	0
9.986162	0.01694575	0.1944497	0	0	0	0	0	0
10.00273	0.01694575	0.1944497	0	0	0	0	0	0
10.0196	0.01694575	0.1944497	0	0	0	0	0	0
10.1187	0.01691944	0.1944316	-0.000265474	-0.0001820952	-0.002289224	-0.001570236	0	0
10.13568	0.01691944	0.1943956	0	-0.002124221	0.002286968	-0.01673074	0	0
10.15183	0.01691944	0.1943956	0	0	0	0.06410911	0	0
10.1684	0.01691944	0.1943956	0	0	0	0	0	0
10.18496	0.01689313	0.1943775	-0.001588046	-0.00108838	-0.04793007	-0.03284927	0	0
10.20153	0.01689313	0.1943775	0	0	0.04793007	0.03284927	0	0
10.2181	0.01686682	0.1943595	-0.001588046	-0.00108928	-0.04793007	-0.03287641	0	0
10.23466	0.01686682	0.1943595	0	0	0.04792869	0.03287547	0	0
10.26977	0.0168142	0.1943234	-0.001498597	-0.001027464	-0.02899836	-0.01988178	0	0
10.28632	0.0167879	0.1943054	-0.001589968	-0.001089697	-0.001768781	-0.001204734	0	0
10.30289	0.01676159	0.1942873	-0.001587954	-0.001089217	6.081015E-05	1.451259E-05	0	0
10.31945	0.01670897	0.1942513	-0.003176091	-0.00217766	-0.04793145	-0.03285022	0	0
10.33602	0.01657743	0.1941611	-0.007940453	-0.005444599	-0.143797	-0.09860209	0	0
10.35259	0.01626172	0.1939085	-0.01905699	-0.01524452	-0.3355172	-0.2957791	0	0
10.36915	0.01513042	0.1931328	-0.06828938	-0.04682733	-1.485922	-0.953226	0	0
10.41888	0.01499888	0.1930426	-0.002645439	-0.001813857	0.9902128	0.6790103	0	0
10.43542	0.01502519	0.1930245	0.001590539	-0.001090912	0.06392194	0.01090941	0	0
10.45199	0.01502519	0.1930245	0	0	-0.04804127	0.03295036	0	0
10.46855	0.01502519	0.1930245	0	0	0	0	0	0
10.48512	0.0150515	0.1930065	0.001588066	-0.001089217	0.0479307	-0.03287452	0	0
10.50169	0.0150515	0.1930065	0	0	-0.04792932	0.03287357	0	0
10.51826	0.0150515	0.1930065	0	0	0	0	0	0
10.53482	0.0150515	0.1930065	0	0	0	0	0	0
10.55139	0.0150515	0.1930065	0	0	0	0	0	0
10.56795	0.0150515	0.1930065	0	0	0	0	0	0
10.58452	0.0150515	0.1930065	0	0	0	0	0	0
10.60109	0.0150515	0.1930065	0	0	0	0	0	0
10.61765	0.0150515	0.1930065	0	0	0	0	0	0
10.63422	0.0150515	0.1930065	0	0	0	0	0	0
10.65079	0.0150515	0.1930065	0	0	0	0	0	0
10.66735	0.0150515	0.1930065	0	0	0	0	0	0
10.68392	0.0150515	0.1930065	0	0	0	0	0	0
10.70049	0.0150515	0.1930065	0	0	0	0	0	0
10.71709	0.0150515	0.1930065	0	0	0	0	0	0
10.73364	0.0150515	0.1930065	0	0	0	0	0	0
10.75061	0.0150515	0.1930065	0	0	0	0	0	0
10.78332	0.0150515	0.1930065	0	0	0	0	0	0
10.80015	0.0150515	0.1930065	0	0	0	0	0	0
10.81666	0.0150515	0.1930065	0	0	0	0	0	0
10.83302	0.0150515	0.1930065	0	0	0	0	0	0
10.84959	0.0150515	0.1930065	0	0	0	0	0	0
10.8662	0.0150515	0.1930065	0	0	0	0	0	0
10.88272	0.0150515	0.1930065	0	0	0	0	0	0
10.89972	0.0150515	0.1930065	0	0	0	0	0	0
10.91623	0.0150515	0.1930065	0	0	0	0	0	0
10.93242	0.0150515	0.1930065	0	0	0	0	0	0
10.96555	0.0150515	0.1930065	0	0	0	0	0	0
10.98212	0.0150515	0.1930065	0	0	0	0	0	0
10.99869	0.0150515	0.1930065	0	0	0	0	0	0
11.0153	0.0150515	0.1930065	0	0	0	0	0	0
11.03182	0.0150515	0.1930065	0	0	0	0	0	0
11.04839	0.0150515	0.1930065	0	0	0	0	0	0
11.06495	0.0150515	0.1930065	0	0	0	0	0	0
11.08152	0.0150515	0.1930065	0	0	0	0	0	0
11.09809	0.0150515	0.1930065	0	0	0	0	0	0
11.11487	0.0150515	0.1930065	0	0	0	0	0	0
11.13122	0.0150515	0.1930065	0	0	0	0	0	0
11.14779	0.0150515	0.1930065	0	0	0	0	0	0
11.16441	0.0150515	0.1930065	0	0	0	0	0	0
11.18489	0.0150515	0.1930065	0	0	0	0	0	0
11.20145	0.0150515	0.1930065	0	0	0	0	0	0
11.21802	0.0150515	0.1930065	0	0	0	0	0	0
11.23459	0.0150515	0.1930065	0	0	0	0	0	0
11.31742	0.0150515	0.1930065	0	0	0	0	0	0
11.33402	0.0150515	0.1930065	0	0	0	0	0	0
11.35055	0.0150515	0.1930065	0	0	0	0	0	0
11.36712	0.0150515	0.1930065	0	0	0	0	0	0
11.38369	0.0150515	0.1930065	0	0	0	0	0	0
11.40025	0.0150515	0.1930065	0	0	0	0	0	0
11.41708	0.0150515	0.1930065	0	0	0	0	0	0
11.43338	0.0150515	0.1930065	0	0	0	0	0	0
11.44995	0.0150515	0.1930065	0	0	0	0	0	0
11.46652	0.0150515	0.1930065	0	0	0	0	0	0
11.48308	0.0150515	0.1930065	0	0	0	0	0	0
11.49965	0.0150515	0.1930065	0	0	0	0	0	0
11.51622	0.0150515	0.1930065	0	0	0	0	0	0
11.53278	0.0150515	0.1930065	0	0	0	0	0	0
11.54935	0.0150515	0.1930065	0	0	0	0	0	0
11.56592	0.0150515	0.1930065	0	0	0	0	0	0
11.58249	0.0150515	0.1930065	0	0	0	0	0	0
11.59921	0.0150515	0.1930065	0	0	0	0	0	0
11.61562	0.0150515	0.1930065	0	0	0	0	0	0
11.63225	0.0150515	0.1930065	0	0	0	0	0	0
11.64875	0.0150515	0.1930065	0	0	0	0	0	0
11.66576	0.0150515	0.1930065	0	0	0	0	0	0
11.68188	0.0150515	0.1930065	0	0	0	0	0	0
11.69878	0.0150515	0.1930065	0	0	0	0	0	0
11.71502	0.0150778	0.1929884	0.001620091	-0.001111221	0.04889164	-0.0335348	0	0
11.73181	0.01513042	0.1929523	0.003134988	-0.002149325	0.04587281	-0.03143499	0	0
11.74832	0.01557769	0.1926095	0.02708729	-0.02076084	0.719362	-0.5589616	0	0
11.76472	0.01694575	0.1916713	0.08341651	-0.05721201	1.711497	-1.107526	0	0
11.78134	0.0189188	0.1903177	0.1186904	-0.08142193	1.068135	-0.7331042	0	0
11.79785	0.0240743	0.1865988	0.3122471	-0.2252426	5.841552	-4.340516	0	0
11.81442	0.0293074	0.1827152	0.3159069	-0.2344398	0.1106477	-0.2780595	0	0
11.83099	0.03682545	0.1769671	0.4537906	-0.3469574	4.161578	-3.395984	0	0
11.84755	0.043315	0.1724265	0.3917325	-0.2740856	-1.872971	2.199339	0	0
11.86412	0.05145454	0.1668142	0.4913321	-0.3387794	3.006095	-1.952576	0	0
11.88068	0.05528571	0.1641692	0.2312499	-0.1596499	-7.849522	5.406296	0	0
11.89725	0.05578417	0.1638249	0.03008876	-0.02078266	-6.07123	4.191141	0	0
11.91394	0.0558104	0.1638068	0.001572055	-0.001085838	-0.8575507	0.5923203	0	0
11.93044	0.05586287	0.1637706	0.003178808	-0.002195643	0.04840691	-0.03343528	0	0
11.94696	0.05641376	0.16339	0.0333479	-0.023037	0.9135288	-0.6310822	0	0
11.96352	0.05764659	0.1625382	0.07446921	-0.05145386	1.243298	-0.8591805	0	0
11.98008	0.05984949	0.1610155	0.1329751	-0.09191415	1.766423	-1.221586	0	0
11.99665	0.06016415	0.160798	0.01899381	-0.01313252	-3.44016	2.377771	0	0
12.07948	0.06024281	0.1607436	0.0009496122	-0.0006566109	-0.1815319	0.1255127	0	0
12.12918	0.06024281	0.1607798	0	0.0007297703	-0.007165096	0.01046064	0	0
12.14937	0.06024281	0.1607798	0	0	0	-0.01044283	0	0
12.16611	0.06024281	0.1607798	0	0	0	0	0	0
12.18264	0.06024281	0.1607798	0	0	0	0	0	0
12.19914	0.06024281	0.1607798	0	0	0	0	0	0
12.21565	0.06026903	0.160798	0.001587901	0.001097251	0.04810432	0.03324043	0	0
12.2322	0.06026903	0.160798	0	0	-0.0480197	-0.03318196	0	0
12.24877	0.06026903	0.160798	0	0	0	0	0	0
12.26534	0.06026903	0.160798	0	0	0	0	0	0
12.2822	0.06026903	0.160798	0	0	0	0	0	0
12.29871	0.06026903	0.160798	0	0	0	0	0	0
12.31522	0.06021659	0.1608342	-0.003175576	0.002196307	-0.09616847	0.06651248	0	0
12.3316	0.06021659	0.1608342	0	0	0.0965253	-0.06675927	0	0
12.34817	0.06021659	0.1608342	0	0	0	0	0	0
12.36476	0.06019036	0.1608161	-0.00158078	-0.001093229	-0.04768197	-0.03297568	0	0
12.3813	0.06019036	0.1608161	0	0	0.04770942	0.03299467	0	0
12.39787	0.06019036	0.1608161	0	0	0	0	0	0
12.41444	0.06019036	0.1608161	0	0	0	0	0	0
12.4313	0.06019036	0.1608161	0	0	0	0	0	0
12.44781	0.06024281	0.1607798	0.00317521	-0.002195151	0.09512439	-0.06576334	0	0
12.46414	0.06029525	0.1607436	0.003213246	-0.00222236	0.001158376	-0.0008286359	0	0
12.48083	0.06108182	0.1601997	0.04710053	-0.0325706	1.329111	-0.919086	0	0
12.49735	0.06241881	0.1592749	0.08096687	-0.05600455	1.019682	-0.7055728	0	0
12.51386	0.06813123	0.1554291	0.3459774	-0.2329229	8.024824	-5.357292	0	0
12.5304	0.0762728	0.1498555	0.4921344	-0.336908	4.421717	-3.145884	0	0
12.54697	0.08586729	0.1434764	0.5791243	-0.3850431	2.627251	-1.453765	0	0
12.56353	0.1007107	0.134322	0.896108	-0.5526567	9.567415	-5.059023	0	0
12.5801	0.1082593	0.1295475	0.4556304	-0.28819	-13.29479	7.982307	0	0
12.59667	0.1188063	0.1226878	0.6366538	-0.4140742	5.463454	-3.7993	0	0
12.61343	0.1352482	0.1165317	0.9810865	-0.3673311	10.3355	1.402635	0	0
12.6298	0.1453622	0.1155811	0.6176257	-0.05804891	-10.96927	9.334155	0	0
12.64638	0.1668296	0.1150692	1.29503	-0.03088234	20.5571	0.8244207	0	0
12.66293	0.1877619	0.1142464	1.264427	-0.0497045	-0.9236673	-0.5681028	0	0
12.6795	0.2055299	0.1132222	1.072537	-0.06182403	-5.793572	-0.3659159	0	0
12.69607	0.2154958	0.1108804	0.6015791	-0.1413603	-14.21437	-2.400548	0	0
12.71263	0.224093	0.1080797	0.5189558	-0.1690601	-2.49372	-0.8360274	0	0
12.72951	0.2309616	0.1034448	0.4070448	-0.2746694	-3.346564	-3.158118	0	0
12.74602	0.233927	0.1012632	0.1795909	-0.1321239	-6.812803	4.269588	0	0
12.76253	0.2366395	0.09926399	0.1642877	-0.1210827	-0.4634141	0.3343512	0	0
12.84516	0.2413345	0.09583215	0.05681579	-0.04153016	-1.083977	0.8023785	0	0
12.86173	0.2413097	0.0958505	-0.001497647	0.001108169	-0.5878299	0.4298167	0	0
12.87861	0.2412352	0.09590559	-0.004410311	0.003263153	-0.08708476	0.06443115	0	0
12.89512	0.2411856	0.0959423	-0.003005155	0.002223634	0.04208067	-0.03113082	0	0
12.91143	0.2411608	0.09596066	-0.001522295	0.001125731	0.04518193	-0.03345251	0	0
12.92814	0.241136	0.09597902	-0.001484402	0.001098368	0.001147527	-0.0008286299	0	0
12.94466	0.2410863	0.09601574	-0.003005884	0.002223506	-0.04579058	0.03386218	0	0
12.96113	0.2410367	0.09605245	-0.003012288	0.002228912	-0.0001941521	0.0001639063	0	0
12.9777	0.2410367	0.09605245	0	0	0.09117345	-0.06746288	0	0
12.99426	0.2410119	0.09607081	-0.00149846	0.001108105	-0.04522492	0.03344364	0	0
13.01083	0.2409871	0.09608917	-0.001497647	0.001108169	2.454547E-05	1.92541E-06	0	0
13.0274	0.2409871	0.09608917	0	0	0.04520167	-0.03344652	0	0
13.04713	0.2409871	0.09608917	0	0	0	0	0	0
13.0637	0.2409871	0.09608917	0	0	0	0	0	0
13.08031	0.2409871	0.09605245	0	-0.002210484	0	-0.06662242	0	0
13.09684	0.2409871	0.09605245	0	0	0	0.06671062	0	0
13.1134	0.2409871	0.09605245	0	0	0	0	0	0
13.12997	0.2409871	0.09605245	0	0	0	0	0	0
13.14654	0.2409871	0.09605245	0	0	0	0	0	0
13.1631	0.2409871	0.09605245	0	0	0	0	0	0
13.17967	0.2409871	0.09605245	0	0	0	0	0	0
13.19624	0.2409871	0.09605245	0	0	0	0	0	0
13.2128	0.2409871	0.09605245	0	0	0	0	0	0
13.22937	0.2409871	0.09605245	0	0	0	0	0	0
13.24593	0.2409871	0.09605245	0	0	0	0	0	0
13.2625	0.2409871	0.09605245	0	0	0	0	0	0
13.27907	0.2409871	0.09605245	0	0	0	0	0	0
13.29563	0.2409623	0.09603409	-0.001498546	-0.001108169	-0.04522752	-0.03344556	0	0
13.3122	0.2409623	0.09603409	0	0	0.04522882	0.03344652	0	0
13.32893	0.2409623	0.09603409	0	0	0	0	0	0
13.34533	0.2409623	0.09603409	0	0	0	0	0	0
13.37847	0.2409623	0.09603409	0	0	0	0	0	0
13.39503	0.2409375	0.09605245	-0.001497647	0.001108169	-0.03013445	0.02229768	0	0
13.4116	0.2409126	0.09603409	-0.001498546	-0.001108169	-2.714977E-05	-0.06689305	0	0
13.42816	0.2409126	0.09603409	0	0	0.04522882	0.03344652	0	0
13.44473	0.2409126	0.09603409	0	0	0	0	0	0
13.4613	0.2409375	0.09601574	0.001498546	-0.001108169	0.04522882	-0.03344652	0	0
13.47786	0.2409375	0.09601574	0	0	-0.04522882	0.03344652	0	0
13.49454	0.2409375	0.09601574	0	0	0	0	0	0
13.51105	0.2409375	0.09601574	0	0	0	0	0	0
13.52756	0.2409126	0.09599738	-0.00150348	-0.001111817	-0.04552975	-0.03366905	0	0
13.54413	0.2409126	0.09599738	0	0	0.0454523	0.03361178	0	0
13.5607	0.2408878	0.09597902	-0.001497647	-0.001108169	-0.04520167	-0.03344652	0	0
13.57726	0.240863	0.09596066	-0.001498546	-0.001108169	-2.714977E-05	0	0	0
13.59383	0.240863	0.09596066	0	0	0.04522882	0.03344652	0	0
13.6104	0.2408382	0.0959423	-0.001497561	-0.001108105	-0.04519777	-0.03344364	0	0
13.62696	0.2408134	0.09592395	-0.001498288	-0.001107977	-2.193654E-05	3.846975E-06	0	0
13.64365	0.2408134	0.09592395	0	0	0.04505502	0.033318	0	0
13.6601	0.2408134	0.09592395	0	0	0	0	0	0
13.67667	0.2408134	0.09592395	0	0	0	0	0	0
13.69323	0.2407885	0.09590559	-0.001497992	-0.001108424	-0.04521079	-0.03345327	0	0
13.70979	0.2407885	0.09590559	0	0	0.04521729	0.03345808	0	0
13.72636	0.2407885	0.09590559	0	0	0	0	0	0
13.74293	0.2407885	0.09590559	0	0	0	0	0	0
13.77624	0.2407885	0.09590559	0	0	0	0	0	0
13.79275	0.2407885	0.09590559	0	0	0	0	0	0
13.80926	0.2407637	0.09588722	-0.001503306	-0.00111214	-0.04551923	-0.03367494	0	0
13.82577	0.2407389	0.09586886	-0.00150374	-0.00111201	-1.314934E-05	3.937752E-06	0	0
13.84233	0.2407389	0.09586886	0	0	0.04547722	0.03363021	0	0
13.85889	0.2407389	0.09586886	0	0	0	0	0	0
13.87546	0.2406893	0.09590559	-0.002996021	0.00221666	-0.0904227	0.06690085	0	0
13.89518	0.240441	0.09608917	-0.01258735	0.009309411	-0.2643164	0.1954609	0	0
13.91175	0.2396714	0.09665823	-0.04645766	0.03434855	-0.9333928	0.6900249	0	0
13.92834	0.2358684	0.09946578	-0.2291634	0.1691816	-5.509471	4.065877	0	0
13.94488	0.2299888	0.1038297	-0.355507	0.2638613	-3.813169	2.85752	0	0
13.96145	0.222266	0.1094894	-0.4661748	0.3416384	-3.342942	2.349415	0	0
13.97801	0.2168264	0.1134599	-0.3283571	0.2396788	4.159586	-3.077324	0	0
13.99458	0.2064628	0.1209897	-0.6255811	0.4545228	-8.970755	6.484378	0	0
14.01115	0.1983569	0.1268485	-0.4892751	0.3536366	4.113841	-3.04484	0	0
14.02771	0.1900722	0.1328099	-0.5000935	0.3598535	-0.3265091	0.1876331	0	0
14.04443	0.1764611	0.1425489	-0.8143964	0.5827149	-9.444362	6.696671	0	0
14.06085	0.1705634	0.1467486	-0.3591717	0.2557625	13.7391	-9.867726	0	0
14.07745	0.1587322	0.1551387	-0.7127747	0.5054681	-10.70905	7.562467	0	0
14.09398	0.1497134	0.1614687	-0.5454439	0.3828296	5.050199	-3.701342	0	0
14.11055	0.1377536	0.1698744	-0.7219396	0.5073965	-5.332021	3.763225	0	0
14.12711	0.1295338	0.175484	-0.4961763	0.3386166	6.813942	-5.094079	0	0
14.14368	0.1186246	0.1828417	-0.6585149	0.4441337	-4.899672	3.184696	0	0
14.16025	0.1159772	0.1845037	-0.1598001	0.1003213	15.05168	-10.37658	0	0
14.17681	0.1068286	0.1895597	-0.5522427	0.3051943	-11.84428	6.183259	0	0
14.19338	0.1000074	0.1941791	-0.411754	0.2788466	4.240203	-0.7952235	0	0
14.20995	0.09435061	0.1980925	-0.3414622	0.2362279	2.121532	-1.286307	0	0
14.22651	0.09302025	0.1989759	-0.08030536	0.05332433	7.882182	-5.52036	0	0
14.24308	0.09322895	0.1987956	0.01259822	-0.010882	2.803997	-1.937863	0	0
14.25965	0.09322895	0.1987956	0	0	-0.3802152	0.3284194	0	0
14.27621	0.09322895	0.1987956	0	0	0	0	0	0
14.29278	0.0931246	0.1987235	-0.006299112	-0.004352621	-0.190124	-0.1313737	0	0
14.30935	0.09283762	0.1985613	-0.01732179	-0.009793958	-0.3326745	-0.1642246	0	0
14.32591	0.092655	0.198399	-0.01102412	-0.009794521	0.1900694	-1.700545E-05	0	0
14.34248	0.09260281	0.198363	-0.003150006	-0.002175861	0.2376549	0.2299449	0	0
14.35905	0.09252454	0.1983089	-0.004725009	-0.00326514	-0.04753642	-0.03287641	0	0
14.37566	0.09247236	0.1982728	-0.003141238	-0.002171011	0.04773785	0.03297911	0	0
14.39218	0.09244627	0.1982548	-0.001579094	-0.001091207	0.04714696	0.0325895	0	0
14.40874	0.09239408	0.1982187	-0.003150006	-0.00217676	-0.04747445	-0.03280644	0	0
14.42531	0.09239408	0.1982187	0	0	0.09507284	0.06569853	0	0
14.4422	0.09236799	0.1982367	-0.00154468	0.001067426	-0.04616807	0.0319037	0	0
14.45844	0.09231581	0.1982728	-0.003212891	0.002220216	-0.05034816	0.03479227	0	0
14.47501	0.09226362	0.1983089	-0.003150006	0.00217676	0.001916754	-0.001324535	0	0
14.49174	0.08928828	0.2003639	-0.1778923	0.1228671	-5.248806	3.625226	0	0
14.50814	0.08581504	0.2027607	-0.2116922	0.1460852	-1.020143	0.7007636	0	0
14.52471	0.076953	0.2088666	-0.5349447	0.3685741	-9.803464	6.747548	0	0
14.55784	0.06805264	0.2146261	-0.2686211	0.1738259	5.358646	-3.91849	0	0
14.57441	0.06603543	0.2156156	-0.1217663	0.05972958	2.954837	-2.295711	0	0
14.59098	0.05969216	0.2159754	-0.3829024	0.02171903	-7.881557	-1.147227	0	0
14.60754	0.05014215	0.2145361	-0.5764731	-0.08687972	-5.842311	-3.277705	0	0
14.62411	0.03427605	0.2143562	-0.9576797	-0.01085979	-11.50517	2.294352	0	0
14.64068	0.02996471	0.2144282	-0.2602475	0.004344525	21.04915	0.4588803	0	0
14.7239	-0.01407802	0.2036616	-0.5291991	-0.1293666	-2.695135	-1.339904	0	0
14.74007	-0.015604	0.2025805	-0.0943514	-0.06684227	4.374786	0.6290259	0	0
14.75664	-0.015604	0.2025805	0	0	2.881787	2.041572	0	0
14.77343	-0.01549876	0.2025445	0.006267015	-0.002145687	0.1878628	-0.06432006	0	0
14.84571	-0.01528828	0.2024003	0.002911971	-0.001994383	-0.03766656	0.001698667	0	0
14.86558	-0.01520935	0.2023463	0.003972864	-0.002721174	0.01151307	-0.007887317	0	0
14.88215	-0.01513042	0.2022922	0.004762828	-0.003262214	0.02167913	-0.01484786	0	0
14.89872	-0.01510411	0.2022742	0.001588432	-0.001087668	-0.09580071	0.06562604	0	0
14.91528	-0.0150778	0.2022562	0.001588158	-0.001087481	-8.282326E-06	5.671478E-06	0	0
14.93185	-0.01502519	0.2022201	0.003176077	-0.002175735	0.04792487	-0.03284454	0	0
14.94842	-0.01502519	0.2022201	0	0	-0.09585695	0.06566571	0	0
14.96507	-0.01497257	0.2021841	0.00315922	-0.00216415	0.09509366	-0.06514168	0	0
14.98158	-0.01494626	0.2021661	0.001593662	-0.00109125	-0.04720515	0.03235039	0	0
14.99812	-0.01491995	0.2021481	0.001591237	-0.00108955	-7.339931E-05	5.142602E-05	0	0
15.01468	-0.01489364	0.20213	0.001588066	-0.001087418	-9.578176E-05	6.44219E-05	0	0
15.03125	-0.01486733	0.202112	0.001588158	-0.00108838	2.758115E-06	-2.903926E-05	0	0
15.04782	-0.01486733	0.202112	0	0	-0.04793346	0.03284927	0	0
15.06438	-0.01486733	0.202112	0	0	0	0	0	0
15.08095	-0.01484102	0.202094	0.001588158	-0.001087481	0.04793346	-0.03282212	0	0
15.09751	-0.01484102	0.202094	0	0	-0.04793346	0.03282212	0	0
15.11408	-0.01484102	0.202094	0	0	0	0	0	0
15.13065	-0.0147884	0.202058	0.003176133	-0.002175735	0.09585588	-0.06566382	0	0
15.14721	-0.01476209	0.2020399	0.001588249	-0.001087543	-0.04792518	0.03284359	0	0
15.16378	-0.01476209	0.2020399	0	0	-0.04793622	0.03282401	0	0
15.18035	-0.01476209	0.2020399	0	0	0	0	0	0
15.19691	-0.01473578	0.2020219	0.001588214	-0.001087481	0.04793515	-0.03282212	0	0
15.21348	-0.01465685	0.2019318	0.004764474	-0.005439202	0.09586521	-0.1313428	0	0
15.23026	-0.01449898	0.2018237	0.009409941	-0.006445057	0.1393263	-0.03016749	0	0
15.24677	-0.01420957	0.2016255	0.01752658	-0.01200458	0.2438237	-0.1670081	0	0
15.26318	-0.01397278	0.2014633	0.01442831	-0.009882184	-0.09410157	0.06446235	0	0
15.27975	-0.01373598	0.2013011	0.01429393	-0.009790923	-0.004075073	0.002767304	0	0
15.29631	-0.01344656	0.2011028	0.01746941	-0.0119661	0.09583892	-0.0656487	0	0
15.31288	-0.01292033	0.2007424	0.03176662	-0.02175986	0.4315155	-0.2955934	0	0
15.32945	-0.01223623	0.2002738	0.04129492	-0.02828709	0.2875896	-0.1970092	0	0
15.34601	-0.01223623	0.2002738	0	0	-1.246355	0.8537552	0	0
15.36285	-0.01223623	0.2002738	0	0	0	0	0	0
15.37936	-0.01223623	0.2002738	0	0	0	0	0	0
15.39587	-0.01223623	0.2002738	0	0	0	0	0	0
15.41238	-0.01223623	0.2002738	0	0	0	0	0	0
15.44541	-0.01207836	0.2001656	0.004779421	-0.003274231	0.09646942	-0.06608815	0	0
15.46198	-0.0117363	0.1999313	0.02064774	-0.01414444	0.3199403	-0.2191675	0	0
15.49511	-0.01142056	0.199751	0.009529819	-0.005440101	-0.2237059	0.1751418	0	0
15.51168	-0.01131531	0.1996789	0.00635325	-0.004352621	-0.06391638	0.02188141	0	0
15.52824	-0.01121006	0.1996068	0.00635325	-0.004352621	0	0	0	0
15.54497	-0.01121006	0.1996068	0	0	-0.1908133	0.1307265	0	0
15.56138	-0.01115743	0.1995708	0.003208048	-0.002197365	0.09682188	-0.06631852	0	0
15.57794	-0.01113112	0.1995528	0.001588327	-0.00108838	-0.0491265	0.03363575	0	0
15.59451	-0.01113112	0.1995528	0	0	-0.04793717	0.03284832	0	0
15.61115	-0.01110481	0.1995708	0.001581408	0.001083639	0.04762417	0.03263384	0	0
15.62772	-0.01107849	0.1995888	0.001588235	0.001088317	0.0002056078	0.0001408897	0	0
15.64428	-0.01099956	0.1996068	0.004764649	0.001087418	0.09586436	-2.714469E-05	0	0
15.66085	-0.01094693	0.1996068	0.003176653	0	-0.04792719	-0.03281928	0	0
15.67742	-0.01078906	0.1994987	0.009528862	-0.00652773	0.1917101	-0.1970073	0	0
15.69792	-0.009604968	0.1986875	0.05774909	-0.03956395	1.300712	-0.8911325	0	0
15.71459	-0.00449997	0.1952253	0.3061995	-0.2076627	6.683061	-4.521685	0	0
15.73111	0.004947328	0.1887835	0.5721502	-0.3901322	8.014416	-5.498712	0	0
15.74762	0.01257828	0.1836185	0.462015	-0.3127084	-3.334541	2.344145	0	0
15.76419	0.02144408	0.1777084	0.5351713	-0.3567548	2.211299	-1.331391	0	0
15.78076	0.02623083	0.1745977	0.2889285	-0.1877662	-7.431838	5.100231	0	0
15.79765	0.0279401	0.1734579	0.1011571	-0.06745435	-5.611074	3.595217	0	0
15.81389	0.03017505	0.1720646	0.1376596	-0.08582094	1.101713	-0.5543365	0	0
15.83046	0.03049055	0.1718474	0.01904243	-0.01310762	-3.615988	2.21663	0	0
15.84702	0.03054313	0.1718474	0.003174067	0	-0.4789083	0.3955889	0	0
15.86359	0.03054313	0.1718474	0	0	-0.09579904	0	0	0
15.88016	0.03054313	0.1718474	0	0	0	0	0	0
15.89672	0.03054313	0.1718474	0	0	0	0	0	0
15.91329	0.03054313	0.1718474	0	0	0	0	0	0
15.93025	0.03054313	0.1718474	0	0	0	0	0	0
15.94676	0.03054313	0.1718474	0	0	0	0	0	0
15.96327	0.03054313	0.1718474	0	0	0	0	0	0
15.97978	0.03051684	0.1718655	-0.001592258	0.001095573	-0.04821543	0.03317522	0	0
15.99629	0.03051684	0.1718655	0	0	0.04821543	-0.03317522	0	0
16.01269	0.03051684	0.1718655	0	0	0	0	0	0
16.02926	0.03051684	0.1718655	0	0	0	0	0	0
16.04583	0.03049055	0.1718836	-0.001586394	0.001092437	-0.04786921	0.03296413	0	0
16.06239	0.03049055	0.1718836	0	0	0.04787748	-0.03296982	0	0
16.07896	0.03046426	0.1719017	-0.001587125	0.001092041	-0.04791056	0.03296545	0	0
16.09552	0.03046426	0.1719017	0	0	0.04790228	-0.03295976	0	0
16.11238	0.03046426	0.1719017	0	0	0	0	0	0
16.12866	0.03046426	0.1719017	0	0	0	0	0	0
16.1454	0.03046426	0.1719017	0	0	0	0	0	0
16.1618	0.03046426	0.1719017	0	0	0	0	0	0
16.17836	0.03049055	0.1718836	0.001587856	-0.001092544	0.04817673	-0.03314859	0	0
16.19493	0.03049055	0.1718836	0	0	-0.04793539	0.03298254	0	0
16.21149	0.03049055	0.1718836	0	0	0	0	0	0
16.22806	0.03049055	0.1718836	0	0	0	0	0	0
16.24463	0.03049055	0.1718836	0	0	0	0	0	0
16.26119	0.03049055	0.1718836	0	0	0	0	0	0
16.27776	0.03049055	0.1718836	0	0	0	0	0	0
16.29433	0.03049055	0.1718836	0	0	0	0	0	0
16.31089	0.03049055	0.1718836	0	0	0	0	0	0
16.32746	0.03049055	0.1718836	0	0	0	0	0	0
16.34403	0.03049055	0.1718836	0	0	0	0	0	0
16.3606	0.03049055	0.1718836	0	0	0	0	0	0
16.37716	0.03049055	0.1718836	0	0	0	0	0	0
16.39373	0.03051684	0.1718655	0.001586942	-0.001092815	0.04789401	-0.03298121	0	0
16.4103	0.03051684	0.1718655	0	0	-0.04789401	0.03298121	0	0
16.42686	0.03051684	0.1718655	0	0	0	0	0	0
16.46013	0.03051684	0.1718655	0	0	0	0	0	0
16.48095	0.03051684	0.1718655	0	0	0	0	0	0
16.49752	0.03051684	0.1718655	0	0	0	0	0	0
16.51408	0.03051684	0.1718655	0	0	0	0	0	0
16.53068	0.03051684	0.1718655	0	0	0	0	0	0
16.54722	0.03051684	0.1718655	0	0	0	0	0	0
16.56378	0.03051684	0.1718655	0	0	0	0	0	0
16.58035	0.03051684	0.1718655	0	0	0	0	0	0
16.59692	0.03051684	0.1718655	0	0	0	0	0	0
16.61349	0.03051684	0.1718655	0	0	0	0	0	0
16.63005	0.03051684	0.1718655	0	0	0	0	0	0
16.64662	0.03051684	0.1718655	0	0	0	0	0	0
16.66328	0.03051684	0.1718655	0	0	0	0	0	0
16.67979	0.03051684	0.1718655	0	0	0	0	0	0
16.69632	0.03049055	0.1718474	-0.001590054	-0.001094056	-0.04812367	-0.03311209	0	0
16.71289	0.03049055	0.1718474	0	0	0.04803217	0.03304913	0	0
16.72945	0.03049055	0.1718474	0	0	0	0	0	0
16.74602	0.03049055	0.1718474	0	0	0	0	0	0
16.76258	0.03049055	0.1718474	0	0	0	0	0	0
16.77915	0.03049055	0.1718474	0	0	0	0	0	0
16.79572	0.03049055	0.1718474	0	0	0	0	0	0
16.81238	0.03049055	0.1718474	0	0	0	0	0	0
16.8289	0.03049055	0.1718474	0	0	0	0	0	0
16.84542	0.03049055	0.1718474	0	0	0	0	0	0
16.86199	0.03049055	0.1718474	0	0	0	0	0	0
16.87855	0.03049055	0.1718474	0	0	0	0	0	0
16.89544	0.03049055	0.1718474	0	0	0	0	0	0
16.91195	0.03049055	0.1718474	0	0	0	0	0	0
16.92825	0.03049055	0.1718474	0	0	0	0	0	0
16.94497	0.03049055	0.1718474	0	0	0	0	0	0
16.96149	0.03049055	0.1718474	0	0	0	0	0	0
16.978	0.03049055	0.1718474	0	0	0	0	0	0
16.99452	0.03049055	0.1718474	0	0	0	0	0	0
17.01109	0.03051684	0.1718293	0.001586942	-0.001092815	0.04796027	-0.03302684	0	0
17.02765	0.03054313	0.171775	0.001586942	-0.003276645	0	-0.06590813	0	0
17.04422	0.03067459	0.1716483	0.007934711	-0.007647004	0.191576	-0.1318977	0	0
17.06079	0.03125298	0.1711777	0.03491194	-0.02840419	0.8141744	-0.626453	0	0
17.07736	0.03327718	0.1697115	0.1221812	-0.08850359	2.633791	-1.813804	0	0
17.09408	0.03769267	0.1665968	0.2639663	-0.1861994	4.258492	-2.934277	0	0
17.1106	0.04265832	0.1631363	0.3007314	-0.2095775	1.106071	-0.7033263	0	0
17.12711	0.0490396	0.1586945	0.3865098	-0.2690358	2.59762	-1.800568	0	0
17.14362	0.05187447	0.1566992	0.1716467	-0.1208145	-6.505928	4.488052	0	0
17.16019	0.05549559	0.1541587	0.2185712	-0.1533439	1.418389	-0.9832677	0	0
17.17714	0.05877433	0.1518895	0.1933857	-0.1338426	-0.7513202	0.5817537	0	0
17.19332	0.0607672	0.1505093	0.1231825	-0.08530841	-2.11886	1.464848	0	0
17.20989	0.0616848	0.1498736	0.05538681	-0.03837083	-2.070391	1.433411	0	0
17.24302	0.0616848	0.1498736	0	0	-1.114428	0.7720523	0	0
17.2597	0	0	-3.698182	-8.985357	-74.24232	-180.3842	0	0
17.27616	0.0616848	0.1498373	3.748766	9.106051	224.7493	545.9998	0	0
17.29272	0.0616848	0.149801	0	-0.002192825	-113.5235	-275.8241	0	0
17.30929	0.06165859	0.1497828	-0.001582333	-0.001096412	-0.04775489	0.03308979	0	0
17.32586	0.06165859	0.1496375	0	-0.008771298	0.04775489	-0.2316285	0	0
17.34495	0.06155372	0.1494559	-0.005492555	-0.009513924	-0.1540266	-0.02082529	0	0
17.41131	0.04110841	0.134923	-0.3081125	-0.2190107	-3.541517	-2.451711	0	0
17.42778	0.03335604	0.1295475	-0.4705338	-0.3262736	-1.960844	-1.29494	0	0
17.44435	0.02633601	0.1246773	-0.4237299	-0.2939626	1.416458	0.9778495	0	0
17.46092	0.01841897	0.1191814	-0.4778738	-0.3317335	-1.634066	-1.139928	0	0
17.47748	0.01273615	0.1153069	-0.3430154	-0.2338659	4.070033	2.95365	0	0
17.49405	0.0104733	0.1137343	-0.136586	-0.09492286	6.230052	4.193309	0	0
17.51088	0.01002598	0.1134234	-0.02658114	-0.01847577	3.293977	2.289125	0	0
17.52718	0.009341833	0.1129478	-0.04196186	-0.02916892	-0.4642177	-0.3227385	0	0
17.54375	0.007368288	0.1116123	-0.1191235	-0.08061149	-2.347389	-1.564972	0	0
17.56042	0.007236716	0.1115574	-0.007895324	-0.003293733	3.347045	2.326624	0	0
17.57693	0.007210401	0.1115757	-0.001593668	0.001108207	0.1899438	0.1326828	0	0
17.59345	0.007184087	0.111594	-0.001592565	0.00110744	3.341428E-05	-2.323706E-05	0	0
17.61002	0.007184087	0.111594	0	0	0.04812741	-0.03346691	0	0
17.62659	0.007184087	0.111594	0	0	0	0	0	0
17.64347	0.007184087	0.111594	0	0	0	0	0	0
17.65972	0.007184087	0.1116306	0	0.002252653	0	0.06798912	0	0
17.67649	0.007157772	0.1116489	-0.001568484	0.001090695	-0.04750101	-0.03518951	0	0
17.69285	0.007131458	0.1116672	-0.00160888	0.001118805	-0.00121921	0.0008484101	0	0
17.70942	0.007131458	0.1116672	0	0	0.04886833	-0.03398273	0	0
17.72598	0.007078829	0.1117038	-0.003176695	0.002208565	-0.09587284	0.06665462	0	0
17.74255	0.007052515	0.1117221	-0.001588347	0.001104507	0.04793642	-0.03332053	0	0
17.75912	0.006999886	0.1117587	-0.003176695	0.002209014	-0.04793642	0.0333341	0	0
17.77569	0.006999886	0.1117587	0	0	0.09587284	-0.06666819	0	0
17.79225	0.006973571	0.111777	-0.001588347	0.001104058	-0.04793642	0.03332052	0	0
17.80909	0.006973571	0.1118136	0	0.002173236	0.04754505	0.03200442	0	0
17.8256	0.006973571	0.1118136	0	0	0	-0.06516451	0	0
17.84195	0.006973571	0.1118136	0	0	0	0	0	0
17.85852	0.006973571	0.1118136	0	0	0	0	0	0
17.87509	0.006973571	0.1118136	0	0	0	0	0	0
17.89165	0.006973571	0.1118136	0	0	0	0	0	0
17.90822	0.006973571	0.1118136	0	0	0	0	0	0
17.92479	0.006973571	0.1118136	0	0	0	0	0	0
17.94136	0.006973571	0.1118136	0	0	0	0	0	0
17.9582	0.006973571	0.1118136	0	0	0	0	0	0
17.97471	0.006999886	0.1117953	0.001593668	-0.001108207	0.04777797	-0.03322391	0	0
17.99105	0.006999886	0.1117953	0	0	-0.04850747	0.03373119	0	0
18.00773	0.0070262	0.111777	0.001577812	-0.001097181	0.04778349	-0.03322775	0	0
18.02419	0.007078829	0.1117404	0.00319842	-0.002223669	0.04891288	-0.03399944	0	0
18.04076	0.007131458	0.1117038	0.003176329	-0.00220876	-0.0006689403	0.0004514571	0	0
18.05732	0.00726303	0.1116123	0.007943539	-0.005523358	0.1438829	-0.1000405	0	0
18.07428	0.007605116	0.1113744	0.02016999	-0.01402507	0.3647123	-0.2536041	0	0
18.09045	0.008973443	0.1104228	0.08459873	-0.05883328	1.944463	-1.352314	0	0
18.1073	0.01691944	0.1050025	0.4715859	-0.3216926	11.71842	-7.959684	0	0
18.12359	0.02583635	0.09948412	0.5476201	-0.3389016	2.294847	-0.5194002	0	0
18.14015	0.03122669	0.09719051	0.3253613	-0.1384425	-6.765815	6.102206	0	0
18.15684	0.03227826	0.09708039	0.063023	-0.006600169	-7.889228	3.964859	0	0
18.17335	0.03269887	0.09755757	0.02547297	0.02889912	-1.131113	1.069339	0	0
18.18986	0.0394532	0.1030782	0.4091054	0.3343815	11.61751	9.250895	0	0
18.20971	0.04559994	0.1089402	0.3097524	0.2954017	-2.732928	-1.072226	0	0
18.22627	0.05176949	0.1141183	0.3723946	0.3125549	1.720405	0.4710942	0	0
18.24284	0.06019036	0.1201678	0.5082849	0.3651476	4.101179	1.587252	0	0
18.25941	0.06603543	0.1249693	0.3526463	0.2896833	-4.696103	-2.276993	0	0
18.27597	0.06946699	0.1306412	0.207249	0.3425567	-4.38835	1.595813	0	0
18.29254	0.07093342	0.1369079	0.08851393	0.378256	-3.584465	1.077717	0	0
18.30911	0.07017406	0.147003	-0.04583525	0.6093444	-4.054667	6.974264	0	0
18.32567	0.06930985	0.1549028	-0.05216368	0.4768314	-0.1909924	-3.99925	0	0
18.34224	0.06873366	0.16339	-0.03477894	0.5122881	0.5246726	1.070084	0	0
18.35881	0.06807884	0.1696029	-0.03952526	0.3750081	-0.1432443	-4.143118	0	0
18.37538	0.06585202	0.1827875	-0.1344112	0.7958245	-2.863665	12.70026	0	0
18.39201	0.06328381	0.1970828	-0.1544129	0.859504	-0.6024718	1.918098	0	0
18.40852	0.06186831	0.2091907	-0.08573578	0.733366	2.072202	-3.805977	0	0
18.42508	0.0606361	0.2228446	-0.07441899	0.8246242	0.3422309	2.759739	0	0
18.44164	0.05914148	0.2426865	-0.09021589	1.197663	-0.4768886	11.26157	0	0
18.45855	0.05785641	0.2590172	-0.07599189	0.9657099	0.4248788	-6.928559	0	0
18.47478	0.05717446	0.2810342	-0.04203846	1.357233	1.024776	11.81687	0	0
18.49134	0.05720069	0.2972513	0.001583232	0.978865	1.330366	-11.5394	0	0
18.50791	0.05714823	0.3130466	-0.003166689	0.9534038	-0.1433529	-0.7684205	0	0
18.5246	0.05769904	0.3335676	0.03299648	1.229308	1.087276	8.295297	0	0
18.54111	0.05830227	0.3476927	0.03653293	0.8554512	0.1065037	-11.25905	0	0
18.55763	0.05885301	0.3599261	0.03335384	0.7408835	-0.09626681	-3.469243	0	0
18.57418	0.06032147	0.3727164	0.08871797	0.7727371	1.674459	0.963396	0	0
18.59115	0.06123912	0.3810616	0.05407004	0.4917116	-1.03354	-8.382924	0	0
18.60731	0.06129156	0.3864239	0.003244682	0.3318113	-1.534001	-4.826078	0	0
18.62388	0.06040013	0.3964018	-0.05380673	0.602264	-1.743188	8.263599	0	0
18.64045	0.05898413	0.4027705	-0.08546979	0.3844189	-0.9555932	-6.574579	0	0
18.67371	0.05184823	0.4142627	-0.21451	0.3454611	-2.589438	-0.7817619	0	0
18.69015	0.05281925	0.420335	0.05908725	0.3695033	5.505	0.4837484	0	0
18.70671	0.0532916	0.4244566	0.0285145	0.248809	-0.9264739	-3.65751	0	0
18.72328	0.05350152	0.4308392	0.01267103	0.3852518	-0.4781845	4.118087	0	0
18.73985	0.05323911	0.4362566	-0.01583907	0.3269971	-0.8604363	-1.758129	0	0
18.75641	0.05255682	0.4394511	-0.04118337	0.1928193	-0.7648926	-4.049495	0	0
18.77298	0.04819948	0.4434726	-0.2630094	0.2427398	-6.694724	1.506603	0	0
18.78955	0.04615141	0.4453762	-0.1236216	0.1149047	4.206733	-3.858068	0	0
18.80611	0.04460198	0.4524378	-0.09352402	0.4262355	0.9083472	9.39598	0	0
18.82268	0.0440767	0.4556741	-0.03170989	0.1953638	1.865661	-6.968122	0	0
18.83925	0.04218549	0.4600991	-0.1141537	0.2670947	-2.488303	2.164967	0	0
18.85581	0.0439979	0.4637525	0.1093977	0.2205219	6.746795	-1.40557	0	0
18.9193	0.03729848	0.4686325	-0.1055226	0.07686508	-2.68465	-1.794471	0	0
18.93587	0.03359262	0.4712089	-0.2236861	0.1555125	-1.476024	0.9824139	0	0
18.95244	0.0316999	0.4724704	-0.1142448	0.07614444	3.302946	-2.395332	0	0
18.969	0.03175248	0.4723983	0.00317366	-0.004351471	3.543695	-2.429371	0	0
18.98557	0.03177877	0.4723803	0.00158683	-0.001086519	-0.04789062	0.09853645	0	0
19.00214	0.03188393	0.4722362	0.006347319	-0.008702941	0.1436719	-0.2298641	0	0
19.01871	0.03193651	0.4721641	0.00317366	-0.004351471	-0.09578124	0.1313276	0	0
19.03527	0.03198908	0.472092	0.003173435	-0.004351471	-6.78793E-06	0	0	0
19.05198	0.03204166	0.4720199	0.00314685	-0.004314712	-0.0007989217	0.001104678	0	0
19.06841	0.03209424	0.4718757	0.003201301	-0.008778743	0.001643441	-0.1347325	0	0
19.085	0.03214682	0.4717676	0.0031676	-0.006514307	-0.001020588	0.06857369	0	0
19.10154	0.03238341	0.4714973	0.01430902	-0.01634776	0.3362682	-0.2967913	0	0
19.11853	0.03264629	0.4711729	0.0154737	-0.01909313	0.03474195	-0.08189368	0	0
19.13467	0.03335604	0.4705422	0.04396446	-0.03906619	0.8599026	-0.6028229	0	0
19.15124	0.03388176	0.4701819	0.03173255	-0.02175196	-0.3739386	0.5293088	0	0
19.17102	0.03448632	0.4695513	0.03055358	-0.03186904	-0.03243002	-0.2782929	0	0
19.18759	0.03446004	0.4695333	-0.001586605	-0.001086519	-0.8840879	0.8467421	0	0
19.20416	0.03443375	0.4695152	-0.001586605	-0.001088317	0	-5.428939E-05	0	0
19.22073	0.03440747	0.4694972	-0.001586605	-0.001086519	0	5.428939E-05	0	0
19.23729	0.03438118	0.4694792	-0.00158638	-0.001088317	6.784417E-06	-5.428939E-05	0	0
19.25386	0.03438118	0.4694792	0	0	0.04787704	0.03284548	0	0
19.33669	0.03427605	0.4693711	-0.001269268	-0.001304932	-0.01276911	-0.01312789	0	0
19.35326	0.03427605	0.4693711	0	0	0.01276911	0.01312789	0	0
19.37021	0.03411834	0.4691549	-0.009307243	-0.01275819	-0.2777277	-0.3807038	0	0
19.38639	0.03359262	0.4687226	-0.03247614	-0.02670813	-0.6992789	-0.4210342	0	0
19.40296	0.03322461	0.4684704	-0.02221314	-0.01522205	0.3133271	0.3506674	0	0
19.41953	0.03188393	0.4674077	-0.08092382	-0.06414417	-1.771892	-1.476472	0	0
19.43625	0.03196279	0.4673537	0.004715207	-0.003230485	2.572301	1.829637	0	0
19.45266	0.03193651	0.4671195	-0.001601912	-0.01426828	-0.190651	-0.3331212	0	0
19.46923	0.03188393	0.4670475	-0.00317366	-0.004347873	-0.04766316	0.3008358	0	0
19.4858	0.03167361	0.4665073	-0.01269464	-0.03260995	-0.2873437	-0.8529511	0	0
19.50237	0.03135814	0.4656429	-0.01904218	-0.05217268	-0.1915692	-0.5904043	0	0
19.51893	0.02993842	0.4626185	-0.08569431	-0.1825549	-2.011565	-3.934943	0	0
19.5355	0.02804528	0.4520783	-0.1142704	-0.636207	-0.8624281	-13.69125	0	0
19.55207	0.02665158	0.4421079	-0.08412356	-0.6018108	0.9098336	1.03808	0	0
19.56863	0.0247844	0.4285259	-0.1127035	-0.8198124	-0.8625435	-6.579303	0	0
19.5852	0.02381129	0.4216968	-0.05873698	-0.4122097	1.628712	12.30148	0	0
19.60188	0.0224699	0.4114335	-0.08043835	-0.6154513	-0.6528065	-6.113784	0	0
19.61833	0.02178603	0.3974034	-0.04155631	-0.8525495	1.17353	-7.15605	0	0
19.6349	0.02015517	0.3881044	-0.09842765	-0.5612248	-1.722031	8.821141	0	0
19.65147	0.01578816	0.3789527	-0.2636232	-0.5524647	-4.985611	0.2643784	0	0
19.66843	0.01386753	0.3752536	-0.1132565	-0.2181261	4.485404	9.973243	0	0
19.6846	0.006657796	0.3649631	-0.4457521	-0.6362268	-10.03531	-12.61903	0	0
19.70117	0.006657796	0.3581758	0	-0.409684	13.61426	6.919122	0	0
19.71774	0.008105085	0.336264	0.08734847	-1.322445	2.63603	-27.54559	0	0
19.7343	0.008473481	0.3316925	0.02224154	-0.2759997	-1.965044	31.5836	0	0
19.75087	0.009289207	0.3149222	0.04923731	-1.012259	0.8148279	-22.22292	0	0
19.76749	0.009368147	0.3048641	0.004747873	-0.6049476	-1.340302	12.2708	0	0
19.784	0.009631281	0.2942842	0.01593969	-0.6408922	0.3377697	-1.084811	0	0
19.80057	0.01052593	0.2864891	0.05400717	-0.4705671	1.150999	5.149909	0	0
19.81713	0.01084168	0.2735735	0.01905893	-0.779586	-1.054801	-9.326747	0	0
19.8337	0.01097324	0.2616324	0.007941175	-0.7207683	-0.3355346	1.775121	0	0
19.85027	0.0106838	0.2539107	-0.01747064	-0.4660841	-0.7669302	7.686387	0	0
19.86683	0.009841788	0.2501824	-0.05083005	-0.2250612	-1.006847	7.274504	0	0
19.8834	0.008420854	0.2448748	-0.08576773	-0.3203674	-1.054482	-2.876513	0	0
19.89997	0.004631546	0.2394929	-0.2287494	-0.324892	-4.315444	-0.1365629	0	0
19.91653	0.001026315	0.2370701	-0.2176121	-0.1462393	0.336143	5.392062	0	0
19.9331	-0.005236794	0.2327257	-0.3780421	-0.2622332	-4.841785	-3.500704	0	0
19.94967	-0.01063118	0.2290439	-0.3256057	-0.2222308	1.582533	1.207275	0	0
19.96624	-0.01689313	0.2247318	-0.3779721	-0.2602814	-1.580422	-1.14837	0	0
19.9828	-0.01907663	0.22324	-0.1317965	-0.09004252	7.429596	5.137821	0	0
19.99937	-0.0198132	0.2227727	-0.04445912	-0.02820901	2.635847	1.866139	0	0
20.01594	-0.0240743	0.2198242	-0.2572004	-0.1779687	-6.420545	-4.519756	0	0
20.03251	-0.0240743	0.2198242	0	0	7.762324	5.371106	0	0
20.04907	-0.0240743	0.2198242	0	0	0	0	0	0
20.06754	-0.0240743	0.2198242	0	0	0	0	0	0
20.0841	-0.0240743	0.2198242	0	0	0	0	0	0
20.10067	-0.0240743	0.2198242	0	0	0	0	0	0
20.11724	-0.0240743	0.2198242	0	0	0	0	0	0
20.13381	-0.0240743	0.2198242	0	0	0	0	0	0
20.15037	-0.0240743	0.2198242	0	0	0	0	0	0
20.16694	-0.0240743	0.2198242	0	0	0	0	0	0
20.18351	-0.0240743	0.2198242	0	0	0	0	0	0
20.20008	-0.0240743	0.2198242	0	0	0	0	0	0
20.21664	-0.0240743	0.2198242	0	0	0	0	0	0
20.23321	-0.0240743	0.2198242	0	0	0	0	0	0
20.24978	-0.0240743	0.2198242	0	0	0	0	0	0
20.26636	-0.0240743	0.2198242	0	0	0	0	0	0
20.28291	-0.0240743	0.2198242	0	0	0	0	0	0
20.29948	-0.02404799	0.2198062	0.001587504	-0.001085619	0.04793029	-0.03277726	0	0
20.31604	-0.02404799	0.2198062	0	0	-0.04791097	0.03276405	0	0
20.33261	-0.02404799	0.2198062	0	0	0	0	0	0
20.34918	-0.02404799	0.2198062	0	0	0	0	0	0
20.36574	-0.02404799	0.2198062	0	0	0	0	0	0
20.38231	-0.02402169	0.2197883	0.001587504	-0.00108472	0.04791649	-0.03274067	0	0
20.39888	-0.02402169	0.2197883	0	0	-0.04791097	0.0327369	0	0
20.41546	-0.02402169	0.2197883	0	0	0	0	0	0
20.43201	-0.02402169	0.2197883	0	0	0	0	0	0
20.44858	-0.02402169	0.2197883	0	0	0	0	0	0
20.46515	-0.02402169	0.2197883	0	0	0	0	0	0
20.48171	-0.02402169	0.2197883	0	0	0	0	0	0
20.49828	-0.02402169	0.2197883	0	0	0	0	0	0
20.51504	-0.02402169	0.2197883	0	0	0	0	0	0
20.53141	-0.02402169	0.2197883	0	0	0	0	0	0
20.54806	-0.02402169	0.2197883	0	0	0	0	0	0
20.56454	-0.02402169	0.2197883	0	0	0	0	0	0
20.58111	-0.02402169	0.2197883	0	0	0	0	0	0
20.59768	-0.02402169	0.2197883	0	0	0	0	0	0
20.61425	-0.02402169	0.2197883	0	0	0	0	0	0
20.63081	-0.02402169	0.2197883	0	0	0	0	0	0
20.64763	-0.02399539	0.2197703	0.001564273	-0.001069732	0.04686186	-0.0320466	0	0
20.66394	-0.02396909	0.2197523	0.001611813	-0.001102243	0.001434948	-0.0009812921	0	0
20.68051	-0.02396909	0.2197523	0	0	-0.04901423	0.03351852	0	0
20.69708	-0.02396909	0.2197523	0	0	0	0	0	0
20.71367	-0.02394279	0.2197343	0.001584585	-0.001083623	0.04778162	-0.03267559	0	0
20.73021	-0.02394279	0.2197343	0	0	-0.04782288	0.03270381	0	0
20.74678	-0.02394279	0.2197343	0	0	0	0	0	0
20.76334	-0.02391649	0.2197163	0.001587504	-0.00108472	0.04791373	-0.03273879	0	0
20.77991	-0.02383759	0.2196624	0.004762625	-0.003255958	0.09582534	-0.0655281	0	0
20.79648	-0.02362718	0.2195185	0.01270026	-0.008683154	0.2395583	-0.1637931	0	0
20.81305	-0.02225948	0.2185834	0.0825545	-0.0564432	2.108205	-1.441401	0	0
20.82961	-0.01847158	0.2159934	0.2286379	-0.1563364	4.408807	-3.014781	0	0
20.84618	-0.01613018	0.2143922	0.1413275	-0.09664799	-2.635036	1.801399	0	0
20.86275	-0.01192049	0.2115129	0.2541268	-0.1738153	3.404486	-2.329049	0	0
20.87931	-0.009815474	0.2100728	0.1270589	-0.08692058	-3.835137	2.622639	0	0
20.89588	-0.0098681	0.2101088	-0.003176892	0.002173287	-3.930749	2.689013	0	0
20.91493	-0.0098681	0.2101088	0	0	0.08919866	-0.06102011	0	0
20.9315	-0.0098681	0.2101088	0	0	0	0	0	0
20.94806	-0.0098681	0.2101088	0	0	0	0	0	0
20.96463	-0.0098681	0.2101088	0	0	0	0	0	0
20.9812	-0.0098681	0.2101088	0	0	0	0	0	0
20.99776	-0.0098681	0.2101088	0	0	0	0	0	0
21.01433	-0.0098681	0.2101088	0	0	0	0	0	0
21.0309	-0.0098681	0.2101088	0	0	0	0	0	0
21.04747	-0.0098681	0.2101088	0	0	0	0	0	0
21.06403	-0.0098681	0.2101088	0	0	0	0	0	0
21.0806	-0.009841788	0.2101268	0.001588235	0.001086519	0.04793303	0.03279119	0	0
21.09717	-0.009841788	0.2101268	0	0	-0.04793303	-0.03279119	0	0
21.11374	-0.009841788	0.2101268	0	0	0	0	0	0
21.1303	-0.009841788	0.2101268	0	0	0	0	0	0
21.14698	-0.009841788	0.2101268	0	0	0	0	0	0
21.1635	-0.009841788	0.2101268	0	0	0	0	0	0
21.18	-0.0098681	0.2101448	-0.001594108	0.001090536	-0.04827701	0.03302651	0	0
21.19657	-0.0098681	0.2101448	0	0	0.04820184	-0.03297509	0	0
21.21353	-0.009894414	0.2101628	-0.001551321	0.001061228	-0.04627028	0.03165258	0	0
21.2297	-0.009894414	0.2101628	0	0	0.04681896	-0.03202792	0	0
21.24627	-0.009894414	0.2101628	0	0	0	0	0	0
21.26284	-0.009894414	0.2101628	0	0	0	0	0	0
21.27941	-0.009894414	0.2101628	0	0	0	0	0	0
21.29597	-0.009894414	0.2101628	0	0	0	0	0	0
21.31254	-0.009894414	0.2101628	0	0	0	0	0	0
21.32911	-0.009894414	0.2101628	0	0	0	0	0	0
21.34567	-0.009894414	0.2101628	0	0	0	0	0	0
21.36224	-0.009894414	0.2101628	0	0	0	0	0	0
21.37881	-0.009894414	0.2101628	0	0	0	0	0	0
21.39537	-0.009894414	0.2101628	0	0	0	0	0	0
21.41194	-0.009894414	0.2101628	0	0	0	0	0	0
21.42869	-0.009894414	0.2101628	0	0	0	0	0	0
21.44507	-0.009894414	0.2101628	0	0	0	0	0	0
21.46171	-0.009894414	0.2101628	0	0	0	0	0	0
21.47823	-0.009894414	0.2101628	0	0	0	0	0	0
21.49477	-0.009894414	0.2101628	0	0	0	0	0	0
21.51134	-0.009894414	0.2101628	0	0	0	0	0	0
21.52896	-0.009894414	0.2101628	0	0	0	0	0	0
21.54552	-0.009894414	0.2101628	0	0	0	0	0	0
21.56209	-0.009894414	0.2101628	0	0	0	0	0	0
21.57866	-0.009894414	0.2101628	0	0	0	0	0	0
21.59531	-0.009894414	0.2101628	0	0	0	0	0	0
21.61182	-0.009894414	0.2101628	0	0	0	0	0	0
21.62836	-0.009894414	0.2101628	0	0	0	0	0	0
21.64492	-0.009894414	0.2101628	0	0	0	0	0	0
21.66186	-0.009894414	0.2101628	0	0	0	0	0	0
21.67806	-0.009894414	0.2101628	0	0	0	0	0	0
21.69463	-0.009894414	0.2101628	0	0	0	0	0	0
21.71119	-0.009894414	0.2101628	0	0	0	0	0	0
21.73185	-0.009894414	0.2101628	0	0	0	0	0	0
21.74842	-0.009894414	0.2101628	0	0	0	0	0	0
21.76499	-0.009894414	0.2101628	0	0	0	0	0	0
21.78156	-0.009894414	0.2101628	0	0	0	0	0	0
21.79812	-0.009894414	0.2101628	0	0	0	0	0	0
21.81469	-0.009894414	0.2101628	0	0	0	0	0	0
21.83126	-0.009894414	0.2101628	0	0	0	0	0	0
21.84782	-0.009894414	0.2101628	0	0	0	0	0	0
21.8645	-0.009894414	0.2101628	0	0	0	0	0	0
21.88101	-0.009894414	0.2101628	0	0	0	0	0	0
21.89752	-0.009894414	0.2101628	0	0	0	0	0	0
21.91409	-0.009894414	0.2101628	0	0	0	0	0	0
21.93066	-0.009894414	0.2101628	0	0	0	0	0	0
21.94723	-0.009894414	0.2101628	0	0	0	0	0	0
21.96379	-0.009894414	0.2101628	0	0	0	0	0	0
21.98036	-0.009894414	0.2101628	0	0	0	0	0	0
21.9971	-0.009894414	0.2101628	0	0	0	0	0	0
22.01361	-0.009894414	0.2101628	0	0	0	0	0	0
22.03006	-0.009894414	0.2101628	0	0	0	0	0	0
22.06319	-0.009894414	0.2101628	0	0	0	0	0	0
22.07976	-0.009894414	0.2101628	0	0	0	0	0	0
22.09633	-0.009894414	0.2101628	0	0	0	0	0	0
22.1129	-0.009894414	0.2101628	0	0	0	0	0	0
22.12946	-0.009894414	0.2101628	0	0	0	0	0	0
22.14603	-0.009894414	0.2101628	0	0	0	0	0	0
22.17923	-0.0098681	0.2101448	0.0007925944	-0.0005421981	0.01592625	-0.01089483	0	0
22.19574	-0.0098681	0.2101448	0	0	-0.01594397	0.01090695	0	0
22.2123	-0.0098681	0.2101448	0	0	0	0	0	0
22.22886	-0.0098681	0.2101448	0	0	0	0	0	0
22.24543	-0.0098681	0.2101448	0	0	0	0	0	0
22.262	-0.0098681	0.2101448	0	0	0	0	0	0
22.27856	-0.0098681	0.2101448	0	0	0	0	0	0
22.29531	-0.0098681	0.2101448	0	0	0	0	0	0
22.31183	-0.0098681	0.2101448	0	0	0	0	0	0
22.32884	-0.0098681	0.2101448	0	0	0	0	0	0
22.34483	-0.0098681	0.2101448	0	0	0	0	0	0
22.3614	-0.0098681	0.2101448	0	0	0	0	0	0
22.37796	-0.0098681	0.2101448	0	0	0	0	0	0
22.39453	-0.0098681	0.2101448	0	0	0	0	0	0
22.4111	-0.0098681	0.2101448	0	0	0	0	0	0
22.42766	-0.0098681	0.2101448	0	0	0	0	0	0
22.44423	-0.0098681	0.2101448	0	0	0	0	0	0
22.46093	-0.0098681	0.2101448	0	0	0	0	0	0
22.47744	-0.0098681	0.2101448	0	0	0	0	0	0
22.49395	-0.0098681	0.2101448	0	0	0	0	0	0
22.5105	-0.0098681	0.2101448	0	0	0	0	0	0
22.53021	-0.0098681	0.2101448	0	0	0	0	0	0
22.54677	-0.0098681	0.2101448	0	0	0	0	0	0
22.56334	-0.0098681	0.2101448	0	0	0	0	0	0
22.58001	-0.0098681	0.2101448	0	0	0	0	0	0
22.59653	-0.0098681	0.2101448	0	0	0	0	0	0
22.61304	-0.0098681	0.2101448	0	0	0	0	0	0
22.62961	-0.0098681	0.2101448	0	0	0	0	0	0
22.64618	-0.0098681	0.2101448	0	0	0	0	0	0
22.66308	-0.0098681	0.2101448	0	0	0	0	0	0
22.67959	-0.0098681	0.2101448	0	0	0	0	0	0
22.69588	-0.0098681	0.2101448	0	0	0	0	0	0
22.71261	-0.0098681	0.2101448	0	0	0	0	0	0
22.72912	-0.0098681	0.2101448	0	0	0	0	0	0
22.74558	-0.0098681	0.2101448	0	0	0	0	0	0
22.76215	-0.0098681	0.2101448	0	0	0	0	0	0
22.77871	-0.0098681	0.2101448	0	0	0	0	0	0
22.79528	-0.0098681	0.2101448	0	0	0	0	0	0
22.81185	-0.0098681	0.2101448	0	0	0	0	0	0
22.82869	-0.0098681	0.2101448	0	0	0	0	0	0
22.84521	-0.0098681	0.2101448	0	0	0	0	0	0
22.86172	-0.0098681	0.2101448	0	0	0	0	0	0
22.87823	-0.0098681	0.2101448	0	0	0	0	0	0
22.89474	-0.0098681	0.2101448	0	0	0	0	0	0
22.91125	-0.0098681	0.2101448	0	0	0	0	0	0
22.92781	-0.0098681	0.2101448	0	0	0	0	0	0
22.94438	-0.0098681	0.2101448	0	0	0	0	0	0
22.99847	-0.0098681	0.2101448	0	0	0	0	0	0
23.01504	-0.0098681	0.2101448	0	0	0	0	0	0
23.06486	-0.0098681	0.2101448	0	0	0	0	0	0
23.0813	-0.0098681	0.2101448	0	0	0	0	0	0
23.09787	-0.0098681	0.2101448	0	0	0	0	0	0
23.11444	-0.0098681	0.2101448	0	0	0	0	0	0
23.131	-0.0098681	0.2101448	0	0	0	0	0	0
23.16414	-0.0098681	0.2101448	0	0	0	0	0	0
23.18071	-0.0098681	0.2101448	0	0	0	0	0	0
23.19727	-0.009841788	0.2101268	0.001588418	-0.001086644	0.04794131	-0.03279686	0	0
23.21397	-0.009841788	0.2101268	0	0	-0.04775711	0.03267085	0	0
23.23048	-0.0098681	0.2101448	-0.00159374	0.001090284	-0.04799693	0.03283491	0	0
23.24697	-0.0098681	0.2101448	0	0	0.04829096	-0.03303606	0	0
23.26354	-0.009841788	0.2101268	0.001588235	-0.001086519	0.04804088	-0.03286498	0	0
23.2801	-0.009841788	0.2101268	0	0	-0.04793303	0.03279119	0	0
23.29667	-0.009841788	0.2101268	0	0	0	0	0	0
23.31324	-0.009841788	0.2101268	0	0	0	0	0	0
23.32981	-0.009841788	0.2101268	0	0	0	0	0	0
23.34637	-0.009841788	0.2101268	0	0	0	0	0	0
23.36294	-0.009841788	0.2101268	0	0	0	0	0	0
23.37951	-0.009841788	0.2101268	0	0	0	0	0	0
23.3961	-0.009841788	0.2101268	0	0	0	0	0	0
23.41264	-0.009841788	0.2101268	0	0	0	0	0	0
23.42921	-0.009841788	0.2101268	0	0	0	0	0	0
23.4642	-0.009841788	0.2101268	0	0	0	0	0	0
23.48077	-0.009841788	0.2101268	0	0	0	0	0	0
23.49734	-0.009841788	0.2101268	0	0	0	0	0	0
23.5139	-0.009841788	0.2101268	0	0	0	0	0	0
23.53047	-0.009841788	0.2101268	0	0	0	0	0	0
23.54704	-0.009841788	0.2101268	0	0	0	0	0	0
23.5636	-0.009841788	0.2101268	0	0	0	0	0	0
23.58017	-0.009841788	0.2101268	0	0	0	0	0	0
23.59674	-0.009841788	0.2101268	0	0	0	0	0	0
23.6133	-0.009841788	0.2101268	0	0	0	0	0	0
23.62987	-0.009841788	0.2101268	0	0	0	0	0	0
23.64644	-0.009841788	0.2101268	0	0	0	0	0	0
23.67957	-0.009841788	0.2101268	0	0	0	0	0	0
23.69614	-0.009841788	0.2101268	0	0	0	0	0	0
23.7127	-0.009841788	0.2101268	0	0	0	0	0	0
23.72927	-0.009841788	0.2101268	0	0	0	0	0	0
23.74635	-0.009841788	0.2101268	0	0	0	0	0	0
23.7624	-0.009841788	0.2101268	0	0	0	0	0	0
23.77897	-0.009841788	0.2101268	0	0	0	0	0	0
23.79554	-0.009841788	0.2101268	0	0	0	0	0	0
23.81211	-0.009841788	0.2101268	0	0	0	0	0	0
23.82867	-0.009841788	0.2101268	0	0	0	0	0	0
23.84524	-0.009841788	0.2101268	0	0	0	0	0	0
23.86181	-0.009841788	0.2101268	0	0	0	0	0	0
23.87837	-0.009841788	0.2101268	0	0	0	0	0	0
23.89494	-0.009841788	0.2101268	0	0	0	0	0	0
23.91151	-0.0098681	0.2101088	-0.001588235	-0.001086519	-0.04793303	-0.03279119	0	0
23.92808	-0.009841788	0.2100908	0.001588235	-0.001086519	0.09586606	0	0	0
23.94464	-0.009815474	0.2100728	0.001588474	-0.001086644	7.213469E-06	-3.777145E-06	0	0
23.96121	-0.009789161	0.2100548	0.001588235	-0.001086519	-7.213469E-06	3.777145E-06	0	0
23.97778	-0.009736534	0.2099828	0.003176583	-0.004346974	0.04793642	-0.09840073	0	0
23.99434	-0.009552341	0.2098568	0.01111793	-0.00760563	0.2396702	-0.09834644	0	0
24.01105	-0.009499714	0.2098208	0.003149749	-0.002155572	-0.2394601	0.1637854	0	0
24.04404	-0.009499714	0.2098208	0	0	-0.0633755	0.04337186	0	0
24.06061	-0.009499714	0.2098208	0	0	0	0	0	0
24.07809	-0.009499714	0.2098208	0	0	0	0	0	0
24.09374	-0.009499714	0.2098208	0	0	0	0	0	0
24.11031	-0.009499714	0.2098208	0	0	0	0	0	0
24.12687	-0.009499714	0.2098208	0	0	0	0	0	0
24.14344	-0.009499714	0.2098208	0	0	0	0	0	0
24.16065	-0.009499714	0.2098208	0	0	0	0	0	0
24.17666	-0.009499714	0.2098208	0	0	0	0	0	0
24.19317	-0.009499714	0.2098208	0	0	0	0	0	0
24.20971	-0.009499714	0.2098208	0	0	0	0	0	0
24.22627	-0.009499714	0.2098208	0	0	0	0	0	0
24.2432	-0.009499714	0.2098208	0	0	0	0	0	0
24.25941	-0.009499714	0.2098208	0	0	0	0	0	0
24.27926	-0.009499714	0.2098208	0	0	0	0	0	0
24.29583	-0.009499714	0.2098208	0	0	0	0	0	0
24.3124	-0.009499714	0.2098208	0	0	0	0	0	0
24.32896	-0.009499714	0.2098208	0	0	0	0	0	0
24.34578	-0.009499714	0.2098208	0	0	0	0	0	0
24.3621	-0.009526027	0.2098388	-0.001612424	0.001103027	-0.04866305	0.03328943	0	0
24.37866	-0.009526027	0.2098388	0	0	0.04902995	-0.03354042	0	0
24.39581	-0.009499714	0.2098568	0.001534412	0.00105053	0.04550964	0.03115801	0	0
24.4118	-0.009499714	0.2098568	0	0	-0.04631131	-0.03170687	0	0
24.42836	-0.009552341	0.2098928	-0.003176583	0.002173037	-0.09758843	0.0667583	0	0
24.44493	-0.009631281	0.2100188	-0.004765366	0.007607405	-0.04795234	0.164019	0	0
24.4615	-0.009841788	0.2102709	-0.01270622	0.01521216	-0.2396692	0.2295251	0	0
24.47806	-0.01218361	0.2130606	-0.1413688	0.1684091	-3.883268	4.623758	0	0
24.49463	-0.01615649	0.2186553	-0.2398036	0.3376995	-2.970939	5.109489	0	0
24.5112	-0.02178603	0.2325281	-0.3397996	0.8373622	-3.017884	15.07985	0	0
24.52776	-0.02391649	0.2451797	-0.1285952	0.7636535	6.374161	-2.224535	0	0
24.54442	-0.02567857	0.2565986	-0.1057866	0.6855319	0.6865077	-2.351351	0	0
24.56093	-0.02723011	0.2675774	-0.09397598	0.6649777	0.3560955	-0.6197219	0	0
24.57747	-0.02983325	0.2707458	-0.1574341	0.1916221	-1.920364	-14.32466	0	0
24.59403	-0.02996471	0.2706205	-0.007935048	-0.007562457	4.516309	-6.01729	0	0
24.6106	-0.03009617	0.26892	-0.007934935	-0.1026436	3.400992E-06	-2.869555	0	0
24.62717	-0.02954403	0.2642471	0.03332341	-0.2820252	1.245108	-5.413435	0	0
24.64373	-0.02541558	0.2573511	0.2492514	-0.4163386	6.517094	-4.053819	0	0
24.6603	-0.02202275	0.2494474	0.2047913	-0.4770653	-1.341962	-1.832947	0	0
24.67686	-0.0189451	0.2405336	0.1857889	-0.5381	-0.5735286	-1.842137	0	0
24.69353	-0.01812959	0.2345929	0.04894248	-0.3565285	-4.118415	5.464426	0	0
24.71	-0.01723514	0.2296007	0.05430212	-0.3030736	0.1617543	1.613271	0	0
24.72656	-0.01839266	0.2242465	-0.06987656	-0.3232198	-3.758755	-0.6098035	0	0
24.74313	-0.02086539	0.2146081	-0.1492714	-0.5818437	-2.396416	-7.806182	0	0
24.7597	-0.02186494	0.2035895	-0.06033259	-0.6650816	2.684332	-2.512269	0	0
24.77626	-0.02239099	0.1947563	-0.0317529	-0.5331721	0.8625367	3.981036	0	0
24.79283	-0.02357458	0.1802213	-0.07144963	-0.877436	-1.198119	-10.3905	0	0
24.8094	-0.02609934	0.1605985	-0.1523946	-1.184433	-2.443063	-9.265718	0	0
24.89223	-0.05400008	0.08923643	-0.3368185	-0.8614852	-1.855308	3.24886	0	0
24.9088	-0.06949318	0.07658683	-0.9351653	-0.7635316	-6.019381	0.9854153	0	0
24.92537	-0.08186923	0.0678556	-0.7470197	-0.5270181	5.678245	7.13799	0	0
24.94193	-0.08584116	0.06504586	-0.2397464	-0.1695963	15.30954	10.78701	0	0
24.9585	-0.1042783	0.05195097	-1.112866	-0.7904092	-26.35081	-18.73617	0	0
24.97507	-0.1105995	0.04744007	-0.381547	-0.2722783	22.07126	15.63722	0	0
24.99164	-0.1238108	0.03801121	-0.7974403	-0.5691268	-12.55168	-8.958905	0	0
25.0082	-0.1294044	0.03398696	-0.3376285	-0.2429046	13.87715	9.845407	0	0
25.02477	-0.1337493	0.03085393	-0.2622611	-0.1891095	2.27459	1.623538	0	0
25.04134	-0.1373663	0.02824102	-0.2183183	-0.1577157	1.326198	0.9474667	0	0
25.05791	-0.1381667	0.02766219	-0.0483123	-0.03493814	5.130791	3.705435	0	0
25.07447	-0.1381667	0.02766219	0	0	1.458068	1.054435	0	0
25.09104	-0.1381667	0.02766219	0	0	0	0	0	0
25.10761	-0.1381667	0.02766219	0	0	0	0	0	0
25.12417	-0.1381667	0.02766219	0	0	0	0	0	0
25.14074	-0.1381667	0.02766219	0	0	0	0	0	0
25.15731	-0.1381408	0.02764352	0.001558722	-0.001127106	0.04704233	-0.03401611	0	0
25.19355	-0.1381408	0.02764352	0	0	-0.02951529	0.02134238	0	0
25.21012	-0.1381408	0.02764352	0	0	0	0	0	0
25.22669	-0.1381408	0.02764352	0	0	0	0	0	0
25.24342	-0.1381408	0.02764352	0	0	0	0	0	0
25.25982	-0.1381408	0.02764352	0	0	0	0	0	0
25.27645	-0.1381408	0.02764352	0	0	0	0	0	0
25.29296	-0.1381408	0.02764352	0	0	0	0	0	0
25.32609	-0.138115	0.02762485	0.0007790012	-0.0005636177	0.01569341	-0.01135439	0	0
25.34299	-0.138115	0.02762485	0	0	-0.01556838	0.01126393	0	0
25.35922	-0.138115	0.02762485	0	0	0	0	0	0
25.37601	-0.138115	0.02762485	0	0	0	0	0	0
25.39235	-0.138115	0.02762485	0	0	0	0	0	0
25.40904	-0.138115	0.02762485	0	0	0	0	0	0
25.42555	-0.138115	0.02762485	0	0	0	0	0	0
25.44206	-0.138115	0.02762485	0	0	0	0	0	0
25.45862	-0.1380892	0.02760617	0.001559441	-0.001127737	0.0471563	-0.03410192	0	0
25.47519	-0.1380634	0.0275875	0.001557823	-0.001127106	-4.883023E-05	1.907173E-05	0	0
25.49175	-0.1380118	0.02755015	0.003117445	-0.002254324	0.04706948	-0.03401951	0	0
25.50832	-0.1358424	0.0259812	0.1309408	-0.09470228	3.857716	-2.790085	0	0
25.52489	-0.1337235	0.02444893	0.1278989	-0.09248753	-0.09180452	0.06684135	0	0
25.54145	-0.1294044	0.02132632	0.2607015	-0.1884815	4.00799	-2.897104	0	0
25.55802	-0.1235776	0.01711483	0.3517064	-0.2542056	2.746535	-1.983558	0	0
25.5746	-0.1201034	0.01460426	0.2095601	-0.1514343	-4.288504	3.100576	0	0
25.59117	-0.1136139	0.009915468	0.3917061	-0.2830158	5.49528	-3.969766	0	0
25.60772	-0.1107034	0.007812814	0.1758168	-0.1270188	-6.518178	4.709894	0	0
25.62429	-0.1071148	0.005220256	0.2166125	-0.1564871	1.231712	-0.8897122	0	0
25.64085	-0.1042522	0.003152301	0.172802	-0.1248364	-1.32228	0.955275	0	0
25.65742	-0.1034452	0.002569284	0.0487121	-0.03519096	-3.745255	2.70566	0	0
25.67399	-0.1034712	0.002588093	-0.001571315	0.001135285	-1.517556	1.096328	0	0
25.69074	-0.1034712	0.002588093	0	0	0.04716444	-0.03407661	0	0
25.70712	-0.1034712	0.002588093	0	0	0	0	0	0
25.72369	-0.1034712	0.002588093	0	0	0	0	0	0
25.75682	-0.1034712	0.002588093	0	0	0	0	0	0
25.77339	-0.1034712	0.002588093	0	0	0	0	0	0
25.78996	-0.1034712	0.002588093	0	0	0	0	0	0
25.80652	-0.1034712	0.002588093	0	0	0	0	0	0
25.82309	-0.1034712	0.002588093	0	0	0	0	0	0
25.83966	-0.1034712	0.002588093	0	0	0	0	0	0
25.85622	-0.1034712	0.002588093	0	0	0	0	0	0
25.87287	-0.1034712	0.002588093	0	0	0	0	0	0
25.88936	-0.1034712	0.002588093	0	0	0	0	0	0
25.90593	-0.1034712	0.002588093	0	0	0	0	0	0
25.92249	-0.1034712	0.002588093	0	0	0	0	0	0
25.93906	-0.1034712	0.002588093	0	0	0	0	0	0
25.95563	-0.1034712	0.002588093	0	0	0	0	0	0
25.97219	-0.1034712	0.002588093	0	0	0	0	0	0
25.98896	-0.1034712	0.002588093	0	0	0	0	0	0
26.00547	-0.1034712	0.002588093	0	0	0	0	0	0
26.02198	-0.1034712	0.002588093	0	0	0	0	0	0
26.03849	-0.1034712	0.002588093	0	0	0	0	0	0
26.05503	-0.1034712	0.002588093	0	0	0	0	0	0
26.0716	-0.1034712	0.002588093	0	0	0	0	0	0
26.08853	-0.1034712	0.002588093	0	0	0	0	0	0
26.10473	-0.1034712	0.002588093	0	0	0	0	0	0
26.12929	-0.1034712	0.002588093	0	0	0	0	0	0
26.14586	-0.1034712	0.002588093	0	0	0	0	0	0
26.17909	-0.1034712	0.002588093	0	0	0	0	0	0
26.19556	-0.1034712	0.002588093	0	0	0	0	0	0
26.21213	-0.1034712	0.002588093	0	0	0	0	0	0
26.22869	-0.1034712	0.002588093	0	0	0	0	0	0
26.24526	-0.1034712	0.002588093	0	0	0	0	0	0
26.26215	-0.1034712	0.002588093	0	0	0	0	0	0
26.31169	-0.1035494	0.00271975	-0.001576789	0.002657922	-0.02373709	0.04001254	0	0
26.32809	-0.1035233	0.002776173	0.001586843	0.003439343	0.0479782	0.01185066	0	0
26.34471	-0.1031849	0.003208717	0.02036414	0.02602452	0.5685655	0.683866	0	0
26.36123	-0.1026381	0.003754019	0.03311154	0.03302095	0.3847172	0.2111526	0	0
26.37779	-0.1022214	0.004506015	0.02515202	0.04539581	-0.2406204	0.3740984	0	0
26.39436	-0.1017266	0.005314224	0.02986712	0.0487836	0.1423101	0.1022498	0	0
26.41093	-0.09906935	0.007568672	0.1603914	0.1360787	3.939232	2.634573	0	0
26.42749	-0.09286372	0.01203559	0.3745728	0.2696237	6.464005	4.030394	0	0
26.44406	-0.083751	0.01865027	0.550108	0.3993089	5.297968	3.914134	0	0
26.46079	-0.06991219	0.02853974	0.8269345	0.5909423	8.31301	5.754688	0	0
26.47731	-0.06289063	0.03353954	0.4252416	0.3028	-12.08208	-8.666718	0	0
26.49376	-0.04993214	0.04273788	0.7875252	0.5590099	10.98941	7.771797	0	0
26.51033	-0.04176517	0.04851722	0.4930162	0.3488819	-8.919106	-6.363654	0	0
26.52689	-0.03396062	0.0540283	0.4710836	0.3326492	-0.6619663	-0.489932	0	0
26.54347	-0.03035909	0.05656783	0.2172638	0.1531979	-7.658093	-5.41429	0	0
26.60973	-0.007473545	0.07258344	0.3454032	0.2417178	1.546938	1.068638	0	0
26.62642	0.002999991	0.0798863	0.6274882	0.4375277	3.400717	2.360615	0	0
26.64292	0.01073643	0.08526324	0.4687532	0.3257902	-4.781823	-3.366044	0	0
26.65944	0.0198395	0.09158922	0.5513031	0.3831162	2.500285	1.736299	0	0
26.67599	0.02872894	0.09768603	0.5368146	0.3681737	-0.4380984	-0.451822	0	0
26.69256	0.04026769	0.1055155	0.6964809	0.4725861	4.819848	3.151897	0	0
26.70913	0.04833075	0.110917	0.4865752	0.3259592	-6.334237	-4.424699	0	0
26.74226	0.06192074	0.1195102	0.4102174	0.2593904	-1.53638	-1.339419	0	0
26.75883	0.06797406	0.1235093	0.3653792	0.2413812	-0.9022512	-0.3623882	0	0
26.77552	0.06946699	0.1245131	0.08943402	0.06013402	-8.296521	-5.449346	0	0
26.79196	0.07242573	0.1265748	0.179978	0.1254161	2.73278	1.970329	0	0
26.80854	0.07266133	0.1267025	0.01421071	0.007702845	-5.020496	-3.56511	0	0
26.8251	0.07268751	0.1266843	0.001581401	-0.001102571	-0.3811534	-0.265748	0	0
26.84166	0.07268751	0.1266843	0	0	-0.04774327	0.03328714	0	0
26.85858	0.07268751	0.1266843	0	0	0	0	0	0
26.87509	0.07266133	0.1266661	-0.001585603	-0.001104597	-0.0474358	-0.03304578	0	0
26.89137	0.07266133	0.1266661	0	0	0.04836024	0.03368977	0	0
26.90793	0.07263515	0.1266843	-0.001579859	0.00110091	-0.04810391	0.03352074	0	0
26.92463	0.07260897	0.1267025	-0.001568212	0.001093375	0.0003501498	-0.000226515	0	0
26.94114	0.0725828	0.1267208	-0.001585151	0.001104597	-0.0005101081	0.0003379511	0	0
26.95763	0.07250426	0.1267755	-0.004761307	0.003317241	-0.09622769	0.06703626	0	0
26.9742	0.07247809	0.1267937	-0.001579859	0.00110091	0.09622678	-0.06703566	0	0
26.99077	0.0724519	0.126812	-0.001580309	0.001101809	-1.357235E-05	2.714469E-05	0	0
27.00734	0.0724519	0.126812	0	0	0.04769382	-0.03325266	0	0
27.0239	0.0724519	0.126812	0	0	0	0	0	0
27.04047	0.0724519	0.126812	0	0	0	0	0	0
27.05704	0.0724519	0.126812	0	0	0	0	0	0
27.0736	0.07242573	0.1268667	-0.001579859	0.003302729	-0.04768024	0.09967654	0	0
27.09282	0.07224248	0.1269944	-0.009535902	0.006644696	-0.2223366	0.09339339	0	0
27.10939	0.07219012	0.1270309	-0.003160618	0.002201819	0.1781614	-0.124159	0	0
27.12596	0.07219012	0.1270309	0	0	0.09538763	-0.06645104	0	0
27.14252	0.07219012	0.1270309	0	0	0	0	0	0
27.15909	0.07219012	0.1270309	0	0	0	0	0	0
27.17566	0.07219012	0.1270309	0	0	0	0	0	0
27.19233	0.07216395	0.1270491	-0.001570098	0.001094108	-0.04724423	0.03292169	0	0
27.20879	0.07213777	0.1270674	-0.001590195	0.001107797	-0.0006065255	0.0004131362	0	0
27.22536	0.07213777	0.1270674	0	0	0.04814182	-0.03353762	0	0
27.24192	0.07211158	0.1270856	-0.001580309	0.00110091	-0.04769382	0.03322552	0	0
27.25887	0.07205923	0.1271221	-0.003089389	0.002153384	-0.04502832	0.03140399	0	0
27.27538	0.07198069	0.1271768	-0.004756357	0.003313792	-0.04982165	0.03468182	0	0
27.29162	0.07195451	0.127195	-0.001612045	0.001123018	0.09600077	-0.06688777	0	0
27.30841	0.07195451	0.127195	0	0	0.04881459	-0.03400629	0	0
27.32492	0.07195451	0.127195	0	0	0	0	0	0
27.34132	0.07192833	0.1272133	-0.001595741	0.00111166	-0.04847768	0.03377159	0	0
27.35794	0.07192833	0.1272133	0	0	0.04832088	-0.03366236	0	0
27.37446	0.07192833	0.1272133	0	0	0	0	0	0
27.39103	0.07192833	0.1272133	0	0	0	0	0	0
27.40759	0.07190215	0.1272315	-0.001580309	0.00110091	-0.04769382	0.03322552	0	0
27.42449	0.07184979	0.127268	-0.003098897	0.002158822	-0.04537917	0.03161303	0	0
27.44073	0.07166652	0.1273957	-0.01128783	0.007863898	-0.2471568	0.1721895	0	0
27.45751	0.07158798	0.1274504	-0.004678978	0.003259573	0.2001353	-0.1394324	0	0
27.47402	0.07145707	0.1275416	-0.007928014	0.005522987	-0.09757306	0.06797349	0	0
27.49043	0.07140471	0.1275781	-0.003192595	0.002224096	0.1438759	-0.10023	0	0
27.50699	0.07137853	0.1275963	-0.001580309	0.00110091	0.04890381	-0.03406845	0	0
27.52356	0.07135235	0.1276145	-0.001580309	0.00110091	0	0	0	0
27.54013	0.0712738	0.1277057	-0.004740926	0.005504548	-0.09538763	0.1329021	0	0
27.55669	0.07106434	0.1278881	-0.01264337	0.0110082	-0.2384962	0.1661004	0	0
27.57326	0.06972887	0.1288546	-0.08060879	0.05833741	-2.051201	1.428398	0	0
27.58983	0.0678169	0.1301855	-0.1154071	0.08033492	-1.050214	0.6638861	0	0
27.6064	0.06178967	0.134413	-0.3638045	0.2551736	-7.496649	5.276641	0	0
27.62314	0.0577515	0.1372538	-0.2412171	0.1696898	3.680417	-2.566462	0	0
27.63965	0.05321287	0.1404388	-0.2749014	0.1929108	-1.01304	0.6983599	0	0
27.6561	0.05287173	0.1407481	-0.0207395	0.01880381	7.711462	-5.282536	0	0
27.67266	0.0529767	0.1407481	0.006335346	0	0.8199998	-0.5694999	0	0
27.68923	0.05321287	0.1409482	0.01425867	0.01208221	0.23914	0.3646627	0	0
27.7058	0.05360649	0.1412211	0.0237586	0.01647137	0.2867416	0.1324805	0	0
27.72236	0.0540788	0.1415485	0.02850875	0.0197642	0.1433597	0.09937794	0	0
27.73893	0.05452485	0.1418577	0.02692371	0.01866599	-0.04783633	-0.03314404	0	0
27.75573	0.05457732	0.1418941	0.003124201	0.002165604	-0.7133432	-0.4945664	0	0
27.77224	0.05457732	0.1418941	0	0	-0.09379724	-0.06501749	0	0
27.78863	0.05460356	0.1418759	0.001600635	-0.001109968	0.0486461	-0.03373386	0	0
27.8052	0.05460356	0.1418759	0	0	-0.04856446	0.03367724	0	0
27.82177	0.05457732	0.1418941	-0.001582771	0.001097579	-0.04775437	0.03311548	0	0
27.83833	0.05457732	0.1418941	0	0	0.04777086	-0.03312692	0	0
27.8549	0.05457732	0.1418941	0	0	0	0	0	0
27.87146	0.05457732	0.1418941	0	0	0	0	0	0
27.88803	0.05457732	0.1418941	0	0	0	0	0	0
27.90483	0.05452485	0.1419305	-0.003122783	0.002164621	-0.09357782	0.06486539	0	0
27.94071	0.05434119	0.1420578	-0.005118971	0.003548871	-0.03789065	0.02627514	0	0
27.95737	0.05155953	0.1439855	-0.1669977	0.1157302	-3.08129	2.135323	0	0
27.97388	0.04722801	0.1469849	-0.2623265	0.1816476	-2.874053	1.987332	0	0
27.99041	0.04131858	0.1510723	-0.3574762	0.2472597	-2.879578	1.985664	0	0
28.00698	0.03774522	0.1535416	-0.2156881	0.1490428	4.283858	-2.967438	0	0
28.02355	0.03411834	0.156046	-0.2189445	0.1511874	-0.09828477	0.06472714	0	0
28.04011	0.03248857	0.1571709	-0.0983731	0.06789661	3.639062	-2.513865	0	0
28.05694	0.03251485	0.1571527	0.001561969	-0.001078502	2.992447	-2.065385	0	0
28.07325	0.03251485	0.1571527	0	0	-0.04714031	0.03254926	0	0
28.08982	0.03251485	0.1571527	0	0	0	0	0	0
28.10638	0.03251485	0.1571527	0	0	0	0	0	0
28.12295	0.03248857	0.1571709	-0.001586605	0.001095513	-0.04788383	0.03306264	0	0
28.13952	0.03248857	0.1571709	0	0	0.04788383	-0.03306264	0	0
28.15608	0.03248857	0.1571709	0	0	0	0	0	0
28.17265	0.03248857	0.1571709	0	0	0	0	0	0
28.18922	0.03243599	0.1572072	-0.00317366	0.002190126	-0.09578124	0.06609815	0	0
28.22235	0.03022763	0.1587308	-0.06664825	0.04598321	-1.277111	0.8811185	0	0
28.23892	0.02830823	0.1600546	-0.1158557	0.07990498	-0.9900551	0.6825074	0	0
28.25549	0.02717752	0.1608342	-0.06824975	0.04705938	1.436749	-0.9912821	0	0
28.2721	0.02709863	0.1608886	-0.004748605	0.003273895	1.913824	-1.319626	0	0
28.28862	0.02709863	0.1608886	0	0	0.1433214	-0.09881204	0	0
28.30519	0.02709863	0.1608886	0	0	0	0	0	0
28.32175	0.02707233	0.1609067	-0.001587279	0.001093714	-0.04790419	0.03300836	0	0
28.33865	0.02704603	0.1609249	-0.001556634	0.00107348	0.0009158613	-0.0006047118	0	0
28.37145	0.02665158	0.1611968	-0.01202364	0.008289426	-0.2106047	0.1451907	0	0
28.38818	0.02657269	0.1612512	-0.004716229	0.003250606	0.1475236	-0.1017248	0	0
28.4047	0.0265201	0.1613237	-0.003184458	0.004391204	0.04607777	0.03431075	0	0
28.45631	0.02383759	0.1632088	-0.05197366	0.036523	-0.7161341	0.4716346	0	0
28.47288	0.02049713	0.16551	-0.2016306	0.138899	-2.195024	1.501553	0	0
28.48944	0.01457791	0.1695848	-0.3572844	0.2459552	-4.697642	3.230964	0	0
28.50627	0.005105219	0.1760628	-0.5630863	0.3850765	-6.163569	4.16655	0	0
28.52258	0.002894729	0.1775819	-0.1355161	0.09312697	12.90409	-8.811054	0	0
28.53915	-0.0001842105	0.1796971	-0.1858451	0.1276776	-1.530741	1.050846	0	0
28.5558	-0.0003157895	0.1797875	-0.007899377	0.00542572	5.355923	-3.679614	0	0
28.57232	-0.0003421053	0.1798056	-0.001593378	0.001094418	0.1900966	-0.1305686	0	0
28.58885	-0.0003421053	0.1798056	0	0	0.04822148	-0.03312111	0	0
28.60541	-0.0003421053	0.1798056	0	0	0	0	0	0
28.62198	-0.0003157895	0.1797875	0.001588425	-0.001091016	0.04793876	-0.03292692	0	0
28.63886	-0.0003157895	0.1797875	0	0	-0.04748771	0.03261712	0	0
28.65537	-0.0002894737	0.1797694	0.001593744	-0.001094671	0.04772566	-0.03278059	0	0
28.67168	-0.0002894737	0.1797694	0	0	-0.04856335	0.03335596	0	0
28.68825	-0.0002894737	0.1797694	0	0	0	0	0	0
28.70492	-0.0002631579	0.1797514	0.001578611	-0.001084275	0.04749493	-0.03262208	0	0
28.72142	-0.0002368421	0.1797333	0.001594297	-0.00109505	0.0004728277	-0.0003247839	0	0
28.73795	-0.0002105263	0.1796791	0.001592641	-0.003281737	-5.014773E-05	-0.06620394	0	0
28.75451	-0.0001842105	0.179661	0.001588424	-0.001091915	-0.0001274424	0.06617657	0	0
28.77108	-0.0001578947	0.1796068	0.001588424	-0.003273047	0	-0.06582669	0	0
28.791	-0.0001052632	0.1795706	0.002642102	-0.001814738	0.02887771	0.03996727	0	0
28.80798	-7.894737E-05	0.1795164	0.001549708	-0.00319327	-0.02960298	-0.03735711	0	0
28.8245	-5.263158E-05	0.1794983	0.001593561	-0.001094544	0.001309251	0.062658	0	0
28.8407	-2.631579E-05	0.1794802	0.001623947	-0.001116334	0.0009286887	-0.000665982	0	0
28.85727	0	0.179426	0.001588424	-0.003273047	-0.00108393	-0.0658095	0	0
28.87384	0.0001842105	0.1792994	0.01111897	-0.007638009	0.2876325	-0.1317348	0	0
28.8904	0.000368421	0.1791729	0.01112025	-0.007638889	3.856553E-05	-2.654894E-05	0	0
28.90697	0.0004473684	0.1791187	0.004765273	-0.003273047	-0.1918046	0.131769	0	0
28.92354	0.0005263158	0.1790644	0.004765273	-0.003273946	0	-2.714469E-05	0	0
28.9401	0.0005263158	0.1790644	0	0	-0.1438162	0.0988079	0	0
28.95667	0.0005263158	0.1790644	0	0	0	0	0	0
28.97324	0.0005263158	0.1790644	0	0	0	0	0	0
28.98981	0.0005263158	0.1790644	0	0	0	0	0	0
29.00637	0.0005263158	0.1790644	0	0	0	0	0	0
29.02294	0.0005263158	0.1790644	0	0	0	0	0	0
29.03951	0.0005	0.1790464	-0.001588425	-0.001091016	-0.04793876	-0.03292692	0	0
29.05607	0.0005263158	0.1790283	0.001588425	-0.001091016	0.09587751	0	0	0
29.07268	0.0005263158	0.1790283	0	0	-0.04788914	0.03289284	0	0
29.08921	0.0005263158	0.1790283	0	0	0	0	0	0
29.10577	0.0005263158	0.1790283	0	0	0	0	0	0
29.12234	0.0005526315	0.1790102	0.001588421	-0.001091915	0.04793865	-0.03295407	0	0
29.13891	0.0005526315	0.178974	0	-0.002182032	-0.04793865	-0.03289977	0	0
29.15574	0.0005789473	0.178956	0.00156376	-0.001074075	0.04682511	0.03317656	0	0
29.17204	0.0005526315	0.1789379	-0.001614069	-0.001108629	-0.09591259	-0.00104291	0	0
29.18861	0.0005789473	0.1789198	0.001588425	-0.001091915	0.09742537	0.0005084681	0	0
29.20518	0.0005789473	0.1789198	0	0	-0.04793876	0.03295407	0	0
29.22174	0.0005789473	0.1789198	0	0	0	0	0	0
29.23831	0.0006052631	0.1789017	0.001588425	-0.001091016	0.04793876	-0.03292692	0	0
29.25488	0.0006052631	0.1789017	0	0	-0.04793876	0.03292692	0	0
29.27144	0.0006052631	0.1789017	0	0	0	0	0	0
29.28801	0.0006052631	0.1789017	0	0	0	0	0	0
29.30458	0.0006052631	0.1789017	0	0	0	0	0	0
29.32136	0.0006052631	0.1789017	0	0	0	0	0	0
29.33771	0.0006052631	0.1789017	0	0	0	0	0	0
29.35428	0.0006052631	0.1789017	0	0	0	0	0	0
29.37089	0.0006052631	0.1789017	0	0	0	0	0	0
29.38741	0.0006315788	0.1788837	0.001593006	-0.001094165	0.04807979	-0.03302386	0	0
29.40398	0.0006052631	0.1788656	-0.001588421	-0.001091016	-0.09615406	9.517853E-05	0	0
29.42055	0.0006052631	0.1788656	0	0	0.04793865	0.03292692	0	0
29.43711	0.0006052631	0.1788656	0	0	0	0	0	0
29.45368	0.0006052631	0.1788656	0	0	0	0	0	0
29.47046	0.0006052631	0.1788656	0	0	0	0	0	0
29.48681	0.0006052631	0.1788656	0	0	0	0	0	0
29.50338	0.0006052631	0.1788656	0	0	0	0	0	0
29.52	0.0006052631	0.1788656	0	0	0	0	0	0
29.53652	0.0006315788	0.1788113	0.001593374	-0.003284155	0.04808813	-0.099116	0	0
29.55308	0.0006578946	0.178721	0.001588425	-0.005455978	-0.0001496091	-0.06564778	0	0
29.57004	0.0008157893	0.178504	0.009313935	-0.01279815	0.2304764	-0.2190403	0	0
29.58622	0.0009999997	0.178052	0.01138504	-0.02793547	0.06250972	-0.4568712	0	0
29.60278	0.0006842104	0.1773649	-0.01906108	-0.04147389	-0.9297301	-0.4134214	0	0
29.62228	-0.002368417	0.1738921	-0.1565544	-0.178101	-3.812264	-3.788246	0	0
29.63885	-0.001052631	0.1682811	0.07942097	-0.3386817	6.542867	-4.452404	0	0
29.65542	0.001684209	0.1562093	0.165196	-0.7286546	2.588696	-11.76941	0	0
29.67198	0.004657861	0.1467123	0.17949	-0.5732428	0.4313933	4.690335	0	0
29.68855	0.006447279	0.1397291	0.1080095	-0.4215035	-2.157286	4.579501	0	0
29.70512	0.008868189	0.129274	0.1461264	-0.6310739	1.150371	-6.324846	0	0
29.72169	0.01152581	0.111905	0.1604141	-1.048391	0.4312021	-12.59467	0	0
29.73825	0.01310451	0.1026016	0.09530199	-0.5616211	-1.965199	14.6916	0	0
29.75482	0.01365705	0.09366526	0.03335091	-0.5393984	-1.869795	0.6707209	0	0
29.77139	0.01539352	0.0916076	0.1048139	-0.1242009	2.156756	12.53069	0	0
29.78795	0.01570923	0.09142383	0.01905652	-0.01109229	-2.588161	3.413623	0	0
29.82109	0.01563031	0.09147896	-0.002382044	0.001663732	-0.4313447	0.2566517	0	0
29.83773	0.01563031	0.09147896	0	0	0.04785519	-0.03342432	0	0
29.85424	0.01563031	0.09147896	0	0	0	0	0	0
29.87079	0.01563031	0.09147896	0	0	0	0	0	0
29.88735	0.01563031	0.09151571	0	0.002218459	0	0.06699564	0	0
29.90392	0.01557769	0.09155247	-0.003176499	0.002218714	-0.09587244	7.70889E-06	0	0
29.92049	0.015604	0.09157085	0.001588066	0.001109454	0.1438031	-0.03347945	0	0
29.9373	0.015604	0.0916076	0	0.002186241	-0.04757738	0.0322598	0	0
29.95381	0.015604	0.0916076	0	0	0	-0.06560326	0	0
29.97019	0.015604	0.0916076	0	0	0	0	0	0
29.98683	0.01563031	0.09162597	0.001580424	0.001103668	0.04785985	0.03342227	0	0
30.00335	0.01568292	0.09169948	0.003186292	0.004451266	0.04842614	0.1009494	0	0
30.01989	0.0158934	0.09188323	0.01272617	0.01111058	0.2886286	0.2014772	0	0
30.03645	0.01594602	0.09191998	0.003176133	0.002218009	-0.2884698	-0.2686103	0	0
30.05338	0.01597233	0.09197511	0.001554137	0.003256602	-0.04842508	0.03100746	0	0
30.06959	0.01597233	0.09197511	0	0	-0.04690666	-0.09829011	0	0
30.0864	0.01597233	0.09197511	0	0	0	0	0	0
30.10272	0.01599864	0.09199348	0.001612572	0.001126118	0.04867034	0.03398826	0	0
30.13585	0.01597233	0.09201185	-0.0007940332	0.0005545022	-0.04866754	-0.01155949	0	0
30.15245	0.01597233	0.09201185	0	0	0.01596618	-0.01114976	0	0
30.16899	0.01597233	0.09201185	0	0	0	0	0	0
30.18555	0.01597233	0.09201185	0	0	0	0	0	0
30.20212	0.01597233	0.09201185	0	0	0	0	0	0
30.21869	0.01597233	0.09201185	0	0	0	0	0	0
30.23551	0.01597233	0.09201185	0	0	0	0	0	0
30.25182	0.01599864	0.09203023	0.00161295	0.001126838	0.04867892	0.03400804	0	0
30.26853	0.01599864	0.09203023	0	0	-0.04884199	-0.03412196	0	0
30.28495	0.01599864	0.09203023	0	0	0	0	0	0
30.30152	0.01599864	0.09203023	0	0	0	0	0	0
30.31809	0.01599864	0.09203023	0	0	0	0	0	0
30.33465	0.01599864	0.09203023	0	0	0	0	0	0
30.35122	0.01599864	0.09203023	0	0	0	0	0	0
30.3681	0.01599864	0.09203023	0	0	0	0	0	0
30.38435	0.01599864	0.09203023	0	0	0	0	0	0
30.41749	0.01599864	0.09203023	0	0	0	0	0	0
30.43415	0.01599864	0.09203023	0	0	0	0	0	0
30.45066	0.01599864	0.09203023	0	0	0	0	0	0
30.46719	0.01599864	0.09203023	0	0	0	0	0	0
30.48376	0.01599864	0.09203023	0	0	0	0	0	0
30.50286	0.01599864	0.09203023	0	0	0	0	0	0
30.51971	0.01599864	0.09203023	0	0	0	0	0	0
30.53622	0.01599864	0.09203023	0	0	0	0	0	0
30.55256	0.01599864	0.09203023	0	0	0	0	0	0
30.56925	0.01599864	0.09203023	0	0	0	0	0	0
30.5857	0.01599864	0.09203023	0	0	0	0	0	0
30.60226	0.01599864	0.09203023	0	0	0	0	0	0
30.61883	0.01599864	0.09203023	0	0	0	0	0	0
30.6354	0.01599864	0.09203023	0	0	0	0	0	0
30.65196	0.01599864	0.09203023	0	0	0	0	0	0
30.66853	0.01599864	0.09203023	0	0	0	0	0	0
30.68533	0.01599864	0.09203023	0	0	0	0	0	0
30.70166	0.01599864	0.09203023	0	0	0	0	0	0
30.71823	0.01599864	0.09203023	0	0	0	0	0	0
30.7348	0.01599864	0.09203023	0	0	0	0	0	0
30.75138	0.01599864	0.09203023	0	0	0	0	0	0
30.76793	0.01599864	0.09203023	0	0	0	0	0	0
30.7845	0.01599864	0.09203023	0	0	0	0	0	0
30.80107	0.01599864	0.09203023	0	0	0	0	0	0
30.81763	0.01599864	0.09203023	0	0	0	0	0	0
30.8342	0.01599864	0.09203023	0	0	0	0	0	0
30.85095	0.01599864	0.09203023	0	0	0	0	0	0
30.86733	0.01599864	0.09203023	0	0	0	0	0	0
30.88397	0.01599864	0.09203023	0	0	0	0	0	0
30.90049	0.01599864	0.09203023	0	0	0	0	0	0
30.91703	0.01599864	0.09203023	0	0	0	0	0	0
30.9336	0.01599864	0.09203023	0	0	0	0	0	0
30.95017	0.01599864	0.09203023	0	0	0	0	0	0
30.96673	0.01599864	0.09203023	0	0	0	0	0	0
30.98355	0.01599864	0.09203023	0	0	0	0	0	0
30.99987	0.01599864	0.09203023	0	0	0	0	0	0
31.11584	0.01620911	0.09250794	0.001814929	0.004119359	0.01371973	0.03113978	0	0
31.1324	0.01689313	0.09416117	0.04128771	0.09978881	0.2978313	0.7218482	0	0
31.14916	0.0174456	0.09638289	0.03295998	0.1325467	-0.2498641	0.9828638	0	0
31.16553	0.01768237	0.1089036	0.01446298	0.7648185	-0.5582728	19.0831	0	0
31.1821	0.01957645	0.1241116	0.1143268	0.9179575	3.031874	4.649308	0	0
31.1987	0.0247844	0.1507999	0.3137745	1.60795	6.013804	20.80485	0	0
31.21523	0.0303328	0.174453	0.3355589	1.4305	0.6574913	-5.35574	0	0
31.2318	0.04150247	0.2063456	0.6742029	1.925042	10.23031	14.93991	0	0
31.26525	0.06084585	0.2350956	0.5783577	0.859612	-1.916421	-21.30323	0	0
31.2815	0.1022214	0.2678459	2.545495	2.014852	39.58039	23.24437	0	0
31.29807	0.1222557	0.2816066	1.20927	0.830602	-40.71168	-36.08137	0	0
31.31464	0.1401024	0.2939445	1.07723	0.7447167	-3.984962	-2.592025	0	0
31.3312	0.1552408	0.3044531	0.9137549	0.6343002	-4.933702	-3.332377	0	0
31.34777	0.1711511	0.3155831	0.960351	0.6718066	1.406275	1.131947	0	0
31.36434	0.1808445	0.322406	0.585092	0.4118319	-11.32534	-7.846054	0	0
31.38091	0.1890824	0.3281924	0.4972387	0.3492635	-2.651417	-1.888316	0	0
31.39747	0.1975474	0.3342283	0.5109497	0.3643291	0.413799	0.4546792	0	0
31.41734	0.2022744	0.3378176	0.2379546	0.1806859	-7.493225	-5.040674	0	0
31.4339	0.2053786	0.3405855	0.1873714	0.1670684	-1.388417	-0.3737754	0	0
31.45047	0.2065133	0.3414962	0.06849024	0.05496992	-3.58784	-3.383139	0	0
31.4674	0.2099141	0.3446926	0.2009249	0.1888505	3.954096	3.997266	0	0
31.48361	0.2125055	0.3476034	0.1598777	0.1795827	-1.238808	-0.279703	0	0
31.50017	0.2122037	0.3488892	-0.01821448	0.07760873	-5.433635	-3.111251	0	0
31.51674	0.2122289	0.3488356	0.001517348	-0.003234371	0.5955076	-2.43985	0	0
31.53331	0.212254	0.3488177	0.001518248	-0.001077524	2.714469E-05	0.06509378	0	0
31.54996	0.212254	0.3487463	0	-0.004290163	-0.04570505	-0.09671268	0	0
31.56647	0.212254	0.3486749	0	-0.00432634	0	-0.001090875	0	0
31.58301	0.212254	0.3486034	0	-0.004319355	0	0.0002113406	0	0
31.59958	0.2122289	0.3484784	-0.001518248	-0.007544468	-0.04586041	-0.09741823	0	0
31.61614	0.2121283	0.3483356	-0.006071192	-0.008623791	-0.1374081	-0.03257402	0	0
31.63271	0.2119774	0.3482284	-0.009108587	-0.006466944	-0.09166876	0.06509378	0	0
31.64953	0.2116755	0.3479427	-0.01794421	-0.01698747	-0.2646336	-0.3150977	0	0
31.66585	0.2115749	0.3478355	-0.006167427	-0.006567506	0.355424	0.3144751	0	0
31.68256	0.2114743	0.3477284	-0.006021207	-0.006410851	0.004427454	0.004743421	0	0
31.69898	0.211424	0.3476927	-0.003063299	-0.002174071	0.08926985	0.1278663	0	0
31.71555	0.211424	0.3476927	0	0	0.09285676	0.0659019	0	0
31.73211	0.2113988	0.3476748	-0.001518248	-0.001079323	-0.04582081	-0.03257403	0	0
31.74868	0.211424	0.347657	0.001518423	-0.001077648	0.09165217	5.054699E-05	0	0
31.76525	0.211424	0.347657	0	0	-0.04582872	0.03252536	0	0
31.78181	0.2113988	0.3476391	-0.001518248	-0.001077524	-0.04582081	-0.03251974	0	0
31.79838	0.211424	0.3476213	0.001518248	-0.001077524	0.09164162	0	0	0
31.81495	0.2114743	0.3475498	0.003036845	-0.004312392	0.045834	-0.09763412	0	0
31.83151	0.2114995	0.347532	0.001518248	-0.001077524	-0.045834	0.09763412	0	0
31.84818	0.2115749	0.347407	0.004529569	-0.007503076	0.09062103	-0.193367	0	0
31.86465	0.2115749	0.3469784	0	-0.02601935	-0.1367027	-0.5588223	0	0
31.94775	0.2125055	0.3437105	0.01119819	-0.03932502	0.1124641	-0.1336297	0	0
31.96426	0.2125055	0.3437105	0	0	-0.1124189	0.3947848	0	0
31.98062	0.2125306	0.3436926	0.00153699	-0.001093294	0.04676331	-0.03326377	0	0
31.99718	0.2126061	0.343639	0.004552945	-0.003232572	0.09160703	-0.06497873	0	0
32.01375	0.2128072	0.3434962	0.01214288	-0.008624784	0.229078	-0.1627466	0	0
32.03032	0.2132346	0.3431926	0.02579582	-0.01832331	0.4120702	-0.2927189	0	0
32.04688	0.2142147	0.3424962	0.05916219	-0.04203603	1.006999	-0.7156515	0	0
32.06345	0.2193348	0.3388533	0.309048	-0.2198833	7.541567	-5.367441	0	0
32.08002	0.2212894	0.3374605	0.1179799	-0.08407387	-5.766445	4.098736	0	0
32.09658	0.2248934	0.3349247	0.2175367	-0.153057	3.004629	-2.081915	0	0
32.11315	0.2258434	0.3342462	0.05734533	-0.04095851	-4.834584	3.383139	0	0
32.12972	0.2258434	0.3342462	0	0	-1.730686	1.23613	0	0
32.14629	0.2258434	0.3342462	0	0	0	0	0	0
32.1629	0.2258684	0.3342283	0.001504749	-0.001076102	0.04534555	-0.03242829	0	0
32.17942	0.2258934	0.3342104	0.001512883	-0.001080759	0.0002454652	-0.0001405579	0	0
32.19599	0.2259184	0.3341926	0.001509253	-0.001077524	-0.0001096916	9.778081E-05	0	0
32.21255	0.2260184	0.3341211	0.006034315	-0.004311895	0.1365666	-0.09761352	0	0
32.22912	0.2260434	0.3341033	0.001508354	-0.001077524	-0.1365938	0.09761352	0	0
32.24596	0.2260684	0.3340854	0.00148464	-0.001059952	-0.0007097933	0.0005259735	0	0
32.26226	0.2260934	0.3340676	0.001533782	-0.001095689	0.001483085	-0.001078547	0	0
32.27899	0.2260934	0.3340676	0	0	-0.04644469	0.03317873	0	0
32.2955	0.2260934	0.3340676	0	0	0	0	0	0
32.31195	0.2261184	0.3340497	0.001518494	-0.001086579	0.04606156	-0.03295997	0	0
32.34758	0.2261184	0.3340497	0	0	-0.02915792	0.02086435	0	0
32.36414	0.2261184	0.3340497	0	0	0	0	0	0
32.38071	0.2261184	0.3340497	0	0	0	0	0	0
32.39728	0.2261184	0.3340497	0	0	0	0	0	0
32.41385	0.2260934	0.3340676	-0.001508354	0.001079323	-0.04552221	0.03257403	0	0
32.43041	0.2260934	0.3340676	0	0	0.04552221	-0.03257403	0	0
32.44698	0.2261184	0.3340497	0.001508354	-0.001079323	0.04552221	-0.03257403	0	0
32.46355	0.2261184	0.3340497	0	0	-0.04552221	0.03257403	0	0
32.48013	0.2261184	0.3340497	0	0	0	0	0	0
32.55183	0.2261434	0.3340319	0.0003485385	-0.0002489858	0.003947944	-0.002820297	0	0
32.5684	0.2261434	0.3340319	0	0	-0.003948797	0.002820906	0	0
32.58496	0.2261684	0.334014	0.001509253	-0.001077524	0.04554936	-0.03251974	0	0
32.60153	0.2261684	0.334014	0	0	-0.04554936	0.03251974	0	0
32.61823	0.2261934	0.3339961	0.001496295	-0.00106891	0.04497705	-0.0321303	0	0
32.63475	0.2261934	0.3339961	0	0	-0.0450442	0.03217826	0	0
32.65126	0.2261934	0.3339961	0	0	0	0	0	0
32.6678	0.2261934	0.3339961	0	0	0	0	0	0
32.68437	0.2261934	0.3339961	0	0	0	0	0	0
32.70093	0.2261934	0.3339961	0	0	0	0	0	0
32.7175	0.2261934	0.3339961	0	0	0	0	0	0
32.73407	0.2261684	0.3339783	-0.001508354	-0.001077524	-0.04552221	-0.03251974	0	0
32.75083	0.2261684	0.3339783	0	0	0.04525649	0.03232992	0	0
32.7672	0.2261684	0.3339783	0	0	0	0	0	0
32.78385	0.2261434	0.3339961	-0.001501647	0.001072093	-0.0454716	0.03246423	0	0
32.80036	0.2261184	0.3339783	-0.001513582	-0.001081259	-0.0003599094	-0.06493596	0	0
32.8169	0.2261184	0.3339783	0	0	0.04580126	0.03271909	0	0
32.83347	0.2260934	0.3339604	-0.001508354	-0.001077524	-0.04556418	-0.03254972	0	0
32.85003	0.2260184	0.3339069	-0.004525961	-0.003234371	-0.09107157	-0.06509378	0	0
32.86691	0.2259434	0.3338533	-0.004443095	-0.003175152	0.002477817	0.001770716	0	0
32.88317	0.2257684	0.3337283	-0.01076189	-0.007687852	-0.1907017	-0.1361935	0	0
32.89993	0.2256435	0.333639	-0.007455205	-0.005325654	0.1001304	0.07153009	0	0
32.9163	0.2255435	0.3335319	-0.006110686	-0.006546839	0.04058231	-0.03685967	0	0
32.99913	0.2009608	0.3160654	-0.2967759	-0.2108655	-2.93017	-2.059719	0	0
33.0157	0.1954717	0.3121891	-0.3313207	-0.2339721	-0.347535	-0.2324609	0	0
33.03226	0.1896662	0.3081338	-0.3504256	-0.2447797	-0.576587	-0.3261746	0	0
33.04904	0.1791888	0.3007721	-0.6246491	-0.4388965	-8.224948	-5.822262	0	0
33.0654	0.1746497	0.2976266	-0.277495	-0.1922935	10.47834	7.44335	0	0
33.08196	0.1671366	0.2924072	-0.4534884	-0.3150472	-5.345338	-3.728321	0	0
33.09853	0.1557288	0.2845219	-0.6885793	-0.4759545	-7.095058	-4.856191	0	0
33.1151	0.1468046	0.2784225	-0.5386631	-0.3681643	4.524479	3.253114	0	0
33.13166	0.137831	0.2723029	-0.5416475	-0.3693785	-0.09006771	-0.03664571	0	0
33.15105	0.1243032	0.2631547	-0.6978056	-0.4718907	-4.343332	-2.851241	0	0
33.16762	0.1192733	0.2597516	-0.3036055	-0.2054078	10.96416	7.411872	0	0
33.18463	0.1114312	0.25452	-0.4609292	-0.3075007	-4.684933	-3.040219	0	0
33.20075	0.106048	0.2509533	-0.3339266	-0.2212457	3.832945	2.603181	0	0
33.21732	0.1047208	0.2500032	-0.0801132	-0.05734803	7.764694	5.01398	0	0
33.23417	0.1047468	0.250057	0.00154499	0.003190797	2.443631	1.811631	0	0
33.25045	0.1047468	0.250057	0	0	-0.04662788	-0.09629844	0	0
33.26702	0.1047468	0.2500211	0	-0.002164043	0	-0.06587213	0	0
33.28371	0.1047468	0.2500211	0	0	0	0.06507121	0	0
33.30022	0.1047468	0.2500211	0	0	0	0	0	0
33.31673	0.1047468	0.2500211	0	0	0	0	0	0
33.33329	0.1047468	0.2500211	0	0	0	0	0	0
33.34985	0.1047468	0.2500211	0	0	0	0	0	0
33.36642	0.1047468	0.2500211	0	0	0	0	0	0
33.38299	0.1047468	0.2500211	0	0	0	0	0	0
33.39956	0.1047468	0.2500211	0	0	0	0	0	0
33.4163	0.1047208	0.250039	-0.001554846	0.001071571	-0.04667814	0.03216971	0	0
33.43269	0.1046947	0.2500211	-0.001587681	-0.001094514	-0.0009909675	-0.06537256	0	0
33.44926	0.1046947	0.2500211	0	0	0.04817142	0.03320835	0	0
33.46582	0.1046947	0.2500211	0	0	0	0	0	0
33.48239	0.1046947	0.2500211	0	0	0	0	0	0
33.49896	0.1046947	0.2500211	0	0	0	0	0	0
33.51553	0.1046947	0.2500211	0	0	0	0	0	0
33.53209	0.1046687	0.2500032	-0.001571315	-0.001081122	-0.04742237	-0.03262833	0	0
33.54866	0.1046687	0.2500032	0	0	0.04742237	0.03262833	0	0
33.56541	0.1046687	0.2500032	0	0	0	0	0	0
33.58179	0.1046427	0.2500211	-0.00158842	0.001093204	-0.04794414	0.03299677	0	0
33.59836	0.1046167	0.250039	-0.001571315	0.001082921	0.0005191239	-0.0003120792	0	0
33.61493	0.1044865	0.2501287	-0.007855673	0.005411006	-0.1896623	0.1306219	0	0
33.63149	0.1043824	0.2502004	-0.006284358	0.004328086	0.04742238	-0.03268261	0	0
33.64806	0.1042783	0.2502721	-0.006284808	0.004328086	-1.357586E-05	0	0	0
33.66463	0.1042002	0.2503259	-0.004713943	0.003245165	0.0474088	-0.03268262	0	0
33.68119	0.1036535	0.2507023	-0.03299806	0.02272335	-0.8536162	0.5878527	0	0
33.69776	0.1000595	0.25314	-0.2169358	0.1471405	-5.551253	3.754918	0	0
33.71433	0.09528948	0.2563119	-0.2879166	0.1914539	-2.142205	1.337381	0	0
33.7309	0.09330722	0.2575302	-0.1196497	0.07353967	5.078306	-3.558659	0	0
33.74746	0.07964694	0.2613458	-0.8245358	0.2303078	-21.2735	4.73127	0	0
33.78106	0.05701708	0.2601278	-0.6735873	-0.03625401	3.009145	-5.313884	0	0
33.83029	0.02041822	0.2574227	-0.7433886	-0.05494477	-0.8427209	-0.2256561	0	0
33.84686	0.01668266	0.2564911	-0.2254785	-0.05623633	7.871009	-0.01962868	0	0
33.86362	0.01368336	0.2557385	-0.1789779	-0.04490809	1.395357	0.3399301	0	0
33.88013	0.009631281	0.2562761	-0.2453748	0.03255299	-1.995589	2.328131	0	0
33.89656	0.007657745	0.2577631	-0.1201464	0.09053138	3.80172	1.760126	0	0
33.91312	0.007684059	0.2577452	0.001588347	-0.001081122	3.68968	-2.776699	0	0
33.94668	0.007684059	0.2577452	0	0	-0.03169006	0.02157011	0	0
33.96283	0.007710373	0.2577273	0.001629594	-0.001109216	0.0327875	-0.02231747	0	0
33.97939	0.007710373	0.2577273	0	0	-0.04981207	0.0339056	0	0
33.99596	0.007710373	0.2577273	0	0	0	0	0	0
34.0153	0.007763002	0.2576915	0.00272062	-0.001851829	0.07575889	-0.05156638	0	0
34.03187	0.007763002	0.2576915	0	0	-0.07575889	0.05156638	0	0
34.04844	0.007789316	0.2576736	0.001588319	-0.001082921	0.04793558	-0.03268262	0	0
34.06501	0.007789316	0.2576736	0	0	-0.04793558	0.03268262	0	0
34.08157	0.00781563	0.2576557	0.001588319	-0.001081122	0.04793558	-0.03262833	0	0
34.09814	0.00781563	0.2576198	0	-0.002162244	-0.04793558	-0.03262833	0	0
34.11471	0.007841945	0.2576019	0.001588347	-0.001081122	0.04793642	0.03262833	0	0
34.13131	0.007894573	0.2575661	0.00317007	-0.002157772	0.04768705	-0.03245974	0	0
34.14784	0.007894573	0.2575661	0	0	-0.09567289	0.0651217	0	0
34.16441	0.007894573	0.2575661	0	0	0	0	0	0
34.18097	0.007920887	0.2575482	0.001588713	-0.00108317	0.04795299	-0.0326939	0	0
34.19754	0.007947201	0.2575302	0.001588291	-0.001081122	-1.273762E-05	6.182225E-05	0	0
34.21411	0.007973515	0.2575123	0.001588347	-0.001081122	1.693469E-06	0	0	0
34.23067	0.008026144	0.2574765	0.003176639	-0.002162244	0.04793473	-0.03262833	0	0
