Time	Pos X	Pos Y	Vel X	Vel Y	Acc X	Acc YForce X	Force Y
0.01674477	0.03414462	0.2118908	-0.0005173733	-0.003210657	7.841387E-06	4.86612E-05	0	0
0.0869344	0.03398691	0.2119988	-0.002246915	0.001538528	2.623463E-05	-7.203822E-05	0	0
0.1038067	0.03393434	0.2120348	-0.00311584	0.00213375	-0.009980535	0.006836764	0	0
0.1200687	0.03393434	0.2120348	0	0	0.09403683	-0.0643971	0	0
0.1366354	0.03393434	0.2120348	0	0	0	0	0	0
0.1863648	0.03346119	0.2123588	-0.009514396	0.006514277	-0.1435135	0.09826025	0	0
0.2029019	0.03196279	0.2133845	-0.09060807	0.06202806	-1.22375	0.8377346	0	0
0.2194683	0.02509999	0.2180799	-0.4142619	0.2834257	-9.777039	6.688051	0	0
0.2360354	0.01947122	0.2218918	-0.3397553	0.2300924	2.248683	-1.609651	0	0
0.2529152	0.01410433	0.2255584	-0.3179484	0.2172174	0.6519857	-0.3849387	0	0
0.2691689	0.01136793	0.2274271	-0.1683555	0.1149697	4.514859	-3.085938	0	0
0.2859357	0.01126268	0.2274989	-0.006277239	0.004286326	4.908406	-3.351953	0	0
0.3023023	0.01123637	0.227481	-0.001607648	-0.001098017	0.1409327	-0.1625046	0	0
0.3189591	0.01123637	0.227481	0	0	0.04868218	0.03324973	0	0
0.3354358	0.01123637	0.227481	0	0	0	0	0	0
0.3520021	0.01121006	0.227463	-0.001588321	-0.001084778	-0.04806822	-0.03282923	0	0
0.3685688	0.01121006	0.227463	0	0	0.04793764	0.03274006	0	0
0.3851352	0.01118374	0.2274451	-0.001588321	-0.001083879	-0.04793764	-0.03271291	0	0
0.4017019	0.01115743	0.2273912	-0.001588284	-0.003253359	1.120829E-06	-0.06547782	0	0
0.4182686	0.01118374	0.2273372	0.001588284	-0.003254259	0.09587193	-2.714552E-05	0	0
0.4348353	0.01115743	0.2273193	-0.001588284	-0.001083853	-0.09587193	0.06550496	0	0
0.4515521	0.01115743	0.2272833	0	-0.002150035	0.04771989	-0.03203338	0	0
0.4679696	0.01115743	0.2272833	0	0	0	0.0648886	0	0
0.4845352	0.01115743	0.2272474	0	-0.002168758	0	-0.06575369	0	0
0.5011019	0.01118374	0.2272294	0.001588281	-0.001084751	0.04793751	0.03271753	0	0
0.5180993	0.01121006	0.2272115	0.00154804	-0.001057268	-0.001198909	0.0008188229	0	0
0.534237	0.01123637	0.2271935	0.001630513	-0.001112671	0.002488968	-0.001672032	0	0
0.5516299	0.01128899	0.2271217	0.003025619	-0.00413204	0.04160696	-0.0900482	0	0
0.5676389	0.01136793	0.2270678	0.0049308	-0.003366706	0.0570381	0.0229129	0	0
0.5839356	0.01136793	0.2270318	0	-0.002205447	-0.1526293	0.03594593	0	0
0.6170722	0.01136793	0.2270318	0	0	0	0.04461455	0	0
0.6376639	0.01136793	0.2270318	0	0	0	0	0	0
0.6542318	0.01136793	0.2270318	0	0	0	0	0	0
0.6707986	0.01136793	0.2270318	0	0	0	0	0	0
0.6877206	0.01134162	0.2270138	-0.001554883	-0.001061979	-0.04643001	-0.03171151	0	0
0.7039316	0.01136793	0.2269959	0.001623075	-0.001107635	0.09591511	-0.001377953	0	0
0.7207443	0.01134162	0.2269779	-0.001564993	-0.001068884	-0.09653874	0.001173427	0	0
0.7370659	0.01134162	0.2269779	0	0	0.04723183	0.03225914	0	0
0.7537673	0.01134162	0.2269779	0	0	0	0	0	0
0.770199	0.01134162	0.2269779	0	0	0	0	0	0
0.7867658	0.01134162	0.2269779	0	0	0	0	0	0
0.8033317	0.01131531	0.2269599	-0.001588361	-0.001084806	-0.04793941	-0.03274126	0	0
0.8198984	0.01131531	0.2269599	0	0	0.04793941	0.03274126	0	0
0.8364648	0.01131531	0.226924	0	-0.002168657	0	-0.0654529	0	0
0.8530315	0.01134162	0.226906	0.001588281	-0.001084751	0.04793639	0.03271371	0	0
0.8695983	0.01131531	0.2268881	-0.001588281	-0.001084751	-0.09587158	0	0	0
0.8863592	0.01131531	0.2268881	0	0	0.04765648	0.03254803	0	0
0.9027317	0.01131531	0.2268881	0	0	0	0	0	0
0.9193829	0.01134162	0.2268701	0.001580225	-0.001079249	0.0478512	-0.03268102	0	0
0.9358984	0.01134162	0.2268701	0	0	-0.04764499	0.03254018	0	0
0.9524316	0.01134162	0.2268701	0	0	0	0	0	0
0.9689983	0.01136793	0.2268521	0.001588225	-0.001083851	0.04798269	-0.03274481	0	0
0.9855651	0.01136793	0.2268521	0	0	-0.04793409	0.03271164	0	0
1.035265	0.01136793	0.2268521	0	0	0	0	0	0
1.051832	0.01136793	0.2268521	0	0	0	0	0	0
1.06849	0.01136793	0.2268521	0	0	0	0	0	0
1.084965	0.01136793	0.2268521	0	0	0	0	0	0
1.101532	0.01136793	0.2268521	0	0	0	0	0	0
1.118099	0.01136793	0.2268521	0	0	0	0	0	0
1.134665	0.01134162	0.2268342	-0.001588259	-0.001084774	-0.04793513	-0.03273949	0	0
1.151232	0.01134162	0.2268342	0	0	0.04793565	0.03273985	0	0
1.168059	0.01134162	0.2268342	0	0	0	0	0	0
1.184366	0.01134162	0.2268342	0	0	0	0	0	0
1.200932	0.01134162	0.2268342	0	0	0	0	0	0
1.217594	0.01134162	0.2268342	0	0	0	0	0	0
1.234105	0.01134162	0.2268342	0	0	0	0	0	0
1.250634	0.01136793	0.2268162	0.001591902	-0.001087262	0.04818167	-0.03290788	0	0
1.267198	0.01136793	0.2268162	0	0	-0.04810357	0.03285454	0	0
1.283766	0.01134162	0.2267982	-0.00158819	-0.001084727	-0.04793547	-0.03273973	0	0
1.300332	0.01134162	0.2267982	0	0	0.04793306	0.03273808	0	0
1.316898	0.01136793	0.2267803	0.001588259	-0.001084774	0.04793616	-0.0327402	0	0
1.333677	0.01136793	0.2267803	0	0	-0.04763095	0.03253174	0	0
1.350189	0.01136793	0.2267803	0	0	0	0	0	0
1.366699	0.01136793	0.2267803	0	0	0	0	0	0
1.383211	0.01136793	0.2267803	0	0	0	0	0	0
1.399733	0.01136793	0.2267803	0	0	0	0	0	0
1.416298	0.01136793	0.2267803	0	0	0	0	0	0
1.432866	0.01139424	0.2267623	0.001588247	-0.001083828	0.04793596	-0.03271176	0	0
1.449432	0.01139424	0.2267623	0	0	-0.04793476	0.03271094	0	0
1.465999	0.01139424	0.2267623	0	0	0	0	0	0
1.482565	0.01139424	0.2267623	0	0	0	0	0	0
1.499133	0.01136793	0.2267443	-0.001588247	-0.001084727	-0.04793424	-0.03273773	0	0
1.515699	0.01136793	0.2267443	0	0	0.04793476	0.03273808	0	0
1.550752	0.01136793	0.2267443	0	0	0	0	0	0
1.567318	0.01139424	0.2267264	0.001588361	-0.001084806	0.03077104	-0.02101575	0	0
1.583884	0.01136793	0.2267084	-0.001588281	-0.001084751	-0.09587641	1.651397E-06	0	0
1.600454	0.01136793	0.2267084	0	0	0.04793182	0.03273608	0	0
1.617019	0.01139424	0.2266904	0.001588429	-0.001083953	0.04793855	-0.03271352	0	0
1.633889	0.01139424	0.2266904	0	0	-0.04750732	0.03241926	0	0
1.650153	0.01136793	0.2266725	-0.001617886	-0.00110497	-0.04882877	-0.03334867	0	0
1.66672	0.01139424	0.2266545	0.001588247	-0.001084727	0.09765649	0.0006165835	0	0
1.683429	0.01139424	0.2266545	0	0	-0.04773006	0.03259828	0	0
1.699936	0.01139424	0.2266545	0	0	0	0	0	0
1.716418	0.01139424	0.2266545	0	0	0	0	0	0
1.732984	0.01139424	0.2266545	0	0	0	0	0	0
1.749552	0.01139424	0.2266545	0	0	0	0	0	0
1.766119	0.01139424	0.2266545	0	0	0	0	0	0
1.782996	0.01139424	0.2266545	0	0	0	0	0	0
1.799251	0.01139424	0.2266545	0	0	0	0	0	0
1.815818	0.01139424	0.2266545	0	0	0	0	0	0
1.832385	0.01139424	0.2266545	0	0	0	0	0	0
1.848952	0.01139424	0.2266545	0	0	0	0	0	0
1.865518	0.01139424	0.2266545	0	0	0	0	0	0
1.882085	0.01139424	0.2266545	0	0	0	0	0	0
1.898651	0.01139424	0.2266545	0	0	0	0	0	0
1.931785	0.01136793	0.2266365	-0.0007941404	-0.0005423754	-0.01597871	-0.01091301	0	0
1.948352	0.01136793	0.2266365	0	0	0.01597848	0.01091285	0	0
2.03276	0.01136793	0.2266365	0	0	0	0	0	0
2.049326	0.01136793	0.2266365	0	0	0	0	0	0
2.065894	0.01136793	0.2266365	0	0	0	0	0	0
2.08246	0.01136793	0.2266365	0	0	0	0	0	0
2.099026	0.01136793	0.2266365	0	0	0	0	0	0
2.115729	0.01136793	0.2266365	0	0	0	0	0	0
2.132241	0.01136793	0.2266365	0	0	0	0	0	0
2.148726	0.01136793	0.2266365	0	0	0	0	0	0
2.165295	0.01136793	0.2266365	0	0	0	0	0	0
2.18186	0.01136793	0.2266365	0	0	0	0	0	0
2.198427	0.01136793	0.2266365	0	0	0	0	0	0
2.214993	0.01136793	0.2266365	0	0	0	0	0	0
2.23156	0.01136793	0.2266365	0	0	0	0	0	0
2.248127	0.01136793	0.2266365	0	0	0	0	0	0
2.264694	0.01136793	0.2266365	0	0	0	0	0	0
2.28126	0.01136793	0.2266365	0	0	0	0	0	0
2.297858	0.01136793	0.2266365	0	0	0	0	0	0
2.314393	0.01139424	0.2266186	0.00159135	-0.001086847	0.04802945	-0.03280275	0	0
2.33096	0.01142056	0.2266006	0.001588281	-0.001083851	-9.270936E-05	9.049019E-05	0	0
2.347527	0.01144687	0.2265826	0.001588225	-0.001084751	-1.697031E-06	-2.714548E-05	0	0
2.364094	0.01189418	0.2261334	0.02699955	-0.02711439	0.7669262	-0.7855875	0	0
2.380661	0.01210467	0.2256662	0.01270542	-0.02819961	-0.4313945	-0.0327516	0	0
2.397228	0.01363073	0.2203816	0.09211994	-0.3190025	2.396804	-8.776701	0	0
2.413943	0.01591971	0.2119088	0.1369408	-0.5068965	1.346738	-5.645669	0	0
2.430453	0.01786652	0.1998412	0.117912	-0.7308974	-0.5727133	-6.74178	0	0
2.446927	0.01883988	0.1856416	0.05908429	-0.8619369	-1.783483	-3.972732	0	0
2.463494	0.01955014	0.1654375	0.04287296	-1.219559	-0.4906463	-10.82365	0	0
2.4995	0.01923447	0.1304407	-0.008767206	-0.971971	-0.9822615	4.70943	0	0
2.515978	0.0185505	0.1118136	-0.04150882	-1.130455	-0.6238452	-3.019686	0	0
2.532544	0.01810328	0.09878699	-0.02699498	-0.7863081	0.4392232	10.4147	0	0
2.549112	0.01741929	0.08570489	-0.04128602	-0.7896373	-0.4313104	-0.1004756	0	0
2.565678	0.01776129	0.06772624	0.02064377	-1.085225	1.869072	-8.920969	0	0
2.582244	0.01812959	0.05298977	0.02223239	-0.8895591	0.04794712	5.905491	0	0
2.598811	0.01941861	0.03393103	0.07780761	-1.150421	1.677348	-7.873218	0	0
2.615378	0.02065496	0.02543937	0.07462811	-0.5125722	-0.09595998	19.25086	0	0
2.631945	0.02594155	0.01362951	0.3191083	-0.7128652	7.37864	-6.045029	0	0
2.648511	0.03041167	0.009990539	0.2698329	-0.2196615	-1.4872	14.88556	0	0
2.665078	0.03866493	0.004092438	0.4981675	-0.3560101	6.89135	-4.115129	0	0
2.681644	0.0459676	-0.00110041	0.4408216	-0.3134635	-1.730765	1.284105	0	0
2.698211	0.05085086	-0.004566815	0.2947628	-0.2092386	-4.408284	3.145671	0	0
2.714778	0.05594157	-0.00818783	0.3072847	-0.2185711	0.3779205	-0.2816633	0	0
2.731344	0.06066232	-0.01147285	0.2849533	-0.1982899	-0.673982	0.6121053	0	0
2.747912	0.06907415	-0.0173527	0.5077388	-0.3549086	6.723776	-4.726827	0	0
2.847312	0.1112233	-0.0476838	0.4240355	-0.3051417	-0.7217834	0.4291458	0	0
2.863878	0.1181057	-0.05267629	0.4154446	-0.3013648	-0.07408156	0.03256901	0	0
2.880444	0.1209852	-0.05480212	0.173817	-0.1283229	-7.292754	5.222714	0	0
2.897011	0.1223594	-0.05581771	0.08294881	-0.06130259	-2.742526	2.022765	0	0
2.913578	0.1232925	-0.05650774	0.05632492	-0.04165063	-0.8035222	0.593106	0	0
2.930145	0.1239663	-0.05700621	0.04067231	-0.03008812	-0.4724034	0.3489621	0	0
2.94682	0.1243291	-0.05727464	0.02175588	-0.01609863	-0.5690648	0.4208469	0	0
2.96333	0.1243809	-0.05727464	0.003138944	0	-0.5610003	0.4851142	0	0
2.979845	0.1245882	-0.0573897	0.01255071	-0.006966726	0.2849827	-0.2109484	0	0
2.996412	0.1246141	-0.05740887	0.001564209	-0.001157416	-0.3321061	0.1756071	0	0
3.013365	0.1246141	-0.05737052	0	0.002262152	-0.04666497	0.1020158	0	0
3.029545	0.12464	-0.0573897	0.001601112	-0.001185292	0.04832304	-0.1040471	0	0
3.046388	0.1247177	-0.05740887	0.004615065	-0.001138394	0.09126862	0.001420164	0	0
3.062901	0.1249768	-0.05752393	0.01568862	-0.006967655	0.3319766	-0.1747567	0	0
3.079411	0.1250804	-0.05760064	0.006276987	-0.004646252	-0.2850033	0.07029682	0	0
3.095922	0.1251063	-0.05758146	0.001568501	0.001161485	-0.1425908	0.1758803	0	0
3.112379	0.1251063	-0.05758146	0	0	-0.04757642	-0.03523064	0	0
3.12895	0.12521	-0.05758146	0.006253417	0	0.1893416	0	0	0
3.145511	0.1255726	-0.05761982	0.02189803	-0.002315948	0.4721894	-0.06990048	0	0
3.162078	0.1261165	-0.05767735	0.03283215	-0.003472597	0.3300541	-0.03491428	0	0
3.178645	0.1289645	-0.05963414	0.1719051	-0.1181157	4.197352	-3.460037	0	0
3.195211	0.1327153	-0.06237974	0.2264136	-0.1657344	1.645141	-1.437197	0	0
3.211779	0.138683	-0.06682055	0.3601941	-0.2680358	4.037532	-3.087485	0	0
3.228517	0.143816	-0.07065179	0.3066749	-0.2288991	-1.60691	1.175077	0	0
3.244911	0.1472939	-0.07325387	0.2121368	-0.1587154	-2.853351	2.118286	0	0
3.261479	0.1472681	-0.07323458	-0.001554158	0.00116427	-6.482839	4.850342	0	0
3.278056	0.1472939	-0.07325387	0.001553353	-0.001163667	0.09375655	-0.07023603	0	0
3.294611	0.1472939	-0.07325387	0	0	-0.04688333	0.0351218	0	0
3.311178	0.1472939	-0.07325387	0	0	0	0	0	0
3.328087	0.1472939	-0.07325387	0	0	0	0	0	0
3.344598	0.1472939	-0.07325387	0	0	0	0	0	0
3.360878	0.1472681	-0.07323458	-0.00158163	0.001184849	-0.0482338	0.03613348	0	0
3.377445	0.1472424	-0.0732153	-0.00155427	0.001163904	0.0008329453	-0.000637679	0	0
3.394134	0.1472424	-0.0732153	0	0	0.04673612	-0.03499799	0	0
3.410646	0.1472424	-0.0732153	0	0	0	0	0	0
3.428915	0.1472166	-0.07319602	-0.001409462	0.001055465	-0.04052392	0.03034604	0	0
3.445484	0.1472166	-0.07319602	0	0	0.04045819	-0.03029682	0	0
3.464966	0.1471909	-0.07317673	-0.001321667	0.0009897203	-0.036661	0.02745331	0	0
3.481534	0.1471651	-0.07315745	-0.001554158	0.00116382	-0.006449077	0.004829346	0	0
3.498101	0.1471651	-0.07315745	0	0	0.04690492	-0.0351244	0	0
3.514667	0.1471394	-0.07313817	-0.001554315	0.001163937	-0.04691201	0.03512971	0	0
3.531234	0.1471394	-0.07313817	0	0	0.04691032	-0.03512845	0	0
3.547801	0.1470879	-0.0730996	-0.003109529	0.002328324	-0.0938478	0.07027047	0	0
3.564367	0.1470621	-0.07308032	-0.001554315	0.001163937	0.04693916	-0.03514329	0	0
3.580934	0.1470621	-0.07308032	0	0	0.04691133	-0.0351292	0	0
3.597501	0.1470364	-0.07306103	-0.001554225	0.00116387	-0.04690729	0.03512617	0	0
3.614067	0.1470364	-0.07306103	0	0	0.04690796	-0.03512667	0	0
3.630634	0.1470364	-0.07306103	0	0	0	0	0	0
3.647201	0.1470364	-0.07306103	0	0	0	0	0	0
3.713467	0.1459804	-0.07227057	-0.01593504	0.01192857	-0.1923742	0.1440065	0	0
3.730034	0.1431973	-0.07011241	-0.1679925	0.1302708	-1.83571	1.428684	0	0
3.746883	0.1415986	-0.06887991	-0.09488468	0.07314941	2.187822	-1.709414	0	0
3.763167	0.132224	-0.06163068	-0.5756955	0.4451752	-14.51152	11.22825	0	0
3.779733	0.1226186	-0.05424657	-0.5798178	0.4457312	-0.1254899	0.01692504	0	0
3.796301	0.1110673	-0.04504751	-0.6972342	0.5552566	-3.543734	3.305578	0	0
3.812867	0.09588923	-0.02216296	-0.9161792	1.381354	-6.607869	24.93202	0	0
3.829434	0.09114153	0.003095885	-0.2865802	1.524671	19.00188	4.325436	0	0
3.846001	0.08928828	0.0238508	-0.1118624	1.252769	5.27307	-8.206118	0	0
3.862567	0.08832225	0.03804845	-0.05831372	0.8570336	1.61616	-11.94376	0	0
3.879134	0.08683372	0.06530473	-0.08985038	1.64524	-0.9518262	23.7893	0	0
3.895701	0.08576279	0.08369873	-0.06464342	1.110296	0.7607695	-16.14511	0	0
3.912268	0.08461329	0.1049658	-0.06938428	1.283685	-0.1430816	5.232968	0	0
3.928834	0.08401231	0.1147218	-0.03627679	0.5889058	0.999215	-20.96907	0	0
3.945402	0.08328062	0.1282346	-0.04416545	0.8156345	-0.2380872	6.842884	0	0
3.961968	0.08233973	0.1445128	-0.05679545	0.9826102	-0.381185	5.039481	0	0
3.978535	0.0820522	0.1601815	-0.01735481	0.9457522	1.190346	-1.112401	0	0
3.995101	0.08173853	0.1718836	-0.01893503	0.7064089	-0.04769313	-7.223707	0	0
4.011668	0.08150326	0.1793175	-0.0142016	0.4487262	0.1428645	-7.777384	0	0
4.028234	0.08118956	0.1922126	-0.01893547	0.7783699	-0.1428725	9.948954	0	0
4.044801	0.08244428	0.2027067	0.07573956	0.6334606	2.857421	-4.373561	0	0
4.061368	0.08380327	0.2081104	0.08203091	0.3261781	0.1898818	-9.274204	0	0
4.077934	0.08495294	0.2128267	0.06939618	0.2846842	-0.3813282	-1.252326	0	0
4.094501	0.08599789	0.2139423	0.06307565	0.0673436	-0.1907592	-6.55954	0	0
4.111068	0.08610238	0.2139783	0.006307026	0.0021722	-1.71333	-1.966933	0	0
4.127635	0.08610238	0.2140143	0	0.0021722	-0.1903519	0	0	0
4.1442	0.08618074	0.2141403	0.004730092	0.007603588	0.1427627	0.163929	0	0
4.160769	0.0862591	0.2141943	0.004729725	0.003258375	-1.10743E-05	-0.1311388	0	0
4.177334	0.0862591	0.2141943	0	0	-0.1427454	-0.09833936	0	0
4.193901	0.08628523	0.2141763	0.001576802	-0.001086581	0.04759208	-0.03279591	0	0
4.210467	0.08628523	0.2141763	0	0	-0.04759071	0.03279497	0	0
4.227223	0.08628523	0.2141763	0	0	0	0	0	0
4.2436	0.08628523	0.2141763	0	0	0	0	0	0
4.260246	0.08628523	0.2141763	0	0	0	0	0	0
4.293301	0.0862591	0.2141943	-0.0007902547	0.000544568	-0.01590041	0.01095705	0	0
4.310281	0.08618074	0.2142482	-0.004615101	0.003178531	-0.07644342	0.05264242	0	0
4.326434	0.0861285	0.2142842	-0.003233761	0.002227794	0.04169014	-0.02869414	0	0
4.343	0.08610238	0.2143022	-0.001576802	0.001085682	0.05064115	-0.03490605	0	0
4.359822	0.08607626	0.2142842	-0.001552889	-0.001069217	0.0007162328	-0.06454175	0	0
4.376134	0.08605014	0.2142662	-0.001601369	-0.001103511	-0.001463199	-0.001035031	0	0
4.394834	0.08602402	0.2142482	-0.001396911	-0.0009618204	0.005839714	0.004046934	0	0
4.411401	0.08602402	0.2142482	0	0	0.03960918	0.02727226	0	0
4.427969	0.08599789	0.2142302	-0.001576711	-0.001086519	-0.04758455	-0.03279072	0	0
4.444536	0.08597177	0.2142122	-0.001576711	-0.001085619	0	2.714469E-05	0	0
4.461102	0.08597177	0.2142122	0	0	0.0475866	0.03276499	0	0
4.477669	0.08591953	0.2141763	-0.003153513	-0.0021722	-0.09517732	-0.06555996	0	0
4.494235	0.08578892	0.2140863	-0.007884009	-0.005430207	-0.1427728	-0.09833109	0	0
4.510802	0.08571055	0.2140683	-0.004730719	-0.00108655	0.09517058	0.1310975	0	0
4.527436	0.08568443	0.2140503	-0.001570383	-0.001082158	0.09518871	0.0001322792	0	0
4.543948	0.08560605	0.2141043	-0.00474643	0.003269572	-0.09582019	0.1312901	0	0
4.560502	0.08492681	0.2145361	-0.04103132	0.02608502	-1.097338	0.6899916	0	0
4.577069	0.08275792	0.2159214	-0.130918	0.08361936	-2.713879	1.73709	0	0
4.593636	0.08171239	0.216569	-0.06310847	0.03908858	2.046525	-1.343961	0	0
4.610202	0.07676988	0.2191769	-0.2983475	0.1574202	-7.099731	3.571359	0	0
4.626769	0.06865509	0.2219817	-0.489838	0.1693106	-5.779529	0.3588713	0	0
4.643517	0.06323139	0.2244083	-0.3238427	0.1448864	4.982715	-0.7331461	0	0
4.659902	0.05893168	0.2273912	-0.2624082	0.1820445	1.854151	1.121466	0	0
4.67647	0.05533818	0.2298522	-0.2168979	0.1485457	1.381056	-1.016555	0	0
4.693035	0.052793	0.2315943	-0.1536449	0.105167	1.90906	-1.309228	0	0
4.709602	0.05150703	0.2324743	-0.07762355	0.05311322	2.294495	-1.571098	0	0
4.726169	0.05150703	0.2324743	0	0	2.342751	-1.603006	0	0
4.742735	0.05150703	0.2324743	0	0	0	0	0	0
4.759302	0.05148079	0.2324563	-0.001584177	-0.001083851	-0.04781193	-0.03271164	0	0
4.776111	0.05145454	0.2324743	-0.001561614	0.001068262	0.0006760546	0.0644823	0	0
4.792624	0.05145454	0.2324743	0	0	0.04686521	-0.03205937	0	0
4.809134	0.05148079	0.2324922	0.001589801	0.001087545	0.04814173	0.03293261	0	0
4.825569	0.05148079	0.2324922	0	0	-0.048256	-0.03301078	0	0
4.842135	0.05148079	0.2324922	0	0	0	0	0	0
4.858703	0.05150703	0.2324743	0.00158404	-0.001083758	0.04780643	-0.03270788	0	0
4.875268	0.05150703	0.2324743	0	0	-0.04780781	0.03270882	0	0
4.891835	0.05150703	0.2324743	0	0	0	0	0	0
4.908402	0.05148079	0.2324563	-0.001584131	-0.00108382	-0.04780987	-0.03271023	0	0
4.924969	0.05148079	0.2324563	0	0	0.04780987	0.03271023	0	0
4.941535	0.05145454	0.2324743	-0.001584493	0.001083914	-0.04782285	0.03271447	0	0
4.974751	0.05145454	0.2324743	0	0	0.03182846	-0.02177309	0	0
4.991238	0.05145454	0.2324743	0	0	0	0	0	0
5.007802	0.05145454	0.2324743	0	0	0	0	0	0
5.024368	0.05145454	0.2324743	0	0	0	0	0	0
5.040936	0.05145454	0.2324743	0	0	0	0	0	0
5.057809	0.05145454	0.2324743	0	0	0	0	0	0
5.074324	0.05145454	0.2324743	0	0	0	0	0	0
5.090635	0.05145454	0.2324743	0	0	0	0	0	0
5.107347	0.05145454	0.2324743	0	0	0	0	0	0
5.123768	0.05148079	0.2324563	0.001598388	-0.001093419	0.04824152	-0.03300087	0	0
5.140368	0.05148079	0.2324563	0	0	-0.04840453	0.03311238	0	0
5.156902	0.05148079	0.2324563	0	0	0	0	0	0
5.173468	0.05148079	0.2324563	0	0	0	0	0	0
5.190405	0.05148079	0.2324563	0	0	0	0	0	0
5.206602	0.05150703	0.2324383	0.001620369	-0.001108613	0.04890423	-0.03345896	0	0
5.223429	0.05150703	0.2324383	0	0	-0.04906664	0.03357008	0	0
5.239735	0.05150703	0.2324383	0	0	0	0	0	0
5.260681	0.05150703	0.2324383	0	0	0	0	0	0
5.27725	0.05150703	0.2324383	0	0	0	0	0	0
5.293815	0.05153328	0.2324204	0.001584539	-0.001083945	0.04782216	-0.032714	0	0
5.310382	0.05153328	0.2324204	0	0	-0.04782492	0.03271588	0	0
5.326949	0.05153328	0.2324204	0	0	0	0	0	0
5.343516	0.05155953	0.2324024	0.001584177	-0.001083851	0.04781124	-0.03271117	0	0
5.360082	0.05155953	0.2324024	0	0	-0.04781331	0.03271259	0	0
5.376649	0.05155953	0.2324024	0	0	0	0	0	0
5.393216	0.05155953	0.2324024	0	0	0	0	0	0
5.409783	0.05155953	0.2324024	0	0	0	0	0	0
5.426349	0.05155953	0.2324024	0	0	0	0	0	0
5.442916	0.05158577	0.2323845	0.001584131	-0.00108382	0.04781124	-0.03271117	0	0
5.459482	0.05158577	0.2323845	0	0	-0.04781124	0.03271117	0	0
5.476049	0.05158577	0.2323845	0	0	0	0	0	0
5.492615	0.05158577	0.2323845	0	0	0	0	0	0
5.509182	0.05158577	0.2323845	0	0	0	0	0	0
5.525749	0.05161202	0.2323665	0.001584402	-0.001083851	0.04781803	-0.03271117	0	0
5.542317	0.05161202	0.2323665	0	0	-0.04781666	0.03271023	0	0
5.559163	0.05161202	0.2323665	0	0	0	0	0	0
5.579241	0.05161202	0.2323665	0	0	0	0	0	0
5.595809	0.05161202	0.2323665	0	0	0	0	0	0
5.612376	0.05161202	0.2323665	0	0	0	0	0	0
5.628942	0.05161202	0.2323665	0	0	0	0	0	0
5.64551	0.05161202	0.2323665	0	0	0	0	0	0
5.662077	0.05161202	0.2323665	0	0	0	0	0	0
5.678643	0.05161202	0.2323665	0	0	0	0	0	0
5.695259	0.05161202	0.2323665	0	0	0	0	0	0
5.711776	0.05161202	0.2323665	0	0	0	0	0	0
5.728343	0.05161202	0.2323665	0	0	0	0	0	0
5.744909	0.05161202	0.2323665	0	0	0	0	0	0
5.761476	0.05161202	0.2323665	0	0	0	0	0	0
5.778043	0.05161202	0.2323665	0	0	0	0	0	0
5.794609	0.05161202	0.2323665	0	0	0	0	0	0
5.811341	0.05161202	0.2323665	0	0	0	0	0	0
5.827851	0.05161202	0.2323665	0	0	0	0	0	0
5.844309	0.05161202	0.2323665	0	0	0	0	0	0
5.860876	0.05161202	0.2323665	0	0	0	0	0	0
5.877442	0.05161202	0.2323665	0	0	0	0	0	0
5.894009	0.05161202	0.2323665	0	0	0	0	0	0
5.910576	0.05161202	0.2323665	0	0	0	0	0	0
5.927142	0.05161202	0.2323665	0	0	0	0	0	0
5.943709	0.05161202	0.2323665	0	0	0	0	0	0
5.960276	0.05161202	0.2323665	0	0	0	0	0	0
5.976842	0.05161202	0.2323665	0	0	0	0	0	0
5.993468	0.05161202	0.2323665	0	0	0	0	0	0
6.00998	0.05161202	0.2323665	0	0	0	0	0	0
6.026543	0.05161202	0.2323665	0	0	0	0	0	0
6.043109	0.05161202	0.2323665	0	0	0	0	0	0
6.128511	0.05161202	0.2323665	0	0	0	0	0	0
6.145078	0.05161202	0.2323665	0	0	0	0	0	0
6.161646	0.05161202	0.2323665	0	0	0	0	0	0
6.178599	0.05161202	0.2323665	0	0	0	0	0	0
6.194778	0.05161202	0.2323665	0	0	0	0	0	0
6.211344	0.05161202	0.2323665	0	0	0	0	0	0
6.227911	0.05161202	0.2323665	0	0	0	0	0	0
6.244478	0.05163826	0.2323486	0.001584131	-0.00108382	0.04781055	-0.0327107	0	0
6.261045	0.05163826	0.2323486	0	0	-0.04780987	0.03271023	0	0
6.277613	0.05163826	0.2323486	0	0	0	0	0	0
6.294181	0.05163826	0.2323486	0	0	0	0	0	0
6.310744	0.05163826	0.2323486	0	0	0	0	0	0
6.327311	0.05163826	0.2323486	0	0	0	0	0	0
6.343877	0.05163826	0.2323486	0	0	0	0	0	0
6.360445	0.05163826	0.2323486	0	0	0	0	0	0
6.410263	0.05163826	0.2323486	0	0	0	0	0	0
6.426711	0.05163826	0.2323486	0	0	0	0	0	0
6.443277	0.05163826	0.2323486	0	0	0	0	0	0
6.459845	0.05163826	0.2323486	0	0	0	0	0	0
6.476411	0.05163826	0.2323486	0	0	0	0	0	0
6.492979	0.05163826	0.2323486	0	0	0	0	0	0
6.509544	0.05163826	0.2323486	0	0	0	0	0	0
6.526111	0.05163826	0.2323126	0	-0.002167703	0	-0.06542517	0	0
6.542678	0.05163826	0.2323126	0	0	0	0.06542234	0	0
6.559245	0.05163826	0.2323126	0	0	0	0	0	0
6.575881	0.05163826	0.2323126	0	0	0	0	0	0
6.592394	0.05163826	0.2323126	0	0	0	0	0	0
6.608945	0.05163826	0.2323126	0	0	0	0	0	0
6.625527	0.05163826	0.2323126	0	0	0	0	0	0
6.642077	0.05163826	0.2323126	0	0	0	0	0	0
6.658645	0.05163826	0.2323126	0	0	0	0	0	0
6.675212	0.05163826	0.2323126	0	0	0	0	0	0
6.691778	0.05163826	0.2323126	0	0	0	0	0	0
6.708344	0.05163826	0.2323126	0	0	0	0	0	0
6.724912	0.05163826	0.2323126	0	0	0	0	0	0
6.741499	0.05163826	0.2323126	0	0	0	0	0	0
6.758046	0.05163826	0.2323126	0	0	0	0	0	0
6.774614	0.05163826	0.2323126	0	0	0	0	0	0
6.807746	0.05163826	0.2323126	0	0	0	0	0	0
6.824557	0.05163826	0.2323126	0	0	0	0	0	0
6.84088	0.05163826	0.2323126	0	0	0	0	0	0
6.857581	0.05163826	0.2323126	0	0	0	0	0	0
6.874012	0.05163826	0.2323126	0	0	0	0	0	0
6.890606	0.05163826	0.2323126	0	0	0	0	0	0
6.907146	0.05163826	0.2323126	0	0	0	0	0	0
6.923713	0.05163826	0.2323126	0	0	0	0	0	0
6.940279	0.05163826	0.2323126	0	0	0	0	0	0
6.957161	0.05163826	0.2323126	0	0	0	0	0	0
6.973413	0.05163826	0.2323126	0	0	0	0	0	0
6.989978	0.05163826	0.2323126	0	0	0	0	0	0
7.006545	0.05163826	0.2323126	0	0	0	0	0	0
7.023111	0.05163826	0.2323126	0	0	0	0	0	0
7.039711	0.05163826	0.2323126	0	0	0	0	0	0
7.076261	0.05163826	0.2323126	0	0	0	0	0	0
7.092828	0.05163826	0.2323126	0	0	0	0	0	0
7.109395	0.05163826	0.2323126	0	0	0	0	0	0
7.125962	0.05163826	0.2323126	0	0	0	0	0	0
7.142529	0.05163826	0.2323126	0	0	0	0	0	0
7.159095	0.05163826	0.2323126	0	0	0	0	0	0
7.175662	0.05163826	0.2323126	0	0	0	0	0	0
7.192228	0.05163826	0.2323126	0	0	0	0	0	0
7.208827	0.05163826	0.2323126	0	0	0	0	0	0
7.225361	0.05163826	0.2323126	0	0	0	0	0	0
7.241929	0.05163826	0.2323126	0	0	0	0	0	0
7.258495	0.05163826	0.2323126	0	0	0	0	0	0
7.275062	0.05163826	0.2323126	0	0	0	0	0	0
7.291628	0.05163826	0.2323126	0	0	0	0	0	0
7.308195	0.05163826	0.2323126	0	0	0	0	0	0
7.324762	0.05163826	0.2323126	0	0	0	0	0	0
7.341329	0.05163826	0.2323126	0	0	0	0	0	0
7.357895	0.05163826	0.2323126	0	0	0	0	0	0
7.374462	0.05163826	0.2323126	0	0	0	0	0	0
7.391029	0.05163826	0.2323126	0	0	0	0	0	0
7.407597	0.05163826	0.2323486	0	0.00216764	0	0.06541858	0	0
7.424162	0.05163826	0.2323486	0	0	0	-0.06542234	0	0
7.440992	0.05163826	0.2323486	0	0	0	0	0	0
7.457295	0.05163826	0.2323486	0	0	0	0	0	0
7.474015	0.05163826	0.2323486	0	0	0	0	0	0
7.490531	0.05163826	0.2323486	0	0	0	0	0	0
7.506996	0.05163826	0.2323486	0	0	0	0	0	0
7.523564	0.05163826	0.2323486	0	0	0	0	0	0
7.54057	0.05163826	0.2323486	0	0	0	0	0	0
7.556695	0.05163826	0.2323486	0	0	0	0	0	0
7.573262	0.05163826	0.2323486	0	0	0	0	0	0
7.590098	0.05166451	0.2323306	0.001558827	-0.001066508	0.04666672	-0.03192812	0	0
7.60661	0.05163826	0.2323126	-0.001589438	-0.001087451	-0.09440618	-0.0006280226	0	0
7.622962	0.05150703	0.2321151	-0.00802528	-0.01207973	-0.195832	-0.3344767	0	0
7.639635	0.05043089	0.2311992	-0.06454764	-0.05493508	-1.711538	-1.297691	0	0
7.656145	0.04373525	0.2265467	-0.4055384	-0.2817933	-10.27618	-6.836659	0	0
7.672662	0.03164732	0.216515	-0.7318404	-0.6073474	-9.879663	-9.857016	0	0
7.689228	0.02239099	0.2063276	-0.5587615	-0.6149704	5.231661	-0.230423	0	0
7.705794	0.01326238	0.1940528	-0.5510359	-0.7409467	0.2331757	-3.802243	0	0
7.722362	0.001631577	0.1749776	-0.7020164	-1.151353	-4.556665	-12.38626	0	0
7.738928	-0.007920887	0.1597101	-0.5766377	-0.9216263	3.784046	6.933359	0	0
7.755495	-0.01518304	0.1496193	-0.4383446	-0.6090782	4.173873	9.433127	0	0
7.772227	-0.03716709	0.1271586	-1.313875	-1.342367	-26.29265	-22.02105	0	0
7.788738	-0.05743676	0.1136063	-1.227649	-0.8208061	2.593802	15.68926	0	0
7.805194	-0.07098579	0.1044344	-0.8233664	-0.5573665	12.2634	7.991103	0	0
7.821761	-0.08380327	0.09603409	-0.7736646	-0.5070457	1.505072	1.523816	0	0
7.838327	-0.09163737	0.09096438	-0.4728944	-0.306026	9.077524	6.066964	0	0
7.854894	-0.1111453	0.08064169	-1.177536	-0.6230972	-21.26705	-9.569642	0	0
7.871461	-0.1191436	0.07721374	-0.4827884	-0.2069171	20.96814	12.5607	0	0
7.888307	-0.1370306	0.07298949	-1.061784	-0.2507545	-17.32849	-1.311988	0	0
7.908254	-0.1550867	0.07167892	-0.9052011	-0.06570217	4.255749	5.029521	0	0
7.924822	-0.1681088	0.07171584	-0.7859962	0.002228288	3.264569	1.860356	0	0
7.941389	-0.1813537	0.07324786	-0.7994645	0.09247325	-0.4064672	2.723559	0	0
7.957957	-0.1875841	0.07525894	-0.3760586	0.1213853	12.77823	0.8725538	0	0
7.974523	-0.1945599	0.07638398	-0.4210965	0.06791327	-1.359285	-1.613835	0	0
7.99109	-0.1984075	0.07723217	-0.2322322	0.05119577	5.7001	-0.5045498	0	0
8.007655	-0.2027289	0.08031007	-0.2608767	0.1858088	-0.8645425	4.062864	0	0
8.024406	-0.2075718	0.083846	-0.2891083	0.2110838	-0.8473867	0.7586416	0	0
8.040917	-0.208781	0.08472953	-0.07323615	0.05351199	6.490004	-4.737257	0	0
8.057428	-0.2116755	0.08684559	-0.175309	0.128161	-3.091063	2.26059	0	0
8.073922	-0.2124552	0.08741583	-0.0472698	0.03457285	3.879416	-2.835596	0	0
8.090488	-0.2126563	0.08756298	-0.01214218	0.008882441	1.062539	-0.7770828	0	0
8.107055	-0.2126815	0.08758137	-0.001518335	0.001109968	0.3206469	-0.2345872	0	0
8.140188	-0.2128323	0.08769172	-0.004552626	0.003330707	-0.06105239	0.04468308	0	0
8.157008	-0.2129078	0.0877469	-0.004484535	0.003280568	0.001363077	-0.001003713	0	0
8.173512	-0.2129581	0.08778369	-0.003046446	0.002228854	0.04315568	-0.03156094	0	0
8.18989	-0.2129581	0.08778369	0	0	0.09264857	-0.06778394	0	0
8.206533	-0.2129832	0.08780208	-0.001510393	0.001105264	-0.04573908	0.0334706	0	0
8.223043	-0.2129832	0.08780208	0	0	0.04555752	-0.03333773	0	0
8.239592	-0.2129832	0.08780208	0	0	0	0	0	0
8.256156	-0.2129832	0.08780208	0	0	0	0	0	0
8.273081	-0.2129832	0.08780208	0	0	0	0	0	0
8.289294	-0.2129832	0.08780208	0	0	0	0	0	0
8.305855	-0.2129832	0.08780208	0	0	0	0	0	0
8.322421	-0.2129832	0.08780208	0	0	0	0	0	0
8.338988	-0.2129832	0.08780208	0	0	0	0	0	0
8.355556	-0.2129832	0.08780208	0	0	0	0	0	0
8.372122	-0.2129832	0.08780208	0	0	0	0	0	0
8.388689	-0.2129832	0.08780208	0	0	0	0	0	0
8.405254	-0.2129832	0.08780208	0	0	0	0	0	0
8.421821	-0.2129832	0.08780208	0	0	0	0	0	0
8.438699	-0.2129832	0.08780208	0	0	0	0	0	0
8.454953	-0.2129581	0.08778369	0.001546549	-0.001131722	0.04667762	-0.03415739	0	0
8.471519	-0.2129581	0.08778369	0	0	-0.04712113	0.03448194	0	0
8.488228	-0.2129581	0.08778369	0	0	0	0	0	0
8.50474	-0.2129581	0.08778369	0	0	0	0	0	0
8.521252	-0.2129581	0.08778369	0	0	0	0	0	0
8.537786	-0.2129581	0.08778369	0	0	0	0	0	0
8.554353	-0.2129581	0.08778369	0	0	0	0	0	0
8.570919	-0.2129581	0.08778369	0	0	0	0	0	0
8.587798	-0.2129581	0.08778369	0	0	0	0	0	0
8.604053	-0.2129581	0.08778369	0	0	0	0	0	0
8.62062	-0.2129581	0.08778369	0	0	0	0	0	0
8.637185	-0.2129581	0.08778369	0	0	0	0	0	0
8.653846	-0.2129329	0.08780208	0.001508837	0.001104125	0.0454113	0.03323074	0	0
8.670357	-0.2129581	0.08782047	-0.001522519	0.001113686	-0.09138392	0.0002882373	0	0
8.686885	-0.2129329	0.08783887	0.001520938	0.00111298	0.09211684	-2.136688E-05	0	0
8.703451	-0.2128826	0.08794922	0.003034871	0.006661156	0.0457459	0.1676469	0	0
8.720017	-0.2127821	0.0881699	0.006070642	0.01332141	0.09162503	0.2010185	0	0
8.736584	-0.2127066	0.08873998	0.004553206	0.0344117	-0.04579895	0.6365428	0	0
8.85255	-0.1680576	0.133903	0.3850186	0.3894512	2.870741	2.678894	0	0
8.873733	-0.1593993	0.149583	0.4087402	0.7402157	0.1729627	2.557546	0	0
8.8903	-0.1517969	0.1640605	0.4588796	0.8738631	1.328187	3.540305	0	0
8.906867	-0.1470106	0.1700373	0.2889006	0.3607628	-5.129976	-15.4854	0	0
8.923534	-0.1364882	0.1811069	0.6313199	0.6641479	10.3031	9.128591	0	0
8.940051	-0.1268935	0.1879169	0.5809119	0.4123064	-1.519045	-7.589231	0	0
8.956567	-0.1166781	0.195099	0.6185201	0.4348673	1.138524	0.6829916	0	0
8.973133	-0.1067505	0.2022742	0.5992661	0.4331195	-0.5820073	-0.05283105	0	0
8.989699	-0.09325504	0.2130786	0.8146367	0.6521924	6.500272	6.612014	0	0
9.006266	-0.07860089	0.2237073	0.8845773	0.6415874	2.110932	-0.3200773	0	0
9.022833	-0.06747635	0.2313429	0.6714783	0.4608853	-6.431524	-5.453757	0	0
9.039618	-0.05693839	0.2385239	0.6278329	0.4278285	-1.308634	-0.9911537	0	0
9.056645	-0.04394537	0.2473317	0.7630448	0.5172614	3.99887	2.644965	0	0
9.072532	-0.03543253	0.25314	0.5358602	0.3656173	-6.902336	-4.607261	0	0
9.089099	-0.03030651	0.2566344	0.3094075	0.2109213	-6.97775	-4.766691	0	0
9.105665	-0.02041822	0.2633696	0.5968928	0.4065594	8.676575	5.90454	0	0
9.122231	-0.01299927	0.2684187	0.4478344	0.3047842	-4.498852	-3.071759	0	0
9.138801	-0.002473679	0.2755419	0.6352526	0.429906	5.65613	3.776076	0	0
9.155717	-0.0008947366	0.2766155	0.09333867	0.06346368	-16.18358	-10.94334	0	0
9.171932	0.004921013	0.2804976	0.3586576	0.2394118	8.008033	5.310583	0	0
9.1885	0.005999928	0.281231	0.06511968	0.04426588	-8.953829	-5.952564	0	0
9.205066	0.005999928	0.281231	0	0	-1.965373	-1.335986	0	0
9.221744	0.006052558	0.2811952	0.003155679	-0.002146114	0.09492712	-0.06455804	0	0
9.238198	0.006052558	0.2811237	0	-0.004348629	-0.09524408	-0.06647585	0	0
9.254767	0.006105187	0.2809806	0.003176358	-0.008635389	0.09618379	-0.1298081	0	0
9.271331	0.006052558	0.280909	-0.003177455	-0.004320086	-0.1917695	0.1302436	0	0
9.304802	0.005868354	0.2806049	-0.005503372	-0.009085534	-0.04648625	-0.0952432	0	0
9.321313	0.005763094	0.2804618	-0.006375154	-0.008665815	-0.0174419	0.008397394	0	0
9.337598	0.005684149	0.2803724	-0.004847698	-0.005493822	0.0465746	0.09671919	0	0
9.354335	0.005657834	0.2803545	-0.001572266	-0.001068376	0.09918962	0.1340154	0	0
9.370849	0.005605204	0.2802114	-0.003187025	-0.008666118	-0.04856301	-0.228498	0	0
9.387299	0.005447315	0.2799968	-0.009598212	-0.01304786	-0.194492	-0.132926	0	0
9.403865	0.005394685	0.2798894	-0.003176934	-0.006479909	0.1944887	0.1989311	0	0
9.420431	0.005342055	0.2798894	-0.003176934	0	0	0.1955753	0	0
9.453564	0.005342055	0.2798894	0	0	0.06392372	0	0	0
9.47013	0.005315739	0.2798715	-0.001588495	-0.001079385	-0.03196243	-0.02171852	0	0
9.486696	0.005315739	0.2798357	0	-0.002160569	0.04794364	-0.03263208	0	0
9.503442	0.005315739	0.2798357	0	0	0	0.0648589	0	0
9.519951	0.005263109	0.2798	-0.003187945	-0.002166253	-0.09586473	-0.06514139	0	0
9.536398	0.005236794	0.2797821	-0.00159998	-0.001087209	0.04818422	0.03274183	0	0
9.552976	0.005236794	0.2797821	0	0	0.04844786	0.03292099	0	0
9.56953	0.005210479	0.2797642	-0.001589565	-0.001081932	-0.04797594	-0.03265464	0	0
9.586097	0.005184164	0.2797463	-0.001588467	-0.001079385	3.315546E-05	7.688005E-05	0	0
9.602664	0.005157849	0.2797284	-0.001588404	-0.001079323	1.911356E-06	1.876221E-06	0	0
9.61923	0.005131534	0.2797105	-0.001588467	-0.001079385	-1.911356E-06	-1.876221E-06	0	0
9.635797	0.005131534	0.2797105	0	0	0.04794279	0.03257778	0	0
9.652363	0.005078904	0.2796747	-0.003176934	-0.002160569	-0.09588558	-0.06520987	0	0
9.668929	0.005026273	0.279639	-0.003176962	-0.00215877	-8.502969E-07	5.429954E-05	0	0
9.685495	0.004973643	0.2796032	-0.003176962	-0.002160569	0	-5.429954E-05	0	0
9.702062	0.004894698	0.2795495	-0.00476543	-0.003239955	-0.0479428	-0.03257778	0	0
9.718628	0.004868383	0.2795316	-0.001588467	-0.001079385	0.09588644	0.06520987	0	0
9.735194	0.004842068	0.2795137	-0.001588467	-0.001079385	0	0	0	0
9.75176	0.004842068	0.2795137	0	0	0.04794279	0.03257778	0	0
9.768327	0.004842068	0.2795137	0	0	0	0	0	0
9.784893	0.004842068	0.2795137	0	0	0	0	0	0
9.821944	0.004815752	0.2794959	-0.0007102456	-0.000482613	-0.01324653	-0.00900104	0	0
9.838511	0.004815752	0.2794959	0	0	0.0132463	0.00900088	0	0
9.855186	0.004789437	0.279478	-0.001578201	-0.001074196	-0.04747714	-0.03231514	0	0
9.871698	0.004789437	0.279478	0	0	0.04755491	0.03236808	0	0
9.888211	0.004789437	0.279478	0	0	0	0	0	0
9.904778	0.004763122	0.2794601	-0.001588495	-0.001079385	-0.04802104	-0.03263038	0	0
9.937909	0.004763122	0.2794601	0	0	0.03196304	0.02171894	0	0
9.954475	0.004736807	0.2794422	-0.001588467	-0.001079385	-0.03196247	-0.02171894	0	0
9.971265	0.004736807	0.2794422	0	0	0.04762204	0.03235983	0	0
9.987609	0.004710491	0.2794243	-0.001610092	-0.00109406	-0.04859406	-0.03301975	0	0
10.00429	0.004710491	0.2794243	0	0	0.04875685	0.03313036	0	0
10.02074	0.004710491	0.2794243	0	0	0	0	0	0
10.03731	0.004684176	0.2794064	-0.001588101	-0.001080935	-0.04808955	-0.03273197	0	0
10.05387	0.004684176	0.2794064	0	0	0.04793037	0.03262363	0	0
10.07084	0.004684176	0.2794064	0	0	0	0	0	0
10.08701	0.004684176	0.2794064	0	0	0	0	0	0
10.10386	0.004684176	0.2794064	0	0	0	0	0	0
10.12037	0.004657861	0.2793885	-0.001593817	-0.001083001	-0.04777286	-0.03246174	0	0
10.13688	0.004657861	0.2793885	0	0	0.04826262	0.03279454	0	0
10.18565	0.004631546	0.2793706	-0.0005395737	-0.0003666478	-0.008265171	-0.005616297	0	0
10.20222	0.004631546	0.2793706	0	0	0.008258174	0.005611543	0	0
10.21879	0.004631546	0.2793706	0	0	0	0	0	0
10.23535	0.004631546	0.2793706	0	0	0	0	0	0
10.25192	0.004631546	0.2793706	0	0	0	0	0	0
10.26849	0.00460523	0.2793528	-0.001588495	-0.001079385	-0.04794226	-0.03257685	0	0
10.28505	0.00460523	0.2793528	0	0	0.04794364	0.03257778	0	0
10.302	0.00460523	0.2793528	0	0	0	0	0	0
10.31851	0.00460523	0.2793528	0	0	0	0	0	0
10.33475	0.004578915	0.2793348	-0.001619988	-0.001102639	-0.04946078	-0.03366529	0	0
10.35132	0.0045526	0.279317	-0.001588495	-0.001079385	0.0009598578	0.000708738	0	0
10.38445	0.004526285	0.2792991	-0.0007942335	-0.0005396926	0.0159815	0.01085926	0	0
10.40102	0.004526285	0.2792991	0	0	0.01598093	0.01085926	0	0
10.41759	0.00449997	0.2792812	-0.001588495	-0.001079385	-0.04794364	-0.03257778	0	0
10.43415	0.00449997	0.2792812	0	0	0.04794364	0.03257778	0	0
10.45072	0.004473655	0.2792633	-0.001588376	-0.001081122	-0.04793865	-0.03262927	0	0
10.47348	0.004447339	0.2792454	-0.001156195	-0.0007856365	0.01098924	0.007513434	0	0
10.49005	0.004447339	0.2792454	0	0	0.02939906	0.01997671	0	0
10.50661	0.004394709	0.2792096	-0.003176779	-0.002160445	-0.0958754	-0.06520236	0	0
10.52318	0.004315763	0.279156	-0.004764909	-0.003237783	-0.04792846	-0.03251319	0	0
10.53975	0.004236817	0.2791023	-0.004764635	-0.003239395	8.276906E-06	-4.865669E-05	0	0
10.55668	0.00410524	0.2790128	-0.007771984	-0.005284616	-0.08977494	-0.06105362	0	0
10.57319	0.003947348	0.2789055	-0.00956453	-0.006500939	-0.05360848	-0.03637577	0	0
10.58945	0.003631563	0.2786908	-0.01942079	-0.01320381	-0.300787	-0.2045539	0	0
10.60601	0.003078938	0.2783151	-0.0333623	-0.02268049	-0.4247283	-0.2887074	0	0
10.62272	0.002394732	0.27785	-0.04094516	-0.02783643	-0.2278873	-0.154951	0	0
10.63924	0.002236838	0.2777426	-0.009561314	-0.006500491	0.9446108	0.6421826	0	0
10.65575	0.002236838	0.2777426	0	0	0.2895277	0.1968424	0	0
10.67228	0.002236838	0.2777426	0	0	0	0	0	0
10.68927	0.002236838	0.2777426	0	0	0	0	0	0
10.77533	0.002210523	0.2777247	-0.0003057913	-0.0002077839	-0.002967455	-0.002016373	0	0
10.7919	0.002210523	0.2777247	0	0	0.002979727	0.002024711	0	0
10.80886	0.002210523	0.2777247	0	0	0	0	0	0
10.82503	0.002210523	0.2777247	0	0	0	0	0	0
10.8416	0.002210523	0.2777247	0	0	0	0	0	0
10.85816	0.002210523	0.2777247	0	0	0	0	0	0
10.87473	0.002210523	0.2777247	0	0	0	0	0	0
10.8913	0.002210523	0.2777247	0	0	0	0	0	0
10.90793	0.002184207	0.2777069	-0.001582406	-0.001075238	-0.04766792	-0.03239015	0	0
10.92444	0.002184207	0.2777069	0	0	0.04774749	0.03244421	0	0
10.95756	0.002184207	0.2777069	0	0	0	0	0	0
10.97413	0.002184207	0.2777069	0	0	0	0	0	0
10.99098	0.002184207	0.2777069	0	0	0	0	0	0
11.0075	0.002184207	0.2777069	0	0	0	0	0	0
11.02383	0.002184207	0.2777069	0	0	0	0	0	0
11.0404	0.002184207	0.2777069	0	0	0	0	0	0
11.05696	0.002184207	0.2777069	0	0	0	0	0	0
11.07353	0.002184207	0.2777069	0	0	0	0	0	0
11.0901	0.002184207	0.2777069	0	0	0	0	0	0
11.10666	0.002184207	0.2777069	0	0	0	0	0	0
11.12323	0.002184207	0.2777069	0	0	0	0	0	0
11.1398	0.002184207	0.2777069	0	0	0	0	0	0
11.1566	0.002184207	0.2777069	0	0	0	0	0	0
11.17293	0.002184207	0.2777069	0	0	0	0	0	0
11.1895	0.002184207	0.2777069	0	0	0	0	0	0
11.20606	0.002184207	0.2777069	0	0	0	0	0	0
11.22263	0.002184207	0.2777069	0	0	0	0	0	0
11.23919	0.002184207	0.2777069	0	0	0	0	0	0
11.25576	0.002184207	0.2777069	0	0	0	0	0	0
11.27233	0.002184207	0.2777069	0	0	0	0	0	0
11.28889	0.002184207	0.2777069	0	0	0	0	0	0
11.30546	0.002184207	0.2777069	0	0	0	0	0	0
11.32203	0.002184207	0.2777069	0	0	0	0	0	0
11.33859	0.002184207	0.2777069	0	0	0	0	0	0
11.37173	0.002184207	0.2777069	0	0	0	0	0	0
11.40486	0.002184207	0.2777069	0	0	0	0	0	0
11.42143	0.002184207	0.2777069	0	0	0	0	0	0
11.43799	0.002184207	0.2777069	0	0	0	0	0	0
11.45456	0.002184207	0.2777069	0	0	0	0	0	0
11.47113	0.002184207	0.2777069	0	0	0	0	0	0
11.48769	0.002184207	0.2777069	0	0	0	0	0	0
11.50427	0.002184207	0.2777069	0	0	0	0	0	0
11.52086	0.002184207	0.2777069	0	0	0	0	0	0
11.5374	0.002184207	0.2777069	0	0	0	0	0	0
11.55396	0.002184207	0.2777069	0	0	0	0	0	0
11.57053	0.002184207	0.2777069	0	0	0	0	0	0
11.58709	0.002184207	0.2777069	0	0	0	0	0	0
11.60366	0.002184207	0.2777069	0	0	0	0	0	0
11.62023	0.002184207	0.2777069	0	0	0	0	0	0
11.63679	0.002184207	0.2777069	0	0	0	0	0	0
11.65336	0.002184207	0.2777069	0	0	0	0	0	0
11.67327	0.002184207	0.2777069	0	0	0	0	0	0
11.68984	0.002184207	0.2777069	0	0	0	0	0	0
11.70641	0.002184207	0.2777069	0	0	0	0	0	0
11.72297	0.002184207	0.2777069	0	0	0	0	0	0
11.73957	0.002184207	0.2777069	0	0	0	0	0	0
11.75611	0.002184207	0.2777069	0	0	0	0	0	0
11.82257	0.002184207	0.2777069	0	0	0	0	0	0
11.83894	0.002184207	0.2777069	0	0	0	0	0	0
11.85559	0.002184207	0.2777069	0	0	0	0	0	0
11.87211	0.002184207	0.2777069	0	0	0	0	0	0
11.88864	0.002184207	0.2777069	0	0	0	0	0	0
11.90521	0.002184207	0.2777069	0	0	0	0	0	0
11.92177	0.002184207	0.2777069	0	0	0	0	0	0
11.93834	0.002184207	0.2777069	0	0	0	0	0	0
11.95516	0.002184207	0.2777069	0	0	0	0	0	0
11.97147	0.002184207	0.2777069	0	0	0	0	0	0
11.98804	0.002184207	0.2777069	0	0	0	0	0	0
12.00461	0.002184207	0.2777069	0	0	0	0	0	0
12.02121	0.002184207	0.2777069	0	0	0	0	0	0
12.03774	0.002184207	0.2777069	0	0	0	0	0	0
12.05431	0.002184207	0.2777069	0	0	0	0	0	0
12.07087	0.002184207	0.2777069	0	0	0	0	0	0
12.08744	0.002184207	0.2777069	0	0	0	0	0	0
12.12057	0.002184207	0.2777069	0	0	0	0	0	0
12.13729	0.002184207	0.2777069	0	0	0	0	0	0
12.1537	0.002184207	0.2777069	0	0	0	0	0	0
12.17032	0.002184207	0.2777069	0	0	0	0	0	0
12.18684	0.002184207	0.2777069	0	0	0	0	0	0
12.2034	0.002184207	0.2777069	0	0	0	0	0	0
12.21997	0.002184207	0.2777069	0	0	0	0	0	0
12.23686	0.002184207	0.2777069	0	0	0	0	0	0
12.2531	0.002184207	0.2777069	0	0	0	0	0	0
12.26967	0.002184207	0.2777069	0	0	0	0	0	0
12.28624	0.002184207	0.2777069	0	0	0	0	0	0
12.30291	0.002184207	0.2777069	0	0	0	0	0	0
12.33594	0.002184207	0.2777069	0	0	0	0	0	0
12.3525	0.002184207	0.2777069	0	0	0	0	0	0
12.36907	0.002184207	0.2777069	0	0	0	0	0	0
12.4022	0.002184207	0.2777069	0	0	0	0	0	0
12.41877	0.002184207	0.2777069	0	0	0	0	0	0
12.43534	0.002184207	0.2777069	0	0	0	0	0	0
12.4519	0.002184207	0.2777069	0	0	0	0	0	0
12.46847	0.002184207	0.2777069	0	0	0	0	0	0
12.48503	0.002157891	0.2777247	-0.001588509	0.001079385	-0.04794407	0.03257778	0	0
12.5016	0.002157891	0.2777247	0	0	0.04794407	-0.03257778	0	0
12.51817	0.002157891	0.2777247	0	0	0	0	0	0
12.53473	0.002157891	0.2777247	0	0	0	0	0	0
12.5513	0.002157891	0.2777247	0	0	0	0	0	0
12.56787	0.002157891	0.2777247	0	0	0	0	0	0
12.58443	0.002157891	0.2777247	0	0	0	0	0	0
12.6055	0.002157891	0.2777247	0	0	0	0	0	0
12.62213	0.002157891	0.2777247	0	0	0	0	0	0
12.63863	0.002157891	0.2777247	0	0	0	0	0	0
12.6552	0.002157891	0.2777247	0	0	0	0	0	0
12.67217	0.002157891	0.2777247	0	0	0	0	0	0
12.68868	0.002157891	0.2777247	0	0	0	0	0	0
12.72147	0.002157891	0.2777247	0	0	0	0	0	0
12.73803	0.002157891	0.2777247	0	0	0	0	0	0
12.7546	0.002184207	0.2777069	0.001588509	-0.001079385	0.04794545	-0.03257872	0	0
12.77123	0.002447363	0.277528	0.01581677	-0.01075282	0.4285096	-0.2913328	0	0
12.78775	0.003263146	0.2769733	0.04940285	-0.03358901	1.013134	-0.6888605	0	0
12.8043	0.01057855	0.2719986	0.4420168	-0.3005827	11.87475	-8.075317	0	0
12.82127	0.02165451	0.2644619	0.6525442	-0.4440281	6.279983	-4.278943	0	0
12.83743	0.04223802	0.2504334	1.273731	-0.8681008	18.74801	-12.79891	0	0
12.854	0.05392136	0.2424174	0.7052079	-0.4838461	-17.37157	11.74113	0	0
12.87056	0.07810395	0.2253787	1.459832	-1.028577	22.77591	-16.44097	0	0
12.88713	0.09620212	0.2125567	1.092345	-0.7738922	-11.0911	7.686638	0	0
12.90383	0.1082073	0.2042561	0.719003	-0.4971344	-11.22322	8.319761	0	0
12.92035	0.1367465	0.1843953	1.727802	-1.202398	30.37217	-21.23356	0	0
12.93685	0.1566532	0.1704175	1.205948	-0.846775	-15.80188	10.76836	0	0
12.9534	0.1656522	0.1640605	0.5439611	-0.3842613	-20.02953	13.99413	0	0
12.96996	0.1815065	0.152761	0.9570216	-0.6820815	12.47553	-8.99496	0	0
12.98653	0.1921776	0.1451309	0.6441492	-0.4605764	-9.443051	6.685422	0	0
13.0031	0.2020723	0.137982	0.5972796	-0.4315373	-1.414608	0.8764509	0	0
13.01966	0.2119271	0.13086	0.5948681	-0.4299083	-0.07278474	0.0491651	0	0
13.03642	0.2242431	0.1218297	0.7348515	-0.5388038	4.200409	-3.267567	0	0
13.0528	0.2323327	0.1158736	0.4940609	-0.3637584	-7.267286	5.283033	0	0
13.06944	0.2411856	0.1093612	0.5317943	-0.3911988	1.142709	-0.8309991	0	0
13.08593	0.2466374	0.1052956	0.3306893	-0.2466069	-6.069536	4.363916	0	0
13.1025	0.2520002	0.1013182	0.3237193	-0.2400921	-0.2108748	0.1971041	0	0
13.11906	0.2542202	0.09966756	0.1339944	-0.09963186	-5.726076	4.239222	0	0
13.13563	0.2540969	0.09975928	-0.007440562	0.005536347	-4.268637	3.174074	0	0
13.1525	0.2540969	0.09975928	0	0	0.2225073	-0.1655624	0	0
13.16876	0.2540969	0.09975928	0	0	0	0	0	0
13.18533	0.2541215	0.09974094	0.001487753	-0.001107269	0.0453218	-0.03373104	0	0
13.20204	0.2540969	0.09975928	-0.0014751	0.001097852	-0.08904233	0.06627032	0	0
13.21855	0.2540969	0.09975928	0	0	0.04440231	-0.0330467	0	0
13.23503	0.2540969	0.09975928	0	0	0	0	0	0
13.2516	0.2540969	0.09975928	0	0	0	0	0	0
13.28473	0.2540476	0.09975928	-0.001487753	0	-0.02993536	0	0	0
13.30129	0.2540476	0.09975928	0	0	0.02993536	0	0	0
13.31812	0.2540476	0.09975928	0	0	0	0	0	0
13.33443	0.2540229	0.09977762	-0.001513069	0.001124752	-0.04566584	0.03394604	0	0
13.35114	0.2539983	0.09979597	-0.001474679	0.001097539	0.001162573	-0.000824068	0	0
13.36765	0.253949	0.09983265	-0.002985301	0.002221829	-0.04546634	0.03383861	0	0
13.38416	0.253949	0.09983265	0	0	0.09039838	-0.06727957	0	0
13.41726	0.2538997	0.09986934	-0.001490239	0.00110845	-0.03003958	0.02234364	0	0
13.4342	0.253875	0.09988768	-0.00145492	0.001082834	0.0007058478	-0.0005119378	0	0
13.4504	0.253875	0.09988768	0	0	0.04391085	-0.03268093	0	0
13.46722	0.2538503	0.09990603	-0.001466338	0.001090013	-0.04440498	0.03300877	0	0
13.48374	0.2538503	0.09990603	0	0	0.04398074	-0.03269342	0	0
13.5001	0.2538503	0.09990603	0	0	0	0	0	0
13.51666	0.2538257	0.09992437	-0.001487753	0.001107269	-0.04518528	0.03362943	0	0
13.53851	0.253801	0.09994271	-0.001128006	0.0008391848	0.009364516	-0.006978476	0	0
13.55529	0.253801	0.09994271	0	0	0.02920422	-0.0217266	0	0
13.58831	0.253801	0.09994271	0	0	0	0	0	0
13.60482	0.253801	0.09994271	0	0	0	0	0	0
13.62135	0.253801	0.09994271	0	0	0	0	0	0
13.63791	0.253801	0.09994271	0	0	0	0	0	0
13.65448	0.253801	0.09994271	0	0	0	0	0	0
13.67137	0.2537764	0.09996105	-0.001461039	0.001086074	-0.04366941	0.03246199	0	0
13.68788	0.2537517	0.09997939	-0.001492478	0.001110786	-0.0009411954	0.0007398034	0	0
13.70418	0.2535791	0.1001078	-0.01059099	0.00787787	-0.2772912	0.2062373	0	0
13.72091	0.2534065	0.1002362	-0.01032104	0.007676627	0.00817473	-0.006094075	0	0
13.73792	0.2529872	0.1005846	-0.02464717	0.02048427	-0.4246514	0.3796407	0	0
13.75393	0.2527899	0.1007314	-0.01232578	0.009163831	0.3731169	-0.342806	0	0
13.77045	0.2527652	0.1007497	-0.001493938	0.001110079	0.3329915	-0.2475878	0	0
13.78701	0.2527158	0.1007864	-0.002978932	0.002213961	-0.04488438	0.03336519	0	0
13.80397	0.2527158	0.1007864	0	0	0.08887095	-0.06604947	0	0
13.82015	0.2527158	0.1007864	0	0	0	0	0	0
13.83671	0.2527158	0.1007864	0	0	0	0	0	0
13.85328	0.2526911	0.1008047	-0.001489552	0.00110682	-0.04495864	0.03340677	0	0
13.86984	0.2525185	0.1009331	-0.01042326	0.007749086	-0.2696354	0.2004755	0	0
13.88641	0.2509881	0.1021066	-0.09237207	0.07083372	-2.473291	1.903953	0	0
13.90298	0.2429715	0.1082261	-0.4839145	0.3693962	-11.81711	9.010893	0	0
13.91954	0.232233	0.1164952	-0.6482131	0.4991482	-4.958828	3.916149	0	0
13.93611	0.2130335	0.1306412	-1.158952	0.8539079	-15.41502	10.70729	0	0
13.95268	0.1963326	0.1428399	-1.008068	0.7363124	4.553824	-3.549143	0	0
13.98581	0.172173	0.1602359	-0.7291782	0.5250431	5.611489	-4.25091	0	0
14.0026	0.1466759	0.1783051	-1.518644	1.076225	-15.814	11.04086	0	0
14.01894	0.1216075	0.1958205	-1.533789	1.071664	-0.4570849	-0.1376608	0	0
14.03551	0.09695818	0.2129346	-1.487921	1.033073	1.393723	-1.172589	0	0
14.05213	0.07899318	0.2252709	-1.080575	0.7420114	12.27253	-8.769123	0	0
14.06865	0.05759413	0.2399415	-1.295976	0.8884871	-6.500245	4.420265	0	0
14.08521	0.04037279	0.2516703	-1.039781	0.7081552	7.746021	-5.452313	0	0
14.10178	0.03653637	0.254287	-0.2315803	0.1579536	24.39577	-16.60798	0	0
14.11834	0.02281183	0.2636382	-0.8284622	0.5644717	-18.01497	12.26945	0	0
14.13491	0.01076274	0.2718376	-0.7273263	0.4949431	3.052462	-2.098497	0	0
14.15147	0.002999991	0.2771164	-0.4685876	0.3186525	7.809201	-5.320767	0	0
14.16822	-0.006026243	0.2832521	-0.5391144	0.3664702	-2.117352	1.435579	0	0
14.18461	-0.01226254	0.2874547	-0.3804757	0.2563966	4.787865	-3.322123	0	0
14.20124	-0.01797175	0.2913345	-0.3432843	0.2332882	1.126263	-0.6997893	0	0
14.21775	-0.02370608	0.2951601	-0.3472847	0.2316821	-0.1207	-0.04845895	0	0
14.27081	-0.02736159	0.2976088	-0.06888818	0.04614601	4.001314	-2.666658	0	0
14.28738	-0.02738789	0.2975909	-0.001587279	-0.001079323	0.9665285	-0.6782172	0	0
14.30395	-0.02738789	0.2975909	0	0	0.04790281	0.0325731	0	0
14.32084	-0.02736159	0.297573	0.001557338	-0.001057198	0.04655169	-0.0316016	0	0
14.33708	-0.02736159	0.297573	0	0	-0.04700189	0.03190722	0	0
14.35365	-0.02736159	0.297573	0	0	0	0	0	0
14.37036	-0.02741418	0.2974658	-0.003147271	-0.006418717	-0.09457652	-0.1928845	0	0
14.38678	-0.02741418	0.29743	0	-0.002175885	0.0949903	0.1280563	0	0
14.46962	-0.02712492	0.2969117	0.003492045	-0.006257412	0.03518236	-0.04112138	0	0
14.48618	-0.0264938	0.296447	0.03809701	-0.02805142	0.34814	-0.2192566	0	0
14.50724	-0.02496849	0.2954103	0.07245293	-0.04924405	0.9132686	-0.5633546	0	0
14.5238	-0.0243636	0.2949992	0.03650937	-0.02481401	-0.9554237	0.6493804	0	0
14.54037	-0.0243636	0.2949992	0	0	-1.101855	0.7488883	0	0
14.55694	-0.0243899	0.2949813	-0.001587504	-0.001079323	-0.04791235	-0.03257497	0	0
14.5735	-0.0243636	0.2949634	0.001587596	-0.001077586	0.09582746	5.241824E-05	0	0
14.59007	-0.0242847	0.2949098	0.004762513	-0.003237969	0.09582195	-0.06520236	0	0
14.60664	-0.0241532	0.2947847	0.007937866	-0.007552098	0.0958351	-0.1302044	0	0
14.6232	-0.02352198	0.2943199	0.03810275	-0.02805502	0.9104303	-0.618815	0	0
14.63977	-0.02010255	0.291996	0.2064086	-0.1402805	5.079772	-3.387167	0	0
14.65634	-0.01257828	0.2868467	0.454192	-0.3108287	7.478549	-5.147452	0	0
14.67307	0.0001578947	0.2781899	0.7609168	-0.5171981	9.20979	-6.196493	0	0
14.68947	0.01389384	0.2688484	0.8377842	-0.5697581	2.319928	-1.586311	0	0
14.70604	0.02047082	0.2643724	0.3970102	-0.2701863	-13.37225	9.088442	0	0
14.7226	0.02938627	0.2583006	0.5381067	-0.3664739	4.258299	-2.905964	0	0
14.75574	0.04657156	0.2465786	0.5186829	-0.3537919	-0.3908148	0.2551665	0	0
14.7723	0.05460356	0.2410539	0.4848403	-0.3334869	-0.6809542	0.4085617	0	0
14.78887	0.06037391	0.237106	0.3482786	-0.2382828	-4.121439	2.873263	0	0
14.80567	0.06697861	0.232582	0.3931836	-0.2693188	1.345821	-0.9301615	0	0
14.82218	0.07035736	0.2302653	0.2046367	-0.1403118	-5.660541	3.873038	0	0
14.83857	0.07056684	0.2301216	0.01277963	-0.008766108	-5.83104	3.99802	0	0
14.85514	0.07054066	0.2301396	-0.001580309	0.00108472	-0.4356911	0.2988814	0	0
14.87171	0.07054066	0.2301396	0	0	0.04769519	-0.03273785	0	0
14.88827	0.07054066	0.2301396	0	0	0	0	0	0
14.90484	0.07056684	0.2301216	0.0015804	-0.001084782	0.04769931	-0.03274067	0	0
14.92175	0.07054066	0.2301396	-0.001547963	0.001062518	-0.09344061	0.06413738	0	0
14.93797	0.07054066	0.2301396	0	0	0.04672031	-0.03206869	0	0
14.95454	0.07051447	0.2301576	-0.001580759	0.00108382	-0.0482139	0.03305704	0	0
14.97129	0.07051447	0.2301576	0	0	0.04744656	-0.03253093	0	0
14.9878	0.07048829	0.2301755	-0.001585786	0.001087577	-0.04767934	0.03269983	0	0
15.00431	0.0704621	0.2301935	-0.001586054	0.001088353	-8.115459E-06	2.352496E-05	0	0
15.02082	0.07030499	0.2303012	-0.00951497	0.00652651	-0.2400968	0.1646737	0	0
15.03737	0.0702788	0.2303192	-0.001582489	0.001085007	0.2399345	-0.1645897	0	0
15.05394	0.07022643	0.2303551	-0.003161067	0.00216854	-0.04766764	0.03271899	0	0
15.0705	0.07020024	0.2303731	-0.00158085	0.001083883	0.04769244	-0.03273596	0	0
15.08707	0.07014787	0.230409	-0.003160886	0.002168415	-0.04768558	0.03273125	0	0
15.10364	0.0700955	0.2304808	-0.003161431	0.00433668	-1.647139E-05	0.06544024	0	0
15.12039	0.06999075	0.2305527	-0.006252402	0.004288047	-0.09277034	-0.001459631	0	0
15.13677	0.06993838	0.2305886	-0.003197594	0.002193286	0.09219693	-0.06322185	0	0
15.15341	0.06993838	0.2305886	0	0	0.09682406	-0.06641331	0	0
15.16993	0.06991219	0.2306066	-0.001586054	0.001087451	-0.04783553	0.03279762	0	0
15.2693	0.06975506	0.2306784	-0.001581123	0.0007228979	4.254485E-05	-0.003145745	0	0
15.28601	0.06975506	0.2306784	0	0	0.01362117	-0.006227671	0	0
15.30243	0.06975506	0.2306784	0	0	0	0	0	0
15.31903	0.06975506	0.2306784	0	0	0	0	0	0
15.33557	0.06975506	0.2306784	0	0	0	0	0	0
15.35213	0.06975506	0.2306784	0	0	0	0	0	0
15.3687	0.06975506	0.2307143	0	0.002168665	0	0.0654542	0	0
15.38527	0.06975506	0.2307143	0	0	0	-0.0654542	0	0
15.40209	0.06972887	0.2307323	-0.001557184	0.001067657	-0.04664417	0.03198078	0	0
15.4184	0.06970268	0.2307502	-0.001605152	0.001100545	-0.001447715	0.0009926017	0	0
15.43511	0.0696765	0.2307682	-0.001567405	0.001075557	0.001143015	-0.0007566822	0	0
15.45153	0.06959794	0.2307862	-0.004783126	0.00109326	-0.09705623	0.0005343273	0	0
15.5178	0.06886462	0.231289	-0.01106624	0.007588643	-0.07598371	0.07855079	0	0
15.53437	0.06700481	0.232564	-0.1122586	0.07695933	-1.221639	0.8374736	0	0
15.55119	0.06427974	0.2344314	-0.1619679	0.110986	-1.488661	1.019009	0	0
15.57199	0.05741053	0.2390981	-0.330196	0.2243263	-4.470801	3.012111	0	0
15.58856	0.0529767	0.2420945	-0.2676263	0.1808631	1.674299	-1.163029	0	0
15.60513	0.0465453	0.2464172	-0.3881775	0.2609014	-3.63814	2.415493	0	0
15.62669	0.04318366	0.2486765	-0.1559431	0.1048072	6.09139	-4.09427	0	0
15.64325	0.04163382	0.2497343	-0.09354853	0.06384736	1.636618	-1.074383	0	0
15.65982	0.03992614	0.250792	-0.103076	0.06384286	-0.2875404	-0.0001358148	0	0
15.67639	0.03700941	0.2527099	-0.1760641	0.1157731	-2.202849	1.567302	0	0
15.69296	0.03619471	0.2531938	-0.04917531	0.02920828	3.829623	-2.612605	0	0
15.70952	0.03616843	0.2531759	-0.001586471	-0.001081184	1.436275	-0.9141641	0	0
15.72609	0.0359319	0.2530146	-0.01427555	-0.009736172	-0.3829462	-0.2612005	0	0
15.74285	0.03582677	0.252907	-0.006271513	-0.006414633	0.2401317	0.09965055	0	0
15.75934	0.03556395	0.2527637	-0.01594295	-0.008697429	-0.2908882	-0.06865975	0	0
15.77585	0.03495944	0.2523156	-0.03661266	-0.02713821	-0.6264274	-0.5588761	0	0
15.79236	0.02878152	0.2481027	-0.3741487	-0.2551394	-10.22128	-6.904341	0	0
15.80892	0.02223318	0.2436372	-0.3953955	-0.2696316	-0.6424128	-0.4381803	0	0
15.82549	0.01610387	0.239457	-0.369987	-0.2523333	0.7669821	0.5221683	0	0
15.84206	0.009604968	0.2350238	-0.3922971	-0.2676048	-0.6733592	-0.4609209	0	0
15.85862	0.006578852	0.2329591	-0.1826567	-0.1246267	6.327143	4.31521	0	0
15.87519	0.001578946	0.2295828	-0.3018123	-0.203805	-3.596227	-2.389674	0	0
15.89176	-0.001052631	0.2277864	-0.1588423	-0.1084306	4.314968	2.878489	0	0
15.90844	-0.001394736	0.2275528	-0.02049961	-0.01399455	4.159985	2.839705	0	0
15.92496	-0.002684204	0.2266725	-0.0780977	-0.05332066	-1.734918	-1.184546	0	0
15.94147	-0.005131534	0.2250013	-0.148216	-0.1012087	-2.123324	-1.450148	0	0
15.95802	-0.00678937	0.2238691	-0.1001363	-0.06838908	1.453976	0.9924989	0	0
15.97459	-0.00678937	0.2238691	0	0	3.023252	2.064759	0	0
15.99116	-0.006763055	0.2238871	0.001588439	0.001084782	0.04794194	0.03274067	0	0
16.00772	-0.006763055	0.2238871	0	0	-0.04794056	-0.03273973	0	0
16.02429	-0.00673674	0.223905	0.001588376	0.00108472	0.04793727	0.0327369	0	0
16.04086	-0.00673674	0.223905	0	0	-0.04793727	-0.0327369	0	0
16.05755	-0.006710425	0.2238871	0.00157637	-0.00107654	0.04739487	-0.03236706	0	0
16.14026	-0.006710425	0.2238871	0	0	-0.01585892	0.01083043	0	0
16.15682	-0.006710425	0.2238871	0	0	0	0	0	0
16.17339	-0.006710425	0.2238871	0	0	0	0	0	0
16.18996	-0.006710425	0.2238871	0	0	0	0	0	0
16.20652	-0.006710425	0.2238871	0	0	0	0	0	0
16.22317	-0.006710425	0.2238871	0	0	0	0	0	0
16.23966	-0.006710425	0.2238871	0	0	0	0	0	0
16.25623	-0.006710425	0.2238871	0	0	0	0	0	0
16.27279	-0.006710425	0.2238871	0	0	0	0	0	0
16.28936	-0.006710425	0.2238871	0	0	0	0	0	0
16.30593	-0.006710425	0.2238871	0	0	0	0	0	0
16.32249	-0.006710425	0.2238871	0	0	0	0	0	0
16.33906	-0.006710425	0.2238871	0	0	0	0	0	0
16.35563	-0.006710425	0.2238871	0	0	0	0	0	0
16.37227	-0.006710425	0.2238871	0	0	0	0	0	0
16.38879	-0.006710425	0.2238871	0	0	0	0	0	0
16.40532	-0.006710425	0.2238871	0	0	0	0	0	0
16.42231	-0.006710425	0.2238871	0	0	0	0	0	0
16.43846	-0.006684111	0.2238691	0.00162943	-0.001112776	0.04917631	-0.03358365	0	0
16.45797	-0.006684111	0.2238691	0	0	-0.04569622	0.03120702	0	0
16.47453	-0.006657796	0.2238871	0.001588347	0.00108472	0.04402831	0.03006797	0	0
16.4911	-0.006657796	0.2238871	0	0	-0.04793642	-0.0327369	0	0
16.50767	-0.006657796	0.2238871	0	0	0	0	0	0
16.52424	-0.006657796	0.2238871	0	0	0	0	0	0
16.5408	-0.006657796	0.2238871	0	0	0	0	0	0
16.55737	-0.006657796	0.2238871	0	0	0	0	0	0
16.57393	-0.006657796	0.2238871	0	0	0	0	0	0
16.5905	-0.006657796	0.2238871	0	0	0	0	0	0
16.60707	-0.006657796	0.2238871	0	0	0	0	0	0
16.62364	-0.006657796	0.2238871	0	0	0	0	0	0
16.6402	-0.006657796	0.2238871	0	0	0	0	0	0
16.65698	-0.006657796	0.2238871	0	0	0	0	0	0
16.67334	-0.006657796	0.2238871	0	0	0	0	0	0
16.6899	-0.006657796	0.2238871	0	0	0	0	0	0
16.70647	-0.006684111	0.2238691	-0.001588347	-0.00108472	-0.04793642	-0.0327369	0	0
16.72304	-0.006684111	0.2238691	0	0	0.04793642	0.0327369	0	0
16.7396	-0.006657796	0.2238511	0.001588347	-0.00108472	0.04793642	-0.0327369	0	0
16.75655	-0.006657796	0.2238511	0	0	-0.04739622	0.03236799	0	0
16.77274	-0.006657796	0.2238511	0	0	0	0	0	0
16.78957	-0.006657796	0.2238511	0	0	0	0	0	0
16.80587	-0.006657796	0.2238511	0	0	0	0	0	0
16.82244	-0.006657796	0.2238511	0	0	0	0	0	0
16.83901	-0.006657796	0.2238511	0	0	0	0	0	0
16.85557	-0.006631482	0.2238691	0.00158853	0.001084845	0.0479447	0.03274256	0	0
16.87214	-0.006631482	0.2238691	0	0	-0.0479447	-0.03274256	0	0
16.88871	-0.006631482	0.2238691	0	0	0	0	0	0
16.90527	-0.006631482	0.2238691	0	0	0	0	0	0
16.92184	-0.006631482	0.2238691	0	0	0	0	0	0
16.93841	-0.006631482	0.2238691	0	0	0	0	0	0
16.95498	-0.006631482	0.2238691	0	0	0	0	0	0
17.03781	-0.006631482	0.2238691	0	0	0	0	0	0
17.05438	-0.006631482	0.2238691	0	0	0	0	0	0
17.07094	-0.006631482	0.2238691	0	0	0	0	0	0
17.08751	-0.006631482	0.2238691	0	0	0	0	0	0
17.10408	-0.006631482	0.2238691	0	0	0	0	0	0
17.12064	-0.006631482	0.2238691	0	0	0	0	0	0
17.15378	-0.006657796	0.2238511	-0.000794128	-0.0005423286	-0.01597727	-0.01091126	0	0
17.17035	-0.006657796	0.2238511	0	0	0.01597727	0.01091126	0	0
17.18691	-0.006657796	0.2238511	0	0	0	0	0	0
17.20348	-0.006657796	0.2238511	0	0	0	0	0	0
17.22005	-0.006657796	0.2238511	0	0	0	0	0	0
17.23661	-0.006657796	0.2238511	0	0	0	0	0	0
17.25341	-0.006657796	0.2238511	0	0	0	0	0	0
17.26992	-0.006657796	0.2238511	0	0	0	0	0	0
17.28644	-0.006657796	0.2238511	0	0	0	0	0	0
17.30295	-0.006657796	0.2238511	0	0	0	0	0	0
17.31945	-0.006657796	0.2238511	0	0	0	0	0	0
17.33602	-0.006657796	0.2238511	0	0	0	0	0	0
17.35258	-0.006657796	0.2238511	0	0	0	0	0	0
17.36915	-0.006657796	0.2238511	0	0	0	0	0	0
17.38571	-0.006631482	0.2238691	0.00158853	0.001084845	0.0479447	0.03274256	0	0
17.40252	-0.006631482	0.2238691	0	0	-0.04760488	-0.03251049	0	0
17.43554	-0.006631482	0.2238691	0	0	0	0	0	0
17.45664	-0.006631482	0.2238691	0	0	0	0	0	0
17.47321	-0.006631482	0.2238691	0	0	0	0	0	0
17.48978	-0.006631482	0.2238691	0	0	0	0	0	0
17.50635	-0.006631482	0.2238691	0	0	0	0	0	0
17.52291	-0.006631482	0.2238691	0	0	0	0	0	0
17.53961	-0.006631482	0.2238691	0	0	0	0	0	0
17.55613	-0.006631482	0.2238691	0	0	0	0	0	0
17.57261	-0.006657796	0.2238511	-0.001596065	-0.00108999	-0.04836702	-0.03303097	0	0
17.58918	-0.006657796	0.2238511	0	0	0.04828608	0.03297569	0	0
17.60575	-0.006657796	0.2238511	0	0	0	0	0	0
17.62231	-0.006657796	0.2238511	0	0	0	0	0	0
17.63888	-0.006605167	0.2238152	0.003177089	-0.002170589	0.09589025	-0.06551226	0	0
17.65569	-0.006578852	0.2237972	0.001564926	-0.001068724	-0.04829654	0.03300921	0	0
17.67201	-0.006473594	0.2237253	0.006449952	-0.004405717	0.1474304	-0.1007106	0	0
17.68858	-0.006263076	0.2235815	0.01270689	-0.008678657	0.1902586	-0.1299299	0	0
17.70523	-0.005447315	0.2229524	0.04899128	-0.03778189	1.092298	-0.8761184	0	0
17.72174	-0.004631546	0.2223233	0.04940484	-0.0381023	0.0124707	-0.00966138	0	0
17.73828	-0.0003947368	0.2191409	0.2561767	-0.1924194	6.256232	-4.669126	0	0
17.75485	0.00547363	0.2144821	0.3542153	-0.2812041	2.961368	-2.681844	0	0
17.77142	0.007578802	0.2125387	0.1270685	-0.1173044	-6.855305	4.946503	0	0
17.82112	0.006999886	0.1641149	-0.01164783	-0.97429	-2.093233	-12.93194	0	0
17.87086	-0.002842098	0.1087205	-0.1978692	-1.113682	-1.872672	-1.401753	0	0
17.88739	-0.004947328	0.1018316	-0.1273652	-0.4167733	1.063907	10.51638	0	0
17.90396	-0.009999666	0.09085411	-0.3049597	-0.6626027	-5.365991	-7.427697	0	0
17.92052	-0.01349918	0.08403008	-0.2112554	-0.4119463	2.828166	7.56526	0	0
17.93709	-0.01973428	0.07730593	-0.3763514	-0.4058709	-4.982895	0.1833678	0	0
17.95365	-0.0248896	0.07376456	-0.3112113	-0.2137818	1.966046	5.797592	0	0
17.97022	-0.02922852	0.0707188	-0.2618977	-0.1838425	1.488371	0.9036248	0	0
17.98694	-0.03219939	0.06859468	-0.1777266	-0.1270712	2.528936	1.7057	0	0
18.00345	-0.03448632	0.066987	-0.1385018	-0.09736476	1.180478	0.8940218	0	0
18.03649	-0.04158128	0.06188258	-0.2147443	-0.1544964	-1.538668	-1.152987	0	0
18.05305	-0.04812072	0.05719782	-0.3947213	-0.2827725	-3.628105	-2.585881	0	0
18.06962	-0.0529767	0.05373161	-0.2931415	-0.2092452	3.065861	2.219185	0	0
18.08619	-0.06144886	0.04766295	-0.5113215	-0.3662625	-6.584686	-4.738791	0	0
18.10276	-0.06755494	0.04329576	-0.3685641	-0.2636044	4.308178	3.09805	0	0
18.11932	-0.07488602	0.0380857	-0.4425554	-0.3145161	-2.23319	-1.536606	0	0
18.13589	-0.0805621	0.0340056	-0.3426091	-0.2462752	3.01656	2.059633	0	0
18.15256	-0.08560605	0.03036882	-0.3026072	-0.2181849	1.203587	0.8451892	0	0
18.16907	-0.09205488	0.025757	-0.3905559	-0.2793024	-2.650636	-1.841985	0	0
18.18559	-0.09518518	0.02347692	-0.1894685	-0.1380076	6.087404	4.277335	0	0
18.20216	-0.09521125	0.02349561	-0.001574194	0.001128585	5.678833	4.20519	0	0
18.21872	-0.09521125	0.02349561	0	0	0.04751201	-0.03406271	0	0
18.23529	-0.09521125	0.02349561	0	0	0	0	0	0
18.25213	-0.09521125	0.02349561	0	0	0	0	0	0
18.26864	-0.09521125	0.02349561	0	0	0	0	0	0
18.28515	-0.09523733	0.02351431	-0.001579468	0.001132366	-0.04783365	0.03429331	0	0
18.30166	-0.09523733	0.02351431	0	0	0.04783089	-0.03429133	0	0
18.31817	-0.09523733	0.02351431	0	0	0	0	0	0
18.3665	-0.09523733	0.02351431	0	0	0	0	0	0
18.38307	-0.09523733	0.02351431	0	0	0	0	0	0
18.4203	-0.09521125	0.02349561	0.0007004752	-0.0005021907	0.01302123	-0.009335291	0	0
18.43686	-0.09518518	0.02347692	0.001574013	-0.001128455	0.01623831	-0.01164171	0	0
18.45343	-0.09500262	0.02334605	0.01101899	-0.007899183	0.2850499	-0.204341	0	0
18.47	-0.09273326	0.02171913	0.1369787	-0.09820086	3.801471	-2.72531	0	0
18.48656	-0.07949004	0.01218564	0.7993624	-0.5754429	19.99078	-14.40319	0	0
18.50313	-0.06941461	0.004957133	0.6081545	-0.4363135	-5.770666	4.198936	0	0
18.51982	-0.05893168	-0.002531746	0.6281943	-0.4487746	0.6026186	-0.3747195	0	0
18.53634	-0.04917086	-0.009546746	0.5907286	-0.4245504	-1.128119	0.729409	0	0
18.55284	-0.04008378	-0.01608507	0.5507162	-0.3962506	-1.211622	0.8569501	0	0
18.5694	-0.02972808	-0.02354679	0.6255034	-0.450702	2.26242	-1.647235	0	0
18.58596	-0.02173342	-0.02931622	0.4826143	-0.3482834	-4.314139	3.092246	0	0
18.60253	-0.01686682	-0.0328325	0.2937484	-0.2122429	-5.700311	4.105947	0	0
18.6191	-0.01336762	-0.03536291	0.2112119	-0.1527361	-2.490957	1.795918	0	0
18.63567	-0.009894414	-0.03787639	0.2096434	-0.1517137	-0.04733731	0.03085695	0	0
18.65223	-0.008184028	-0.03911485	0.103251	-0.0747623	-3.211115	2.322531	0	0
18.66892	-0.008341912	-0.03900051	-0.00945805	0.006849551	-3.388886	2.453869	0	0
18.68537	-0.008341912	-0.03900051	0	0	0.2854281	-0.206708	0	0
18.70193	-0.008341912	-0.03900051	0	0	0	0	0	0
18.7185	-0.008341912	-0.03900051	0	0	0	0	0	0
18.73507	-0.008368226	-0.03898146	-0.001588291	0.001150154	-0.04793473	0.0347117	0	0
18.75163	-0.008341912	-0.0389624	0.001588474	0.001150511	0.09588049	1.078682E-05	0	0
18.7685	-0.008341912	-0.0389624	0	0	-0.04751629	-0.03441542	0	0
18.78477	-0.008341912	-0.0389624	0	0	0	0	0	0
18.8179	-0.008341912	-0.0389624	0	0	0	0	0	0
18.83447	-0.008341912	-0.0389624	0	0	0	0	0	0
18.85105	-0.008368226	-0.03894334	-0.001586465	0.001148831	-0.04785206	0.03465184	0	0
18.8676	-0.008368226	-0.03894334	0	0	0.0478796	-0.03467179	0	0
18.88417	-0.008394539	-0.03892429	-0.001588291	0.001150154	-0.04796234	0.0347317	0	0
18.90074	-0.008394539	-0.03892429	0	0	0.04793473	-0.0347117	0	0
18.9173	-0.008394539	-0.03892429	0	0	0	0	0	0
18.95044	-0.008394539	-0.03892429	0	0	0	0	0	0
18.967	-0.008420854	-0.03890523	-0.001588347	0.001150378	-0.03195762	0.02314566	0	0
18.98357	-0.008420854	-0.03890523	0	0	0.04793642	-0.03471849	0	0
19.00014	-0.008420854	-0.03890523	0	0	0	0	0	0
19.0167	-0.008420854	-0.03890523	0	0	0	0	0	0
19.03369	-0.008420854	-0.03890523	0	0	0	0	0	0
19.04984	-0.008420854	-0.03890523	0	0	0	0	0	0
19.0664	-0.008420854	-0.03890523	0	0	0	0	0	0
19.08297	-0.008420854	-0.03890523	0	0	0	0	0	0
19.09954	-0.008420854	-0.03890523	0	0	0	0	0	0
19.11611	-0.008420854	-0.03890523	0	0	0	0	0	0
19.13267	-0.008420854	-0.03890523	0	0	0	0	0	0
19.14924	-0.008394539	-0.03892429	0.001588347	-0.001150378	0.04793642	-0.03471849	0	0
19.16581	-0.008420854	-0.03890523	-0.001588347	0.001150378	-0.09587284	0.06943698	0	0
19.18237	-0.008420854	-0.03890523	0	0	0.04793642	-0.03471849	0	0
19.19894	-0.008420854	-0.03890523	0	0	0	0	0	0
19.21551	-0.008420854	-0.03890523	0	0	0	0	0	0
19.23208	-0.008420854	-0.03890523	0	0	0	0	0	0
19.24864	-0.008420854	-0.03890523	0	0	0	0	0	0
19.26521	-0.008420854	-0.03890523	0	0	0	0	0	0
19.30091	-0.008420854	-0.03890523	0	0	0	0	0	0
19.31747	-0.008420854	-0.03890523	0	0	0	0	0	0
19.33404	-0.008420854	-0.03890523	0	0	0	0	0	0
19.35061	-0.008420854	-0.03890523	0	0	0	0	0	0
19.36717	-0.008420854	-0.03890523	0	0	0	0	0	0
19.38374	-0.008420854	-0.03890523	0	0	0	0	0	0
19.40031	-0.008420854	-0.03890523	0	0	0	0	0	0
19.41688	-0.008420854	-0.03890523	0	0	0	0	0	0
19.43344	-0.008420854	-0.03890523	0	0	0	0	0	0
19.45001	-0.008473481	-0.03886712	-0.003176583	0.002300307	-0.09586946	0.06942341	0	0
19.46658	-0.008631364	-0.03871468	-0.009529861	0.009201454	-0.1917423	0.208277	0	0
19.48314	-0.009105012	-0.0382193	-0.02858941	0.02990107	-0.5752184	0.6247157	0	0
19.49971	-0.009789161	-0.03745733	-0.04129535	0.04599243	-0.3834659	0.4856382	0	0
19.51628	-0.01160474	-0.03572457	-0.1095887	0.1045896	-2.061097	1.768465	0	0
19.53305	-0.01591971	-0.03222399	-0.257224	0.2086768	-4.427859	3.121772	0	0
19.54956	-0.02168081	-0.02791084	-0.3489865	0.2612751	-2.757021	1.580324	0	0
19.56598	-0.03148959	-0.01988949	-0.5975625	0.4886705	-7.550281	6.906939	0	0
19.58254	-0.03695685	-0.01553655	-0.3300046	0.2627438	8.112271	-6.850025	0	0
19.59911	-0.04851453	-0.006659726	-0.6976231	0.535806	-11.09475	8.241033	0	0
19.61568	-0.057122	0.0003867725	-0.5195476	0.4253275	5.374329	-3.334247	0	0
19.64881	-0.06970268	0.0143606	-0.3796858	0.4217308	2.814025	-0.07236561	0	0
19.71508	-0.08145098	0.07594138	-0.1772872	0.9292825	2.036174	5.106079	0	0
19.73165	-0.08024835	0.08828025	0.07259077	0.7447757	3.016602	-2.227423	0	0
19.74821	-0.08014376	0.09236096	0.006313141	0.2463123	-2.000263	-15.04365	0	0
19.76478	-0.08116341	0.1095443	-0.0615466	1.037187	-2.048011	23.86865	0	0
19.78135	-0.08233973	0.1177928	-0.07100236	0.4978809	-0.2853756	-16.2763	0	0
19.79792	-0.08432587	0.1282711	-0.119884	0.6324716	-1.475251	4.061955	0	0
19.81448	-0.08526644	0.1363617	-0.05677284	0.4883487	1.904699	-4.349638	0	0
19.83105	-0.08537094	0.1468758	-0.006307744	0.6346356	1.52304	4.414948	0	0
19.84778	-0.08427361	0.154322	0.0656005	0.4451495	2.159752	-5.691184	0	0
19.86429	-0.08346355	0.1620669	0.04905371	0.4689945	-0.4977785	0.7173325	0	0
19.8808	-0.08278405	0.1724265	0.04115212	0.6273987	-0.2392555	4.796386	0	0
19.89732	-0.08220904	0.1796248	0.03482013	0.4358974	-0.191729	-5.798546	0	0
19.91389	-0.08019605	0.1849192	0.1215039	0.3195669	2.620345	-3.516531	0	0
19.93045	-0.07661291	0.190029	0.2162788	0.3084274	2.860313	-0.3361911	0	0
19.94702	-0.07564486	0.1913825	0.05843185	0.08170205	-4.763831	-6.842584	0	0
19.96386	-0.07253044	0.1933132	0.1849	0.1146211	3.785221	0.9852744	0	0
19.98015	-0.07153562	0.1939987	0.06107426	0.04208596	-3.737282	-2.18924	0	0
19.99672	-0.07148325	0.1940348	0.003160618	0.002177534	-1.762651	-1.214647	0	0
20.01329	-0.07095961	0.1943956	0.03160753	0.02177624	0.8585294	0.5914901	0	0
20.02991	-0.07038355	0.1948285	0.03465116	0.02604047	0.09169878	0.1284728	0	0
20.04642	-0.069886	0.1951712	0.03013277	0.02075542	-0.1363576	-0.159494	0	0
20.06299	-0.06724058	0.1969926	0.1597145	0.1099688	3.917776	2.697277	0	0
20.07955	-0.06349349	0.1995708	0.2261748	0.1556177	2.006008	1.377846	0	0
20.09646	-0.05688593	0.2040039	0.3908683	0.2622384	4.920325	3.185364	0	0
20.11269	-0.04746433	0.2102529	0.5805186	0.3850344	5.723658	3.705992	0	0
20.12926	-0.03989987	0.2152918	0.4565916	0.3041487	-3.778623	-2.466263	0	0
20.14599	-0.03488058	0.2186553	0.2998576	0.2009449	-4.705861	-3.098645	0	0
20.16239	-0.03046426	0.2216761	0.269361	0.1842408	-0.9203919	-0.5041284	0	0
20.19853	-0.02104952	0.2279661	0.2604904	0.1740333	-0.1688413	-0.1942883	0	0
20.21504	-0.02070757	0.2281637	0.02070962	0.01196737	-4.553872	-3.077927	0	0
20.23139	-0.02068126	0.2281457	0.001609032	-0.001098362	-0.5812752	-0.3976207	0	0
20.24796	-0.02060235	0.2280918	0.0047633	-0.003253259	0.09583037	-0.06546832	0	0
20.26453	-0.02054974	0.2280559	0.003175458	-0.00216854	-0.04792115	0.0327369	0	0
20.28109	-0.02039191	0.2279481	0.0095266	-0.006506519	0.1916778	-0.1309205	0	0
20.29766	-0.02020778	0.2278223	0.01111433	-0.00759034	0.04791776	-0.03270977	0	0
20.31423	-0.01976059	0.2275169	0.02699241	-0.01843574	0.4792014	-0.3273147	0	0
20.3308	-0.01881357	0.2268701	0.05716207	-0.03904091	0.9105223	-0.6218654	0	0
20.34764	-0.0130782	0.2229884	0.3404647	-0.2304298	8.478831	-5.727989	0	0
20.36393	-0.008447167	0.2198961	0.2843419	-0.1898596	-1.693887	1.224483	0	0
20.38066	-0.004684176	0.2177561	0.2248309	-0.1278615	-1.802062	1.877375	0	0
20.39717	-0.004842068	0.2179719	-0.009563369	0.01307168	-7.050089	4.238974	0	0
20.41363	-0.004763122	0.217954	0.004798329	-0.001092265	0.4356941	-0.4296947	0	0
20.4302	-0.004763122	0.217954	0	0	-0.1453073	0.03307695	0	0
20.44676	-0.004763122	0.217954	0	0	0	0	0	0
20.46333	-0.004736807	0.2180079	0.001588376	0.003255958	0.04794003	0.09827066	0	0
20.48023	-0.004710491	0.2180259	0.001556858	0.001064059	-0.0009416659	-0.06548817	0	0
20.49646	-0.004710491	0.2180259	0	0	-0.04698877	-0.0321152	0	0
20.51303	-0.004684176	0.2180079	0.001588376	-0.001085619	0.04843072	-0.03310131	0	0
20.5296	-0.004684176	0.2180079	0	0	-0.04793727	0.03276405	0	0
20.54628	-0.004657861	0.2179899	0.001577327	-0.001078048	0.04743724	-0.03242171	0	0
20.56273	-0.004631546	0.2179719	0.001599795	-0.001093424	0.0006781329	-0.0004640689	0	0
20.59586	-0.004631546	0.2179719	0	0	-0.0322647	0.0220522	0	0
20.61283	-0.004657861	0.2179899	-0.001551229	0.00106023	-0.03096363	0.02116295	0	0
20.629	-0.004657861	0.2179899	0	0	0.04681888	-0.03199965	0	0
20.64556	-0.004657861	0.2180259	0	0.002171238	0	0.06632606	0	0
20.66213	-0.004657861	0.2180259	0	0	0	-0.06552809	0	0
20.67887	-0.004657861	0.2180978	0	0.004296475	0	0.1289774	0	0
20.69526	-0.00460523	0.2181698	0.003211535	0.004389985	0.09692989	0.002822311	0	0
20.71183	-0.00460523	0.2182417	0	0.004342476	-0.09745162	-0.001441614	0	0
20.72841	-0.004631546	0.2182597	-0.001587125	0.001083846	-0.04788022	-0.09830604	0	0
20.74496	-0.004631546	0.2182597	0	0	0.04789952	-0.03271054	0	0
20.76153	-0.004631546	0.2182597	0	0	0	0	0	0
20.77845	-0.004631546	0.2182597	0	0	0	0	0	0
20.79466	-0.00460523	0.2182417	0.001622589	-0.001108065	0.04897266	-0.03344339	0	0
20.81123	-0.00460523	0.2182417	0	0	-0.04949119	0.03379749	0	0
20.82798	-0.00460523	0.2182417	0	0	0	0	0	0
20.84449	-0.00460523	0.2182417	0	0	0	0	0	0
20.87752	-0.00460523	0.2182417	0	0	0	0	0	0
20.89407	-0.004631546	0.2182237	-0.001590235	-0.00108687	-0.03207929	-0.02192509	0	0
20.91063	-0.004631546	0.2182237	0	0	0.04802102	0.03282071	0	0
20.9272	-0.00460523	0.2182057	0.001588404	-0.001085619	0.04793812	-0.03276405	0	0
20.94377	-0.00460523	0.2182057	0	0	-0.04793812	0.03276405	0	0
20.96058	-0.00460523	0.2182057	0	0	0	0	0	0
20.97709	-0.00460523	0.2182057	0	0	0	0	0	0
20.99347	-0.00460523	0.2182057	0	0	0	0	0	0
21.01003	-0.004631546	0.2182237	-0.001588404	0.001085619	-0.04821567	0.03295374	0	0
21.0266	-0.004631546	0.2182237	0	0	0.04793812	-0.03276405	0	0
21.04317	-0.004631546	0.2182237	0	0	0	0	0	0
21.05974	-0.004631546	0.2182237	0	0	0	0	0	0
21.0763	-0.004657861	0.2182417	-0.001588376	0.001085619	-0.04793727	0.03276405	0	0
21.09287	-0.004657861	0.2182417	0	0	0.04793727	-0.03276405	0	0
21.10944	-0.004657861	0.2182417	0	0	0	0	0	0
21.12914	-0.004657861	0.2182417	0	0	0	0	0	0
21.14571	-0.004657861	0.2182417	0	0	0	0	0	0
21.21997	-0.004921013	0.2184216	-0.003543717	0.002421829	-0.03901326	0.02666224	0	0
21.23654	-0.004921013	0.2184216	0	0	0.03901653	-0.02666448	0	0
21.25329	-0.004947328	0.2184395	-0.001570655	0.001073507	-0.04713654	0.03221677	0	0
21.2698	-0.004973643	0.2184575	-0.001593697	0.001088353	-0.0006926533	0.0004462835	0	0
21.28631	-0.005184164	0.2186374	-0.01275113	0.01089291	-0.3378795	0.2969106	0	0
21.30283	-0.005342055	0.2187453	-0.009562207	0.006534632	0.09656984	-0.1319814	0	0
21.31937	-0.005447315	0.2188172	-0.006362292	0.004348484	0.09680209	-0.06613418	0	0
21.33594	-0.005447315	0.2188172	0	0	0.1921471	-0.1313282	0	0
21.35251	-0.005447315	0.2188172	0	0	0	0	0	0
21.36907	-0.00552626	0.2188711	-0.004766224	0.003256708	-0.1438532	0.09829329	0	0
21.38564	-0.005552575	0.2189251	-0.001588376	0.003256857	0.09591871	4.51878E-06	0	0
21.4022	-0.005710464	0.219069	-0.009530254	0.008683154	-0.2396864	0.163766	0	0
21.43542	-0.005736779	0.2191229	-0.0007922128	0.001624408	0.1755201	-0.1417883	0	0
21.45193	-0.005736779	0.2191229	0	0	0.01593018	-0.03266435	0	0
21.46847	-0.005736779	0.2191229	0	0	0	0	0	0
21.48546	-0.005736779	0.2191229	0	0	0	0	0	0
21.50161	-0.005736779	0.2191229	0	0	0	0	0	0
21.51818	-0.005736779	0.2191229	0	0	0	0	0	0
21.53474	-0.005736779	0.2191229	0	0	0	0	0	0
21.55131	-0.005736779	0.2191229	0	0	0	0	0	0
21.56787	-0.005736779	0.2191229	0	0	0	0	0	0
21.58444	-0.005710464	0.2191049	0.00158853	-0.001085744	0.0479447	-0.03276971	0	0
21.60101	-0.005710464	0.2191049	0	0	-0.0479447	0.03276971	0	0
21.61757	-0.005684149	0.2190869	0.001588376	-0.001085619	0.04793727	-0.03276405	0	0
21.63457	-0.005710464	0.219069	-0.001548791	-0.001058564	-0.09348521	0.0008062233	0	0
21.65071	-0.005710464	0.219069	0	0	0.0467453	0.03194936	0	0
21.66727	-0.005710464	0.219069	0	0	0	0	0	0
21.6841	-0.005684149	0.219051	0.001563889	-0.001067998	0.04683164	-0.03198186	0	0
21.70061	-0.005684149	0.219051	0	0	-0.04690934	0.03203492	0	0
21.71712	-0.005684149	0.219051	0	0	0	0	0	0
21.73363	-0.005657834	0.219033	0.001593697	-0.001089256	0.04826177	-0.03298583	0	0
21.75011	-0.005631519	0.219015	0.001597387	-0.001091778	0.0001118778	-7.646864E-05	0	0
21.76667	-0.005631519	0.219015	0	0	-0.04834839	0.03304504	0	0
21.78324	-0.005631519	0.218979	0	-0.002171238	0	-0.06553187	0	0
21.79981	-0.005631519	0.218979	0	0	0	0.06552809	0	0
21.81638	-0.005605204	0.2189611	0.001588376	-0.001085619	0.04793727	-0.03276405	0	0
21.83294	-0.005605204	0.2189611	0	0	-0.04793727	0.03276405	0	0
21.84951	-0.005605204	0.2189251	0	-0.002170589	0	-0.06551226	0	0
21.86608	-0.00557889	0.2189071	0.001588376	-0.001085619	0.04794003	0.03274633	0	0
21.88274	-0.00557889	0.2188711	0	-0.002158564	-0.04779695	-0.03228676	0	0
21.89925	-0.00557889	0.2188711	0	0	0	0.06506319	0	0
21.91578	-0.005552575	0.2188532	0.001592593	-0.001088501	0.04820885	-0.03294967	0	0
21.93234	-0.005552575	0.2188172	0	-0.002170339	-0.04812826	-0.0326932	0	0
21.94891	-0.00552626	0.2187632	0.001588376	-0.003256857	0.04793727	-0.0327912	0	0
21.98681	-0.005552575	0.2187093	-0.00069424	-0.001423099	-0.04190441	0.03366425	0	0
22.00336	-0.005552575	0.2187093	0	0	0.01275115	0.02613816	0	0
22.01992	-0.005552575	0.2187093	0	0	0	0	0	0
22.03653	-0.00557889	0.2186913	-0.001584363	-0.001082876	-0.04775568	-0.03263994	0	0
22.05306	-0.00557889	0.2186913	0	0	0.04781616	0.03268127	0	0
22.06962	-0.00557889	0.2186913	0	0	0	0	0	0
22.08639	-0.00557889	0.2186913	0	0	0	0	0	0
22.10276	-0.005605204	0.2186733	-0.001607437	-0.001098647	-0.04851533	-0.03315914	0	0
22.11933	-0.005605204	0.2186733	0	0	0.04879907	0.03335306	0	0
22.13589	-0.005605204	0.2186733	0	0	0	0	0	0
22.15246	-0.005631519	0.2186553	-0.001588376	-0.001085619	-0.04794003	-0.03276594	0	0
22.16945	-0.005631519	0.2186553	0	0	0.04732971	0.0323488	0	0
22.18602	-0.005631519	0.2186553	0	0	0	0	0	0
22.20216	-0.005657834	0.2186374	-0.001631	-0.001114752	-0.04986959	-0.03408474	0	0
22.21872	-0.005657834	0.2186374	0	0	0.0498754	0.03408872	0	0
22.23529	-0.005657834	0.2186374	0	0	0	0	0	0
22.252	-0.005657834	0.2186374	0	0	0	0	0	0
22.26842	-0.005657834	0.2186374	0	0	0	0	0	0
22.28502	-0.005684149	0.2186553	-0.001584909	0.00108325	-0.04799288	0.03280205	0	0
22.30155	-0.005684149	0.2186553	0	0	0.04783539	-0.03269442	0	0
22.31812	-0.005684149	0.2186553	0	0	0	0	0	0
22.33469	-0.005684149	0.2186553	0	0	0	0	0	0
22.35157	-0.005657834	0.2186374	0.001558765	-0.001065381	0.04659835	-0.03184893	0	0
22.36782	-0.005657834	0.2186374	0	0	-0.04704633	0.03215511	0	0
22.38439	-0.005684149	0.2186553	-0.001588559	0.001085744	-0.04840815	0.03308588	0	0
22.40095	-0.005657834	0.2186374	0.001588376	-0.001085619	0.09588558	-0.06553564	0	0
22.46806	-0.005684149	0.2186553	-0.000392128	0.0002680107	-0.02366889	0.01617716	0	0
22.48463	-0.005684149	0.2186553	0	0	0.004686407	-0.003203054	0	0
22.50119	-0.005710464	0.2186733	-0.001588376	0.001085619	-0.04794003	0.03276594	0	0
22.51776	-0.005736779	0.2186913	-0.001588347	0.001085619	8.50248E-07	0	0	0
22.53433	-0.005736779	0.2186913	0	0	0.0479309	-0.03276028	0	0
22.5509	-0.005763094	0.2187093	-0.001588741	0.001085869	-0.04794831	0.03277159	0	0
22.56773	-0.005763094	0.2187093	0	0	0.04757585	-0.03251703	0	0
22.58403	-0.005763094	0.2187093	0	0	0	0	0	0
22.60075	-0.005789409	0.2187273	-0.001573521	0.001075466	-0.04764528	0.03256448	0	0
22.61716	-0.005789409	0.2187273	0	0	0.04749169	-0.0324595	0	0
22.63377	-0.005789409	0.2187273	0	0	0	0	0	0
22.65029	-0.005789409	0.2187273	0	0	0	0	0	0
22.66686	-0.005789409	0.2187273	0	0	0	0	0	0
22.68343	-0.005789409	0.2187273	0	0	0	0	0	0
22.69999	-0.005789409	0.2187273	0	0	0	0	0	0
22.71656	-0.005789409	0.2187273	0	0	0	0	0	0
22.73313	-0.005789409	0.2187273	0	0	0	0	0	0
22.74985	-0.005789409	0.2187273	0	0	0	0	0	0
22.76636	-0.005815724	0.2187453	-0.001593697	0.001088353	-0.04795156	0.03274666	0	0
22.78287	-0.005842039	0.2187273	-0.001593881	-0.001088479	-5.573649E-06	-0.06592081	0	0
22.79939	-0.005842039	0.2187273	0	0	0.04825341	0.0329528	0	0
22.81596	-0.005868354	0.2187093	-0.001588376	-0.001085619	-0.04800359	-0.03280938	0	0
22.83253	-0.005868354	0.2187093	0	0	0.04793727	0.03276405	0	0
22.8491	-0.005868354	0.2187093	0	0	0	0	0	0
22.86566	-0.005868354	0.2187093	0	0	0	0	0	0
22.88549	-0.005868354	0.2187093	0	0	0	0	0	0
22.90206	-0.005868354	0.2187093	0	0	0	0	0	0
22.91862	-0.005868354	0.2187093	0	0	0	0	0	0
22.93519	-0.005868354	0.2187093	0	0	0	0	0	0
22.95176	-0.005868354	0.2187093	0	0	0	0	0	0
22.96851	-0.005868354	0.2187093	0	0	0	0	0	0
22.98502	-0.005868354	0.2187093	0	0	0	0	0	0
23.00146	-0.005868354	0.2187093	0	0	0	0	0	0
23.08429	-0.005842039	0.2186913	0.0003176898	-0.0002171338	0.003200387	-0.002187392	0	0
23.1011	-0.005842039	0.2186913	0	0	-0.003188135	0.002179019	0	0
23.11742	-0.005815724	0.2186733	0.001612509	-0.001102114	0.04866563	-0.03326187	0	0
23.13399	-0.005815724	0.2186733	0	0	-0.0490354	0.0335146	0	0
23.15064	-0.005789409	0.2186553	0.001580189	-0.001080024	0.04756972	-0.03251284	0	0
23.16712	-0.005789409	0.2186553	0	0	-0.0476902	0.03259518	0	0
23.18369	-0.005789409	0.2186553	0	0	0	0	0	0
23.20068	-0.005815724	0.2186733	-0.001548791	0.001058564	-0.04615543	0.03154621	0	0
23.21682	-0.005815724	0.2186733	0	0	0.0467453	-0.03194936	0	0
23.23339	-0.005842039	0.2186913	-0.001588376	0.001085619	-0.04856063	0.0331901	0	0
23.24995	-0.005842039	0.2186913	0	0	0.04793727	-0.03276405	0	0
23.26672	-0.005842039	0.2186913	0	0	0	0	0	0
23.28323	-0.005868354	0.2187093	-0.001593881	0.001089382	-0.04789937	0.03273815	0	0
23.29974	-0.005868354	0.2187093	0	0	0.04826734	-0.03298964	0	0
23.31625	-0.005868354	0.2187093	0	0	0	0	0	0
23.33279	-0.005894668	0.2187273	-0.001591462	0.001087748	-0.04815795	0.03291546	0	0
23.34936	-0.005868354	0.2187453	0.001588347	0.00108472	0.09606085	-9.148416E-05	0	0
23.36592	-0.005894668	0.2187632	-0.001588347	0.001085619	-0.09587284	2.714469E-05	0	0
23.38249	-0.005894668	0.2187632	0	0	0.04793918	-0.03276594	0	0
23.39906	-0.005894668	0.2187632	0	0	0	0	0	0
23.41562	-0.005894668	0.2187632	0	0	0	0	0	0
23.43234	-0.005894668	0.2187632	0	0	0	0	0	0
23.44876	-0.005894668	0.2187632	0	0	0	0	0	0
23.48189	-0.005868354	0.2187453	0.0007942195	-0.0005428408	0.01602832	-0.01095519	0	0
23.49846	-0.005894668	0.2187273	-0.001588347	-0.00108472	-0.04793918	-0.01090304	0	0
23.51502	-0.005894668	0.2187273	0	0	0.04793642	0.0327369	0	0
23.53159	-0.005894668	0.2187273	0	0	0	0	0	0
23.54815	-0.005894668	0.2187273	0	0	0	0	0	0
23.56472	-0.005894668	0.2187273	0	0	0	0	0	0
23.58129	-0.005894668	0.2187273	0	0	0	0	0	0
23.59785	-0.005894668	0.2187273	0	0	0	0	0	0
23.61442	-0.005894668	0.2187273	0	0	0	0	0	0
23.63099	-0.005894668	0.2187273	0	0	0	0	0	0
23.64756	-0.005894668	0.2187273	0	0	0	0	0	0
23.66412	-0.005920983	0.2187453	-0.001588376	0.00108472	-0.04793727	0.0327369	0	0
23.68069	-0.005920983	0.2187453	0	0	0.04794003	-0.03273879	0	0
23.69726	-0.005920983	0.2187453	0	0	0	0	0	0
23.71382	-0.005920983	0.2187453	0	0	0	0	0	0
23.73055	-0.005920983	0.2187453	0	0	0	0	0	0
23.74696	-0.005920983	0.2187453	0	0	0	0	0	0
23.76352	-0.005920983	0.2187453	0	0	0	0	0	0
23.78009	-0.005920983	0.2187453	0	0	0	0	0	0
23.82979	-0.005894668	0.2187632	0.0005294586	0.000361873	0.007989545	0.005460675	0	0
23.85046	-0.005894668	0.2187632	0	0	-0.007523954	-0.005142454	0	0
23.86703	-0.005894668	0.2187632	0	0	0	0	0	0
23.88366	-0.005894668	0.2187632	0	0	0	0	0	0
23.90016	-0.005894668	0.2187992	0	0.00217977	0	0.0657856	0	0
23.91673	-0.005842039	0.2188352	0.003176723	0.002171238	0.09606171	-0.0002580106	0	0
23.9333	-0.005684149	0.2189071	0.009531323	0.004342077	0.1917932	0.06551981	0	0
23.94986	-0.005421	0.219051	0.01588376	0.008684053	0.1917279	0.1310486	0	0
23.96672	-0.004921013	0.2192848	0.02965686	0.01386611	0.412044	0.1550293	0	0
23.983	0.0006578946	0.2225569	0.3428217	0.2010748	9.451877	5.650295	0	0
23.99974	0.01639327	0.2316482	0.9396204	0.5428745	18.07385	10.35128	0	0
24.01613	0.02173342	0.2343236	0.3258586	0.163256	-18.52337	-11.45691	0	0
24.0327	0.05258306	0.2416819	1.862088	0.444145	46.61574	8.523368	0	0
24.04928	0.09153298	0.2451259	2.348318	0.207644	14.66602	-7.13351	0	0
24.06583	0.1201552	0.2476007	1.729634	0.1495487	-18.67192	-1.753319	0	0
24.0824	0.154059	0.2508457	2.046668	0.1958936	9.574157	1.399579	0	0
24.09896	0.1752111	0.2534626	1.276745	0.1579571	-23.23767	-1.144991	0	0
24.11553	0.1924058	0.2566882	1.037875	0.1946937	-7.209094	1.108711	0	0
24.1321	0.2087558	0.2622592	0.9868898	0.3362685	-1.538744	4.272736	0	0
24.14889	0.2176796	0.2661451	0.5315989	0.2314847	-13.65035	-3.141584	0	0
24.16523	0.224168	0.2689558	0.3969007	0.1719333	-4.065198	-1.797264	0	0
24.18188	0.2283915	0.2713364	0.2537912	0.1430534	-4.338032	-0.8754291	0	0
24.19837	0.2286662	0.2714975	0.01665329	0.009767884	-7.157248	-4.022795	0	0
24.21493	0.2288659	0.2713543	0.01205334	-0.008643579	-0.1391473	-0.5569414	0	0
24.2315	0.2290656	0.2712111	0.01205334	-0.008641779	0	5.430344E-05	0	0
24.24807	0.2291903	0.2711217	0.007531876	-0.005402012	-0.136458	0.09777638	0	0
24.26464	0.2291903	0.2711217	0	0	-0.2273125	0.163033	0	0
24.2812	0.2292403	0.2710859	0.00301311	-0.002160445	0.09093585	-0.06520236	0	0
24.29777	0.2293151	0.2710322	0.004518766	-0.003241567	0.04544078	-0.03262833	0	0
24.31434	0.22939	0.2709785	0.004519665	-0.003241567	2.713767E-05	0	0	0
24.3309	0.2294149	0.2709606	0.001505656	-0.001079323	-0.09096298	0.06525666	0	0
24.34747	0.229365	0.2709606	-0.003012211	0	-0.1363495	0.03257403	0	0
24.36404	0.229365	0.2709606	0	0	0.09090871	0	0	0
24.38061	0.2293151	0.2709248	-0.00301311	-0.002160445	-0.09093585	-0.06520236	0	0
24.39717	0.2293151	0.2709248	0	0	0.09093585	0.06520236	0	0
24.41374	0.2292902	0.2709069	-0.001505656	-0.001081122	-0.04544078	-0.03262833	0	0
24.43031	0.2292153	0.2708532	-0.004519665	-0.003241567	-0.09096298	-0.06520236	0	0
24.44687	0.2291155	0.2708174	-0.006025321	-0.002160445	-0.04544078	0.03262833	0	0
24.46344	0.2290656	0.2707816	-0.00301311	-0.002160445	0.0909087	0	0	0
24.48001	0.2289657	0.2707458	-0.006026221	-0.002160445	-0.09093585	0	0	0
24.49658	0.2289158	0.27071	-0.00301401	-0.002160445	0.09090871	0	0	0
24.51314	0.2288908	0.2706921	-0.001506555	-0.001081122	0.04549507	0.03257403	0	0
24.52971	0.2288908	0.2706921	0	0	0.04546792	0.03262833	0	0
24.54664	0.2288908	0.2706921	0	0	0	0	0	0
24.56316	0.2288908	0.2706921	0	0	0	0	0	0
24.57967	0.2288908	0.2706921	0	0	0	0	0	0
24.59618	0.2288908	0.2706921	0	0	0	0	0	0
24.61269	0.2288908	0.2706921	0	0	0	0	0	0
24.62946	0.2288659	0.27071	-0.001488391	0.001068087	-0.04472408	0.03209453	0	0
24.64571	0.2288908	0.2706921	0.001535548	-0.001101927	0.09156839	-0.06571056	0	0
24.67881	0.2288908	0.2706921	0	0	-0.03111499	0.02232849	0	0
24.69538	0.2288908	0.2706921	0	0	0	0	0	0
24.7166	0.2289408	0.2707279	0.002353019	0.001686646	0.0622683	0.04463398	0	0
24.73317	0.2289657	0.27071	0.001506382	-0.001079199	-0.02240356	-0.07318929	0	0
24.74979	0.2289907	0.2707279	0.001501542	0.001075731	-0.0001458117	0.06492381	0	0
24.7663	0.2289907	0.2707279	0	0	-0.04531923	-0.03246751	0	0
24.78287	0.2290156	0.27071	0.001506555	-0.001079323	0.04554658	-0.03263038	0	0
24.79943	0.2290406	0.2706921	0.001506555	-0.001081122	0	-5.42929E-05	0	0
24.816	0.2296395	0.2702983	0.03615193	-0.02376849	1.045599	-0.6847062	0	0
24.83285	0.2313855	0.2690453	0.103643	-0.07438151	2.019908	-1.514773	0	0
24.84914	0.2365152	0.2654288	0.3149233	-0.2220214	6.376453	-4.45578	0	0
24.8657	0.243492	0.2603965	0.421124	-0.3037521	3.232307	-2.487544	0	0
24.88238	0.2477507	0.2573511	0.2553209	-0.1825829	-4.98701	3.644516	0	0
24.89884	0.2495307	0.256061	0.1081876	-0.07840758	-4.440746	3.144198	0	0
24.91541	0.249506	0.2561148	-0.001490921	0.003244417	-3.321194	2.472517	0	0
24.93197	0.249506	0.2561148	0	0	0.0449961	-0.09791671	0	0
24.94893	0.2495801	0.256061	0.004371029	-0.003169984	0.1303868	-0.09455989	0	0
25.048	0.2496049	0.2560431	0.0002493767	-0.0001807906	-0.03552179	0.02576188	0	0
25.06453	0.2496049	0.2560431	0	0	-0.002157334	0.001564002	0	0
25.08107	0.2496049	0.2560431	0	0	0	0	0	0
25.09764	0.2496049	0.2560431	0	0	0	0	0	0
25.1142	0.2495554	0.2560431	-0.002982873	0	-0.09002846	0	0	0
25.13106	0.2495801	0.2560252	0.001465783	-0.001064417	0.1331113	-0.03184915	0	0
25.14734	0.2495801	0.2560252	0	0	-0.04423997	0.03212601	0	0
25.16746	0.2495554	0.2560431	-0.001227901	0.0008916722	-0.03373545	0.02449788	0	0
25.18403	0.2495554	0.2560431	0	0	0.03346713	-0.02430303	0	0
25.20061	0.2495554	0.2560431	0	0	0	0	0	0
25.21716	0.2495554	0.2560431	0	0	0	0	0	0
25.23373	0.2495554	0.2560431	0	0	0	0	0	0
25.25029	0.2495554	0.2560431	0	0	0	0	0	0
25.26716	0.2495554	0.2560431	0	0	0	0	0	0
25.28343	0.2495554	0.2560431	0	0	0	0	0	0
25.29999	0.2495554	0.2560431	0	0	0	0	0	0
25.31656	0.2495554	0.2560431	0	0	0	0	0	0
25.33313	0.2495554	0.2560431	0	0	0	0	0	0
25.3497	0.2495554	0.2560431	0	0	0	0	0	0
25.36626	0.2495554	0.2560431	0	0	0	0	0	0
25.38283	0.2495307	0.256061	-0.001492336	0.001081246	-0.04504398	0.03263584	0	0
25.39939	0.2495307	0.256061	0	0	0.04504138	-0.03263396	0	0
25.41627	0.2495307	0.256061	0	0	0	0	0	0
25.43253	0.2495307	0.256061	0	0	0	0	0	0
25.44929	0.2495307	0.256061	0	0	0	0	0	0
25.46566	0.2495307	0.256061	0	0	0	0	0	0
25.48231	0.2495307	0.256061	0	0	0	0	0	0
25.49879	0.2495307	0.256061	0	0	0	0	0	0
25.51536	0.2495307	0.256061	0	0	0	0	0	0
25.53193	0.2495307	0.256061	0	0	0	0	0	0
25.54886	0.2495307	0.256061	0	0	0	0	0	0
25.56537	0.249506	0.256079	-0.001496433	0.001084869	-0.04475028	0.0324426	0	0
25.58188	0.2494813	0.256061	-0.00149626	-0.001084744	5.235211E-06	-0.06570217	0	0
25.59839	0.2493825	0.2560969	-0.005986846	0.002169487	-0.1359802	0.09854188	0	0
25.61476	0.247355	0.2563836	-0.123863	0.01751486	-3.584955	0.4666972	0	0
25.63599	0.2468354	0.2560073	-0.02447715	-0.01772677	2.643539	-0.9373833	0	0
25.65256	0.245474	0.2550576	-0.08217606	-0.05732464	-1.526664	-1.047726	0	0
25.68569	0.2362664	0.252208	-0.277883	-0.08599956	-3.937631	-0.5769405	0	0
25.70226	0.2251434	0.2493757	-0.6713866	-0.1709585	-7.917309	-1.709377	0	0
25.71882	0.2101658	0.2481386	-0.9040509	-0.07467207	-7.021822	2.90593	0	0
25.73549	0.1852717	0.2478517	-1.4935	-0.01721182	-17.7355	1.728879	0	0
25.75196	0.1787301	0.2478338	-0.3973197	-0.00108879	33.08469	0.4866219	0	0
25.78509	0.1175347	0.2462917	-1.846881	-0.04654176	-29.22579	-0.9164146	0	0
25.80166	0.09857421	0.2456281	-1.144458	-0.04005188	14.13278	0.1305766	0	0
25.81823	0.07611582	0.2446238	-1.355591	-0.06062288	-6.37201	-0.6208339	0	0
25.83479	0.06600922	0.2440498	-0.6100357	-0.03464447	22.50091	0.78403	0	0
25.85136	0.05003715	0.2423457	-0.9640765	-0.1028604	-10.68497	-2.05876	0	0
25.86794	0.04234309	0.2397441	-0.4640932	-0.1569214	15.08432	-1.631002	0	0
25.88449	0.0401626	0.2393314	-0.1317059	-0.0249289	10.03147	3.983542	0	0
25.90112	0.02917593	0.2364599	-0.6610259	-0.1727698	-15.9547	-4.456203	0	0
25.91763	0.02268032	0.2333182	-0.3933437	-0.1902449	8.078666	-0.5274017	0	0
25.93419	0.02183863	0.2327077	-0.05081026	-0.03685413	10.35497	4.637084	0	0
25.95076	0.02181233	0.2327257	-0.001587729	0.00108382	1.485624	1.145036	0	0
25.96733	0.02181233	0.2327257	0	0	0.04791776	-0.03270976	0	0
25.9839	0.02186494	0.2327257	0.003175346	0	0.09583213	0	0	0
26.00069	0.02186494	0.2327257	0	0	-0.09519102	0	0	0
26.01703	0.02199645	0.2327795	0.008046697	0.003295856	0.2428498	0.09946912	0	0
26.03371	0.02202275	0.2327616	0.001576906	-0.001076508	-0.1959128	-0.1324002	0	0
26.05022	0.02204906	0.2327795	0.001593048	0.001087451	0.0004863347	0.06519581	0	0
26.06675	0.02207536	0.2327616	0.001591832	-0.001086698	-3.681139E-05	-0.06581293	0	0
26.0833	0.02212797	0.2327616	0.003178273	0	0.04796448	0.03285523	0	0
26.09986	0.02212797	0.2327616	0	0	-0.09597019	0	0	0
26.11643	0.02212797	0.2327616	0	0	0	0	0	0
26.13328	0.02212797	0.2327616	0	0	0	0	0	0
26.14956	0.02212797	0.2327616	0	0	0	0	0	0
26.16613	0.02215427	0.2327436	0.001587251	-0.001083571	0.04831215	-0.03298131	0	0
26.18282	0.02215427	0.2327436	0	0	-0.04772751	0.03258219	0	0
26.19926	0.02218057	0.2327257	0.001599587	-0.001091992	0.04828397	-0.03296207	0	0
26.21583	0.02218057	0.2327257	0	0	-0.04845694	0.03308016	0	0
26.2324	0.02215427	0.2327077	-0.0015878	-0.001083945	-0.04792264	-0.03271541	0	0
26.24896	0.02215427	0.2327077	0	0	0.04792264	0.03271541	0	0
26.26553	0.02215427	0.2327077	0	0	0	0	0	0
26.2821	0.02215427	0.2327077	0	0	0	0	0	0
26.2989	0.02215427	0.2327077	0	0	0	0	0	0
26.31541	0.02215427	0.2327077	0	0	0	0	0	0
26.33192	0.02215427	0.2327077	0	0	0	0	0	0
26.36494	0.02215427	0.2327077	0	0	0	0	0	0
26.3815	0.02215427	0.2327077	0	0	0	0	0	0
26.39807	0.02215427	0.2327077	0	0	0	0	0	0
26.41463	0.02218057	0.2326897	0.0015878	-0.001083945	0.0479254	-0.03271729	0	0
26.4312	0.02218057	0.2326897	0	0	-0.04792264	0.03271541	0	0
26.44777	0.02218057	0.2326897	0	0	0	0	0	0
26.46433	0.02220687	0.2326718	0.001587617	-0.00108382	0.04791437	-0.03270976	0	0
26.48463	0.02220687	0.2326718	0	0	-0.04306542	0.02939952	0	0
26.54752	0.02223318	0.2326538	0.0004182644	-0.0002855169	0.005027996	-0.003432225	0	0
26.56409	0.02225948	0.2326359	0.001587617	-0.00108382	0.01471692	-0.01004707	0	0
26.58065	0.02225948	0.2326359	0	0	-0.04791437	0.03270976	0	0
26.59722	0.02225948	0.2326359	0	0	0	0	0	0
26.61379	0.02225948	0.2326359	0	0	0	0	0	0
26.63036	0.02225948	0.2326359	0	0	0	0	0	0
26.64692	0.02225948	0.2326359	0	0	0	0	0	0
26.66349	0.02225948	0.2326359	0	0	0	0	0	0
26.68006	0.02228578	0.2326179	0.001587617	-0.00108382	0.04791437	-0.03270976	0	0
26.69662	0.02228578	0.2326179	0	0	-0.04791437	0.03270976	0	0
26.71319	0.02228578	0.2326179	0	0	0	0	0	0
26.72976	0.02228578	0.2326179	0	0	0	0	0	0
26.81259	0.02233839	0.232582	0.0006350613	-0.0004335381	0.006388852	-0.004361486	0	0
26.82928	0.02233839	0.232582	0	0	-0.00638126	0.004356303	0	0
26.84579	0.02233839	0.232582	0	0	0	0	0	0
26.8623	0.02233839	0.232582	0	0	0	0	0	0
26.87886	0.02236469	0.232564	0.001587617	-0.00108382	0.04800556	-0.03277201	0	0
26.89543	0.02236469	0.232564	0	0	-0.04791437	0.03270976	0	0
26.912	0.02236469	0.232564	0	0	0	0	0	0
26.92856	0.02236469	0.232564	0	0	0	0	0	0
26.94513	0.02236469	0.232564	0	0	0	0	0	0
26.96188	0.02236469	0.232564	0	0	0	0	0	0
26.97839	0.02233839	0.232582	-0.001593119	0.001087577	-0.04790395	0.03270264	0	0
26.99483	0.02233839	0.232582	0	0	0.04834481	-0.03300361	0	0
27.0114	0.02236469	0.232564	0.001587617	-0.00108382	0.04809432	-0.03283261	0	0
27.02797	0.02236469	0.232564	0	0	-0.04791437	0.03270976	0	0
27.04453	0.02236469	0.232564	0	0	0	0	0	0
27.0611	0.02236469	0.232564	0	0	0	0	0	0
27.07767	0.02236469	0.232564	0	0	0	0	0	0
27.1108	0.02236469	0.232564	0	0	0	0	0	0
27.1275	0.02236469	0.232564	0	0	0	0	0	0
27.14401	0.02236469	0.232564	0	0	0	0	0	0
27.1605	0.02236469	0.232564	0	0	0	0	0	0
27.17707	0.02236469	0.232564	0	0	0	0	0	0
27.19364	0.02236469	0.232564	0	0	0	0	0	0
27.21056	0.02236469	0.232564	0	0	0	0	0	0
27.22677	0.02236469	0.232564	0	0	0	0	0	0
27.24334	0.02236469	0.232564	0	0	0	0	0	0
27.2599	0.02236469	0.232564	0	0	0	0	0	0
27.27647	0.02236469	0.232564	0	0	0	0	0	0
27.29304	0.02236469	0.232564	0	0	0	0	0	0
27.3096	0.02233839	0.232582	-0.001587617	0.00108382	-0.04791437	0.03270976	0	0
27.32617	0.02233839	0.232582	0	0	0.04791437	-0.03270976	0	0
27.34274	0.02233839	0.232582	0	0	0	0	0	0
27.35931	0.02233839	0.232582	0	0	0	0	0	0
27.37587	0.02233839	0.232582	0	0	0	0	0	0
27.39244	0.02233839	0.232582	0	0	0	0	0	0
27.41264	0.02236469	0.232564	0.001302544	-0.0008892096	0.03543159	-0.02418813	0	0
27.4292	0.02233839	0.232582	-0.001587617	0.00108382	-0.07862175	0.0536728	0	0
27.44577	0.02233839	0.232582	0	0	0.04791437	-0.03270976	0	0
27.46234	0.02233839	0.232582	0	0	0	0	0	0
27.4789	0.02236469	0.232564	0.001587617	-0.00108382	0.04791437	-0.03270976	0	0
27.49547	0.02236469	0.232564	0	0	-0.04791437	0.03270976	0	0
27.51204	0.02236469	0.232564	0	0	0	0	0	0
27.5286	0.02236469	0.232564	0	0	0	0	0	0
27.55001	0.02236469	0.232564	0	0	0	0	0	0
27.56658	0.02236469	0.232564	0	0	0	0	0	0
27.58315	0.02236469	0.232564	0	0	0	0	0	0
27.59971	0.02236469	0.232564	0	0	0	0	0	0
27.61637	0.02236469	0.232564	0	0	0	0	0	0
27.63285	0.02236469	0.232564	0	0	0	0	0	0
27.64942	0.02236469	0.232564	0	0	0	0	0	0
27.66598	0.02236469	0.232564	0	0	0	0	0	0
27.71568	0.02239099	0.2325461	0.0005292462	-0.0003613012	0.007987031	-0.005452516	0	0
27.73225	0.02239099	0.2325461	0	0	-0.007986801	0.005452359	0	0
27.74896	0.02239099	0.2325461	0	0	0	0	0	0
27.76545	0.0224173	0.2325281	0.001594521	-0.00108936	0.04802047	-0.03280708	0	0
27.78194	0.0224173	0.2325281	0	0	-0.0483398	0.03302523	0	0
27.79851	0.0224173	0.2325281	0	0	0	0	0	0
27.81508	0.0224173	0.2325281	0	0	0	0	0	0
27.83164	0.0224173	0.2325281	0	0	0	0	0	0
27.84821	0.0224173	0.2325281	0	0	0	0	0	0
27.86478	0.0224173	0.2325281	0	0	0	0	0	0
27.88135	0.0224173	0.2325281	0	0	0	0	0	0
27.89805	0.0224173	0.2325281	0	0	0	0	0	0
27.91448	0.02239099	0.2325461	-0.001600814	0.001093659	-0.04831268	0.03300671	0	0
27.93105	0.02239099	0.2325461	0	0	0.04851094	-0.03314216	0	0
27.94761	0.02239099	0.2325461	0	0	0	0	0	0
27.96418	0.02239099	0.2325461	0	0	0	0	0	0
27.98075	0.02239099	0.2325461	0	0	0	0	0	0
27.99762	0.02239099	0.2325461	0	0	0	0	0	0
28.01388	0.02239099	0.2325461	0	0	0	0	0	0
28.03045	0.02239099	0.2325461	0	0	0	0	0	0
28.04716	0.0224173	0.2325281	0.001574497	-0.001075679	0.04731956	-0.03232822	0	0
28.06358	0.0224173	0.2325281	0	0	-0.04752114	0.03246593	0	0
28.08015	0.0224173	0.2325281	0	0	0	0	0	0
28.09672	0.0224173	0.2325281	0	0	0	0	0	0
28.11328	0.0224173	0.2325281	0	0	0	0	0	0
28.12985	0.0224173	0.2325281	0	0	0	0	0	0
28.14642	0.0224173	0.2325281	0	0	0	0	0	0
28.16299	0.0224173	0.2325281	0	0	0	0	0	0
28.17955	0.0224173	0.2325281	0	0	0	0	0	0
28.19612	0.0224173	0.2325281	0	0	0	0	0	0
28.21269	0.0224173	0.2325281	0	0	0	0	0	0
28.22925	0.0224173	0.2325281	0	0	0	0	0	0
28.24582	0.0224173	0.2325281	0	0	0	0	0	0
28.26239	0.0224173	0.2325281	0	0	0	0	0	0
28.27895	0.0224173	0.2325281	0	0	0	0	0	0
28.30307	0.0224173	0.2325281	0	0	0	0	0	0
28.31965	0.0224173	0.2325281	0	0	0	0	0	0
28.33621	0.0224173	0.2325281	0	0	0	0	0	0
28.35277	0.0224173	0.2325281	0	0	0	0	0	0
28.36939	0.0224173	0.2325281	0	0	0	0	0	0
28.38591	0.0224173	0.2325281	0	0	0	0	0	0
28.40248	0.0224173	0.2325281	0	0	0	0	0	0
28.41904	0.0224173	0.2325281	0	0	0	0	0	0
28.43561	0.0224173	0.2325281	0	0	0	0	0	0
28.45245	0.0224173	0.2325281	0	0	0	0	0	0
28.46897	0.0224173	0.2325281	0	0	0	0	0	0
28.48531	0.0224173	0.2325281	0	0	0	0	0	0
28.50199	0.0224173	0.2325281	0	0	0	0	0	0
28.5185	0.0224173	0.2325281	0	0	0	0	0	0
28.53501	0.0224173	0.2325281	0	0	0	0	0	0
28.55158	0.0224173	0.2325281	0	0	0	0	0	0
28.56854	0.0224173	0.2325281	0	0	0	0	0	0
28.58471	0.0224173	0.2325281	0	0	0	0	0	0
28.60128	0.0224173	0.2325281	0	0	0	0	0	0
28.65098	0.0224173	0.2325281	0	0	0	0	0	0
28.66811	0.0224436	0.2325102	0.001535468	-0.00104822	0.02297519	-0.0156845	0	0
28.68411	0.0224436	0.2325102	0	0	-0.04633785	0.03163352	0	0
28.70113	0.0224436	0.2325102	0	0	0	0	0	0
28.71725	0.0224436	0.2325102	0	0	0	0	0	0
28.73382	0.0224436	0.2325102	0	0	0	0	0	0
28.75067	0.0224436	0.2325102	0	0	0	0	0	0
28.76718	0.0224699	0.2324922	0.001593303	-0.001087702	0.0477561	-0.03260172	0	0
28.78352	0.0224699	0.2324922	0	0	-0.04850762	0.03311476	0	0
28.80009	0.0224699	0.2324922	0	0	0	0	0	0
28.81665	0.0224699	0.2324922	0	0	0	0	0	0
28.83321	0.0224699	0.2324922	0	0	0	0	0	0
28.84978	0.0224962	0.2324743	0.001587617	-0.00108382	0.04791713	-0.03271164	0	0
28.86635	0.0224962	0.2324743	0	0	-0.04790885	0.032706	0	0
28.88291	0.0224962	0.2324743	0	0	0	0	0	0
28.89948	0.0224962	0.2324743	0	0	0	0	0	0
28.91605	0.0224962	0.2324743	0	0	0	0	0	0
28.93261	0.0224962	0.2324743	0	0	0	0	0	0
28.94931	0.0224962	0.2324743	0	0	0	0	0	0
28.96575	0.0224962	0.2324743	0	0	0	0	0	0
28.98232	0.0224962	0.2324743	0	0	0	0	0	0
28.99888	0.0224962	0.2324743	0	0	0	0	0	0
29.01545	0.0224962	0.2324743	0	0	0	0	0	0
29.03201	0.0224962	0.2324743	0	0	0	0	0	0
29.04888	0.0224962	0.2324743	0	0	0	0	0	0
29.06515	0.0224962	0.2324743	0	0	0	0	0	0
29.0824	0.0224962	0.2324743	0	0	0	0	0	0
29.09842	0.0224962	0.2324743	0	0	0	0	0	0
29.11485	0.0224962	0.2324743	0	0	0	0	0	0
29.13141	0.0224962	0.2324743	0	0	0	0	0	0
29.14798	0.0224962	0.2324743	0	0	0	0	0	0
29.16455	0.0224962	0.2324743	0	0	0	0	0	0
29.18147	0.0224962	0.2324743	0	0	0	0	0	0
29.20122	0.0224962	0.2324743	0	0	0	0	0	0
29.21779	0.0224962	0.2324743	0	0	0	0	0	0
29.27383	0.0224962	0.2324743	0	0	0	0	0	0
29.2904	0.0224962	0.2324743	0	0	0	0	0	0
29.30697	0.0224962	0.2324743	0	0	0	0	0	0
29.32354	0.0224962	0.2324743	0	0	0	0	0	0
29.3401	0.0224962	0.2324743	0	0	0	0	0	0
29.35667	0.0224962	0.2324743	0	0	0	0	0	0
29.37323	0.0224962	0.2324743	0	0	0	0	0	0
29.3898	0.0224962	0.2324743	0	0	0	0	0	0
29.40637	0.0224962	0.2324743	0	0	0	0	0	0
29.50577	0.0224962	0.2324743	0	0	0	0	0	0
29.52234	0.0224962	0.2324743	0	0	0	0	0	0
29.53891	0.0224962	0.2324743	0	0	0	0	0	0
29.55547	0.0224962	0.2324743	0	0	0	0	0	0
29.57204	0.0224962	0.2324743	0	0	0	0	0	0
29.58861	0.0224962	0.2324743	0	0	0	0	0	0
29.60517	0.0224962	0.2324743	0	0	0	0	0	0
29.62174	0.0224962	0.2324743	0	0	0	0	0	0
29.63831	0.0224962	0.2324743	0	0	0	0	0	0
29.65487	0.0224962	0.2324743	0	0	0	0	0	0
29.67144	0.0224962	0.2324743	0	0	0	0	0	0
29.68801	0.0224962	0.2324743	0	0	0	0	0	0
29.70457	0.0224962	0.2324743	0	0	0	0	0	0
29.72136	0.0224962	0.2324743	0	0	0	0	0	0
29.73771	0.0224962	0.2324743	0	0	0	0	0	0
29.75438	0.0224962	0.2324743	0	0	0	0	0	0
29.7709	0.0224962	0.2324743	0	0	0	0	0	0
29.78741	0.0224962	0.2324743	0	0	0	0	0	0
29.80397	0.0224962	0.2324743	0	0	0	0	0	0
29.82054	0.0224962	0.2324743	0	0	0	0	0	0
29.83711	0.0224962	0.2324743	0	0	0	0	0	0
29.85368	0.0224962	0.2324743	0	0	0	0	0	0
29.87024	0.0224962	0.2324743	0	0	0	0	0	0
29.88681	0.0224962	0.2324743	0	0	0	0	0	0
29.90338	0.0224962	0.2324743	0	0	0	0	0	0
29.91994	0.0224436	0.2325102	-0.003175233	0.00216764	-0.09582873	0.06541952	0	0
29.93651	0.0224173	0.232564	-0.001587617	0.00325236	0.04791437	0.0327369	0	0
29.95308	0.0224436	0.2326179	0.001587617	0.003251461	0.09582873	-2.714469E-05	0	0
29.96965	0.02302225	0.2330848	0.03492723	0.02817933	1.006191	0.7523244	0	0
29.98621	0.02360088	0.2335157	0.03492633	0.02601079	-2.709551E-05	-0.06544667	0	0
30.00278	0.02362718	0.2335337	0.001587504	0.00108382	-1.006168	-0.7522973	0	0
30.01935	0.02360088	0.2335516	-0.001587504	0.00108382	-0.09582195	0	0	0
30.03592	0.02360088	0.2335516	0	0	0.04791097	-0.03270976	0	0
30.05248	0.02362718	0.2338927	0.001587687	0.02059316	0.04791925	0.6215385	0	0
30.06905	0.02362718	0.2341441	0	0.01517168	-0.04791925	-0.1636298	0	0
30.08562	0.02331157	0.2344314	-0.0190505	0.01733932	-0.5749453	0.06541951	0	0
30.10218	0.02310115	0.2346468	-0.0127006	0.01300404	0.1916405	-0.130839	0	0
30.11875	0.02307485	0.2346647	-0.001587617	0.001082921	0.3353904	-0.3597802	0	0
30.13532	0.02291704	0.2350597	-0.009525476	0.02383955	-0.2395651	0.6867964	0	0
30.15188	0.01905033	0.2392058	-0.2333953	0.250259	-6.756404	6.833354	0	0
30.17066	0.008999757	0.2535522	-0.5352898	0.7640861	-8.541805	14.53823	0	0
30.18723	0.002236838	0.2716228	-0.4082106	1.090742	3.595579	9.242411	0	0
30.20379	-0.004947328	0.3025054	-0.4336371	1.864079	-0.7673744	23.33935	0	0
30.22036	-0.009920727	0.3271744	-0.300195	1.489023	4.027292	-11.3192	0	0
30.23693	-0.01310451	0.3435855	-0.1921737	0.9905721	3.260089	-15.04329	0	0
30.2535	-0.01768237	0.3666959	-0.2763199	1.394946	-2.539536	12.20402	0	0
30.27006	-0.02333787	0.3911977	-0.3413666	1.478932	-1.963115	2.534697	0	0
30.28663	-0.02599414	0.4005519	-0.1603332	0.5646263	5.463599	-27.59379	0	0
30.3032	-0.03622099	0.4202275	-0.6172938	1.187619	-13.7911	18.80195	0	0
30.31979	-0.03769267	0.4227361	-0.08868737	0.1511764	15.94053	-31.25471	0	0
30.33633	-0.03900652	0.4251736	-0.07943241	0.1473618	0.2793151	-0.1151224	0	0
30.35332	-0.05245185	0.4366513	-0.7916917	0.6758392	-21.24653	15.76436	0	0
30.36946	-0.05525947	0.4385716	-0.1738521	0.1189028	18.64751	-16.80934	0	0
30.38603	-0.05667608	0.4396485	-0.08550645	0.06500403	2.700319	-1.647437	0	0
30.40286	-0.05811869	0.4407076	-0.08574332	0.06294815	-0.007093591	-0.06156801	0	0
30.41916	-0.06331001	0.4461666	-0.3183333	0.334746	-7.019985	8.203347	0	0
30.43573	-0.06794787	0.4503528	-0.2799418	0.2526839	1.167802	-2.49618	0	0
30.4523	-0.07106434	0.4581381	-0.1881103	0.4699175	2.77148	6.556122	0	0
30.46887	-0.07169271	0.4650847	-0.03792831	0.4193008	4.5325	-1.527614	0	0
30.48543	-0.07187597	0.4745795	-0.01106299	0.5731704	0.8108439	4.644059	0	0
30.502	-0.07075013	0.4804414	0.06795553	0.3538255	2.384921	-6.620223	0	0
30.51857	-0.07135235	0.4829862	-0.0363498	0.1536039	-3.147941	-6.0427	0	0
30.53514	-0.06999075	0.4873201	0.08217649	0.2615654	3.576925	3.258099	0	0
30.5517	-0.06980744	0.4873743	0.01106613	0.003270725	-2.146115	-7.79535	0	0
30.56827	-0.06980744	0.4873743	0	0	-0.3339958	-0.09871637	0	0
30.6015	-0.06978125	0.4873562	0.0007881562	-0.000543525	0.01582797	-0.01091522	0	0
30.63453	-0.06970268	0.4872659	0.002377982	-0.002734059	0.02399121	-0.03305618	0	0
30.6511	-0.06965031	0.4872659	0.003161517	0	0.01579507	0.05511514	0	0
30.66767	-0.06957175	0.4872117	0.004742372	-0.003270725	0.04771303	-0.09871637	0	0
30.7008	-0.06896938	0.4868324	0.0181794	-0.01144802	0.2703639	-0.1645338	0	0
30.71737	-0.06511833	0.4857306	0.2324502	-0.06650069	4.311137	-1.107662	0	0
30.73394	-0.05662362	0.4844305	0.5127419	-0.07847758	8.45922	-0.361463	0	0
30.7505	-0.04678163	0.4843041	0.5940632	-0.007629015	2.454283	2.138214	0	0
30.76707	-0.02912334	0.4844486	1.065857	0.008719131	14.23875	0.493388	0	0
30.78366	-0.005447315	0.4849541	1.426952	0.03047046	10.88974	0.6559654	0	0
30.80021	0.01634065	0.4849902	1.316944	0.002183249	-3.319871	-0.8536605	0	0
30.81677	0.03172619	0.484286	0.9286731	-0.04250554	-11.72613	-1.349643	0	0
30.83334	0.04491714	0.4827696	0.7962986	-0.09154433	-3.995301	-1.480079	0	0
30.84991	0.05911525	0.4802249	0.8570001	-0.1535985	1.832078	-1.872905	0	0
30.86669	0.06493489	0.4772303	0.3467236	-0.1784144	-15.29977	-0.7440645	0	0
30.88304	0.06815742	0.4750122	0.1970988	-0.1356633	-4.515686	1.29023	0	0
30.89961	0.07048829	0.4733717	0.1406916	-0.09902249	-1.71362	1.113128	0	0
30.91618	0.07177125	0.4724885	0.07743963	-0.05330956	-1.908947	1.379619	0	0
30.93274	0.07182361	0.4724524	0.003160981	-0.002175086	-2.241863	1.54333	0	0
30.94931	0.07187597	0.4724164	0.003160168	-0.002176635	-2.45532E-05	-4.673119E-05	0	0
30.96587	0.07190215	0.4723983	0.001580491	-0.001088443	-0.0476775	0.03284359	0	0
30.98244	0.07195451	0.4723623	0.003160981	-0.002175086	0.0477048	-0.03279875	0	0
30.99928	0.07198069	0.4723443	0.001554361	-0.001070448	-0.04808928	0.03306399	0	0
31.01557	0.07203305	0.4723082	0.003214194	-0.002212017	0.05009675	-0.03445461	0	0
31.04871	0.07315867	0.4714973	0.03397147	-0.02447545	0.6223245	-0.4504651	0	0
31.06533	0.0732372	0.4714071	0.004722722	-0.005420443	-0.5877867	0.3829319	0	0
31.0854	0.07318485	0.4713711	-0.002608126	-0.001795175	-0.1997649	0.09878816	0	0
31.10197	0.07315867	0.4713531	-0.001579859	-0.001088317	0.02806539	0.01929288	0	0
31.11854	0.07315867	0.4713171	0	-0.002174836	0.04768024	-0.03279119	0	0
31.13511	0.07315867	0.471281	0	-0.002176635	0	-5.428939E-05	0	0
31.15189	0.07315867	0.471281	0	0	0	0.06526643	0	0
31.1684	0.07318485	0.471227	0.001585151	-0.00327228	0.04760975	-0.09828237	0	0
31.1848	0.07315867	0.4712089	-0.001595472	-0.001099073	-0.09662549	0.06602076	0	0
31.20137	0.07321102	0.4710648	0.003159718	-0.008701143	0.1442176	-0.230559	0	0
31.28421	0.07336807	0.4708125	0.001895921	-0.00304549	-0.01271383	0.05689598	0	0
31.30078	0.07336807	0.4708125	0	0	-0.019073	0.03063769	0	0
31.31734	0.0733419	0.4707945	-0.001579859	-0.001088317	-0.04768024	-0.03284548	0	0
31.33402	0.07328955	0.4707584	-0.003138042	-0.002159916	-0.04686418	-0.03222959	0	0
31.35053	0.07326338	0.4707404	-0.001585518	-0.001092216	0.04677717	0.03216956	0	0
31.36704	0.0732372	0.4707224	-0.001585786	-0.001090284	-8.119921E-06	5.849305E-05	0	0
31.38361	0.0732372	0.4707224	0	0	0.04794467	0.03296367	0	0
31.40018	0.07318485	0.4706864	-0.003159718	-0.002174836	-0.09536597	-0.06564046	0	0
31.41674	0.07300162	0.47038	-0.01105946	-0.0184906	-0.2384148	-0.4924108	0	0
31.43331	0.07287074	0.47029	-0.007900195	-0.00543619	0.09534692	0.3939829	0	0
31.44988	0.07187597	0.4695333	-0.06004454	-0.04567515	-1.573719	-1.214414	0	0
31.46644	0.07033117	0.4683984	-0.0932548	-0.06851073	-1.002346	-0.6892187	0	0
31.48313	0.06954556	0.467786	-0.04708891	-0.03670723	1.388494	0.9565277	0	0
31.49957	0.06970268	0.4676419	0.009552285	-0.008760073	1.709533	0.8434954	0	0
31.51614	0.06978125	0.4674077	0.004742275	-0.01413374	-0.1456863	-0.1627583	0	0
31.53271	0.06991219	0.4663812	0.007902433	-0.06195321	0.09536826	-1.443111	0	0
31.54927	0.07095961	0.4642566	0.06323681	-0.1282729	1.670091	-2.001648	0	0
31.56584	0.07033117	0.446454	-0.03792799	-1.074441	-3.053336	-28.55706	0	0
31.58241	0.06972887	0.4360592	-0.03635893	-0.6275025	0.04735429	13.48864	0	0
31.59898	0.06959794	0.4242774	-0.007902433	-0.7110715	0.8588189	-2.522117	0	0
31.61572	0.06936223	0.3968669	-0.01407816	-1.637161	-0.1853915	-27.80061	0	0
31.63223	0.06941461	0.3662314	0.003172108	-1.855354	0.518733	-6.56127	0	0
31.64868	0.06936223	0.3420497	-0.003185354	-1.470613	-0.1929124	11.67466	0	0
31.66524	0.06899557	0.3176194	-0.02213152	-1.474622	-0.5739439	-0.1214249	0	0
31.68181	0.06797406	0.2861136	-0.06165858	-1.901693	-1.192929	-12.88906	0	0
31.69838	0.067031	0.2643545	-0.05692305	-1.31338	0.1429186	17.75535	0	0
31.71529	0.06579961	0.2387751	-0.0728017	-1.512288	-0.4742502	-5.940822	0	0
31.73151	0.06543277	0.2330309	-0.02261619	-0.3541412	1.514602	34.95293	0	0
31.74808	0.06315275	0.2064356	-0.1376381	-1.605479	-3.508325	-38.16751	0	0
31.76483	0.06178967	0.2010307	-0.08137672	-0.3226726	1.688736	38.50461	0	0
31.78121	0.05644	0.1932049	-0.3265154	-0.4776466	-7.398301	-4.677125	0	0
31.79778	0.05415751	0.1916713	-0.1377709	-0.09257264	5.727976	11.68614	0	0
31.81436	0.05386889	0.1914728	-0.01740359	-0.01196898	3.63081	2.431363	0	0
31.83091	0.05386889	0.1914728	0	0	0.5253019	0.3612662	0	0
31.84789	0.05386889	0.1914728	0	0	0	0	0	0
31.86404	0.05389512	0.1914908	0.00162426	0.001117126	0.04902309	0.03371686	0	0
31.88061	0.05389512	0.1915269	0	0.002178434	-0.04964035	0.0324355	0	0
31.89742	0.05397384	0.1916171	0.004682492	0.005366994	0.1402843	0.09552708	0	0
31.91374	0.05397384	0.1916532	0	0.002211016	-0.1413179	-0.09524761	0	0
31.93031	0.05402632	0.1917254	0.003167588	0.004356867	0.09630761	0.06524264	0	0
31.94696	0.05413128	0.1917976	0.006304691	0.004335902	0.0944496	-0.000631213	0	0
32.00474	0.05439366	0.1926276	0.00454113	0.01436517	-0.02369529	0.1347537	0	0
32.02131	0.05379017	0.1930786	-0.03642693	0.02722592	-0.5510418	0.1729839	0	0
32.03787	0.05355401	0.1932771	-0.01425471	0.01197869	0.6691589	-0.4601626	0	0
32.07421	0.0534228	0.1935838	-0.003610872	0.00844078	0.2011983	-0.06687633	0	0
32.09077	0.0534228	0.1936199	0	0.002178434	0.06825558	-0.1183759	0	0
32.10757	0.05339656	0.1936379	-0.001562323	0.001073487	-0.04682752	-0.03311859	0	0
32.12391	0.05339656	0.1936379	0	0	0.04715099	-0.0323979	0	0
32.14048	0.05339656	0.1936379	0	0	0	0	0	0
32.15711	0.05339656	0.1936379	0	0	0	0	0	0
32.17361	0.05339656	0.1936379	0	0	0	0	0	0
32.19017	0.05339656	0.1936379	0	0	0	0	0	0
32.20674	0.05339656	0.1936379	0	0	0	0	0	0
32.22331	0.0534228	0.1936199	0.001583907	-0.001088317	0.0478024	-0.03284548	0	0
32.23988	0.0534228	0.1936199	0	0	-0.0478024	0.03284548	0	0
32.25668	0.0534228	0.1936199	0	0	0	0	0	0
32.27301	0.0534228	0.1936199	0	0	0	0	0	0
32.28958	0.0534228	0.1936199	0	0	0	0	0	0
32.30621	0.0534228	0.1936199	0	0	0	0	0	0
32.32271	0.0534228	0.1936199	0	0	0	0	0	0
32.33928	0.0534228	0.1936199	0	0	0	0	0	0
32.35585	0.0534228	0.1936199	0	0	0	0	0	0
32.37241	0.0534228	0.1936199	0	0	0	0	0	0
32.38898	0.0534228	0.1936199	0	0	0	0	0	0
32.40555	0.0534228	0.1936199	0	0	0	0	0	0
32.42212	0.0534228	0.1936199	0	0	0	0	0	0
32.43881	0.0534228	0.1936199	0	0	0	0	0	0
32.45525	0.0534228	0.1936199	0	0	0	0	0	0
32.47181	0.0534228	0.1936199	0	0	0	0	0	0
32.48884	0.05339656	0.1936018	-0.001540974	-0.001059693	-0.04586772	-0.0315422	0	0
32.50494	0.05339656	0.1936018	0	0	0.04651203	0.03198528	0	0
32.52151	0.05339656	0.1936018	0	0	0	0	0	0
32.53808	0.05339656	0.1936018	0	0	0	0	0	0
32.55465	0.05339656	0.1936018	0	0	0	0	0	0
32.57121	0.05339656	0.1936018	0	0	0	0	0	0
32.58778	0.05339656	0.1936018	0	0	0	0	0	0
32.60435	0.05339656	0.1936018	0	0	0	0	0	0
32.62094	0.05339656	0.1936018	0	0	0	0	0	0
32.63748	0.05339656	0.1936018	0	0	0	0	0	0
32.65446	0.05339656	0.1936018	0	0	0	0	0	0
32.67062	0.05339656	0.1936018	0	0	0	0	0	0
32.68718	0.05339656	0.1936018	0	0	0	0	0	0
32.70375	0.05339656	0.1936018	0	0	0	0	0	0
32.73689	0.05339656	0.1936018	0	0	0	0	0	0
32.75345	0.05339656	0.1936018	0	0	0	0	0	0
32.77002	0.05339656	0.1936018	0	0	0	0	0	0
32.78659	0.05339656	0.1936018	0	0	0	0	0	0
32.80315	0.05339656	0.1936018	0	0	0	0	0	0
32.81972	0.05339656	0.1936018	0	0	0	0	0	0
32.83629	0.05339656	0.1936018	0	0	0	0	0	0
32.85311	0.05339656	0.1936018	0	0	0	0	0	0
32.86942	0.05339656	0.1936018	0	0	0	0	0	0
32.88614	0.05339656	0.1936018	0	0	0	0	0	0
32.90256	0.05339656	0.1936018	0	0	0	0	0	0
32.91912	0.05339656	0.1936018	0	0	0	0	0	0
32.95538	0.05339656	0.1936018	0	0	0	0	0	0
32.97219	0.05339656	0.1936018	0	0	0	0	0	0
32.9887	0.05339656	0.1936018	0	0	0	0	0	0
33.00508	0.05339656	0.1936018	0	0	0	0	0	0
33.02164	0.05339656	0.1936018	0	0	0	0	0	0
33.03821	0.05339656	0.1936018	0	0	0	0	0	0
33.07135	0.05339656	0.1936018	0	0	0	0	0	0
33.08791	0.05339656	0.1936018	0	0	0	0	0	0
33.10448	0.05339656	0.1936018	0	0	0	0	0	0
33.12105	0.05339656	0.1936018	0	0	0	0	0	0
33.15433	0.05339656	0.1936018	0	0	0	0	0	0
33.17075	0.05339656	0.1936018	0	0	0	0	0	0
33.18732	0.05339656	0.1936018	0	0	0	0	0	0
33.20388	0.05339656	0.1936018	0	0	0	0	0	0
33.22045	0.05339656	0.1936018	0	0	0	0	0	0
33.23702	0.05339656	0.1936018	0	0	0	0	0	0
33.25359	0.05339656	0.1936018	0	0	0	0	0	0
33.27041	0.05339656	0.1936018	0	0	0	0	0	0
33.28672	0.05339656	0.1936018	0	0	0	0	0	0
33.30329	0.05339656	0.1936018	0	0	0	0	0	0
33.31985	0.05339656	0.1936018	0	0	0	0	0	0
33.33642	0.05339656	0.1936018	0	0	0	0	0	0
33.35299	0.05339656	0.1936018	0	0	0	0	0	0
33.36956	0.05339656	0.1936018	0	0	0	0	0	0
33.38612	0.05339656	0.1936018	0	0	0	0	0	0
33.40269	0.05339656	0.1936018	0	0	0	0	0	0
33.41926	0.05339656	0.1936018	0	0	0	0	0	0
33.43582	0.05339656	0.1936018	0	0	0	0	0	0
33.45239	0.05339656	0.1936018	0	0	0	0	0	0
33.46896	0.05339656	0.1936018	0	0	0	0	0	0
33.4875	0.05339656	0.1936018	0	0	0	0	0	0
33.50407	0.05339656	0.1936018	0	0	0	0	0	0
33.52064	0.05339656	0.1936018	0	0	0	0	0	0
33.5372	0.05339656	0.1936018	0	0	0	0	0	0
33.55412	0.05339656	0.1936018	0	0	0	0	0	0
33.58691	0.05339656	0.1936018	0	0	0	0	0	0
33.60365	0.05339656	0.1936018	0	0	0	0	0	0
33.62016	0.05339656	0.1936018	0	0	0	0	0	0
33.6366	0.05339656	0.1936018	0	0	0	0	0	0
33.65319	0.05339656	0.1936018	0	0	0	0	0	0
33.66974	0.05339656	0.1936018	0	0	0	0	0	0
33.68631	0.05339656	0.1936018	0	0	0	0	0	0
33.70287	0.05339656	0.1936018	0	0	0	0	0	0
33.71944	0.05339656	0.1936018	0	0	0	0	0	0
33.73601	0.05339656	0.1936018	0	0	0	0	0	0
33.75257	0.05339656	0.1936018	0	0	0	0	0	0
33.76914	0.05339656	0.1936018	0	0	0	0	0	0
33.80535	0.05339656	0.1936018	0	0	0	0	0	0
33.82191	0.05339656	0.1936018	0	0	0	0	0	0
33.83848	0.05337032	0.1935838	-0.001583907	-0.001089217	-0.0478024	-0.03287263	0	0
33.85534	0.05339656	0.1935658	0.001557018	-0.001069842	0.0939818	0.0005797225	0	0
33.87185	0.05339656	0.1935658	0	0	-0.04666853	0.0320664	0	0
33.88836	0.05339656	0.1935658	0	0	0	0	0	0
33.90487	0.05339656	0.1935658	0	0	0	0	0	0
33.92138	0.05339656	0.1935658	0	0	0	0	0	0
33.95445	0.05339656	0.1935658	0	0	0	0	0	0
33.97102	0.05339656	0.1935658	0	0	0	0	0	0
33.98758	0.05339656	0.1935658	0	0	0	0	0	0
34.00415	0.05339656	0.1935658	0	0	0	0	0	0
34.02072	0.05339656	0.1935658	0	0	0	0	0	0
34.03746	0.05339656	0.1935658	0	0	0	0	0	0
34.05385	0.05339656	0.1935658	0	0	0	0	0	0
34.07042	0.05339656	0.1935658	0	0	0	0	0	0
34.08698	0.05339656	0.1935658	0	0	0	0	0	0
34.12012	0.05339656	0.1935658	0	0	0	0	0	0
34.13668	0.05339656	0.1935658	0	0	0	0	0	0
34.15325	0.05339656	0.1935658	0	0	0	0	0	0
34.16982	0.05339656	0.1935658	0	0	0	0	0	0
34.18638	0.05339656	0.1935658	0	0	0	0	0	0
34.20295	0.05339656	0.1935658	0	0	0	0	0	0
34.21959	0.05339656	0.1935658	0	0	0	0	0	0
34.23608	0.05339656	0.1935658	0	0	0	0	0	0
34.25265	0.05339656	0.1935658	0	0	0	0	0	0
34.26922	0.05339656	0.1935658	0	0	0	0	0	0
34.28579	0.05337032	0.1935838	-0.001583907	0.001088317	-0.0478024	0.03284548	0	0
34.30235	0.05339656	0.1935658	0.001583907	-0.001088317	0.09560479	-0.06569096	0	0
34.31892	0.05339656	0.1935658	0	0	-0.0478024	0.03284548	0	0
34.33549	0.05339656	0.1935658	0	0	0	0	0	0
34.35205	0.05339656	0.1935658	0	0	0	0	0	0
34.36862	0.05339656	0.1935658	0	0	0	0	0	0
34.38519	0.05339656	0.1935658	0	0	0	0	0	0
34.40223	0.05339656	0.1935658	0	0	0	0	0	0
34.41832	0.05339656	0.1935658	0	0	0	0	0	0
34.43489	0.05339656	0.1935658	0	0	0	0	0	0
34.45146	0.05339656	0.1935658	0	0	0	0	0	0
34.46803	0.05339656	0.1935658	0	0	0	0	0	0
34.48459	0.05339656	0.1935658	0	0	0	0	0	0
34.50116	0.05339656	0.1935658	0	0	0	0	0	0
34.51773	0.05339656	0.1935658	0	0	0	0	0	0
34.53429	0.05339656	0.1935658	0	0	0	0	0	0
34.56742	0.05339656	0.1935658	0	0	0	0	0	0
34.58399	0.05339656	0.1935658	0	0	0	0	0	0
34.60056	0.05339656	0.1935658	0	0	0	0	0	0
34.61712	0.05339656	0.1935658	0	0	0	0	0	0
34.63369	0.05339656	0.1935658	0	0	0	0	0	0
34.65026	0.05339656	0.1935658	0	0	0	0	0	0
34.66682	0.05339656	0.1935658	0	0	0	0	0	0
34.73779	0.05339656	0.1935658	0	0	0	0	0	0
34.75435	0.05339656	0.1935658	0	0	0	0	0	0
34.77092	0.05339656	0.1935658	0	0	0	0	0	0
34.78749	0.05339656	0.1935658	0	0	0	0	0	0
34.83719	0.05339656	0.1935297	0	-0.0007261446	0	-0.01095754	0	0
34.85376	0.05339656	0.1935297	0	0	0	0.01095754	0	0
34.87032	0.05339656	0.1935297	0	0	0	0	0	0
34.88689	0.05339656	0.1935297	0	0	0	0	0	0
34.90346	0.05339656	0.1935297	0	0	0	0	0	0
34.92002	0.05339656	0.1935297	0	0	0	0	0	0
34.93659	0.05339656	0.1935297	0	0	0	0	0	0
34.95316	0.05339656	0.1935297	0	0	0	0	0	0
34.96973	0.05339656	0.1935297	0	0	0	0	0	0
34.98629	0.05339656	0.1935297	0	0	0	0	0	0
35.00286	0.05339656	0.1935297	0	0	0	0	0	0
35.01967	0.05339656	0.1935297	0	0	0	0	0	0
35.03599	0.05339656	0.1935297	0	0	0	0	0	0
35.06913	0.05339656	0.1935297	0	0	0	0	0	0
35.08569	0.05339656	0.1935297	0	0	0	0	0	0
35.10226	0.05339656	0.1935297	0	0	0	0	0	0
35.11883	0.05339656	0.1935297	0	0	0	0	0	0
35.1354	0.05339656	0.1935297	0	0	0	0	0	0
35.15196	0.05339656	0.1935297	0	0	0	0	0	0
35.16853	0.05339656	0.1935297	0	0	0	0	0	0
35.1851	0.05339656	0.1935297	0	0	0	0	0	0
35.20166	0.05339656	0.1935297	0	0	0	0	0	0
35.21823	0.05339656	0.1935297	0	0	0	0	0	0
35.23483	0.05339656	0.1935297	0	0	0	0	0	0
35.25137	0.05339656	0.1935297	0	0	0	0	0	0
35.26793	0.05339656	0.1935297	0	0	0	0	0	0
35.28486	0.05339656	0.1935297	0	0	0	0	0	0
35.30106	0.05339656	0.1935297	0	0	0	0	0	0
35.31763	0.05339656	0.1935297	0	0	0	0	0	0
35.3342	0.05339656	0.1935297	0	0	0	0	0	0
35.35077	0.05339656	0.1935297	0	0	0	0	0	0
35.36742	0.05339656	0.1935297	0	0	0	0	0	0
35.3839	0.05339656	0.1935297	0	0	0	0	0	0
35.40047	0.05339656	0.1935297	0	0	0	0	0	0
35.41703	0.05339656	0.1935297	0	0	0	0	0	0
35.4336	0.05339656	0.1935297	0	0	0	0	0	0
35.45016	0.05339656	0.1935297	0	0	0	0	0	0
35.467	0.05339656	0.1935297	0	0	0	0	0	0
35.4833	0.05339656	0.1935297	0	0	0	0	0	0
35.49987	0.05339656	0.1935297	0	0	0	0	0	0
35.51643	0.05339656	0.1935297	0	0	0	0	0	0
35.533	0.05339656	0.1935297	0	0	0	0	0	0
35.54956	0.05339656	0.1935297	0	0	0	0	0	0
35.56613	0.05339656	0.1935297	0	0	0	0	0	0
35.5827	0.05339656	0.1935297	0	0	0	0	0	0
35.59927	0.05339656	0.1935297	0	0	0	0	0	0
35.61583	0.05337032	0.1935477	-0.001583907	0.001089217	-0.0478024	0.03287263	0	0
35.6324	0.05337032	0.1935477	0	0	0.0478024	-0.03287263	0	0
35.64897	0.05339656	0.1935658	0.001583907	0.001089217	0.0478024	0.03287263	0	0
35.66553	0.05339656	0.1935658	0	0	-0.0478024	-0.03287263	0	0
35.68405	0.05339656	0.1935658	0	0	0	0	0	0
35.78372	0.05339656	0.1935658	0	0	0	0	0	0
35.80002	0.05339656	0.1935658	0	0	0	0	0	0
35.81675	0.05339656	0.1935658	0	0	0	0	0	0
35.83315	0.05339656	0.1935658	0	0	0	0	0	0
35.84972	0.05339656	0.1935658	0	0	0	0	0	0
35.86629	0.05339656	0.1935658	0	0	0	0	0	0
35.88285	0.05339656	0.1935658	0	0	0	0	0	0
35.89942	0.05339656	0.1935658	0	0	0	0	0	0
35.91599	0.0534228	0.1935477	0.001583907	-0.001089217	0.0478024	-0.03287263	0	0
35.93256	0.05371145	0.1932771	0.01742252	-0.01633465	0.4780104	-0.4601082	0	0
35.94912	0.05696462	0.1906426	0.1963619	-0.1590176	5.400402	-4.306179	0	0
35.96569	0.06427974	0.1853888	0.4415416	-0.3171222	7.399538	-4.771607	0	0
35.98226	0.07103816	0.1805105	0.4079387	-0.2944519	-1.014138	0.6841901	0	0
36.01539	0.09826148	0.1595469	0.8216014	-0.6326844	8.32291	-6.80525	0	0
36.03196	0.1046167	0.146585	0.3835995	-0.782377	-8.812615	-3.011822	0	0
36.04853	0.1053454	0.1415303	0.04398736	-0.3051039	-10.24952	14.40413	0	0
36.06509	0.1045386	0.1368169	-0.04870085	-0.2845051	-2.797336	0.6216748	0	0
36.08167	0	0	-6.305605	-8.252582	-188.7685	-240.394	0	0
36.09941	0.1026901	0.1390558	5.787917	7.837593	352.3668	468.8166	0	0
36.11598	0.1017526	0.1400748	-0.05658801	0.06150972	-170.3471	-226.646	0	0
36.13255	0.09875663	0.1422397	-0.1808388	0.1306709	-3.749896	2.08729	0	0
36.14912	0.09189831	0.1472393	-0.413969	0.3017751	-7.035882	5.163934	0	0
36.18251	0.06503972	0.1667055	-0.8042975	0.5829282	-7.812651	5.62744	0	0
36.19882	0.05838095	0.1718836	-0.4083171	0.317521	7.967141	-5.340003	0	0
36.21539	0.04804195	0.1811431	-0.6240633	0.5589041	-6.562608	7.342436	0	0
36.23205	0.03758755	0.1925915	-0.627417	0.6870734	-0.1009266	3.857058	0	0
36.24852	0.0264675	0.2113149	-0.6750937	1.136688	-1.438885	13.5694	0	0
36.26509	0.01749821	0.2324024	-0.5413873	1.272847	4.046915	4.121161	0	0
36.28165	0.01168368	0.2488916	-0.350966	0.9952906	5.746927	-8.376682	0	0
36.29822	0.007157772	0.2664136	-0.2731843	1.05763	2.347457	1.881395	0	0
36.31479	0.003263146	0.2852731	-0.2350801	1.138358	1.149986	2.436403	0	0
36.33136	-0.002184207	0.3107421	-0.3288029	1.537314	-2.828559	12.0405	0	0
36.34792	-0.005842039	0.3285138	-0.2207872	1.072701	3.259921	-14.02203	0	0
36.36449	-0.01086799	0.3511035	-0.3033672	1.36352	-2.492271	8.776908	0	0
36.38106	-0.01447267	0.3681964	-0.2175789	1.031729	2.589096	-10.01347	0	0
36.39767	-0.01944492	0.3901963	-0.2992982	1.324257	-2.46289	8.816359	0	0
36.41419	-0.02268032	0.4064212	-0.1958305	0.9820516	3.12266	-10.32779	0	0
36.43076	-0.0244688	0.4166984	-0.1079279	0.6201891	2.65627	-10.93488	0	0
36.44733	-0.02738789	0.4344624	-0.176237	1.072484	-2.061573	13.65029	0	0
36.46389	-0.02920222	0.4439574	-0.1095135	0.5731205	2.013952	-15.07256	0	0
36.48074	-0.03167361	0.4520064	-0.1467407	0.4779109	-1.114283	-2.849811	0	0
